"success","timeout","failed_images","failed_audio","failed_video","trial_type","trial_index","time_elapsed","internal_node_id","subject","subject_id","study_id","session_id","urlvar","current_url","audio_id","view_history","rt","device_id","stimulus","response","estimated_stimulus_onset","seq_name"
"true","false","[]","[]","[]","preload","0","1934","0.0-0.0","0A50F51032FE4D61A189FE351E454A06","0A50F51032FE4D61A189FE351E454A06","6dcff41c-fde2-43d9-901f-c46d99fedd93","a0a8f18c-a66e-4ba7-a170-23efbdc67501","{""participantId"":""0A50F51032FE4D61A189FE351E454A06"",""assignmentId"":""6dcff41c-fde2-43d9-901f-c46d99fedd93"",""projectId"":""a0a8f18c-a66e-4ba7-a170-23efbdc67501""}","https://test12345.live/?participantId=0A50F51032FE4D61A189FE351E454A06&assignmentId=6dcff41c-fde2-43d9-901f-c46d99fedd93&projectId=a0a8f18c-a66e-4ba7-a170-23efbdc67501","0A50F51032FE4D61A189FE351E454A06-2024-11-24-18-39-10","","","","","","",""
"","","","","","instructions","1","10335","0.0-1.0","0A50F51032FE4D61A189FE351E454A06","0A50F51032FE4D61A189FE351E454A06","6dcff41c-fde2-43d9-901f-c46d99fedd93","a0a8f18c-a66e-4ba7-a170-23efbdc67501","{""participantId"":""0A50F51032FE4D61A189FE351E454A06"",""assignmentId"":""6dcff41c-fde2-43d9-901f-c46d99fedd93"",""projectId"":""a0a8f18c-a66e-4ba7-a170-23efbdc67501""}","https://test12345.live/?participantId=0A50F51032FE4D61A189FE351E454A06&assignmentId=6dcff41c-fde2-43d9-901f-c46d99fedd93&projectId=a0a8f18c-a66e-4ba7-a170-23efbdc67501","0A50F51032FE4D61A189FE351E454A06-2024-11-24-18-39-10","[{""page_index"":0,""viewing_time"":8400}]","8401","","","","",""
"","","","","","instructions","2","12503","0.0-2.0","0A50F51032FE4D61A189FE351E454A06","0A50F51032FE4D61A189FE351E454A06","6dcff41c-fde2-43d9-901f-c46d99fedd93","a0a8f18c-a66e-4ba7-a170-23efbdc67501","{""participantId"":""0A50F51032FE4D61A189FE351E454A06"",""assignmentId"":""6dcff41c-fde2-43d9-901f-c46d99fedd93"",""projectId"":""a0a8f18c-a66e-4ba7-a170-23efbdc67501""}","https://test12345.live/?participantId=0A50F51032FE4D61A189FE351E454A06&assignmentId=6dcff41c-fde2-43d9-901f-c46d99fedd93&projectId=a0a8f18c-a66e-4ba7-a170-23efbdc67501","0A50F51032FE4D61A189FE351E454A06-2024-11-24-18-39-10","[{""page_index"":0,""viewing_time"":2167}]","2167","","","","",""
"true","","","","","fullscreen","3","15369","0.0-3.0","0A50F51032FE4D61A189FE351E454A06","0A50F51032FE4D61A189FE351E454A06","6dcff41c-fde2-43d9-901f-c46d99fedd93","a0a8f18c-a66e-4ba7-a170-23efbdc67501","{""participantId"":""0A50F51032FE4D61A189FE351E454A06"",""assignmentId"":""6dcff41c-fde2-43d9-901f-c46d99fedd93"",""projectId"":""a0a8f18c-a66e-4ba7-a170-23efbdc67501""}","https://test12345.live/?participantId=0A50F51032FE4D61A189FE351E454A06&assignmentId=6dcff41c-fde2-43d9-901f-c46d99fedd93&projectId=a0a8f18c-a66e-4ba7-a170-23efbdc67501","0A50F51032FE4D61A189FE351E454A06-2024-11-24-18-39-10","","1858","","","","",""
"","","","","","initialize-microphone","4","59141","0.0-4.0-0.0","0A50F51032FE4D61A189FE351E454A06","0A50F51032FE4D61A189FE351E454A06","6dcff41c-fde2-43d9-901f-c46d99fedd93","a0a8f18c-a66e-4ba7-a170-23efbdc67501","{""participantId"":""0A50F51032FE4D61A189FE351E454A06"",""assignmentId"":""6dcff41c-fde2-43d9-901f-c46d99fedd93"",""projectId"":""a0a8f18c-a66e-4ba7-a170-23efbdc67501""}","https://test12345.live/?participantId=0A50F51032FE4D61A189FE351E454A06&assignmentId=6dcff41c-fde2-43d9-901f-c46d99fedd93&projectId=a0a8f18c-a66e-4ba7-a170-23efbdc67501","0A50F51032FE4D61A189FE351E454A06-2024-11-24-18-39-10","","","893b202889bdd2ba668c5f53d746e399a43f8ec9d0fa717d772a56aab1d58d53","","","",""
"","","","","","html-audio-response","5","72803","0.0-4.0-1.0","0A50F51032FE4D61A189FE351E454A06","0A50F51032FE4D61A189FE351E454A06","6dcff41c-fde2-43d9-901f-c46d99fedd93","a0a8f18c-a66e-4ba7-a170-23efbdc67501","{""participantId"":""0A50F51032FE4D61A189FE351E454A06"",""assignmentId"":""6dcff41c-fde2-43d9-901f-c46d99fedd93"",""projectId"":""a0a8f18c-a66e-4ba7-a170-23efbdc67501""}","https://test12345.live/?participantId=0A50F51032FE4D61A189FE351E454A06&assignmentId=6dcff41c-fde2-43d9-901f-c46d99fedd93&projectId=a0a8f18c-a66e-4ba7-a170-23efbdc67501","0A50F51032FE4D61A189FE351E454A06-2024-11-24-18-39-10","","3036","","<span style=""color: red; font-size: 24px""> NOW RECORDING</span>
        <p>Please test Microphone</p>","","1",""
"","","","","","html-button-response","6","73951","0.0-4.0-2.0","0A50F51032FE4D61A189FE351E454A06","0A50F51032FE4D61A189FE351E454A06","6dcff41c-fde2-43d9-901f-c46d99fedd93","a0a8f18c-a66e-4ba7-a170-23efbdc67501","{""participantId"":""0A50F51032FE4D61A189FE351E454A06"",""assignmentId"":""6dcff41c-fde2-43d9-901f-c46d99fedd93"",""projectId"":""a0a8f18c-a66e-4ba7-a170-23efbdc67501""}","https://test12345.live/?participantId=0A50F51032FE4D61A189FE351E454A06&assignmentId=6dcff41c-fde2-43d9-901f-c46d99fedd93&projectId=a0a8f18c-a66e-4ba7-a170-23efbdc67501","0A50F51032FE4D61A189FE351E454A06-2024-11-24-18-39-10","","1147","","<p style=""font-size:48px; color:red;"">Is Microphone OK?</p>","1","",""
"","","","","","instructions","7","82051","0.0-5.0","0A50F51032FE4D61A189FE351E454A06","0A50F51032FE4D61A189FE351E454A06","6dcff41c-fde2-43d9-901f-c46d99fedd93","a0a8f18c-a66e-4ba7-a170-23efbdc67501","{""participantId"":""0A50F51032FE4D61A189FE351E454A06"",""assignmentId"":""6dcff41c-fde2-43d9-901f-c46d99fedd93"",""projectId"":""a0a8f18c-a66e-4ba7-a170-23efbdc67501""}","https://test12345.live/?participantId=0A50F51032FE4D61A189FE351E454A06&assignmentId=6dcff41c-fde2-43d9-901f-c46d99fedd93&projectId=a0a8f18c-a66e-4ba7-a170-23efbdc67501","0A50F51032FE4D61A189FE351E454A06-2024-11-24-18-39-10","[{""page_index"":0,""viewing_time"":2796},{""page_index"":1,""viewing_time"":5303}]","8100","","","","",""
"","","","","","image-button-response","8","88053","0.0-6.0-0.0","0A50F51032FE4D61A189FE351E454A06","0A50F51032FE4D61A189FE351E454A06","6dcff41c-fde2-43d9-901f-c46d99fedd93","a0a8f18c-a66e-4ba7-a170-23efbdc67501","{""participantId"":""0A50F51032FE4D61A189FE351E454A06"",""assignmentId"":""6dcff41c-fde2-43d9-901f-c46d99fedd93"",""projectId"":""a0a8f18c-a66e-4ba7-a170-23efbdc67501""}","https://test12345.live/?participantId=0A50F51032FE4D61A189FE351E454A06&assignmentId=6dcff41c-fde2-43d9-901f-c46d99fedd93&projectId=a0a8f18c-a66e-4ba7-a170-23efbdc67501","0A50F51032FE4D61A189FE351E454A06-2024-11-24-18-39-10","","null","","images/instructions/movie_0.png","null","",""
"","","","","","image-button-response","9","92557","0.0-6.0-1.0-0.0","0A50F51032FE4D61A189FE351E454A06","0A50F51032FE4D61A189FE351E454A06","6dcff41c-fde2-43d9-901f-c46d99fedd93","a0a8f18c-a66e-4ba7-a170-23efbdc67501","{""participantId"":""0A50F51032FE4D61A189FE351E454A06"",""assignmentId"":""6dcff41c-fde2-43d9-901f-c46d99fedd93"",""projectId"":""a0a8f18c-a66e-4ba7-a170-23efbdc67501""}","https://test12345.live/?participantId=0A50F51032FE4D61A189FE351E454A06&assignmentId=6dcff41c-fde2-43d9-901f-c46d99fedd93&projectId=a0a8f18c-a66e-4ba7-a170-23efbdc67501","0A50F51032FE4D61A189FE351E454A06-2024-11-24-18-39-10","","null","","images/instructions/movie_1.png","null","",""
"","","","","","image-button-response","10","95176","0.0-6.0-1.0-1.0","0A50F51032FE4D61A189FE351E454A06","0A50F51032FE4D61A189FE351E454A06","6dcff41c-fde2-43d9-901f-c46d99fedd93","a0a8f18c-a66e-4ba7-a170-23efbdc67501","{""participantId"":""0A50F51032FE4D61A189FE351E454A06"",""assignmentId"":""6dcff41c-fde2-43d9-901f-c46d99fedd93"",""projectId"":""a0a8f18c-a66e-4ba7-a170-23efbdc67501""}","https://test12345.live/?participantId=0A50F51032FE4D61A189FE351E454A06&assignmentId=6dcff41c-fde2-43d9-901f-c46d99fedd93&projectId=a0a8f18c-a66e-4ba7-a170-23efbdc67501","0A50F51032FE4D61A189FE351E454A06-2024-11-24-18-39-10","","2616","","images/instructions/movie_1.png","0","",""
"","","","","","image-button-response","11","96979","0.0-6.0-1.0-2.0","0A50F51032FE4D61A189FE351E454A06","0A50F51032FE4D61A189FE351E454A06","6dcff41c-fde2-43d9-901f-c46d99fedd93","a0a8f18c-a66e-4ba7-a170-23efbdc67501","{""participantId"":""0A50F51032FE4D61A189FE351E454A06"",""assignmentId"":""6dcff41c-fde2-43d9-901f-c46d99fedd93"",""projectId"":""a0a8f18c-a66e-4ba7-a170-23efbdc67501""}","https://test12345.live/?participantId=0A50F51032FE4D61A189FE351E454A06&assignmentId=6dcff41c-fde2-43d9-901f-c46d99fedd93&projectId=a0a8f18c-a66e-4ba7-a170-23efbdc67501","0A50F51032FE4D61A189FE351E454A06-2024-11-24-18-39-10","","null","","[]","null","",""
"","","","","","image-button-response","12","101484","0.0-6.0-1.0-0.1","0A50F51032FE4D61A189FE351E454A06","0A50F51032FE4D61A189FE351E454A06","6dcff41c-fde2-43d9-901f-c46d99fedd93","a0a8f18c-a66e-4ba7-a170-23efbdc67501","{""participantId"":""0A50F51032FE4D61A189FE351E454A06"",""assignmentId"":""6dcff41c-fde2-43d9-901f-c46d99fedd93"",""projectId"":""a0a8f18c-a66e-4ba7-a170-23efbdc67501""}","https://test12345.live/?participantId=0A50F51032FE4D61A189FE351E454A06&assignmentId=6dcff41c-fde2-43d9-901f-c46d99fedd93&projectId=a0a8f18c-a66e-4ba7-a170-23efbdc67501","0A50F51032FE4D61A189FE351E454A06-2024-11-24-18-39-10","","null","","images/instructions/movie_2.png","null","",""
"","","","","","image-button-response","13","102473","0.0-6.0-1.0-1.1","0A50F51032FE4D61A189FE351E454A06","0A50F51032FE4D61A189FE351E454A06","6dcff41c-fde2-43d9-901f-c46d99fedd93","a0a8f18c-a66e-4ba7-a170-23efbdc67501","{""participantId"":""0A50F51032FE4D61A189FE351E454A06"",""assignmentId"":""6dcff41c-fde2-43d9-901f-c46d99fedd93"",""projectId"":""a0a8f18c-a66e-4ba7-a170-23efbdc67501""}","https://test12345.live/?participantId=0A50F51032FE4D61A189FE351E454A06&assignmentId=6dcff41c-fde2-43d9-901f-c46d99fedd93&projectId=a0a8f18c-a66e-4ba7-a170-23efbdc67501","0A50F51032FE4D61A189FE351E454A06-2024-11-24-18-39-10","","988","","images/instructions/movie_2.png","0","",""
"","","","","","image-button-response","14","104275","0.0-6.0-1.0-2.1","0A50F51032FE4D61A189FE351E454A06","0A50F51032FE4D61A189FE351E454A06","6dcff41c-fde2-43d9-901f-c46d99fedd93","a0a8f18c-a66e-4ba7-a170-23efbdc67501","{""participantId"":""0A50F51032FE4D61A189FE351E454A06"",""assignmentId"":""6dcff41c-fde2-43d9-901f-c46d99fedd93"",""projectId"":""a0a8f18c-a66e-4ba7-a170-23efbdc67501""}","https://test12345.live/?participantId=0A50F51032FE4D61A189FE351E454A06&assignmentId=6dcff41c-fde2-43d9-901f-c46d99fedd93&projectId=a0a8f18c-a66e-4ba7-a170-23efbdc67501","0A50F51032FE4D61A189FE351E454A06-2024-11-24-18-39-10","","null","","[]","null","",""
"","","","","","image-button-response","15","108779","0.0-6.0-1.0-0.2","0A50F51032FE4D61A189FE351E454A06","0A50F51032FE4D61A189FE351E454A06","6dcff41c-fde2-43d9-901f-c46d99fedd93","a0a8f18c-a66e-4ba7-a170-23efbdc67501","{""participantId"":""0A50F51032FE4D61A189FE351E454A06"",""assignmentId"":""6dcff41c-fde2-43d9-901f-c46d99fedd93"",""projectId"":""a0a8f18c-a66e-4ba7-a170-23efbdc67501""}","https://test12345.live/?participantId=0A50F51032FE4D61A189FE351E454A06&assignmentId=6dcff41c-fde2-43d9-901f-c46d99fedd93&projectId=a0a8f18c-a66e-4ba7-a170-23efbdc67501","0A50F51032FE4D61A189FE351E454A06-2024-11-24-18-39-10","","null","","images/instructions/movie_3.png","null","",""
"","","","","","image-button-response","16","109590","0.0-6.0-1.0-1.2","0A50F51032FE4D61A189FE351E454A06","0A50F51032FE4D61A189FE351E454A06","6dcff41c-fde2-43d9-901f-c46d99fedd93","a0a8f18c-a66e-4ba7-a170-23efbdc67501","{""participantId"":""0A50F51032FE4D61A189FE351E454A06"",""assignmentId"":""6dcff41c-fde2-43d9-901f-c46d99fedd93"",""projectId"":""a0a8f18c-a66e-4ba7-a170-23efbdc67501""}","https://test12345.live/?participantId=0A50F51032FE4D61A189FE351E454A06&assignmentId=6dcff41c-fde2-43d9-901f-c46d99fedd93&projectId=a0a8f18c-a66e-4ba7-a170-23efbdc67501","0A50F51032FE4D61A189FE351E454A06-2024-11-24-18-39-10","","809","","images/instructions/movie_3.png","0","",""
"","","","","","image-button-response","17","111392","0.0-6.0-1.0-2.2","0A50F51032FE4D61A189FE351E454A06","0A50F51032FE4D61A189FE351E454A06","6dcff41c-fde2-43d9-901f-c46d99fedd93","a0a8f18c-a66e-4ba7-a170-23efbdc67501","{""participantId"":""0A50F51032FE4D61A189FE351E454A06"",""assignmentId"":""6dcff41c-fde2-43d9-901f-c46d99fedd93"",""projectId"":""a0a8f18c-a66e-4ba7-a170-23efbdc67501""}","https://test12345.live/?participantId=0A50F51032FE4D61A189FE351E454A06&assignmentId=6dcff41c-fde2-43d9-901f-c46d99fedd93&projectId=a0a8f18c-a66e-4ba7-a170-23efbdc67501","0A50F51032FE4D61A189FE351E454A06-2024-11-24-18-39-10","","null","","[]","null","",""
"","","","","","image-button-response","18","115895","0.0-6.0-1.0-0.3","0A50F51032FE4D61A189FE351E454A06","0A50F51032FE4D61A189FE351E454A06","6dcff41c-fde2-43d9-901f-c46d99fedd93","a0a8f18c-a66e-4ba7-a170-23efbdc67501","{""participantId"":""0A50F51032FE4D61A189FE351E454A06"",""assignmentId"":""6dcff41c-fde2-43d9-901f-c46d99fedd93"",""projectId"":""a0a8f18c-a66e-4ba7-a170-23efbdc67501""}","https://test12345.live/?participantId=0A50F51032FE4D61A189FE351E454A06&assignmentId=6dcff41c-fde2-43d9-901f-c46d99fedd93&projectId=a0a8f18c-a66e-4ba7-a170-23efbdc67501","0A50F51032FE4D61A189FE351E454A06-2024-11-24-18-39-10","","null","","images/instructions/movie_4.png","null","",""
"","","","","","image-button-response","19","116528","0.0-6.0-1.0-1.3","0A50F51032FE4D61A189FE351E454A06","0A50F51032FE4D61A189FE351E454A06","6dcff41c-fde2-43d9-901f-c46d99fedd93","a0a8f18c-a66e-4ba7-a170-23efbdc67501","{""participantId"":""0A50F51032FE4D61A189FE351E454A06"",""assignmentId"":""6dcff41c-fde2-43d9-901f-c46d99fedd93"",""projectId"":""a0a8f18c-a66e-4ba7-a170-23efbdc67501""}","https://test12345.live/?participantId=0A50F51032FE4D61A189FE351E454A06&assignmentId=6dcff41c-fde2-43d9-901f-c46d99fedd93&projectId=a0a8f18c-a66e-4ba7-a170-23efbdc67501","0A50F51032FE4D61A189FE351E454A06-2024-11-24-18-39-10","","630","","images/instructions/movie_4.png","0","",""
"","","","","","image-button-response","20","118330","0.0-6.0-1.0-2.3","0A50F51032FE4D61A189FE351E454A06","0A50F51032FE4D61A189FE351E454A06","6dcff41c-fde2-43d9-901f-c46d99fedd93","a0a8f18c-a66e-4ba7-a170-23efbdc67501","{""participantId"":""0A50F51032FE4D61A189FE351E454A06"",""assignmentId"":""6dcff41c-fde2-43d9-901f-c46d99fedd93"",""projectId"":""a0a8f18c-a66e-4ba7-a170-23efbdc67501""}","https://test12345.live/?participantId=0A50F51032FE4D61A189FE351E454A06&assignmentId=6dcff41c-fde2-43d9-901f-c46d99fedd93&projectId=a0a8f18c-a66e-4ba7-a170-23efbdc67501","0A50F51032FE4D61A189FE351E454A06-2024-11-24-18-39-10","","null","","[]","null","",""
"","","","","","instructions","21","125596","0.0-7.0","0A50F51032FE4D61A189FE351E454A06","0A50F51032FE4D61A189FE351E454A06","6dcff41c-fde2-43d9-901f-c46d99fedd93","a0a8f18c-a66e-4ba7-a170-23efbdc67501","{""participantId"":""0A50F51032FE4D61A189FE351E454A06"",""assignmentId"":""6dcff41c-fde2-43d9-901f-c46d99fedd93"",""projectId"":""a0a8f18c-a66e-4ba7-a170-23efbdc67501""}","https://test12345.live/?participantId=0A50F51032FE4D61A189FE351E454A06&assignmentId=6dcff41c-fde2-43d9-901f-c46d99fedd93&projectId=a0a8f18c-a66e-4ba7-a170-23efbdc67501","0A50F51032FE4D61A189FE351E454A06-2024-11-24-18-39-10","[{""page_index"":0,""viewing_time"":6125},{""page_index"":1,""viewing_time"":1140}]","7265","","","","",""
"","","","","","html-audio-response","22","138513","0.0-8.0","0A50F51032FE4D61A189FE351E454A06","0A50F51032FE4D61A189FE351E454A06","6dcff41c-fde2-43d9-901f-c46d99fedd93","a0a8f18c-a66e-4ba7-a170-23efbdc67501","{""participantId"":""0A50F51032FE4D61A189FE351E454A06"",""assignmentId"":""6dcff41c-fde2-43d9-901f-c46d99fedd93"",""projectId"":""a0a8f18c-a66e-4ba7-a170-23efbdc67501""}","https://test12345.live/?participantId=0A50F51032FE4D61A189FE351E454A06&assignmentId=6dcff41c-fde2-43d9-901f-c46d99fedd93&projectId=a0a8f18c-a66e-4ba7-a170-23efbdc67501","0A50F51032FE4D61A189FE351E454A06-2024-11-24-18-39-10","","11434","","[""<span style=\""color: red; font-size: 24px\""> NOW RECORDING</span><p>Please say out loud all the images you saw, as many as you can remember. The images can be said in any order.</p>""]","","13",""
"","","","","","instructions","23","139741","0.0-9.0","0A50F51032FE4D61A189FE351E454A06","0A50F51032FE4D61A189FE351E454A06","6dcff41c-fde2-43d9-901f-c46d99fedd93","a0a8f18c-a66e-4ba7-a170-23efbdc67501","{""participantId"":""0A50F51032FE4D61A189FE351E454A06"",""assignmentId"":""6dcff41c-fde2-43d9-901f-c46d99fedd93"",""projectId"":""a0a8f18c-a66e-4ba7-a170-23efbdc67501""}","https://test12345.live/?participantId=0A50F51032FE4D61A189FE351E454A06&assignmentId=6dcff41c-fde2-43d9-901f-c46d99fedd93&projectId=a0a8f18c-a66e-4ba7-a170-23efbdc67501","0A50F51032FE4D61A189FE351E454A06-2024-11-24-18-39-10","[{""page_index"":0,""viewing_time"":1226}]","1226","","","","",""
"","","","","","image-button-response","24","145745","0.0-10.0-0.0","0A50F51032FE4D61A189FE351E454A06","0A50F51032FE4D61A189FE351E454A06","6dcff41c-fde2-43d9-901f-c46d99fedd93","a0a8f18c-a66e-4ba7-a170-23efbdc67501","{""participantId"":""0A50F51032FE4D61A189FE351E454A06"",""assignmentId"":""6dcff41c-fde2-43d9-901f-c46d99fedd93"",""projectId"":""a0a8f18c-a66e-4ba7-a170-23efbdc67501""}","https://test12345.live/?participantId=0A50F51032FE4D61A189FE351E454A06&assignmentId=6dcff41c-fde2-43d9-901f-c46d99fedd93&projectId=a0a8f18c-a66e-4ba7-a170-23efbdc67501","0A50F51032FE4D61A189FE351E454A06-2024-11-24-18-39-10","","null","","images/causal_sequence/dog_causal/dog_causal_0.png","null","",""
"","","","","","image-button-response","25","150246","0.0-10.0-1.0-0.0","0A50F51032FE4D61A189FE351E454A06","0A50F51032FE4D61A189FE351E454A06","6dcff41c-fde2-43d9-901f-c46d99fedd93","a0a8f18c-a66e-4ba7-a170-23efbdc67501","{""participantId"":""0A50F51032FE4D61A189FE351E454A06"",""assignmentId"":""6dcff41c-fde2-43d9-901f-c46d99fedd93"",""projectId"":""a0a8f18c-a66e-4ba7-a170-23efbdc67501""}","https://test12345.live/?participantId=0A50F51032FE4D61A189FE351E454A06&assignmentId=6dcff41c-fde2-43d9-901f-c46d99fedd93&projectId=a0a8f18c-a66e-4ba7-a170-23efbdc67501","0A50F51032FE4D61A189FE351E454A06-2024-11-24-18-39-10","","null","","images/causal_sequence/dog_causal/dog_causal_8.png","null","",""
"","","","","","image-button-response","26","152598","0.0-10.0-1.0-1.0","0A50F51032FE4D61A189FE351E454A06","0A50F51032FE4D61A189FE351E454A06","6dcff41c-fde2-43d9-901f-c46d99fedd93","a0a8f18c-a66e-4ba7-a170-23efbdc67501","{""participantId"":""0A50F51032FE4D61A189FE351E454A06"",""assignmentId"":""6dcff41c-fde2-43d9-901f-c46d99fedd93"",""projectId"":""a0a8f18c-a66e-4ba7-a170-23efbdc67501""}","https://test12345.live/?participantId=0A50F51032FE4D61A189FE351E454A06&assignmentId=6dcff41c-fde2-43d9-901f-c46d99fedd93&projectId=a0a8f18c-a66e-4ba7-a170-23efbdc67501","0A50F51032FE4D61A189FE351E454A06-2024-11-24-18-39-10","","2350","","images/causal_sequence/dog_causal/dog_causal_8.png","0","",""
"","","","","","image-button-response","27","154401","0.0-10.0-1.0-2.0","0A50F51032FE4D61A189FE351E454A06","0A50F51032FE4D61A189FE351E454A06","6dcff41c-fde2-43d9-901f-c46d99fedd93","a0a8f18c-a66e-4ba7-a170-23efbdc67501","{""participantId"":""0A50F51032FE4D61A189FE351E454A06"",""assignmentId"":""6dcff41c-fde2-43d9-901f-c46d99fedd93"",""projectId"":""a0a8f18c-a66e-4ba7-a170-23efbdc67501""}","https://test12345.live/?participantId=0A50F51032FE4D61A189FE351E454A06&assignmentId=6dcff41c-fde2-43d9-901f-c46d99fedd93&projectId=a0a8f18c-a66e-4ba7-a170-23efbdc67501","0A50F51032FE4D61A189FE351E454A06-2024-11-24-18-39-10","","null","","[]","null","",""
"","","","","","image-button-response","28","158903","0.0-10.0-1.0-0.1","0A50F51032FE4D61A189FE351E454A06","0A50F51032FE4D61A189FE351E454A06","6dcff41c-fde2-43d9-901f-c46d99fedd93","a0a8f18c-a66e-4ba7-a170-23efbdc67501","{""participantId"":""0A50F51032FE4D61A189FE351E454A06"",""assignmentId"":""6dcff41c-fde2-43d9-901f-c46d99fedd93"",""projectId"":""a0a8f18c-a66e-4ba7-a170-23efbdc67501""}","https://test12345.live/?participantId=0A50F51032FE4D61A189FE351E454A06&assignmentId=6dcff41c-fde2-43d9-901f-c46d99fedd93&projectId=a0a8f18c-a66e-4ba7-a170-23efbdc67501","0A50F51032FE4D61A189FE351E454A06-2024-11-24-18-39-10","","null","","images/causal_sequence/dog_causal/dog_causal_ten.png","null","",""
"","","","","","image-button-response","29","159970","0.0-10.0-1.0-1.1","0A50F51032FE4D61A189FE351E454A06","0A50F51032FE4D61A189FE351E454A06","6dcff41c-fde2-43d9-901f-c46d99fedd93","a0a8f18c-a66e-4ba7-a170-23efbdc67501","{""participantId"":""0A50F51032FE4D61A189FE351E454A06"",""assignmentId"":""6dcff41c-fde2-43d9-901f-c46d99fedd93"",""projectId"":""a0a8f18c-a66e-4ba7-a170-23efbdc67501""}","https://test12345.live/?participantId=0A50F51032FE4D61A189FE351E454A06&assignmentId=6dcff41c-fde2-43d9-901f-c46d99fedd93&projectId=a0a8f18c-a66e-4ba7-a170-23efbdc67501","0A50F51032FE4D61A189FE351E454A06-2024-11-24-18-39-10","","1065","","images/causal_sequence/dog_causal/dog_causal_ten.png","0","",""
"","","","","","image-button-response","30","161772","0.0-10.0-1.0-2.1","0A50F51032FE4D61A189FE351E454A06","0A50F51032FE4D61A189FE351E454A06","6dcff41c-fde2-43d9-901f-c46d99fedd93","a0a8f18c-a66e-4ba7-a170-23efbdc67501","{""participantId"":""0A50F51032FE4D61A189FE351E454A06"",""assignmentId"":""6dcff41c-fde2-43d9-901f-c46d99fedd93"",""projectId"":""a0a8f18c-a66e-4ba7-a170-23efbdc67501""}","https://test12345.live/?participantId=0A50F51032FE4D61A189FE351E454A06&assignmentId=6dcff41c-fde2-43d9-901f-c46d99fedd93&projectId=a0a8f18c-a66e-4ba7-a170-23efbdc67501","0A50F51032FE4D61A189FE351E454A06-2024-11-24-18-39-10","","null","","[]","null","",""
"","","","","","image-button-response","31","166273","0.0-10.0-1.0-0.2","0A50F51032FE4D61A189FE351E454A06","0A50F51032FE4D61A189FE351E454A06","6dcff41c-fde2-43d9-901f-c46d99fedd93","a0a8f18c-a66e-4ba7-a170-23efbdc67501","{""participantId"":""0A50F51032FE4D61A189FE351E454A06"",""assignmentId"":""6dcff41c-fde2-43d9-901f-c46d99fedd93"",""projectId"":""a0a8f18c-a66e-4ba7-a170-23efbdc67501""}","https://test12345.live/?participantId=0A50F51032FE4D61A189FE351E454A06&assignmentId=6dcff41c-fde2-43d9-901f-c46d99fedd93&projectId=a0a8f18c-a66e-4ba7-a170-23efbdc67501","0A50F51032FE4D61A189FE351E454A06-2024-11-24-18-39-10","","null","","images/causal_sequence/dog_causal/dog_causal_1.png","null","",""
"","","","","","image-button-response","32","169429","0.0-10.0-1.0-1.2","0A50F51032FE4D61A189FE351E454A06","0A50F51032FE4D61A189FE351E454A06","6dcff41c-fde2-43d9-901f-c46d99fedd93","a0a8f18c-a66e-4ba7-a170-23efbdc67501","{""participantId"":""0A50F51032FE4D61A189FE351E454A06"",""assignmentId"":""6dcff41c-fde2-43d9-901f-c46d99fedd93"",""projectId"":""a0a8f18c-a66e-4ba7-a170-23efbdc67501""}","https://test12345.live/?participantId=0A50F51032FE4D61A189FE351E454A06&assignmentId=6dcff41c-fde2-43d9-901f-c46d99fedd93&projectId=a0a8f18c-a66e-4ba7-a170-23efbdc67501","0A50F51032FE4D61A189FE351E454A06-2024-11-24-18-39-10","","3153","","images/causal_sequence/dog_causal/dog_causal_1.png","0","",""
"","","","","","image-button-response","33","171231","0.0-10.0-1.0-2.2","0A50F51032FE4D61A189FE351E454A06","0A50F51032FE4D61A189FE351E454A06","6dcff41c-fde2-43d9-901f-c46d99fedd93","a0a8f18c-a66e-4ba7-a170-23efbdc67501","{""participantId"":""0A50F51032FE4D61A189FE351E454A06"",""assignmentId"":""6dcff41c-fde2-43d9-901f-c46d99fedd93"",""projectId"":""a0a8f18c-a66e-4ba7-a170-23efbdc67501""}","https://test12345.live/?participantId=0A50F51032FE4D61A189FE351E454A06&assignmentId=6dcff41c-fde2-43d9-901f-c46d99fedd93&projectId=a0a8f18c-a66e-4ba7-a170-23efbdc67501","0A50F51032FE4D61A189FE351E454A06-2024-11-24-18-39-10","","null","","[]","null","",""
"","","","","","image-button-response","34","175732","0.0-10.0-1.0-0.3","0A50F51032FE4D61A189FE351E454A06","0A50F51032FE4D61A189FE351E454A06","6dcff41c-fde2-43d9-901f-c46d99fedd93","a0a8f18c-a66e-4ba7-a170-23efbdc67501","{""participantId"":""0A50F51032FE4D61A189FE351E454A06"",""assignmentId"":""6dcff41c-fde2-43d9-901f-c46d99fedd93"",""projectId"":""a0a8f18c-a66e-4ba7-a170-23efbdc67501""}","https://test12345.live/?participantId=0A50F51032FE4D61A189FE351E454A06&assignmentId=6dcff41c-fde2-43d9-901f-c46d99fedd93&projectId=a0a8f18c-a66e-4ba7-a170-23efbdc67501","0A50F51032FE4D61A189FE351E454A06-2024-11-24-18-39-10","","null","","images/causal_sequence/dog_causal/dog_causal_3.png","null","",""
"","","","","","image-button-response","35","176297","0.0-10.0-1.0-1.3","0A50F51032FE4D61A189FE351E454A06","0A50F51032FE4D61A189FE351E454A06","6dcff41c-fde2-43d9-901f-c46d99fedd93","a0a8f18c-a66e-4ba7-a170-23efbdc67501","{""participantId"":""0A50F51032FE4D61A189FE351E454A06"",""assignmentId"":""6dcff41c-fde2-43d9-901f-c46d99fedd93"",""projectId"":""a0a8f18c-a66e-4ba7-a170-23efbdc67501""}","https://test12345.live/?participantId=0A50F51032FE4D61A189FE351E454A06&assignmentId=6dcff41c-fde2-43d9-901f-c46d99fedd93&projectId=a0a8f18c-a66e-4ba7-a170-23efbdc67501","0A50F51032FE4D61A189FE351E454A06-2024-11-24-18-39-10","","564","","images/causal_sequence/dog_causal/dog_causal_3.png","0","",""
"","","","","","image-button-response","36","178100","0.0-10.0-1.0-2.3","0A50F51032FE4D61A189FE351E454A06","0A50F51032FE4D61A189FE351E454A06","6dcff41c-fde2-43d9-901f-c46d99fedd93","a0a8f18c-a66e-4ba7-a170-23efbdc67501","{""participantId"":""0A50F51032FE4D61A189FE351E454A06"",""assignmentId"":""6dcff41c-fde2-43d9-901f-c46d99fedd93"",""projectId"":""a0a8f18c-a66e-4ba7-a170-23efbdc67501""}","https://test12345.live/?participantId=0A50F51032FE4D61A189FE351E454A06&assignmentId=6dcff41c-fde2-43d9-901f-c46d99fedd93&projectId=a0a8f18c-a66e-4ba7-a170-23efbdc67501","0A50F51032FE4D61A189FE351E454A06-2024-11-24-18-39-10","","null","","[]","null","",""
"","","","","","image-button-response","37","182601","0.0-10.0-1.0-0.4","0A50F51032FE4D61A189FE351E454A06","0A50F51032FE4D61A189FE351E454A06","6dcff41c-fde2-43d9-901f-c46d99fedd93","a0a8f18c-a66e-4ba7-a170-23efbdc67501","{""participantId"":""0A50F51032FE4D61A189FE351E454A06"",""assignmentId"":""6dcff41c-fde2-43d9-901f-c46d99fedd93"",""projectId"":""a0a8f18c-a66e-4ba7-a170-23efbdc67501""}","https://test12345.live/?participantId=0A50F51032FE4D61A189FE351E454A06&assignmentId=6dcff41c-fde2-43d9-901f-c46d99fedd93&projectId=a0a8f18c-a66e-4ba7-a170-23efbdc67501","0A50F51032FE4D61A189FE351E454A06-2024-11-24-18-39-10","","null","","images/causal_sequence/dog_causal/dog_causal_7.png","null","",""
"","","","","","image-button-response","38","183243","0.0-10.0-1.0-1.4","0A50F51032FE4D61A189FE351E454A06","0A50F51032FE4D61A189FE351E454A06","6dcff41c-fde2-43d9-901f-c46d99fedd93","a0a8f18c-a66e-4ba7-a170-23efbdc67501","{""participantId"":""0A50F51032FE4D61A189FE351E454A06"",""assignmentId"":""6dcff41c-fde2-43d9-901f-c46d99fedd93"",""projectId"":""a0a8f18c-a66e-4ba7-a170-23efbdc67501""}","https://test12345.live/?participantId=0A50F51032FE4D61A189FE351E454A06&assignmentId=6dcff41c-fde2-43d9-901f-c46d99fedd93&projectId=a0a8f18c-a66e-4ba7-a170-23efbdc67501","0A50F51032FE4D61A189FE351E454A06-2024-11-24-18-39-10","","641","","images/causal_sequence/dog_causal/dog_causal_7.png","0","",""
"","","","","","image-button-response","39","185045","0.0-10.0-1.0-2.4","0A50F51032FE4D61A189FE351E454A06","0A50F51032FE4D61A189FE351E454A06","6dcff41c-fde2-43d9-901f-c46d99fedd93","a0a8f18c-a66e-4ba7-a170-23efbdc67501","{""participantId"":""0A50F51032FE4D61A189FE351E454A06"",""assignmentId"":""6dcff41c-fde2-43d9-901f-c46d99fedd93"",""projectId"":""a0a8f18c-a66e-4ba7-a170-23efbdc67501""}","https://test12345.live/?participantId=0A50F51032FE4D61A189FE351E454A06&assignmentId=6dcff41c-fde2-43d9-901f-c46d99fedd93&projectId=a0a8f18c-a66e-4ba7-a170-23efbdc67501","0A50F51032FE4D61A189FE351E454A06-2024-11-24-18-39-10","","null","","[]","null","",""
"","","","","","image-button-response","40","189547","0.0-10.0-1.0-0.5","0A50F51032FE4D61A189FE351E454A06","0A50F51032FE4D61A189FE351E454A06","6dcff41c-fde2-43d9-901f-c46d99fedd93","a0a8f18c-a66e-4ba7-a170-23efbdc67501","{""participantId"":""0A50F51032FE4D61A189FE351E454A06"",""assignmentId"":""6dcff41c-fde2-43d9-901f-c46d99fedd93"",""projectId"":""a0a8f18c-a66e-4ba7-a170-23efbdc67501""}","https://test12345.live/?participantId=0A50F51032FE4D61A189FE351E454A06&assignmentId=6dcff41c-fde2-43d9-901f-c46d99fedd93&projectId=a0a8f18c-a66e-4ba7-a170-23efbdc67501","0A50F51032FE4D61A189FE351E454A06-2024-11-24-18-39-10","","null","","images/causal_sequence/dog_causal/dog_causal_9.png","null","",""
"","","","","","image-button-response","41","190517","0.0-10.0-1.0-1.5","0A50F51032FE4D61A189FE351E454A06","0A50F51032FE4D61A189FE351E454A06","6dcff41c-fde2-43d9-901f-c46d99fedd93","a0a8f18c-a66e-4ba7-a170-23efbdc67501","{""participantId"":""0A50F51032FE4D61A189FE351E454A06"",""assignmentId"":""6dcff41c-fde2-43d9-901f-c46d99fedd93"",""projectId"":""a0a8f18c-a66e-4ba7-a170-23efbdc67501""}","https://test12345.live/?participantId=0A50F51032FE4D61A189FE351E454A06&assignmentId=6dcff41c-fde2-43d9-901f-c46d99fedd93&projectId=a0a8f18c-a66e-4ba7-a170-23efbdc67501","0A50F51032FE4D61A189FE351E454A06-2024-11-24-18-39-10","","968","","images/causal_sequence/dog_causal/dog_causal_9.png","0","",""
"","","","","","image-button-response","42","192321","0.0-10.0-1.0-2.5","0A50F51032FE4D61A189FE351E454A06","0A50F51032FE4D61A189FE351E454A06","6dcff41c-fde2-43d9-901f-c46d99fedd93","a0a8f18c-a66e-4ba7-a170-23efbdc67501","{""participantId"":""0A50F51032FE4D61A189FE351E454A06"",""assignmentId"":""6dcff41c-fde2-43d9-901f-c46d99fedd93"",""projectId"":""a0a8f18c-a66e-4ba7-a170-23efbdc67501""}","https://test12345.live/?participantId=0A50F51032FE4D61A189FE351E454A06&assignmentId=6dcff41c-fde2-43d9-901f-c46d99fedd93&projectId=a0a8f18c-a66e-4ba7-a170-23efbdc67501","0A50F51032FE4D61A189FE351E454A06-2024-11-24-18-39-10","","null","","[]","null","",""
"","","","","","image-button-response","43","196823","0.0-10.0-1.0-0.6","0A50F51032FE4D61A189FE351E454A06","0A50F51032FE4D61A189FE351E454A06","6dcff41c-fde2-43d9-901f-c46d99fedd93","a0a8f18c-a66e-4ba7-a170-23efbdc67501","{""participantId"":""0A50F51032FE4D61A189FE351E454A06"",""assignmentId"":""6dcff41c-fde2-43d9-901f-c46d99fedd93"",""projectId"":""a0a8f18c-a66e-4ba7-a170-23efbdc67501""}","https://test12345.live/?participantId=0A50F51032FE4D61A189FE351E454A06&assignmentId=6dcff41c-fde2-43d9-901f-c46d99fedd93&projectId=a0a8f18c-a66e-4ba7-a170-23efbdc67501","0A50F51032FE4D61A189FE351E454A06-2024-11-24-18-39-10","","null","","images/causal_sequence/dog_causal/dog_causal_6.png","null","",""
"","","","","","image-button-response","44","198317","0.0-10.0-1.0-1.6","0A50F51032FE4D61A189FE351E454A06","0A50F51032FE4D61A189FE351E454A06","6dcff41c-fde2-43d9-901f-c46d99fedd93","a0a8f18c-a66e-4ba7-a170-23efbdc67501","{""participantId"":""0A50F51032FE4D61A189FE351E454A06"",""assignmentId"":""6dcff41c-fde2-43d9-901f-c46d99fedd93"",""projectId"":""a0a8f18c-a66e-4ba7-a170-23efbdc67501""}","https://test12345.live/?participantId=0A50F51032FE4D61A189FE351E454A06&assignmentId=6dcff41c-fde2-43d9-901f-c46d99fedd93&projectId=a0a8f18c-a66e-4ba7-a170-23efbdc67501","0A50F51032FE4D61A189FE351E454A06-2024-11-24-18-39-10","","1493","","images/causal_sequence/dog_causal/dog_causal_6.png","0","",""
"","","","","","image-button-response","45","200119","0.0-10.0-1.0-2.6","0A50F51032FE4D61A189FE351E454A06","0A50F51032FE4D61A189FE351E454A06","6dcff41c-fde2-43d9-901f-c46d99fedd93","a0a8f18c-a66e-4ba7-a170-23efbdc67501","{""participantId"":""0A50F51032FE4D61A189FE351E454A06"",""assignmentId"":""6dcff41c-fde2-43d9-901f-c46d99fedd93"",""projectId"":""a0a8f18c-a66e-4ba7-a170-23efbdc67501""}","https://test12345.live/?participantId=0A50F51032FE4D61A189FE351E454A06&assignmentId=6dcff41c-fde2-43d9-901f-c46d99fedd93&projectId=a0a8f18c-a66e-4ba7-a170-23efbdc67501","0A50F51032FE4D61A189FE351E454A06-2024-11-24-18-39-10","","null","","[]","null","",""
"","","","","","image-button-response","46","204623","0.0-10.0-1.0-0.7","0A50F51032FE4D61A189FE351E454A06","0A50F51032FE4D61A189FE351E454A06","6dcff41c-fde2-43d9-901f-c46d99fedd93","a0a8f18c-a66e-4ba7-a170-23efbdc67501","{""participantId"":""0A50F51032FE4D61A189FE351E454A06"",""assignmentId"":""6dcff41c-fde2-43d9-901f-c46d99fedd93"",""projectId"":""a0a8f18c-a66e-4ba7-a170-23efbdc67501""}","https://test12345.live/?participantId=0A50F51032FE4D61A189FE351E454A06&assignmentId=6dcff41c-fde2-43d9-901f-c46d99fedd93&projectId=a0a8f18c-a66e-4ba7-a170-23efbdc67501","0A50F51032FE4D61A189FE351E454A06-2024-11-24-18-39-10","","null","","images/causal_sequence/dog_causal/dog_causal_5.png","null","",""
"","","","","","image-button-response","47","205569","0.0-10.0-1.0-1.7","0A50F51032FE4D61A189FE351E454A06","0A50F51032FE4D61A189FE351E454A06","6dcff41c-fde2-43d9-901f-c46d99fedd93","a0a8f18c-a66e-4ba7-a170-23efbdc67501","{""participantId"":""0A50F51032FE4D61A189FE351E454A06"",""assignmentId"":""6dcff41c-fde2-43d9-901f-c46d99fedd93"",""projectId"":""a0a8f18c-a66e-4ba7-a170-23efbdc67501""}","https://test12345.live/?participantId=0A50F51032FE4D61A189FE351E454A06&assignmentId=6dcff41c-fde2-43d9-901f-c46d99fedd93&projectId=a0a8f18c-a66e-4ba7-a170-23efbdc67501","0A50F51032FE4D61A189FE351E454A06-2024-11-24-18-39-10","","944","","images/causal_sequence/dog_causal/dog_causal_5.png","0","",""
"","","","","","image-button-response","48","207371","0.0-10.0-1.0-2.7","0A50F51032FE4D61A189FE351E454A06","0A50F51032FE4D61A189FE351E454A06","6dcff41c-fde2-43d9-901f-c46d99fedd93","a0a8f18c-a66e-4ba7-a170-23efbdc67501","{""participantId"":""0A50F51032FE4D61A189FE351E454A06"",""assignmentId"":""6dcff41c-fde2-43d9-901f-c46d99fedd93"",""projectId"":""a0a8f18c-a66e-4ba7-a170-23efbdc67501""}","https://test12345.live/?participantId=0A50F51032FE4D61A189FE351E454A06&assignmentId=6dcff41c-fde2-43d9-901f-c46d99fedd93&projectId=a0a8f18c-a66e-4ba7-a170-23efbdc67501","0A50F51032FE4D61A189FE351E454A06-2024-11-24-18-39-10","","null","","[]","null","",""
"","","","","","image-button-response","49","211874","0.0-10.0-1.0-0.8","0A50F51032FE4D61A189FE351E454A06","0A50F51032FE4D61A189FE351E454A06","6dcff41c-fde2-43d9-901f-c46d99fedd93","a0a8f18c-a66e-4ba7-a170-23efbdc67501","{""participantId"":""0A50F51032FE4D61A189FE351E454A06"",""assignmentId"":""6dcff41c-fde2-43d9-901f-c46d99fedd93"",""projectId"":""a0a8f18c-a66e-4ba7-a170-23efbdc67501""}","https://test12345.live/?participantId=0A50F51032FE4D61A189FE351E454A06&assignmentId=6dcff41c-fde2-43d9-901f-c46d99fedd93&projectId=a0a8f18c-a66e-4ba7-a170-23efbdc67501","0A50F51032FE4D61A189FE351E454A06-2024-11-24-18-39-10","","null","","images/causal_sequence/dog_causal/dog_causal_4.png","null","",""
"","","","","","image-button-response","50","212912","0.0-10.0-1.0-1.8","0A50F51032FE4D61A189FE351E454A06","0A50F51032FE4D61A189FE351E454A06","6dcff41c-fde2-43d9-901f-c46d99fedd93","a0a8f18c-a66e-4ba7-a170-23efbdc67501","{""participantId"":""0A50F51032FE4D61A189FE351E454A06"",""assignmentId"":""6dcff41c-fde2-43d9-901f-c46d99fedd93"",""projectId"":""a0a8f18c-a66e-4ba7-a170-23efbdc67501""}","https://test12345.live/?participantId=0A50F51032FE4D61A189FE351E454A06&assignmentId=6dcff41c-fde2-43d9-901f-c46d99fedd93&projectId=a0a8f18c-a66e-4ba7-a170-23efbdc67501","0A50F51032FE4D61A189FE351E454A06-2024-11-24-18-39-10","","1036","","images/causal_sequence/dog_causal/dog_causal_4.png","0","",""
"","","","","","image-button-response","51","214714","0.0-10.0-1.0-2.8","0A50F51032FE4D61A189FE351E454A06","0A50F51032FE4D61A189FE351E454A06","6dcff41c-fde2-43d9-901f-c46d99fedd93","a0a8f18c-a66e-4ba7-a170-23efbdc67501","{""participantId"":""0A50F51032FE4D61A189FE351E454A06"",""assignmentId"":""6dcff41c-fde2-43d9-901f-c46d99fedd93"",""projectId"":""a0a8f18c-a66e-4ba7-a170-23efbdc67501""}","https://test12345.live/?participantId=0A50F51032FE4D61A189FE351E454A06&assignmentId=6dcff41c-fde2-43d9-901f-c46d99fedd93&projectId=a0a8f18c-a66e-4ba7-a170-23efbdc67501","0A50F51032FE4D61A189FE351E454A06-2024-11-24-18-39-10","","null","","[]","null","",""
"","","","","","image-button-response","52","219216","0.0-10.0-1.0-0.9","0A50F51032FE4D61A189FE351E454A06","0A50F51032FE4D61A189FE351E454A06","6dcff41c-fde2-43d9-901f-c46d99fedd93","a0a8f18c-a66e-4ba7-a170-23efbdc67501","{""participantId"":""0A50F51032FE4D61A189FE351E454A06"",""assignmentId"":""6dcff41c-fde2-43d9-901f-c46d99fedd93"",""projectId"":""a0a8f18c-a66e-4ba7-a170-23efbdc67501""}","https://test12345.live/?participantId=0A50F51032FE4D61A189FE351E454A06&assignmentId=6dcff41c-fde2-43d9-901f-c46d99fedd93&projectId=a0a8f18c-a66e-4ba7-a170-23efbdc67501","0A50F51032FE4D61A189FE351E454A06-2024-11-24-18-39-10","","null","","images/causal_sequence/dog_causal/dog_causal_2.png","null","",""
"","","","","","image-button-response","53","219812","0.0-10.0-1.0-1.9","0A50F51032FE4D61A189FE351E454A06","0A50F51032FE4D61A189FE351E454A06","6dcff41c-fde2-43d9-901f-c46d99fedd93","a0a8f18c-a66e-4ba7-a170-23efbdc67501","{""participantId"":""0A50F51032FE4D61A189FE351E454A06"",""assignmentId"":""6dcff41c-fde2-43d9-901f-c46d99fedd93"",""projectId"":""a0a8f18c-a66e-4ba7-a170-23efbdc67501""}","https://test12345.live/?participantId=0A50F51032FE4D61A189FE351E454A06&assignmentId=6dcff41c-fde2-43d9-901f-c46d99fedd93&projectId=a0a8f18c-a66e-4ba7-a170-23efbdc67501","0A50F51032FE4D61A189FE351E454A06-2024-11-24-18-39-10","","594","","images/causal_sequence/dog_causal/dog_causal_2.png","0","",""
"","","","","","image-button-response","54","221614","0.0-10.0-1.0-2.9","0A50F51032FE4D61A189FE351E454A06","0A50F51032FE4D61A189FE351E454A06","6dcff41c-fde2-43d9-901f-c46d99fedd93","a0a8f18c-a66e-4ba7-a170-23efbdc67501","{""participantId"":""0A50F51032FE4D61A189FE351E454A06"",""assignmentId"":""6dcff41c-fde2-43d9-901f-c46d99fedd93"",""projectId"":""a0a8f18c-a66e-4ba7-a170-23efbdc67501""}","https://test12345.live/?participantId=0A50F51032FE4D61A189FE351E454A06&assignmentId=6dcff41c-fde2-43d9-901f-c46d99fedd93&projectId=a0a8f18c-a66e-4ba7-a170-23efbdc67501","0A50F51032FE4D61A189FE351E454A06-2024-11-24-18-39-10","","null","","[]","null","",""
"","","","","","html-audio-response","55","255767","0.0-11.0","0A50F51032FE4D61A189FE351E454A06","0A50F51032FE4D61A189FE351E454A06","6dcff41c-fde2-43d9-901f-c46d99fedd93","a0a8f18c-a66e-4ba7-a170-23efbdc67501","{""participantId"":""0A50F51032FE4D61A189FE351E454A06"",""assignmentId"":""6dcff41c-fde2-43d9-901f-c46d99fedd93"",""projectId"":""a0a8f18c-a66e-4ba7-a170-23efbdc67501""}","https://test12345.live/?participantId=0A50F51032FE4D61A189FE351E454A06&assignmentId=6dcff41c-fde2-43d9-901f-c46d99fedd93&projectId=a0a8f18c-a66e-4ba7-a170-23efbdc67501","0A50F51032FE4D61A189FE351E454A06-2024-11-24-18-39-10","","33157","","[""<span style=\""color: red; font-size: 24px\""> NOW RECORDING</span><p>Please say out loud all the images you saw, as many as you can remember. The images can be said in any order.</p>""]","","12","dog_causal"
"","","","","","image-button-response","56","261772","0.0-12.0-0.0","0A50F51032FE4D61A189FE351E454A06","0A50F51032FE4D61A189FE351E454A06","6dcff41c-fde2-43d9-901f-c46d99fedd93","a0a8f18c-a66e-4ba7-a170-23efbdc67501","{""participantId"":""0A50F51032FE4D61A189FE351E454A06"",""assignmentId"":""6dcff41c-fde2-43d9-901f-c46d99fedd93"",""projectId"":""a0a8f18c-a66e-4ba7-a170-23efbdc67501""}","https://test12345.live/?participantId=0A50F51032FE4D61A189FE351E454A06&assignmentId=6dcff41c-fde2-43d9-901f-c46d99fedd93&projectId=a0a8f18c-a66e-4ba7-a170-23efbdc67501","0A50F51032FE4D61A189FE351E454A06-2024-11-24-18-39-10","","null","","images/semantic_sequence/physical_activity_semantic/physical_activity_semantic_0.png","null","",""
"","","","","","image-button-response","57","266274","0.0-12.0-1.0-0.0","0A50F51032FE4D61A189FE351E454A06","0A50F51032FE4D61A189FE351E454A06","6dcff41c-fde2-43d9-901f-c46d99fedd93","a0a8f18c-a66e-4ba7-a170-23efbdc67501","{""participantId"":""0A50F51032FE4D61A189FE351E454A06"",""assignmentId"":""6dcff41c-fde2-43d9-901f-c46d99fedd93"",""projectId"":""a0a8f18c-a66e-4ba7-a170-23efbdc67501""}","https://test12345.live/?participantId=0A50F51032FE4D61A189FE351E454A06&assignmentId=6dcff41c-fde2-43d9-901f-c46d99fedd93&projectId=a0a8f18c-a66e-4ba7-a170-23efbdc67501","0A50F51032FE4D61A189FE351E454A06-2024-11-24-18-39-10","","null","","images/semantic_sequence/physical_activity_semantic/physical_activity_semantic_1.png","null","",""
"","","","","","image-button-response","58","266972","0.0-12.0-1.0-1.0","0A50F51032FE4D61A189FE351E454A06","0A50F51032FE4D61A189FE351E454A06","6dcff41c-fde2-43d9-901f-c46d99fedd93","a0a8f18c-a66e-4ba7-a170-23efbdc67501","{""participantId"":""0A50F51032FE4D61A189FE351E454A06"",""assignmentId"":""6dcff41c-fde2-43d9-901f-c46d99fedd93"",""projectId"":""a0a8f18c-a66e-4ba7-a170-23efbdc67501""}","https://test12345.live/?participantId=0A50F51032FE4D61A189FE351E454A06&assignmentId=6dcff41c-fde2-43d9-901f-c46d99fedd93&projectId=a0a8f18c-a66e-4ba7-a170-23efbdc67501","0A50F51032FE4D61A189FE351E454A06-2024-11-24-18-39-10","","696","","images/semantic_sequence/physical_activity_semantic/physical_activity_semantic_1.png","0","",""
"","","","","","image-button-response","59","268774","0.0-12.0-1.0-2.0","0A50F51032FE4D61A189FE351E454A06","0A50F51032FE4D61A189FE351E454A06","6dcff41c-fde2-43d9-901f-c46d99fedd93","a0a8f18c-a66e-4ba7-a170-23efbdc67501","{""participantId"":""0A50F51032FE4D61A189FE351E454A06"",""assignmentId"":""6dcff41c-fde2-43d9-901f-c46d99fedd93"",""projectId"":""a0a8f18c-a66e-4ba7-a170-23efbdc67501""}","https://test12345.live/?participantId=0A50F51032FE4D61A189FE351E454A06&assignmentId=6dcff41c-fde2-43d9-901f-c46d99fedd93&projectId=a0a8f18c-a66e-4ba7-a170-23efbdc67501","0A50F51032FE4D61A189FE351E454A06-2024-11-24-18-39-10","","null","","[]","null","",""
"","","","","","image-button-response","60","273276","0.0-12.0-1.0-0.1","0A50F51032FE4D61A189FE351E454A06","0A50F51032FE4D61A189FE351E454A06","6dcff41c-fde2-43d9-901f-c46d99fedd93","a0a8f18c-a66e-4ba7-a170-23efbdc67501","{""participantId"":""0A50F51032FE4D61A189FE351E454A06"",""assignmentId"":""6dcff41c-fde2-43d9-901f-c46d99fedd93"",""projectId"":""a0a8f18c-a66e-4ba7-a170-23efbdc67501""}","https://test12345.live/?participantId=0A50F51032FE4D61A189FE351E454A06&assignmentId=6dcff41c-fde2-43d9-901f-c46d99fedd93&projectId=a0a8f18c-a66e-4ba7-a170-23efbdc67501","0A50F51032FE4D61A189FE351E454A06-2024-11-24-18-39-10","","null","","images/semantic_sequence/physical_activity_semantic/physical_activity_semantic_2.png","null","",""
"","","","","","image-button-response","61","273910","0.0-12.0-1.0-1.1","0A50F51032FE4D61A189FE351E454A06","0A50F51032FE4D61A189FE351E454A06","6dcff41c-fde2-43d9-901f-c46d99fedd93","a0a8f18c-a66e-4ba7-a170-23efbdc67501","{""participantId"":""0A50F51032FE4D61A189FE351E454A06"",""assignmentId"":""6dcff41c-fde2-43d9-901f-c46d99fedd93"",""projectId"":""a0a8f18c-a66e-4ba7-a170-23efbdc67501""}","https://test12345.live/?participantId=0A50F51032FE4D61A189FE351E454A06&assignmentId=6dcff41c-fde2-43d9-901f-c46d99fedd93&projectId=a0a8f18c-a66e-4ba7-a170-23efbdc67501","0A50F51032FE4D61A189FE351E454A06-2024-11-24-18-39-10","","632","","images/semantic_sequence/physical_activity_semantic/physical_activity_semantic_2.png","0","",""
"","","","","","image-button-response","62","275713","0.0-12.0-1.0-2.1","0A50F51032FE4D61A189FE351E454A06","0A50F51032FE4D61A189FE351E454A06","6dcff41c-fde2-43d9-901f-c46d99fedd93","a0a8f18c-a66e-4ba7-a170-23efbdc67501","{""participantId"":""0A50F51032FE4D61A189FE351E454A06"",""assignmentId"":""6dcff41c-fde2-43d9-901f-c46d99fedd93"",""projectId"":""a0a8f18c-a66e-4ba7-a170-23efbdc67501""}","https://test12345.live/?participantId=0A50F51032FE4D61A189FE351E454A06&assignmentId=6dcff41c-fde2-43d9-901f-c46d99fedd93&projectId=a0a8f18c-a66e-4ba7-a170-23efbdc67501","0A50F51032FE4D61A189FE351E454A06-2024-11-24-18-39-10","","null","","[]","null","",""
"","","","","","image-button-response","63","280216","0.0-12.0-1.0-0.2","0A50F51032FE4D61A189FE351E454A06","0A50F51032FE4D61A189FE351E454A06","6dcff41c-fde2-43d9-901f-c46d99fedd93","a0a8f18c-a66e-4ba7-a170-23efbdc67501","{""participantId"":""0A50F51032FE4D61A189FE351E454A06"",""assignmentId"":""6dcff41c-fde2-43d9-901f-c46d99fedd93"",""projectId"":""a0a8f18c-a66e-4ba7-a170-23efbdc67501""}","https://test12345.live/?participantId=0A50F51032FE4D61A189FE351E454A06&assignmentId=6dcff41c-fde2-43d9-901f-c46d99fedd93&projectId=a0a8f18c-a66e-4ba7-a170-23efbdc67501","0A50F51032FE4D61A189FE351E454A06-2024-11-24-18-39-10","","null","","images/semantic_sequence/physical_activity_semantic/physical_activity_semantic_3.png","null","",""
"","","","","","image-button-response","64","280871","0.0-12.0-1.0-1.2","0A50F51032FE4D61A189FE351E454A06","0A50F51032FE4D61A189FE351E454A06","6dcff41c-fde2-43d9-901f-c46d99fedd93","a0a8f18c-a66e-4ba7-a170-23efbdc67501","{""participantId"":""0A50F51032FE4D61A189FE351E454A06"",""assignmentId"":""6dcff41c-fde2-43d9-901f-c46d99fedd93"",""projectId"":""a0a8f18c-a66e-4ba7-a170-23efbdc67501""}","https://test12345.live/?participantId=0A50F51032FE4D61A189FE351E454A06&assignmentId=6dcff41c-fde2-43d9-901f-c46d99fedd93&projectId=a0a8f18c-a66e-4ba7-a170-23efbdc67501","0A50F51032FE4D61A189FE351E454A06-2024-11-24-18-39-10","","654","","images/semantic_sequence/physical_activity_semantic/physical_activity_semantic_3.png","0","",""
"","","","","","image-button-response","65","282676","0.0-12.0-1.0-2.2","0A50F51032FE4D61A189FE351E454A06","0A50F51032FE4D61A189FE351E454A06","6dcff41c-fde2-43d9-901f-c46d99fedd93","a0a8f18c-a66e-4ba7-a170-23efbdc67501","{""participantId"":""0A50F51032FE4D61A189FE351E454A06"",""assignmentId"":""6dcff41c-fde2-43d9-901f-c46d99fedd93"",""projectId"":""a0a8f18c-a66e-4ba7-a170-23efbdc67501""}","https://test12345.live/?participantId=0A50F51032FE4D61A189FE351E454A06&assignmentId=6dcff41c-fde2-43d9-901f-c46d99fedd93&projectId=a0a8f18c-a66e-4ba7-a170-23efbdc67501","0A50F51032FE4D61A189FE351E454A06-2024-11-24-18-39-10","","null","","[]","null","",""
"","","","","","image-button-response","66","287178","0.0-12.0-1.0-0.3","0A50F51032FE4D61A189FE351E454A06","0A50F51032FE4D61A189FE351E454A06","6dcff41c-fde2-43d9-901f-c46d99fedd93","a0a8f18c-a66e-4ba7-a170-23efbdc67501","{""participantId"":""0A50F51032FE4D61A189FE351E454A06"",""assignmentId"":""6dcff41c-fde2-43d9-901f-c46d99fedd93"",""projectId"":""a0a8f18c-a66e-4ba7-a170-23efbdc67501""}","https://test12345.live/?participantId=0A50F51032FE4D61A189FE351E454A06&assignmentId=6dcff41c-fde2-43d9-901f-c46d99fedd93&projectId=a0a8f18c-a66e-4ba7-a170-23efbdc67501","0A50F51032FE4D61A189FE351E454A06-2024-11-24-18-39-10","","null","","images/semantic_sequence/physical_activity_semantic/physical_activity_semantic_4.png","null","",""
"","","","","","image-button-response","67","287905","0.0-12.0-1.0-1.3","0A50F51032FE4D61A189FE351E454A06","0A50F51032FE4D61A189FE351E454A06","6dcff41c-fde2-43d9-901f-c46d99fedd93","a0a8f18c-a66e-4ba7-a170-23efbdc67501","{""participantId"":""0A50F51032FE4D61A189FE351E454A06"",""assignmentId"":""6dcff41c-fde2-43d9-901f-c46d99fedd93"",""projectId"":""a0a8f18c-a66e-4ba7-a170-23efbdc67501""}","https://test12345.live/?participantId=0A50F51032FE4D61A189FE351E454A06&assignmentId=6dcff41c-fde2-43d9-901f-c46d99fedd93&projectId=a0a8f18c-a66e-4ba7-a170-23efbdc67501","0A50F51032FE4D61A189FE351E454A06-2024-11-24-18-39-10","","727","","images/semantic_sequence/physical_activity_semantic/physical_activity_semantic_4.png","0","",""
"","","","","","image-button-response","68","289708","0.0-12.0-1.0-2.3","0A50F51032FE4D61A189FE351E454A06","0A50F51032FE4D61A189FE351E454A06","6dcff41c-fde2-43d9-901f-c46d99fedd93","a0a8f18c-a66e-4ba7-a170-23efbdc67501","{""participantId"":""0A50F51032FE4D61A189FE351E454A06"",""assignmentId"":""6dcff41c-fde2-43d9-901f-c46d99fedd93"",""projectId"":""a0a8f18c-a66e-4ba7-a170-23efbdc67501""}","https://test12345.live/?participantId=0A50F51032FE4D61A189FE351E454A06&assignmentId=6dcff41c-fde2-43d9-901f-c46d99fedd93&projectId=a0a8f18c-a66e-4ba7-a170-23efbdc67501","0A50F51032FE4D61A189FE351E454A06-2024-11-24-18-39-10","","null","","[]","null","",""
"","","","","","image-button-response","69","294210","0.0-12.0-1.0-0.4","0A50F51032FE4D61A189FE351E454A06","0A50F51032FE4D61A189FE351E454A06","6dcff41c-fde2-43d9-901f-c46d99fedd93","a0a8f18c-a66e-4ba7-a170-23efbdc67501","{""participantId"":""0A50F51032FE4D61A189FE351E454A06"",""assignmentId"":""6dcff41c-fde2-43d9-901f-c46d99fedd93"",""projectId"":""a0a8f18c-a66e-4ba7-a170-23efbdc67501""}","https://test12345.live/?participantId=0A50F51032FE4D61A189FE351E454A06&assignmentId=6dcff41c-fde2-43d9-901f-c46d99fedd93&projectId=a0a8f18c-a66e-4ba7-a170-23efbdc67501","0A50F51032FE4D61A189FE351E454A06-2024-11-24-18-39-10","","null","","images/semantic_sequence/physical_activity_semantic/physical_activity_semantic_5.png","null","",""
"","","","","","image-button-response","70","294835","0.0-12.0-1.0-1.4","0A50F51032FE4D61A189FE351E454A06","0A50F51032FE4D61A189FE351E454A06","6dcff41c-fde2-43d9-901f-c46d99fedd93","a0a8f18c-a66e-4ba7-a170-23efbdc67501","{""participantId"":""0A50F51032FE4D61A189FE351E454A06"",""assignmentId"":""6dcff41c-fde2-43d9-901f-c46d99fedd93"",""projectId"":""a0a8f18c-a66e-4ba7-a170-23efbdc67501""}","https://test12345.live/?participantId=0A50F51032FE4D61A189FE351E454A06&assignmentId=6dcff41c-fde2-43d9-901f-c46d99fedd93&projectId=a0a8f18c-a66e-4ba7-a170-23efbdc67501","0A50F51032FE4D61A189FE351E454A06-2024-11-24-18-39-10","","624","","images/semantic_sequence/physical_activity_semantic/physical_activity_semantic_5.png","0","",""
"","","","","","image-button-response","71","296637","0.0-12.0-1.0-2.4","0A50F51032FE4D61A189FE351E454A06","0A50F51032FE4D61A189FE351E454A06","6dcff41c-fde2-43d9-901f-c46d99fedd93","a0a8f18c-a66e-4ba7-a170-23efbdc67501","{""participantId"":""0A50F51032FE4D61A189FE351E454A06"",""assignmentId"":""6dcff41c-fde2-43d9-901f-c46d99fedd93"",""projectId"":""a0a8f18c-a66e-4ba7-a170-23efbdc67501""}","https://test12345.live/?participantId=0A50F51032FE4D61A189FE351E454A06&assignmentId=6dcff41c-fde2-43d9-901f-c46d99fedd93&projectId=a0a8f18c-a66e-4ba7-a170-23efbdc67501","0A50F51032FE4D61A189FE351E454A06-2024-11-24-18-39-10","","null","","[]","null","",""
"","","","","","image-button-response","72","301139","0.0-12.0-1.0-0.5","0A50F51032FE4D61A189FE351E454A06","0A50F51032FE4D61A189FE351E454A06","6dcff41c-fde2-43d9-901f-c46d99fedd93","a0a8f18c-a66e-4ba7-a170-23efbdc67501","{""participantId"":""0A50F51032FE4D61A189FE351E454A06"",""assignmentId"":""6dcff41c-fde2-43d9-901f-c46d99fedd93"",""projectId"":""a0a8f18c-a66e-4ba7-a170-23efbdc67501""}","https://test12345.live/?participantId=0A50F51032FE4D61A189FE351E454A06&assignmentId=6dcff41c-fde2-43d9-901f-c46d99fedd93&projectId=a0a8f18c-a66e-4ba7-a170-23efbdc67501","0A50F51032FE4D61A189FE351E454A06-2024-11-24-18-39-10","","null","","images/semantic_sequence/physical_activity_semantic/physical_activity_semantic_6.png","null","",""
"","","","","","image-button-response","73","301915","0.0-12.0-1.0-1.5","0A50F51032FE4D61A189FE351E454A06","0A50F51032FE4D61A189FE351E454A06","6dcff41c-fde2-43d9-901f-c46d99fedd93","a0a8f18c-a66e-4ba7-a170-23efbdc67501","{""participantId"":""0A50F51032FE4D61A189FE351E454A06"",""assignmentId"":""6dcff41c-fde2-43d9-901f-c46d99fedd93"",""projectId"":""a0a8f18c-a66e-4ba7-a170-23efbdc67501""}","https://test12345.live/?participantId=0A50F51032FE4D61A189FE351E454A06&assignmentId=6dcff41c-fde2-43d9-901f-c46d99fedd93&projectId=a0a8f18c-a66e-4ba7-a170-23efbdc67501","0A50F51032FE4D61A189FE351E454A06-2024-11-24-18-39-10","","775","","images/semantic_sequence/physical_activity_semantic/physical_activity_semantic_6.png","0","",""
"","","","","","image-button-response","74","303716","0.0-12.0-1.0-2.5","0A50F51032FE4D61A189FE351E454A06","0A50F51032FE4D61A189FE351E454A06","6dcff41c-fde2-43d9-901f-c46d99fedd93","a0a8f18c-a66e-4ba7-a170-23efbdc67501","{""participantId"":""0A50F51032FE4D61A189FE351E454A06"",""assignmentId"":""6dcff41c-fde2-43d9-901f-c46d99fedd93"",""projectId"":""a0a8f18c-a66e-4ba7-a170-23efbdc67501""}","https://test12345.live/?participantId=0A50F51032FE4D61A189FE351E454A06&assignmentId=6dcff41c-fde2-43d9-901f-c46d99fedd93&projectId=a0a8f18c-a66e-4ba7-a170-23efbdc67501","0A50F51032FE4D61A189FE351E454A06-2024-11-24-18-39-10","","null","","[]","null","",""
"","","","","","image-button-response","75","308220","0.0-12.0-1.0-0.6","0A50F51032FE4D61A189FE351E454A06","0A50F51032FE4D61A189FE351E454A06","6dcff41c-fde2-43d9-901f-c46d99fedd93","a0a8f18c-a66e-4ba7-a170-23efbdc67501","{""participantId"":""0A50F51032FE4D61A189FE351E454A06"",""assignmentId"":""6dcff41c-fde2-43d9-901f-c46d99fedd93"",""projectId"":""a0a8f18c-a66e-4ba7-a170-23efbdc67501""}","https://test12345.live/?participantId=0A50F51032FE4D61A189FE351E454A06&assignmentId=6dcff41c-fde2-43d9-901f-c46d99fedd93&projectId=a0a8f18c-a66e-4ba7-a170-23efbdc67501","0A50F51032FE4D61A189FE351E454A06-2024-11-24-18-39-10","","null","","images/semantic_sequence/physical_activity_semantic/physical_activity_semantic_7.png","null","",""
"","","","","","image-button-response","76","309288","0.0-12.0-1.0-1.6","0A50F51032FE4D61A189FE351E454A06","0A50F51032FE4D61A189FE351E454A06","6dcff41c-fde2-43d9-901f-c46d99fedd93","a0a8f18c-a66e-4ba7-a170-23efbdc67501","{""participantId"":""0A50F51032FE4D61A189FE351E454A06"",""assignmentId"":""6dcff41c-fde2-43d9-901f-c46d99fedd93"",""projectId"":""a0a8f18c-a66e-4ba7-a170-23efbdc67501""}","https://test12345.live/?participantId=0A50F51032FE4D61A189FE351E454A06&assignmentId=6dcff41c-fde2-43d9-901f-c46d99fedd93&projectId=a0a8f18c-a66e-4ba7-a170-23efbdc67501","0A50F51032FE4D61A189FE351E454A06-2024-11-24-18-39-10","","1068","","images/semantic_sequence/physical_activity_semantic/physical_activity_semantic_7.png","0","",""
"","","","","","image-button-response","77","311091","0.0-12.0-1.0-2.6","0A50F51032FE4D61A189FE351E454A06","0A50F51032FE4D61A189FE351E454A06","6dcff41c-fde2-43d9-901f-c46d99fedd93","a0a8f18c-a66e-4ba7-a170-23efbdc67501","{""participantId"":""0A50F51032FE4D61A189FE351E454A06"",""assignmentId"":""6dcff41c-fde2-43d9-901f-c46d99fedd93"",""projectId"":""a0a8f18c-a66e-4ba7-a170-23efbdc67501""}","https://test12345.live/?participantId=0A50F51032FE4D61A189FE351E454A06&assignmentId=6dcff41c-fde2-43d9-901f-c46d99fedd93&projectId=a0a8f18c-a66e-4ba7-a170-23efbdc67501","0A50F51032FE4D61A189FE351E454A06-2024-11-24-18-39-10","","null","","[]","null","",""
"","","","","","image-button-response","78","315593","0.0-12.0-1.0-0.7","0A50F51032FE4D61A189FE351E454A06","0A50F51032FE4D61A189FE351E454A06","6dcff41c-fde2-43d9-901f-c46d99fedd93","a0a8f18c-a66e-4ba7-a170-23efbdc67501","{""participantId"":""0A50F51032FE4D61A189FE351E454A06"",""assignmentId"":""6dcff41c-fde2-43d9-901f-c46d99fedd93"",""projectId"":""a0a8f18c-a66e-4ba7-a170-23efbdc67501""}","https://test12345.live/?participantId=0A50F51032FE4D61A189FE351E454A06&assignmentId=6dcff41c-fde2-43d9-901f-c46d99fedd93&projectId=a0a8f18c-a66e-4ba7-a170-23efbdc67501","0A50F51032FE4D61A189FE351E454A06-2024-11-24-18-39-10","","null","","images/semantic_sequence/physical_activity_semantic/physical_activity_semantic_8.png","null","",""
"","","","","","image-button-response","79","316121","0.0-12.0-1.0-1.7","0A50F51032FE4D61A189FE351E454A06","0A50F51032FE4D61A189FE351E454A06","6dcff41c-fde2-43d9-901f-c46d99fedd93","a0a8f18c-a66e-4ba7-a170-23efbdc67501","{""participantId"":""0A50F51032FE4D61A189FE351E454A06"",""assignmentId"":""6dcff41c-fde2-43d9-901f-c46d99fedd93"",""projectId"":""a0a8f18c-a66e-4ba7-a170-23efbdc67501""}","https://test12345.live/?participantId=0A50F51032FE4D61A189FE351E454A06&assignmentId=6dcff41c-fde2-43d9-901f-c46d99fedd93&projectId=a0a8f18c-a66e-4ba7-a170-23efbdc67501","0A50F51032FE4D61A189FE351E454A06-2024-11-24-18-39-10","","526","","images/semantic_sequence/physical_activity_semantic/physical_activity_semantic_8.png","0","",""
"","","","","","image-button-response","80","317923","0.0-12.0-1.0-2.7","0A50F51032FE4D61A189FE351E454A06","0A50F51032FE4D61A189FE351E454A06","6dcff41c-fde2-43d9-901f-c46d99fedd93","a0a8f18c-a66e-4ba7-a170-23efbdc67501","{""participantId"":""0A50F51032FE4D61A189FE351E454A06"",""assignmentId"":""6dcff41c-fde2-43d9-901f-c46d99fedd93"",""projectId"":""a0a8f18c-a66e-4ba7-a170-23efbdc67501""}","https://test12345.live/?participantId=0A50F51032FE4D61A189FE351E454A06&assignmentId=6dcff41c-fde2-43d9-901f-c46d99fedd93&projectId=a0a8f18c-a66e-4ba7-a170-23efbdc67501","0A50F51032FE4D61A189FE351E454A06-2024-11-24-18-39-10","","null","","[]","null","",""
"","","","","","image-button-response","81","322425","0.0-12.0-1.0-0.8","0A50F51032FE4D61A189FE351E454A06","0A50F51032FE4D61A189FE351E454A06","6dcff41c-fde2-43d9-901f-c46d99fedd93","a0a8f18c-a66e-4ba7-a170-23efbdc67501","{""participantId"":""0A50F51032FE4D61A189FE351E454A06"",""assignmentId"":""6dcff41c-fde2-43d9-901f-c46d99fedd93"",""projectId"":""a0a8f18c-a66e-4ba7-a170-23efbdc67501""}","https://test12345.live/?participantId=0A50F51032FE4D61A189FE351E454A06&assignmentId=6dcff41c-fde2-43d9-901f-c46d99fedd93&projectId=a0a8f18c-a66e-4ba7-a170-23efbdc67501","0A50F51032FE4D61A189FE351E454A06-2024-11-24-18-39-10","","null","","images/semantic_sequence/physical_activity_semantic/physical_activity_semantic_9.png","null","",""
"","","","","","image-button-response","82","323525","0.0-12.0-1.0-1.8","0A50F51032FE4D61A189FE351E454A06","0A50F51032FE4D61A189FE351E454A06","6dcff41c-fde2-43d9-901f-c46d99fedd93","a0a8f18c-a66e-4ba7-a170-23efbdc67501","{""participantId"":""0A50F51032FE4D61A189FE351E454A06"",""assignmentId"":""6dcff41c-fde2-43d9-901f-c46d99fedd93"",""projectId"":""a0a8f18c-a66e-4ba7-a170-23efbdc67501""}","https://test12345.live/?participantId=0A50F51032FE4D61A189FE351E454A06&assignmentId=6dcff41c-fde2-43d9-901f-c46d99fedd93&projectId=a0a8f18c-a66e-4ba7-a170-23efbdc67501","0A50F51032FE4D61A189FE351E454A06-2024-11-24-18-39-10","","1097","","images/semantic_sequence/physical_activity_semantic/physical_activity_semantic_9.png","0","",""
"","","","","","image-button-response","83","325327","0.0-12.0-1.0-2.8","0A50F51032FE4D61A189FE351E454A06","0A50F51032FE4D61A189FE351E454A06","6dcff41c-fde2-43d9-901f-c46d99fedd93","a0a8f18c-a66e-4ba7-a170-23efbdc67501","{""participantId"":""0A50F51032FE4D61A189FE351E454A06"",""assignmentId"":""6dcff41c-fde2-43d9-901f-c46d99fedd93"",""projectId"":""a0a8f18c-a66e-4ba7-a170-23efbdc67501""}","https://test12345.live/?participantId=0A50F51032FE4D61A189FE351E454A06&assignmentId=6dcff41c-fde2-43d9-901f-c46d99fedd93&projectId=a0a8f18c-a66e-4ba7-a170-23efbdc67501","0A50F51032FE4D61A189FE351E454A06-2024-11-24-18-39-10","","null","","[]","null","",""
"","","","","","image-button-response","84","329829","0.0-12.0-1.0-0.9","0A50F51032FE4D61A189FE351E454A06","0A50F51032FE4D61A189FE351E454A06","6dcff41c-fde2-43d9-901f-c46d99fedd93","a0a8f18c-a66e-4ba7-a170-23efbdc67501","{""participantId"":""0A50F51032FE4D61A189FE351E454A06"",""assignmentId"":""6dcff41c-fde2-43d9-901f-c46d99fedd93"",""projectId"":""a0a8f18c-a66e-4ba7-a170-23efbdc67501""}","https://test12345.live/?participantId=0A50F51032FE4D61A189FE351E454A06&assignmentId=6dcff41c-fde2-43d9-901f-c46d99fedd93&projectId=a0a8f18c-a66e-4ba7-a170-23efbdc67501","0A50F51032FE4D61A189FE351E454A06-2024-11-24-18-39-10","","null","","images/semantic_sequence/physical_activity_semantic/physical_activity_semantic_ten.png","null","",""
"","","","","","image-button-response","85","330393","0.0-12.0-1.0-1.9","0A50F51032FE4D61A189FE351E454A06","0A50F51032FE4D61A189FE351E454A06","6dcff41c-fde2-43d9-901f-c46d99fedd93","a0a8f18c-a66e-4ba7-a170-23efbdc67501","{""participantId"":""0A50F51032FE4D61A189FE351E454A06"",""assignmentId"":""6dcff41c-fde2-43d9-901f-c46d99fedd93"",""projectId"":""a0a8f18c-a66e-4ba7-a170-23efbdc67501""}","https://test12345.live/?participantId=0A50F51032FE4D61A189FE351E454A06&assignmentId=6dcff41c-fde2-43d9-901f-c46d99fedd93&projectId=a0a8f18c-a66e-4ba7-a170-23efbdc67501","0A50F51032FE4D61A189FE351E454A06-2024-11-24-18-39-10","","563","","images/semantic_sequence/physical_activity_semantic/physical_activity_semantic_ten.png","0","",""
"","","","","","image-button-response","86","332196","0.0-12.0-1.0-2.9","0A50F51032FE4D61A189FE351E454A06","0A50F51032FE4D61A189FE351E454A06","6dcff41c-fde2-43d9-901f-c46d99fedd93","a0a8f18c-a66e-4ba7-a170-23efbdc67501","{""participantId"":""0A50F51032FE4D61A189FE351E454A06"",""assignmentId"":""6dcff41c-fde2-43d9-901f-c46d99fedd93"",""projectId"":""a0a8f18c-a66e-4ba7-a170-23efbdc67501""}","https://test12345.live/?participantId=0A50F51032FE4D61A189FE351E454A06&assignmentId=6dcff41c-fde2-43d9-901f-c46d99fedd93&projectId=a0a8f18c-a66e-4ba7-a170-23efbdc67501","0A50F51032FE4D61A189FE351E454A06-2024-11-24-18-39-10","","null","","[]","null","",""
"","","","","","html-audio-response","87","353306","0.0-13.0","0A50F51032FE4D61A189FE351E454A06","0A50F51032FE4D61A189FE351E454A06","6dcff41c-fde2-43d9-901f-c46d99fedd93","a0a8f18c-a66e-4ba7-a170-23efbdc67501","{""participantId"":""0A50F51032FE4D61A189FE351E454A06"",""assignmentId"":""6dcff41c-fde2-43d9-901f-c46d99fedd93"",""projectId"":""a0a8f18c-a66e-4ba7-a170-23efbdc67501""}","https://test12345.live/?participantId=0A50F51032FE4D61A189FE351E454A06&assignmentId=6dcff41c-fde2-43d9-901f-c46d99fedd93&projectId=a0a8f18c-a66e-4ba7-a170-23efbdc67501","0A50F51032FE4D61A189FE351E454A06-2024-11-24-18-39-10","","20257","","[""<span style=\""color: red; font-size: 24px\""> NOW RECORDING</span><p>Please say out loud all the images you saw, as many as you can remember. The images can be said in any order.</p>""]","","3","physical_activity_semantic"
"","","","","","image-button-response","88","359312","0.0-14.0-0.0","0A50F51032FE4D61A189FE351E454A06","0A50F51032FE4D61A189FE351E454A06","6dcff41c-fde2-43d9-901f-c46d99fedd93","a0a8f18c-a66e-4ba7-a170-23efbdc67501","{""participantId"":""0A50F51032FE4D61A189FE351E454A06"",""assignmentId"":""6dcff41c-fde2-43d9-901f-c46d99fedd93"",""projectId"":""a0a8f18c-a66e-4ba7-a170-23efbdc67501""}","https://test12345.live/?participantId=0A50F51032FE4D61A189FE351E454A06&assignmentId=6dcff41c-fde2-43d9-901f-c46d99fedd93&projectId=a0a8f18c-a66e-4ba7-a170-23efbdc67501","0A50F51032FE4D61A189FE351E454A06-2024-11-24-18-39-10","","null","","images/causal_sequence/saving_a_cat_causal/saving_a_cat_causal_0.png","null","",""
"","","","","","image-button-response","89","363814","0.0-14.0-1.0-0.0","0A50F51032FE4D61A189FE351E454A06","0A50F51032FE4D61A189FE351E454A06","6dcff41c-fde2-43d9-901f-c46d99fedd93","a0a8f18c-a66e-4ba7-a170-23efbdc67501","{""participantId"":""0A50F51032FE4D61A189FE351E454A06"",""assignmentId"":""6dcff41c-fde2-43d9-901f-c46d99fedd93"",""projectId"":""a0a8f18c-a66e-4ba7-a170-23efbdc67501""}","https://test12345.live/?participantId=0A50F51032FE4D61A189FE351E454A06&assignmentId=6dcff41c-fde2-43d9-901f-c46d99fedd93&projectId=a0a8f18c-a66e-4ba7-a170-23efbdc67501","0A50F51032FE4D61A189FE351E454A06-2024-11-24-18-39-10","","null","","images/causal_sequence/saving_a_cat_causal/saving_a_cat_causal_1.png","null","",""
"","","","","","image-button-response","90","365223","0.0-14.0-1.0-1.0","0A50F51032FE4D61A189FE351E454A06","0A50F51032FE4D61A189FE351E454A06","6dcff41c-fde2-43d9-901f-c46d99fedd93","a0a8f18c-a66e-4ba7-a170-23efbdc67501","{""participantId"":""0A50F51032FE4D61A189FE351E454A06"",""assignmentId"":""6dcff41c-fde2-43d9-901f-c46d99fedd93"",""projectId"":""a0a8f18c-a66e-4ba7-a170-23efbdc67501""}","https://test12345.live/?participantId=0A50F51032FE4D61A189FE351E454A06&assignmentId=6dcff41c-fde2-43d9-901f-c46d99fedd93&projectId=a0a8f18c-a66e-4ba7-a170-23efbdc67501","0A50F51032FE4D61A189FE351E454A06-2024-11-24-18-39-10","","1409","","images/causal_sequence/saving_a_cat_causal/saving_a_cat_causal_1.png","0","",""
"","","","","","image-button-response","91","367025","0.0-14.0-1.0-2.0","0A50F51032FE4D61A189FE351E454A06","0A50F51032FE4D61A189FE351E454A06","6dcff41c-fde2-43d9-901f-c46d99fedd93","a0a8f18c-a66e-4ba7-a170-23efbdc67501","{""participantId"":""0A50F51032FE4D61A189FE351E454A06"",""assignmentId"":""6dcff41c-fde2-43d9-901f-c46d99fedd93"",""projectId"":""a0a8f18c-a66e-4ba7-a170-23efbdc67501""}","https://test12345.live/?participantId=0A50F51032FE4D61A189FE351E454A06&assignmentId=6dcff41c-fde2-43d9-901f-c46d99fedd93&projectId=a0a8f18c-a66e-4ba7-a170-23efbdc67501","0A50F51032FE4D61A189FE351E454A06-2024-11-24-18-39-10","","null","","[]","null","",""
"","","","","","image-button-response","92","371528","0.0-14.0-1.0-0.1","0A50F51032FE4D61A189FE351E454A06","0A50F51032FE4D61A189FE351E454A06","6dcff41c-fde2-43d9-901f-c46d99fedd93","a0a8f18c-a66e-4ba7-a170-23efbdc67501","{""participantId"":""0A50F51032FE4D61A189FE351E454A06"",""assignmentId"":""6dcff41c-fde2-43d9-901f-c46d99fedd93"",""projectId"":""a0a8f18c-a66e-4ba7-a170-23efbdc67501""}","https://test12345.live/?participantId=0A50F51032FE4D61A189FE351E454A06&assignmentId=6dcff41c-fde2-43d9-901f-c46d99fedd93&projectId=a0a8f18c-a66e-4ba7-a170-23efbdc67501","0A50F51032FE4D61A189FE351E454A06-2024-11-24-18-39-10","","null","","images/causal_sequence/saving_a_cat_causal/saving_a_cat_causal_2.png","null","",""
"","","","","","image-button-response","93","373766","0.0-14.0-1.0-1.1","0A50F51032FE4D61A189FE351E454A06","0A50F51032FE4D61A189FE351E454A06","6dcff41c-fde2-43d9-901f-c46d99fedd93","a0a8f18c-a66e-4ba7-a170-23efbdc67501","{""participantId"":""0A50F51032FE4D61A189FE351E454A06"",""assignmentId"":""6dcff41c-fde2-43d9-901f-c46d99fedd93"",""projectId"":""a0a8f18c-a66e-4ba7-a170-23efbdc67501""}","https://test12345.live/?participantId=0A50F51032FE4D61A189FE351E454A06&assignmentId=6dcff41c-fde2-43d9-901f-c46d99fedd93&projectId=a0a8f18c-a66e-4ba7-a170-23efbdc67501","0A50F51032FE4D61A189FE351E454A06-2024-11-24-18-39-10","","2236","","images/causal_sequence/saving_a_cat_causal/saving_a_cat_causal_2.png","1","",""
"","","","","","image-button-response","94","375567","0.0-14.0-1.0-2.1","0A50F51032FE4D61A189FE351E454A06","0A50F51032FE4D61A189FE351E454A06","6dcff41c-fde2-43d9-901f-c46d99fedd93","a0a8f18c-a66e-4ba7-a170-23efbdc67501","{""participantId"":""0A50F51032FE4D61A189FE351E454A06"",""assignmentId"":""6dcff41c-fde2-43d9-901f-c46d99fedd93"",""projectId"":""a0a8f18c-a66e-4ba7-a170-23efbdc67501""}","https://test12345.live/?participantId=0A50F51032FE4D61A189FE351E454A06&assignmentId=6dcff41c-fde2-43d9-901f-c46d99fedd93&projectId=a0a8f18c-a66e-4ba7-a170-23efbdc67501","0A50F51032FE4D61A189FE351E454A06-2024-11-24-18-39-10","","null","","[]","null","",""
"","","","","","image-button-response","95","380069","0.0-14.0-1.0-0.2","0A50F51032FE4D61A189FE351E454A06","0A50F51032FE4D61A189FE351E454A06","6dcff41c-fde2-43d9-901f-c46d99fedd93","a0a8f18c-a66e-4ba7-a170-23efbdc67501","{""participantId"":""0A50F51032FE4D61A189FE351E454A06"",""assignmentId"":""6dcff41c-fde2-43d9-901f-c46d99fedd93"",""projectId"":""a0a8f18c-a66e-4ba7-a170-23efbdc67501""}","https://test12345.live/?participantId=0A50F51032FE4D61A189FE351E454A06&assignmentId=6dcff41c-fde2-43d9-901f-c46d99fedd93&projectId=a0a8f18c-a66e-4ba7-a170-23efbdc67501","0A50F51032FE4D61A189FE351E454A06-2024-11-24-18-39-10","","null","","images/causal_sequence/saving_a_cat_causal/saving_a_cat_causal_3.png","null","",""
"","","","","","image-button-response","96","380907","0.0-14.0-1.0-1.2","0A50F51032FE4D61A189FE351E454A06","0A50F51032FE4D61A189FE351E454A06","6dcff41c-fde2-43d9-901f-c46d99fedd93","a0a8f18c-a66e-4ba7-a170-23efbdc67501","{""participantId"":""0A50F51032FE4D61A189FE351E454A06"",""assignmentId"":""6dcff41c-fde2-43d9-901f-c46d99fedd93"",""projectId"":""a0a8f18c-a66e-4ba7-a170-23efbdc67501""}","https://test12345.live/?participantId=0A50F51032FE4D61A189FE351E454A06&assignmentId=6dcff41c-fde2-43d9-901f-c46d99fedd93&projectId=a0a8f18c-a66e-4ba7-a170-23efbdc67501","0A50F51032FE4D61A189FE351E454A06-2024-11-24-18-39-10","","837","","images/causal_sequence/saving_a_cat_causal/saving_a_cat_causal_3.png","1","",""
"","","","","","image-button-response","97","382709","0.0-14.0-1.0-2.2","0A50F51032FE4D61A189FE351E454A06","0A50F51032FE4D61A189FE351E454A06","6dcff41c-fde2-43d9-901f-c46d99fedd93","a0a8f18c-a66e-4ba7-a170-23efbdc67501","{""participantId"":""0A50F51032FE4D61A189FE351E454A06"",""assignmentId"":""6dcff41c-fde2-43d9-901f-c46d99fedd93"",""projectId"":""a0a8f18c-a66e-4ba7-a170-23efbdc67501""}","https://test12345.live/?participantId=0A50F51032FE4D61A189FE351E454A06&assignmentId=6dcff41c-fde2-43d9-901f-c46d99fedd93&projectId=a0a8f18c-a66e-4ba7-a170-23efbdc67501","0A50F51032FE4D61A189FE351E454A06-2024-11-24-18-39-10","","null","","[]","null","",""
"","","","","","image-button-response","98","387212","0.0-14.0-1.0-0.3","0A50F51032FE4D61A189FE351E454A06","0A50F51032FE4D61A189FE351E454A06","6dcff41c-fde2-43d9-901f-c46d99fedd93","a0a8f18c-a66e-4ba7-a170-23efbdc67501","{""participantId"":""0A50F51032FE4D61A189FE351E454A06"",""assignmentId"":""6dcff41c-fde2-43d9-901f-c46d99fedd93"",""projectId"":""a0a8f18c-a66e-4ba7-a170-23efbdc67501""}","https://test12345.live/?participantId=0A50F51032FE4D61A189FE351E454A06&assignmentId=6dcff41c-fde2-43d9-901f-c46d99fedd93&projectId=a0a8f18c-a66e-4ba7-a170-23efbdc67501","0A50F51032FE4D61A189FE351E454A06-2024-11-24-18-39-10","","null","","images/causal_sequence/saving_a_cat_causal/saving_a_cat_causal_4.png","null","",""
"","","","","","image-button-response","99","388241","0.0-14.0-1.0-1.3","0A50F51032FE4D61A189FE351E454A06","0A50F51032FE4D61A189FE351E454A06","6dcff41c-fde2-43d9-901f-c46d99fedd93","a0a8f18c-a66e-4ba7-a170-23efbdc67501","{""participantId"":""0A50F51032FE4D61A189FE351E454A06"",""assignmentId"":""6dcff41c-fde2-43d9-901f-c46d99fedd93"",""projectId"":""a0a8f18c-a66e-4ba7-a170-23efbdc67501""}","https://test12345.live/?participantId=0A50F51032FE4D61A189FE351E454A06&assignmentId=6dcff41c-fde2-43d9-901f-c46d99fedd93&projectId=a0a8f18c-a66e-4ba7-a170-23efbdc67501","0A50F51032FE4D61A189FE351E454A06-2024-11-24-18-39-10","","1028","","images/causal_sequence/saving_a_cat_causal/saving_a_cat_causal_4.png","1","",""
"","","","","","image-button-response","100","390044","0.0-14.0-1.0-2.3","0A50F51032FE4D61A189FE351E454A06","0A50F51032FE4D61A189FE351E454A06","6dcff41c-fde2-43d9-901f-c46d99fedd93","a0a8f18c-a66e-4ba7-a170-23efbdc67501","{""participantId"":""0A50F51032FE4D61A189FE351E454A06"",""assignmentId"":""6dcff41c-fde2-43d9-901f-c46d99fedd93"",""projectId"":""a0a8f18c-a66e-4ba7-a170-23efbdc67501""}","https://test12345.live/?participantId=0A50F51032FE4D61A189FE351E454A06&assignmentId=6dcff41c-fde2-43d9-901f-c46d99fedd93&projectId=a0a8f18c-a66e-4ba7-a170-23efbdc67501","0A50F51032FE4D61A189FE351E454A06-2024-11-24-18-39-10","","null","","[]","null","",""
"","","","","","image-button-response","101","394547","0.0-14.0-1.0-0.4","0A50F51032FE4D61A189FE351E454A06","0A50F51032FE4D61A189FE351E454A06","6dcff41c-fde2-43d9-901f-c46d99fedd93","a0a8f18c-a66e-4ba7-a170-23efbdc67501","{""participantId"":""0A50F51032FE4D61A189FE351E454A06"",""assignmentId"":""6dcff41c-fde2-43d9-901f-c46d99fedd93"",""projectId"":""a0a8f18c-a66e-4ba7-a170-23efbdc67501""}","https://test12345.live/?participantId=0A50F51032FE4D61A189FE351E454A06&assignmentId=6dcff41c-fde2-43d9-901f-c46d99fedd93&projectId=a0a8f18c-a66e-4ba7-a170-23efbdc67501","0A50F51032FE4D61A189FE351E454A06-2024-11-24-18-39-10","","null","","images/causal_sequence/saving_a_cat_causal/saving_a_cat_causal_5.png","null","",""
"","","","","","image-button-response","102","395194","0.0-14.0-1.0-1.4","0A50F51032FE4D61A189FE351E454A06","0A50F51032FE4D61A189FE351E454A06","6dcff41c-fde2-43d9-901f-c46d99fedd93","a0a8f18c-a66e-4ba7-a170-23efbdc67501","{""participantId"":""0A50F51032FE4D61A189FE351E454A06"",""assignmentId"":""6dcff41c-fde2-43d9-901f-c46d99fedd93"",""projectId"":""a0a8f18c-a66e-4ba7-a170-23efbdc67501""}","https://test12345.live/?participantId=0A50F51032FE4D61A189FE351E454A06&assignmentId=6dcff41c-fde2-43d9-901f-c46d99fedd93&projectId=a0a8f18c-a66e-4ba7-a170-23efbdc67501","0A50F51032FE4D61A189FE351E454A06-2024-11-24-18-39-10","","646","","images/causal_sequence/saving_a_cat_causal/saving_a_cat_causal_5.png","0","",""
"","","","","","image-button-response","103","396997","0.0-14.0-1.0-2.4","0A50F51032FE4D61A189FE351E454A06","0A50F51032FE4D61A189FE351E454A06","6dcff41c-fde2-43d9-901f-c46d99fedd93","a0a8f18c-a66e-4ba7-a170-23efbdc67501","{""participantId"":""0A50F51032FE4D61A189FE351E454A06"",""assignmentId"":""6dcff41c-fde2-43d9-901f-c46d99fedd93"",""projectId"":""a0a8f18c-a66e-4ba7-a170-23efbdc67501""}","https://test12345.live/?participantId=0A50F51032FE4D61A189FE351E454A06&assignmentId=6dcff41c-fde2-43d9-901f-c46d99fedd93&projectId=a0a8f18c-a66e-4ba7-a170-23efbdc67501","0A50F51032FE4D61A189FE351E454A06-2024-11-24-18-39-10","","null","","[]","null","",""
"","","","","","image-button-response","104","401501","0.0-14.0-1.0-0.5","0A50F51032FE4D61A189FE351E454A06","0A50F51032FE4D61A189FE351E454A06","6dcff41c-fde2-43d9-901f-c46d99fedd93","a0a8f18c-a66e-4ba7-a170-23efbdc67501","{""participantId"":""0A50F51032FE4D61A189FE351E454A06"",""assignmentId"":""6dcff41c-fde2-43d9-901f-c46d99fedd93"",""projectId"":""a0a8f18c-a66e-4ba7-a170-23efbdc67501""}","https://test12345.live/?participantId=0A50F51032FE4D61A189FE351E454A06&assignmentId=6dcff41c-fde2-43d9-901f-c46d99fedd93&projectId=a0a8f18c-a66e-4ba7-a170-23efbdc67501","0A50F51032FE4D61A189FE351E454A06-2024-11-24-18-39-10","","null","","images/causal_sequence/saving_a_cat_causal/saving_a_cat_causal_6.png","null","",""
"","","","","","image-button-response","105","402132","0.0-14.0-1.0-1.5","0A50F51032FE4D61A189FE351E454A06","0A50F51032FE4D61A189FE351E454A06","6dcff41c-fde2-43d9-901f-c46d99fedd93","a0a8f18c-a66e-4ba7-a170-23efbdc67501","{""participantId"":""0A50F51032FE4D61A189FE351E454A06"",""assignmentId"":""6dcff41c-fde2-43d9-901f-c46d99fedd93"",""projectId"":""a0a8f18c-a66e-4ba7-a170-23efbdc67501""}","https://test12345.live/?participantId=0A50F51032FE4D61A189FE351E454A06&assignmentId=6dcff41c-fde2-43d9-901f-c46d99fedd93&projectId=a0a8f18c-a66e-4ba7-a170-23efbdc67501","0A50F51032FE4D61A189FE351E454A06-2024-11-24-18-39-10","","629","","images/causal_sequence/saving_a_cat_causal/saving_a_cat_causal_6.png","0","",""
"","","","","","image-button-response","106","403934","0.0-14.0-1.0-2.5","0A50F51032FE4D61A189FE351E454A06","0A50F51032FE4D61A189FE351E454A06","6dcff41c-fde2-43d9-901f-c46d99fedd93","a0a8f18c-a66e-4ba7-a170-23efbdc67501","{""participantId"":""0A50F51032FE4D61A189FE351E454A06"",""assignmentId"":""6dcff41c-fde2-43d9-901f-c46d99fedd93"",""projectId"":""a0a8f18c-a66e-4ba7-a170-23efbdc67501""}","https://test12345.live/?participantId=0A50F51032FE4D61A189FE351E454A06&assignmentId=6dcff41c-fde2-43d9-901f-c46d99fedd93&projectId=a0a8f18c-a66e-4ba7-a170-23efbdc67501","0A50F51032FE4D61A189FE351E454A06-2024-11-24-18-39-10","","null","","[]","null","",""
"","","","","","image-button-response","107","408436","0.0-14.0-1.0-0.6","0A50F51032FE4D61A189FE351E454A06","0A50F51032FE4D61A189FE351E454A06","6dcff41c-fde2-43d9-901f-c46d99fedd93","a0a8f18c-a66e-4ba7-a170-23efbdc67501","{""participantId"":""0A50F51032FE4D61A189FE351E454A06"",""assignmentId"":""6dcff41c-fde2-43d9-901f-c46d99fedd93"",""projectId"":""a0a8f18c-a66e-4ba7-a170-23efbdc67501""}","https://test12345.live/?participantId=0A50F51032FE4D61A189FE351E454A06&assignmentId=6dcff41c-fde2-43d9-901f-c46d99fedd93&projectId=a0a8f18c-a66e-4ba7-a170-23efbdc67501","0A50F51032FE4D61A189FE351E454A06-2024-11-24-18-39-10","","null","","images/causal_sequence/saving_a_cat_causal/saving_a_cat_causal_7.png","null","",""
"","","","","","image-button-response","108","409384","0.0-14.0-1.0-1.6","0A50F51032FE4D61A189FE351E454A06","0A50F51032FE4D61A189FE351E454A06","6dcff41c-fde2-43d9-901f-c46d99fedd93","a0a8f18c-a66e-4ba7-a170-23efbdc67501","{""participantId"":""0A50F51032FE4D61A189FE351E454A06"",""assignmentId"":""6dcff41c-fde2-43d9-901f-c46d99fedd93"",""projectId"":""a0a8f18c-a66e-4ba7-a170-23efbdc67501""}","https://test12345.live/?participantId=0A50F51032FE4D61A189FE351E454A06&assignmentId=6dcff41c-fde2-43d9-901f-c46d99fedd93&projectId=a0a8f18c-a66e-4ba7-a170-23efbdc67501","0A50F51032FE4D61A189FE351E454A06-2024-11-24-18-39-10","","947","","images/causal_sequence/saving_a_cat_causal/saving_a_cat_causal_7.png","0","",""
"","","","","","image-button-response","109","411187","0.0-14.0-1.0-2.6","0A50F51032FE4D61A189FE351E454A06","0A50F51032FE4D61A189FE351E454A06","6dcff41c-fde2-43d9-901f-c46d99fedd93","a0a8f18c-a66e-4ba7-a170-23efbdc67501","{""participantId"":""0A50F51032FE4D61A189FE351E454A06"",""assignmentId"":""6dcff41c-fde2-43d9-901f-c46d99fedd93"",""projectId"":""a0a8f18c-a66e-4ba7-a170-23efbdc67501""}","https://test12345.live/?participantId=0A50F51032FE4D61A189FE351E454A06&assignmentId=6dcff41c-fde2-43d9-901f-c46d99fedd93&projectId=a0a8f18c-a66e-4ba7-a170-23efbdc67501","0A50F51032FE4D61A189FE351E454A06-2024-11-24-18-39-10","","null","","[]","null","",""
"","","","","","image-button-response","110","415689","0.0-14.0-1.0-0.7","0A50F51032FE4D61A189FE351E454A06","0A50F51032FE4D61A189FE351E454A06","6dcff41c-fde2-43d9-901f-c46d99fedd93","a0a8f18c-a66e-4ba7-a170-23efbdc67501","{""participantId"":""0A50F51032FE4D61A189FE351E454A06"",""assignmentId"":""6dcff41c-fde2-43d9-901f-c46d99fedd93"",""projectId"":""a0a8f18c-a66e-4ba7-a170-23efbdc67501""}","https://test12345.live/?participantId=0A50F51032FE4D61A189FE351E454A06&assignmentId=6dcff41c-fde2-43d9-901f-c46d99fedd93&projectId=a0a8f18c-a66e-4ba7-a170-23efbdc67501","0A50F51032FE4D61A189FE351E454A06-2024-11-24-18-39-10","","null","","images/causal_sequence/saving_a_cat_causal/saving_a_cat_causal_8.png","null","",""
"","","","","","image-button-response","111","416292","0.0-14.0-1.0-1.7","0A50F51032FE4D61A189FE351E454A06","0A50F51032FE4D61A189FE351E454A06","6dcff41c-fde2-43d9-901f-c46d99fedd93","a0a8f18c-a66e-4ba7-a170-23efbdc67501","{""participantId"":""0A50F51032FE4D61A189FE351E454A06"",""assignmentId"":""6dcff41c-fde2-43d9-901f-c46d99fedd93"",""projectId"":""a0a8f18c-a66e-4ba7-a170-23efbdc67501""}","https://test12345.live/?participantId=0A50F51032FE4D61A189FE351E454A06&assignmentId=6dcff41c-fde2-43d9-901f-c46d99fedd93&projectId=a0a8f18c-a66e-4ba7-a170-23efbdc67501","0A50F51032FE4D61A189FE351E454A06-2024-11-24-18-39-10","","601","","images/causal_sequence/saving_a_cat_causal/saving_a_cat_causal_8.png","0","",""
"","","","","","image-button-response","112","418095","0.0-14.0-1.0-2.7","0A50F51032FE4D61A189FE351E454A06","0A50F51032FE4D61A189FE351E454A06","6dcff41c-fde2-43d9-901f-c46d99fedd93","a0a8f18c-a66e-4ba7-a170-23efbdc67501","{""participantId"":""0A50F51032FE4D61A189FE351E454A06"",""assignmentId"":""6dcff41c-fde2-43d9-901f-c46d99fedd93"",""projectId"":""a0a8f18c-a66e-4ba7-a170-23efbdc67501""}","https://test12345.live/?participantId=0A50F51032FE4D61A189FE351E454A06&assignmentId=6dcff41c-fde2-43d9-901f-c46d99fedd93&projectId=a0a8f18c-a66e-4ba7-a170-23efbdc67501","0A50F51032FE4D61A189FE351E454A06-2024-11-24-18-39-10","","null","","[]","null","",""
"","","","","","image-button-response","113","422598","0.0-14.0-1.0-0.8","0A50F51032FE4D61A189FE351E454A06","0A50F51032FE4D61A189FE351E454A06","6dcff41c-fde2-43d9-901f-c46d99fedd93","a0a8f18c-a66e-4ba7-a170-23efbdc67501","{""participantId"":""0A50F51032FE4D61A189FE351E454A06"",""assignmentId"":""6dcff41c-fde2-43d9-901f-c46d99fedd93"",""projectId"":""a0a8f18c-a66e-4ba7-a170-23efbdc67501""}","https://test12345.live/?participantId=0A50F51032FE4D61A189FE351E454A06&assignmentId=6dcff41c-fde2-43d9-901f-c46d99fedd93&projectId=a0a8f18c-a66e-4ba7-a170-23efbdc67501","0A50F51032FE4D61A189FE351E454A06-2024-11-24-18-39-10","","null","","images/causal_sequence/saving_a_cat_causal/saving_a_cat_causal_9.png","null","",""
"","","","","","image-button-response","114","423274","0.0-14.0-1.0-1.8","0A50F51032FE4D61A189FE351E454A06","0A50F51032FE4D61A189FE351E454A06","6dcff41c-fde2-43d9-901f-c46d99fedd93","a0a8f18c-a66e-4ba7-a170-23efbdc67501","{""participantId"":""0A50F51032FE4D61A189FE351E454A06"",""assignmentId"":""6dcff41c-fde2-43d9-901f-c46d99fedd93"",""projectId"":""a0a8f18c-a66e-4ba7-a170-23efbdc67501""}","https://test12345.live/?participantId=0A50F51032FE4D61A189FE351E454A06&assignmentId=6dcff41c-fde2-43d9-901f-c46d99fedd93&projectId=a0a8f18c-a66e-4ba7-a170-23efbdc67501","0A50F51032FE4D61A189FE351E454A06-2024-11-24-18-39-10","","675","","images/causal_sequence/saving_a_cat_causal/saving_a_cat_causal_9.png","0","",""
"","","","","","image-button-response","115","425078","0.0-14.0-1.0-2.8","0A50F51032FE4D61A189FE351E454A06","0A50F51032FE4D61A189FE351E454A06","6dcff41c-fde2-43d9-901f-c46d99fedd93","a0a8f18c-a66e-4ba7-a170-23efbdc67501","{""participantId"":""0A50F51032FE4D61A189FE351E454A06"",""assignmentId"":""6dcff41c-fde2-43d9-901f-c46d99fedd93"",""projectId"":""a0a8f18c-a66e-4ba7-a170-23efbdc67501""}","https://test12345.live/?participantId=0A50F51032FE4D61A189FE351E454A06&assignmentId=6dcff41c-fde2-43d9-901f-c46d99fedd93&projectId=a0a8f18c-a66e-4ba7-a170-23efbdc67501","0A50F51032FE4D61A189FE351E454A06-2024-11-24-18-39-10","","null","","[]","null","",""
"","","","","","image-button-response","116","429581","0.0-14.0-1.0-0.9","0A50F51032FE4D61A189FE351E454A06","0A50F51032FE4D61A189FE351E454A06","6dcff41c-fde2-43d9-901f-c46d99fedd93","a0a8f18c-a66e-4ba7-a170-23efbdc67501","{""participantId"":""0A50F51032FE4D61A189FE351E454A06"",""assignmentId"":""6dcff41c-fde2-43d9-901f-c46d99fedd93"",""projectId"":""a0a8f18c-a66e-4ba7-a170-23efbdc67501""}","https://test12345.live/?participantId=0A50F51032FE4D61A189FE351E454A06&assignmentId=6dcff41c-fde2-43d9-901f-c46d99fedd93&projectId=a0a8f18c-a66e-4ba7-a170-23efbdc67501","0A50F51032FE4D61A189FE351E454A06-2024-11-24-18-39-10","","null","","images/causal_sequence/saving_a_cat_causal/saving_a_cat_causal_ten.png","null","",""
"","","","","","image-button-response","117","430054","0.0-14.0-1.0-1.9","0A50F51032FE4D61A189FE351E454A06","0A50F51032FE4D61A189FE351E454A06","6dcff41c-fde2-43d9-901f-c46d99fedd93","a0a8f18c-a66e-4ba7-a170-23efbdc67501","{""participantId"":""0A50F51032FE4D61A189FE351E454A06"",""assignmentId"":""6dcff41c-fde2-43d9-901f-c46d99fedd93"",""projectId"":""a0a8f18c-a66e-4ba7-a170-23efbdc67501""}","https://test12345.live/?participantId=0A50F51032FE4D61A189FE351E454A06&assignmentId=6dcff41c-fde2-43d9-901f-c46d99fedd93&projectId=a0a8f18c-a66e-4ba7-a170-23efbdc67501","0A50F51032FE4D61A189FE351E454A06-2024-11-24-18-39-10","","472","","images/causal_sequence/saving_a_cat_causal/saving_a_cat_causal_ten.png","0","",""
"","","","","","image-button-response","118","431855","0.0-14.0-1.0-2.9","0A50F51032FE4D61A189FE351E454A06","0A50F51032FE4D61A189FE351E454A06","6dcff41c-fde2-43d9-901f-c46d99fedd93","a0a8f18c-a66e-4ba7-a170-23efbdc67501","{""participantId"":""0A50F51032FE4D61A189FE351E454A06"",""assignmentId"":""6dcff41c-fde2-43d9-901f-c46d99fedd93"",""projectId"":""a0a8f18c-a66e-4ba7-a170-23efbdc67501""}","https://test12345.live/?participantId=0A50F51032FE4D61A189FE351E454A06&assignmentId=6dcff41c-fde2-43d9-901f-c46d99fedd93&projectId=a0a8f18c-a66e-4ba7-a170-23efbdc67501","0A50F51032FE4D61A189FE351E454A06-2024-11-24-18-39-10","","null","","[]","null","",""
"","","","","","html-audio-response","119","459252","0.0-15.0","0A50F51032FE4D61A189FE351E454A06","0A50F51032FE4D61A189FE351E454A06","6dcff41c-fde2-43d9-901f-c46d99fedd93","a0a8f18c-a66e-4ba7-a170-23efbdc67501","{""participantId"":""0A50F51032FE4D61A189FE351E454A06"",""assignmentId"":""6dcff41c-fde2-43d9-901f-c46d99fedd93"",""projectId"":""a0a8f18c-a66e-4ba7-a170-23efbdc67501""}","https://test12345.live/?participantId=0A50F51032FE4D61A189FE351E454A06&assignmentId=6dcff41c-fde2-43d9-901f-c46d99fedd93&projectId=a0a8f18c-a66e-4ba7-a170-23efbdc67501","0A50F51032FE4D61A189FE351E454A06-2024-11-24-18-39-10","","26506","","[""<span style=\""color: red; font-size: 24px\""> NOW RECORDING</span><p>Please say out loud all the images you saw, as many as you can remember. The images can be said in any order.</p>""]","","10","saving_a_cat_causal"
"","","","","","image-button-response","120","465258","0.0-16.0-0.0","0A50F51032FE4D61A189FE351E454A06","0A50F51032FE4D61A189FE351E454A06","6dcff41c-fde2-43d9-901f-c46d99fedd93","a0a8f18c-a66e-4ba7-a170-23efbdc67501","{""participantId"":""0A50F51032FE4D61A189FE351E454A06"",""assignmentId"":""6dcff41c-fde2-43d9-901f-c46d99fedd93"",""projectId"":""a0a8f18c-a66e-4ba7-a170-23efbdc67501""}","https://test12345.live/?participantId=0A50F51032FE4D61A189FE351E454A06&assignmentId=6dcff41c-fde2-43d9-901f-c46d99fedd93&projectId=a0a8f18c-a66e-4ba7-a170-23efbdc67501","0A50F51032FE4D61A189FE351E454A06-2024-11-24-18-39-10","","null","","images/schematic_sequence/flight_scheme/flight_scheme_0.png","null","",""
"","","","","","image-button-response","121","469759","0.0-16.0-1.0-0.0","0A50F51032FE4D61A189FE351E454A06","0A50F51032FE4D61A189FE351E454A06","6dcff41c-fde2-43d9-901f-c46d99fedd93","a0a8f18c-a66e-4ba7-a170-23efbdc67501","{""participantId"":""0A50F51032FE4D61A189FE351E454A06"",""assignmentId"":""6dcff41c-fde2-43d9-901f-c46d99fedd93"",""projectId"":""a0a8f18c-a66e-4ba7-a170-23efbdc67501""}","https://test12345.live/?participantId=0A50F51032FE4D61A189FE351E454A06&assignmentId=6dcff41c-fde2-43d9-901f-c46d99fedd93&projectId=a0a8f18c-a66e-4ba7-a170-23efbdc67501","0A50F51032FE4D61A189FE351E454A06-2024-11-24-18-39-10","","null","","images/schematic_sequence/flight_scheme/flight_scheme_1.png","null","",""
"","","","","","image-button-response","122","470427","0.0-16.0-1.0-1.0","0A50F51032FE4D61A189FE351E454A06","0A50F51032FE4D61A189FE351E454A06","6dcff41c-fde2-43d9-901f-c46d99fedd93","a0a8f18c-a66e-4ba7-a170-23efbdc67501","{""participantId"":""0A50F51032FE4D61A189FE351E454A06"",""assignmentId"":""6dcff41c-fde2-43d9-901f-c46d99fedd93"",""projectId"":""a0a8f18c-a66e-4ba7-a170-23efbdc67501""}","https://test12345.live/?participantId=0A50F51032FE4D61A189FE351E454A06&assignmentId=6dcff41c-fde2-43d9-901f-c46d99fedd93&projectId=a0a8f18c-a66e-4ba7-a170-23efbdc67501","0A50F51032FE4D61A189FE351E454A06-2024-11-24-18-39-10","","668","","images/schematic_sequence/flight_scheme/flight_scheme_1.png","1","",""
"","","","","","image-button-response","123","472229","0.0-16.0-1.0-2.0","0A50F51032FE4D61A189FE351E454A06","0A50F51032FE4D61A189FE351E454A06","6dcff41c-fde2-43d9-901f-c46d99fedd93","a0a8f18c-a66e-4ba7-a170-23efbdc67501","{""participantId"":""0A50F51032FE4D61A189FE351E454A06"",""assignmentId"":""6dcff41c-fde2-43d9-901f-c46d99fedd93"",""projectId"":""a0a8f18c-a66e-4ba7-a170-23efbdc67501""}","https://test12345.live/?participantId=0A50F51032FE4D61A189FE351E454A06&assignmentId=6dcff41c-fde2-43d9-901f-c46d99fedd93&projectId=a0a8f18c-a66e-4ba7-a170-23efbdc67501","0A50F51032FE4D61A189FE351E454A06-2024-11-24-18-39-10","","null","","[]","null","",""
"","","","","","image-button-response","124","476731","0.0-16.0-1.0-0.1","0A50F51032FE4D61A189FE351E454A06","0A50F51032FE4D61A189FE351E454A06","6dcff41c-fde2-43d9-901f-c46d99fedd93","a0a8f18c-a66e-4ba7-a170-23efbdc67501","{""participantId"":""0A50F51032FE4D61A189FE351E454A06"",""assignmentId"":""6dcff41c-fde2-43d9-901f-c46d99fedd93"",""projectId"":""a0a8f18c-a66e-4ba7-a170-23efbdc67501""}","https://test12345.live/?participantId=0A50F51032FE4D61A189FE351E454A06&assignmentId=6dcff41c-fde2-43d9-901f-c46d99fedd93&projectId=a0a8f18c-a66e-4ba7-a170-23efbdc67501","0A50F51032FE4D61A189FE351E454A06-2024-11-24-18-39-10","","null","","images/schematic_sequence/flight_scheme/flight_scheme_2.png","null","",""
"","","","","","image-button-response","125","477335","0.0-16.0-1.0-1.1","0A50F51032FE4D61A189FE351E454A06","0A50F51032FE4D61A189FE351E454A06","6dcff41c-fde2-43d9-901f-c46d99fedd93","a0a8f18c-a66e-4ba7-a170-23efbdc67501","{""participantId"":""0A50F51032FE4D61A189FE351E454A06"",""assignmentId"":""6dcff41c-fde2-43d9-901f-c46d99fedd93"",""projectId"":""a0a8f18c-a66e-4ba7-a170-23efbdc67501""}","https://test12345.live/?participantId=0A50F51032FE4D61A189FE351E454A06&assignmentId=6dcff41c-fde2-43d9-901f-c46d99fedd93&projectId=a0a8f18c-a66e-4ba7-a170-23efbdc67501","0A50F51032FE4D61A189FE351E454A06-2024-11-24-18-39-10","","602","","images/schematic_sequence/flight_scheme/flight_scheme_2.png","1","",""
"","","","","","image-button-response","126","479136","0.0-16.0-1.0-2.1","0A50F51032FE4D61A189FE351E454A06","0A50F51032FE4D61A189FE351E454A06","6dcff41c-fde2-43d9-901f-c46d99fedd93","a0a8f18c-a66e-4ba7-a170-23efbdc67501","{""participantId"":""0A50F51032FE4D61A189FE351E454A06"",""assignmentId"":""6dcff41c-fde2-43d9-901f-c46d99fedd93"",""projectId"":""a0a8f18c-a66e-4ba7-a170-23efbdc67501""}","https://test12345.live/?participantId=0A50F51032FE4D61A189FE351E454A06&assignmentId=6dcff41c-fde2-43d9-901f-c46d99fedd93&projectId=a0a8f18c-a66e-4ba7-a170-23efbdc67501","0A50F51032FE4D61A189FE351E454A06-2024-11-24-18-39-10","","null","","[]","null","",""
"","","","","","image-button-response","127","483640","0.0-16.0-1.0-0.2","0A50F51032FE4D61A189FE351E454A06","0A50F51032FE4D61A189FE351E454A06","6dcff41c-fde2-43d9-901f-c46d99fedd93","a0a8f18c-a66e-4ba7-a170-23efbdc67501","{""participantId"":""0A50F51032FE4D61A189FE351E454A06"",""assignmentId"":""6dcff41c-fde2-43d9-901f-c46d99fedd93"",""projectId"":""a0a8f18c-a66e-4ba7-a170-23efbdc67501""}","https://test12345.live/?participantId=0A50F51032FE4D61A189FE351E454A06&assignmentId=6dcff41c-fde2-43d9-901f-c46d99fedd93&projectId=a0a8f18c-a66e-4ba7-a170-23efbdc67501","0A50F51032FE4D61A189FE351E454A06-2024-11-24-18-39-10","","null","","images/schematic_sequence/flight_scheme/flight_scheme_3.png","null","",""
"","","","","","image-button-response","128","484227","0.0-16.0-1.0-1.2","0A50F51032FE4D61A189FE351E454A06","0A50F51032FE4D61A189FE351E454A06","6dcff41c-fde2-43d9-901f-c46d99fedd93","a0a8f18c-a66e-4ba7-a170-23efbdc67501","{""participantId"":""0A50F51032FE4D61A189FE351E454A06"",""assignmentId"":""6dcff41c-fde2-43d9-901f-c46d99fedd93"",""projectId"":""a0a8f18c-a66e-4ba7-a170-23efbdc67501""}","https://test12345.live/?participantId=0A50F51032FE4D61A189FE351E454A06&assignmentId=6dcff41c-fde2-43d9-901f-c46d99fedd93&projectId=a0a8f18c-a66e-4ba7-a170-23efbdc67501","0A50F51032FE4D61A189FE351E454A06-2024-11-24-18-39-10","","587","","images/schematic_sequence/flight_scheme/flight_scheme_3.png","0","",""
"","","","","","image-button-response","129","486030","0.0-16.0-1.0-2.2","0A50F51032FE4D61A189FE351E454A06","0A50F51032FE4D61A189FE351E454A06","6dcff41c-fde2-43d9-901f-c46d99fedd93","a0a8f18c-a66e-4ba7-a170-23efbdc67501","{""participantId"":""0A50F51032FE4D61A189FE351E454A06"",""assignmentId"":""6dcff41c-fde2-43d9-901f-c46d99fedd93"",""projectId"":""a0a8f18c-a66e-4ba7-a170-23efbdc67501""}","https://test12345.live/?participantId=0A50F51032FE4D61A189FE351E454A06&assignmentId=6dcff41c-fde2-43d9-901f-c46d99fedd93&projectId=a0a8f18c-a66e-4ba7-a170-23efbdc67501","0A50F51032FE4D61A189FE351E454A06-2024-11-24-18-39-10","","null","","[]","null","",""
"","","","","","image-button-response","130","490534","0.0-16.0-1.0-0.3","0A50F51032FE4D61A189FE351E454A06","0A50F51032FE4D61A189FE351E454A06","6dcff41c-fde2-43d9-901f-c46d99fedd93","a0a8f18c-a66e-4ba7-a170-23efbdc67501","{""participantId"":""0A50F51032FE4D61A189FE351E454A06"",""assignmentId"":""6dcff41c-fde2-43d9-901f-c46d99fedd93"",""projectId"":""a0a8f18c-a66e-4ba7-a170-23efbdc67501""}","https://test12345.live/?participantId=0A50F51032FE4D61A189FE351E454A06&assignmentId=6dcff41c-fde2-43d9-901f-c46d99fedd93&projectId=a0a8f18c-a66e-4ba7-a170-23efbdc67501","0A50F51032FE4D61A189FE351E454A06-2024-11-24-18-39-10","","null","","images/schematic_sequence/flight_scheme/flight_scheme_4.png","null","",""
"","","","","","image-button-response","131","491322","0.0-16.0-1.0-1.3","0A50F51032FE4D61A189FE351E454A06","0A50F51032FE4D61A189FE351E454A06","6dcff41c-fde2-43d9-901f-c46d99fedd93","a0a8f18c-a66e-4ba7-a170-23efbdc67501","{""participantId"":""0A50F51032FE4D61A189FE351E454A06"",""assignmentId"":""6dcff41c-fde2-43d9-901f-c46d99fedd93"",""projectId"":""a0a8f18c-a66e-4ba7-a170-23efbdc67501""}","https://test12345.live/?participantId=0A50F51032FE4D61A189FE351E454A06&assignmentId=6dcff41c-fde2-43d9-901f-c46d99fedd93&projectId=a0a8f18c-a66e-4ba7-a170-23efbdc67501","0A50F51032FE4D61A189FE351E454A06-2024-11-24-18-39-10","","787","","images/schematic_sequence/flight_scheme/flight_scheme_4.png","0","",""
"","","","","","image-button-response","132","493124","0.0-16.0-1.0-2.3","0A50F51032FE4D61A189FE351E454A06","0A50F51032FE4D61A189FE351E454A06","6dcff41c-fde2-43d9-901f-c46d99fedd93","a0a8f18c-a66e-4ba7-a170-23efbdc67501","{""participantId"":""0A50F51032FE4D61A189FE351E454A06"",""assignmentId"":""6dcff41c-fde2-43d9-901f-c46d99fedd93"",""projectId"":""a0a8f18c-a66e-4ba7-a170-23efbdc67501""}","https://test12345.live/?participantId=0A50F51032FE4D61A189FE351E454A06&assignmentId=6dcff41c-fde2-43d9-901f-c46d99fedd93&projectId=a0a8f18c-a66e-4ba7-a170-23efbdc67501","0A50F51032FE4D61A189FE351E454A06-2024-11-24-18-39-10","","null","","[]","null","",""
"","","","","","image-button-response","133","497626","0.0-16.0-1.0-0.4","0A50F51032FE4D61A189FE351E454A06","0A50F51032FE4D61A189FE351E454A06","6dcff41c-fde2-43d9-901f-c46d99fedd93","a0a8f18c-a66e-4ba7-a170-23efbdc67501","{""participantId"":""0A50F51032FE4D61A189FE351E454A06"",""assignmentId"":""6dcff41c-fde2-43d9-901f-c46d99fedd93"",""projectId"":""a0a8f18c-a66e-4ba7-a170-23efbdc67501""}","https://test12345.live/?participantId=0A50F51032FE4D61A189FE351E454A06&assignmentId=6dcff41c-fde2-43d9-901f-c46d99fedd93&projectId=a0a8f18c-a66e-4ba7-a170-23efbdc67501","0A50F51032FE4D61A189FE351E454A06-2024-11-24-18-39-10","","null","","images/schematic_sequence/flight_scheme/flight_scheme_5.png","null","",""
"","","","","","image-button-response","134","498673","0.0-16.0-1.0-1.4","0A50F51032FE4D61A189FE351E454A06","0A50F51032FE4D61A189FE351E454A06","6dcff41c-fde2-43d9-901f-c46d99fedd93","a0a8f18c-a66e-4ba7-a170-23efbdc67501","{""participantId"":""0A50F51032FE4D61A189FE351E454A06"",""assignmentId"":""6dcff41c-fde2-43d9-901f-c46d99fedd93"",""projectId"":""a0a8f18c-a66e-4ba7-a170-23efbdc67501""}","https://test12345.live/?participantId=0A50F51032FE4D61A189FE351E454A06&assignmentId=6dcff41c-fde2-43d9-901f-c46d99fedd93&projectId=a0a8f18c-a66e-4ba7-a170-23efbdc67501","0A50F51032FE4D61A189FE351E454A06-2024-11-24-18-39-10","","1046","","images/schematic_sequence/flight_scheme/flight_scheme_5.png","0","",""
"","","","","","image-button-response","135","500474","0.0-16.0-1.0-2.4","0A50F51032FE4D61A189FE351E454A06","0A50F51032FE4D61A189FE351E454A06","6dcff41c-fde2-43d9-901f-c46d99fedd93","a0a8f18c-a66e-4ba7-a170-23efbdc67501","{""participantId"":""0A50F51032FE4D61A189FE351E454A06"",""assignmentId"":""6dcff41c-fde2-43d9-901f-c46d99fedd93"",""projectId"":""a0a8f18c-a66e-4ba7-a170-23efbdc67501""}","https://test12345.live/?participantId=0A50F51032FE4D61A189FE351E454A06&assignmentId=6dcff41c-fde2-43d9-901f-c46d99fedd93&projectId=a0a8f18c-a66e-4ba7-a170-23efbdc67501","0A50F51032FE4D61A189FE351E454A06-2024-11-24-18-39-10","","null","","[]","null","",""
"","","","","","image-button-response","136","504979","0.0-16.0-1.0-0.5","0A50F51032FE4D61A189FE351E454A06","0A50F51032FE4D61A189FE351E454A06","6dcff41c-fde2-43d9-901f-c46d99fedd93","a0a8f18c-a66e-4ba7-a170-23efbdc67501","{""participantId"":""0A50F51032FE4D61A189FE351E454A06"",""assignmentId"":""6dcff41c-fde2-43d9-901f-c46d99fedd93"",""projectId"":""a0a8f18c-a66e-4ba7-a170-23efbdc67501""}","https://test12345.live/?participantId=0A50F51032FE4D61A189FE351E454A06&assignmentId=6dcff41c-fde2-43d9-901f-c46d99fedd93&projectId=a0a8f18c-a66e-4ba7-a170-23efbdc67501","0A50F51032FE4D61A189FE351E454A06-2024-11-24-18-39-10","","null","","images/schematic_sequence/flight_scheme/flight_scheme_6.png","null","",""
"","","","","","image-button-response","137","505716","0.0-16.0-1.0-1.5","0A50F51032FE4D61A189FE351E454A06","0A50F51032FE4D61A189FE351E454A06","6dcff41c-fde2-43d9-901f-c46d99fedd93","a0a8f18c-a66e-4ba7-a170-23efbdc67501","{""participantId"":""0A50F51032FE4D61A189FE351E454A06"",""assignmentId"":""6dcff41c-fde2-43d9-901f-c46d99fedd93"",""projectId"":""a0a8f18c-a66e-4ba7-a170-23efbdc67501""}","https://test12345.live/?participantId=0A50F51032FE4D61A189FE351E454A06&assignmentId=6dcff41c-fde2-43d9-901f-c46d99fedd93&projectId=a0a8f18c-a66e-4ba7-a170-23efbdc67501","0A50F51032FE4D61A189FE351E454A06-2024-11-24-18-39-10","","735","","images/schematic_sequence/flight_scheme/flight_scheme_6.png","1","",""
"","","","","","image-button-response","138","507518","0.0-16.0-1.0-2.5","0A50F51032FE4D61A189FE351E454A06","0A50F51032FE4D61A189FE351E454A06","6dcff41c-fde2-43d9-901f-c46d99fedd93","a0a8f18c-a66e-4ba7-a170-23efbdc67501","{""participantId"":""0A50F51032FE4D61A189FE351E454A06"",""assignmentId"":""6dcff41c-fde2-43d9-901f-c46d99fedd93"",""projectId"":""a0a8f18c-a66e-4ba7-a170-23efbdc67501""}","https://test12345.live/?participantId=0A50F51032FE4D61A189FE351E454A06&assignmentId=6dcff41c-fde2-43d9-901f-c46d99fedd93&projectId=a0a8f18c-a66e-4ba7-a170-23efbdc67501","0A50F51032FE4D61A189FE351E454A06-2024-11-24-18-39-10","","null","","[]","null","",""
"","","","","","image-button-response","139","512021","0.0-16.0-1.0-0.6","0A50F51032FE4D61A189FE351E454A06","0A50F51032FE4D61A189FE351E454A06","6dcff41c-fde2-43d9-901f-c46d99fedd93","a0a8f18c-a66e-4ba7-a170-23efbdc67501","{""participantId"":""0A50F51032FE4D61A189FE351E454A06"",""assignmentId"":""6dcff41c-fde2-43d9-901f-c46d99fedd93"",""projectId"":""a0a8f18c-a66e-4ba7-a170-23efbdc67501""}","https://test12345.live/?participantId=0A50F51032FE4D61A189FE351E454A06&assignmentId=6dcff41c-fde2-43d9-901f-c46d99fedd93&projectId=a0a8f18c-a66e-4ba7-a170-23efbdc67501","0A50F51032FE4D61A189FE351E454A06-2024-11-24-18-39-10","","null","","images/schematic_sequence/flight_scheme/flight_scheme_7.png","null","",""
"","","","","","image-button-response","140","513500","0.0-16.0-1.0-1.6","0A50F51032FE4D61A189FE351E454A06","0A50F51032FE4D61A189FE351E454A06","6dcff41c-fde2-43d9-901f-c46d99fedd93","a0a8f18c-a66e-4ba7-a170-23efbdc67501","{""participantId"":""0A50F51032FE4D61A189FE351E454A06"",""assignmentId"":""6dcff41c-fde2-43d9-901f-c46d99fedd93"",""projectId"":""a0a8f18c-a66e-4ba7-a170-23efbdc67501""}","https://test12345.live/?participantId=0A50F51032FE4D61A189FE351E454A06&assignmentId=6dcff41c-fde2-43d9-901f-c46d99fedd93&projectId=a0a8f18c-a66e-4ba7-a170-23efbdc67501","0A50F51032FE4D61A189FE351E454A06-2024-11-24-18-39-10","","1477","","images/schematic_sequence/flight_scheme/flight_scheme_7.png","1","",""
"","","","","","image-button-response","141","515302","0.0-16.0-1.0-2.6","0A50F51032FE4D61A189FE351E454A06","0A50F51032FE4D61A189FE351E454A06","6dcff41c-fde2-43d9-901f-c46d99fedd93","a0a8f18c-a66e-4ba7-a170-23efbdc67501","{""participantId"":""0A50F51032FE4D61A189FE351E454A06"",""assignmentId"":""6dcff41c-fde2-43d9-901f-c46d99fedd93"",""projectId"":""a0a8f18c-a66e-4ba7-a170-23efbdc67501""}","https://test12345.live/?participantId=0A50F51032FE4D61A189FE351E454A06&assignmentId=6dcff41c-fde2-43d9-901f-c46d99fedd93&projectId=a0a8f18c-a66e-4ba7-a170-23efbdc67501","0A50F51032FE4D61A189FE351E454A06-2024-11-24-18-39-10","","null","","[]","null","",""
"","","","","","image-button-response","142","519804","0.0-16.0-1.0-0.7","0A50F51032FE4D61A189FE351E454A06","0A50F51032FE4D61A189FE351E454A06","6dcff41c-fde2-43d9-901f-c46d99fedd93","a0a8f18c-a66e-4ba7-a170-23efbdc67501","{""participantId"":""0A50F51032FE4D61A189FE351E454A06"",""assignmentId"":""6dcff41c-fde2-43d9-901f-c46d99fedd93"",""projectId"":""a0a8f18c-a66e-4ba7-a170-23efbdc67501""}","https://test12345.live/?participantId=0A50F51032FE4D61A189FE351E454A06&assignmentId=6dcff41c-fde2-43d9-901f-c46d99fedd93&projectId=a0a8f18c-a66e-4ba7-a170-23efbdc67501","0A50F51032FE4D61A189FE351E454A06-2024-11-24-18-39-10","","null","","images/schematic_sequence/flight_scheme/flight_scheme_8.png","null","",""
"","","","","","image-button-response","143","520415","0.0-16.0-1.0-1.7","0A50F51032FE4D61A189FE351E454A06","0A50F51032FE4D61A189FE351E454A06","6dcff41c-fde2-43d9-901f-c46d99fedd93","a0a8f18c-a66e-4ba7-a170-23efbdc67501","{""participantId"":""0A50F51032FE4D61A189FE351E454A06"",""assignmentId"":""6dcff41c-fde2-43d9-901f-c46d99fedd93"",""projectId"":""a0a8f18c-a66e-4ba7-a170-23efbdc67501""}","https://test12345.live/?participantId=0A50F51032FE4D61A189FE351E454A06&assignmentId=6dcff41c-fde2-43d9-901f-c46d99fedd93&projectId=a0a8f18c-a66e-4ba7-a170-23efbdc67501","0A50F51032FE4D61A189FE351E454A06-2024-11-24-18-39-10","","609","","images/schematic_sequence/flight_scheme/flight_scheme_8.png","1","",""
