"success","timeout","failed_images","failed_audio","failed_video","trial_type","trial_index","time_elapsed","internal_node_id","subject","subject_id","study_id","session_id","urlvar","current_url","audio_id","view_history","rt","device_id","stimulus","response","estimated_stimulus_onset","seq_name"
"true","false","[]","[]","[]","preload","0","2562","0.0-0.0","0AC0102DDDCB46FD97BFAB8C9D3E01D7","0AC0102DDDCB46FD97BFAB8C9D3E01D7","42e9ddd5-a033-4b98-b938-993f7d5427a0","a0a8f18c-a66e-4ba7-a170-23efbdc67501","{""participantId"":""0AC0102DDDCB46FD97BFAB8C9D3E01D7"",""assignmentId"":""42e9ddd5-a033-4b98-b938-993f7d5427a0"",""projectId"":""a0a8f18c-a66e-4ba7-a170-23efbdc67501""}","https://test12345.live/?participantId=0AC0102DDDCB46FD97BFAB8C9D3E01D7&assignmentId=42e9ddd5-a033-4b98-b938-993f7d5427a0&projectId=a0a8f18c-a66e-4ba7-a170-23efbdc67501","0AC0102DDDCB46FD97BFAB8C9D3E01D7-2024-11-24-18-42-52","","","","","","",""
"","","","","","instructions","1","12402","0.0-1.0","0AC0102DDDCB46FD97BFAB8C9D3E01D7","0AC0102DDDCB46FD97BFAB8C9D3E01D7","42e9ddd5-a033-4b98-b938-993f7d5427a0","a0a8f18c-a66e-4ba7-a170-23efbdc67501","{""participantId"":""0AC0102DDDCB46FD97BFAB8C9D3E01D7"",""assignmentId"":""42e9ddd5-a033-4b98-b938-993f7d5427a0"",""projectId"":""a0a8f18c-a66e-4ba7-a170-23efbdc67501""}","https://test12345.live/?participantId=0AC0102DDDCB46FD97BFAB8C9D3E01D7&assignmentId=42e9ddd5-a033-4b98-b938-993f7d5427a0&projectId=a0a8f18c-a66e-4ba7-a170-23efbdc67501","0AC0102DDDCB46FD97BFAB8C9D3E01D7-2024-11-24-18-42-52","[{""page_index"":0,""viewing_time"":9832}]","9833","","","","",""
"","","","","","instructions","2","19731","0.0-2.0","0AC0102DDDCB46FD97BFAB8C9D3E01D7","0AC0102DDDCB46FD97BFAB8C9D3E01D7","42e9ddd5-a033-4b98-b938-993f7d5427a0","a0a8f18c-a66e-4ba7-a170-23efbdc67501","{""participantId"":""0AC0102DDDCB46FD97BFAB8C9D3E01D7"",""assignmentId"":""42e9ddd5-a033-4b98-b938-993f7d5427a0"",""projectId"":""a0a8f18c-a66e-4ba7-a170-23efbdc67501""}","https://test12345.live/?participantId=0AC0102DDDCB46FD97BFAB8C9D3E01D7&assignmentId=42e9ddd5-a033-4b98-b938-993f7d5427a0&projectId=a0a8f18c-a66e-4ba7-a170-23efbdc67501","0AC0102DDDCB46FD97BFAB8C9D3E01D7-2024-11-24-18-42-52","[{""page_index"":0,""viewing_time"":7323}]","7323","","","","",""
"true","","","","","fullscreen","3","22144","0.0-3.0","0AC0102DDDCB46FD97BFAB8C9D3E01D7","0AC0102DDDCB46FD97BFAB8C9D3E01D7","42e9ddd5-a033-4b98-b938-993f7d5427a0","a0a8f18c-a66e-4ba7-a170-23efbdc67501","{""participantId"":""0AC0102DDDCB46FD97BFAB8C9D3E01D7"",""assignmentId"":""42e9ddd5-a033-4b98-b938-993f7d5427a0"",""projectId"":""a0a8f18c-a66e-4ba7-a170-23efbdc67501""}","https://test12345.live/?participantId=0AC0102DDDCB46FD97BFAB8C9D3E01D7&assignmentId=42e9ddd5-a033-4b98-b938-993f7d5427a0&projectId=a0a8f18c-a66e-4ba7-a170-23efbdc67501","0AC0102DDDCB46FD97BFAB8C9D3E01D7-2024-11-24-18-42-52","","1408","","","","",""
"","","","","","initialize-microphone","4","32481","0.0-4.0-0.0","0AC0102DDDCB46FD97BFAB8C9D3E01D7","0AC0102DDDCB46FD97BFAB8C9D3E01D7","42e9ddd5-a033-4b98-b938-993f7d5427a0","a0a8f18c-a66e-4ba7-a170-23efbdc67501","{""participantId"":""0AC0102DDDCB46FD97BFAB8C9D3E01D7"",""assignmentId"":""42e9ddd5-a033-4b98-b938-993f7d5427a0"",""projectId"":""a0a8f18c-a66e-4ba7-a170-23efbdc67501""}","https://test12345.live/?participantId=0AC0102DDDCB46FD97BFAB8C9D3E01D7&assignmentId=42e9ddd5-a033-4b98-b938-993f7d5427a0&projectId=a0a8f18c-a66e-4ba7-a170-23efbdc67501","0AC0102DDDCB46FD97BFAB8C9D3E01D7-2024-11-24-18-42-52","","","40325e79f67893846182e72a40351e920347c1a2482ec5bdd8bedc83d45f06c9","","","",""
"","","","","","html-audio-response","5","42880","0.0-4.0-1.0","0AC0102DDDCB46FD97BFAB8C9D3E01D7","0AC0102DDDCB46FD97BFAB8C9D3E01D7","42e9ddd5-a033-4b98-b938-993f7d5427a0","a0a8f18c-a66e-4ba7-a170-23efbdc67501","{""participantId"":""0AC0102DDDCB46FD97BFAB8C9D3E01D7"",""assignmentId"":""42e9ddd5-a033-4b98-b938-993f7d5427a0"",""projectId"":""a0a8f18c-a66e-4ba7-a170-23efbdc67501""}","https://test12345.live/?participantId=0AC0102DDDCB46FD97BFAB8C9D3E01D7&assignmentId=42e9ddd5-a033-4b98-b938-993f7d5427a0&projectId=a0a8f18c-a66e-4ba7-a170-23efbdc67501","0AC0102DDDCB46FD97BFAB8C9D3E01D7-2024-11-24-18-42-52","","4280","","<span style=""color: red; font-size: 24px""> NOW RECORDING</span>
        <p>Please test Microphone</p>","","4",""
"","","","","","html-button-response","6","44058","0.0-4.0-2.0","0AC0102DDDCB46FD97BFAB8C9D3E01D7","0AC0102DDDCB46FD97BFAB8C9D3E01D7","42e9ddd5-a033-4b98-b938-993f7d5427a0","a0a8f18c-a66e-4ba7-a170-23efbdc67501","{""participantId"":""0AC0102DDDCB46FD97BFAB8C9D3E01D7"",""assignmentId"":""42e9ddd5-a033-4b98-b938-993f7d5427a0"",""projectId"":""a0a8f18c-a66e-4ba7-a170-23efbdc67501""}","https://test12345.live/?participantId=0AC0102DDDCB46FD97BFAB8C9D3E01D7&assignmentId=42e9ddd5-a033-4b98-b938-993f7d5427a0&projectId=a0a8f18c-a66e-4ba7-a170-23efbdc67501","0AC0102DDDCB46FD97BFAB8C9D3E01D7-2024-11-24-18-42-52","","1176","","<p style=""font-size:48px; color:red;"">Is Microphone OK?</p>","1","",""
"","","","","","instructions","7","50478","0.0-5.0","0AC0102DDDCB46FD97BFAB8C9D3E01D7","0AC0102DDDCB46FD97BFAB8C9D3E01D7","42e9ddd5-a033-4b98-b938-993f7d5427a0","a0a8f18c-a66e-4ba7-a170-23efbdc67501","{""participantId"":""0AC0102DDDCB46FD97BFAB8C9D3E01D7"",""assignmentId"":""42e9ddd5-a033-4b98-b938-993f7d5427a0"",""projectId"":""a0a8f18c-a66e-4ba7-a170-23efbdc67501""}","https://test12345.live/?participantId=0AC0102DDDCB46FD97BFAB8C9D3E01D7&assignmentId=42e9ddd5-a033-4b98-b938-993f7d5427a0&projectId=a0a8f18c-a66e-4ba7-a170-23efbdc67501","0AC0102DDDCB46FD97BFAB8C9D3E01D7-2024-11-24-18-42-52","[{""page_index"":0,""viewing_time"":2909},{""page_index"":1,""viewing_time"":3510}]","6419","","","","",""
"","","","","","image-button-response","8","56489","0.0-6.0-0.0","0AC0102DDDCB46FD97BFAB8C9D3E01D7","0AC0102DDDCB46FD97BFAB8C9D3E01D7","42e9ddd5-a033-4b98-b938-993f7d5427a0","a0a8f18c-a66e-4ba7-a170-23efbdc67501","{""participantId"":""0AC0102DDDCB46FD97BFAB8C9D3E01D7"",""assignmentId"":""42e9ddd5-a033-4b98-b938-993f7d5427a0"",""projectId"":""a0a8f18c-a66e-4ba7-a170-23efbdc67501""}","https://test12345.live/?participantId=0AC0102DDDCB46FD97BFAB8C9D3E01D7&assignmentId=42e9ddd5-a033-4b98-b938-993f7d5427a0&projectId=a0a8f18c-a66e-4ba7-a170-23efbdc67501","0AC0102DDDCB46FD97BFAB8C9D3E01D7-2024-11-24-18-42-52","","null","","images/instructions/movie_0.png","null","",""
"","","","","","image-button-response","9","60997","0.0-6.0-1.0-0.0","0AC0102DDDCB46FD97BFAB8C9D3E01D7","0AC0102DDDCB46FD97BFAB8C9D3E01D7","42e9ddd5-a033-4b98-b938-993f7d5427a0","a0a8f18c-a66e-4ba7-a170-23efbdc67501","{""participantId"":""0AC0102DDDCB46FD97BFAB8C9D3E01D7"",""assignmentId"":""42e9ddd5-a033-4b98-b938-993f7d5427a0"",""projectId"":""a0a8f18c-a66e-4ba7-a170-23efbdc67501""}","https://test12345.live/?participantId=0AC0102DDDCB46FD97BFAB8C9D3E01D7&assignmentId=42e9ddd5-a033-4b98-b938-993f7d5427a0&projectId=a0a8f18c-a66e-4ba7-a170-23efbdc67501","0AC0102DDDCB46FD97BFAB8C9D3E01D7-2024-11-24-18-42-52","","null","","images/instructions/movie_1.png","null","",""
"","","","","","image-button-response","10","65005","0.0-6.0-1.0-1.0","0AC0102DDDCB46FD97BFAB8C9D3E01D7","0AC0102DDDCB46FD97BFAB8C9D3E01D7","42e9ddd5-a033-4b98-b938-993f7d5427a0","a0a8f18c-a66e-4ba7-a170-23efbdc67501","{""participantId"":""0AC0102DDDCB46FD97BFAB8C9D3E01D7"",""assignmentId"":""42e9ddd5-a033-4b98-b938-993f7d5427a0"",""projectId"":""a0a8f18c-a66e-4ba7-a170-23efbdc67501""}","https://test12345.live/?participantId=0AC0102DDDCB46FD97BFAB8C9D3E01D7&assignmentId=42e9ddd5-a033-4b98-b938-993f7d5427a0&projectId=a0a8f18c-a66e-4ba7-a170-23efbdc67501","0AC0102DDDCB46FD97BFAB8C9D3E01D7-2024-11-24-18-42-52","","null","","images/instructions/movie_1.png","null","",""
"","","","","","image-button-response","11","66812","0.0-6.0-1.0-2.0","0AC0102DDDCB46FD97BFAB8C9D3E01D7","0AC0102DDDCB46FD97BFAB8C9D3E01D7","42e9ddd5-a033-4b98-b938-993f7d5427a0","a0a8f18c-a66e-4ba7-a170-23efbdc67501","{""participantId"":""0AC0102DDDCB46FD97BFAB8C9D3E01D7"",""assignmentId"":""42e9ddd5-a033-4b98-b938-993f7d5427a0"",""projectId"":""a0a8f18c-a66e-4ba7-a170-23efbdc67501""}","https://test12345.live/?participantId=0AC0102DDDCB46FD97BFAB8C9D3E01D7&assignmentId=42e9ddd5-a033-4b98-b938-993f7d5427a0&projectId=a0a8f18c-a66e-4ba7-a170-23efbdc67501","0AC0102DDDCB46FD97BFAB8C9D3E01D7-2024-11-24-18-42-52","","null","","[]","null","",""
"","","","","","image-button-response","12","71317","0.0-6.0-1.0-0.1","0AC0102DDDCB46FD97BFAB8C9D3E01D7","0AC0102DDDCB46FD97BFAB8C9D3E01D7","42e9ddd5-a033-4b98-b938-993f7d5427a0","a0a8f18c-a66e-4ba7-a170-23efbdc67501","{""participantId"":""0AC0102DDDCB46FD97BFAB8C9D3E01D7"",""assignmentId"":""42e9ddd5-a033-4b98-b938-993f7d5427a0"",""projectId"":""a0a8f18c-a66e-4ba7-a170-23efbdc67501""}","https://test12345.live/?participantId=0AC0102DDDCB46FD97BFAB8C9D3E01D7&assignmentId=42e9ddd5-a033-4b98-b938-993f7d5427a0&projectId=a0a8f18c-a66e-4ba7-a170-23efbdc67501","0AC0102DDDCB46FD97BFAB8C9D3E01D7-2024-11-24-18-42-52","","null","","images/instructions/movie_2.png","null","",""
"","","","","","image-button-response","13","72371","0.0-6.0-1.0-1.1","0AC0102DDDCB46FD97BFAB8C9D3E01D7","0AC0102DDDCB46FD97BFAB8C9D3E01D7","42e9ddd5-a033-4b98-b938-993f7d5427a0","a0a8f18c-a66e-4ba7-a170-23efbdc67501","{""participantId"":""0AC0102DDDCB46FD97BFAB8C9D3E01D7"",""assignmentId"":""42e9ddd5-a033-4b98-b938-993f7d5427a0"",""projectId"":""a0a8f18c-a66e-4ba7-a170-23efbdc67501""}","https://test12345.live/?participantId=0AC0102DDDCB46FD97BFAB8C9D3E01D7&assignmentId=42e9ddd5-a033-4b98-b938-993f7d5427a0&projectId=a0a8f18c-a66e-4ba7-a170-23efbdc67501","0AC0102DDDCB46FD97BFAB8C9D3E01D7-2024-11-24-18-42-52","","1051","","images/instructions/movie_2.png","0","",""
"","","","","","image-button-response","14","74173","0.0-6.0-1.0-2.1","0AC0102DDDCB46FD97BFAB8C9D3E01D7","0AC0102DDDCB46FD97BFAB8C9D3E01D7","42e9ddd5-a033-4b98-b938-993f7d5427a0","a0a8f18c-a66e-4ba7-a170-23efbdc67501","{""participantId"":""0AC0102DDDCB46FD97BFAB8C9D3E01D7"",""assignmentId"":""42e9ddd5-a033-4b98-b938-993f7d5427a0"",""projectId"":""a0a8f18c-a66e-4ba7-a170-23efbdc67501""}","https://test12345.live/?participantId=0AC0102DDDCB46FD97BFAB8C9D3E01D7&assignmentId=42e9ddd5-a033-4b98-b938-993f7d5427a0&projectId=a0a8f18c-a66e-4ba7-a170-23efbdc67501","0AC0102DDDCB46FD97BFAB8C9D3E01D7-2024-11-24-18-42-52","","null","","[]","null","",""
"","","","","","image-button-response","15","78680","0.0-6.0-1.0-0.2","0AC0102DDDCB46FD97BFAB8C9D3E01D7","0AC0102DDDCB46FD97BFAB8C9D3E01D7","42e9ddd5-a033-4b98-b938-993f7d5427a0","a0a8f18c-a66e-4ba7-a170-23efbdc67501","{""participantId"":""0AC0102DDDCB46FD97BFAB8C9D3E01D7"",""assignmentId"":""42e9ddd5-a033-4b98-b938-993f7d5427a0"",""projectId"":""a0a8f18c-a66e-4ba7-a170-23efbdc67501""}","https://test12345.live/?participantId=0AC0102DDDCB46FD97BFAB8C9D3E01D7&assignmentId=42e9ddd5-a033-4b98-b938-993f7d5427a0&projectId=a0a8f18c-a66e-4ba7-a170-23efbdc67501","0AC0102DDDCB46FD97BFAB8C9D3E01D7-2024-11-24-18-42-52","","null","","images/instructions/movie_3.png","null","",""
"","","","","","image-button-response","16","79585","0.0-6.0-1.0-1.2","0AC0102DDDCB46FD97BFAB8C9D3E01D7","0AC0102DDDCB46FD97BFAB8C9D3E01D7","42e9ddd5-a033-4b98-b938-993f7d5427a0","a0a8f18c-a66e-4ba7-a170-23efbdc67501","{""participantId"":""0AC0102DDDCB46FD97BFAB8C9D3E01D7"",""assignmentId"":""42e9ddd5-a033-4b98-b938-993f7d5427a0"",""projectId"":""a0a8f18c-a66e-4ba7-a170-23efbdc67501""}","https://test12345.live/?participantId=0AC0102DDDCB46FD97BFAB8C9D3E01D7&assignmentId=42e9ddd5-a033-4b98-b938-993f7d5427a0&projectId=a0a8f18c-a66e-4ba7-a170-23efbdc67501","0AC0102DDDCB46FD97BFAB8C9D3E01D7-2024-11-24-18-42-52","","902","","images/instructions/movie_3.png","0","",""
"","","","","","image-button-response","17","81392","0.0-6.0-1.0-2.2","0AC0102DDDCB46FD97BFAB8C9D3E01D7","0AC0102DDDCB46FD97BFAB8C9D3E01D7","42e9ddd5-a033-4b98-b938-993f7d5427a0","a0a8f18c-a66e-4ba7-a170-23efbdc67501","{""participantId"":""0AC0102DDDCB46FD97BFAB8C9D3E01D7"",""assignmentId"":""42e9ddd5-a033-4b98-b938-993f7d5427a0"",""projectId"":""a0a8f18c-a66e-4ba7-a170-23efbdc67501""}","https://test12345.live/?participantId=0AC0102DDDCB46FD97BFAB8C9D3E01D7&assignmentId=42e9ddd5-a033-4b98-b938-993f7d5427a0&projectId=a0a8f18c-a66e-4ba7-a170-23efbdc67501","0AC0102DDDCB46FD97BFAB8C9D3E01D7-2024-11-24-18-42-52","","null","","[]","null","",""
"","","","","","image-button-response","18","85899","0.0-6.0-1.0-0.3","0AC0102DDDCB46FD97BFAB8C9D3E01D7","0AC0102DDDCB46FD97BFAB8C9D3E01D7","42e9ddd5-a033-4b98-b938-993f7d5427a0","a0a8f18c-a66e-4ba7-a170-23efbdc67501","{""participantId"":""0AC0102DDDCB46FD97BFAB8C9D3E01D7"",""assignmentId"":""42e9ddd5-a033-4b98-b938-993f7d5427a0"",""projectId"":""a0a8f18c-a66e-4ba7-a170-23efbdc67501""}","https://test12345.live/?participantId=0AC0102DDDCB46FD97BFAB8C9D3E01D7&assignmentId=42e9ddd5-a033-4b98-b938-993f7d5427a0&projectId=a0a8f18c-a66e-4ba7-a170-23efbdc67501","0AC0102DDDCB46FD97BFAB8C9D3E01D7-2024-11-24-18-42-52","","null","","images/instructions/movie_4.png","null","",""
"","","","","","image-button-response","19","86660","0.0-6.0-1.0-1.3","0AC0102DDDCB46FD97BFAB8C9D3E01D7","0AC0102DDDCB46FD97BFAB8C9D3E01D7","42e9ddd5-a033-4b98-b938-993f7d5427a0","a0a8f18c-a66e-4ba7-a170-23efbdc67501","{""participantId"":""0AC0102DDDCB46FD97BFAB8C9D3E01D7"",""assignmentId"":""42e9ddd5-a033-4b98-b938-993f7d5427a0"",""projectId"":""a0a8f18c-a66e-4ba7-a170-23efbdc67501""}","https://test12345.live/?participantId=0AC0102DDDCB46FD97BFAB8C9D3E01D7&assignmentId=42e9ddd5-a033-4b98-b938-993f7d5427a0&projectId=a0a8f18c-a66e-4ba7-a170-23efbdc67501","0AC0102DDDCB46FD97BFAB8C9D3E01D7-2024-11-24-18-42-52","","758","","images/instructions/movie_4.png","0","",""
"","","","","","image-button-response","20","88466","0.0-6.0-1.0-2.3","0AC0102DDDCB46FD97BFAB8C9D3E01D7","0AC0102DDDCB46FD97BFAB8C9D3E01D7","42e9ddd5-a033-4b98-b938-993f7d5427a0","a0a8f18c-a66e-4ba7-a170-23efbdc67501","{""participantId"":""0AC0102DDDCB46FD97BFAB8C9D3E01D7"",""assignmentId"":""42e9ddd5-a033-4b98-b938-993f7d5427a0"",""projectId"":""a0a8f18c-a66e-4ba7-a170-23efbdc67501""}","https://test12345.live/?participantId=0AC0102DDDCB46FD97BFAB8C9D3E01D7&assignmentId=42e9ddd5-a033-4b98-b938-993f7d5427a0&projectId=a0a8f18c-a66e-4ba7-a170-23efbdc67501","0AC0102DDDCB46FD97BFAB8C9D3E01D7-2024-11-24-18-42-52","","null","","[]","null","",""
"","","","","","instructions","21","96977","0.0-7.0","0AC0102DDDCB46FD97BFAB8C9D3E01D7","0AC0102DDDCB46FD97BFAB8C9D3E01D7","42e9ddd5-a033-4b98-b938-993f7d5427a0","a0a8f18c-a66e-4ba7-a170-23efbdc67501","{""participantId"":""0AC0102DDDCB46FD97BFAB8C9D3E01D7"",""assignmentId"":""42e9ddd5-a033-4b98-b938-993f7d5427a0"",""projectId"":""a0a8f18c-a66e-4ba7-a170-23efbdc67501""}","https://test12345.live/?participantId=0AC0102DDDCB46FD97BFAB8C9D3E01D7&assignmentId=42e9ddd5-a033-4b98-b938-993f7d5427a0&projectId=a0a8f18c-a66e-4ba7-a170-23efbdc67501","0AC0102DDDCB46FD97BFAB8C9D3E01D7-2024-11-24-18-42-52","[{""page_index"":0,""viewing_time"":7310},{""page_index"":1,""viewing_time"":1200}]","8510","","","","",""
"","","","","","html-audio-response","22","124567","0.0-8.0","0AC0102DDDCB46FD97BFAB8C9D3E01D7","0AC0102DDDCB46FD97BFAB8C9D3E01D7","42e9ddd5-a033-4b98-b938-993f7d5427a0","a0a8f18c-a66e-4ba7-a170-23efbdc67501","{""participantId"":""0AC0102DDDCB46FD97BFAB8C9D3E01D7"",""assignmentId"":""42e9ddd5-a033-4b98-b938-993f7d5427a0"",""projectId"":""a0a8f18c-a66e-4ba7-a170-23efbdc67501""}","https://test12345.live/?participantId=0AC0102DDDCB46FD97BFAB8C9D3E01D7&assignmentId=42e9ddd5-a033-4b98-b938-993f7d5427a0&projectId=a0a8f18c-a66e-4ba7-a170-23efbdc67501","0AC0102DDDCB46FD97BFAB8C9D3E01D7-2024-11-24-18-42-52","","17133","","[""<span style=\""color: red; font-size: 24px\""> NOW RECORDING</span><p>Please say out loud all the images you saw, as many as you can remember. The images can be said in any order.</p>""]","","2",""
"","","","","","instructions","23","147361","0.0-9.0","0AC0102DDDCB46FD97BFAB8C9D3E01D7","0AC0102DDDCB46FD97BFAB8C9D3E01D7","42e9ddd5-a033-4b98-b938-993f7d5427a0","a0a8f18c-a66e-4ba7-a170-23efbdc67501","{""participantId"":""0AC0102DDDCB46FD97BFAB8C9D3E01D7"",""assignmentId"":""42e9ddd5-a033-4b98-b938-993f7d5427a0"",""projectId"":""a0a8f18c-a66e-4ba7-a170-23efbdc67501""}","https://test12345.live/?participantId=0AC0102DDDCB46FD97BFAB8C9D3E01D7&assignmentId=42e9ddd5-a033-4b98-b938-993f7d5427a0&projectId=a0a8f18c-a66e-4ba7-a170-23efbdc67501","0AC0102DDDCB46FD97BFAB8C9D3E01D7-2024-11-24-18-42-52","[{""page_index"":0,""viewing_time"":22789}]","22789","","","","",""
"","","","","","image-button-response","24","153365","0.0-10.0-0.0","0AC0102DDDCB46FD97BFAB8C9D3E01D7","0AC0102DDDCB46FD97BFAB8C9D3E01D7","42e9ddd5-a033-4b98-b938-993f7d5427a0","a0a8f18c-a66e-4ba7-a170-23efbdc67501","{""participantId"":""0AC0102DDDCB46FD97BFAB8C9D3E01D7"",""assignmentId"":""42e9ddd5-a033-4b98-b938-993f7d5427a0"",""projectId"":""a0a8f18c-a66e-4ba7-a170-23efbdc67501""}","https://test12345.live/?participantId=0AC0102DDDCB46FD97BFAB8C9D3E01D7&assignmentId=42e9ddd5-a033-4b98-b938-993f7d5427a0&projectId=a0a8f18c-a66e-4ba7-a170-23efbdc67501","0AC0102DDDCB46FD97BFAB8C9D3E01D7-2024-11-24-18-42-52","","null","","images/causal_sequence/dog_causal/dog_causal_0.png","null","",""
"","","","","","image-button-response","25","157869","0.0-10.0-1.0-0.0","0AC0102DDDCB46FD97BFAB8C9D3E01D7","0AC0102DDDCB46FD97BFAB8C9D3E01D7","42e9ddd5-a033-4b98-b938-993f7d5427a0","a0a8f18c-a66e-4ba7-a170-23efbdc67501","{""participantId"":""0AC0102DDDCB46FD97BFAB8C9D3E01D7"",""assignmentId"":""42e9ddd5-a033-4b98-b938-993f7d5427a0"",""projectId"":""a0a8f18c-a66e-4ba7-a170-23efbdc67501""}","https://test12345.live/?participantId=0AC0102DDDCB46FD97BFAB8C9D3E01D7&assignmentId=42e9ddd5-a033-4b98-b938-993f7d5427a0&projectId=a0a8f18c-a66e-4ba7-a170-23efbdc67501","0AC0102DDDCB46FD97BFAB8C9D3E01D7-2024-11-24-18-42-52","","null","","images/causal_sequence/dog_causal/dog_causal_1.png","null","",""
"","","","","","image-button-response","26","158745","0.0-10.0-1.0-1.0","0AC0102DDDCB46FD97BFAB8C9D3E01D7","0AC0102DDDCB46FD97BFAB8C9D3E01D7","42e9ddd5-a033-4b98-b938-993f7d5427a0","a0a8f18c-a66e-4ba7-a170-23efbdc67501","{""participantId"":""0AC0102DDDCB46FD97BFAB8C9D3E01D7"",""assignmentId"":""42e9ddd5-a033-4b98-b938-993f7d5427a0"",""projectId"":""a0a8f18c-a66e-4ba7-a170-23efbdc67501""}","https://test12345.live/?participantId=0AC0102DDDCB46FD97BFAB8C9D3E01D7&assignmentId=42e9ddd5-a033-4b98-b938-993f7d5427a0&projectId=a0a8f18c-a66e-4ba7-a170-23efbdc67501","0AC0102DDDCB46FD97BFAB8C9D3E01D7-2024-11-24-18-42-52","","873","","images/causal_sequence/dog_causal/dog_causal_1.png","0","",""
"","","","","","image-button-response","27","160550","0.0-10.0-1.0-2.0","0AC0102DDDCB46FD97BFAB8C9D3E01D7","0AC0102DDDCB46FD97BFAB8C9D3E01D7","42e9ddd5-a033-4b98-b938-993f7d5427a0","a0a8f18c-a66e-4ba7-a170-23efbdc67501","{""participantId"":""0AC0102DDDCB46FD97BFAB8C9D3E01D7"",""assignmentId"":""42e9ddd5-a033-4b98-b938-993f7d5427a0"",""projectId"":""a0a8f18c-a66e-4ba7-a170-23efbdc67501""}","https://test12345.live/?participantId=0AC0102DDDCB46FD97BFAB8C9D3E01D7&assignmentId=42e9ddd5-a033-4b98-b938-993f7d5427a0&projectId=a0a8f18c-a66e-4ba7-a170-23efbdc67501","0AC0102DDDCB46FD97BFAB8C9D3E01D7-2024-11-24-18-42-52","","null","","[]","null","",""
"","","","","","image-button-response","28","165057","0.0-10.0-1.0-0.1","0AC0102DDDCB46FD97BFAB8C9D3E01D7","0AC0102DDDCB46FD97BFAB8C9D3E01D7","42e9ddd5-a033-4b98-b938-993f7d5427a0","a0a8f18c-a66e-4ba7-a170-23efbdc67501","{""participantId"":""0AC0102DDDCB46FD97BFAB8C9D3E01D7"",""assignmentId"":""42e9ddd5-a033-4b98-b938-993f7d5427a0"",""projectId"":""a0a8f18c-a66e-4ba7-a170-23efbdc67501""}","https://test12345.live/?participantId=0AC0102DDDCB46FD97BFAB8C9D3E01D7&assignmentId=42e9ddd5-a033-4b98-b938-993f7d5427a0&projectId=a0a8f18c-a66e-4ba7-a170-23efbdc67501","0AC0102DDDCB46FD97BFAB8C9D3E01D7-2024-11-24-18-42-52","","null","","images/causal_sequence/dog_causal/dog_causal_2.png","null","",""
"","","","","","image-button-response","29","166335","0.0-10.0-1.0-1.1","0AC0102DDDCB46FD97BFAB8C9D3E01D7","0AC0102DDDCB46FD97BFAB8C9D3E01D7","42e9ddd5-a033-4b98-b938-993f7d5427a0","a0a8f18c-a66e-4ba7-a170-23efbdc67501","{""participantId"":""0AC0102DDDCB46FD97BFAB8C9D3E01D7"",""assignmentId"":""42e9ddd5-a033-4b98-b938-993f7d5427a0"",""projectId"":""a0a8f18c-a66e-4ba7-a170-23efbdc67501""}","https://test12345.live/?participantId=0AC0102DDDCB46FD97BFAB8C9D3E01D7&assignmentId=42e9ddd5-a033-4b98-b938-993f7d5427a0&projectId=a0a8f18c-a66e-4ba7-a170-23efbdc67501","0AC0102DDDCB46FD97BFAB8C9D3E01D7-2024-11-24-18-42-52","","1275","","images/causal_sequence/dog_causal/dog_causal_2.png","0","",""
"","","","","","image-button-response","30","168142","0.0-10.0-1.0-2.1","0AC0102DDDCB46FD97BFAB8C9D3E01D7","0AC0102DDDCB46FD97BFAB8C9D3E01D7","42e9ddd5-a033-4b98-b938-993f7d5427a0","a0a8f18c-a66e-4ba7-a170-23efbdc67501","{""participantId"":""0AC0102DDDCB46FD97BFAB8C9D3E01D7"",""assignmentId"":""42e9ddd5-a033-4b98-b938-993f7d5427a0"",""projectId"":""a0a8f18c-a66e-4ba7-a170-23efbdc67501""}","https://test12345.live/?participantId=0AC0102DDDCB46FD97BFAB8C9D3E01D7&assignmentId=42e9ddd5-a033-4b98-b938-993f7d5427a0&projectId=a0a8f18c-a66e-4ba7-a170-23efbdc67501","0AC0102DDDCB46FD97BFAB8C9D3E01D7-2024-11-24-18-42-52","","null","","[]","null","",""
"","","","","","image-button-response","31","172644","0.0-10.0-1.0-0.2","0AC0102DDDCB46FD97BFAB8C9D3E01D7","0AC0102DDDCB46FD97BFAB8C9D3E01D7","42e9ddd5-a033-4b98-b938-993f7d5427a0","a0a8f18c-a66e-4ba7-a170-23efbdc67501","{""participantId"":""0AC0102DDDCB46FD97BFAB8C9D3E01D7"",""assignmentId"":""42e9ddd5-a033-4b98-b938-993f7d5427a0"",""projectId"":""a0a8f18c-a66e-4ba7-a170-23efbdc67501""}","https://test12345.live/?participantId=0AC0102DDDCB46FD97BFAB8C9D3E01D7&assignmentId=42e9ddd5-a033-4b98-b938-993f7d5427a0&projectId=a0a8f18c-a66e-4ba7-a170-23efbdc67501","0AC0102DDDCB46FD97BFAB8C9D3E01D7-2024-11-24-18-42-52","","null","","images/causal_sequence/dog_causal/dog_causal_3.png","null","",""
"","","","","","image-button-response","32","173601","0.0-10.0-1.0-1.2","0AC0102DDDCB46FD97BFAB8C9D3E01D7","0AC0102DDDCB46FD97BFAB8C9D3E01D7","42e9ddd5-a033-4b98-b938-993f7d5427a0","a0a8f18c-a66e-4ba7-a170-23efbdc67501","{""participantId"":""0AC0102DDDCB46FD97BFAB8C9D3E01D7"",""assignmentId"":""42e9ddd5-a033-4b98-b938-993f7d5427a0"",""projectId"":""a0a8f18c-a66e-4ba7-a170-23efbdc67501""}","https://test12345.live/?participantId=0AC0102DDDCB46FD97BFAB8C9D3E01D7&assignmentId=42e9ddd5-a033-4b98-b938-993f7d5427a0&projectId=a0a8f18c-a66e-4ba7-a170-23efbdc67501","0AC0102DDDCB46FD97BFAB8C9D3E01D7-2024-11-24-18-42-52","","954","","images/causal_sequence/dog_causal/dog_causal_3.png","0","",""
"","","","","","image-button-response","33","175407","0.0-10.0-1.0-2.2","0AC0102DDDCB46FD97BFAB8C9D3E01D7","0AC0102DDDCB46FD97BFAB8C9D3E01D7","42e9ddd5-a033-4b98-b938-993f7d5427a0","a0a8f18c-a66e-4ba7-a170-23efbdc67501","{""participantId"":""0AC0102DDDCB46FD97BFAB8C9D3E01D7"",""assignmentId"":""42e9ddd5-a033-4b98-b938-993f7d5427a0"",""projectId"":""a0a8f18c-a66e-4ba7-a170-23efbdc67501""}","https://test12345.live/?participantId=0AC0102DDDCB46FD97BFAB8C9D3E01D7&assignmentId=42e9ddd5-a033-4b98-b938-993f7d5427a0&projectId=a0a8f18c-a66e-4ba7-a170-23efbdc67501","0AC0102DDDCB46FD97BFAB8C9D3E01D7-2024-11-24-18-42-52","","null","","[]","null","",""
"","","","","","image-button-response","34","179915","0.0-10.0-1.0-0.3","0AC0102DDDCB46FD97BFAB8C9D3E01D7","0AC0102DDDCB46FD97BFAB8C9D3E01D7","42e9ddd5-a033-4b98-b938-993f7d5427a0","a0a8f18c-a66e-4ba7-a170-23efbdc67501","{""participantId"":""0AC0102DDDCB46FD97BFAB8C9D3E01D7"",""assignmentId"":""42e9ddd5-a033-4b98-b938-993f7d5427a0"",""projectId"":""a0a8f18c-a66e-4ba7-a170-23efbdc67501""}","https://test12345.live/?participantId=0AC0102DDDCB46FD97BFAB8C9D3E01D7&assignmentId=42e9ddd5-a033-4b98-b938-993f7d5427a0&projectId=a0a8f18c-a66e-4ba7-a170-23efbdc67501","0AC0102DDDCB46FD97BFAB8C9D3E01D7-2024-11-24-18-42-52","","null","","images/causal_sequence/dog_causal/dog_causal_4.png","null","",""
"","","","","","image-button-response","35","180961","0.0-10.0-1.0-1.3","0AC0102DDDCB46FD97BFAB8C9D3E01D7","0AC0102DDDCB46FD97BFAB8C9D3E01D7","42e9ddd5-a033-4b98-b938-993f7d5427a0","a0a8f18c-a66e-4ba7-a170-23efbdc67501","{""participantId"":""0AC0102DDDCB46FD97BFAB8C9D3E01D7"",""assignmentId"":""42e9ddd5-a033-4b98-b938-993f7d5427a0"",""projectId"":""a0a8f18c-a66e-4ba7-a170-23efbdc67501""}","https://test12345.live/?participantId=0AC0102DDDCB46FD97BFAB8C9D3E01D7&assignmentId=42e9ddd5-a033-4b98-b938-993f7d5427a0&projectId=a0a8f18c-a66e-4ba7-a170-23efbdc67501","0AC0102DDDCB46FD97BFAB8C9D3E01D7-2024-11-24-18-42-52","","1043","","images/causal_sequence/dog_causal/dog_causal_4.png","0","",""
"","","","","","image-button-response","36","182765","0.0-10.0-1.0-2.3","0AC0102DDDCB46FD97BFAB8C9D3E01D7","0AC0102DDDCB46FD97BFAB8C9D3E01D7","42e9ddd5-a033-4b98-b938-993f7d5427a0","a0a8f18c-a66e-4ba7-a170-23efbdc67501","{""participantId"":""0AC0102DDDCB46FD97BFAB8C9D3E01D7"",""assignmentId"":""42e9ddd5-a033-4b98-b938-993f7d5427a0"",""projectId"":""a0a8f18c-a66e-4ba7-a170-23efbdc67501""}","https://test12345.live/?participantId=0AC0102DDDCB46FD97BFAB8C9D3E01D7&assignmentId=42e9ddd5-a033-4b98-b938-993f7d5427a0&projectId=a0a8f18c-a66e-4ba7-a170-23efbdc67501","0AC0102DDDCB46FD97BFAB8C9D3E01D7-2024-11-24-18-42-52","","null","","[]","null","",""
"","","","","","image-button-response","37","187272","0.0-10.0-1.0-0.4","0AC0102DDDCB46FD97BFAB8C9D3E01D7","0AC0102DDDCB46FD97BFAB8C9D3E01D7","42e9ddd5-a033-4b98-b938-993f7d5427a0","a0a8f18c-a66e-4ba7-a170-23efbdc67501","{""participantId"":""0AC0102DDDCB46FD97BFAB8C9D3E01D7"",""assignmentId"":""42e9ddd5-a033-4b98-b938-993f7d5427a0"",""projectId"":""a0a8f18c-a66e-4ba7-a170-23efbdc67501""}","https://test12345.live/?participantId=0AC0102DDDCB46FD97BFAB8C9D3E01D7&assignmentId=42e9ddd5-a033-4b98-b938-993f7d5427a0&projectId=a0a8f18c-a66e-4ba7-a170-23efbdc67501","0AC0102DDDCB46FD97BFAB8C9D3E01D7-2024-11-24-18-42-52","","null","","images/causal_sequence/dog_causal/dog_causal_5.png","null","",""
"","","","","","image-button-response","38","187956","0.0-10.0-1.0-1.4","0AC0102DDDCB46FD97BFAB8C9D3E01D7","0AC0102DDDCB46FD97BFAB8C9D3E01D7","42e9ddd5-a033-4b98-b938-993f7d5427a0","a0a8f18c-a66e-4ba7-a170-23efbdc67501","{""participantId"":""0AC0102DDDCB46FD97BFAB8C9D3E01D7"",""assignmentId"":""42e9ddd5-a033-4b98-b938-993f7d5427a0"",""projectId"":""a0a8f18c-a66e-4ba7-a170-23efbdc67501""}","https://test12345.live/?participantId=0AC0102DDDCB46FD97BFAB8C9D3E01D7&assignmentId=42e9ddd5-a033-4b98-b938-993f7d5427a0&projectId=a0a8f18c-a66e-4ba7-a170-23efbdc67501","0AC0102DDDCB46FD97BFAB8C9D3E01D7-2024-11-24-18-42-52","","682","","images/causal_sequence/dog_causal/dog_causal_5.png","0","",""
"","","","","","image-button-response","39","189763","0.0-10.0-1.0-2.4","0AC0102DDDCB46FD97BFAB8C9D3E01D7","0AC0102DDDCB46FD97BFAB8C9D3E01D7","42e9ddd5-a033-4b98-b938-993f7d5427a0","a0a8f18c-a66e-4ba7-a170-23efbdc67501","{""participantId"":""0AC0102DDDCB46FD97BFAB8C9D3E01D7"",""assignmentId"":""42e9ddd5-a033-4b98-b938-993f7d5427a0"",""projectId"":""a0a8f18c-a66e-4ba7-a170-23efbdc67501""}","https://test12345.live/?participantId=0AC0102DDDCB46FD97BFAB8C9D3E01D7&assignmentId=42e9ddd5-a033-4b98-b938-993f7d5427a0&projectId=a0a8f18c-a66e-4ba7-a170-23efbdc67501","0AC0102DDDCB46FD97BFAB8C9D3E01D7-2024-11-24-18-42-52","","null","","[]","null","",""
"","","","","","image-button-response","40","194270","0.0-10.0-1.0-0.5","0AC0102DDDCB46FD97BFAB8C9D3E01D7","0AC0102DDDCB46FD97BFAB8C9D3E01D7","42e9ddd5-a033-4b98-b938-993f7d5427a0","a0a8f18c-a66e-4ba7-a170-23efbdc67501","{""participantId"":""0AC0102DDDCB46FD97BFAB8C9D3E01D7"",""assignmentId"":""42e9ddd5-a033-4b98-b938-993f7d5427a0"",""projectId"":""a0a8f18c-a66e-4ba7-a170-23efbdc67501""}","https://test12345.live/?participantId=0AC0102DDDCB46FD97BFAB8C9D3E01D7&assignmentId=42e9ddd5-a033-4b98-b938-993f7d5427a0&projectId=a0a8f18c-a66e-4ba7-a170-23efbdc67501","0AC0102DDDCB46FD97BFAB8C9D3E01D7-2024-11-24-18-42-52","","null","","images/causal_sequence/dog_causal/dog_causal_6.png","null","",""
"","","","","","image-button-response","41","195067","0.0-10.0-1.0-1.5","0AC0102DDDCB46FD97BFAB8C9D3E01D7","0AC0102DDDCB46FD97BFAB8C9D3E01D7","42e9ddd5-a033-4b98-b938-993f7d5427a0","a0a8f18c-a66e-4ba7-a170-23efbdc67501","{""participantId"":""0AC0102DDDCB46FD97BFAB8C9D3E01D7"",""assignmentId"":""42e9ddd5-a033-4b98-b938-993f7d5427a0"",""projectId"":""a0a8f18c-a66e-4ba7-a170-23efbdc67501""}","https://test12345.live/?participantId=0AC0102DDDCB46FD97BFAB8C9D3E01D7&assignmentId=42e9ddd5-a033-4b98-b938-993f7d5427a0&projectId=a0a8f18c-a66e-4ba7-a170-23efbdc67501","0AC0102DDDCB46FD97BFAB8C9D3E01D7-2024-11-24-18-42-52","","795","","images/causal_sequence/dog_causal/dog_causal_6.png","0","",""
"","","","","","image-button-response","42","196874","0.0-10.0-1.0-2.5","0AC0102DDDCB46FD97BFAB8C9D3E01D7","0AC0102DDDCB46FD97BFAB8C9D3E01D7","42e9ddd5-a033-4b98-b938-993f7d5427a0","a0a8f18c-a66e-4ba7-a170-23efbdc67501","{""participantId"":""0AC0102DDDCB46FD97BFAB8C9D3E01D7"",""assignmentId"":""42e9ddd5-a033-4b98-b938-993f7d5427a0"",""projectId"":""a0a8f18c-a66e-4ba7-a170-23efbdc67501""}","https://test12345.live/?participantId=0AC0102DDDCB46FD97BFAB8C9D3E01D7&assignmentId=42e9ddd5-a033-4b98-b938-993f7d5427a0&projectId=a0a8f18c-a66e-4ba7-a170-23efbdc67501","0AC0102DDDCB46FD97BFAB8C9D3E01D7-2024-11-24-18-42-52","","null","","[]","null","",""
"","","","","","image-button-response","43","201377","0.0-10.0-1.0-0.6","0AC0102DDDCB46FD97BFAB8C9D3E01D7","0AC0102DDDCB46FD97BFAB8C9D3E01D7","42e9ddd5-a033-4b98-b938-993f7d5427a0","a0a8f18c-a66e-4ba7-a170-23efbdc67501","{""participantId"":""0AC0102DDDCB46FD97BFAB8C9D3E01D7"",""assignmentId"":""42e9ddd5-a033-4b98-b938-993f7d5427a0"",""projectId"":""a0a8f18c-a66e-4ba7-a170-23efbdc67501""}","https://test12345.live/?participantId=0AC0102DDDCB46FD97BFAB8C9D3E01D7&assignmentId=42e9ddd5-a033-4b98-b938-993f7d5427a0&projectId=a0a8f18c-a66e-4ba7-a170-23efbdc67501","0AC0102DDDCB46FD97BFAB8C9D3E01D7-2024-11-24-18-42-52","","null","","images/causal_sequence/dog_causal/dog_causal_7.png","null","",""
"","","","","","image-button-response","44","201868","0.0-10.0-1.0-1.6","0AC0102DDDCB46FD97BFAB8C9D3E01D7","0AC0102DDDCB46FD97BFAB8C9D3E01D7","42e9ddd5-a033-4b98-b938-993f7d5427a0","a0a8f18c-a66e-4ba7-a170-23efbdc67501","{""participantId"":""0AC0102DDDCB46FD97BFAB8C9D3E01D7"",""assignmentId"":""42e9ddd5-a033-4b98-b938-993f7d5427a0"",""projectId"":""a0a8f18c-a66e-4ba7-a170-23efbdc67501""}","https://test12345.live/?participantId=0AC0102DDDCB46FD97BFAB8C9D3E01D7&assignmentId=42e9ddd5-a033-4b98-b938-993f7d5427a0&projectId=a0a8f18c-a66e-4ba7-a170-23efbdc67501","0AC0102DDDCB46FD97BFAB8C9D3E01D7-2024-11-24-18-42-52","","489","","images/causal_sequence/dog_causal/dog_causal_7.png","0","",""
"","","","","","image-button-response","45","203675","0.0-10.0-1.0-2.6","0AC0102DDDCB46FD97BFAB8C9D3E01D7","0AC0102DDDCB46FD97BFAB8C9D3E01D7","42e9ddd5-a033-4b98-b938-993f7d5427a0","a0a8f18c-a66e-4ba7-a170-23efbdc67501","{""participantId"":""0AC0102DDDCB46FD97BFAB8C9D3E01D7"",""assignmentId"":""42e9ddd5-a033-4b98-b938-993f7d5427a0"",""projectId"":""a0a8f18c-a66e-4ba7-a170-23efbdc67501""}","https://test12345.live/?participantId=0AC0102DDDCB46FD97BFAB8C9D3E01D7&assignmentId=42e9ddd5-a033-4b98-b938-993f7d5427a0&projectId=a0a8f18c-a66e-4ba7-a170-23efbdc67501","0AC0102DDDCB46FD97BFAB8C9D3E01D7-2024-11-24-18-42-52","","null","","[]","null","",""
"","","","","","image-button-response","46","208178","0.0-10.0-1.0-0.7","0AC0102DDDCB46FD97BFAB8C9D3E01D7","0AC0102DDDCB46FD97BFAB8C9D3E01D7","42e9ddd5-a033-4b98-b938-993f7d5427a0","a0a8f18c-a66e-4ba7-a170-23efbdc67501","{""participantId"":""0AC0102DDDCB46FD97BFAB8C9D3E01D7"",""assignmentId"":""42e9ddd5-a033-4b98-b938-993f7d5427a0"",""projectId"":""a0a8f18c-a66e-4ba7-a170-23efbdc67501""}","https://test12345.live/?participantId=0AC0102DDDCB46FD97BFAB8C9D3E01D7&assignmentId=42e9ddd5-a033-4b98-b938-993f7d5427a0&projectId=a0a8f18c-a66e-4ba7-a170-23efbdc67501","0AC0102DDDCB46FD97BFAB8C9D3E01D7-2024-11-24-18-42-52","","null","","images/causal_sequence/dog_causal/dog_causal_8.png","null","",""
"","","","","","image-button-response","47","208908","0.0-10.0-1.0-1.7","0AC0102DDDCB46FD97BFAB8C9D3E01D7","0AC0102DDDCB46FD97BFAB8C9D3E01D7","42e9ddd5-a033-4b98-b938-993f7d5427a0","a0a8f18c-a66e-4ba7-a170-23efbdc67501","{""participantId"":""0AC0102DDDCB46FD97BFAB8C9D3E01D7"",""assignmentId"":""42e9ddd5-a033-4b98-b938-993f7d5427a0"",""projectId"":""a0a8f18c-a66e-4ba7-a170-23efbdc67501""}","https://test12345.live/?participantId=0AC0102DDDCB46FD97BFAB8C9D3E01D7&assignmentId=42e9ddd5-a033-4b98-b938-993f7d5427a0&projectId=a0a8f18c-a66e-4ba7-a170-23efbdc67501","0AC0102DDDCB46FD97BFAB8C9D3E01D7-2024-11-24-18-42-52","","729","","images/causal_sequence/dog_causal/dog_causal_8.png","0","",""
"","","","","","image-button-response","48","210715","0.0-10.0-1.0-2.7","0AC0102DDDCB46FD97BFAB8C9D3E01D7","0AC0102DDDCB46FD97BFAB8C9D3E01D7","42e9ddd5-a033-4b98-b938-993f7d5427a0","a0a8f18c-a66e-4ba7-a170-23efbdc67501","{""participantId"":""0AC0102DDDCB46FD97BFAB8C9D3E01D7"",""assignmentId"":""42e9ddd5-a033-4b98-b938-993f7d5427a0"",""projectId"":""a0a8f18c-a66e-4ba7-a170-23efbdc67501""}","https://test12345.live/?participantId=0AC0102DDDCB46FD97BFAB8C9D3E01D7&assignmentId=42e9ddd5-a033-4b98-b938-993f7d5427a0&projectId=a0a8f18c-a66e-4ba7-a170-23efbdc67501","0AC0102DDDCB46FD97BFAB8C9D3E01D7-2024-11-24-18-42-52","","null","","[]","null","",""
"","","","","","image-button-response","49","215218","0.0-10.0-1.0-0.8","0AC0102DDDCB46FD97BFAB8C9D3E01D7","0AC0102DDDCB46FD97BFAB8C9D3E01D7","42e9ddd5-a033-4b98-b938-993f7d5427a0","a0a8f18c-a66e-4ba7-a170-23efbdc67501","{""participantId"":""0AC0102DDDCB46FD97BFAB8C9D3E01D7"",""assignmentId"":""42e9ddd5-a033-4b98-b938-993f7d5427a0"",""projectId"":""a0a8f18c-a66e-4ba7-a170-23efbdc67501""}","https://test12345.live/?participantId=0AC0102DDDCB46FD97BFAB8C9D3E01D7&assignmentId=42e9ddd5-a033-4b98-b938-993f7d5427a0&projectId=a0a8f18c-a66e-4ba7-a170-23efbdc67501","0AC0102DDDCB46FD97BFAB8C9D3E01D7-2024-11-24-18-42-52","","null","","images/causal_sequence/dog_causal/dog_causal_9.png","null","",""
"","","","","","image-button-response","50","215711","0.0-10.0-1.0-1.8","0AC0102DDDCB46FD97BFAB8C9D3E01D7","0AC0102DDDCB46FD97BFAB8C9D3E01D7","42e9ddd5-a033-4b98-b938-993f7d5427a0","a0a8f18c-a66e-4ba7-a170-23efbdc67501","{""participantId"":""0AC0102DDDCB46FD97BFAB8C9D3E01D7"",""assignmentId"":""42e9ddd5-a033-4b98-b938-993f7d5427a0"",""projectId"":""a0a8f18c-a66e-4ba7-a170-23efbdc67501""}","https://test12345.live/?participantId=0AC0102DDDCB46FD97BFAB8C9D3E01D7&assignmentId=42e9ddd5-a033-4b98-b938-993f7d5427a0&projectId=a0a8f18c-a66e-4ba7-a170-23efbdc67501","0AC0102DDDCB46FD97BFAB8C9D3E01D7-2024-11-24-18-42-52","","491","","images/causal_sequence/dog_causal/dog_causal_9.png","0","",""
"","","","","","image-button-response","51","217518","0.0-10.0-1.0-2.8","0AC0102DDDCB46FD97BFAB8C9D3E01D7","0AC0102DDDCB46FD97BFAB8C9D3E01D7","42e9ddd5-a033-4b98-b938-993f7d5427a0","a0a8f18c-a66e-4ba7-a170-23efbdc67501","{""participantId"":""0AC0102DDDCB46FD97BFAB8C9D3E01D7"",""assignmentId"":""42e9ddd5-a033-4b98-b938-993f7d5427a0"",""projectId"":""a0a8f18c-a66e-4ba7-a170-23efbdc67501""}","https://test12345.live/?participantId=0AC0102DDDCB46FD97BFAB8C9D3E01D7&assignmentId=42e9ddd5-a033-4b98-b938-993f7d5427a0&projectId=a0a8f18c-a66e-4ba7-a170-23efbdc67501","0AC0102DDDCB46FD97BFAB8C9D3E01D7-2024-11-24-18-42-52","","null","","[]","null","",""
"","","","","","image-button-response","52","222025","0.0-10.0-1.0-0.9","0AC0102DDDCB46FD97BFAB8C9D3E01D7","0AC0102DDDCB46FD97BFAB8C9D3E01D7","42e9ddd5-a033-4b98-b938-993f7d5427a0","a0a8f18c-a66e-4ba7-a170-23efbdc67501","{""participantId"":""0AC0102DDDCB46FD97BFAB8C9D3E01D7"",""assignmentId"":""42e9ddd5-a033-4b98-b938-993f7d5427a0"",""projectId"":""a0a8f18c-a66e-4ba7-a170-23efbdc67501""}","https://test12345.live/?participantId=0AC0102DDDCB46FD97BFAB8C9D3E01D7&assignmentId=42e9ddd5-a033-4b98-b938-993f7d5427a0&projectId=a0a8f18c-a66e-4ba7-a170-23efbdc67501","0AC0102DDDCB46FD97BFAB8C9D3E01D7-2024-11-24-18-42-52","","null","","images/causal_sequence/dog_causal/dog_causal_ten.png","null","",""
"","","","","","image-button-response","53","222761","0.0-10.0-1.0-1.9","0AC0102DDDCB46FD97BFAB8C9D3E01D7","0AC0102DDDCB46FD97BFAB8C9D3E01D7","42e9ddd5-a033-4b98-b938-993f7d5427a0","a0a8f18c-a66e-4ba7-a170-23efbdc67501","{""participantId"":""0AC0102DDDCB46FD97BFAB8C9D3E01D7"",""assignmentId"":""42e9ddd5-a033-4b98-b938-993f7d5427a0"",""projectId"":""a0a8f18c-a66e-4ba7-a170-23efbdc67501""}","https://test12345.live/?participantId=0AC0102DDDCB46FD97BFAB8C9D3E01D7&assignmentId=42e9ddd5-a033-4b98-b938-993f7d5427a0&projectId=a0a8f18c-a66e-4ba7-a170-23efbdc67501","0AC0102DDDCB46FD97BFAB8C9D3E01D7-2024-11-24-18-42-52","","734","","images/causal_sequence/dog_causal/dog_causal_ten.png","0","",""
"","","","","","image-button-response","54","224568","0.0-10.0-1.0-2.9","0AC0102DDDCB46FD97BFAB8C9D3E01D7","0AC0102DDDCB46FD97BFAB8C9D3E01D7","42e9ddd5-a033-4b98-b938-993f7d5427a0","a0a8f18c-a66e-4ba7-a170-23efbdc67501","{""participantId"":""0AC0102DDDCB46FD97BFAB8C9D3E01D7"",""assignmentId"":""42e9ddd5-a033-4b98-b938-993f7d5427a0"",""projectId"":""a0a8f18c-a66e-4ba7-a170-23efbdc67501""}","https://test12345.live/?participantId=0AC0102DDDCB46FD97BFAB8C9D3E01D7&assignmentId=42e9ddd5-a033-4b98-b938-993f7d5427a0&projectId=a0a8f18c-a66e-4ba7-a170-23efbdc67501","0AC0102DDDCB46FD97BFAB8C9D3E01D7-2024-11-24-18-42-52","","null","","[]","null","",""
"","","","","","html-audio-response","55","270630","0.0-11.0","0AC0102DDDCB46FD97BFAB8C9D3E01D7","0AC0102DDDCB46FD97BFAB8C9D3E01D7","42e9ddd5-a033-4b98-b938-993f7d5427a0","a0a8f18c-a66e-4ba7-a170-23efbdc67501","{""participantId"":""0AC0102DDDCB46FD97BFAB8C9D3E01D7"",""assignmentId"":""42e9ddd5-a033-4b98-b938-993f7d5427a0"",""projectId"":""a0a8f18c-a66e-4ba7-a170-23efbdc67501""}","https://test12345.live/?participantId=0AC0102DDDCB46FD97BFAB8C9D3E01D7&assignmentId=42e9ddd5-a033-4b98-b938-993f7d5427a0&projectId=a0a8f18c-a66e-4ba7-a170-23efbdc67501","0AC0102DDDCB46FD97BFAB8C9D3E01D7-2024-11-24-18-42-52","","36035","","[""<span style=\""color: red; font-size: 24px\""> NOW RECORDING</span><p>Please say out loud all the images you saw, as many as you can remember. The images can be said in any order.</p>""]","","7","dog_causal"
"","","","","","image-button-response","56","276641","0.0-12.0-0.0","0AC0102DDDCB46FD97BFAB8C9D3E01D7","0AC0102DDDCB46FD97BFAB8C9D3E01D7","42e9ddd5-a033-4b98-b938-993f7d5427a0","a0a8f18c-a66e-4ba7-a170-23efbdc67501","{""participantId"":""0AC0102DDDCB46FD97BFAB8C9D3E01D7"",""assignmentId"":""42e9ddd5-a033-4b98-b938-993f7d5427a0"",""projectId"":""a0a8f18c-a66e-4ba7-a170-23efbdc67501""}","https://test12345.live/?participantId=0AC0102DDDCB46FD97BFAB8C9D3E01D7&assignmentId=42e9ddd5-a033-4b98-b938-993f7d5427a0&projectId=a0a8f18c-a66e-4ba7-a170-23efbdc67501","0AC0102DDDCB46FD97BFAB8C9D3E01D7-2024-11-24-18-42-52","","null","","images/causal_sequence/museum_causal/museum_causal_0.png","null","",""
"","","","","","image-button-response","57","281149","0.0-12.0-1.0-0.0","0AC0102DDDCB46FD97BFAB8C9D3E01D7","0AC0102DDDCB46FD97BFAB8C9D3E01D7","42e9ddd5-a033-4b98-b938-993f7d5427a0","a0a8f18c-a66e-4ba7-a170-23efbdc67501","{""participantId"":""0AC0102DDDCB46FD97BFAB8C9D3E01D7"",""assignmentId"":""42e9ddd5-a033-4b98-b938-993f7d5427a0"",""projectId"":""a0a8f18c-a66e-4ba7-a170-23efbdc67501""}","https://test12345.live/?participantId=0AC0102DDDCB46FD97BFAB8C9D3E01D7&assignmentId=42e9ddd5-a033-4b98-b938-993f7d5427a0&projectId=a0a8f18c-a66e-4ba7-a170-23efbdc67501","0AC0102DDDCB46FD97BFAB8C9D3E01D7-2024-11-24-18-42-52","","null","","images/causal_sequence/museum_causal/museum_causal_5.png","null","",""
"","","","","","image-button-response","58","282082","0.0-12.0-1.0-1.0","0AC0102DDDCB46FD97BFAB8C9D3E01D7","0AC0102DDDCB46FD97BFAB8C9D3E01D7","42e9ddd5-a033-4b98-b938-993f7d5427a0","a0a8f18c-a66e-4ba7-a170-23efbdc67501","{""participantId"":""0AC0102DDDCB46FD97BFAB8C9D3E01D7"",""assignmentId"":""42e9ddd5-a033-4b98-b938-993f7d5427a0"",""projectId"":""a0a8f18c-a66e-4ba7-a170-23efbdc67501""}","https://test12345.live/?participantId=0AC0102DDDCB46FD97BFAB8C9D3E01D7&assignmentId=42e9ddd5-a033-4b98-b938-993f7d5427a0&projectId=a0a8f18c-a66e-4ba7-a170-23efbdc67501","0AC0102DDDCB46FD97BFAB8C9D3E01D7-2024-11-24-18-42-52","","932","","images/causal_sequence/museum_causal/museum_causal_5.png","0","",""
"","","","","","image-button-response","59","283886","0.0-12.0-1.0-2.0","0AC0102DDDCB46FD97BFAB8C9D3E01D7","0AC0102DDDCB46FD97BFAB8C9D3E01D7","42e9ddd5-a033-4b98-b938-993f7d5427a0","a0a8f18c-a66e-4ba7-a170-23efbdc67501","{""participantId"":""0AC0102DDDCB46FD97BFAB8C9D3E01D7"",""assignmentId"":""42e9ddd5-a033-4b98-b938-993f7d5427a0"",""projectId"":""a0a8f18c-a66e-4ba7-a170-23efbdc67501""}","https://test12345.live/?participantId=0AC0102DDDCB46FD97BFAB8C9D3E01D7&assignmentId=42e9ddd5-a033-4b98-b938-993f7d5427a0&projectId=a0a8f18c-a66e-4ba7-a170-23efbdc67501","0AC0102DDDCB46FD97BFAB8C9D3E01D7-2024-11-24-18-42-52","","null","","[]","null","",""
"","","","","","image-button-response","60","288392","0.0-12.0-1.0-0.1","0AC0102DDDCB46FD97BFAB8C9D3E01D7","0AC0102DDDCB46FD97BFAB8C9D3E01D7","42e9ddd5-a033-4b98-b938-993f7d5427a0","a0a8f18c-a66e-4ba7-a170-23efbdc67501","{""participantId"":""0AC0102DDDCB46FD97BFAB8C9D3E01D7"",""assignmentId"":""42e9ddd5-a033-4b98-b938-993f7d5427a0"",""projectId"":""a0a8f18c-a66e-4ba7-a170-23efbdc67501""}","https://test12345.live/?participantId=0AC0102DDDCB46FD97BFAB8C9D3E01D7&assignmentId=42e9ddd5-a033-4b98-b938-993f7d5427a0&projectId=a0a8f18c-a66e-4ba7-a170-23efbdc67501","0AC0102DDDCB46FD97BFAB8C9D3E01D7-2024-11-24-18-42-52","","null","","images/causal_sequence/museum_causal/museum_causal_3.png","null","",""
"","","","","","image-button-response","61","289096","0.0-12.0-1.0-1.1","0AC0102DDDCB46FD97BFAB8C9D3E01D7","0AC0102DDDCB46FD97BFAB8C9D3E01D7","42e9ddd5-a033-4b98-b938-993f7d5427a0","a0a8f18c-a66e-4ba7-a170-23efbdc67501","{""participantId"":""0AC0102DDDCB46FD97BFAB8C9D3E01D7"",""assignmentId"":""42e9ddd5-a033-4b98-b938-993f7d5427a0"",""projectId"":""a0a8f18c-a66e-4ba7-a170-23efbdc67501""}","https://test12345.live/?participantId=0AC0102DDDCB46FD97BFAB8C9D3E01D7&assignmentId=42e9ddd5-a033-4b98-b938-993f7d5427a0&projectId=a0a8f18c-a66e-4ba7-a170-23efbdc67501","0AC0102DDDCB46FD97BFAB8C9D3E01D7-2024-11-24-18-42-52","","701","","images/causal_sequence/museum_causal/museum_causal_3.png","0","",""
"","","","","","image-button-response","62","290902","0.0-12.0-1.0-2.1","0AC0102DDDCB46FD97BFAB8C9D3E01D7","0AC0102DDDCB46FD97BFAB8C9D3E01D7","42e9ddd5-a033-4b98-b938-993f7d5427a0","a0a8f18c-a66e-4ba7-a170-23efbdc67501","{""participantId"":""0AC0102DDDCB46FD97BFAB8C9D3E01D7"",""assignmentId"":""42e9ddd5-a033-4b98-b938-993f7d5427a0"",""projectId"":""a0a8f18c-a66e-4ba7-a170-23efbdc67501""}","https://test12345.live/?participantId=0AC0102DDDCB46FD97BFAB8C9D3E01D7&assignmentId=42e9ddd5-a033-4b98-b938-993f7d5427a0&projectId=a0a8f18c-a66e-4ba7-a170-23efbdc67501","0AC0102DDDCB46FD97BFAB8C9D3E01D7-2024-11-24-18-42-52","","null","","[]","null","",""
"","","","","","image-button-response","63","295406","0.0-12.0-1.0-0.2","0AC0102DDDCB46FD97BFAB8C9D3E01D7","0AC0102DDDCB46FD97BFAB8C9D3E01D7","42e9ddd5-a033-4b98-b938-993f7d5427a0","a0a8f18c-a66e-4ba7-a170-23efbdc67501","{""participantId"":""0AC0102DDDCB46FD97BFAB8C9D3E01D7"",""assignmentId"":""42e9ddd5-a033-4b98-b938-993f7d5427a0"",""projectId"":""a0a8f18c-a66e-4ba7-a170-23efbdc67501""}","https://test12345.live/?participantId=0AC0102DDDCB46FD97BFAB8C9D3E01D7&assignmentId=42e9ddd5-a033-4b98-b938-993f7d5427a0&projectId=a0a8f18c-a66e-4ba7-a170-23efbdc67501","0AC0102DDDCB46FD97BFAB8C9D3E01D7-2024-11-24-18-42-52","","null","","images/causal_sequence/museum_causal/museum_causal_2.png","null","",""
"","","","","","image-button-response","64","298095","0.0-12.0-1.0-1.2","0AC0102DDDCB46FD97BFAB8C9D3E01D7","0AC0102DDDCB46FD97BFAB8C9D3E01D7","42e9ddd5-a033-4b98-b938-993f7d5427a0","a0a8f18c-a66e-4ba7-a170-23efbdc67501","{""participantId"":""0AC0102DDDCB46FD97BFAB8C9D3E01D7"",""assignmentId"":""42e9ddd5-a033-4b98-b938-993f7d5427a0"",""projectId"":""a0a8f18c-a66e-4ba7-a170-23efbdc67501""}","https://test12345.live/?participantId=0AC0102DDDCB46FD97BFAB8C9D3E01D7&assignmentId=42e9ddd5-a033-4b98-b938-993f7d5427a0&projectId=a0a8f18c-a66e-4ba7-a170-23efbdc67501","0AC0102DDDCB46FD97BFAB8C9D3E01D7-2024-11-24-18-42-52","","2687","","images/causal_sequence/museum_causal/museum_causal_2.png","0","",""
"","","","","","image-button-response","65","299901","0.0-12.0-1.0-2.2","0AC0102DDDCB46FD97BFAB8C9D3E01D7","0AC0102DDDCB46FD97BFAB8C9D3E01D7","42e9ddd5-a033-4b98-b938-993f7d5427a0","a0a8f18c-a66e-4ba7-a170-23efbdc67501","{""participantId"":""0AC0102DDDCB46FD97BFAB8C9D3E01D7"",""assignmentId"":""42e9ddd5-a033-4b98-b938-993f7d5427a0"",""projectId"":""a0a8f18c-a66e-4ba7-a170-23efbdc67501""}","https://test12345.live/?participantId=0AC0102DDDCB46FD97BFAB8C9D3E01D7&assignmentId=42e9ddd5-a033-4b98-b938-993f7d5427a0&projectId=a0a8f18c-a66e-4ba7-a170-23efbdc67501","0AC0102DDDCB46FD97BFAB8C9D3E01D7-2024-11-24-18-42-52","","null","","[]","null","",""
"","","","","","image-button-response","66","304405","0.0-12.0-1.0-0.3","0AC0102DDDCB46FD97BFAB8C9D3E01D7","0AC0102DDDCB46FD97BFAB8C9D3E01D7","42e9ddd5-a033-4b98-b938-993f7d5427a0","a0a8f18c-a66e-4ba7-a170-23efbdc67501","{""participantId"":""0AC0102DDDCB46FD97BFAB8C9D3E01D7"",""assignmentId"":""42e9ddd5-a033-4b98-b938-993f7d5427a0"",""projectId"":""a0a8f18c-a66e-4ba7-a170-23efbdc67501""}","https://test12345.live/?participantId=0AC0102DDDCB46FD97BFAB8C9D3E01D7&assignmentId=42e9ddd5-a033-4b98-b938-993f7d5427a0&projectId=a0a8f18c-a66e-4ba7-a170-23efbdc67501","0AC0102DDDCB46FD97BFAB8C9D3E01D7-2024-11-24-18-42-52","","null","","images/causal_sequence/museum_causal/museum_causal_6.png","null","",""
"","","","","","image-button-response","67","305138","0.0-12.0-1.0-1.3","0AC0102DDDCB46FD97BFAB8C9D3E01D7","0AC0102DDDCB46FD97BFAB8C9D3E01D7","42e9ddd5-a033-4b98-b938-993f7d5427a0","a0a8f18c-a66e-4ba7-a170-23efbdc67501","{""participantId"":""0AC0102DDDCB46FD97BFAB8C9D3E01D7"",""assignmentId"":""42e9ddd5-a033-4b98-b938-993f7d5427a0"",""projectId"":""a0a8f18c-a66e-4ba7-a170-23efbdc67501""}","https://test12345.live/?participantId=0AC0102DDDCB46FD97BFAB8C9D3E01D7&assignmentId=42e9ddd5-a033-4b98-b938-993f7d5427a0&projectId=a0a8f18c-a66e-4ba7-a170-23efbdc67501","0AC0102DDDCB46FD97BFAB8C9D3E01D7-2024-11-24-18-42-52","","731","","images/causal_sequence/museum_causal/museum_causal_6.png","0","",""
"","","","","","image-button-response","68","306945","0.0-12.0-1.0-2.3","0AC0102DDDCB46FD97BFAB8C9D3E01D7","0AC0102DDDCB46FD97BFAB8C9D3E01D7","42e9ddd5-a033-4b98-b938-993f7d5427a0","a0a8f18c-a66e-4ba7-a170-23efbdc67501","{""participantId"":""0AC0102DDDCB46FD97BFAB8C9D3E01D7"",""assignmentId"":""42e9ddd5-a033-4b98-b938-993f7d5427a0"",""projectId"":""a0a8f18c-a66e-4ba7-a170-23efbdc67501""}","https://test12345.live/?participantId=0AC0102DDDCB46FD97BFAB8C9D3E01D7&assignmentId=42e9ddd5-a033-4b98-b938-993f7d5427a0&projectId=a0a8f18c-a66e-4ba7-a170-23efbdc67501","0AC0102DDDCB46FD97BFAB8C9D3E01D7-2024-11-24-18-42-52","","null","","[]","null","",""
"","","","","","image-button-response","69","311449","0.0-12.0-1.0-0.4","0AC0102DDDCB46FD97BFAB8C9D3E01D7","0AC0102DDDCB46FD97BFAB8C9D3E01D7","42e9ddd5-a033-4b98-b938-993f7d5427a0","a0a8f18c-a66e-4ba7-a170-23efbdc67501","{""participantId"":""0AC0102DDDCB46FD97BFAB8C9D3E01D7"",""assignmentId"":""42e9ddd5-a033-4b98-b938-993f7d5427a0"",""projectId"":""a0a8f18c-a66e-4ba7-a170-23efbdc67501""}","https://test12345.live/?participantId=0AC0102DDDCB46FD97BFAB8C9D3E01D7&assignmentId=42e9ddd5-a033-4b98-b938-993f7d5427a0&projectId=a0a8f18c-a66e-4ba7-a170-23efbdc67501","0AC0102DDDCB46FD97BFAB8C9D3E01D7-2024-11-24-18-42-52","","null","","images/causal_sequence/museum_causal/museum_causal_4.png","null","",""
"","","","","","image-button-response","70","312023","0.0-12.0-1.0-1.4","0AC0102DDDCB46FD97BFAB8C9D3E01D7","0AC0102DDDCB46FD97BFAB8C9D3E01D7","42e9ddd5-a033-4b98-b938-993f7d5427a0","a0a8f18c-a66e-4ba7-a170-23efbdc67501","{""participantId"":""0AC0102DDDCB46FD97BFAB8C9D3E01D7"",""assignmentId"":""42e9ddd5-a033-4b98-b938-993f7d5427a0"",""projectId"":""a0a8f18c-a66e-4ba7-a170-23efbdc67501""}","https://test12345.live/?participantId=0AC0102DDDCB46FD97BFAB8C9D3E01D7&assignmentId=42e9ddd5-a033-4b98-b938-993f7d5427a0&projectId=a0a8f18c-a66e-4ba7-a170-23efbdc67501","0AC0102DDDCB46FD97BFAB8C9D3E01D7-2024-11-24-18-42-52","","571","","images/causal_sequence/museum_causal/museum_causal_4.png","1","",""
"","","","","","image-button-response","71","313829","0.0-12.0-1.0-2.4","0AC0102DDDCB46FD97BFAB8C9D3E01D7","0AC0102DDDCB46FD97BFAB8C9D3E01D7","42e9ddd5-a033-4b98-b938-993f7d5427a0","a0a8f18c-a66e-4ba7-a170-23efbdc67501","{""participantId"":""0AC0102DDDCB46FD97BFAB8C9D3E01D7"",""assignmentId"":""42e9ddd5-a033-4b98-b938-993f7d5427a0"",""projectId"":""a0a8f18c-a66e-4ba7-a170-23efbdc67501""}","https://test12345.live/?participantId=0AC0102DDDCB46FD97BFAB8C9D3E01D7&assignmentId=42e9ddd5-a033-4b98-b938-993f7d5427a0&projectId=a0a8f18c-a66e-4ba7-a170-23efbdc67501","0AC0102DDDCB46FD97BFAB8C9D3E01D7-2024-11-24-18-42-52","","null","","[]","null","",""
"","","","","","image-button-response","72","318333","0.0-12.0-1.0-0.5","0AC0102DDDCB46FD97BFAB8C9D3E01D7","0AC0102DDDCB46FD97BFAB8C9D3E01D7","42e9ddd5-a033-4b98-b938-993f7d5427a0","a0a8f18c-a66e-4ba7-a170-23efbdc67501","{""participantId"":""0AC0102DDDCB46FD97BFAB8C9D3E01D7"",""assignmentId"":""42e9ddd5-a033-4b98-b938-993f7d5427a0"",""projectId"":""a0a8f18c-a66e-4ba7-a170-23efbdc67501""}","https://test12345.live/?participantId=0AC0102DDDCB46FD97BFAB8C9D3E01D7&assignmentId=42e9ddd5-a033-4b98-b938-993f7d5427a0&projectId=a0a8f18c-a66e-4ba7-a170-23efbdc67501","0AC0102DDDCB46FD97BFAB8C9D3E01D7-2024-11-24-18-42-52","","null","","images/causal_sequence/museum_causal/museum_causal_8.png","null","",""
"","","","","","image-button-response","73","319034","0.0-12.0-1.0-1.5","0AC0102DDDCB46FD97BFAB8C9D3E01D7","0AC0102DDDCB46FD97BFAB8C9D3E01D7","42e9ddd5-a033-4b98-b938-993f7d5427a0","a0a8f18c-a66e-4ba7-a170-23efbdc67501","{""participantId"":""0AC0102DDDCB46FD97BFAB8C9D3E01D7"",""assignmentId"":""42e9ddd5-a033-4b98-b938-993f7d5427a0"",""projectId"":""a0a8f18c-a66e-4ba7-a170-23efbdc67501""}","https://test12345.live/?participantId=0AC0102DDDCB46FD97BFAB8C9D3E01D7&assignmentId=42e9ddd5-a033-4b98-b938-993f7d5427a0&projectId=a0a8f18c-a66e-4ba7-a170-23efbdc67501","0AC0102DDDCB46FD97BFAB8C9D3E01D7-2024-11-24-18-42-52","","700","","images/causal_sequence/museum_causal/museum_causal_8.png","0","",""
"","","","","","image-button-response","74","320842","0.0-12.0-1.0-2.5","0AC0102DDDCB46FD97BFAB8C9D3E01D7","0AC0102DDDCB46FD97BFAB8C9D3E01D7","42e9ddd5-a033-4b98-b938-993f7d5427a0","a0a8f18c-a66e-4ba7-a170-23efbdc67501","{""participantId"":""0AC0102DDDCB46FD97BFAB8C9D3E01D7"",""assignmentId"":""42e9ddd5-a033-4b98-b938-993f7d5427a0"",""projectId"":""a0a8f18c-a66e-4ba7-a170-23efbdc67501""}","https://test12345.live/?participantId=0AC0102DDDCB46FD97BFAB8C9D3E01D7&assignmentId=42e9ddd5-a033-4b98-b938-993f7d5427a0&projectId=a0a8f18c-a66e-4ba7-a170-23efbdc67501","0AC0102DDDCB46FD97BFAB8C9D3E01D7-2024-11-24-18-42-52","","null","","[]","null","",""
"","","","","","image-button-response","75","325348","0.0-12.0-1.0-0.6","0AC0102DDDCB46FD97BFAB8C9D3E01D7","0AC0102DDDCB46FD97BFAB8C9D3E01D7","42e9ddd5-a033-4b98-b938-993f7d5427a0","a0a8f18c-a66e-4ba7-a170-23efbdc67501","{""participantId"":""0AC0102DDDCB46FD97BFAB8C9D3E01D7"",""assignmentId"":""42e9ddd5-a033-4b98-b938-993f7d5427a0"",""projectId"":""a0a8f18c-a66e-4ba7-a170-23efbdc67501""}","https://test12345.live/?participantId=0AC0102DDDCB46FD97BFAB8C9D3E01D7&assignmentId=42e9ddd5-a033-4b98-b938-993f7d5427a0&projectId=a0a8f18c-a66e-4ba7-a170-23efbdc67501","0AC0102DDDCB46FD97BFAB8C9D3E01D7-2024-11-24-18-42-52","","null","","images/causal_sequence/museum_causal/museum_causal_1.png","null","",""
"","","","","","image-button-response","76","325952","0.0-12.0-1.0-1.6","0AC0102DDDCB46FD97BFAB8C9D3E01D7","0AC0102DDDCB46FD97BFAB8C9D3E01D7","42e9ddd5-a033-4b98-b938-993f7d5427a0","a0a8f18c-a66e-4ba7-a170-23efbdc67501","{""participantId"":""0AC0102DDDCB46FD97BFAB8C9D3E01D7"",""assignmentId"":""42e9ddd5-a033-4b98-b938-993f7d5427a0"",""projectId"":""a0a8f18c-a66e-4ba7-a170-23efbdc67501""}","https://test12345.live/?participantId=0AC0102DDDCB46FD97BFAB8C9D3E01D7&assignmentId=42e9ddd5-a033-4b98-b938-993f7d5427a0&projectId=a0a8f18c-a66e-4ba7-a170-23efbdc67501","0AC0102DDDCB46FD97BFAB8C9D3E01D7-2024-11-24-18-42-52","","601","","images/causal_sequence/museum_causal/museum_causal_1.png","0","",""
"","","","","","image-button-response","77","327759","0.0-12.0-1.0-2.6","0AC0102DDDCB46FD97BFAB8C9D3E01D7","0AC0102DDDCB46FD97BFAB8C9D3E01D7","42e9ddd5-a033-4b98-b938-993f7d5427a0","a0a8f18c-a66e-4ba7-a170-23efbdc67501","{""participantId"":""0AC0102DDDCB46FD97BFAB8C9D3E01D7"",""assignmentId"":""42e9ddd5-a033-4b98-b938-993f7d5427a0"",""projectId"":""a0a8f18c-a66e-4ba7-a170-23efbdc67501""}","https://test12345.live/?participantId=0AC0102DDDCB46FD97BFAB8C9D3E01D7&assignmentId=42e9ddd5-a033-4b98-b938-993f7d5427a0&projectId=a0a8f18c-a66e-4ba7-a170-23efbdc67501","0AC0102DDDCB46FD97BFAB8C9D3E01D7-2024-11-24-18-42-52","","null","","[]","null","",""
"","","","","","image-button-response","78","332266","0.0-12.0-1.0-0.7","0AC0102DDDCB46FD97BFAB8C9D3E01D7","0AC0102DDDCB46FD97BFAB8C9D3E01D7","42e9ddd5-a033-4b98-b938-993f7d5427a0","a0a8f18c-a66e-4ba7-a170-23efbdc67501","{""participantId"":""0AC0102DDDCB46FD97BFAB8C9D3E01D7"",""assignmentId"":""42e9ddd5-a033-4b98-b938-993f7d5427a0"",""projectId"":""a0a8f18c-a66e-4ba7-a170-23efbdc67501""}","https://test12345.live/?participantId=0AC0102DDDCB46FD97BFAB8C9D3E01D7&assignmentId=42e9ddd5-a033-4b98-b938-993f7d5427a0&projectId=a0a8f18c-a66e-4ba7-a170-23efbdc67501","0AC0102DDDCB46FD97BFAB8C9D3E01D7-2024-11-24-18-42-52","","null","","images/causal_sequence/museum_causal/museum_causal_9.png","null","",""
"","","","","","image-button-response","79","332851","0.0-12.0-1.0-1.7","0AC0102DDDCB46FD97BFAB8C9D3E01D7","0AC0102DDDCB46FD97BFAB8C9D3E01D7","42e9ddd5-a033-4b98-b938-993f7d5427a0","a0a8f18c-a66e-4ba7-a170-23efbdc67501","{""participantId"":""0AC0102DDDCB46FD97BFAB8C9D3E01D7"",""assignmentId"":""42e9ddd5-a033-4b98-b938-993f7d5427a0"",""projectId"":""a0a8f18c-a66e-4ba7-a170-23efbdc67501""}","https://test12345.live/?participantId=0AC0102DDDCB46FD97BFAB8C9D3E01D7&assignmentId=42e9ddd5-a033-4b98-b938-993f7d5427a0&projectId=a0a8f18c-a66e-4ba7-a170-23efbdc67501","0AC0102DDDCB46FD97BFAB8C9D3E01D7-2024-11-24-18-42-52","","583","","images/causal_sequence/museum_causal/museum_causal_9.png","1","",""
"","","","","","image-button-response","80","334658","0.0-12.0-1.0-2.7","0AC0102DDDCB46FD97BFAB8C9D3E01D7","0AC0102DDDCB46FD97BFAB8C9D3E01D7","42e9ddd5-a033-4b98-b938-993f7d5427a0","a0a8f18c-a66e-4ba7-a170-23efbdc67501","{""participantId"":""0AC0102DDDCB46FD97BFAB8C9D3E01D7"",""assignmentId"":""42e9ddd5-a033-4b98-b938-993f7d5427a0"",""projectId"":""a0a8f18c-a66e-4ba7-a170-23efbdc67501""}","https://test12345.live/?participantId=0AC0102DDDCB46FD97BFAB8C9D3E01D7&assignmentId=42e9ddd5-a033-4b98-b938-993f7d5427a0&projectId=a0a8f18c-a66e-4ba7-a170-23efbdc67501","0AC0102DDDCB46FD97BFAB8C9D3E01D7-2024-11-24-18-42-52","","null","","[]","null","",""
"","","","","","image-button-response","81","339166","0.0-12.0-1.0-0.8","0AC0102DDDCB46FD97BFAB8C9D3E01D7","0AC0102DDDCB46FD97BFAB8C9D3E01D7","42e9ddd5-a033-4b98-b938-993f7d5427a0","a0a8f18c-a66e-4ba7-a170-23efbdc67501","{""participantId"":""0AC0102DDDCB46FD97BFAB8C9D3E01D7"",""assignmentId"":""42e9ddd5-a033-4b98-b938-993f7d5427a0"",""projectId"":""a0a8f18c-a66e-4ba7-a170-23efbdc67501""}","https://test12345.live/?participantId=0AC0102DDDCB46FD97BFAB8C9D3E01D7&assignmentId=42e9ddd5-a033-4b98-b938-993f7d5427a0&projectId=a0a8f18c-a66e-4ba7-a170-23efbdc67501","0AC0102DDDCB46FD97BFAB8C9D3E01D7-2024-11-24-18-42-52","","null","","images/causal_sequence/museum_causal/museum_causal_7.png","null","",""
"","","","","","image-button-response","82","339718","0.0-12.0-1.0-1.8","0AC0102DDDCB46FD97BFAB8C9D3E01D7","0AC0102DDDCB46FD97BFAB8C9D3E01D7","42e9ddd5-a033-4b98-b938-993f7d5427a0","a0a8f18c-a66e-4ba7-a170-23efbdc67501","{""participantId"":""0AC0102DDDCB46FD97BFAB8C9D3E01D7"",""assignmentId"":""42e9ddd5-a033-4b98-b938-993f7d5427a0"",""projectId"":""a0a8f18c-a66e-4ba7-a170-23efbdc67501""}","https://test12345.live/?participantId=0AC0102DDDCB46FD97BFAB8C9D3E01D7&assignmentId=42e9ddd5-a033-4b98-b938-993f7d5427a0&projectId=a0a8f18c-a66e-4ba7-a170-23efbdc67501","0AC0102DDDCB46FD97BFAB8C9D3E01D7-2024-11-24-18-42-52","","550","","images/causal_sequence/museum_causal/museum_causal_7.png","1","",""
"","","","","","image-button-response","83","341525","0.0-12.0-1.0-2.8","0AC0102DDDCB46FD97BFAB8C9D3E01D7","0AC0102DDDCB46FD97BFAB8C9D3E01D7","42e9ddd5-a033-4b98-b938-993f7d5427a0","a0a8f18c-a66e-4ba7-a170-23efbdc67501","{""participantId"":""0AC0102DDDCB46FD97BFAB8C9D3E01D7"",""assignmentId"":""42e9ddd5-a033-4b98-b938-993f7d5427a0"",""projectId"":""a0a8f18c-a66e-4ba7-a170-23efbdc67501""}","https://test12345.live/?participantId=0AC0102DDDCB46FD97BFAB8C9D3E01D7&assignmentId=42e9ddd5-a033-4b98-b938-993f7d5427a0&projectId=a0a8f18c-a66e-4ba7-a170-23efbdc67501","0AC0102DDDCB46FD97BFAB8C9D3E01D7-2024-11-24-18-42-52","","null","","[]","null","",""
"","","","","","image-button-response","84","346030","0.0-12.0-1.0-0.9","0AC0102DDDCB46FD97BFAB8C9D3E01D7","0AC0102DDDCB46FD97BFAB8C9D3E01D7","42e9ddd5-a033-4b98-b938-993f7d5427a0","a0a8f18c-a66e-4ba7-a170-23efbdc67501","{""participantId"":""0AC0102DDDCB46FD97BFAB8C9D3E01D7"",""assignmentId"":""42e9ddd5-a033-4b98-b938-993f7d5427a0"",""projectId"":""a0a8f18c-a66e-4ba7-a170-23efbdc67501""}","https://test12345.live/?participantId=0AC0102DDDCB46FD97BFAB8C9D3E01D7&assignmentId=42e9ddd5-a033-4b98-b938-993f7d5427a0&projectId=a0a8f18c-a66e-4ba7-a170-23efbdc67501","0AC0102DDDCB46FD97BFAB8C9D3E01D7-2024-11-24-18-42-52","","null","","images/causal_sequence/museum_causal/museum_causal_ten.png","null","",""
"","","","","","image-button-response","85","346948","0.0-12.0-1.0-1.9","0AC0102DDDCB46FD97BFAB8C9D3E01D7","0AC0102DDDCB46FD97BFAB8C9D3E01D7","42e9ddd5-a033-4b98-b938-993f7d5427a0","a0a8f18c-a66e-4ba7-a170-23efbdc67501","{""participantId"":""0AC0102DDDCB46FD97BFAB8C9D3E01D7"",""assignmentId"":""42e9ddd5-a033-4b98-b938-993f7d5427a0"",""projectId"":""a0a8f18c-a66e-4ba7-a170-23efbdc67501""}","https://test12345.live/?participantId=0AC0102DDDCB46FD97BFAB8C9D3E01D7&assignmentId=42e9ddd5-a033-4b98-b938-993f7d5427a0&projectId=a0a8f18c-a66e-4ba7-a170-23efbdc67501","0AC0102DDDCB46FD97BFAB8C9D3E01D7-2024-11-24-18-42-52","","916","","images/causal_sequence/museum_causal/museum_causal_ten.png","0","",""
"","","","","","image-button-response","86","348752","0.0-12.0-1.0-2.9","0AC0102DDDCB46FD97BFAB8C9D3E01D7","0AC0102DDDCB46FD97BFAB8C9D3E01D7","42e9ddd5-a033-4b98-b938-993f7d5427a0","a0a8f18c-a66e-4ba7-a170-23efbdc67501","{""participantId"":""0AC0102DDDCB46FD97BFAB8C9D3E01D7"",""assignmentId"":""42e9ddd5-a033-4b98-b938-993f7d5427a0"",""projectId"":""a0a8f18c-a66e-4ba7-a170-23efbdc67501""}","https://test12345.live/?participantId=0AC0102DDDCB46FD97BFAB8C9D3E01D7&assignmentId=42e9ddd5-a033-4b98-b938-993f7d5427a0&projectId=a0a8f18c-a66e-4ba7-a170-23efbdc67501","0AC0102DDDCB46FD97BFAB8C9D3E01D7-2024-11-24-18-42-52","","null","","[]","null","",""
"","","","","","html-audio-response","87","383929","0.0-13.0","0AC0102DDDCB46FD97BFAB8C9D3E01D7","0AC0102DDDCB46FD97BFAB8C9D3E01D7","42e9ddd5-a033-4b98-b938-993f7d5427a0","a0a8f18c-a66e-4ba7-a170-23efbdc67501","{""participantId"":""0AC0102DDDCB46FD97BFAB8C9D3E01D7"",""assignmentId"":""42e9ddd5-a033-4b98-b938-993f7d5427a0"",""projectId"":""a0a8f18c-a66e-4ba7-a170-23efbdc67501""}","https://test12345.live/?participantId=0AC0102DDDCB46FD97BFAB8C9D3E01D7&assignmentId=42e9ddd5-a033-4b98-b938-993f7d5427a0&projectId=a0a8f18c-a66e-4ba7-a170-23efbdc67501","0AC0102DDDCB46FD97BFAB8C9D3E01D7-2024-11-24-18-42-52","","33712","","[""<span style=\""color: red; font-size: 24px\""> NOW RECORDING</span><p>Please say out loud all the images you saw, as many as you can remember. The images can be said in any order.</p>""]","","2","museum_causal"
"","","","","","image-button-response","88","389940","0.0-14.0-0.0","0AC0102DDDCB46FD97BFAB8C9D3E01D7","0AC0102DDDCB46FD97BFAB8C9D3E01D7","42e9ddd5-a033-4b98-b938-993f7d5427a0","a0a8f18c-a66e-4ba7-a170-23efbdc67501","{""participantId"":""0AC0102DDDCB46FD97BFAB8C9D3E01D7"",""assignmentId"":""42e9ddd5-a033-4b98-b938-993f7d5427a0"",""projectId"":""a0a8f18c-a66e-4ba7-a170-23efbdc67501""}","https://test12345.live/?participantId=0AC0102DDDCB46FD97BFAB8C9D3E01D7&assignmentId=42e9ddd5-a033-4b98-b938-993f7d5427a0&projectId=a0a8f18c-a66e-4ba7-a170-23efbdc67501","0AC0102DDDCB46FD97BFAB8C9D3E01D7-2024-11-24-18-42-52","","null","","images/schematic_sequence/restaurant_scheme/restaurant_scheme_0.png","null","",""
"","","","","","image-button-response","89","394447","0.0-14.0-1.0-0.0","0AC0102DDDCB46FD97BFAB8C9D3E01D7","0AC0102DDDCB46FD97BFAB8C9D3E01D7","42e9ddd5-a033-4b98-b938-993f7d5427a0","a0a8f18c-a66e-4ba7-a170-23efbdc67501","{""participantId"":""0AC0102DDDCB46FD97BFAB8C9D3E01D7"",""assignmentId"":""42e9ddd5-a033-4b98-b938-993f7d5427a0"",""projectId"":""a0a8f18c-a66e-4ba7-a170-23efbdc67501""}","https://test12345.live/?participantId=0AC0102DDDCB46FD97BFAB8C9D3E01D7&assignmentId=42e9ddd5-a033-4b98-b938-993f7d5427a0&projectId=a0a8f18c-a66e-4ba7-a170-23efbdc67501","0AC0102DDDCB46FD97BFAB8C9D3E01D7-2024-11-24-18-42-52","","null","","images/schematic_sequence/restaurant_scheme/restaurant_scheme_4.png","null","",""
"","","","","","image-button-response","90","395007","0.0-14.0-1.0-1.0","0AC0102DDDCB46FD97BFAB8C9D3E01D7","0AC0102DDDCB46FD97BFAB8C9D3E01D7","42e9ddd5-a033-4b98-b938-993f7d5427a0","a0a8f18c-a66e-4ba7-a170-23efbdc67501","{""participantId"":""0AC0102DDDCB46FD97BFAB8C9D3E01D7"",""assignmentId"":""42e9ddd5-a033-4b98-b938-993f7d5427a0"",""projectId"":""a0a8f18c-a66e-4ba7-a170-23efbdc67501""}","https://test12345.live/?participantId=0AC0102DDDCB46FD97BFAB8C9D3E01D7&assignmentId=42e9ddd5-a033-4b98-b938-993f7d5427a0&projectId=a0a8f18c-a66e-4ba7-a170-23efbdc67501","0AC0102DDDCB46FD97BFAB8C9D3E01D7-2024-11-24-18-42-52","","557","","images/schematic_sequence/restaurant_scheme/restaurant_scheme_4.png","0","",""
"","","","","","image-button-response","91","396814","0.0-14.0-1.0-2.0","0AC0102DDDCB46FD97BFAB8C9D3E01D7","0AC0102DDDCB46FD97BFAB8C9D3E01D7","42e9ddd5-a033-4b98-b938-993f7d5427a0","a0a8f18c-a66e-4ba7-a170-23efbdc67501","{""participantId"":""0AC0102DDDCB46FD97BFAB8C9D3E01D7"",""assignmentId"":""42e9ddd5-a033-4b98-b938-993f7d5427a0"",""projectId"":""a0a8f18c-a66e-4ba7-a170-23efbdc67501""}","https://test12345.live/?participantId=0AC0102DDDCB46FD97BFAB8C9D3E01D7&assignmentId=42e9ddd5-a033-4b98-b938-993f7d5427a0&projectId=a0a8f18c-a66e-4ba7-a170-23efbdc67501","0AC0102DDDCB46FD97BFAB8C9D3E01D7-2024-11-24-18-42-52","","null","","[]","null","",""
"","","","","","image-button-response","92","401317","0.0-14.0-1.0-0.1","0AC0102DDDCB46FD97BFAB8C9D3E01D7","0AC0102DDDCB46FD97BFAB8C9D3E01D7","42e9ddd5-a033-4b98-b938-993f7d5427a0","a0a8f18c-a66e-4ba7-a170-23efbdc67501","{""participantId"":""0AC0102DDDCB46FD97BFAB8C9D3E01D7"",""assignmentId"":""42e9ddd5-a033-4b98-b938-993f7d5427a0"",""projectId"":""a0a8f18c-a66e-4ba7-a170-23efbdc67501""}","https://test12345.live/?participantId=0AC0102DDDCB46FD97BFAB8C9D3E01D7&assignmentId=42e9ddd5-a033-4b98-b938-993f7d5427a0&projectId=a0a8f18c-a66e-4ba7-a170-23efbdc67501","0AC0102DDDCB46FD97BFAB8C9D3E01D7-2024-11-24-18-42-52","","null","","images/schematic_sequence/restaurant_scheme/restaurant_scheme_8.png","null","",""
"","","","","","image-button-response","93","402243","0.0-14.0-1.0-1.1","0AC0102DDDCB46FD97BFAB8C9D3E01D7","0AC0102DDDCB46FD97BFAB8C9D3E01D7","42e9ddd5-a033-4b98-b938-993f7d5427a0","a0a8f18c-a66e-4ba7-a170-23efbdc67501","{""participantId"":""0AC0102DDDCB46FD97BFAB8C9D3E01D7"",""assignmentId"":""42e9ddd5-a033-4b98-b938-993f7d5427a0"",""projectId"":""a0a8f18c-a66e-4ba7-a170-23efbdc67501""}","https://test12345.live/?participantId=0AC0102DDDCB46FD97BFAB8C9D3E01D7&assignmentId=42e9ddd5-a033-4b98-b938-993f7d5427a0&projectId=a0a8f18c-a66e-4ba7-a170-23efbdc67501","0AC0102DDDCB46FD97BFAB8C9D3E01D7-2024-11-24-18-42-52","","924","","images/schematic_sequence/restaurant_scheme/restaurant_scheme_8.png","0","",""
"","","","","","image-button-response","94","404047","0.0-14.0-1.0-2.1","0AC0102DDDCB46FD97BFAB8C9D3E01D7","0AC0102DDDCB46FD97BFAB8C9D3E01D7","42e9ddd5-a033-4b98-b938-993f7d5427a0","a0a8f18c-a66e-4ba7-a170-23efbdc67501","{""participantId"":""0AC0102DDDCB46FD97BFAB8C9D3E01D7"",""assignmentId"":""42e9ddd5-a033-4b98-b938-993f7d5427a0"",""projectId"":""a0a8f18c-a66e-4ba7-a170-23efbdc67501""}","https://test12345.live/?participantId=0AC0102DDDCB46FD97BFAB8C9D3E01D7&assignmentId=42e9ddd5-a033-4b98-b938-993f7d5427a0&projectId=a0a8f18c-a66e-4ba7-a170-23efbdc67501","0AC0102DDDCB46FD97BFAB8C9D3E01D7-2024-11-24-18-42-52","","null","","[]","null","",""
"","","","","","image-button-response","95","408553","0.0-14.0-1.0-0.2","0AC0102DDDCB46FD97BFAB8C9D3E01D7","0AC0102DDDCB46FD97BFAB8C9D3E01D7","42e9ddd5-a033-4b98-b938-993f7d5427a0","a0a8f18c-a66e-4ba7-a170-23efbdc67501","{""participantId"":""0AC0102DDDCB46FD97BFAB8C9D3E01D7"",""assignmentId"":""42e9ddd5-a033-4b98-b938-993f7d5427a0"",""projectId"":""a0a8f18c-a66e-4ba7-a170-23efbdc67501""}","https://test12345.live/?participantId=0AC0102DDDCB46FD97BFAB8C9D3E01D7&assignmentId=42e9ddd5-a033-4b98-b938-993f7d5427a0&projectId=a0a8f18c-a66e-4ba7-a170-23efbdc67501","0AC0102DDDCB46FD97BFAB8C9D3E01D7-2024-11-24-18-42-52","","null","","images/schematic_sequence/restaurant_scheme/restaurant_scheme_1.png","null","",""
"","","","","","image-button-response","96","409046","0.0-14.0-1.0-1.2","0AC0102DDDCB46FD97BFAB8C9D3E01D7","0AC0102DDDCB46FD97BFAB8C9D3E01D7","42e9ddd5-a033-4b98-b938-993f7d5427a0","a0a8f18c-a66e-4ba7-a170-23efbdc67501","{""participantId"":""0AC0102DDDCB46FD97BFAB8C9D3E01D7"",""assignmentId"":""42e9ddd5-a033-4b98-b938-993f7d5427a0"",""projectId"":""a0a8f18c-a66e-4ba7-a170-23efbdc67501""}","https://test12345.live/?participantId=0AC0102DDDCB46FD97BFAB8C9D3E01D7&assignmentId=42e9ddd5-a033-4b98-b938-993f7d5427a0&projectId=a0a8f18c-a66e-4ba7-a170-23efbdc67501","0AC0102DDDCB46FD97BFAB8C9D3E01D7-2024-11-24-18-42-52","","490","","images/schematic_sequence/restaurant_scheme/restaurant_scheme_1.png","0","",""
"","","","","","image-button-response","97","410853","0.0-14.0-1.0-2.2","0AC0102DDDCB46FD97BFAB8C9D3E01D7","0AC0102DDDCB46FD97BFAB8C9D3E01D7","42e9ddd5-a033-4b98-b938-993f7d5427a0","a0a8f18c-a66e-4ba7-a170-23efbdc67501","{""participantId"":""0AC0102DDDCB46FD97BFAB8C9D3E01D7"",""assignmentId"":""42e9ddd5-a033-4b98-b938-993f7d5427a0"",""projectId"":""a0a8f18c-a66e-4ba7-a170-23efbdc67501""}","https://test12345.live/?participantId=0AC0102DDDCB46FD97BFAB8C9D3E01D7&assignmentId=42e9ddd5-a033-4b98-b938-993f7d5427a0&projectId=a0a8f18c-a66e-4ba7-a170-23efbdc67501","0AC0102DDDCB46FD97BFAB8C9D3E01D7-2024-11-24-18-42-52","","null","","[]","null","",""
"","","","","","image-button-response","98","415355","0.0-14.0-1.0-0.3","0AC0102DDDCB46FD97BFAB8C9D3E01D7","0AC0102DDDCB46FD97BFAB8C9D3E01D7","42e9ddd5-a033-4b98-b938-993f7d5427a0","a0a8f18c-a66e-4ba7-a170-23efbdc67501","{""participantId"":""0AC0102DDDCB46FD97BFAB8C9D3E01D7"",""assignmentId"":""42e9ddd5-a033-4b98-b938-993f7d5427a0"",""projectId"":""a0a8f18c-a66e-4ba7-a170-23efbdc67501""}","https://test12345.live/?participantId=0AC0102DDDCB46FD97BFAB8C9D3E01D7&assignmentId=42e9ddd5-a033-4b98-b938-993f7d5427a0&projectId=a0a8f18c-a66e-4ba7-a170-23efbdc67501","0AC0102DDDCB46FD97BFAB8C9D3E01D7-2024-11-24-18-42-52","","null","","images/schematic_sequence/restaurant_scheme/restaurant_scheme_2.png","null","",""
"","","","","","image-button-response","99","415954","0.0-14.0-1.0-1.3","0AC0102DDDCB46FD97BFAB8C9D3E01D7","0AC0102DDDCB46FD97BFAB8C9D3E01D7","42e9ddd5-a033-4b98-b938-993f7d5427a0","a0a8f18c-a66e-4ba7-a170-23efbdc67501","{""participantId"":""0AC0102DDDCB46FD97BFAB8C9D3E01D7"",""assignmentId"":""42e9ddd5-a033-4b98-b938-993f7d5427a0"",""projectId"":""a0a8f18c-a66e-4ba7-a170-23efbdc67501""}","https://test12345.live/?participantId=0AC0102DDDCB46FD97BFAB8C9D3E01D7&assignmentId=42e9ddd5-a033-4b98-b938-993f7d5427a0&projectId=a0a8f18c-a66e-4ba7-a170-23efbdc67501","0AC0102DDDCB46FD97BFAB8C9D3E01D7-2024-11-24-18-42-52","","597","","images/schematic_sequence/restaurant_scheme/restaurant_scheme_2.png","1","",""
"","","","","","image-button-response","100","417758","0.0-14.0-1.0-2.3","0AC0102DDDCB46FD97BFAB8C9D3E01D7","0AC0102DDDCB46FD97BFAB8C9D3E01D7","42e9ddd5-a033-4b98-b938-993f7d5427a0","a0a8f18c-a66e-4ba7-a170-23efbdc67501","{""participantId"":""0AC0102DDDCB46FD97BFAB8C9D3E01D7"",""assignmentId"":""42e9ddd5-a033-4b98-b938-993f7d5427a0"",""projectId"":""a0a8f18c-a66e-4ba7-a170-23efbdc67501""}","https://test12345.live/?participantId=0AC0102DDDCB46FD97BFAB8C9D3E01D7&assignmentId=42e9ddd5-a033-4b98-b938-993f7d5427a0&projectId=a0a8f18c-a66e-4ba7-a170-23efbdc67501","0AC0102DDDCB46FD97BFAB8C9D3E01D7-2024-11-24-18-42-52","","null","","[]","null","",""
"","","","","","image-button-response","101","422265","0.0-14.0-1.0-0.4","0AC0102DDDCB46FD97BFAB8C9D3E01D7","0AC0102DDDCB46FD97BFAB8C9D3E01D7","42e9ddd5-a033-4b98-b938-993f7d5427a0","a0a8f18c-a66e-4ba7-a170-23efbdc67501","{""participantId"":""0AC0102DDDCB46FD97BFAB8C9D3E01D7"",""assignmentId"":""42e9ddd5-a033-4b98-b938-993f7d5427a0"",""projectId"":""a0a8f18c-a66e-4ba7-a170-23efbdc67501""}","https://test12345.live/?participantId=0AC0102DDDCB46FD97BFAB8C9D3E01D7&assignmentId=42e9ddd5-a033-4b98-b938-993f7d5427a0&projectId=a0a8f18c-a66e-4ba7-a170-23efbdc67501","0AC0102DDDCB46FD97BFAB8C9D3E01D7-2024-11-24-18-42-52","","null","","images/schematic_sequence/restaurant_scheme/restaurant_scheme_7.png","null","",""
"","","","","","image-button-response","102","423056","0.0-14.0-1.0-1.4","0AC0102DDDCB46FD97BFAB8C9D3E01D7","0AC0102DDDCB46FD97BFAB8C9D3E01D7","42e9ddd5-a033-4b98-b938-993f7d5427a0","a0a8f18c-a66e-4ba7-a170-23efbdc67501","{""participantId"":""0AC0102DDDCB46FD97BFAB8C9D3E01D7"",""assignmentId"":""42e9ddd5-a033-4b98-b938-993f7d5427a0"",""projectId"":""a0a8f18c-a66e-4ba7-a170-23efbdc67501""}","https://test12345.live/?participantId=0AC0102DDDCB46FD97BFAB8C9D3E01D7&assignmentId=42e9ddd5-a033-4b98-b938-993f7d5427a0&projectId=a0a8f18c-a66e-4ba7-a170-23efbdc67501","0AC0102DDDCB46FD97BFAB8C9D3E01D7-2024-11-24-18-42-52","","789","","images/schematic_sequence/restaurant_scheme/restaurant_scheme_7.png","1","",""
"","","","","","image-button-response","103","424857","0.0-14.0-1.0-2.4","0AC0102DDDCB46FD97BFAB8C9D3E01D7","0AC0102DDDCB46FD97BFAB8C9D3E01D7","42e9ddd5-a033-4b98-b938-993f7d5427a0","a0a8f18c-a66e-4ba7-a170-23efbdc67501","{""participantId"":""0AC0102DDDCB46FD97BFAB8C9D3E01D7"",""assignmentId"":""42e9ddd5-a033-4b98-b938-993f7d5427a0"",""projectId"":""a0a8f18c-a66e-4ba7-a170-23efbdc67501""}","https://test12345.live/?participantId=0AC0102DDDCB46FD97BFAB8C9D3E01D7&assignmentId=42e9ddd5-a033-4b98-b938-993f7d5427a0&projectId=a0a8f18c-a66e-4ba7-a170-23efbdc67501","0AC0102DDDCB46FD97BFAB8C9D3E01D7-2024-11-24-18-42-52","","null","","[]","null","",""
"","","","","","image-button-response","104","429364","0.0-14.0-1.0-0.5","0AC0102DDDCB46FD97BFAB8C9D3E01D7","0AC0102DDDCB46FD97BFAB8C9D3E01D7","42e9ddd5-a033-4b98-b938-993f7d5427a0","a0a8f18c-a66e-4ba7-a170-23efbdc67501","{""participantId"":""0AC0102DDDCB46FD97BFAB8C9D3E01D7"",""assignmentId"":""42e9ddd5-a033-4b98-b938-993f7d5427a0"",""projectId"":""a0a8f18c-a66e-4ba7-a170-23efbdc67501""}","https://test12345.live/?participantId=0AC0102DDDCB46FD97BFAB8C9D3E01D7&assignmentId=42e9ddd5-a033-4b98-b938-993f7d5427a0&projectId=a0a8f18c-a66e-4ba7-a170-23efbdc67501","0AC0102DDDCB46FD97BFAB8C9D3E01D7-2024-11-24-18-42-52","","null","","images/schematic_sequence/restaurant_scheme/restaurant_scheme_6.png","null","",""
"","","","","","image-button-response","105","429949","0.0-14.0-1.0-1.5","0AC0102DDDCB46FD97BFAB8C9D3E01D7","0AC0102DDDCB46FD97BFAB8C9D3E01D7","42e9ddd5-a033-4b98-b938-993f7d5427a0","a0a8f18c-a66e-4ba7-a170-23efbdc67501","{""participantId"":""0AC0102DDDCB46FD97BFAB8C9D3E01D7"",""assignmentId"":""42e9ddd5-a033-4b98-b938-993f7d5427a0"",""projectId"":""a0a8f18c-a66e-4ba7-a170-23efbdc67501""}","https://test12345.live/?participantId=0AC0102DDDCB46FD97BFAB8C9D3E01D7&assignmentId=42e9ddd5-a033-4b98-b938-993f7d5427a0&projectId=a0a8f18c-a66e-4ba7-a170-23efbdc67501","0AC0102DDDCB46FD97BFAB8C9D3E01D7-2024-11-24-18-42-52","","583","","images/schematic_sequence/restaurant_scheme/restaurant_scheme_6.png","1","",""
"","","","","","image-button-response","106","431756","0.0-14.0-1.0-2.5","0AC0102DDDCB46FD97BFAB8C9D3E01D7","0AC0102DDDCB46FD97BFAB8C9D3E01D7","42e9ddd5-a033-4b98-b938-993f7d5427a0","a0a8f18c-a66e-4ba7-a170-23efbdc67501","{""participantId"":""0AC0102DDDCB46FD97BFAB8C9D3E01D7"",""assignmentId"":""42e9ddd5-a033-4b98-b938-993f7d5427a0"",""projectId"":""a0a8f18c-a66e-4ba7-a170-23efbdc67501""}","https://test12345.live/?participantId=0AC0102DDDCB46FD97BFAB8C9D3E01D7&assignmentId=42e9ddd5-a033-4b98-b938-993f7d5427a0&projectId=a0a8f18c-a66e-4ba7-a170-23efbdc67501","0AC0102DDDCB46FD97BFAB8C9D3E01D7-2024-11-24-18-42-52","","null","","[]","null","",""
"","","","","","image-button-response","107","436260","0.0-14.0-1.0-0.6","0AC0102DDDCB46FD97BFAB8C9D3E01D7","0AC0102DDDCB46FD97BFAB8C9D3E01D7","42e9ddd5-a033-4b98-b938-993f7d5427a0","a0a8f18c-a66e-4ba7-a170-23efbdc67501","{""participantId"":""0AC0102DDDCB46FD97BFAB8C9D3E01D7"",""assignmentId"":""42e9ddd5-a033-4b98-b938-993f7d5427a0"",""projectId"":""a0a8f18c-a66e-4ba7-a170-23efbdc67501""}","https://test12345.live/?participantId=0AC0102DDDCB46FD97BFAB8C9D3E01D7&assignmentId=42e9ddd5-a033-4b98-b938-993f7d5427a0&projectId=a0a8f18c-a66e-4ba7-a170-23efbdc67501","0AC0102DDDCB46FD97BFAB8C9D3E01D7-2024-11-24-18-42-52","","null","","images/schematic_sequence/restaurant_scheme/restaurant_scheme_ten.png","null","",""
"","","","","","image-button-response","108","436832","0.0-14.0-1.0-1.6","0AC0102DDDCB46FD97BFAB8C9D3E01D7","0AC0102DDDCB46FD97BFAB8C9D3E01D7","42e9ddd5-a033-4b98-b938-993f7d5427a0","a0a8f18c-a66e-4ba7-a170-23efbdc67501","{""participantId"":""0AC0102DDDCB46FD97BFAB8C9D3E01D7"",""assignmentId"":""42e9ddd5-a033-4b98-b938-993f7d5427a0"",""projectId"":""a0a8f18c-a66e-4ba7-a170-23efbdc67501""}","https://test12345.live/?participantId=0AC0102DDDCB46FD97BFAB8C9D3E01D7&assignmentId=42e9ddd5-a033-4b98-b938-993f7d5427a0&projectId=a0a8f18c-a66e-4ba7-a170-23efbdc67501","0AC0102DDDCB46FD97BFAB8C9D3E01D7-2024-11-24-18-42-52","","571","","images/schematic_sequence/restaurant_scheme/restaurant_scheme_ten.png","0","",""
"","","","","","image-button-response","109","438636","0.0-14.0-1.0-2.6","0AC0102DDDCB46FD97BFAB8C9D3E01D7","0AC0102DDDCB46FD97BFAB8C9D3E01D7","42e9ddd5-a033-4b98-b938-993f7d5427a0","a0a8f18c-a66e-4ba7-a170-23efbdc67501","{""participantId"":""0AC0102DDDCB46FD97BFAB8C9D3E01D7"",""assignmentId"":""42e9ddd5-a033-4b98-b938-993f7d5427a0"",""projectId"":""a0a8f18c-a66e-4ba7-a170-23efbdc67501""}","https://test12345.live/?participantId=0AC0102DDDCB46FD97BFAB8C9D3E01D7&assignmentId=42e9ddd5-a033-4b98-b938-993f7d5427a0&projectId=a0a8f18c-a66e-4ba7-a170-23efbdc67501","0AC0102DDDCB46FD97BFAB8C9D3E01D7-2024-11-24-18-42-52","","null","","[]","null","",""
"","","","","","image-button-response","110","443140","0.0-14.0-1.0-0.7","0AC0102DDDCB46FD97BFAB8C9D3E01D7","0AC0102DDDCB46FD97BFAB8C9D3E01D7","42e9ddd5-a033-4b98-b938-993f7d5427a0","a0a8f18c-a66e-4ba7-a170-23efbdc67501","{""participantId"":""0AC0102DDDCB46FD97BFAB8C9D3E01D7"",""assignmentId"":""42e9ddd5-a033-4b98-b938-993f7d5427a0"",""projectId"":""a0a8f18c-a66e-4ba7-a170-23efbdc67501""}","https://test12345.live/?participantId=0AC0102DDDCB46FD97BFAB8C9D3E01D7&assignmentId=42e9ddd5-a033-4b98-b938-993f7d5427a0&projectId=a0a8f18c-a66e-4ba7-a170-23efbdc67501","0AC0102DDDCB46FD97BFAB8C9D3E01D7-2024-11-24-18-42-52","","null","","images/schematic_sequence/restaurant_scheme/restaurant_scheme_5.png","null","",""
"","","","","","image-button-response","111","443590","0.0-14.0-1.0-1.7","0AC0102DDDCB46FD97BFAB8C9D3E01D7","0AC0102DDDCB46FD97BFAB8C9D3E01D7","42e9ddd5-a033-4b98-b938-993f7d5427a0","a0a8f18c-a66e-4ba7-a170-23efbdc67501","{""participantId"":""0AC0102DDDCB46FD97BFAB8C9D3E01D7"",""assignmentId"":""42e9ddd5-a033-4b98-b938-993f7d5427a0"",""projectId"":""a0a8f18c-a66e-4ba7-a170-23efbdc67501""}","https://test12345.live/?participantId=0AC0102DDDCB46FD97BFAB8C9D3E01D7&assignmentId=42e9ddd5-a033-4b98-b938-993f7d5427a0&projectId=a0a8f18c-a66e-4ba7-a170-23efbdc67501","0AC0102DDDCB46FD97BFAB8C9D3E01D7-2024-11-24-18-42-52","","448","","images/schematic_sequence/restaurant_scheme/restaurant_scheme_5.png","0","",""
"","","","","","image-button-response","112","445392","0.0-14.0-1.0-2.7","0AC0102DDDCB46FD97BFAB8C9D3E01D7","0AC0102DDDCB46FD97BFAB8C9D3E01D7","42e9ddd5-a033-4b98-b938-993f7d5427a0","a0a8f18c-a66e-4ba7-a170-23efbdc67501","{""participantId"":""0AC0102DDDCB46FD97BFAB8C9D3E01D7"",""assignmentId"":""42e9ddd5-a033-4b98-b938-993f7d5427a0"",""projectId"":""a0a8f18c-a66e-4ba7-a170-23efbdc67501""}","https://test12345.live/?participantId=0AC0102DDDCB46FD97BFAB8C9D3E01D7&assignmentId=42e9ddd5-a033-4b98-b938-993f7d5427a0&projectId=a0a8f18c-a66e-4ba7-a170-23efbdc67501","0AC0102DDDCB46FD97BFAB8C9D3E01D7-2024-11-24-18-42-52","","null","","[]","null","",""
"","","","","","image-button-response","113","449897","0.0-14.0-1.0-0.8","0AC0102DDDCB46FD97BFAB8C9D3E01D7","0AC0102DDDCB46FD97BFAB8C9D3E01D7","42e9ddd5-a033-4b98-b938-993f7d5427a0","a0a8f18c-a66e-4ba7-a170-23efbdc67501","{""participantId"":""0AC0102DDDCB46FD97BFAB8C9D3E01D7"",""assignmentId"":""42e9ddd5-a033-4b98-b938-993f7d5427a0"",""projectId"":""a0a8f18c-a66e-4ba7-a170-23efbdc67501""}","https://test12345.live/?participantId=0AC0102DDDCB46FD97BFAB8C9D3E01D7&assignmentId=42e9ddd5-a033-4b98-b938-993f7d5427a0&projectId=a0a8f18c-a66e-4ba7-a170-23efbdc67501","0AC0102DDDCB46FD97BFAB8C9D3E01D7-2024-11-24-18-42-52","","null","","images/schematic_sequence/restaurant_scheme/restaurant_scheme_3.png","null","",""
"","","","","","image-button-response","114","450542","0.0-14.0-1.0-1.8","0AC0102DDDCB46FD97BFAB8C9D3E01D7","0AC0102DDDCB46FD97BFAB8C9D3E01D7","42e9ddd5-a033-4b98-b938-993f7d5427a0","a0a8f18c-a66e-4ba7-a170-23efbdc67501","{""participantId"":""0AC0102DDDCB46FD97BFAB8C9D3E01D7"",""assignmentId"":""42e9ddd5-a033-4b98-b938-993f7d5427a0"",""projectId"":""a0a8f18c-a66e-4ba7-a170-23efbdc67501""}","https://test12345.live/?participantId=0AC0102DDDCB46FD97BFAB8C9D3E01D7&assignmentId=42e9ddd5-a033-4b98-b938-993f7d5427a0&projectId=a0a8f18c-a66e-4ba7-a170-23efbdc67501","0AC0102DDDCB46FD97BFAB8C9D3E01D7-2024-11-24-18-42-52","","642","","images/schematic_sequence/restaurant_scheme/restaurant_scheme_3.png","1","",""
"","","","","","image-button-response","115","452348","0.0-14.0-1.0-2.8","0AC0102DDDCB46FD97BFAB8C9D3E01D7","0AC0102DDDCB46FD97BFAB8C9D3E01D7","42e9ddd5-a033-4b98-b938-993f7d5427a0","a0a8f18c-a66e-4ba7-a170-23efbdc67501","{""participantId"":""0AC0102DDDCB46FD97BFAB8C9D3E01D7"",""assignmentId"":""42e9ddd5-a033-4b98-b938-993f7d5427a0"",""projectId"":""a0a8f18c-a66e-4ba7-a170-23efbdc67501""}","https://test12345.live/?participantId=0AC0102DDDCB46FD97BFAB8C9D3E01D7&assignmentId=42e9ddd5-a033-4b98-b938-993f7d5427a0&projectId=a0a8f18c-a66e-4ba7-a170-23efbdc67501","0AC0102DDDCB46FD97BFAB8C9D3E01D7-2024-11-24-18-42-52","","null","","[]","null","",""
"","","","","","image-button-response","116","456854","0.0-14.0-1.0-0.9","0AC0102DDDCB46FD97BFAB8C9D3E01D7","0AC0102DDDCB46FD97BFAB8C9D3E01D7","42e9ddd5-a033-4b98-b938-993f7d5427a0","a0a8f18c-a66e-4ba7-a170-23efbdc67501","{""participantId"":""0AC0102DDDCB46FD97BFAB8C9D3E01D7"",""assignmentId"":""42e9ddd5-a033-4b98-b938-993f7d5427a0"",""projectId"":""a0a8f18c-a66e-4ba7-a170-23efbdc67501""}","https://test12345.live/?participantId=0AC0102DDDCB46FD97BFAB8C9D3E01D7&assignmentId=42e9ddd5-a033-4b98-b938-993f7d5427a0&projectId=a0a8f18c-a66e-4ba7-a170-23efbdc67501","0AC0102DDDCB46FD97BFAB8C9D3E01D7-2024-11-24-18-42-52","","null","","images/schematic_sequence/restaurant_scheme/restaurant_scheme_9.png","null","",""
"","","","","","image-button-response","117","457381","0.0-14.0-1.0-1.9","0AC0102DDDCB46FD97BFAB8C9D3E01D7","0AC0102DDDCB46FD97BFAB8C9D3E01D7","42e9ddd5-a033-4b98-b938-993f7d5427a0","a0a8f18c-a66e-4ba7-a170-23efbdc67501","{""participantId"":""0AC0102DDDCB46FD97BFAB8C9D3E01D7"",""assignmentId"":""42e9ddd5-a033-4b98-b938-993f7d5427a0"",""projectId"":""a0a8f18c-a66e-4ba7-a170-23efbdc67501""}","https://test12345.live/?participantId=0AC0102DDDCB46FD97BFAB8C9D3E01D7&assignmentId=42e9ddd5-a033-4b98-b938-993f7d5427a0&projectId=a0a8f18c-a66e-4ba7-a170-23efbdc67501","0AC0102DDDCB46FD97BFAB8C9D3E01D7-2024-11-24-18-42-52","","525","","images/schematic_sequence/restaurant_scheme/restaurant_scheme_9.png","0","",""
"","","","","","image-button-response","118","459186","0.0-14.0-1.0-2.9","0AC0102DDDCB46FD97BFAB8C9D3E01D7","0AC0102DDDCB46FD97BFAB8C9D3E01D7","42e9ddd5-a033-4b98-b938-993f7d5427a0","a0a8f18c-a66e-4ba7-a170-23efbdc67501","{""participantId"":""0AC0102DDDCB46FD97BFAB8C9D3E01D7"",""assignmentId"":""42e9ddd5-a033-4b98-b938-993f7d5427a0"",""projectId"":""a0a8f18c-a66e-4ba7-a170-23efbdc67501""}","https://test12345.live/?participantId=0AC0102DDDCB46FD97BFAB8C9D3E01D7&assignmentId=42e9ddd5-a033-4b98-b938-993f7d5427a0&projectId=a0a8f18c-a66e-4ba7-a170-23efbdc67501","0AC0102DDDCB46FD97BFAB8C9D3E01D7-2024-11-24-18-42-52","","null","","[]","null","",""
"","","","","","html-audio-response","119","490793","0.0-15.0","0AC0102DDDCB46FD97BFAB8C9D3E01D7","0AC0102DDDCB46FD97BFAB8C9D3E01D7","42e9ddd5-a033-4b98-b938-993f7d5427a0","a0a8f18c-a66e-4ba7-a170-23efbdc67501","{""participantId"":""0AC0102DDDCB46FD97BFAB8C9D3E01D7"",""assignmentId"":""42e9ddd5-a033-4b98-b938-993f7d5427a0"",""projectId"":""a0a8f18c-a66e-4ba7-a170-23efbdc67501""}","https://test12345.live/?participantId=0AC0102DDDCB46FD97BFAB8C9D3E01D7&assignmentId=42e9ddd5-a033-4b98-b938-993f7d5427a0&projectId=a0a8f18c-a66e-4ba7-a170-23efbdc67501","0AC0102DDDCB46FD97BFAB8C9D3E01D7-2024-11-24-18-42-52","","30821","","[""<span style=\""color: red; font-size: 24px\""> NOW RECORDING</span><p>Please say out loud all the images you saw, as many as you can remember. The images can be said in any order.</p>""]","","4","restaurant_scheme"
"","","","","","image-button-response","120","496803","0.0-16.0-0.0","0AC0102DDDCB46FD97BFAB8C9D3E01D7","0AC0102DDDCB46FD97BFAB8C9D3E01D7","42e9ddd5-a033-4b98-b938-993f7d5427a0","a0a8f18c-a66e-4ba7-a170-23efbdc67501","{""participantId"":""0AC0102DDDCB46FD97BFAB8C9D3E01D7"",""assignmentId"":""42e9ddd5-a033-4b98-b938-993f7d5427a0"",""projectId"":""a0a8f18c-a66e-4ba7-a170-23efbdc67501""}","https://test12345.live/?participantId=0AC0102DDDCB46FD97BFAB8C9D3E01D7&assignmentId=42e9ddd5-a033-4b98-b938-993f7d5427a0&projectId=a0a8f18c-a66e-4ba7-a170-23efbdc67501","0AC0102DDDCB46FD97BFAB8C9D3E01D7-2024-11-24-18-42-52","","null","","images/causal_sequence/saving_a_cat_causal/saving_a_cat_causal_0.png","null","",""
"","","","","","image-button-response","121","501310","0.0-16.0-1.0-0.0","0AC0102DDDCB46FD97BFAB8C9D3E01D7","0AC0102DDDCB46FD97BFAB8C9D3E01D7","42e9ddd5-a033-4b98-b938-993f7d5427a0","a0a8f18c-a66e-4ba7-a170-23efbdc67501","{""participantId"":""0AC0102DDDCB46FD97BFAB8C9D3E01D7"",""assignmentId"":""42e9ddd5-a033-4b98-b938-993f7d5427a0"",""projectId"":""a0a8f18c-a66e-4ba7-a170-23efbdc67501""}","https://test12345.live/?participantId=0AC0102DDDCB46FD97BFAB8C9D3E01D7&assignmentId=42e9ddd5-a033-4b98-b938-993f7d5427a0&projectId=a0a8f18c-a66e-4ba7-a170-23efbdc67501","0AC0102DDDCB46FD97BFAB8C9D3E01D7-2024-11-24-18-42-52","","null","","images/causal_sequence/saving_a_cat_causal/saving_a_cat_causal_1.png","null","",""
"","","","","","image-button-response","122","505316","0.0-16.0-1.0-1.0","0AC0102DDDCB46FD97BFAB8C9D3E01D7","0AC0102DDDCB46FD97BFAB8C9D3E01D7","42e9ddd5-a033-4b98-b938-993f7d5427a0","a0a8f18c-a66e-4ba7-a170-23efbdc67501","{""participantId"":""0AC0102DDDCB46FD97BFAB8C9D3E01D7"",""assignmentId"":""42e9ddd5-a033-4b98-b938-993f7d5427a0"",""projectId"":""a0a8f18c-a66e-4ba7-a170-23efbdc67501""}","https://test12345.live/?participantId=0AC0102DDDCB46FD97BFAB8C9D3E01D7&assignmentId=42e9ddd5-a033-4b98-b938-993f7d5427a0&projectId=a0a8f18c-a66e-4ba7-a170-23efbdc67501","0AC0102DDDCB46FD97BFAB8C9D3E01D7-2024-11-24-18-42-52","","null","","images/causal_sequence/saving_a_cat_causal/saving_a_cat_causal_1.png","null","",""
"","","","","","image-button-response","123","507123","0.0-16.0-1.0-2.0","0AC0102DDDCB46FD97BFAB8C9D3E01D7","0AC0102DDDCB46FD97BFAB8C9D3E01D7","42e9ddd5-a033-4b98-b938-993f7d5427a0","a0a8f18c-a66e-4ba7-a170-23efbdc67501","{""participantId"":""0AC0102DDDCB46FD97BFAB8C9D3E01D7"",""assignmentId"":""42e9ddd5-a033-4b98-b938-993f7d5427a0"",""projectId"":""a0a8f18c-a66e-4ba7-a170-23efbdc67501""}","https://test12345.live/?participantId=0AC0102DDDCB46FD97BFAB8C9D3E01D7&assignmentId=42e9ddd5-a033-4b98-b938-993f7d5427a0&projectId=a0a8f18c-a66e-4ba7-a170-23efbdc67501","0AC0102DDDCB46FD97BFAB8C9D3E01D7-2024-11-24-18-42-52","","null","","[]","null","",""
"","","","","","image-button-response","124","511626","0.0-16.0-1.0-0.1","0AC0102DDDCB46FD97BFAB8C9D3E01D7","0AC0102DDDCB46FD97BFAB8C9D3E01D7","42e9ddd5-a033-4b98-b938-993f7d5427a0","a0a8f18c-a66e-4ba7-a170-23efbdc67501","{""participantId"":""0AC0102DDDCB46FD97BFAB8C9D3E01D7"",""assignmentId"":""42e9ddd5-a033-4b98-b938-993f7d5427a0"",""projectId"":""a0a8f18c-a66e-4ba7-a170-23efbdc67501""}","https://test12345.live/?participantId=0AC0102DDDCB46FD97BFAB8C9D3E01D7&assignmentId=42e9ddd5-a033-4b98-b938-993f7d5427a0&projectId=a0a8f18c-a66e-4ba7-a170-23efbdc67501","0AC0102DDDCB46FD97BFAB8C9D3E01D7-2024-11-24-18-42-52","","null","","images/causal_sequence/saving_a_cat_causal/saving_a_cat_causal_2.png","null","",""
"","","","","","image-button-response","125","513780","0.0-16.0-1.0-1.1","0AC0102DDDCB46FD97BFAB8C9D3E01D7","0AC0102DDDCB46FD97BFAB8C9D3E01D7","42e9ddd5-a033-4b98-b938-993f7d5427a0","a0a8f18c-a66e-4ba7-a170-23efbdc67501","{""participantId"":""0AC0102DDDCB46FD97BFAB8C9D3E01D7"",""assignmentId"":""42e9ddd5-a033-4b98-b938-993f7d5427a0"",""projectId"":""a0a8f18c-a66e-4ba7-a170-23efbdc67501""}","https://test12345.live/?participantId=0AC0102DDDCB46FD97BFAB8C9D3E01D7&assignmentId=42e9ddd5-a033-4b98-b938-993f7d5427a0&projectId=a0a8f18c-a66e-4ba7-a170-23efbdc67501","0AC0102DDDCB46FD97BFAB8C9D3E01D7-2024-11-24-18-42-52","","2151","","images/causal_sequence/saving_a_cat_causal/saving_a_cat_causal_2.png","1","",""
"","","","","","image-button-response","126","515584","0.0-16.0-1.0-2.1","0AC0102DDDCB46FD97BFAB8C9D3E01D7","0AC0102DDDCB46FD97BFAB8C9D3E01D7","42e9ddd5-a033-4b98-b938-993f7d5427a0","a0a8f18c-a66e-4ba7-a170-23efbdc67501","{""participantId"":""0AC0102DDDCB46FD97BFAB8C9D3E01D7"",""assignmentId"":""42e9ddd5-a033-4b98-b938-993f7d5427a0"",""projectId"":""a0a8f18c-a66e-4ba7-a170-23efbdc67501""}","https://test12345.live/?participantId=0AC0102DDDCB46FD97BFAB8C9D3E01D7&assignmentId=42e9ddd5-a033-4b98-b938-993f7d5427a0&projectId=a0a8f18c-a66e-4ba7-a170-23efbdc67501","0AC0102DDDCB46FD97BFAB8C9D3E01D7-2024-11-24-18-42-52","","null","","[]","null","",""
"","","","","","image-button-response","127","520089","0.0-16.0-1.0-0.2","0AC0102DDDCB46FD97BFAB8C9D3E01D7","0AC0102DDDCB46FD97BFAB8C9D3E01D7","42e9ddd5-a033-4b98-b938-993f7d5427a0","a0a8f18c-a66e-4ba7-a170-23efbdc67501","{""participantId"":""0AC0102DDDCB46FD97BFAB8C9D3E01D7"",""assignmentId"":""42e9ddd5-a033-4b98-b938-993f7d5427a0"",""projectId"":""a0a8f18c-a66e-4ba7-a170-23efbdc67501""}","https://test12345.live/?participantId=0AC0102DDDCB46FD97BFAB8C9D3E01D7&assignmentId=42e9ddd5-a033-4b98-b938-993f7d5427a0&projectId=a0a8f18c-a66e-4ba7-a170-23efbdc67501","0AC0102DDDCB46FD97BFAB8C9D3E01D7-2024-11-24-18-42-52","","null","","images/causal_sequence/saving_a_cat_causal/saving_a_cat_causal_3.png","null","",""
"","","","","","image-button-response","128","521692","0.0-16.0-1.0-1.2","0AC0102DDDCB46FD97BFAB8C9D3E01D7","0AC0102DDDCB46FD97BFAB8C9D3E01D7","42e9ddd5-a033-4b98-b938-993f7d5427a0","a0a8f18c-a66e-4ba7-a170-23efbdc67501","{""participantId"":""0AC0102DDDCB46FD97BFAB8C9D3E01D7"",""assignmentId"":""42e9ddd5-a033-4b98-b938-993f7d5427a0"",""projectId"":""a0a8f18c-a66e-4ba7-a170-23efbdc67501""}","https://test12345.live/?participantId=0AC0102DDDCB46FD97BFAB8C9D3E01D7&assignmentId=42e9ddd5-a033-4b98-b938-993f7d5427a0&projectId=a0a8f18c-a66e-4ba7-a170-23efbdc67501","0AC0102DDDCB46FD97BFAB8C9D3E01D7-2024-11-24-18-42-52","","1601","","images/causal_sequence/saving_a_cat_causal/saving_a_cat_causal_3.png","1","",""
"","","","","","image-button-response","129","523495","0.0-16.0-1.0-2.2","0AC0102DDDCB46FD97BFAB8C9D3E01D7","0AC0102DDDCB46FD97BFAB8C9D3E01D7","42e9ddd5-a033-4b98-b938-993f7d5427a0","a0a8f18c-a66e-4ba7-a170-23efbdc67501","{""participantId"":""0AC0102DDDCB46FD97BFAB8C9D3E01D7"",""assignmentId"":""42e9ddd5-a033-4b98-b938-993f7d5427a0"",""projectId"":""a0a8f18c-a66e-4ba7-a170-23efbdc67501""}","https://test12345.live/?participantId=0AC0102DDDCB46FD97BFAB8C9D3E01D7&assignmentId=42e9ddd5-a033-4b98-b938-993f7d5427a0&projectId=a0a8f18c-a66e-4ba7-a170-23efbdc67501","0AC0102DDDCB46FD97BFAB8C9D3E01D7-2024-11-24-18-42-52","","null","","[]","null","",""
"","","","","","image-button-response","130","528000","0.0-16.0-1.0-0.3","0AC0102DDDCB46FD97BFAB8C9D3E01D7","0AC0102DDDCB46FD97BFAB8C9D3E01D7","42e9ddd5-a033-4b98-b938-993f7d5427a0","a0a8f18c-a66e-4ba7-a170-23efbdc67501","{""participantId"":""0AC0102DDDCB46FD97BFAB8C9D3E01D7"",""assignmentId"":""42e9ddd5-a033-4b98-b938-993f7d5427a0"",""projectId"":""a0a8f18c-a66e-4ba7-a170-23efbdc67501""}","https://test12345.live/?participantId=0AC0102DDDCB46FD97BFAB8C9D3E01D7&assignmentId=42e9ddd5-a033-4b98-b938-993f7d5427a0&projectId=a0a8f18c-a66e-4ba7-a170-23efbdc67501","0AC0102DDDCB46FD97BFAB8C9D3E01D7-2024-11-24-18-42-52","","null","","images/causal_sequence/saving_a_cat_causal/saving_a_cat_causal_4.png","null","",""
"","","","","","image-button-response","131","528908","0.0-16.0-1.0-1.3","0AC0102DDDCB46FD97BFAB8C9D3E01D7","0AC0102DDDCB46FD97BFAB8C9D3E01D7","42e9ddd5-a033-4b98-b938-993f7d5427a0","a0a8f18c-a66e-4ba7-a170-23efbdc67501","{""participantId"":""0AC0102DDDCB46FD97BFAB8C9D3E01D7"",""assignmentId"":""42e9ddd5-a033-4b98-b938-993f7d5427a0"",""projectId"":""a0a8f18c-a66e-4ba7-a170-23efbdc67501""}","https://test12345.live/?participantId=0AC0102DDDCB46FD97BFAB8C9D3E01D7&assignmentId=42e9ddd5-a033-4b98-b938-993f7d5427a0&projectId=a0a8f18c-a66e-4ba7-a170-23efbdc67501","0AC0102DDDCB46FD97BFAB8C9D3E01D7-2024-11-24-18-42-52","","905","","images/causal_sequence/saving_a_cat_causal/saving_a_cat_causal_4.png","0","",""
"","","","","","image-button-response","132","530714","0.0-16.0-1.0-2.3","0AC0102DDDCB46FD97BFAB8C9D3E01D7","0AC0102DDDCB46FD97BFAB8C9D3E01D7","42e9ddd5-a033-4b98-b938-993f7d5427a0","a0a8f18c-a66e-4ba7-a170-23efbdc67501","{""participantId"":""0AC0102DDDCB46FD97BFAB8C9D3E01D7"",""assignmentId"":""42e9ddd5-a033-4b98-b938-993f7d5427a0"",""projectId"":""a0a8f18c-a66e-4ba7-a170-23efbdc67501""}","https://test12345.live/?participantId=0AC0102DDDCB46FD97BFAB8C9D3E01D7&assignmentId=42e9ddd5-a033-4b98-b938-993f7d5427a0&projectId=a0a8f18c-a66e-4ba7-a170-23efbdc67501","0AC0102DDDCB46FD97BFAB8C9D3E01D7-2024-11-24-18-42-52","","null","","[]","null","",""
"","","","","","image-button-response","133","535218","0.0-16.0-1.0-0.4","0AC0102DDDCB46FD97BFAB8C9D3E01D7","0AC0102DDDCB46FD97BFAB8C9D3E01D7","42e9ddd5-a033-4b98-b938-993f7d5427a0","a0a8f18c-a66e-4ba7-a170-23efbdc67501","{""participantId"":""0AC0102DDDCB46FD97BFAB8C9D3E01D7"",""assignmentId"":""42e9ddd5-a033-4b98-b938-993f7d5427a0"",""projectId"":""a0a8f18c-a66e-4ba7-a170-23efbdc67501""}","https://test12345.live/?participantId=0AC0102DDDCB46FD97BFAB8C9D3E01D7&assignmentId=42e9ddd5-a033-4b98-b938-993f7d5427a0&projectId=a0a8f18c-a66e-4ba7-a170-23efbdc67501","0AC0102DDDCB46FD97BFAB8C9D3E01D7-2024-11-24-18-42-52","","null","","images/causal_sequence/saving_a_cat_causal/saving_a_cat_causal_5.png","null","",""
"","","","","","image-button-response","134","535673","0.0-16.0-1.0-1.4","0AC0102DDDCB46FD97BFAB8C9D3E01D7","0AC0102DDDCB46FD97BFAB8C9D3E01D7","42e9ddd5-a033-4b98-b938-993f7d5427a0","a0a8f18c-a66e-4ba7-a170-23efbdc67501","{""participantId"":""0AC0102DDDCB46FD97BFAB8C9D3E01D7"",""assignmentId"":""42e9ddd5-a033-4b98-b938-993f7d5427a0"",""projectId"":""a0a8f18c-a66e-4ba7-a170-23efbdc67501""}","https://test12345.live/?participantId=0AC0102DDDCB46FD97BFAB8C9D3E01D7&assignmentId=42e9ddd5-a033-4b98-b938-993f7d5427a0&projectId=a0a8f18c-a66e-4ba7-a170-23efbdc67501","0AC0102DDDCB46FD97BFAB8C9D3E01D7-2024-11-24-18-42-52","","452","","images/causal_sequence/saving_a_cat_causal/saving_a_cat_causal_5.png","0","",""
"","","","","","image-button-response","135","537480","0.0-16.0-1.0-2.4","0AC0102DDDCB46FD97BFAB8C9D3E01D7","0AC0102DDDCB46FD97BFAB8C9D3E01D7","42e9ddd5-a033-4b98-b938-993f7d5427a0","a0a8f18c-a66e-4ba7-a170-23efbdc67501","{""participantId"":""0AC0102DDDCB46FD97BFAB8C9D3E01D7"",""assignmentId"":""42e9ddd5-a033-4b98-b938-993f7d5427a0"",""projectId"":""a0a8f18c-a66e-4ba7-a170-23efbdc67501""}","https://test12345.live/?participantId=0AC0102DDDCB46FD97BFAB8C9D3E01D7&assignmentId=42e9ddd5-a033-4b98-b938-993f7d5427a0&projectId=a0a8f18c-a66e-4ba7-a170-23efbdc67501","0AC0102DDDCB46FD97BFAB8C9D3E01D7-2024-11-24-18-42-52","","null","","[]","null","",""
"","","","","","image-button-response","136","541988","0.0-16.0-1.0-0.5","0AC0102DDDCB46FD97BFAB8C9D3E01D7","0AC0102DDDCB46FD97BFAB8C9D3E01D7","42e9ddd5-a033-4b98-b938-993f7d5427a0","a0a8f18c-a66e-4ba7-a170-23efbdc67501","{""participantId"":""0AC0102DDDCB46FD97BFAB8C9D3E01D7"",""assignmentId"":""42e9ddd5-a033-4b98-b938-993f7d5427a0"",""projectId"":""a0a8f18c-a66e-4ba7-a170-23efbdc67501""}","https://test12345.live/?participantId=0AC0102DDDCB46FD97BFAB8C9D3E01D7&assignmentId=42e9ddd5-a033-4b98-b938-993f7d5427a0&projectId=a0a8f18c-a66e-4ba7-a170-23efbdc67501","0AC0102DDDCB46FD97BFAB8C9D3E01D7-2024-11-24-18-42-52","","null","","images/causal_sequence/saving_a_cat_causal/saving_a_cat_causal_6.png","null","",""
"","","","","","image-button-response","137","542496","0.0-16.0-1.0-1.5","0AC0102DDDCB46FD97BFAB8C9D3E01D7","0AC0102DDDCB46FD97BFAB8C9D3E01D7","42e9ddd5-a033-4b98-b938-993f7d5427a0","a0a8f18c-a66e-4ba7-a170-23efbdc67501","{""participantId"":""0AC0102DDDCB46FD97BFAB8C9D3E01D7"",""assignmentId"":""42e9ddd5-a033-4b98-b938-993f7d5427a0"",""projectId"":""a0a8f18c-a66e-4ba7-a170-23efbdc67501""}","https://test12345.live/?participantId=0AC0102DDDCB46FD97BFAB8C9D3E01D7&assignmentId=42e9ddd5-a033-4b98-b938-993f7d5427a0&projectId=a0a8f18c-a66e-4ba7-a170-23efbdc67501","0AC0102DDDCB46FD97BFAB8C9D3E01D7-2024-11-24-18-42-52","","506","","images/causal_sequence/saving_a_cat_causal/saving_a_cat_causal_6.png","0","",""
"","","","","","image-button-response","138","544300","0.0-16.0-1.0-2.5","0AC0102DDDCB46FD97BFAB8C9D3E01D7","0AC0102DDDCB46FD97BFAB8C9D3E01D7","42e9ddd5-a033-4b98-b938-993f7d5427a0","a0a8f18c-a66e-4ba7-a170-23efbdc67501","{""participantId"":""0AC0102DDDCB46FD97BFAB8C9D3E01D7"",""assignmentId"":""42e9ddd5-a033-4b98-b938-993f7d5427a0"",""projectId"":""a0a8f18c-a66e-4ba7-a170-23efbdc67501""}","https://test12345.live/?participantId=0AC0102DDDCB46FD97BFAB8C9D3E01D7&assignmentId=42e9ddd5-a033-4b98-b938-993f7d5427a0&projectId=a0a8f18c-a66e-4ba7-a170-23efbdc67501","0AC0102DDDCB46FD97BFAB8C9D3E01D7-2024-11-24-18-42-52","","null","","[]","null","",""
"","","","","","image-button-response","139","548803","0.0-16.0-1.0-0.6","0AC0102DDDCB46FD97BFAB8C9D3E01D7","0AC0102DDDCB46FD97BFAB8C9D3E01D7","42e9ddd5-a033-4b98-b938-993f7d5427a0","a0a8f18c-a66e-4ba7-a170-23efbdc67501","{""participantId"":""0AC0102DDDCB46FD97BFAB8C9D3E01D7"",""assignmentId"":""42e9ddd5-a033-4b98-b938-993f7d5427a0"",""projectId"":""a0a8f18c-a66e-4ba7-a170-23efbdc67501""}","https://test12345.live/?participantId=0AC0102DDDCB46FD97BFAB8C9D3E01D7&assignmentId=42e9ddd5-a033-4b98-b938-993f7d5427a0&projectId=a0a8f18c-a66e-4ba7-a170-23efbdc67501","0AC0102DDDCB46FD97BFAB8C9D3E01D7-2024-11-24-18-42-52","","null","","images/causal_sequence/saving_a_cat_causal/saving_a_cat_causal_7.png","null","",""
"","","","","","image-button-response","140","549195","0.0-16.0-1.0-1.6","0AC0102DDDCB46FD97BFAB8C9D3E01D7","0AC0102DDDCB46FD97BFAB8C9D3E01D7","42e9ddd5-a033-4b98-b938-993f7d5427a0","a0a8f18c-a66e-4ba7-a170-23efbdc67501","{""participantId"":""0AC0102DDDCB46FD97BFAB8C9D3E01D7"",""assignmentId"":""42e9ddd5-a033-4b98-b938-993f7d5427a0"",""projectId"":""a0a8f18c-a66e-4ba7-a170-23efbdc67501""}","https://test12345.live/?participantId=0AC0102DDDCB46FD97BFAB8C9D3E01D7&assignmentId=42e9ddd5-a033-4b98-b938-993f7d5427a0&projectId=a0a8f18c-a66e-4ba7-a170-23efbdc67501","0AC0102DDDCB46FD97BFAB8C9D3E01D7-2024-11-24-18-42-52","","390","","images/causal_sequence/saving_a_cat_causal/saving_a_cat_causal_7.png","0","",""
"","","","","","image-button-response","141","551001","0.0-16.0-1.0-2.6","0AC0102DDDCB46FD97BFAB8C9D3E01D7","0AC0102DDDCB46FD97BFAB8C9D3E01D7","42e9ddd5-a033-4b98-b938-993f7d5427a0","a0a8f18c-a66e-4ba7-a170-23efbdc67501","{""participantId"":""0AC0102DDDCB46FD97BFAB8C9D3E01D7"",""assignmentId"":""42e9ddd5-a033-4b98-b938-993f7d5427a0"",""projectId"":""a0a8f18c-a66e-4ba7-a170-23efbdc67501""}","https://test12345.live/?participantId=0AC0102DDDCB46FD97BFAB8C9D3E01D7&assignmentId=42e9ddd5-a033-4b98-b938-993f7d5427a0&projectId=a0a8f18c-a66e-4ba7-a170-23efbdc67501","0AC0102DDDCB46FD97BFAB8C9D3E01D7-2024-11-24-18-42-52","","null","","[]","null","",""
"","","","","","image-button-response","142","555509","0.0-16.0-1.0-0.7","0AC0102DDDCB46FD97BFAB8C9D3E01D7","0AC0102DDDCB46FD97BFAB8C9D3E01D7","42e9ddd5-a033-4b98-b938-993f7d5427a0","a0a8f18c-a66e-4ba7-a170-23efbdc67501","{""participantId"":""0AC0102DDDCB46FD97BFAB8C9D3E01D7"",""assignmentId"":""42e9ddd5-a033-4b98-b938-993f7d5427a0"",""projectId"":""a0a8f18c-a66e-4ba7-a170-23efbdc67501""}","https://test12345.live/?participantId=0AC0102DDDCB46FD97BFAB8C9D3E01D7&assignmentId=42e9ddd5-a033-4b98-b938-993f7d5427a0&projectId=a0a8f18c-a66e-4ba7-a170-23efbdc67501","0AC0102DDDCB46FD97BFAB8C9D3E01D7-2024-11-24-18-42-52","","null","","images/causal_sequence/saving_a_cat_causal/saving_a_cat_causal_8.png","null","",""
"","","","","","image-button-response","143","555973","0.0-16.0-1.0-1.7","0AC0102DDDCB46FD97BFAB8C9D3E01D7","0AC0102DDDCB46FD97BFAB8C9D3E01D7","42e9ddd5-a033-4b98-b938-993f7d5427a0","a0a8f18c-a66e-4ba7-a170-23efbdc67501","{""participantId"":""0AC0102DDDCB46FD97BFAB8C9D3E01D7"",""assignmentId"":""42e9ddd5-a033-4b98-b938-993f7d5427a0"",""projectId"":""a0a8f18c-a66e-4ba7-a170-23efbdc67501""}","https://test12345.live/?participantId=0AC0102DDDCB46FD97BFAB8C9D3E01D7&assignmentId=42e9ddd5-a033-4b98-b938-993f7d5427a0&projectId=a0a8f18c-a66e-4ba7-a170-23efbdc67501","0AC0102DDDCB46FD97BFAB8C9D3E01D7-2024-11-24-18-42-52","","463","","images/causal_sequence/saving_a_cat_causal/saving_a_cat_causal_8.png","0","",""
