"success","timeout","failed_images","failed_audio","failed_video","trial_type","trial_index","time_elapsed","internal_node_id","subject","subject_id","study_id","session_id","urlvar","current_url","view_history","rt","device_id","stimulus","response","estimated_stimulus_onset","seq_name"
"true","false","[]","[]","[]","preload","0","5928","0.0-0.0","0FE09A301659401BA5206B13A64C8AD0","0FE09A301659401BA5206B13A64C8AD0","edc0065f-cb35-416c-98b4-70aaca60e0d1","df079445-14fb-430e-a4ba-0f71c8e82324","{""participantId"":""0FE09A301659401BA5206B13A64C8AD0"",""assignmentId"":""edc0065f-cb35-416c-98b4-70aaca60e0d1"",""projectId"":""df079445-14fb-430e-a4ba-0f71c8e82324""}","https://test12345.live/?participantId=0FE09A301659401BA5206B13A64C8AD0&assignmentId=edc0065f-cb35-416c-98b4-70aaca60e0d1&projectId=df079445-14fb-430e-a4ba-0f71c8e82324","","","","","","",""
"","","","","","instructions","1","42063","0.0-1.0","0FE09A301659401BA5206B13A64C8AD0","0FE09A301659401BA5206B13A64C8AD0","edc0065f-cb35-416c-98b4-70aaca60e0d1","df079445-14fb-430e-a4ba-0f71c8e82324","{""participantId"":""0FE09A301659401BA5206B13A64C8AD0"",""assignmentId"":""edc0065f-cb35-416c-98b4-70aaca60e0d1"",""projectId"":""df079445-14fb-430e-a4ba-0f71c8e82324""}","https://test12345.live/?participantId=0FE09A301659401BA5206B13A64C8AD0&assignmentId=edc0065f-cb35-416c-98b4-70aaca60e0d1&projectId=df079445-14fb-430e-a4ba-0f71c8e82324","[{""page_index"":0,""viewing_time"":36134}]","36135","","","","",""
"","","","","","instructions","2","75473","0.0-2.0","0FE09A301659401BA5206B13A64C8AD0","0FE09A301659401BA5206B13A64C8AD0","edc0065f-cb35-416c-98b4-70aaca60e0d1","df079445-14fb-430e-a4ba-0f71c8e82324","{""participantId"":""0FE09A301659401BA5206B13A64C8AD0"",""assignmentId"":""edc0065f-cb35-416c-98b4-70aaca60e0d1"",""projectId"":""df079445-14fb-430e-a4ba-0f71c8e82324""}","https://test12345.live/?participantId=0FE09A301659401BA5206B13A64C8AD0&assignmentId=edc0065f-cb35-416c-98b4-70aaca60e0d1&projectId=df079445-14fb-430e-a4ba-0f71c8e82324","[{""page_index"":0,""viewing_time"":33409}]","33410","","","","",""
"true","","","","","fullscreen","3","78064","0.0-3.0","0FE09A301659401BA5206B13A64C8AD0","0FE09A301659401BA5206B13A64C8AD0","edc0065f-cb35-416c-98b4-70aaca60e0d1","df079445-14fb-430e-a4ba-0f71c8e82324","{""participantId"":""0FE09A301659401BA5206B13A64C8AD0"",""assignmentId"":""edc0065f-cb35-416c-98b4-70aaca60e0d1"",""projectId"":""df079445-14fb-430e-a4ba-0f71c8e82324""}","https://test12345.live/?participantId=0FE09A301659401BA5206B13A64C8AD0&assignmentId=edc0065f-cb35-416c-98b4-70aaca60e0d1&projectId=df079445-14fb-430e-a4ba-0f71c8e82324","","1585","","","","",""
"","","","","","initialize-microphone","4","86140","0.0-4.0-0.0","0FE09A301659401BA5206B13A64C8AD0","0FE09A301659401BA5206B13A64C8AD0","edc0065f-cb35-416c-98b4-70aaca60e0d1","df079445-14fb-430e-a4ba-0f71c8e82324","{""participantId"":""0FE09A301659401BA5206B13A64C8AD0"",""assignmentId"":""edc0065f-cb35-416c-98b4-70aaca60e0d1"",""projectId"":""df079445-14fb-430e-a4ba-0f71c8e82324""}","https://test12345.live/?participantId=0FE09A301659401BA5206B13A64C8AD0&assignmentId=edc0065f-cb35-416c-98b4-70aaca60e0d1&projectId=df079445-14fb-430e-a4ba-0f71c8e82324","","","ca2581240e86f3c7c6cf27bd97c05f3c26acef429a35795a6f091284956c600c","","","",""
"","","","","","html-audio-response","5","104606","0.0-4.0-1.0","0FE09A301659401BA5206B13A64C8AD0","0FE09A301659401BA5206B13A64C8AD0","edc0065f-cb35-416c-98b4-70aaca60e0d1","df079445-14fb-430e-a4ba-0f71c8e82324","{""participantId"":""0FE09A301659401BA5206B13A64C8AD0"",""assignmentId"":""edc0065f-cb35-416c-98b4-70aaca60e0d1"",""projectId"":""df079445-14fb-430e-a4ba-0f71c8e82324""}","https://test12345.live/?participantId=0FE09A301659401BA5206B13A64C8AD0&assignmentId=edc0065f-cb35-416c-98b4-70aaca60e0d1&projectId=df079445-14fb-430e-a4ba-0f71c8e82324","","6362","","<span style=""color: red; font-size: 24px""> NOW RECORDING</span>
        <p>Please test Microphone</p>","","2",""
"","","","","","html-button-response","6","106973","0.0-4.0-2.0","0FE09A301659401BA5206B13A64C8AD0","0FE09A301659401BA5206B13A64C8AD0","edc0065f-cb35-416c-98b4-70aaca60e0d1","df079445-14fb-430e-a4ba-0f71c8e82324","{""participantId"":""0FE09A301659401BA5206B13A64C8AD0"",""assignmentId"":""edc0065f-cb35-416c-98b4-70aaca60e0d1"",""projectId"":""df079445-14fb-430e-a4ba-0f71c8e82324""}","https://test12345.live/?participantId=0FE09A301659401BA5206B13A64C8AD0&assignmentId=edc0065f-cb35-416c-98b4-70aaca60e0d1&projectId=df079445-14fb-430e-a4ba-0f71c8e82324","","2365","","<p style=""font-size:48px; color:red;"">Is Microphone OK?</p>","1","",""
"","","","","","instructions","7","115082","0.0-5.0","0FE09A301659401BA5206B13A64C8AD0","0FE09A301659401BA5206B13A64C8AD0","edc0065f-cb35-416c-98b4-70aaca60e0d1","df079445-14fb-430e-a4ba-0f71c8e82324","{""participantId"":""0FE09A301659401BA5206B13A64C8AD0"",""assignmentId"":""edc0065f-cb35-416c-98b4-70aaca60e0d1"",""projectId"":""df079445-14fb-430e-a4ba-0f71c8e82324""}","https://test12345.live/?participantId=0FE09A301659401BA5206B13A64C8AD0&assignmentId=edc0065f-cb35-416c-98b4-70aaca60e0d1&projectId=df079445-14fb-430e-a4ba-0f71c8e82324","[{""page_index"":0,""viewing_time"":2868},{""page_index"":1,""viewing_time"":5240}]","8109","","","","",""
"","","","","","image-button-response","8","121091","0.0-6.0-0.0","0FE09A301659401BA5206B13A64C8AD0","0FE09A301659401BA5206B13A64C8AD0","edc0065f-cb35-416c-98b4-70aaca60e0d1","df079445-14fb-430e-a4ba-0f71c8e82324","{""participantId"":""0FE09A301659401BA5206B13A64C8AD0"",""assignmentId"":""edc0065f-cb35-416c-98b4-70aaca60e0d1"",""projectId"":""df079445-14fb-430e-a4ba-0f71c8e82324""}","https://test12345.live/?participantId=0FE09A301659401BA5206B13A64C8AD0&assignmentId=edc0065f-cb35-416c-98b4-70aaca60e0d1&projectId=df079445-14fb-430e-a4ba-0f71c8e82324","","null","","images/instructions/movie_0.png","null","",""
"","","","","","image-button-response","9","125598","0.0-6.0-1.0-0.0","0FE09A301659401BA5206B13A64C8AD0","0FE09A301659401BA5206B13A64C8AD0","edc0065f-cb35-416c-98b4-70aaca60e0d1","df079445-14fb-430e-a4ba-0f71c8e82324","{""participantId"":""0FE09A301659401BA5206B13A64C8AD0"",""assignmentId"":""edc0065f-cb35-416c-98b4-70aaca60e0d1"",""projectId"":""df079445-14fb-430e-a4ba-0f71c8e82324""}","https://test12345.live/?participantId=0FE09A301659401BA5206B13A64C8AD0&assignmentId=edc0065f-cb35-416c-98b4-70aaca60e0d1&projectId=df079445-14fb-430e-a4ba-0f71c8e82324","","null","","images/instructions/movie_1.png","null","",""
"","","","","","image-button-response","10","129607","0.0-6.0-1.0-1.0","0FE09A301659401BA5206B13A64C8AD0","0FE09A301659401BA5206B13A64C8AD0","edc0065f-cb35-416c-98b4-70aaca60e0d1","df079445-14fb-430e-a4ba-0f71c8e82324","{""participantId"":""0FE09A301659401BA5206B13A64C8AD0"",""assignmentId"":""edc0065f-cb35-416c-98b4-70aaca60e0d1"",""projectId"":""df079445-14fb-430e-a4ba-0f71c8e82324""}","https://test12345.live/?participantId=0FE09A301659401BA5206B13A64C8AD0&assignmentId=edc0065f-cb35-416c-98b4-70aaca60e0d1&projectId=df079445-14fb-430e-a4ba-0f71c8e82324","","null","","images/instructions/movie_1.png","null","",""
"","","","","","image-button-response","11","131410","0.0-6.0-1.0-2.0","0FE09A301659401BA5206B13A64C8AD0","0FE09A301659401BA5206B13A64C8AD0","edc0065f-cb35-416c-98b4-70aaca60e0d1","df079445-14fb-430e-a4ba-0f71c8e82324","{""participantId"":""0FE09A301659401BA5206B13A64C8AD0"",""assignmentId"":""edc0065f-cb35-416c-98b4-70aaca60e0d1"",""projectId"":""df079445-14fb-430e-a4ba-0f71c8e82324""}","https://test12345.live/?participantId=0FE09A301659401BA5206B13A64C8AD0&assignmentId=edc0065f-cb35-416c-98b4-70aaca60e0d1&projectId=df079445-14fb-430e-a4ba-0f71c8e82324","","null","","[]","null","",""
"","","","","","image-button-response","12","135917","0.0-6.0-1.0-0.1","0FE09A301659401BA5206B13A64C8AD0","0FE09A301659401BA5206B13A64C8AD0","edc0065f-cb35-416c-98b4-70aaca60e0d1","df079445-14fb-430e-a4ba-0f71c8e82324","{""participantId"":""0FE09A301659401BA5206B13A64C8AD0"",""assignmentId"":""edc0065f-cb35-416c-98b4-70aaca60e0d1"",""projectId"":""df079445-14fb-430e-a4ba-0f71c8e82324""}","https://test12345.live/?participantId=0FE09A301659401BA5206B13A64C8AD0&assignmentId=edc0065f-cb35-416c-98b4-70aaca60e0d1&projectId=df079445-14fb-430e-a4ba-0f71c8e82324","","null","","images/instructions/movie_2.png","null","",""
"","","","","","image-button-response","13","139919","0.0-6.0-1.0-1.1","0FE09A301659401BA5206B13A64C8AD0","0FE09A301659401BA5206B13A64C8AD0","edc0065f-cb35-416c-98b4-70aaca60e0d1","df079445-14fb-430e-a4ba-0f71c8e82324","{""participantId"":""0FE09A301659401BA5206B13A64C8AD0"",""assignmentId"":""edc0065f-cb35-416c-98b4-70aaca60e0d1"",""projectId"":""df079445-14fb-430e-a4ba-0f71c8e82324""}","https://test12345.live/?participantId=0FE09A301659401BA5206B13A64C8AD0&assignmentId=edc0065f-cb35-416c-98b4-70aaca60e0d1&projectId=df079445-14fb-430e-a4ba-0f71c8e82324","","null","","images/instructions/movie_2.png","null","",""
"","","","","","image-button-response","14","141726","0.0-6.0-1.0-2.1","0FE09A301659401BA5206B13A64C8AD0","0FE09A301659401BA5206B13A64C8AD0","edc0065f-cb35-416c-98b4-70aaca60e0d1","df079445-14fb-430e-a4ba-0f71c8e82324","{""participantId"":""0FE09A301659401BA5206B13A64C8AD0"",""assignmentId"":""edc0065f-cb35-416c-98b4-70aaca60e0d1"",""projectId"":""df079445-14fb-430e-a4ba-0f71c8e82324""}","https://test12345.live/?participantId=0FE09A301659401BA5206B13A64C8AD0&assignmentId=edc0065f-cb35-416c-98b4-70aaca60e0d1&projectId=df079445-14fb-430e-a4ba-0f71c8e82324","","null","","[]","null","",""
"","","","","","image-button-response","15","146229","0.0-6.0-1.0-0.2","0FE09A301659401BA5206B13A64C8AD0","0FE09A301659401BA5206B13A64C8AD0","edc0065f-cb35-416c-98b4-70aaca60e0d1","df079445-14fb-430e-a4ba-0f71c8e82324","{""participantId"":""0FE09A301659401BA5206B13A64C8AD0"",""assignmentId"":""edc0065f-cb35-416c-98b4-70aaca60e0d1"",""projectId"":""df079445-14fb-430e-a4ba-0f71c8e82324""}","https://test12345.live/?participantId=0FE09A301659401BA5206B13A64C8AD0&assignmentId=edc0065f-cb35-416c-98b4-70aaca60e0d1&projectId=df079445-14fb-430e-a4ba-0f71c8e82324","","null","","images/instructions/movie_3.png","null","",""
"","","","","","image-button-response","16","147309","0.0-6.0-1.0-1.2","0FE09A301659401BA5206B13A64C8AD0","0FE09A301659401BA5206B13A64C8AD0","edc0065f-cb35-416c-98b4-70aaca60e0d1","df079445-14fb-430e-a4ba-0f71c8e82324","{""participantId"":""0FE09A301659401BA5206B13A64C8AD0"",""assignmentId"":""edc0065f-cb35-416c-98b4-70aaca60e0d1"",""projectId"":""df079445-14fb-430e-a4ba-0f71c8e82324""}","https://test12345.live/?participantId=0FE09A301659401BA5206B13A64C8AD0&assignmentId=edc0065f-cb35-416c-98b4-70aaca60e0d1&projectId=df079445-14fb-430e-a4ba-0f71c8e82324","","1077","","images/instructions/movie_3.png","0","",""
"","","","","","image-button-response","17","149116","0.0-6.0-1.0-2.2","0FE09A301659401BA5206B13A64C8AD0","0FE09A301659401BA5206B13A64C8AD0","edc0065f-cb35-416c-98b4-70aaca60e0d1","df079445-14fb-430e-a4ba-0f71c8e82324","{""participantId"":""0FE09A301659401BA5206B13A64C8AD0"",""assignmentId"":""edc0065f-cb35-416c-98b4-70aaca60e0d1"",""projectId"":""df079445-14fb-430e-a4ba-0f71c8e82324""}","https://test12345.live/?participantId=0FE09A301659401BA5206B13A64C8AD0&assignmentId=edc0065f-cb35-416c-98b4-70aaca60e0d1&projectId=df079445-14fb-430e-a4ba-0f71c8e82324","","null","","[]","null","",""
"","","","","","image-button-response","18","153626","0.0-6.0-1.0-0.3","0FE09A301659401BA5206B13A64C8AD0","0FE09A301659401BA5206B13A64C8AD0","edc0065f-cb35-416c-98b4-70aaca60e0d1","df079445-14fb-430e-a4ba-0f71c8e82324","{""participantId"":""0FE09A301659401BA5206B13A64C8AD0"",""assignmentId"":""edc0065f-cb35-416c-98b4-70aaca60e0d1"",""projectId"":""df079445-14fb-430e-a4ba-0f71c8e82324""}","https://test12345.live/?participantId=0FE09A301659401BA5206B13A64C8AD0&assignmentId=edc0065f-cb35-416c-98b4-70aaca60e0d1&projectId=df079445-14fb-430e-a4ba-0f71c8e82324","","null","","images/instructions/movie_4.png","null","",""
"","","","","","image-button-response","19","155007","0.0-6.0-1.0-1.3","0FE09A301659401BA5206B13A64C8AD0","0FE09A301659401BA5206B13A64C8AD0","edc0065f-cb35-416c-98b4-70aaca60e0d1","df079445-14fb-430e-a4ba-0f71c8e82324","{""participantId"":""0FE09A301659401BA5206B13A64C8AD0"",""assignmentId"":""edc0065f-cb35-416c-98b4-70aaca60e0d1"",""projectId"":""df079445-14fb-430e-a4ba-0f71c8e82324""}","https://test12345.live/?participantId=0FE09A301659401BA5206B13A64C8AD0&assignmentId=edc0065f-cb35-416c-98b4-70aaca60e0d1&projectId=df079445-14fb-430e-a4ba-0f71c8e82324","","1379","","images/instructions/movie_4.png","0","",""
"","","","","","image-button-response","20","156816","0.0-6.0-1.0-2.3","0FE09A301659401BA5206B13A64C8AD0","0FE09A301659401BA5206B13A64C8AD0","edc0065f-cb35-416c-98b4-70aaca60e0d1","df079445-14fb-430e-a4ba-0f71c8e82324","{""participantId"":""0FE09A301659401BA5206B13A64C8AD0"",""assignmentId"":""edc0065f-cb35-416c-98b4-70aaca60e0d1"",""projectId"":""df079445-14fb-430e-a4ba-0f71c8e82324""}","https://test12345.live/?participantId=0FE09A301659401BA5206B13A64C8AD0&assignmentId=edc0065f-cb35-416c-98b4-70aaca60e0d1&projectId=df079445-14fb-430e-a4ba-0f71c8e82324","","null","","[]","null","",""
"","","","","","instructions","21","164079","0.0-7.0","0FE09A301659401BA5206B13A64C8AD0","0FE09A301659401BA5206B13A64C8AD0","edc0065f-cb35-416c-98b4-70aaca60e0d1","df079445-14fb-430e-a4ba-0f71c8e82324","{""participantId"":""0FE09A301659401BA5206B13A64C8AD0"",""assignmentId"":""edc0065f-cb35-416c-98b4-70aaca60e0d1"",""projectId"":""df079445-14fb-430e-a4ba-0f71c8e82324""}","https://test12345.live/?participantId=0FE09A301659401BA5206B13A64C8AD0&assignmentId=edc0065f-cb35-416c-98b4-70aaca60e0d1&projectId=df079445-14fb-430e-a4ba-0f71c8e82324","[{""page_index"":0,""viewing_time"":6022},{""page_index"":1,""viewing_time"":1240}]","7262","","","","",""
"","","","","","html-audio-response","22","185211","0.0-8.0","0FE09A301659401BA5206B13A64C8AD0","0FE09A301659401BA5206B13A64C8AD0","edc0065f-cb35-416c-98b4-70aaca60e0d1","df079445-14fb-430e-a4ba-0f71c8e82324","{""participantId"":""0FE09A301659401BA5206B13A64C8AD0"",""assignmentId"":""edc0065f-cb35-416c-98b4-70aaca60e0d1"",""projectId"":""df079445-14fb-430e-a4ba-0f71c8e82324""}","https://test12345.live/?participantId=0FE09A301659401BA5206B13A64C8AD0&assignmentId=edc0065f-cb35-416c-98b4-70aaca60e0d1&projectId=df079445-14fb-430e-a4ba-0f71c8e82324","","15033","","[""<span style=\""color: red; font-size: 24px\""> NOW RECORDING</span><p>Please say out loud all the images you saw, as many as you can remember. The images can be said in any order.</p>""]","","2",""
"","","","","","instructions","23","187324","0.0-9.0","0FE09A301659401BA5206B13A64C8AD0","0FE09A301659401BA5206B13A64C8AD0","edc0065f-cb35-416c-98b4-70aaca60e0d1","df079445-14fb-430e-a4ba-0f71c8e82324","{""participantId"":""0FE09A301659401BA5206B13A64C8AD0"",""assignmentId"":""edc0065f-cb35-416c-98b4-70aaca60e0d1"",""projectId"":""df079445-14fb-430e-a4ba-0f71c8e82324""}","https://test12345.live/?participantId=0FE09A301659401BA5206B13A64C8AD0&assignmentId=edc0065f-cb35-416c-98b4-70aaca60e0d1&projectId=df079445-14fb-430e-a4ba-0f71c8e82324","[{""page_index"":0,""viewing_time"":2108}]","2108","","","","",""
"","","","","","image-button-response","24","193329","0.0-10.0-0.0","0FE09A301659401BA5206B13A64C8AD0","0FE09A301659401BA5206B13A64C8AD0","edc0065f-cb35-416c-98b4-70aaca60e0d1","df079445-14fb-430e-a4ba-0f71c8e82324","{""participantId"":""0FE09A301659401BA5206B13A64C8AD0"",""assignmentId"":""edc0065f-cb35-416c-98b4-70aaca60e0d1"",""projectId"":""df079445-14fb-430e-a4ba-0f71c8e82324""}","https://test12345.live/?participantId=0FE09A301659401BA5206B13A64C8AD0&assignmentId=edc0065f-cb35-416c-98b4-70aaca60e0d1&projectId=df079445-14fb-430e-a4ba-0f71c8e82324","","null","","images/causal_sequence/museum_causal/museum_causal_0.png","null","",""
"","","","","","image-button-response","25","197837","0.0-10.0-1.0-0.0","0FE09A301659401BA5206B13A64C8AD0","0FE09A301659401BA5206B13A64C8AD0","edc0065f-cb35-416c-98b4-70aaca60e0d1","df079445-14fb-430e-a4ba-0f71c8e82324","{""participantId"":""0FE09A301659401BA5206B13A64C8AD0"",""assignmentId"":""edc0065f-cb35-416c-98b4-70aaca60e0d1"",""projectId"":""df079445-14fb-430e-a4ba-0f71c8e82324""}","https://test12345.live/?participantId=0FE09A301659401BA5206B13A64C8AD0&assignmentId=edc0065f-cb35-416c-98b4-70aaca60e0d1&projectId=df079445-14fb-430e-a4ba-0f71c8e82324","","null","","images/causal_sequence/museum_causal/museum_causal_1.png","null","",""
"","","","","","image-button-response","26","199029","0.0-10.0-1.0-1.0","0FE09A301659401BA5206B13A64C8AD0","0FE09A301659401BA5206B13A64C8AD0","edc0065f-cb35-416c-98b4-70aaca60e0d1","df079445-14fb-430e-a4ba-0f71c8e82324","{""participantId"":""0FE09A301659401BA5206B13A64C8AD0"",""assignmentId"":""edc0065f-cb35-416c-98b4-70aaca60e0d1"",""projectId"":""df079445-14fb-430e-a4ba-0f71c8e82324""}","https://test12345.live/?participantId=0FE09A301659401BA5206B13A64C8AD0&assignmentId=edc0065f-cb35-416c-98b4-70aaca60e0d1&projectId=df079445-14fb-430e-a4ba-0f71c8e82324","","1190","","images/causal_sequence/museum_causal/museum_causal_1.png","0","",""
"","","","","","image-button-response","27","200837","0.0-10.0-1.0-2.0","0FE09A301659401BA5206B13A64C8AD0","0FE09A301659401BA5206B13A64C8AD0","edc0065f-cb35-416c-98b4-70aaca60e0d1","df079445-14fb-430e-a4ba-0f71c8e82324","{""participantId"":""0FE09A301659401BA5206B13A64C8AD0"",""assignmentId"":""edc0065f-cb35-416c-98b4-70aaca60e0d1"",""projectId"":""df079445-14fb-430e-a4ba-0f71c8e82324""}","https://test12345.live/?participantId=0FE09A301659401BA5206B13A64C8AD0&assignmentId=edc0065f-cb35-416c-98b4-70aaca60e0d1&projectId=df079445-14fb-430e-a4ba-0f71c8e82324","","null","","[]","null","",""
"","","","","","image-button-response","28","205345","0.0-10.0-1.0-0.1","0FE09A301659401BA5206B13A64C8AD0","0FE09A301659401BA5206B13A64C8AD0","edc0065f-cb35-416c-98b4-70aaca60e0d1","df079445-14fb-430e-a4ba-0f71c8e82324","{""participantId"":""0FE09A301659401BA5206B13A64C8AD0"",""assignmentId"":""edc0065f-cb35-416c-98b4-70aaca60e0d1"",""projectId"":""df079445-14fb-430e-a4ba-0f71c8e82324""}","https://test12345.live/?participantId=0FE09A301659401BA5206B13A64C8AD0&assignmentId=edc0065f-cb35-416c-98b4-70aaca60e0d1&projectId=df079445-14fb-430e-a4ba-0f71c8e82324","","null","","images/causal_sequence/museum_causal/museum_causal_2.png","null","",""
"","","","","","image-button-response","29","206348","0.0-10.0-1.0-1.1","0FE09A301659401BA5206B13A64C8AD0","0FE09A301659401BA5206B13A64C8AD0","edc0065f-cb35-416c-98b4-70aaca60e0d1","df079445-14fb-430e-a4ba-0f71c8e82324","{""participantId"":""0FE09A301659401BA5206B13A64C8AD0"",""assignmentId"":""edc0065f-cb35-416c-98b4-70aaca60e0d1"",""projectId"":""df079445-14fb-430e-a4ba-0f71c8e82324""}","https://test12345.live/?participantId=0FE09A301659401BA5206B13A64C8AD0&assignmentId=edc0065f-cb35-416c-98b4-70aaca60e0d1&projectId=df079445-14fb-430e-a4ba-0f71c8e82324","","1000","","images/causal_sequence/museum_causal/museum_causal_2.png","0","",""
"","","","","","image-button-response","30","208155","0.0-10.0-1.0-2.1","0FE09A301659401BA5206B13A64C8AD0","0FE09A301659401BA5206B13A64C8AD0","edc0065f-cb35-416c-98b4-70aaca60e0d1","df079445-14fb-430e-a4ba-0f71c8e82324","{""participantId"":""0FE09A301659401BA5206B13A64C8AD0"",""assignmentId"":""edc0065f-cb35-416c-98b4-70aaca60e0d1"",""projectId"":""df079445-14fb-430e-a4ba-0f71c8e82324""}","https://test12345.live/?participantId=0FE09A301659401BA5206B13A64C8AD0&assignmentId=edc0065f-cb35-416c-98b4-70aaca60e0d1&projectId=df079445-14fb-430e-a4ba-0f71c8e82324","","null","","[]","null","",""
"","","","","","image-button-response","31","212658","0.0-10.0-1.0-0.2","0FE09A301659401BA5206B13A64C8AD0","0FE09A301659401BA5206B13A64C8AD0","edc0065f-cb35-416c-98b4-70aaca60e0d1","df079445-14fb-430e-a4ba-0f71c8e82324","{""participantId"":""0FE09A301659401BA5206B13A64C8AD0"",""assignmentId"":""edc0065f-cb35-416c-98b4-70aaca60e0d1"",""projectId"":""df079445-14fb-430e-a4ba-0f71c8e82324""}","https://test12345.live/?participantId=0FE09A301659401BA5206B13A64C8AD0&assignmentId=edc0065f-cb35-416c-98b4-70aaca60e0d1&projectId=df079445-14fb-430e-a4ba-0f71c8e82324","","null","","images/causal_sequence/museum_causal/museum_causal_3.png","null","",""
"","","","","","image-button-response","32","213595","0.0-10.0-1.0-1.2","0FE09A301659401BA5206B13A64C8AD0","0FE09A301659401BA5206B13A64C8AD0","edc0065f-cb35-416c-98b4-70aaca60e0d1","df079445-14fb-430e-a4ba-0f71c8e82324","{""participantId"":""0FE09A301659401BA5206B13A64C8AD0"",""assignmentId"":""edc0065f-cb35-416c-98b4-70aaca60e0d1"",""projectId"":""df079445-14fb-430e-a4ba-0f71c8e82324""}","https://test12345.live/?participantId=0FE09A301659401BA5206B13A64C8AD0&assignmentId=edc0065f-cb35-416c-98b4-70aaca60e0d1&projectId=df079445-14fb-430e-a4ba-0f71c8e82324","","935","","images/causal_sequence/museum_causal/museum_causal_3.png","0","",""
"","","","","","image-button-response","33","215401","0.0-10.0-1.0-2.2","0FE09A301659401BA5206B13A64C8AD0","0FE09A301659401BA5206B13A64C8AD0","edc0065f-cb35-416c-98b4-70aaca60e0d1","df079445-14fb-430e-a4ba-0f71c8e82324","{""participantId"":""0FE09A301659401BA5206B13A64C8AD0"",""assignmentId"":""edc0065f-cb35-416c-98b4-70aaca60e0d1"",""projectId"":""df079445-14fb-430e-a4ba-0f71c8e82324""}","https://test12345.live/?participantId=0FE09A301659401BA5206B13A64C8AD0&assignmentId=edc0065f-cb35-416c-98b4-70aaca60e0d1&projectId=df079445-14fb-430e-a4ba-0f71c8e82324","","null","","[]","null","",""
"","","","","","image-button-response","34","219904","0.0-10.0-1.0-0.3","0FE09A301659401BA5206B13A64C8AD0","0FE09A301659401BA5206B13A64C8AD0","edc0065f-cb35-416c-98b4-70aaca60e0d1","df079445-14fb-430e-a4ba-0f71c8e82324","{""participantId"":""0FE09A301659401BA5206B13A64C8AD0"",""assignmentId"":""edc0065f-cb35-416c-98b4-70aaca60e0d1"",""projectId"":""df079445-14fb-430e-a4ba-0f71c8e82324""}","https://test12345.live/?participantId=0FE09A301659401BA5206B13A64C8AD0&assignmentId=edc0065f-cb35-416c-98b4-70aaca60e0d1&projectId=df079445-14fb-430e-a4ba-0f71c8e82324","","null","","images/causal_sequence/museum_causal/museum_causal_4.png","null","",""
"","","","","","image-button-response","35","220670","0.0-10.0-1.0-1.3","0FE09A301659401BA5206B13A64C8AD0","0FE09A301659401BA5206B13A64C8AD0","edc0065f-cb35-416c-98b4-70aaca60e0d1","df079445-14fb-430e-a4ba-0f71c8e82324","{""participantId"":""0FE09A301659401BA5206B13A64C8AD0"",""assignmentId"":""edc0065f-cb35-416c-98b4-70aaca60e0d1"",""projectId"":""df079445-14fb-430e-a4ba-0f71c8e82324""}","https://test12345.live/?participantId=0FE09A301659401BA5206B13A64C8AD0&assignmentId=edc0065f-cb35-416c-98b4-70aaca60e0d1&projectId=df079445-14fb-430e-a4ba-0f71c8e82324","","764","","images/causal_sequence/museum_causal/museum_causal_4.png","1","",""
"","","","","","image-button-response","36","222476","0.0-10.0-1.0-2.3","0FE09A301659401BA5206B13A64C8AD0","0FE09A301659401BA5206B13A64C8AD0","edc0065f-cb35-416c-98b4-70aaca60e0d1","df079445-14fb-430e-a4ba-0f71c8e82324","{""participantId"":""0FE09A301659401BA5206B13A64C8AD0"",""assignmentId"":""edc0065f-cb35-416c-98b4-70aaca60e0d1"",""projectId"":""df079445-14fb-430e-a4ba-0f71c8e82324""}","https://test12345.live/?participantId=0FE09A301659401BA5206B13A64C8AD0&assignmentId=edc0065f-cb35-416c-98b4-70aaca60e0d1&projectId=df079445-14fb-430e-a4ba-0f71c8e82324","","null","","[]","null","",""
"","","","","","image-button-response","37","226982","0.0-10.0-1.0-0.4","0FE09A301659401BA5206B13A64C8AD0","0FE09A301659401BA5206B13A64C8AD0","edc0065f-cb35-416c-98b4-70aaca60e0d1","df079445-14fb-430e-a4ba-0f71c8e82324","{""participantId"":""0FE09A301659401BA5206B13A64C8AD0"",""assignmentId"":""edc0065f-cb35-416c-98b4-70aaca60e0d1"",""projectId"":""df079445-14fb-430e-a4ba-0f71c8e82324""}","https://test12345.live/?participantId=0FE09A301659401BA5206B13A64C8AD0&assignmentId=edc0065f-cb35-416c-98b4-70aaca60e0d1&projectId=df079445-14fb-430e-a4ba-0f71c8e82324","","null","","images/causal_sequence/museum_causal/museum_causal_5.png","null","",""
"","","","","","image-button-response","38","227977","0.0-10.0-1.0-1.4","0FE09A301659401BA5206B13A64C8AD0","0FE09A301659401BA5206B13A64C8AD0","edc0065f-cb35-416c-98b4-70aaca60e0d1","df079445-14fb-430e-a4ba-0f71c8e82324","{""participantId"":""0FE09A301659401BA5206B13A64C8AD0"",""assignmentId"":""edc0065f-cb35-416c-98b4-70aaca60e0d1"",""projectId"":""df079445-14fb-430e-a4ba-0f71c8e82324""}","https://test12345.live/?participantId=0FE09A301659401BA5206B13A64C8AD0&assignmentId=edc0065f-cb35-416c-98b4-70aaca60e0d1&projectId=df079445-14fb-430e-a4ba-0f71c8e82324","","992","","images/causal_sequence/museum_causal/museum_causal_5.png","0","",""
"","","","","","image-button-response","39","229784","0.0-10.0-1.0-2.4","0FE09A301659401BA5206B13A64C8AD0","0FE09A301659401BA5206B13A64C8AD0","edc0065f-cb35-416c-98b4-70aaca60e0d1","df079445-14fb-430e-a4ba-0f71c8e82324","{""participantId"":""0FE09A301659401BA5206B13A64C8AD0"",""assignmentId"":""edc0065f-cb35-416c-98b4-70aaca60e0d1"",""projectId"":""df079445-14fb-430e-a4ba-0f71c8e82324""}","https://test12345.live/?participantId=0FE09A301659401BA5206B13A64C8AD0&assignmentId=edc0065f-cb35-416c-98b4-70aaca60e0d1&projectId=df079445-14fb-430e-a4ba-0f71c8e82324","","null","","[]","null","",""
"","","","","","image-button-response","40","234289","0.0-10.0-1.0-0.5","0FE09A301659401BA5206B13A64C8AD0","0FE09A301659401BA5206B13A64C8AD0","edc0065f-cb35-416c-98b4-70aaca60e0d1","df079445-14fb-430e-a4ba-0f71c8e82324","{""participantId"":""0FE09A301659401BA5206B13A64C8AD0"",""assignmentId"":""edc0065f-cb35-416c-98b4-70aaca60e0d1"",""projectId"":""df079445-14fb-430e-a4ba-0f71c8e82324""}","https://test12345.live/?participantId=0FE09A301659401BA5206B13A64C8AD0&assignmentId=edc0065f-cb35-416c-98b4-70aaca60e0d1&projectId=df079445-14fb-430e-a4ba-0f71c8e82324","","null","","images/causal_sequence/museum_causal/museum_causal_6.png","null","",""
"","","","","","image-button-response","41","235512","0.0-10.0-1.0-1.5","0FE09A301659401BA5206B13A64C8AD0","0FE09A301659401BA5206B13A64C8AD0","edc0065f-cb35-416c-98b4-70aaca60e0d1","df079445-14fb-430e-a4ba-0f71c8e82324","{""participantId"":""0FE09A301659401BA5206B13A64C8AD0"",""assignmentId"":""edc0065f-cb35-416c-98b4-70aaca60e0d1"",""projectId"":""df079445-14fb-430e-a4ba-0f71c8e82324""}","https://test12345.live/?participantId=0FE09A301659401BA5206B13A64C8AD0&assignmentId=edc0065f-cb35-416c-98b4-70aaca60e0d1&projectId=df079445-14fb-430e-a4ba-0f71c8e82324","","1221","","images/causal_sequence/museum_causal/museum_causal_6.png","0","",""
"","","","","","image-button-response","42","237315","0.0-10.0-1.0-2.5","0FE09A301659401BA5206B13A64C8AD0","0FE09A301659401BA5206B13A64C8AD0","edc0065f-cb35-416c-98b4-70aaca60e0d1","df079445-14fb-430e-a4ba-0f71c8e82324","{""participantId"":""0FE09A301659401BA5206B13A64C8AD0"",""assignmentId"":""edc0065f-cb35-416c-98b4-70aaca60e0d1"",""projectId"":""df079445-14fb-430e-a4ba-0f71c8e82324""}","https://test12345.live/?participantId=0FE09A301659401BA5206B13A64C8AD0&assignmentId=edc0065f-cb35-416c-98b4-70aaca60e0d1&projectId=df079445-14fb-430e-a4ba-0f71c8e82324","","null","","[]","null","",""
"","","","","","image-button-response","43","241818","0.0-10.0-1.0-0.6","0FE09A301659401BA5206B13A64C8AD0","0FE09A301659401BA5206B13A64C8AD0","edc0065f-cb35-416c-98b4-70aaca60e0d1","df079445-14fb-430e-a4ba-0f71c8e82324","{""participantId"":""0FE09A301659401BA5206B13A64C8AD0"",""assignmentId"":""edc0065f-cb35-416c-98b4-70aaca60e0d1"",""projectId"":""df079445-14fb-430e-a4ba-0f71c8e82324""}","https://test12345.live/?participantId=0FE09A301659401BA5206B13A64C8AD0&assignmentId=edc0065f-cb35-416c-98b4-70aaca60e0d1&projectId=df079445-14fb-430e-a4ba-0f71c8e82324","","null","","images/causal_sequence/museum_causal/museum_causal_7.png","null","",""
"","","","","","image-button-response","44","242676","0.0-10.0-1.0-1.6","0FE09A301659401BA5206B13A64C8AD0","0FE09A301659401BA5206B13A64C8AD0","edc0065f-cb35-416c-98b4-70aaca60e0d1","df079445-14fb-430e-a4ba-0f71c8e82324","{""participantId"":""0FE09A301659401BA5206B13A64C8AD0"",""assignmentId"":""edc0065f-cb35-416c-98b4-70aaca60e0d1"",""projectId"":""df079445-14fb-430e-a4ba-0f71c8e82324""}","https://test12345.live/?participantId=0FE09A301659401BA5206B13A64C8AD0&assignmentId=edc0065f-cb35-416c-98b4-70aaca60e0d1&projectId=df079445-14fb-430e-a4ba-0f71c8e82324","","857","","images/causal_sequence/museum_causal/museum_causal_7.png","1","",""
"","","","","","image-button-response","45","244484","0.0-10.0-1.0-2.6","0FE09A301659401BA5206B13A64C8AD0","0FE09A301659401BA5206B13A64C8AD0","edc0065f-cb35-416c-98b4-70aaca60e0d1","df079445-14fb-430e-a4ba-0f71c8e82324","{""participantId"":""0FE09A301659401BA5206B13A64C8AD0"",""assignmentId"":""edc0065f-cb35-416c-98b4-70aaca60e0d1"",""projectId"":""df079445-14fb-430e-a4ba-0f71c8e82324""}","https://test12345.live/?participantId=0FE09A301659401BA5206B13A64C8AD0&assignmentId=edc0065f-cb35-416c-98b4-70aaca60e0d1&projectId=df079445-14fb-430e-a4ba-0f71c8e82324","","null","","[]","null","",""
"","","","","","image-button-response","46","248988","0.0-10.0-1.0-0.7","0FE09A301659401BA5206B13A64C8AD0","0FE09A301659401BA5206B13A64C8AD0","edc0065f-cb35-416c-98b4-70aaca60e0d1","df079445-14fb-430e-a4ba-0f71c8e82324","{""participantId"":""0FE09A301659401BA5206B13A64C8AD0"",""assignmentId"":""edc0065f-cb35-416c-98b4-70aaca60e0d1"",""projectId"":""df079445-14fb-430e-a4ba-0f71c8e82324""}","https://test12345.live/?participantId=0FE09A301659401BA5206B13A64C8AD0&assignmentId=edc0065f-cb35-416c-98b4-70aaca60e0d1&projectId=df079445-14fb-430e-a4ba-0f71c8e82324","","null","","images/causal_sequence/museum_causal/museum_causal_8.png","null","",""
"","","","","","image-button-response","47","249867","0.0-10.0-1.0-1.7","0FE09A301659401BA5206B13A64C8AD0","0FE09A301659401BA5206B13A64C8AD0","edc0065f-cb35-416c-98b4-70aaca60e0d1","df079445-14fb-430e-a4ba-0f71c8e82324","{""participantId"":""0FE09A301659401BA5206B13A64C8AD0"",""assignmentId"":""edc0065f-cb35-416c-98b4-70aaca60e0d1"",""projectId"":""df079445-14fb-430e-a4ba-0f71c8e82324""}","https://test12345.live/?participantId=0FE09A301659401BA5206B13A64C8AD0&assignmentId=edc0065f-cb35-416c-98b4-70aaca60e0d1&projectId=df079445-14fb-430e-a4ba-0f71c8e82324","","877","","images/causal_sequence/museum_causal/museum_causal_8.png","0","",""
"","","","","","image-button-response","48","251675","0.0-10.0-1.0-2.7","0FE09A301659401BA5206B13A64C8AD0","0FE09A301659401BA5206B13A64C8AD0","edc0065f-cb35-416c-98b4-70aaca60e0d1","df079445-14fb-430e-a4ba-0f71c8e82324","{""participantId"":""0FE09A301659401BA5206B13A64C8AD0"",""assignmentId"":""edc0065f-cb35-416c-98b4-70aaca60e0d1"",""projectId"":""df079445-14fb-430e-a4ba-0f71c8e82324""}","https://test12345.live/?participantId=0FE09A301659401BA5206B13A64C8AD0&assignmentId=edc0065f-cb35-416c-98b4-70aaca60e0d1&projectId=df079445-14fb-430e-a4ba-0f71c8e82324","","null","","[]","null","",""
"","","","","","image-button-response","49","256182","0.0-10.0-1.0-0.8","0FE09A301659401BA5206B13A64C8AD0","0FE09A301659401BA5206B13A64C8AD0","edc0065f-cb35-416c-98b4-70aaca60e0d1","df079445-14fb-430e-a4ba-0f71c8e82324","{""participantId"":""0FE09A301659401BA5206B13A64C8AD0"",""assignmentId"":""edc0065f-cb35-416c-98b4-70aaca60e0d1"",""projectId"":""df079445-14fb-430e-a4ba-0f71c8e82324""}","https://test12345.live/?participantId=0FE09A301659401BA5206B13A64C8AD0&assignmentId=edc0065f-cb35-416c-98b4-70aaca60e0d1&projectId=df079445-14fb-430e-a4ba-0f71c8e82324","","null","","images/causal_sequence/museum_causal/museum_causal_9.png","null","",""
"","","","","","image-button-response","50","257026","0.0-10.0-1.0-1.8","0FE09A301659401BA5206B13A64C8AD0","0FE09A301659401BA5206B13A64C8AD0","edc0065f-cb35-416c-98b4-70aaca60e0d1","df079445-14fb-430e-a4ba-0f71c8e82324","{""participantId"":""0FE09A301659401BA5206B13A64C8AD0"",""assignmentId"":""edc0065f-cb35-416c-98b4-70aaca60e0d1"",""projectId"":""df079445-14fb-430e-a4ba-0f71c8e82324""}","https://test12345.live/?participantId=0FE09A301659401BA5206B13A64C8AD0&assignmentId=edc0065f-cb35-416c-98b4-70aaca60e0d1&projectId=df079445-14fb-430e-a4ba-0f71c8e82324","","840","","images/causal_sequence/museum_causal/museum_causal_9.png","1","",""
"","","","","","image-button-response","51","258835","0.0-10.0-1.0-2.8","0FE09A301659401BA5206B13A64C8AD0","0FE09A301659401BA5206B13A64C8AD0","edc0065f-cb35-416c-98b4-70aaca60e0d1","df079445-14fb-430e-a4ba-0f71c8e82324","{""participantId"":""0FE09A301659401BA5206B13A64C8AD0"",""assignmentId"":""edc0065f-cb35-416c-98b4-70aaca60e0d1"",""projectId"":""df079445-14fb-430e-a4ba-0f71c8e82324""}","https://test12345.live/?participantId=0FE09A301659401BA5206B13A64C8AD0&assignmentId=edc0065f-cb35-416c-98b4-70aaca60e0d1&projectId=df079445-14fb-430e-a4ba-0f71c8e82324","","null","","[]","null","",""
"","","","","","image-button-response","52","263341","0.0-10.0-1.0-0.9","0FE09A301659401BA5206B13A64C8AD0","0FE09A301659401BA5206B13A64C8AD0","edc0065f-cb35-416c-98b4-70aaca60e0d1","df079445-14fb-430e-a4ba-0f71c8e82324","{""participantId"":""0FE09A301659401BA5206B13A64C8AD0"",""assignmentId"":""edc0065f-cb35-416c-98b4-70aaca60e0d1"",""projectId"":""df079445-14fb-430e-a4ba-0f71c8e82324""}","https://test12345.live/?participantId=0FE09A301659401BA5206B13A64C8AD0&assignmentId=edc0065f-cb35-416c-98b4-70aaca60e0d1&projectId=df079445-14fb-430e-a4ba-0f71c8e82324","","null","","images/causal_sequence/museum_causal/museum_causal_ten.png","null","",""
"","","","","","image-button-response","53","264379","0.0-10.0-1.0-1.9","0FE09A301659401BA5206B13A64C8AD0","0FE09A301659401BA5206B13A64C8AD0","edc0065f-cb35-416c-98b4-70aaca60e0d1","df079445-14fb-430e-a4ba-0f71c8e82324","{""participantId"":""0FE09A301659401BA5206B13A64C8AD0"",""assignmentId"":""edc0065f-cb35-416c-98b4-70aaca60e0d1"",""projectId"":""df079445-14fb-430e-a4ba-0f71c8e82324""}","https://test12345.live/?participantId=0FE09A301659401BA5206B13A64C8AD0&assignmentId=edc0065f-cb35-416c-98b4-70aaca60e0d1&projectId=df079445-14fb-430e-a4ba-0f71c8e82324","","1034","","images/causal_sequence/museum_causal/museum_causal_ten.png","0","",""
"","","","","","image-button-response","54","266185","0.0-10.0-1.0-2.9","0FE09A301659401BA5206B13A64C8AD0","0FE09A301659401BA5206B13A64C8AD0","edc0065f-cb35-416c-98b4-70aaca60e0d1","df079445-14fb-430e-a4ba-0f71c8e82324","{""participantId"":""0FE09A301659401BA5206B13A64C8AD0"",""assignmentId"":""edc0065f-cb35-416c-98b4-70aaca60e0d1"",""projectId"":""df079445-14fb-430e-a4ba-0f71c8e82324""}","https://test12345.live/?participantId=0FE09A301659401BA5206B13A64C8AD0&assignmentId=edc0065f-cb35-416c-98b4-70aaca60e0d1&projectId=df079445-14fb-430e-a4ba-0f71c8e82324","","null","","[]","null","",""
"","","","","","html-audio-response","55","302736","0.0-11.0","0FE09A301659401BA5206B13A64C8AD0","0FE09A301659401BA5206B13A64C8AD0","edc0065f-cb35-416c-98b4-70aaca60e0d1","df079445-14fb-430e-a4ba-0f71c8e82324","{""participantId"":""0FE09A301659401BA5206B13A64C8AD0"",""assignmentId"":""edc0065f-cb35-416c-98b4-70aaca60e0d1"",""projectId"":""df079445-14fb-430e-a4ba-0f71c8e82324""}","https://test12345.live/?participantId=0FE09A301659401BA5206B13A64C8AD0&assignmentId=edc0065f-cb35-416c-98b4-70aaca60e0d1&projectId=df079445-14fb-430e-a4ba-0f71c8e82324","","35605","","[""<span style=\""color: red; font-size: 24px\""> NOW RECORDING</span><p>Please say out loud all the images you saw, as many as you can remember. The images can be said in any order.</p>""]","","10","museum_causal"
"","","","","","image-button-response","56","308754","0.0-12.0-0.0","0FE09A301659401BA5206B13A64C8AD0","0FE09A301659401BA5206B13A64C8AD0","edc0065f-cb35-416c-98b4-70aaca60e0d1","df079445-14fb-430e-a4ba-0f71c8e82324","{""participantId"":""0FE09A301659401BA5206B13A64C8AD0"",""assignmentId"":""edc0065f-cb35-416c-98b4-70aaca60e0d1"",""projectId"":""df079445-14fb-430e-a4ba-0f71c8e82324""}","https://test12345.live/?participantId=0FE09A301659401BA5206B13A64C8AD0&assignmentId=edc0065f-cb35-416c-98b4-70aaca60e0d1&projectId=df079445-14fb-430e-a4ba-0f71c8e82324","","null","","images/semantic_sequence/using_technology_semantic/using_technology_semantic_0.png","null","",""
"","","","","","image-button-response","57","313255","0.0-12.0-1.0-0.0","0FE09A301659401BA5206B13A64C8AD0","0FE09A301659401BA5206B13A64C8AD0","edc0065f-cb35-416c-98b4-70aaca60e0d1","df079445-14fb-430e-a4ba-0f71c8e82324","{""participantId"":""0FE09A301659401BA5206B13A64C8AD0"",""assignmentId"":""edc0065f-cb35-416c-98b4-70aaca60e0d1"",""projectId"":""df079445-14fb-430e-a4ba-0f71c8e82324""}","https://test12345.live/?participantId=0FE09A301659401BA5206B13A64C8AD0&assignmentId=edc0065f-cb35-416c-98b4-70aaca60e0d1&projectId=df079445-14fb-430e-a4ba-0f71c8e82324","","null","","images/semantic_sequence/using_technology_semantic/using_technology_semantic_1.png","null","",""
"","","","","","image-button-response","58","314056","0.0-12.0-1.0-1.0","0FE09A301659401BA5206B13A64C8AD0","0FE09A301659401BA5206B13A64C8AD0","edc0065f-cb35-416c-98b4-70aaca60e0d1","df079445-14fb-430e-a4ba-0f71c8e82324","{""participantId"":""0FE09A301659401BA5206B13A64C8AD0"",""assignmentId"":""edc0065f-cb35-416c-98b4-70aaca60e0d1"",""projectId"":""df079445-14fb-430e-a4ba-0f71c8e82324""}","https://test12345.live/?participantId=0FE09A301659401BA5206B13A64C8AD0&assignmentId=edc0065f-cb35-416c-98b4-70aaca60e0d1&projectId=df079445-14fb-430e-a4ba-0f71c8e82324","","799","","images/semantic_sequence/using_technology_semantic/using_technology_semantic_1.png","0","",""
"","","","","","image-button-response","59","315863","0.0-12.0-1.0-2.0","0FE09A301659401BA5206B13A64C8AD0","0FE09A301659401BA5206B13A64C8AD0","edc0065f-cb35-416c-98b4-70aaca60e0d1","df079445-14fb-430e-a4ba-0f71c8e82324","{""participantId"":""0FE09A301659401BA5206B13A64C8AD0"",""assignmentId"":""edc0065f-cb35-416c-98b4-70aaca60e0d1"",""projectId"":""df079445-14fb-430e-a4ba-0f71c8e82324""}","https://test12345.live/?participantId=0FE09A301659401BA5206B13A64C8AD0&assignmentId=edc0065f-cb35-416c-98b4-70aaca60e0d1&projectId=df079445-14fb-430e-a4ba-0f71c8e82324","","null","","[]","null","",""
"","","","","","image-button-response","60","320370","0.0-12.0-1.0-0.1","0FE09A301659401BA5206B13A64C8AD0","0FE09A301659401BA5206B13A64C8AD0","edc0065f-cb35-416c-98b4-70aaca60e0d1","df079445-14fb-430e-a4ba-0f71c8e82324","{""participantId"":""0FE09A301659401BA5206B13A64C8AD0"",""assignmentId"":""edc0065f-cb35-416c-98b4-70aaca60e0d1"",""projectId"":""df079445-14fb-430e-a4ba-0f71c8e82324""}","https://test12345.live/?participantId=0FE09A301659401BA5206B13A64C8AD0&assignmentId=edc0065f-cb35-416c-98b4-70aaca60e0d1&projectId=df079445-14fb-430e-a4ba-0f71c8e82324","","null","","images/semantic_sequence/using_technology_semantic/using_technology_semantic_2.png","null","",""
"","","","","","image-button-response","61","321338","0.0-12.0-1.0-1.1","0FE09A301659401BA5206B13A64C8AD0","0FE09A301659401BA5206B13A64C8AD0","edc0065f-cb35-416c-98b4-70aaca60e0d1","df079445-14fb-430e-a4ba-0f71c8e82324","{""participantId"":""0FE09A301659401BA5206B13A64C8AD0"",""assignmentId"":""edc0065f-cb35-416c-98b4-70aaca60e0d1"",""projectId"":""df079445-14fb-430e-a4ba-0f71c8e82324""}","https://test12345.live/?participantId=0FE09A301659401BA5206B13A64C8AD0&assignmentId=edc0065f-cb35-416c-98b4-70aaca60e0d1&projectId=df079445-14fb-430e-a4ba-0f71c8e82324","","965","","images/semantic_sequence/using_technology_semantic/using_technology_semantic_2.png","0","",""
"","","","","","image-button-response","62","323143","0.0-12.0-1.0-2.1","0FE09A301659401BA5206B13A64C8AD0","0FE09A301659401BA5206B13A64C8AD0","edc0065f-cb35-416c-98b4-70aaca60e0d1","df079445-14fb-430e-a4ba-0f71c8e82324","{""participantId"":""0FE09A301659401BA5206B13A64C8AD0"",""assignmentId"":""edc0065f-cb35-416c-98b4-70aaca60e0d1"",""projectId"":""df079445-14fb-430e-a4ba-0f71c8e82324""}","https://test12345.live/?participantId=0FE09A301659401BA5206B13A64C8AD0&assignmentId=edc0065f-cb35-416c-98b4-70aaca60e0d1&projectId=df079445-14fb-430e-a4ba-0f71c8e82324","","null","","[]","null","",""
"","","","","","image-button-response","63","327648","0.0-12.0-1.0-0.2","0FE09A301659401BA5206B13A64C8AD0","0FE09A301659401BA5206B13A64C8AD0","edc0065f-cb35-416c-98b4-70aaca60e0d1","df079445-14fb-430e-a4ba-0f71c8e82324","{""participantId"":""0FE09A301659401BA5206B13A64C8AD0"",""assignmentId"":""edc0065f-cb35-416c-98b4-70aaca60e0d1"",""projectId"":""df079445-14fb-430e-a4ba-0f71c8e82324""}","https://test12345.live/?participantId=0FE09A301659401BA5206B13A64C8AD0&assignmentId=edc0065f-cb35-416c-98b4-70aaca60e0d1&projectId=df079445-14fb-430e-a4ba-0f71c8e82324","","null","","images/semantic_sequence/using_technology_semantic/using_technology_semantic_3.png","null","",""
"","","","","","image-button-response","64","328436","0.0-12.0-1.0-1.2","0FE09A301659401BA5206B13A64C8AD0","0FE09A301659401BA5206B13A64C8AD0","edc0065f-cb35-416c-98b4-70aaca60e0d1","df079445-14fb-430e-a4ba-0f71c8e82324","{""participantId"":""0FE09A301659401BA5206B13A64C8AD0"",""assignmentId"":""edc0065f-cb35-416c-98b4-70aaca60e0d1"",""projectId"":""df079445-14fb-430e-a4ba-0f71c8e82324""}","https://test12345.live/?participantId=0FE09A301659401BA5206B13A64C8AD0&assignmentId=edc0065f-cb35-416c-98b4-70aaca60e0d1&projectId=df079445-14fb-430e-a4ba-0f71c8e82324","","786","","images/semantic_sequence/using_technology_semantic/using_technology_semantic_3.png","0","",""
"","","","","","image-button-response","65","330243","0.0-12.0-1.0-2.2","0FE09A301659401BA5206B13A64C8AD0","0FE09A301659401BA5206B13A64C8AD0","edc0065f-cb35-416c-98b4-70aaca60e0d1","df079445-14fb-430e-a4ba-0f71c8e82324","{""participantId"":""0FE09A301659401BA5206B13A64C8AD0"",""assignmentId"":""edc0065f-cb35-416c-98b4-70aaca60e0d1"",""projectId"":""df079445-14fb-430e-a4ba-0f71c8e82324""}","https://test12345.live/?participantId=0FE09A301659401BA5206B13A64C8AD0&assignmentId=edc0065f-cb35-416c-98b4-70aaca60e0d1&projectId=df079445-14fb-430e-a4ba-0f71c8e82324","","null","","[]","null","",""
"","","","","","image-button-response","66","334747","0.0-12.0-1.0-0.3","0FE09A301659401BA5206B13A64C8AD0","0FE09A301659401BA5206B13A64C8AD0","edc0065f-cb35-416c-98b4-70aaca60e0d1","df079445-14fb-430e-a4ba-0f71c8e82324","{""participantId"":""0FE09A301659401BA5206B13A64C8AD0"",""assignmentId"":""edc0065f-cb35-416c-98b4-70aaca60e0d1"",""projectId"":""df079445-14fb-430e-a4ba-0f71c8e82324""}","https://test12345.live/?participantId=0FE09A301659401BA5206B13A64C8AD0&assignmentId=edc0065f-cb35-416c-98b4-70aaca60e0d1&projectId=df079445-14fb-430e-a4ba-0f71c8e82324","","null","","images/semantic_sequence/using_technology_semantic/using_technology_semantic_4.png","null","",""
"","","","","","image-button-response","67","335586","0.0-12.0-1.0-1.3","0FE09A301659401BA5206B13A64C8AD0","0FE09A301659401BA5206B13A64C8AD0","edc0065f-cb35-416c-98b4-70aaca60e0d1","df079445-14fb-430e-a4ba-0f71c8e82324","{""participantId"":""0FE09A301659401BA5206B13A64C8AD0"",""assignmentId"":""edc0065f-cb35-416c-98b4-70aaca60e0d1"",""projectId"":""df079445-14fb-430e-a4ba-0f71c8e82324""}","https://test12345.live/?participantId=0FE09A301659401BA5206B13A64C8AD0&assignmentId=edc0065f-cb35-416c-98b4-70aaca60e0d1&projectId=df079445-14fb-430e-a4ba-0f71c8e82324","","836","","images/semantic_sequence/using_technology_semantic/using_technology_semantic_4.png","0","",""
"","","","","","image-button-response","68","337393","0.0-12.0-1.0-2.3","0FE09A301659401BA5206B13A64C8AD0","0FE09A301659401BA5206B13A64C8AD0","edc0065f-cb35-416c-98b4-70aaca60e0d1","df079445-14fb-430e-a4ba-0f71c8e82324","{""participantId"":""0FE09A301659401BA5206B13A64C8AD0"",""assignmentId"":""edc0065f-cb35-416c-98b4-70aaca60e0d1"",""projectId"":""df079445-14fb-430e-a4ba-0f71c8e82324""}","https://test12345.live/?participantId=0FE09A301659401BA5206B13A64C8AD0&assignmentId=edc0065f-cb35-416c-98b4-70aaca60e0d1&projectId=df079445-14fb-430e-a4ba-0f71c8e82324","","null","","[]","null","",""
"","","","","","image-button-response","69","341899","0.0-12.0-1.0-0.4","0FE09A301659401BA5206B13A64C8AD0","0FE09A301659401BA5206B13A64C8AD0","edc0065f-cb35-416c-98b4-70aaca60e0d1","df079445-14fb-430e-a4ba-0f71c8e82324","{""participantId"":""0FE09A301659401BA5206B13A64C8AD0"",""assignmentId"":""edc0065f-cb35-416c-98b4-70aaca60e0d1"",""projectId"":""df079445-14fb-430e-a4ba-0f71c8e82324""}","https://test12345.live/?participantId=0FE09A301659401BA5206B13A64C8AD0&assignmentId=edc0065f-cb35-416c-98b4-70aaca60e0d1&projectId=df079445-14fb-430e-a4ba-0f71c8e82324","","null","","images/semantic_sequence/using_technology_semantic/using_technology_semantic_5.png","null","",""
"","","","","","image-button-response","70","342467","0.0-12.0-1.0-1.4","0FE09A301659401BA5206B13A64C8AD0","0FE09A301659401BA5206B13A64C8AD0","edc0065f-cb35-416c-98b4-70aaca60e0d1","df079445-14fb-430e-a4ba-0f71c8e82324","{""participantId"":""0FE09A301659401BA5206B13A64C8AD0"",""assignmentId"":""edc0065f-cb35-416c-98b4-70aaca60e0d1"",""projectId"":""df079445-14fb-430e-a4ba-0f71c8e82324""}","https://test12345.live/?participantId=0FE09A301659401BA5206B13A64C8AD0&assignmentId=edc0065f-cb35-416c-98b4-70aaca60e0d1&projectId=df079445-14fb-430e-a4ba-0f71c8e82324","","564","","images/semantic_sequence/using_technology_semantic/using_technology_semantic_5.png","0","",""
"","","","","","image-button-response","71","344273","0.0-12.0-1.0-2.4","0FE09A301659401BA5206B13A64C8AD0","0FE09A301659401BA5206B13A64C8AD0","edc0065f-cb35-416c-98b4-70aaca60e0d1","df079445-14fb-430e-a4ba-0f71c8e82324","{""participantId"":""0FE09A301659401BA5206B13A64C8AD0"",""assignmentId"":""edc0065f-cb35-416c-98b4-70aaca60e0d1"",""projectId"":""df079445-14fb-430e-a4ba-0f71c8e82324""}","https://test12345.live/?participantId=0FE09A301659401BA5206B13A64C8AD0&assignmentId=edc0065f-cb35-416c-98b4-70aaca60e0d1&projectId=df079445-14fb-430e-a4ba-0f71c8e82324","","null","","[]","null","",""
"","","","","","image-button-response","72","348775","0.0-12.0-1.0-0.5","0FE09A301659401BA5206B13A64C8AD0","0FE09A301659401BA5206B13A64C8AD0","edc0065f-cb35-416c-98b4-70aaca60e0d1","df079445-14fb-430e-a4ba-0f71c8e82324","{""participantId"":""0FE09A301659401BA5206B13A64C8AD0"",""assignmentId"":""edc0065f-cb35-416c-98b4-70aaca60e0d1"",""projectId"":""df079445-14fb-430e-a4ba-0f71c8e82324""}","https://test12345.live/?participantId=0FE09A301659401BA5206B13A64C8AD0&assignmentId=edc0065f-cb35-416c-98b4-70aaca60e0d1&projectId=df079445-14fb-430e-a4ba-0f71c8e82324","","null","","images/semantic_sequence/using_technology_semantic/using_technology_semantic_6.png","null","",""
"","","","","","image-button-response","73","349786","0.0-12.0-1.0-1.5","0FE09A301659401BA5206B13A64C8AD0","0FE09A301659401BA5206B13A64C8AD0","edc0065f-cb35-416c-98b4-70aaca60e0d1","df079445-14fb-430e-a4ba-0f71c8e82324","{""participantId"":""0FE09A301659401BA5206B13A64C8AD0"",""assignmentId"":""edc0065f-cb35-416c-98b4-70aaca60e0d1"",""projectId"":""df079445-14fb-430e-a4ba-0f71c8e82324""}","https://test12345.live/?participantId=0FE09A301659401BA5206B13A64C8AD0&assignmentId=edc0065f-cb35-416c-98b4-70aaca60e0d1&projectId=df079445-14fb-430e-a4ba-0f71c8e82324","","1010","","images/semantic_sequence/using_technology_semantic/using_technology_semantic_6.png","0","",""
"","","","","","image-button-response","74","351592","0.0-12.0-1.0-2.5","0FE09A301659401BA5206B13A64C8AD0","0FE09A301659401BA5206B13A64C8AD0","edc0065f-cb35-416c-98b4-70aaca60e0d1","df079445-14fb-430e-a4ba-0f71c8e82324","{""participantId"":""0FE09A301659401BA5206B13A64C8AD0"",""assignmentId"":""edc0065f-cb35-416c-98b4-70aaca60e0d1"",""projectId"":""df079445-14fb-430e-a4ba-0f71c8e82324""}","https://test12345.live/?participantId=0FE09A301659401BA5206B13A64C8AD0&assignmentId=edc0065f-cb35-416c-98b4-70aaca60e0d1&projectId=df079445-14fb-430e-a4ba-0f71c8e82324","","null","","[]","null","",""
"","","","","","image-button-response","75","356095","0.0-12.0-1.0-0.6","0FE09A301659401BA5206B13A64C8AD0","0FE09A301659401BA5206B13A64C8AD0","edc0065f-cb35-416c-98b4-70aaca60e0d1","df079445-14fb-430e-a4ba-0f71c8e82324","{""participantId"":""0FE09A301659401BA5206B13A64C8AD0"",""assignmentId"":""edc0065f-cb35-416c-98b4-70aaca60e0d1"",""projectId"":""df079445-14fb-430e-a4ba-0f71c8e82324""}","https://test12345.live/?participantId=0FE09A301659401BA5206B13A64C8AD0&assignmentId=edc0065f-cb35-416c-98b4-70aaca60e0d1&projectId=df079445-14fb-430e-a4ba-0f71c8e82324","","null","","images/semantic_sequence/using_technology_semantic/using_technology_semantic_7.png","null","",""
"","","","","","image-button-response","76","356582","0.0-12.0-1.0-1.6","0FE09A301659401BA5206B13A64C8AD0","0FE09A301659401BA5206B13A64C8AD0","edc0065f-cb35-416c-98b4-70aaca60e0d1","df079445-14fb-430e-a4ba-0f71c8e82324","{""participantId"":""0FE09A301659401BA5206B13A64C8AD0"",""assignmentId"":""edc0065f-cb35-416c-98b4-70aaca60e0d1"",""projectId"":""df079445-14fb-430e-a4ba-0f71c8e82324""}","https://test12345.live/?participantId=0FE09A301659401BA5206B13A64C8AD0&assignmentId=edc0065f-cb35-416c-98b4-70aaca60e0d1&projectId=df079445-14fb-430e-a4ba-0f71c8e82324","","483","","images/semantic_sequence/using_technology_semantic/using_technology_semantic_7.png","0","",""
"","","","","","image-button-response","77","358389","0.0-12.0-1.0-2.6","0FE09A301659401BA5206B13A64C8AD0","0FE09A301659401BA5206B13A64C8AD0","edc0065f-cb35-416c-98b4-70aaca60e0d1","df079445-14fb-430e-a4ba-0f71c8e82324","{""participantId"":""0FE09A301659401BA5206B13A64C8AD0"",""assignmentId"":""edc0065f-cb35-416c-98b4-70aaca60e0d1"",""projectId"":""df079445-14fb-430e-a4ba-0f71c8e82324""}","https://test12345.live/?participantId=0FE09A301659401BA5206B13A64C8AD0&assignmentId=edc0065f-cb35-416c-98b4-70aaca60e0d1&projectId=df079445-14fb-430e-a4ba-0f71c8e82324","","null","","[]","null","",""
"","","","","","image-button-response","78","362893","0.0-12.0-1.0-0.7","0FE09A301659401BA5206B13A64C8AD0","0FE09A301659401BA5206B13A64C8AD0","edc0065f-cb35-416c-98b4-70aaca60e0d1","df079445-14fb-430e-a4ba-0f71c8e82324","{""participantId"":""0FE09A301659401BA5206B13A64C8AD0"",""assignmentId"":""edc0065f-cb35-416c-98b4-70aaca60e0d1"",""projectId"":""df079445-14fb-430e-a4ba-0f71c8e82324""}","https://test12345.live/?participantId=0FE09A301659401BA5206B13A64C8AD0&assignmentId=edc0065f-cb35-416c-98b4-70aaca60e0d1&projectId=df079445-14fb-430e-a4ba-0f71c8e82324","","null","","images/semantic_sequence/using_technology_semantic/using_technology_semantic_8.png","null","",""
"","","","","","image-button-response","79","363797","0.0-12.0-1.0-1.7","0FE09A301659401BA5206B13A64C8AD0","0FE09A301659401BA5206B13A64C8AD0","edc0065f-cb35-416c-98b4-70aaca60e0d1","df079445-14fb-430e-a4ba-0f71c8e82324","{""participantId"":""0FE09A301659401BA5206B13A64C8AD0"",""assignmentId"":""edc0065f-cb35-416c-98b4-70aaca60e0d1"",""projectId"":""df079445-14fb-430e-a4ba-0f71c8e82324""}","https://test12345.live/?participantId=0FE09A301659401BA5206B13A64C8AD0&assignmentId=edc0065f-cb35-416c-98b4-70aaca60e0d1&projectId=df079445-14fb-430e-a4ba-0f71c8e82324","","885","","images/semantic_sequence/using_technology_semantic/using_technology_semantic_8.png","0","",""
"","","","","","image-button-response","80","365602","0.0-12.0-1.0-2.7","0FE09A301659401BA5206B13A64C8AD0","0FE09A301659401BA5206B13A64C8AD0","edc0065f-cb35-416c-98b4-70aaca60e0d1","df079445-14fb-430e-a4ba-0f71c8e82324","{""participantId"":""0FE09A301659401BA5206B13A64C8AD0"",""assignmentId"":""edc0065f-cb35-416c-98b4-70aaca60e0d1"",""projectId"":""df079445-14fb-430e-a4ba-0f71c8e82324""}","https://test12345.live/?participantId=0FE09A301659401BA5206B13A64C8AD0&assignmentId=edc0065f-cb35-416c-98b4-70aaca60e0d1&projectId=df079445-14fb-430e-a4ba-0f71c8e82324","","null","","[]","null","",""
"","","","","","image-button-response","81","370109","0.0-12.0-1.0-0.8","0FE09A301659401BA5206B13A64C8AD0","0FE09A301659401BA5206B13A64C8AD0","edc0065f-cb35-416c-98b4-70aaca60e0d1","df079445-14fb-430e-a4ba-0f71c8e82324","{""participantId"":""0FE09A301659401BA5206B13A64C8AD0"",""assignmentId"":""edc0065f-cb35-416c-98b4-70aaca60e0d1"",""projectId"":""df079445-14fb-430e-a4ba-0f71c8e82324""}","https://test12345.live/?participantId=0FE09A301659401BA5206B13A64C8AD0&assignmentId=edc0065f-cb35-416c-98b4-70aaca60e0d1&projectId=df079445-14fb-430e-a4ba-0f71c8e82324","","null","","images/semantic_sequence/using_technology_semantic/using_technology_semantic_9.png","null","",""
"","","","","","image-button-response","82","370972","0.0-12.0-1.0-1.8","0FE09A301659401BA5206B13A64C8AD0","0FE09A301659401BA5206B13A64C8AD0","edc0065f-cb35-416c-98b4-70aaca60e0d1","df079445-14fb-430e-a4ba-0f71c8e82324","{""participantId"":""0FE09A301659401BA5206B13A64C8AD0"",""assignmentId"":""edc0065f-cb35-416c-98b4-70aaca60e0d1"",""projectId"":""df079445-14fb-430e-a4ba-0f71c8e82324""}","https://test12345.live/?participantId=0FE09A301659401BA5206B13A64C8AD0&assignmentId=edc0065f-cb35-416c-98b4-70aaca60e0d1&projectId=df079445-14fb-430e-a4ba-0f71c8e82324","","859","","images/semantic_sequence/using_technology_semantic/using_technology_semantic_9.png","0","",""
"","","","","","image-button-response","83","372775","0.0-12.0-1.0-2.8","0FE09A301659401BA5206B13A64C8AD0","0FE09A301659401BA5206B13A64C8AD0","edc0065f-cb35-416c-98b4-70aaca60e0d1","df079445-14fb-430e-a4ba-0f71c8e82324","{""participantId"":""0FE09A301659401BA5206B13A64C8AD0"",""assignmentId"":""edc0065f-cb35-416c-98b4-70aaca60e0d1"",""projectId"":""df079445-14fb-430e-a4ba-0f71c8e82324""}","https://test12345.live/?participantId=0FE09A301659401BA5206B13A64C8AD0&assignmentId=edc0065f-cb35-416c-98b4-70aaca60e0d1&projectId=df079445-14fb-430e-a4ba-0f71c8e82324","","null","","[]","null","",""
"","","","","","image-button-response","84","377278","0.0-12.0-1.0-0.9","0FE09A301659401BA5206B13A64C8AD0","0FE09A301659401BA5206B13A64C8AD0","edc0065f-cb35-416c-98b4-70aaca60e0d1","df079445-14fb-430e-a4ba-0f71c8e82324","{""participantId"":""0FE09A301659401BA5206B13A64C8AD0"",""assignmentId"":""edc0065f-cb35-416c-98b4-70aaca60e0d1"",""projectId"":""df079445-14fb-430e-a4ba-0f71c8e82324""}","https://test12345.live/?participantId=0FE09A301659401BA5206B13A64C8AD0&assignmentId=edc0065f-cb35-416c-98b4-70aaca60e0d1&projectId=df079445-14fb-430e-a4ba-0f71c8e82324","","null","","images/semantic_sequence/using_technology_semantic/using_technology_semantic_ten.png","null","",""
"","","","","","image-button-response","85","378025","0.0-12.0-1.0-1.9","0FE09A301659401BA5206B13A64C8AD0","0FE09A301659401BA5206B13A64C8AD0","edc0065f-cb35-416c-98b4-70aaca60e0d1","df079445-14fb-430e-a4ba-0f71c8e82324","{""participantId"":""0FE09A301659401BA5206B13A64C8AD0"",""assignmentId"":""edc0065f-cb35-416c-98b4-70aaca60e0d1"",""projectId"":""df079445-14fb-430e-a4ba-0f71c8e82324""}","https://test12345.live/?participantId=0FE09A301659401BA5206B13A64C8AD0&assignmentId=edc0065f-cb35-416c-98b4-70aaca60e0d1&projectId=df079445-14fb-430e-a4ba-0f71c8e82324","","745","","images/semantic_sequence/using_technology_semantic/using_technology_semantic_ten.png","0","",""
"","","","","","image-button-response","86","379832","0.0-12.0-1.0-2.9","0FE09A301659401BA5206B13A64C8AD0","0FE09A301659401BA5206B13A64C8AD0","edc0065f-cb35-416c-98b4-70aaca60e0d1","df079445-14fb-430e-a4ba-0f71c8e82324","{""participantId"":""0FE09A301659401BA5206B13A64C8AD0"",""assignmentId"":""edc0065f-cb35-416c-98b4-70aaca60e0d1"",""projectId"":""df079445-14fb-430e-a4ba-0f71c8e82324""}","https://test12345.live/?participantId=0FE09A301659401BA5206B13A64C8AD0&assignmentId=edc0065f-cb35-416c-98b4-70aaca60e0d1&projectId=df079445-14fb-430e-a4ba-0f71c8e82324","","null","","[]","null","",""
"","","","","","html-audio-response","87","402248","0.0-13.0","0FE09A301659401BA5206B13A64C8AD0","0FE09A301659401BA5206B13A64C8AD0","edc0065f-cb35-416c-98b4-70aaca60e0d1","df079445-14fb-430e-a4ba-0f71c8e82324","{""participantId"":""0FE09A301659401BA5206B13A64C8AD0"",""assignmentId"":""edc0065f-cb35-416c-98b4-70aaca60e0d1"",""projectId"":""df079445-14fb-430e-a4ba-0f71c8e82324""}","https://test12345.live/?participantId=0FE09A301659401BA5206B13A64C8AD0&assignmentId=edc0065f-cb35-416c-98b4-70aaca60e0d1&projectId=df079445-14fb-430e-a4ba-0f71c8e82324","","21207","","[""<span style=\""color: red; font-size: 24px\""> NOW RECORDING</span><p>Please say out loud all the images you saw, as many as you can remember. The images can be said in any order.</p>""]","","2","using_technology_semantic"
"","","","","","image-button-response","88","408262","0.0-14.0-0.0","0FE09A301659401BA5206B13A64C8AD0","0FE09A301659401BA5206B13A64C8AD0","edc0065f-cb35-416c-98b4-70aaca60e0d1","df079445-14fb-430e-a4ba-0f71c8e82324","{""participantId"":""0FE09A301659401BA5206B13A64C8AD0"",""assignmentId"":""edc0065f-cb35-416c-98b4-70aaca60e0d1"",""projectId"":""df079445-14fb-430e-a4ba-0f71c8e82324""}","https://test12345.live/?participantId=0FE09A301659401BA5206B13A64C8AD0&assignmentId=edc0065f-cb35-416c-98b4-70aaca60e0d1&projectId=df079445-14fb-430e-a4ba-0f71c8e82324","","null","","images/semantic_sequence/physical_activity_semantic/physical_activity_semantic_0.png","null","",""
"","","","","","image-button-response","89","412765","0.0-14.0-1.0-0.0","0FE09A301659401BA5206B13A64C8AD0","0FE09A301659401BA5206B13A64C8AD0","edc0065f-cb35-416c-98b4-70aaca60e0d1","df079445-14fb-430e-a4ba-0f71c8e82324","{""participantId"":""0FE09A301659401BA5206B13A64C8AD0"",""assignmentId"":""edc0065f-cb35-416c-98b4-70aaca60e0d1"",""projectId"":""df079445-14fb-430e-a4ba-0f71c8e82324""}","https://test12345.live/?participantId=0FE09A301659401BA5206B13A64C8AD0&assignmentId=edc0065f-cb35-416c-98b4-70aaca60e0d1&projectId=df079445-14fb-430e-a4ba-0f71c8e82324","","null","","images/semantic_sequence/physical_activity_semantic/physical_activity_semantic_6.png","null","",""
"","","","","","image-button-response","90","416357","0.0-14.0-1.0-1.0","0FE09A301659401BA5206B13A64C8AD0","0FE09A301659401BA5206B13A64C8AD0","edc0065f-cb35-416c-98b4-70aaca60e0d1","df079445-14fb-430e-a4ba-0f71c8e82324","{""participantId"":""0FE09A301659401BA5206B13A64C8AD0"",""assignmentId"":""edc0065f-cb35-416c-98b4-70aaca60e0d1"",""projectId"":""df079445-14fb-430e-a4ba-0f71c8e82324""}","https://test12345.live/?participantId=0FE09A301659401BA5206B13A64C8AD0&assignmentId=edc0065f-cb35-416c-98b4-70aaca60e0d1&projectId=df079445-14fb-430e-a4ba-0f71c8e82324","","3590","","images/semantic_sequence/physical_activity_semantic/physical_activity_semantic_6.png","0","",""
"","","","","","image-button-response","91","418161","0.0-14.0-1.0-2.0","0FE09A301659401BA5206B13A64C8AD0","0FE09A301659401BA5206B13A64C8AD0","edc0065f-cb35-416c-98b4-70aaca60e0d1","df079445-14fb-430e-a4ba-0f71c8e82324","{""participantId"":""0FE09A301659401BA5206B13A64C8AD0"",""assignmentId"":""edc0065f-cb35-416c-98b4-70aaca60e0d1"",""projectId"":""df079445-14fb-430e-a4ba-0f71c8e82324""}","https://test12345.live/?participantId=0FE09A301659401BA5206B13A64C8AD0&assignmentId=edc0065f-cb35-416c-98b4-70aaca60e0d1&projectId=df079445-14fb-430e-a4ba-0f71c8e82324","","null","","[]","null","",""
"","","","","","image-button-response","92","422667","0.0-14.0-1.0-0.1","0FE09A301659401BA5206B13A64C8AD0","0FE09A301659401BA5206B13A64C8AD0","edc0065f-cb35-416c-98b4-70aaca60e0d1","df079445-14fb-430e-a4ba-0f71c8e82324","{""participantId"":""0FE09A301659401BA5206B13A64C8AD0"",""assignmentId"":""edc0065f-cb35-416c-98b4-70aaca60e0d1"",""projectId"":""df079445-14fb-430e-a4ba-0f71c8e82324""}","https://test12345.live/?participantId=0FE09A301659401BA5206B13A64C8AD0&assignmentId=edc0065f-cb35-416c-98b4-70aaca60e0d1&projectId=df079445-14fb-430e-a4ba-0f71c8e82324","","null","","images/semantic_sequence/physical_activity_semantic/physical_activity_semantic_9.png","null","",""
"","","","","","image-button-response","93","425358","0.0-14.0-1.0-1.1","0FE09A301659401BA5206B13A64C8AD0","0FE09A301659401BA5206B13A64C8AD0","edc0065f-cb35-416c-98b4-70aaca60e0d1","df079445-14fb-430e-a4ba-0f71c8e82324","{""participantId"":""0FE09A301659401BA5206B13A64C8AD0"",""assignmentId"":""edc0065f-cb35-416c-98b4-70aaca60e0d1"",""projectId"":""df079445-14fb-430e-a4ba-0f71c8e82324""}","https://test12345.live/?participantId=0FE09A301659401BA5206B13A64C8AD0&assignmentId=edc0065f-cb35-416c-98b4-70aaca60e0d1&projectId=df079445-14fb-430e-a4ba-0f71c8e82324","","2688","","images/semantic_sequence/physical_activity_semantic/physical_activity_semantic_9.png","0","",""
"","","","","","image-button-response","94","427161","0.0-14.0-1.0-2.1","0FE09A301659401BA5206B13A64C8AD0","0FE09A301659401BA5206B13A64C8AD0","edc0065f-cb35-416c-98b4-70aaca60e0d1","df079445-14fb-430e-a4ba-0f71c8e82324","{""participantId"":""0FE09A301659401BA5206B13A64C8AD0"",""assignmentId"":""edc0065f-cb35-416c-98b4-70aaca60e0d1"",""projectId"":""df079445-14fb-430e-a4ba-0f71c8e82324""}","https://test12345.live/?participantId=0FE09A301659401BA5206B13A64C8AD0&assignmentId=edc0065f-cb35-416c-98b4-70aaca60e0d1&projectId=df079445-14fb-430e-a4ba-0f71c8e82324","","null","","[]","null","",""
"","","","","","image-button-response","95","431662","0.0-14.0-1.0-0.2","0FE09A301659401BA5206B13A64C8AD0","0FE09A301659401BA5206B13A64C8AD0","edc0065f-cb35-416c-98b4-70aaca60e0d1","df079445-14fb-430e-a4ba-0f71c8e82324","{""participantId"":""0FE09A301659401BA5206B13A64C8AD0"",""assignmentId"":""edc0065f-cb35-416c-98b4-70aaca60e0d1"",""projectId"":""df079445-14fb-430e-a4ba-0f71c8e82324""}","https://test12345.live/?participantId=0FE09A301659401BA5206B13A64C8AD0&assignmentId=edc0065f-cb35-416c-98b4-70aaca60e0d1&projectId=df079445-14fb-430e-a4ba-0f71c8e82324","","null","","images/semantic_sequence/physical_activity_semantic/physical_activity_semantic_5.png","null","",""
"","","","","","image-button-response","96","432441","0.0-14.0-1.0-1.2","0FE09A301659401BA5206B13A64C8AD0","0FE09A301659401BA5206B13A64C8AD0","edc0065f-cb35-416c-98b4-70aaca60e0d1","df079445-14fb-430e-a4ba-0f71c8e82324","{""participantId"":""0FE09A301659401BA5206B13A64C8AD0"",""assignmentId"":""edc0065f-cb35-416c-98b4-70aaca60e0d1"",""projectId"":""df079445-14fb-430e-a4ba-0f71c8e82324""}","https://test12345.live/?participantId=0FE09A301659401BA5206B13A64C8AD0&assignmentId=edc0065f-cb35-416c-98b4-70aaca60e0d1&projectId=df079445-14fb-430e-a4ba-0f71c8e82324","","777","","images/semantic_sequence/physical_activity_semantic/physical_activity_semantic_5.png","0","",""
"","","","","","image-button-response","97","434247","0.0-14.0-1.0-2.2","0FE09A301659401BA5206B13A64C8AD0","0FE09A301659401BA5206B13A64C8AD0","edc0065f-cb35-416c-98b4-70aaca60e0d1","df079445-14fb-430e-a4ba-0f71c8e82324","{""participantId"":""0FE09A301659401BA5206B13A64C8AD0"",""assignmentId"":""edc0065f-cb35-416c-98b4-70aaca60e0d1"",""projectId"":""df079445-14fb-430e-a4ba-0f71c8e82324""}","https://test12345.live/?participantId=0FE09A301659401BA5206B13A64C8AD0&assignmentId=edc0065f-cb35-416c-98b4-70aaca60e0d1&projectId=df079445-14fb-430e-a4ba-0f71c8e82324","","null","","[]","null","",""
"","","","","","image-button-response","98","438753","0.0-14.0-1.0-0.3","0FE09A301659401BA5206B13A64C8AD0","0FE09A301659401BA5206B13A64C8AD0","edc0065f-cb35-416c-98b4-70aaca60e0d1","df079445-14fb-430e-a4ba-0f71c8e82324","{""participantId"":""0FE09A301659401BA5206B13A64C8AD0"",""assignmentId"":""edc0065f-cb35-416c-98b4-70aaca60e0d1"",""projectId"":""df079445-14fb-430e-a4ba-0f71c8e82324""}","https://test12345.live/?participantId=0FE09A301659401BA5206B13A64C8AD0&assignmentId=edc0065f-cb35-416c-98b4-70aaca60e0d1&projectId=df079445-14fb-430e-a4ba-0f71c8e82324","","null","","images/semantic_sequence/physical_activity_semantic/physical_activity_semantic_ten.png","null","",""
"","","","","","image-button-response","99","439760","0.0-14.0-1.0-1.3","0FE09A301659401BA5206B13A64C8AD0","0FE09A301659401BA5206B13A64C8AD0","edc0065f-cb35-416c-98b4-70aaca60e0d1","df079445-14fb-430e-a4ba-0f71c8e82324","{""participantId"":""0FE09A301659401BA5206B13A64C8AD0"",""assignmentId"":""edc0065f-cb35-416c-98b4-70aaca60e0d1"",""projectId"":""df079445-14fb-430e-a4ba-0f71c8e82324""}","https://test12345.live/?participantId=0FE09A301659401BA5206B13A64C8AD0&assignmentId=edc0065f-cb35-416c-98b4-70aaca60e0d1&projectId=df079445-14fb-430e-a4ba-0f71c8e82324","","1006","","images/semantic_sequence/physical_activity_semantic/physical_activity_semantic_ten.png","0","",""
"","","","","","image-button-response","100","441562","0.0-14.0-1.0-2.3","0FE09A301659401BA5206B13A64C8AD0","0FE09A301659401BA5206B13A64C8AD0","edc0065f-cb35-416c-98b4-70aaca60e0d1","df079445-14fb-430e-a4ba-0f71c8e82324","{""participantId"":""0FE09A301659401BA5206B13A64C8AD0"",""assignmentId"":""edc0065f-cb35-416c-98b4-70aaca60e0d1"",""projectId"":""df079445-14fb-430e-a4ba-0f71c8e82324""}","https://test12345.live/?participantId=0FE09A301659401BA5206B13A64C8AD0&assignmentId=edc0065f-cb35-416c-98b4-70aaca60e0d1&projectId=df079445-14fb-430e-a4ba-0f71c8e82324","","null","","[]","null","",""
"","","","","","image-button-response","101","446067","0.0-14.0-1.0-0.4","0FE09A301659401BA5206B13A64C8AD0","0FE09A301659401BA5206B13A64C8AD0","edc0065f-cb35-416c-98b4-70aaca60e0d1","df079445-14fb-430e-a4ba-0f71c8e82324","{""participantId"":""0FE09A301659401BA5206B13A64C8AD0"",""assignmentId"":""edc0065f-cb35-416c-98b4-70aaca60e0d1"",""projectId"":""df079445-14fb-430e-a4ba-0f71c8e82324""}","https://test12345.live/?participantId=0FE09A301659401BA5206B13A64C8AD0&assignmentId=edc0065f-cb35-416c-98b4-70aaca60e0d1&projectId=df079445-14fb-430e-a4ba-0f71c8e82324","","null","","images/semantic_sequence/physical_activity_semantic/physical_activity_semantic_1.png","null","",""
"","","","","","image-button-response","102","446891","0.0-14.0-1.0-1.4","0FE09A301659401BA5206B13A64C8AD0","0FE09A301659401BA5206B13A64C8AD0","edc0065f-cb35-416c-98b4-70aaca60e0d1","df079445-14fb-430e-a4ba-0f71c8e82324","{""participantId"":""0FE09A301659401BA5206B13A64C8AD0"",""assignmentId"":""edc0065f-cb35-416c-98b4-70aaca60e0d1"",""projectId"":""df079445-14fb-430e-a4ba-0f71c8e82324""}","https://test12345.live/?participantId=0FE09A301659401BA5206B13A64C8AD0&assignmentId=edc0065f-cb35-416c-98b4-70aaca60e0d1&projectId=df079445-14fb-430e-a4ba-0f71c8e82324","","820","","images/semantic_sequence/physical_activity_semantic/physical_activity_semantic_1.png","0","",""
"","","","","","image-button-response","103","448694","0.0-14.0-1.0-2.4","0FE09A301659401BA5206B13A64C8AD0","0FE09A301659401BA5206B13A64C8AD0","edc0065f-cb35-416c-98b4-70aaca60e0d1","df079445-14fb-430e-a4ba-0f71c8e82324","{""participantId"":""0FE09A301659401BA5206B13A64C8AD0"",""assignmentId"":""edc0065f-cb35-416c-98b4-70aaca60e0d1"",""projectId"":""df079445-14fb-430e-a4ba-0f71c8e82324""}","https://test12345.live/?participantId=0FE09A301659401BA5206B13A64C8AD0&assignmentId=edc0065f-cb35-416c-98b4-70aaca60e0d1&projectId=df079445-14fb-430e-a4ba-0f71c8e82324","","null","","[]","null","",""
"","","","","","image-button-response","104","453197","0.0-14.0-1.0-0.5","0FE09A301659401BA5206B13A64C8AD0","0FE09A301659401BA5206B13A64C8AD0","edc0065f-cb35-416c-98b4-70aaca60e0d1","df079445-14fb-430e-a4ba-0f71c8e82324","{""participantId"":""0FE09A301659401BA5206B13A64C8AD0"",""assignmentId"":""edc0065f-cb35-416c-98b4-70aaca60e0d1"",""projectId"":""df079445-14fb-430e-a4ba-0f71c8e82324""}","https://test12345.live/?participantId=0FE09A301659401BA5206B13A64C8AD0&assignmentId=edc0065f-cb35-416c-98b4-70aaca60e0d1&projectId=df079445-14fb-430e-a4ba-0f71c8e82324","","null","","images/semantic_sequence/physical_activity_semantic/physical_activity_semantic_7.png","null","",""
"","","","","","image-button-response","105","453946","0.0-14.0-1.0-1.5","0FE09A301659401BA5206B13A64C8AD0","0FE09A301659401BA5206B13A64C8AD0","edc0065f-cb35-416c-98b4-70aaca60e0d1","df079445-14fb-430e-a4ba-0f71c8e82324","{""participantId"":""0FE09A301659401BA5206B13A64C8AD0"",""assignmentId"":""edc0065f-cb35-416c-98b4-70aaca60e0d1"",""projectId"":""df079445-14fb-430e-a4ba-0f71c8e82324""}","https://test12345.live/?participantId=0FE09A301659401BA5206B13A64C8AD0&assignmentId=edc0065f-cb35-416c-98b4-70aaca60e0d1&projectId=df079445-14fb-430e-a4ba-0f71c8e82324","","746","","images/semantic_sequence/physical_activity_semantic/physical_activity_semantic_7.png","0","",""
"","","","","","image-button-response","106","455753","0.0-14.0-1.0-2.5","0FE09A301659401BA5206B13A64C8AD0","0FE09A301659401BA5206B13A64C8AD0","edc0065f-cb35-416c-98b4-70aaca60e0d1","df079445-14fb-430e-a4ba-0f71c8e82324","{""participantId"":""0FE09A301659401BA5206B13A64C8AD0"",""assignmentId"":""edc0065f-cb35-416c-98b4-70aaca60e0d1"",""projectId"":""df079445-14fb-430e-a4ba-0f71c8e82324""}","https://test12345.live/?participantId=0FE09A301659401BA5206B13A64C8AD0&assignmentId=edc0065f-cb35-416c-98b4-70aaca60e0d1&projectId=df079445-14fb-430e-a4ba-0f71c8e82324","","null","","[]","null","",""
"","","","","","image-button-response","107","460256","0.0-14.0-1.0-0.6","0FE09A301659401BA5206B13A64C8AD0","0FE09A301659401BA5206B13A64C8AD0","edc0065f-cb35-416c-98b4-70aaca60e0d1","df079445-14fb-430e-a4ba-0f71c8e82324","{""participantId"":""0FE09A301659401BA5206B13A64C8AD0"",""assignmentId"":""edc0065f-cb35-416c-98b4-70aaca60e0d1"",""projectId"":""df079445-14fb-430e-a4ba-0f71c8e82324""}","https://test12345.live/?participantId=0FE09A301659401BA5206B13A64C8AD0&assignmentId=edc0065f-cb35-416c-98b4-70aaca60e0d1&projectId=df079445-14fb-430e-a4ba-0f71c8e82324","","null","","images/semantic_sequence/physical_activity_semantic/physical_activity_semantic_8.png","null","",""
"","","","","","image-button-response","108","461385","0.0-14.0-1.0-1.6","0FE09A301659401BA5206B13A64C8AD0","0FE09A301659401BA5206B13A64C8AD0","edc0065f-cb35-416c-98b4-70aaca60e0d1","df079445-14fb-430e-a4ba-0f71c8e82324","{""participantId"":""0FE09A301659401BA5206B13A64C8AD0"",""assignmentId"":""edc0065f-cb35-416c-98b4-70aaca60e0d1"",""projectId"":""df079445-14fb-430e-a4ba-0f71c8e82324""}","https://test12345.live/?participantId=0FE09A301659401BA5206B13A64C8AD0&assignmentId=edc0065f-cb35-416c-98b4-70aaca60e0d1&projectId=df079445-14fb-430e-a4ba-0f71c8e82324","","1125","","images/semantic_sequence/physical_activity_semantic/physical_activity_semantic_8.png","0","",""
"","","","","","image-button-response","109","463193","0.0-14.0-1.0-2.6","0FE09A301659401BA5206B13A64C8AD0","0FE09A301659401BA5206B13A64C8AD0","edc0065f-cb35-416c-98b4-70aaca60e0d1","df079445-14fb-430e-a4ba-0f71c8e82324","{""participantId"":""0FE09A301659401BA5206B13A64C8AD0"",""assignmentId"":""edc0065f-cb35-416c-98b4-70aaca60e0d1"",""projectId"":""df079445-14fb-430e-a4ba-0f71c8e82324""}","https://test12345.live/?participantId=0FE09A301659401BA5206B13A64C8AD0&assignmentId=edc0065f-cb35-416c-98b4-70aaca60e0d1&projectId=df079445-14fb-430e-a4ba-0f71c8e82324","","null","","[]","null","",""
"","","","","","image-button-response","110","467700","0.0-14.0-1.0-0.7","0FE09A301659401BA5206B13A64C8AD0","0FE09A301659401BA5206B13A64C8AD0","edc0065f-cb35-416c-98b4-70aaca60e0d1","df079445-14fb-430e-a4ba-0f71c8e82324","{""participantId"":""0FE09A301659401BA5206B13A64C8AD0"",""assignmentId"":""edc0065f-cb35-416c-98b4-70aaca60e0d1"",""projectId"":""df079445-14fb-430e-a4ba-0f71c8e82324""}","https://test12345.live/?participantId=0FE09A301659401BA5206B13A64C8AD0&assignmentId=edc0065f-cb35-416c-98b4-70aaca60e0d1&projectId=df079445-14fb-430e-a4ba-0f71c8e82324","","null","","images/semantic_sequence/physical_activity_semantic/physical_activity_semantic_2.png","null","",""
"","","","","","image-button-response","111","468533","0.0-14.0-1.0-1.7","0FE09A301659401BA5206B13A64C8AD0","0FE09A301659401BA5206B13A64C8AD0","edc0065f-cb35-416c-98b4-70aaca60e0d1","df079445-14fb-430e-a4ba-0f71c8e82324","{""participantId"":""0FE09A301659401BA5206B13A64C8AD0"",""assignmentId"":""edc0065f-cb35-416c-98b4-70aaca60e0d1"",""projectId"":""df079445-14fb-430e-a4ba-0f71c8e82324""}","https://test12345.live/?participantId=0FE09A301659401BA5206B13A64C8AD0&assignmentId=edc0065f-cb35-416c-98b4-70aaca60e0d1&projectId=df079445-14fb-430e-a4ba-0f71c8e82324","","830","","images/semantic_sequence/physical_activity_semantic/physical_activity_semantic_2.png","0","",""
"","","","","","image-button-response","112","470340","0.0-14.0-1.0-2.7","0FE09A301659401BA5206B13A64C8AD0","0FE09A301659401BA5206B13A64C8AD0","edc0065f-cb35-416c-98b4-70aaca60e0d1","df079445-14fb-430e-a4ba-0f71c8e82324","{""participantId"":""0FE09A301659401BA5206B13A64C8AD0"",""assignmentId"":""edc0065f-cb35-416c-98b4-70aaca60e0d1"",""projectId"":""df079445-14fb-430e-a4ba-0f71c8e82324""}","https://test12345.live/?participantId=0FE09A301659401BA5206B13A64C8AD0&assignmentId=edc0065f-cb35-416c-98b4-70aaca60e0d1&projectId=df079445-14fb-430e-a4ba-0f71c8e82324","","null","","[]","null","",""
"","","","","","image-button-response","113","474842","0.0-14.0-1.0-0.8","0FE09A301659401BA5206B13A64C8AD0","0FE09A301659401BA5206B13A64C8AD0","edc0065f-cb35-416c-98b4-70aaca60e0d1","df079445-14fb-430e-a4ba-0f71c8e82324","{""participantId"":""0FE09A301659401BA5206B13A64C8AD0"",""assignmentId"":""edc0065f-cb35-416c-98b4-70aaca60e0d1"",""projectId"":""df079445-14fb-430e-a4ba-0f71c8e82324""}","https://test12345.live/?participantId=0FE09A301659401BA5206B13A64C8AD0&assignmentId=edc0065f-cb35-416c-98b4-70aaca60e0d1&projectId=df079445-14fb-430e-a4ba-0f71c8e82324","","null","","images/semantic_sequence/physical_activity_semantic/physical_activity_semantic_4.png","null","",""
"","","","","","image-button-response","114","475402","0.0-14.0-1.0-1.8","0FE09A301659401BA5206B13A64C8AD0","0FE09A301659401BA5206B13A64C8AD0","edc0065f-cb35-416c-98b4-70aaca60e0d1","df079445-14fb-430e-a4ba-0f71c8e82324","{""participantId"":""0FE09A301659401BA5206B13A64C8AD0"",""assignmentId"":""edc0065f-cb35-416c-98b4-70aaca60e0d1"",""projectId"":""df079445-14fb-430e-a4ba-0f71c8e82324""}","https://test12345.live/?participantId=0FE09A301659401BA5206B13A64C8AD0&assignmentId=edc0065f-cb35-416c-98b4-70aaca60e0d1&projectId=df079445-14fb-430e-a4ba-0f71c8e82324","","557","","images/semantic_sequence/physical_activity_semantic/physical_activity_semantic_4.png","0","",""
"","","","","","image-button-response","115","477209","0.0-14.0-1.0-2.8","0FE09A301659401BA5206B13A64C8AD0","0FE09A301659401BA5206B13A64C8AD0","edc0065f-cb35-416c-98b4-70aaca60e0d1","df079445-14fb-430e-a4ba-0f71c8e82324","{""participantId"":""0FE09A301659401BA5206B13A64C8AD0"",""assignmentId"":""edc0065f-cb35-416c-98b4-70aaca60e0d1"",""projectId"":""df079445-14fb-430e-a4ba-0f71c8e82324""}","https://test12345.live/?participantId=0FE09A301659401BA5206B13A64C8AD0&assignmentId=edc0065f-cb35-416c-98b4-70aaca60e0d1&projectId=df079445-14fb-430e-a4ba-0f71c8e82324","","null","","[]","null","",""
"","","","","","image-button-response","116","481712","0.0-14.0-1.0-0.9","0FE09A301659401BA5206B13A64C8AD0","0FE09A301659401BA5206B13A64C8AD0","edc0065f-cb35-416c-98b4-70aaca60e0d1","df079445-14fb-430e-a4ba-0f71c8e82324","{""participantId"":""0FE09A301659401BA5206B13A64C8AD0"",""assignmentId"":""edc0065f-cb35-416c-98b4-70aaca60e0d1"",""projectId"":""df079445-14fb-430e-a4ba-0f71c8e82324""}","https://test12345.live/?participantId=0FE09A301659401BA5206B13A64C8AD0&assignmentId=edc0065f-cb35-416c-98b4-70aaca60e0d1&projectId=df079445-14fb-430e-a4ba-0f71c8e82324","","null","","images/semantic_sequence/physical_activity_semantic/physical_activity_semantic_3.png","null","",""
"","","","","","image-button-response","117","483122","0.0-14.0-1.0-1.9","0FE09A301659401BA5206B13A64C8AD0","0FE09A301659401BA5206B13A64C8AD0","edc0065f-cb35-416c-98b4-70aaca60e0d1","df079445-14fb-430e-a4ba-0f71c8e82324","{""participantId"":""0FE09A301659401BA5206B13A64C8AD0"",""assignmentId"":""edc0065f-cb35-416c-98b4-70aaca60e0d1"",""projectId"":""df079445-14fb-430e-a4ba-0f71c8e82324""}","https://test12345.live/?participantId=0FE09A301659401BA5206B13A64C8AD0&assignmentId=edc0065f-cb35-416c-98b4-70aaca60e0d1&projectId=df079445-14fb-430e-a4ba-0f71c8e82324","","1408","","images/semantic_sequence/physical_activity_semantic/physical_activity_semantic_3.png","0","",""
"","","","","","image-button-response","118","484929","0.0-14.0-1.0-2.9","0FE09A301659401BA5206B13A64C8AD0","0FE09A301659401BA5206B13A64C8AD0","edc0065f-cb35-416c-98b4-70aaca60e0d1","df079445-14fb-430e-a4ba-0f71c8e82324","{""participantId"":""0FE09A301659401BA5206B13A64C8AD0"",""assignmentId"":""edc0065f-cb35-416c-98b4-70aaca60e0d1"",""projectId"":""df079445-14fb-430e-a4ba-0f71c8e82324""}","https://test12345.live/?participantId=0FE09A301659401BA5206B13A64C8AD0&assignmentId=edc0065f-cb35-416c-98b4-70aaca60e0d1&projectId=df079445-14fb-430e-a4ba-0f71c8e82324","","null","","[]","null","",""
"","","","","","html-audio-response","119","501382","0.0-15.0","0FE09A301659401BA5206B13A64C8AD0","0FE09A301659401BA5206B13A64C8AD0","edc0065f-cb35-416c-98b4-70aaca60e0d1","df079445-14fb-430e-a4ba-0f71c8e82324","{""participantId"":""0FE09A301659401BA5206B13A64C8AD0"",""assignmentId"":""edc0065f-cb35-416c-98b4-70aaca60e0d1"",""projectId"":""df079445-14fb-430e-a4ba-0f71c8e82324""}","https://test12345.live/?participantId=0FE09A301659401BA5206B13A64C8AD0&assignmentId=edc0065f-cb35-416c-98b4-70aaca60e0d1&projectId=df079445-14fb-430e-a4ba-0f71c8e82324","","14707","","[""<span style=\""color: red; font-size: 24px\""> NOW RECORDING</span><p>Please say out loud all the images you saw, as many as you can remember. The images can be said in any order.</p>""]","","2","physical_activity_semantic"
"","","","","","image-button-response","120","507392","0.0-16.0-0.0","0FE09A301659401BA5206B13A64C8AD0","0FE09A301659401BA5206B13A64C8AD0","edc0065f-cb35-416c-98b4-70aaca60e0d1","df079445-14fb-430e-a4ba-0f71c8e82324","{""participantId"":""0FE09A301659401BA5206B13A64C8AD0"",""assignmentId"":""edc0065f-cb35-416c-98b4-70aaca60e0d1"",""projectId"":""df079445-14fb-430e-a4ba-0f71c8e82324""}","https://test12345.live/?participantId=0FE09A301659401BA5206B13A64C8AD0&assignmentId=edc0065f-cb35-416c-98b4-70aaca60e0d1&projectId=df079445-14fb-430e-a4ba-0f71c8e82324","","null","","images/semantic_sequence/creative_activities_semantic/creative_activities_semantic_0.png","null","",""
"","","","","","image-button-response","121","511898","0.0-16.0-1.0-0.0","0FE09A301659401BA5206B13A64C8AD0","0FE09A301659401BA5206B13A64C8AD0","edc0065f-cb35-416c-98b4-70aaca60e0d1","df079445-14fb-430e-a4ba-0f71c8e82324","{""participantId"":""0FE09A301659401BA5206B13A64C8AD0"",""assignmentId"":""edc0065f-cb35-416c-98b4-70aaca60e0d1"",""projectId"":""df079445-14fb-430e-a4ba-0f71c8e82324""}","https://test12345.live/?participantId=0FE09A301659401BA5206B13A64C8AD0&assignmentId=edc0065f-cb35-416c-98b4-70aaca60e0d1&projectId=df079445-14fb-430e-a4ba-0f71c8e82324","","null","","images/semantic_sequence/creative_activities_semantic/creative_activities_semantic_1.png","null","",""
"","","","","","image-button-response","122","512858","0.0-16.0-1.0-1.0","0FE09A301659401BA5206B13A64C8AD0","0FE09A301659401BA5206B13A64C8AD0","edc0065f-cb35-416c-98b4-70aaca60e0d1","df079445-14fb-430e-a4ba-0f71c8e82324","{""participantId"":""0FE09A301659401BA5206B13A64C8AD0"",""assignmentId"":""edc0065f-cb35-416c-98b4-70aaca60e0d1"",""projectId"":""df079445-14fb-430e-a4ba-0f71c8e82324""}","https://test12345.live/?participantId=0FE09A301659401BA5206B13A64C8AD0&assignmentId=edc0065f-cb35-416c-98b4-70aaca60e0d1&projectId=df079445-14fb-430e-a4ba-0f71c8e82324","","958","","images/semantic_sequence/creative_activities_semantic/creative_activities_semantic_1.png","0","",""
"","","","","","image-button-response","123","514665","0.0-16.0-1.0-2.0","0FE09A301659401BA5206B13A64C8AD0","0FE09A301659401BA5206B13A64C8AD0","edc0065f-cb35-416c-98b4-70aaca60e0d1","df079445-14fb-430e-a4ba-0f71c8e82324","{""participantId"":""0FE09A301659401BA5206B13A64C8AD0"",""assignmentId"":""edc0065f-cb35-416c-98b4-70aaca60e0d1"",""projectId"":""df079445-14fb-430e-a4ba-0f71c8e82324""}","https://test12345.live/?participantId=0FE09A301659401BA5206B13A64C8AD0&assignmentId=edc0065f-cb35-416c-98b4-70aaca60e0d1&projectId=df079445-14fb-430e-a4ba-0f71c8e82324","","null","","[]","null","",""
"","","","","","image-button-response","124","519169","0.0-16.0-1.0-0.1","0FE09A301659401BA5206B13A64C8AD0","0FE09A301659401BA5206B13A64C8AD0","edc0065f-cb35-416c-98b4-70aaca60e0d1","df079445-14fb-430e-a4ba-0f71c8e82324","{""participantId"":""0FE09A301659401BA5206B13A64C8AD0"",""assignmentId"":""edc0065f-cb35-416c-98b4-70aaca60e0d1"",""projectId"":""df079445-14fb-430e-a4ba-0f71c8e82324""}","https://test12345.live/?participantId=0FE09A301659401BA5206B13A64C8AD0&assignmentId=edc0065f-cb35-416c-98b4-70aaca60e0d1&projectId=df079445-14fb-430e-a4ba-0f71c8e82324","","null","","images/semantic_sequence/creative_activities_semantic/creative_activities_semantic_2.png","null","",""
"","","","","","image-button-response","125","520179","0.0-16.0-1.0-1.1","0FE09A301659401BA5206B13A64C8AD0","0FE09A301659401BA5206B13A64C8AD0","edc0065f-cb35-416c-98b4-70aaca60e0d1","df079445-14fb-430e-a4ba-0f71c8e82324","{""participantId"":""0FE09A301659401BA5206B13A64C8AD0"",""assignmentId"":""edc0065f-cb35-416c-98b4-70aaca60e0d1"",""projectId"":""df079445-14fb-430e-a4ba-0f71c8e82324""}","https://test12345.live/?participantId=0FE09A301659401BA5206B13A64C8AD0&assignmentId=edc0065f-cb35-416c-98b4-70aaca60e0d1&projectId=df079445-14fb-430e-a4ba-0f71c8e82324","","1009","","images/semantic_sequence/creative_activities_semantic/creative_activities_semantic_2.png","0","",""
"","","","","","image-button-response","126","521987","0.0-16.0-1.0-2.1","0FE09A301659401BA5206B13A64C8AD0","0FE09A301659401BA5206B13A64C8AD0","edc0065f-cb35-416c-98b4-70aaca60e0d1","df079445-14fb-430e-a4ba-0f71c8e82324","{""participantId"":""0FE09A301659401BA5206B13A64C8AD0"",""assignmentId"":""edc0065f-cb35-416c-98b4-70aaca60e0d1"",""projectId"":""df079445-14fb-430e-a4ba-0f71c8e82324""}","https://test12345.live/?participantId=0FE09A301659401BA5206B13A64C8AD0&assignmentId=edc0065f-cb35-416c-98b4-70aaca60e0d1&projectId=df079445-14fb-430e-a4ba-0f71c8e82324","","null","","[]","null","",""
"","","","","","image-button-response","127","526489","0.0-16.0-1.0-0.2","0FE09A301659401BA5206B13A64C8AD0","0FE09A301659401BA5206B13A64C8AD0","edc0065f-cb35-416c-98b4-70aaca60e0d1","df079445-14fb-430e-a4ba-0f71c8e82324","{""participantId"":""0FE09A301659401BA5206B13A64C8AD0"",""assignmentId"":""edc0065f-cb35-416c-98b4-70aaca60e0d1"",""projectId"":""df079445-14fb-430e-a4ba-0f71c8e82324""}","https://test12345.live/?participantId=0FE09A301659401BA5206B13A64C8AD0&assignmentId=edc0065f-cb35-416c-98b4-70aaca60e0d1&projectId=df079445-14fb-430e-a4ba-0f71c8e82324","","null","","images/semantic_sequence/creative_activities_semantic/creative_activities_semantic_3.png","null","",""
"","","","","","image-button-response","128","527265","0.0-16.0-1.0-1.2","0FE09A301659401BA5206B13A64C8AD0","0FE09A301659401BA5206B13A64C8AD0","edc0065f-cb35-416c-98b4-70aaca60e0d1","df079445-14fb-430e-a4ba-0f71c8e82324","{""participantId"":""0FE09A301659401BA5206B13A64C8AD0"",""assignmentId"":""edc0065f-cb35-416c-98b4-70aaca60e0d1"",""projectId"":""df079445-14fb-430e-a4ba-0f71c8e82324""}","https://test12345.live/?participantId=0FE09A301659401BA5206B13A64C8AD0&assignmentId=edc0065f-cb35-416c-98b4-70aaca60e0d1&projectId=df079445-14fb-430e-a4ba-0f71c8e82324","","773","","images/semantic_sequence/creative_activities_semantic/creative_activities_semantic_3.png","0","",""
"","","","","","image-button-response","129","529072","0.0-16.0-1.0-2.2","0FE09A301659401BA5206B13A64C8AD0","0FE09A301659401BA5206B13A64C8AD0","edc0065f-cb35-416c-98b4-70aaca60e0d1","df079445-14fb-430e-a4ba-0f71c8e82324","{""participantId"":""0FE09A301659401BA5206B13A64C8AD0"",""assignmentId"":""edc0065f-cb35-416c-98b4-70aaca60e0d1"",""projectId"":""df079445-14fb-430e-a4ba-0f71c8e82324""}","https://test12345.live/?participantId=0FE09A301659401BA5206B13A64C8AD0&assignmentId=edc0065f-cb35-416c-98b4-70aaca60e0d1&projectId=df079445-14fb-430e-a4ba-0f71c8e82324","","null","","[]","null","",""
"","","","","","image-button-response","130","533578","0.0-16.0-1.0-0.3","0FE09A301659401BA5206B13A64C8AD0","0FE09A301659401BA5206B13A64C8AD0","edc0065f-cb35-416c-98b4-70aaca60e0d1","df079445-14fb-430e-a4ba-0f71c8e82324","{""participantId"":""0FE09A301659401BA5206B13A64C8AD0"",""assignmentId"":""edc0065f-cb35-416c-98b4-70aaca60e0d1"",""projectId"":""df079445-14fb-430e-a4ba-0f71c8e82324""}","https://test12345.live/?participantId=0FE09A301659401BA5206B13A64C8AD0&assignmentId=edc0065f-cb35-416c-98b4-70aaca60e0d1&projectId=df079445-14fb-430e-a4ba-0f71c8e82324","","null","","images/semantic_sequence/creative_activities_semantic/creative_activities_semantic_4.png","null","",""
"","","","","","image-button-response","131","534225","0.0-16.0-1.0-1.3","0FE09A301659401BA5206B13A64C8AD0","0FE09A301659401BA5206B13A64C8AD0","edc0065f-cb35-416c-98b4-70aaca60e0d1","df079445-14fb-430e-a4ba-0f71c8e82324","{""participantId"":""0FE09A301659401BA5206B13A64C8AD0"",""assignmentId"":""edc0065f-cb35-416c-98b4-70aaca60e0d1"",""projectId"":""df079445-14fb-430e-a4ba-0f71c8e82324""}","https://test12345.live/?participantId=0FE09A301659401BA5206B13A64C8AD0&assignmentId=edc0065f-cb35-416c-98b4-70aaca60e0d1&projectId=df079445-14fb-430e-a4ba-0f71c8e82324","","646","","images/semantic_sequence/creative_activities_semantic/creative_activities_semantic_4.png","0","",""
"","","","","","image-button-response","132","536032","0.0-16.0-1.0-2.3","0FE09A301659401BA5206B13A64C8AD0","0FE09A301659401BA5206B13A64C8AD0","edc0065f-cb35-416c-98b4-70aaca60e0d1","df079445-14fb-430e-a4ba-0f71c8e82324","{""participantId"":""0FE09A301659401BA5206B13A64C8AD0"",""assignmentId"":""edc0065f-cb35-416c-98b4-70aaca60e0d1"",""projectId"":""df079445-14fb-430e-a4ba-0f71c8e82324""}","https://test12345.live/?participantId=0FE09A301659401BA5206B13A64C8AD0&assignmentId=edc0065f-cb35-416c-98b4-70aaca60e0d1&projectId=df079445-14fb-430e-a4ba-0f71c8e82324","","null","","[]","null","",""
"","","","","","image-button-response","133","540537","0.0-16.0-1.0-0.4","0FE09A301659401BA5206B13A64C8AD0","0FE09A301659401BA5206B13A64C8AD0","edc0065f-cb35-416c-98b4-70aaca60e0d1","df079445-14fb-430e-a4ba-0f71c8e82324","{""participantId"":""0FE09A301659401BA5206B13A64C8AD0"",""assignmentId"":""edc0065f-cb35-416c-98b4-70aaca60e0d1"",""projectId"":""df079445-14fb-430e-a4ba-0f71c8e82324""}","https://test12345.live/?participantId=0FE09A301659401BA5206B13A64C8AD0&assignmentId=edc0065f-cb35-416c-98b4-70aaca60e0d1&projectId=df079445-14fb-430e-a4ba-0f71c8e82324","","null","","images/semantic_sequence/creative_activities_semantic/creative_activities_semantic_5.png","null","",""
"","","","","","image-button-response","134","541299","0.0-16.0-1.0-1.4","0FE09A301659401BA5206B13A64C8AD0","0FE09A301659401BA5206B13A64C8AD0","edc0065f-cb35-416c-98b4-70aaca60e0d1","df079445-14fb-430e-a4ba-0f71c8e82324","{""participantId"":""0FE09A301659401BA5206B13A64C8AD0"",""assignmentId"":""edc0065f-cb35-416c-98b4-70aaca60e0d1"",""projectId"":""df079445-14fb-430e-a4ba-0f71c8e82324""}","https://test12345.live/?participantId=0FE09A301659401BA5206B13A64C8AD0&assignmentId=edc0065f-cb35-416c-98b4-70aaca60e0d1&projectId=df079445-14fb-430e-a4ba-0f71c8e82324","","760","","images/semantic_sequence/creative_activities_semantic/creative_activities_semantic_5.png","0","",""
"","","","","","image-button-response","135","543107","0.0-16.0-1.0-2.4","0FE09A301659401BA5206B13A64C8AD0","0FE09A301659401BA5206B13A64C8AD0","edc0065f-cb35-416c-98b4-70aaca60e0d1","df079445-14fb-430e-a4ba-0f71c8e82324","{""participantId"":""0FE09A301659401BA5206B13A64C8AD0"",""assignmentId"":""edc0065f-cb35-416c-98b4-70aaca60e0d1"",""projectId"":""df079445-14fb-430e-a4ba-0f71c8e82324""}","https://test12345.live/?participantId=0FE09A301659401BA5206B13A64C8AD0&assignmentId=edc0065f-cb35-416c-98b4-70aaca60e0d1&projectId=df079445-14fb-430e-a4ba-0f71c8e82324","","null","","[]","null","",""
"","","","","","image-button-response","136","547614","0.0-16.0-1.0-0.5","0FE09A301659401BA5206B13A64C8AD0","0FE09A301659401BA5206B13A64C8AD0","edc0065f-cb35-416c-98b4-70aaca60e0d1","df079445-14fb-430e-a4ba-0f71c8e82324","{""participantId"":""0FE09A301659401BA5206B13A64C8AD0"",""assignmentId"":""edc0065f-cb35-416c-98b4-70aaca60e0d1"",""projectId"":""df079445-14fb-430e-a4ba-0f71c8e82324""}","https://test12345.live/?participantId=0FE09A301659401BA5206B13A64C8AD0&assignmentId=edc0065f-cb35-416c-98b4-70aaca60e0d1&projectId=df079445-14fb-430e-a4ba-0f71c8e82324","","null","","images/semantic_sequence/creative_activities_semantic/creative_activities_semantic_6.png","null","",""
"","","","","","image-button-response","137","548370","0.0-16.0-1.0-1.5","0FE09A301659401BA5206B13A64C8AD0","0FE09A301659401BA5206B13A64C8AD0","edc0065f-cb35-416c-98b4-70aaca60e0d1","df079445-14fb-430e-a4ba-0f71c8e82324","{""participantId"":""0FE09A301659401BA5206B13A64C8AD0"",""assignmentId"":""edc0065f-cb35-416c-98b4-70aaca60e0d1"",""projectId"":""df079445-14fb-430e-a4ba-0f71c8e82324""}","https://test12345.live/?participantId=0FE09A301659401BA5206B13A64C8AD0&assignmentId=edc0065f-cb35-416c-98b4-70aaca60e0d1&projectId=df079445-14fb-430e-a4ba-0f71c8e82324","","752","","images/semantic_sequence/creative_activities_semantic/creative_activities_semantic_6.png","0","",""
"","","","","","image-button-response","138","550177","0.0-16.0-1.0-2.5","0FE09A301659401BA5206B13A64C8AD0","0FE09A301659401BA5206B13A64C8AD0","edc0065f-cb35-416c-98b4-70aaca60e0d1","df079445-14fb-430e-a4ba-0f71c8e82324","{""participantId"":""0FE09A301659401BA5206B13A64C8AD0"",""assignmentId"":""edc0065f-cb35-416c-98b4-70aaca60e0d1"",""projectId"":""df079445-14fb-430e-a4ba-0f71c8e82324""}","https://test12345.live/?participantId=0FE09A301659401BA5206B13A64C8AD0&assignmentId=edc0065f-cb35-416c-98b4-70aaca60e0d1&projectId=df079445-14fb-430e-a4ba-0f71c8e82324","","null","","[]","null","",""
"","","","","","image-button-response","139","554679","0.0-16.0-1.0-0.6","0FE09A301659401BA5206B13A64C8AD0","0FE09A301659401BA5206B13A64C8AD0","edc0065f-cb35-416c-98b4-70aaca60e0d1","df079445-14fb-430e-a4ba-0f71c8e82324","{""participantId"":""0FE09A301659401BA5206B13A64C8AD0"",""assignmentId"":""edc0065f-cb35-416c-98b4-70aaca60e0d1"",""projectId"":""df079445-14fb-430e-a4ba-0f71c8e82324""}","https://test12345.live/?participantId=0FE09A301659401BA5206B13A64C8AD0&assignmentId=edc0065f-cb35-416c-98b4-70aaca60e0d1&projectId=df079445-14fb-430e-a4ba-0f71c8e82324","","null","","images/semantic_sequence/creative_activities_semantic/creative_activities_semantic_7.png","null","",""
"","","","","","image-button-response","140","555540","0.0-16.0-1.0-1.6","0FE09A301659401BA5206B13A64C8AD0","0FE09A301659401BA5206B13A64C8AD0","edc0065f-cb35-416c-98b4-70aaca60e0d1","df079445-14fb-430e-a4ba-0f71c8e82324","{""participantId"":""0FE09A301659401BA5206B13A64C8AD0"",""assignmentId"":""edc0065f-cb35-416c-98b4-70aaca60e0d1"",""projectId"":""df079445-14fb-430e-a4ba-0f71c8e82324""}","https://test12345.live/?participantId=0FE09A301659401BA5206B13A64C8AD0&assignmentId=edc0065f-cb35-416c-98b4-70aaca60e0d1&projectId=df079445-14fb-430e-a4ba-0f71c8e82324","","859","","images/semantic_sequence/creative_activities_semantic/creative_activities_semantic_7.png","0","",""
"","","","","","image-button-response","141","557347","0.0-16.0-1.0-2.6","0FE09A301659401BA5206B13A64C8AD0","0FE09A301659401BA5206B13A64C8AD0","edc0065f-cb35-416c-98b4-70aaca60e0d1","df079445-14fb-430e-a4ba-0f71c8e82324","{""participantId"":""0FE09A301659401BA5206B13A64C8AD0"",""assignmentId"":""edc0065f-cb35-416c-98b4-70aaca60e0d1"",""projectId"":""df079445-14fb-430e-a4ba-0f71c8e82324""}","https://test12345.live/?participantId=0FE09A301659401BA5206B13A64C8AD0&assignmentId=edc0065f-cb35-416c-98b4-70aaca60e0d1&projectId=df079445-14fb-430e-a4ba-0f71c8e82324","","null","","[]","null","",""
"","","","","","image-button-response","142","561854","0.0-16.0-1.0-0.7","0FE09A301659401BA5206B13A64C8AD0","0FE09A301659401BA5206B13A64C8AD0","edc0065f-cb35-416c-98b4-70aaca60e0d1","df079445-14fb-430e-a4ba-0f71c8e82324","{""participantId"":""0FE09A301659401BA5206B13A64C8AD0"",""assignmentId"":""edc0065f-cb35-416c-98b4-70aaca60e0d1"",""projectId"":""df079445-14fb-430e-a4ba-0f71c8e82324""}","https://test12345.live/?participantId=0FE09A301659401BA5206B13A64C8AD0&assignmentId=edc0065f-cb35-416c-98b4-70aaca60e0d1&projectId=df079445-14fb-430e-a4ba-0f71c8e82324","","null","","images/semantic_sequence/creative_activities_semantic/creative_activities_semantic_8.png","null","",""
"","","","","","image-button-response","143","562344","0.0-16.0-1.0-1.7","0FE09A301659401BA5206B13A64C8AD0","0FE09A301659401BA5206B13A64C8AD0","edc0065f-cb35-416c-98b4-70aaca60e0d1","df079445-14fb-430e-a4ba-0f71c8e82324","{""participantId"":""0FE09A301659401BA5206B13A64C8AD0"",""assignmentId"":""edc0065f-cb35-416c-98b4-70aaca60e0d1"",""projectId"":""df079445-14fb-430e-a4ba-0f71c8e82324""}","https://test12345.live/?participantId=0FE09A301659401BA5206B13A64C8AD0&assignmentId=edc0065f-cb35-416c-98b4-70aaca60e0d1&projectId=df079445-14fb-430e-a4ba-0f71c8e82324","","487","","images/semantic_sequence/creative_activities_semantic/creative_activities_semantic_8.png","0","",""
"","","","","","image-button-response","144","564151","0.0-16.0-1.0-2.7","0FE09A301659401BA5206B13A64C8AD0","0FE09A301659401BA5206B13A64C8AD0","edc0065f-cb35-416c-98b4-70aaca60e0d1","df079445-14fb-430e-a4ba-0f71c8e82324","{""participantId"":""0FE09A301659401BA5206B13A64C8AD0"",""assignmentId"":""edc0065f-cb35-416c-98b4-70aaca60e0d1"",""projectId"":""df079445-14fb-430e-a4ba-0f71c8e82324""}","https://test12345.live/?participantId=0FE09A301659401BA5206B13A64C8AD0&assignmentId=edc0065f-cb35-416c-98b4-70aaca60e0d1&projectId=df079445-14fb-430e-a4ba-0f71c8e82324","","null","","[]","null","",""
"","","","","","image-button-response","145","568656","0.0-16.0-1.0-0.8","0FE09A301659401BA5206B13A64C8AD0","0FE09A301659401BA5206B13A64C8AD0","edc0065f-cb35-416c-98b4-70aaca60e0d1","df079445-14fb-430e-a4ba-0f71c8e82324","{""participantId"":""0FE09A301659401BA5206B13A64C8AD0"",""assignmentId"":""edc0065f-cb35-416c-98b4-70aaca60e0d1"",""projectId"":""df079445-14fb-430e-a4ba-0f71c8e82324""}","https://test12345.live/?participantId=0FE09A301659401BA5206B13A64C8AD0&assignmentId=edc0065f-cb35-416c-98b4-70aaca60e0d1&projectId=df079445-14fb-430e-a4ba-0f71c8e82324","","null","","images/semantic_sequence/creative_activities_semantic/creative_activities_semantic_9.png","null","",""
"","","","","","image-button-response","146","569536","0.0-16.0-1.0-1.8","0FE09A301659401BA5206B13A64C8AD0","0FE09A301659401BA5206B13A64C8AD0","edc0065f-cb35-416c-98b4-70aaca60e0d1","df079445-14fb-430e-a4ba-0f71c8e82324","{""participantId"":""0FE09A301659401BA5206B13A64C8AD0"",""assignmentId"":""edc0065f-cb35-416c-98b4-70aaca60e0d1"",""projectId"":""df079445-14fb-430e-a4ba-0f71c8e82324""}","https://test12345.live/?participantId=0FE09A301659401BA5206B13A64C8AD0&assignmentId=edc0065f-cb35-416c-98b4-70aaca60e0d1&projectId=df079445-14fb-430e-a4ba-0f71c8e82324","","876","","images/semantic_sequence/creative_activities_semantic/creative_activities_semantic_9.png","0","",""
"","","","","","image-button-response","147","571338","0.0-16.0-1.0-2.8","0FE09A301659401BA5206B13A64C8AD0","0FE09A301659401BA5206B13A64C8AD0","edc0065f-cb35-416c-98b4-70aaca60e0d1","df079445-14fb-430e-a4ba-0f71c8e82324","{""participantId"":""0FE09A301659401BA5206B13A64C8AD0"",""assignmentId"":""edc0065f-cb35-416c-98b4-70aaca60e0d1"",""projectId"":""df079445-14fb-430e-a4ba-0f71c8e82324""}","https://test12345.live/?participantId=0FE09A301659401BA5206B13A64C8AD0&assignmentId=edc0065f-cb35-416c-98b4-70aaca60e0d1&projectId=df079445-14fb-430e-a4ba-0f71c8e82324","","null","","[]","null","",""
"","","","","","image-button-response","148","575846","0.0-16.0-1.0-0.9","0FE09A301659401BA5206B13A64C8AD0","0FE09A301659401BA5206B13A64C8AD0","edc0065f-cb35-416c-98b4-70aaca60e0d1","df079445-14fb-430e-a4ba-0f71c8e82324","{""participantId"":""0FE09A301659401BA5206B13A64C8AD0"",""assignmentId"":""edc0065f-cb35-416c-98b4-70aaca60e0d1"",""projectId"":""df079445-14fb-430e-a4ba-0f71c8e82324""}","https://test12345.live/?participantId=0FE09A301659401BA5206B13A64C8AD0&assignmentId=edc0065f-cb35-416c-98b4-70aaca60e0d1&projectId=df079445-14fb-430e-a4ba-0f71c8e82324","","null","","images/semantic_sequence/creative_activities_semantic/creative_activities_semantic_ten.png","null","",""
"","","","","","image-button-response","149","576787","0.0-16.0-1.0-1.9","0FE09A301659401BA5206B13A64C8AD0","0FE09A301659401BA5206B13A64C8AD0","edc0065f-cb35-416c-98b4-70aaca60e0d1","df079445-14fb-430e-a4ba-0f71c8e82324","{""participantId"":""0FE09A301659401BA5206B13A64C8AD0"",""assignmentId"":""edc0065f-cb35-416c-98b4-70aaca60e0d1"",""projectId"":""df079445-14fb-430e-a4ba-0f71c8e82324""}","https://test12345.live/?participantId=0FE09A301659401BA5206B13A64C8AD0&assignmentId=edc0065f-cb35-416c-98b4-70aaca60e0d1&projectId=df079445-14fb-430e-a4ba-0f71c8e82324","","938","","images/semantic_sequence/creative_activities_semantic/creative_activities_semantic_ten.png","0","",""
"","","","","","image-button-response","150","578593","0.0-16.0-1.0-2.9","0FE09A301659401BA5206B13A64C8AD0","0FE09A301659401BA5206B13A64C8AD0","edc0065f-cb35-416c-98b4-70aaca60e0d1","df079445-14fb-430e-a4ba-0f71c8e82324","{""participantId"":""0FE09A301659401BA5206B13A64C8AD0"",""assignmentId"":""edc0065f-cb35-416c-98b4-70aaca60e0d1"",""projectId"":""df079445-14fb-430e-a4ba-0f71c8e82324""}","https://test12345.live/?participantId=0FE09A301659401BA5206B13A64C8AD0&assignmentId=edc0065f-cb35-416c-98b4-70aaca60e0d1&projectId=df079445-14fb-430e-a4ba-0f71c8e82324","","null","","[]","null","",""
"","","","","","html-audio-response","151","598587","0.0-17.0","0FE09A301659401BA5206B13A64C8AD0","0FE09A301659401BA5206B13A64C8AD0","edc0065f-cb35-416c-98b4-70aaca60e0d1","df079445-14fb-430e-a4ba-0f71c8e82324","{""participantId"":""0FE09A301659401BA5206B13A64C8AD0"",""assignmentId"":""edc0065f-cb35-416c-98b4-70aaca60e0d1"",""projectId"":""df079445-14fb-430e-a4ba-0f71c8e82324""}","https://test12345.live/?participantId=0FE09A301659401BA5206B13A64C8AD0&assignmentId=edc0065f-cb35-416c-98b4-70aaca60e0d1&projectId=df079445-14fb-430e-a4ba-0f71c8e82324","","19063","","[""<span style=\""color: red; font-size: 24px\""> NOW RECORDING</span><p>Please say out loud all the images you saw, as many as you can remember. The images can be said in any order.</p>""]","","2","creative_activities_semantic"
"","","","","","image-button-response","152","604597","0.0-18.0-0.0","0FE09A301659401BA5206B13A64C8AD0","0FE09A301659401BA5206B13A64C8AD0","edc0065f-cb35-416c-98b4-70aaca60e0d1","df079445-14fb-430e-a4ba-0f71c8e82324","{""participantId"":""0FE09A301659401BA5206B13A64C8AD0"",""assignmentId"":""edc0065f-cb35-416c-98b4-70aaca60e0d1"",""projectId"":""df079445-14fb-430e-a4ba-0f71c8e82324""}","https://test12345.live/?participantId=0FE09A301659401BA5206B13A64C8AD0&assignmentId=edc0065f-cb35-416c-98b4-70aaca60e0d1&projectId=df079445-14fb-430e-a4ba-0f71c8e82324","","null","","images/semantic_sequence/kitchen_operations_semantic/kitchen_operations_semantic_0.png","null","",""
"","","","","","image-button-response","153","609160","0.0-18.0-1.0-0.0","0FE09A301659401BA5206B13A64C8AD0","0FE09A301659401BA5206B13A64C8AD0","edc0065f-cb35-416c-98b4-70aaca60e0d1","df079445-14fb-430e-a4ba-0f71c8e82324","{""participantId"":""0FE09A301659401BA5206B13A64C8AD0"",""assignmentId"":""edc0065f-cb35-416c-98b4-70aaca60e0d1"",""projectId"":""df079445-14fb-430e-a4ba-0f71c8e82324""}","https://test12345.live/?participantId=0FE09A301659401BA5206B13A64C8AD0&assignmentId=edc0065f-cb35-416c-98b4-70aaca60e0d1&projectId=df079445-14fb-430e-a4ba-0f71c8e82324","","null","","images/semantic_sequence/kitchen_operations_semantic/kitchen_operations_semantic_1.png","null","",""
