"success","timeout","failed_images","failed_audio","failed_video","trial_type","trial_index","time_elapsed","internal_node_id","subject","subject_id","study_id","session_id","urlvar","current_url","audio_id","view_history","rt","device_id","stimulus","response","estimated_stimulus_onset","seq_name"
"true","false","[]","[]","[]","preload","0","7255","0.0-0.0","11611D7ADEE14F5D91DCFC3B7ADFDB7F","11611D7ADEE14F5D91DCFC3B7ADFDB7F","cd375c40-2a50-4ee9-a4c7-48f3cd69093a","a0a8f18c-a66e-4ba7-a170-23efbdc67501","{""participantId"":""11611D7ADEE14F5D91DCFC3B7ADFDB7F"",""assignmentId"":""cd375c40-2a50-4ee9-a4c7-48f3cd69093a"",""projectId"":""a0a8f18c-a66e-4ba7-a170-23efbdc67501""}","https://test12345.live/?participantId=11611D7ADEE14F5D91DCFC3B7ADFDB7F&assignmentId=cd375c40-2a50-4ee9-a4c7-48f3cd69093a&projectId=a0a8f18c-a66e-4ba7-a170-23efbdc67501","11611D7ADEE14F5D91DCFC3B7ADFDB7F-2024-11-24-18-56-45","","","","","","",""
"","","","","","instructions","1","303354","0.0-1.0","11611D7ADEE14F5D91DCFC3B7ADFDB7F","11611D7ADEE14F5D91DCFC3B7ADFDB7F","cd375c40-2a50-4ee9-a4c7-48f3cd69093a","a0a8f18c-a66e-4ba7-a170-23efbdc67501","{""participantId"":""11611D7ADEE14F5D91DCFC3B7ADFDB7F"",""assignmentId"":""cd375c40-2a50-4ee9-a4c7-48f3cd69093a"",""projectId"":""a0a8f18c-a66e-4ba7-a170-23efbdc67501""}","https://test12345.live/?participantId=11611D7ADEE14F5D91DCFC3B7ADFDB7F&assignmentId=cd375c40-2a50-4ee9-a4c7-48f3cd69093a&projectId=a0a8f18c-a66e-4ba7-a170-23efbdc67501","11611D7ADEE14F5D91DCFC3B7ADFDB7F-2024-11-24-18-56-45","[{""page_index"":0,""viewing_time"":296083}]","296087","","","","",""
"","","","","","instructions","2","367459","0.0-2.0","11611D7ADEE14F5D91DCFC3B7ADFDB7F","11611D7ADEE14F5D91DCFC3B7ADFDB7F","cd375c40-2a50-4ee9-a4c7-48f3cd69093a","a0a8f18c-a66e-4ba7-a170-23efbdc67501","{""participantId"":""11611D7ADEE14F5D91DCFC3B7ADFDB7F"",""assignmentId"":""cd375c40-2a50-4ee9-a4c7-48f3cd69093a"",""projectId"":""a0a8f18c-a66e-4ba7-a170-23efbdc67501""}","https://test12345.live/?participantId=11611D7ADEE14F5D91DCFC3B7ADFDB7F&assignmentId=cd375c40-2a50-4ee9-a4c7-48f3cd69093a&projectId=a0a8f18c-a66e-4ba7-a170-23efbdc67501","11611D7ADEE14F5D91DCFC3B7ADFDB7F-2024-11-24-18-56-45","[{""page_index"":0,""viewing_time"":64093}]","64095","","","","",""
"true","","","","","fullscreen","3","372117","0.0-3.0","11611D7ADEE14F5D91DCFC3B7ADFDB7F","11611D7ADEE14F5D91DCFC3B7ADFDB7F","cd375c40-2a50-4ee9-a4c7-48f3cd69093a","a0a8f18c-a66e-4ba7-a170-23efbdc67501","{""participantId"":""11611D7ADEE14F5D91DCFC3B7ADFDB7F"",""assignmentId"":""cd375c40-2a50-4ee9-a4c7-48f3cd69093a"",""projectId"":""a0a8f18c-a66e-4ba7-a170-23efbdc67501""}","https://test12345.live/?participantId=11611D7ADEE14F5D91DCFC3B7ADFDB7F&assignmentId=cd375c40-2a50-4ee9-a4c7-48f3cd69093a&projectId=a0a8f18c-a66e-4ba7-a170-23efbdc67501","11611D7ADEE14F5D91DCFC3B7ADFDB7F-2024-11-24-18-56-45","","3636","","","","",""
"","","","","","initialize-microphone","4","379005","0.0-4.0-0.0","11611D7ADEE14F5D91DCFC3B7ADFDB7F","11611D7ADEE14F5D91DCFC3B7ADFDB7F","cd375c40-2a50-4ee9-a4c7-48f3cd69093a","a0a8f18c-a66e-4ba7-a170-23efbdc67501","{""participantId"":""11611D7ADEE14F5D91DCFC3B7ADFDB7F"",""assignmentId"":""cd375c40-2a50-4ee9-a4c7-48f3cd69093a"",""projectId"":""a0a8f18c-a66e-4ba7-a170-23efbdc67501""}","https://test12345.live/?participantId=11611D7ADEE14F5D91DCFC3B7ADFDB7F&assignmentId=cd375c40-2a50-4ee9-a4c7-48f3cd69093a&projectId=a0a8f18c-a66e-4ba7-a170-23efbdc67501","11611D7ADEE14F5D91DCFC3B7ADFDB7F-2024-11-24-18-56-45","","","9a807603c59b16e6322f48af94fbcdafb46029074d8b6a3cb5a852994ac82a0f","","","",""
"","","","","","html-audio-response","5","404985","0.0-4.0-1.0","11611D7ADEE14F5D91DCFC3B7ADFDB7F","11611D7ADEE14F5D91DCFC3B7ADFDB7F","cd375c40-2a50-4ee9-a4c7-48f3cd69093a","a0a8f18c-a66e-4ba7-a170-23efbdc67501","{""participantId"":""11611D7ADEE14F5D91DCFC3B7ADFDB7F"",""assignmentId"":""cd375c40-2a50-4ee9-a4c7-48f3cd69093a"",""projectId"":""a0a8f18c-a66e-4ba7-a170-23efbdc67501""}","https://test12345.live/?participantId=11611D7ADEE14F5D91DCFC3B7ADFDB7F&assignmentId=cd375c40-2a50-4ee9-a4c7-48f3cd69093a&projectId=a0a8f18c-a66e-4ba7-a170-23efbdc67501","11611D7ADEE14F5D91DCFC3B7ADFDB7F-2024-11-24-18-56-45","","3150","","<span style=""color: red; font-size: 24px""> NOW RECORDING</span>
        <p>Please test Microphone</p>","","11",""
"","","","","","html-button-response","6","407866","0.0-4.0-2.0","11611D7ADEE14F5D91DCFC3B7ADFDB7F","11611D7ADEE14F5D91DCFC3B7ADFDB7F","cd375c40-2a50-4ee9-a4c7-48f3cd69093a","a0a8f18c-a66e-4ba7-a170-23efbdc67501","{""participantId"":""11611D7ADEE14F5D91DCFC3B7ADFDB7F"",""assignmentId"":""cd375c40-2a50-4ee9-a4c7-48f3cd69093a"",""projectId"":""a0a8f18c-a66e-4ba7-a170-23efbdc67501""}","https://test12345.live/?participantId=11611D7ADEE14F5D91DCFC3B7ADFDB7F&assignmentId=cd375c40-2a50-4ee9-a4c7-48f3cd69093a&projectId=a0a8f18c-a66e-4ba7-a170-23efbdc67501","11611D7ADEE14F5D91DCFC3B7ADFDB7F-2024-11-24-18-56-45","","2879","","<p style=""font-size:48px; color:red;"">Is Microphone OK?</p>","1","",""
"","","","","","instructions","7","433553","0.0-5.0","11611D7ADEE14F5D91DCFC3B7ADFDB7F","11611D7ADEE14F5D91DCFC3B7ADFDB7F","cd375c40-2a50-4ee9-a4c7-48f3cd69093a","a0a8f18c-a66e-4ba7-a170-23efbdc67501","{""participantId"":""11611D7ADEE14F5D91DCFC3B7ADFDB7F"",""assignmentId"":""cd375c40-2a50-4ee9-a4c7-48f3cd69093a"",""projectId"":""a0a8f18c-a66e-4ba7-a170-23efbdc67501""}","https://test12345.live/?participantId=11611D7ADEE14F5D91DCFC3B7ADFDB7F&assignmentId=cd375c40-2a50-4ee9-a4c7-48f3cd69093a&projectId=a0a8f18c-a66e-4ba7-a170-23efbdc67501","11611D7ADEE14F5D91DCFC3B7ADFDB7F-2024-11-24-18-56-45","[{""page_index"":0,""viewing_time"":7469},{""page_index"":1,""viewing_time"":18214}]","25683","","","","",""
"","","","","","image-button-response","8","439606","0.0-6.0-0.0","11611D7ADEE14F5D91DCFC3B7ADFDB7F","11611D7ADEE14F5D91DCFC3B7ADFDB7F","cd375c40-2a50-4ee9-a4c7-48f3cd69093a","a0a8f18c-a66e-4ba7-a170-23efbdc67501","{""participantId"":""11611D7ADEE14F5D91DCFC3B7ADFDB7F"",""assignmentId"":""cd375c40-2a50-4ee9-a4c7-48f3cd69093a"",""projectId"":""a0a8f18c-a66e-4ba7-a170-23efbdc67501""}","https://test12345.live/?participantId=11611D7ADEE14F5D91DCFC3B7ADFDB7F&assignmentId=cd375c40-2a50-4ee9-a4c7-48f3cd69093a&projectId=a0a8f18c-a66e-4ba7-a170-23efbdc67501","11611D7ADEE14F5D91DCFC3B7ADFDB7F-2024-11-24-18-56-45","","null","","images/instructions/movie_0.png","null","",""
"","","","","","image-button-response","9","444111","0.0-6.0-1.0-0.0","11611D7ADEE14F5D91DCFC3B7ADFDB7F","11611D7ADEE14F5D91DCFC3B7ADFDB7F","cd375c40-2a50-4ee9-a4c7-48f3cd69093a","a0a8f18c-a66e-4ba7-a170-23efbdc67501","{""participantId"":""11611D7ADEE14F5D91DCFC3B7ADFDB7F"",""assignmentId"":""cd375c40-2a50-4ee9-a4c7-48f3cd69093a"",""projectId"":""a0a8f18c-a66e-4ba7-a170-23efbdc67501""}","https://test12345.live/?participantId=11611D7ADEE14F5D91DCFC3B7ADFDB7F&assignmentId=cd375c40-2a50-4ee9-a4c7-48f3cd69093a&projectId=a0a8f18c-a66e-4ba7-a170-23efbdc67501","11611D7ADEE14F5D91DCFC3B7ADFDB7F-2024-11-24-18-56-45","","null","","images/instructions/movie_1.png","null","",""
"","","","","","image-button-response","10","448116","0.0-6.0-1.0-1.0","11611D7ADEE14F5D91DCFC3B7ADFDB7F","11611D7ADEE14F5D91DCFC3B7ADFDB7F","cd375c40-2a50-4ee9-a4c7-48f3cd69093a","a0a8f18c-a66e-4ba7-a170-23efbdc67501","{""participantId"":""11611D7ADEE14F5D91DCFC3B7ADFDB7F"",""assignmentId"":""cd375c40-2a50-4ee9-a4c7-48f3cd69093a"",""projectId"":""a0a8f18c-a66e-4ba7-a170-23efbdc67501""}","https://test12345.live/?participantId=11611D7ADEE14F5D91DCFC3B7ADFDB7F&assignmentId=cd375c40-2a50-4ee9-a4c7-48f3cd69093a&projectId=a0a8f18c-a66e-4ba7-a170-23efbdc67501","11611D7ADEE14F5D91DCFC3B7ADFDB7F-2024-11-24-18-56-45","","null","","images/instructions/movie_1.png","null","",""
"","","","","","image-button-response","11","449931","0.0-6.0-1.0-2.0","11611D7ADEE14F5D91DCFC3B7ADFDB7F","11611D7ADEE14F5D91DCFC3B7ADFDB7F","cd375c40-2a50-4ee9-a4c7-48f3cd69093a","a0a8f18c-a66e-4ba7-a170-23efbdc67501","{""participantId"":""11611D7ADEE14F5D91DCFC3B7ADFDB7F"",""assignmentId"":""cd375c40-2a50-4ee9-a4c7-48f3cd69093a"",""projectId"":""a0a8f18c-a66e-4ba7-a170-23efbdc67501""}","https://test12345.live/?participantId=11611D7ADEE14F5D91DCFC3B7ADFDB7F&assignmentId=cd375c40-2a50-4ee9-a4c7-48f3cd69093a&projectId=a0a8f18c-a66e-4ba7-a170-23efbdc67501","11611D7ADEE14F5D91DCFC3B7ADFDB7F-2024-11-24-18-56-45","","null","","[]","null","",""
"","","","","","image-button-response","12","454436","0.0-6.0-1.0-0.1","11611D7ADEE14F5D91DCFC3B7ADFDB7F","11611D7ADEE14F5D91DCFC3B7ADFDB7F","cd375c40-2a50-4ee9-a4c7-48f3cd69093a","a0a8f18c-a66e-4ba7-a170-23efbdc67501","{""participantId"":""11611D7ADEE14F5D91DCFC3B7ADFDB7F"",""assignmentId"":""cd375c40-2a50-4ee9-a4c7-48f3cd69093a"",""projectId"":""a0a8f18c-a66e-4ba7-a170-23efbdc67501""}","https://test12345.live/?participantId=11611D7ADEE14F5D91DCFC3B7ADFDB7F&assignmentId=cd375c40-2a50-4ee9-a4c7-48f3cd69093a&projectId=a0a8f18c-a66e-4ba7-a170-23efbdc67501","11611D7ADEE14F5D91DCFC3B7ADFDB7F-2024-11-24-18-56-45","","null","","images/instructions/movie_2.png","null","",""
"","","","","","image-button-response","13","455652","0.0-6.0-1.0-1.1","11611D7ADEE14F5D91DCFC3B7ADFDB7F","11611D7ADEE14F5D91DCFC3B7ADFDB7F","cd375c40-2a50-4ee9-a4c7-48f3cd69093a","a0a8f18c-a66e-4ba7-a170-23efbdc67501","{""participantId"":""11611D7ADEE14F5D91DCFC3B7ADFDB7F"",""assignmentId"":""cd375c40-2a50-4ee9-a4c7-48f3cd69093a"",""projectId"":""a0a8f18c-a66e-4ba7-a170-23efbdc67501""}","https://test12345.live/?participantId=11611D7ADEE14F5D91DCFC3B7ADFDB7F&assignmentId=cd375c40-2a50-4ee9-a4c7-48f3cd69093a&projectId=a0a8f18c-a66e-4ba7-a170-23efbdc67501","11611D7ADEE14F5D91DCFC3B7ADFDB7F-2024-11-24-18-56-45","","1214","","images/instructions/movie_2.png","0","",""
"","","","","","image-button-response","14","457457","0.0-6.0-1.0-2.1","11611D7ADEE14F5D91DCFC3B7ADFDB7F","11611D7ADEE14F5D91DCFC3B7ADFDB7F","cd375c40-2a50-4ee9-a4c7-48f3cd69093a","a0a8f18c-a66e-4ba7-a170-23efbdc67501","{""participantId"":""11611D7ADEE14F5D91DCFC3B7ADFDB7F"",""assignmentId"":""cd375c40-2a50-4ee9-a4c7-48f3cd69093a"",""projectId"":""a0a8f18c-a66e-4ba7-a170-23efbdc67501""}","https://test12345.live/?participantId=11611D7ADEE14F5D91DCFC3B7ADFDB7F&assignmentId=cd375c40-2a50-4ee9-a4c7-48f3cd69093a&projectId=a0a8f18c-a66e-4ba7-a170-23efbdc67501","11611D7ADEE14F5D91DCFC3B7ADFDB7F-2024-11-24-18-56-45","","null","","[]","null","",""
"","","","","","image-button-response","15","461961","0.0-6.0-1.0-0.2","11611D7ADEE14F5D91DCFC3B7ADFDB7F","11611D7ADEE14F5D91DCFC3B7ADFDB7F","cd375c40-2a50-4ee9-a4c7-48f3cd69093a","a0a8f18c-a66e-4ba7-a170-23efbdc67501","{""participantId"":""11611D7ADEE14F5D91DCFC3B7ADFDB7F"",""assignmentId"":""cd375c40-2a50-4ee9-a4c7-48f3cd69093a"",""projectId"":""a0a8f18c-a66e-4ba7-a170-23efbdc67501""}","https://test12345.live/?participantId=11611D7ADEE14F5D91DCFC3B7ADFDB7F&assignmentId=cd375c40-2a50-4ee9-a4c7-48f3cd69093a&projectId=a0a8f18c-a66e-4ba7-a170-23efbdc67501","11611D7ADEE14F5D91DCFC3B7ADFDB7F-2024-11-24-18-56-45","","null","","images/instructions/movie_3.png","null","",""
"","","","","","image-button-response","16","463172","0.0-6.0-1.0-1.2","11611D7ADEE14F5D91DCFC3B7ADFDB7F","11611D7ADEE14F5D91DCFC3B7ADFDB7F","cd375c40-2a50-4ee9-a4c7-48f3cd69093a","a0a8f18c-a66e-4ba7-a170-23efbdc67501","{""participantId"":""11611D7ADEE14F5D91DCFC3B7ADFDB7F"",""assignmentId"":""cd375c40-2a50-4ee9-a4c7-48f3cd69093a"",""projectId"":""a0a8f18c-a66e-4ba7-a170-23efbdc67501""}","https://test12345.live/?participantId=11611D7ADEE14F5D91DCFC3B7ADFDB7F&assignmentId=cd375c40-2a50-4ee9-a4c7-48f3cd69093a&projectId=a0a8f18c-a66e-4ba7-a170-23efbdc67501","11611D7ADEE14F5D91DCFC3B7ADFDB7F-2024-11-24-18-56-45","","1186","","images/instructions/movie_3.png","0","",""
"","","","","","image-button-response","17","464977","0.0-6.0-1.0-2.2","11611D7ADEE14F5D91DCFC3B7ADFDB7F","11611D7ADEE14F5D91DCFC3B7ADFDB7F","cd375c40-2a50-4ee9-a4c7-48f3cd69093a","a0a8f18c-a66e-4ba7-a170-23efbdc67501","{""participantId"":""11611D7ADEE14F5D91DCFC3B7ADFDB7F"",""assignmentId"":""cd375c40-2a50-4ee9-a4c7-48f3cd69093a"",""projectId"":""a0a8f18c-a66e-4ba7-a170-23efbdc67501""}","https://test12345.live/?participantId=11611D7ADEE14F5D91DCFC3B7ADFDB7F&assignmentId=cd375c40-2a50-4ee9-a4c7-48f3cd69093a&projectId=a0a8f18c-a66e-4ba7-a170-23efbdc67501","11611D7ADEE14F5D91DCFC3B7ADFDB7F-2024-11-24-18-56-45","","null","","[]","null","",""
"","","","","","image-button-response","18","469484","0.0-6.0-1.0-0.3","11611D7ADEE14F5D91DCFC3B7ADFDB7F","11611D7ADEE14F5D91DCFC3B7ADFDB7F","cd375c40-2a50-4ee9-a4c7-48f3cd69093a","a0a8f18c-a66e-4ba7-a170-23efbdc67501","{""participantId"":""11611D7ADEE14F5D91DCFC3B7ADFDB7F"",""assignmentId"":""cd375c40-2a50-4ee9-a4c7-48f3cd69093a"",""projectId"":""a0a8f18c-a66e-4ba7-a170-23efbdc67501""}","https://test12345.live/?participantId=11611D7ADEE14F5D91DCFC3B7ADFDB7F&assignmentId=cd375c40-2a50-4ee9-a4c7-48f3cd69093a&projectId=a0a8f18c-a66e-4ba7-a170-23efbdc67501","11611D7ADEE14F5D91DCFC3B7ADFDB7F-2024-11-24-18-56-45","","null","","images/instructions/movie_4.png","null","",""
"","","","","","image-button-response","19","470824","0.0-6.0-1.0-1.3","11611D7ADEE14F5D91DCFC3B7ADFDB7F","11611D7ADEE14F5D91DCFC3B7ADFDB7F","cd375c40-2a50-4ee9-a4c7-48f3cd69093a","a0a8f18c-a66e-4ba7-a170-23efbdc67501","{""participantId"":""11611D7ADEE14F5D91DCFC3B7ADFDB7F"",""assignmentId"":""cd375c40-2a50-4ee9-a4c7-48f3cd69093a"",""projectId"":""a0a8f18c-a66e-4ba7-a170-23efbdc67501""}","https://test12345.live/?participantId=11611D7ADEE14F5D91DCFC3B7ADFDB7F&assignmentId=cd375c40-2a50-4ee9-a4c7-48f3cd69093a&projectId=a0a8f18c-a66e-4ba7-a170-23efbdc67501","11611D7ADEE14F5D91DCFC3B7ADFDB7F-2024-11-24-18-56-45","","1339","","images/instructions/movie_4.png","0","",""
"","","","","","image-button-response","20","472627","0.0-6.0-1.0-2.3","11611D7ADEE14F5D91DCFC3B7ADFDB7F","11611D7ADEE14F5D91DCFC3B7ADFDB7F","cd375c40-2a50-4ee9-a4c7-48f3cd69093a","a0a8f18c-a66e-4ba7-a170-23efbdc67501","{""participantId"":""11611D7ADEE14F5D91DCFC3B7ADFDB7F"",""assignmentId"":""cd375c40-2a50-4ee9-a4c7-48f3cd69093a"",""projectId"":""a0a8f18c-a66e-4ba7-a170-23efbdc67501""}","https://test12345.live/?participantId=11611D7ADEE14F5D91DCFC3B7ADFDB7F&assignmentId=cd375c40-2a50-4ee9-a4c7-48f3cd69093a&projectId=a0a8f18c-a66e-4ba7-a170-23efbdc67501","11611D7ADEE14F5D91DCFC3B7ADFDB7F-2024-11-24-18-56-45","","null","","[]","null","",""
"","","","","","instructions","21","484079","0.0-7.0","11611D7ADEE14F5D91DCFC3B7ADFDB7F","11611D7ADEE14F5D91DCFC3B7ADFDB7F","cd375c40-2a50-4ee9-a4c7-48f3cd69093a","a0a8f18c-a66e-4ba7-a170-23efbdc67501","{""participantId"":""11611D7ADEE14F5D91DCFC3B7ADFDB7F"",""assignmentId"":""cd375c40-2a50-4ee9-a4c7-48f3cd69093a"",""projectId"":""a0a8f18c-a66e-4ba7-a170-23efbdc67501""}","https://test12345.live/?participantId=11611D7ADEE14F5D91DCFC3B7ADFDB7F&assignmentId=cd375c40-2a50-4ee9-a4c7-48f3cd69093a&projectId=a0a8f18c-a66e-4ba7-a170-23efbdc67501","11611D7ADEE14F5D91DCFC3B7ADFDB7F-2024-11-24-18-56-45","[{""page_index"":0,""viewing_time"":9941},{""page_index"":1,""viewing_time"":1510}]","11451","","","","",""
"","","","","","html-audio-response","22","567709","0.0-8.0","11611D7ADEE14F5D91DCFC3B7ADFDB7F","11611D7ADEE14F5D91DCFC3B7ADFDB7F","cd375c40-2a50-4ee9-a4c7-48f3cd69093a","a0a8f18c-a66e-4ba7-a170-23efbdc67501","{""participantId"":""11611D7ADEE14F5D91DCFC3B7ADFDB7F"",""assignmentId"":""cd375c40-2a50-4ee9-a4c7-48f3cd69093a"",""projectId"":""a0a8f18c-a66e-4ba7-a170-23efbdc67501""}","https://test12345.live/?participantId=11611D7ADEE14F5D91DCFC3B7ADFDB7F&assignmentId=cd375c40-2a50-4ee9-a4c7-48f3cd69093a&projectId=a0a8f18c-a66e-4ba7-a170-23efbdc67501","11611D7ADEE14F5D91DCFC3B7ADFDB7F-2024-11-24-18-56-45","","40033","","[""<span style=\""color: red; font-size: 24px\""> NOW RECORDING</span><p>Please say out loud all the images you saw, as many as you can remember. The images can be said in any order.</p>""]","","9",""
"","","","","","instructions","23","569583","0.0-9.0","11611D7ADEE14F5D91DCFC3B7ADFDB7F","11611D7ADEE14F5D91DCFC3B7ADFDB7F","cd375c40-2a50-4ee9-a4c7-48f3cd69093a","a0a8f18c-a66e-4ba7-a170-23efbdc67501","{""participantId"":""11611D7ADEE14F5D91DCFC3B7ADFDB7F"",""assignmentId"":""cd375c40-2a50-4ee9-a4c7-48f3cd69093a"",""projectId"":""a0a8f18c-a66e-4ba7-a170-23efbdc67501""}","https://test12345.live/?participantId=11611D7ADEE14F5D91DCFC3B7ADFDB7F&assignmentId=cd375c40-2a50-4ee9-a4c7-48f3cd69093a&projectId=a0a8f18c-a66e-4ba7-a170-23efbdc67501","11611D7ADEE14F5D91DCFC3B7ADFDB7F-2024-11-24-18-56-45","[{""page_index"":0,""viewing_time"":1841}]","1845","","","","",""
"","","","","","image-button-response","24","575637","0.0-10.0-0.0","11611D7ADEE14F5D91DCFC3B7ADFDB7F","11611D7ADEE14F5D91DCFC3B7ADFDB7F","cd375c40-2a50-4ee9-a4c7-48f3cd69093a","a0a8f18c-a66e-4ba7-a170-23efbdc67501","{""participantId"":""11611D7ADEE14F5D91DCFC3B7ADFDB7F"",""assignmentId"":""cd375c40-2a50-4ee9-a4c7-48f3cd69093a"",""projectId"":""a0a8f18c-a66e-4ba7-a170-23efbdc67501""}","https://test12345.live/?participantId=11611D7ADEE14F5D91DCFC3B7ADFDB7F&assignmentId=cd375c40-2a50-4ee9-a4c7-48f3cd69093a&projectId=a0a8f18c-a66e-4ba7-a170-23efbdc67501","11611D7ADEE14F5D91DCFC3B7ADFDB7F-2024-11-24-18-56-45","","null","","images/causal_sequence/museum_causal/museum_causal_0.png","null","",""
"","","","","","image-button-response","25","580143","0.0-10.0-1.0-0.0","11611D7ADEE14F5D91DCFC3B7ADFDB7F","11611D7ADEE14F5D91DCFC3B7ADFDB7F","cd375c40-2a50-4ee9-a4c7-48f3cd69093a","a0a8f18c-a66e-4ba7-a170-23efbdc67501","{""participantId"":""11611D7ADEE14F5D91DCFC3B7ADFDB7F"",""assignmentId"":""cd375c40-2a50-4ee9-a4c7-48f3cd69093a"",""projectId"":""a0a8f18c-a66e-4ba7-a170-23efbdc67501""}","https://test12345.live/?participantId=11611D7ADEE14F5D91DCFC3B7ADFDB7F&assignmentId=cd375c40-2a50-4ee9-a4c7-48f3cd69093a&projectId=a0a8f18c-a66e-4ba7-a170-23efbdc67501","11611D7ADEE14F5D91DCFC3B7ADFDB7F-2024-11-24-18-56-45","","null","","images/causal_sequence/museum_causal/museum_causal_1.png","null","",""
"","","","","","image-button-response","26","581789","0.0-10.0-1.0-1.0","11611D7ADEE14F5D91DCFC3B7ADFDB7F","11611D7ADEE14F5D91DCFC3B7ADFDB7F","cd375c40-2a50-4ee9-a4c7-48f3cd69093a","a0a8f18c-a66e-4ba7-a170-23efbdc67501","{""participantId"":""11611D7ADEE14F5D91DCFC3B7ADFDB7F"",""assignmentId"":""cd375c40-2a50-4ee9-a4c7-48f3cd69093a"",""projectId"":""a0a8f18c-a66e-4ba7-a170-23efbdc67501""}","https://test12345.live/?participantId=11611D7ADEE14F5D91DCFC3B7ADFDB7F&assignmentId=cd375c40-2a50-4ee9-a4c7-48f3cd69093a&projectId=a0a8f18c-a66e-4ba7-a170-23efbdc67501","11611D7ADEE14F5D91DCFC3B7ADFDB7F-2024-11-24-18-56-45","","1621","","images/causal_sequence/museum_causal/museum_causal_1.png","0","",""
"","","","","","image-button-response","27","583596","0.0-10.0-1.0-2.0","11611D7ADEE14F5D91DCFC3B7ADFDB7F","11611D7ADEE14F5D91DCFC3B7ADFDB7F","cd375c40-2a50-4ee9-a4c7-48f3cd69093a","a0a8f18c-a66e-4ba7-a170-23efbdc67501","{""participantId"":""11611D7ADEE14F5D91DCFC3B7ADFDB7F"",""assignmentId"":""cd375c40-2a50-4ee9-a4c7-48f3cd69093a"",""projectId"":""a0a8f18c-a66e-4ba7-a170-23efbdc67501""}","https://test12345.live/?participantId=11611D7ADEE14F5D91DCFC3B7ADFDB7F&assignmentId=cd375c40-2a50-4ee9-a4c7-48f3cd69093a&projectId=a0a8f18c-a66e-4ba7-a170-23efbdc67501","11611D7ADEE14F5D91DCFC3B7ADFDB7F-2024-11-24-18-56-45","","null","","[]","null","",""
"","","","","","image-button-response","28","588102","0.0-10.0-1.0-0.1","11611D7ADEE14F5D91DCFC3B7ADFDB7F","11611D7ADEE14F5D91DCFC3B7ADFDB7F","cd375c40-2a50-4ee9-a4c7-48f3cd69093a","a0a8f18c-a66e-4ba7-a170-23efbdc67501","{""participantId"":""11611D7ADEE14F5D91DCFC3B7ADFDB7F"",""assignmentId"":""cd375c40-2a50-4ee9-a4c7-48f3cd69093a"",""projectId"":""a0a8f18c-a66e-4ba7-a170-23efbdc67501""}","https://test12345.live/?participantId=11611D7ADEE14F5D91DCFC3B7ADFDB7F&assignmentId=cd375c40-2a50-4ee9-a4c7-48f3cd69093a&projectId=a0a8f18c-a66e-4ba7-a170-23efbdc67501","11611D7ADEE14F5D91DCFC3B7ADFDB7F-2024-11-24-18-56-45","","null","","images/causal_sequence/museum_causal/museum_causal_2.png","null","",""
"","","","","","image-button-response","29","589115","0.0-10.0-1.0-1.1","11611D7ADEE14F5D91DCFC3B7ADFDB7F","11611D7ADEE14F5D91DCFC3B7ADFDB7F","cd375c40-2a50-4ee9-a4c7-48f3cd69093a","a0a8f18c-a66e-4ba7-a170-23efbdc67501","{""participantId"":""11611D7ADEE14F5D91DCFC3B7ADFDB7F"",""assignmentId"":""cd375c40-2a50-4ee9-a4c7-48f3cd69093a"",""projectId"":""a0a8f18c-a66e-4ba7-a170-23efbdc67501""}","https://test12345.live/?participantId=11611D7ADEE14F5D91DCFC3B7ADFDB7F&assignmentId=cd375c40-2a50-4ee9-a4c7-48f3cd69093a&projectId=a0a8f18c-a66e-4ba7-a170-23efbdc67501","11611D7ADEE14F5D91DCFC3B7ADFDB7F-2024-11-24-18-56-45","","1010","","images/causal_sequence/museum_causal/museum_causal_2.png","1","",""
"","","","","","image-button-response","30","590921","0.0-10.0-1.0-2.1","11611D7ADEE14F5D91DCFC3B7ADFDB7F","11611D7ADEE14F5D91DCFC3B7ADFDB7F","cd375c40-2a50-4ee9-a4c7-48f3cd69093a","a0a8f18c-a66e-4ba7-a170-23efbdc67501","{""participantId"":""11611D7ADEE14F5D91DCFC3B7ADFDB7F"",""assignmentId"":""cd375c40-2a50-4ee9-a4c7-48f3cd69093a"",""projectId"":""a0a8f18c-a66e-4ba7-a170-23efbdc67501""}","https://test12345.live/?participantId=11611D7ADEE14F5D91DCFC3B7ADFDB7F&assignmentId=cd375c40-2a50-4ee9-a4c7-48f3cd69093a&projectId=a0a8f18c-a66e-4ba7-a170-23efbdc67501","11611D7ADEE14F5D91DCFC3B7ADFDB7F-2024-11-24-18-56-45","","null","","[]","null","",""
"","","","","","image-button-response","31","595427","0.0-10.0-1.0-0.2","11611D7ADEE14F5D91DCFC3B7ADFDB7F","11611D7ADEE14F5D91DCFC3B7ADFDB7F","cd375c40-2a50-4ee9-a4c7-48f3cd69093a","a0a8f18c-a66e-4ba7-a170-23efbdc67501","{""participantId"":""11611D7ADEE14F5D91DCFC3B7ADFDB7F"",""assignmentId"":""cd375c40-2a50-4ee9-a4c7-48f3cd69093a"",""projectId"":""a0a8f18c-a66e-4ba7-a170-23efbdc67501""}","https://test12345.live/?participantId=11611D7ADEE14F5D91DCFC3B7ADFDB7F&assignmentId=cd375c40-2a50-4ee9-a4c7-48f3cd69093a&projectId=a0a8f18c-a66e-4ba7-a170-23efbdc67501","11611D7ADEE14F5D91DCFC3B7ADFDB7F-2024-11-24-18-56-45","","null","","images/causal_sequence/museum_causal/museum_causal_3.png","null","",""
"","","","","","image-button-response","32","597574","0.0-10.0-1.0-1.2","11611D7ADEE14F5D91DCFC3B7ADFDB7F","11611D7ADEE14F5D91DCFC3B7ADFDB7F","cd375c40-2a50-4ee9-a4c7-48f3cd69093a","a0a8f18c-a66e-4ba7-a170-23efbdc67501","{""participantId"":""11611D7ADEE14F5D91DCFC3B7ADFDB7F"",""assignmentId"":""cd375c40-2a50-4ee9-a4c7-48f3cd69093a"",""projectId"":""a0a8f18c-a66e-4ba7-a170-23efbdc67501""}","https://test12345.live/?participantId=11611D7ADEE14F5D91DCFC3B7ADFDB7F&assignmentId=cd375c40-2a50-4ee9-a4c7-48f3cd69093a&projectId=a0a8f18c-a66e-4ba7-a170-23efbdc67501","11611D7ADEE14F5D91DCFC3B7ADFDB7F-2024-11-24-18-56-45","","2146","","images/causal_sequence/museum_causal/museum_causal_3.png","0","",""
"","","","","","image-button-response","33","599381","0.0-10.0-1.0-2.2","11611D7ADEE14F5D91DCFC3B7ADFDB7F","11611D7ADEE14F5D91DCFC3B7ADFDB7F","cd375c40-2a50-4ee9-a4c7-48f3cd69093a","a0a8f18c-a66e-4ba7-a170-23efbdc67501","{""participantId"":""11611D7ADEE14F5D91DCFC3B7ADFDB7F"",""assignmentId"":""cd375c40-2a50-4ee9-a4c7-48f3cd69093a"",""projectId"":""a0a8f18c-a66e-4ba7-a170-23efbdc67501""}","https://test12345.live/?participantId=11611D7ADEE14F5D91DCFC3B7ADFDB7F&assignmentId=cd375c40-2a50-4ee9-a4c7-48f3cd69093a&projectId=a0a8f18c-a66e-4ba7-a170-23efbdc67501","11611D7ADEE14F5D91DCFC3B7ADFDB7F-2024-11-24-18-56-45","","null","","[]","null","",""
"","","","","","image-button-response","34","603887","0.0-10.0-1.0-0.3","11611D7ADEE14F5D91DCFC3B7ADFDB7F","11611D7ADEE14F5D91DCFC3B7ADFDB7F","cd375c40-2a50-4ee9-a4c7-48f3cd69093a","a0a8f18c-a66e-4ba7-a170-23efbdc67501","{""participantId"":""11611D7ADEE14F5D91DCFC3B7ADFDB7F"",""assignmentId"":""cd375c40-2a50-4ee9-a4c7-48f3cd69093a"",""projectId"":""a0a8f18c-a66e-4ba7-a170-23efbdc67501""}","https://test12345.live/?participantId=11611D7ADEE14F5D91DCFC3B7ADFDB7F&assignmentId=cd375c40-2a50-4ee9-a4c7-48f3cd69093a&projectId=a0a8f18c-a66e-4ba7-a170-23efbdc67501","11611D7ADEE14F5D91DCFC3B7ADFDB7F-2024-11-24-18-56-45","","null","","images/causal_sequence/museum_causal/museum_causal_4.png","null","",""
"","","","","","image-button-response","35","605447","0.0-10.0-1.0-1.3","11611D7ADEE14F5D91DCFC3B7ADFDB7F","11611D7ADEE14F5D91DCFC3B7ADFDB7F","cd375c40-2a50-4ee9-a4c7-48f3cd69093a","a0a8f18c-a66e-4ba7-a170-23efbdc67501","{""participantId"":""11611D7ADEE14F5D91DCFC3B7ADFDB7F"",""assignmentId"":""cd375c40-2a50-4ee9-a4c7-48f3cd69093a"",""projectId"":""a0a8f18c-a66e-4ba7-a170-23efbdc67501""}","https://test12345.live/?participantId=11611D7ADEE14F5D91DCFC3B7ADFDB7F&assignmentId=cd375c40-2a50-4ee9-a4c7-48f3cd69093a&projectId=a0a8f18c-a66e-4ba7-a170-23efbdc67501","11611D7ADEE14F5D91DCFC3B7ADFDB7F-2024-11-24-18-56-45","","1558","","images/causal_sequence/museum_causal/museum_causal_4.png","1","",""
"","","","","","image-button-response","36","607251","0.0-10.0-1.0-2.3","11611D7ADEE14F5D91DCFC3B7ADFDB7F","11611D7ADEE14F5D91DCFC3B7ADFDB7F","cd375c40-2a50-4ee9-a4c7-48f3cd69093a","a0a8f18c-a66e-4ba7-a170-23efbdc67501","{""participantId"":""11611D7ADEE14F5D91DCFC3B7ADFDB7F"",""assignmentId"":""cd375c40-2a50-4ee9-a4c7-48f3cd69093a"",""projectId"":""a0a8f18c-a66e-4ba7-a170-23efbdc67501""}","https://test12345.live/?participantId=11611D7ADEE14F5D91DCFC3B7ADFDB7F&assignmentId=cd375c40-2a50-4ee9-a4c7-48f3cd69093a&projectId=a0a8f18c-a66e-4ba7-a170-23efbdc67501","11611D7ADEE14F5D91DCFC3B7ADFDB7F-2024-11-24-18-56-45","","null","","[]","null","",""
"","","","","","image-button-response","37","611771","0.0-10.0-1.0-0.4","11611D7ADEE14F5D91DCFC3B7ADFDB7F","11611D7ADEE14F5D91DCFC3B7ADFDB7F","cd375c40-2a50-4ee9-a4c7-48f3cd69093a","a0a8f18c-a66e-4ba7-a170-23efbdc67501","{""participantId"":""11611D7ADEE14F5D91DCFC3B7ADFDB7F"",""assignmentId"":""cd375c40-2a50-4ee9-a4c7-48f3cd69093a"",""projectId"":""a0a8f18c-a66e-4ba7-a170-23efbdc67501""}","https://test12345.live/?participantId=11611D7ADEE14F5D91DCFC3B7ADFDB7F&assignmentId=cd375c40-2a50-4ee9-a4c7-48f3cd69093a&projectId=a0a8f18c-a66e-4ba7-a170-23efbdc67501","11611D7ADEE14F5D91DCFC3B7ADFDB7F-2024-11-24-18-56-45","","null","","images/causal_sequence/museum_causal/museum_causal_5.png","null","",""
"","","","","","image-button-response","38","613333","0.0-10.0-1.0-1.4","11611D7ADEE14F5D91DCFC3B7ADFDB7F","11611D7ADEE14F5D91DCFC3B7ADFDB7F","cd375c40-2a50-4ee9-a4c7-48f3cd69093a","a0a8f18c-a66e-4ba7-a170-23efbdc67501","{""participantId"":""11611D7ADEE14F5D91DCFC3B7ADFDB7F"",""assignmentId"":""cd375c40-2a50-4ee9-a4c7-48f3cd69093a"",""projectId"":""a0a8f18c-a66e-4ba7-a170-23efbdc67501""}","https://test12345.live/?participantId=11611D7ADEE14F5D91DCFC3B7ADFDB7F&assignmentId=cd375c40-2a50-4ee9-a4c7-48f3cd69093a&projectId=a0a8f18c-a66e-4ba7-a170-23efbdc67501","11611D7ADEE14F5D91DCFC3B7ADFDB7F-2024-11-24-18-56-45","","1510","","images/causal_sequence/museum_causal/museum_causal_5.png","0","",""
"","","","","","image-button-response","39","615140","0.0-10.0-1.0-2.4","11611D7ADEE14F5D91DCFC3B7ADFDB7F","11611D7ADEE14F5D91DCFC3B7ADFDB7F","cd375c40-2a50-4ee9-a4c7-48f3cd69093a","a0a8f18c-a66e-4ba7-a170-23efbdc67501","{""participantId"":""11611D7ADEE14F5D91DCFC3B7ADFDB7F"",""assignmentId"":""cd375c40-2a50-4ee9-a4c7-48f3cd69093a"",""projectId"":""a0a8f18c-a66e-4ba7-a170-23efbdc67501""}","https://test12345.live/?participantId=11611D7ADEE14F5D91DCFC3B7ADFDB7F&assignmentId=cd375c40-2a50-4ee9-a4c7-48f3cd69093a&projectId=a0a8f18c-a66e-4ba7-a170-23efbdc67501","11611D7ADEE14F5D91DCFC3B7ADFDB7F-2024-11-24-18-56-45","","null","","[]","null","",""
"","","","","","image-button-response","40","619648","0.0-10.0-1.0-0.5","11611D7ADEE14F5D91DCFC3B7ADFDB7F","11611D7ADEE14F5D91DCFC3B7ADFDB7F","cd375c40-2a50-4ee9-a4c7-48f3cd69093a","a0a8f18c-a66e-4ba7-a170-23efbdc67501","{""participantId"":""11611D7ADEE14F5D91DCFC3B7ADFDB7F"",""assignmentId"":""cd375c40-2a50-4ee9-a4c7-48f3cd69093a"",""projectId"":""a0a8f18c-a66e-4ba7-a170-23efbdc67501""}","https://test12345.live/?participantId=11611D7ADEE14F5D91DCFC3B7ADFDB7F&assignmentId=cd375c40-2a50-4ee9-a4c7-48f3cd69093a&projectId=a0a8f18c-a66e-4ba7-a170-23efbdc67501","11611D7ADEE14F5D91DCFC3B7ADFDB7F-2024-11-24-18-56-45","","null","","images/causal_sequence/museum_causal/museum_causal_6.png","null","",""
"","","","","","image-button-response","41","621433","0.0-10.0-1.0-1.5","11611D7ADEE14F5D91DCFC3B7ADFDB7F","11611D7ADEE14F5D91DCFC3B7ADFDB7F","cd375c40-2a50-4ee9-a4c7-48f3cd69093a","a0a8f18c-a66e-4ba7-a170-23efbdc67501","{""participantId"":""11611D7ADEE14F5D91DCFC3B7ADFDB7F"",""assignmentId"":""cd375c40-2a50-4ee9-a4c7-48f3cd69093a"",""projectId"":""a0a8f18c-a66e-4ba7-a170-23efbdc67501""}","https://test12345.live/?participantId=11611D7ADEE14F5D91DCFC3B7ADFDB7F&assignmentId=cd375c40-2a50-4ee9-a4c7-48f3cd69093a&projectId=a0a8f18c-a66e-4ba7-a170-23efbdc67501","11611D7ADEE14F5D91DCFC3B7ADFDB7F-2024-11-24-18-56-45","","1784","","images/causal_sequence/museum_causal/museum_causal_6.png","0","",""
"","","","","","image-button-response","42","623240","0.0-10.0-1.0-2.5","11611D7ADEE14F5D91DCFC3B7ADFDB7F","11611D7ADEE14F5D91DCFC3B7ADFDB7F","cd375c40-2a50-4ee9-a4c7-48f3cd69093a","a0a8f18c-a66e-4ba7-a170-23efbdc67501","{""participantId"":""11611D7ADEE14F5D91DCFC3B7ADFDB7F"",""assignmentId"":""cd375c40-2a50-4ee9-a4c7-48f3cd69093a"",""projectId"":""a0a8f18c-a66e-4ba7-a170-23efbdc67501""}","https://test12345.live/?participantId=11611D7ADEE14F5D91DCFC3B7ADFDB7F&assignmentId=cd375c40-2a50-4ee9-a4c7-48f3cd69093a&projectId=a0a8f18c-a66e-4ba7-a170-23efbdc67501","11611D7ADEE14F5D91DCFC3B7ADFDB7F-2024-11-24-18-56-45","","null","","[]","null","",""
"","","","","","image-button-response","43","627743","0.0-10.0-1.0-0.6","11611D7ADEE14F5D91DCFC3B7ADFDB7F","11611D7ADEE14F5D91DCFC3B7ADFDB7F","cd375c40-2a50-4ee9-a4c7-48f3cd69093a","a0a8f18c-a66e-4ba7-a170-23efbdc67501","{""participantId"":""11611D7ADEE14F5D91DCFC3B7ADFDB7F"",""assignmentId"":""cd375c40-2a50-4ee9-a4c7-48f3cd69093a"",""projectId"":""a0a8f18c-a66e-4ba7-a170-23efbdc67501""}","https://test12345.live/?participantId=11611D7ADEE14F5D91DCFC3B7ADFDB7F&assignmentId=cd375c40-2a50-4ee9-a4c7-48f3cd69093a&projectId=a0a8f18c-a66e-4ba7-a170-23efbdc67501","11611D7ADEE14F5D91DCFC3B7ADFDB7F-2024-11-24-18-56-45","","null","","images/causal_sequence/museum_causal/museum_causal_7.png","null","",""
"","","","","","image-button-response","44","629943","0.0-10.0-1.0-1.6","11611D7ADEE14F5D91DCFC3B7ADFDB7F","11611D7ADEE14F5D91DCFC3B7ADFDB7F","cd375c40-2a50-4ee9-a4c7-48f3cd69093a","a0a8f18c-a66e-4ba7-a170-23efbdc67501","{""participantId"":""11611D7ADEE14F5D91DCFC3B7ADFDB7F"",""assignmentId"":""cd375c40-2a50-4ee9-a4c7-48f3cd69093a"",""projectId"":""a0a8f18c-a66e-4ba7-a170-23efbdc67501""}","https://test12345.live/?participantId=11611D7ADEE14F5D91DCFC3B7ADFDB7F&assignmentId=cd375c40-2a50-4ee9-a4c7-48f3cd69093a&projectId=a0a8f18c-a66e-4ba7-a170-23efbdc67501","11611D7ADEE14F5D91DCFC3B7ADFDB7F-2024-11-24-18-56-45","","2198","","images/causal_sequence/museum_causal/museum_causal_7.png","1","",""
"","","","","","image-button-response","45","631748","0.0-10.0-1.0-2.6","11611D7ADEE14F5D91DCFC3B7ADFDB7F","11611D7ADEE14F5D91DCFC3B7ADFDB7F","cd375c40-2a50-4ee9-a4c7-48f3cd69093a","a0a8f18c-a66e-4ba7-a170-23efbdc67501","{""participantId"":""11611D7ADEE14F5D91DCFC3B7ADFDB7F"",""assignmentId"":""cd375c40-2a50-4ee9-a4c7-48f3cd69093a"",""projectId"":""a0a8f18c-a66e-4ba7-a170-23efbdc67501""}","https://test12345.live/?participantId=11611D7ADEE14F5D91DCFC3B7ADFDB7F&assignmentId=cd375c40-2a50-4ee9-a4c7-48f3cd69093a&projectId=a0a8f18c-a66e-4ba7-a170-23efbdc67501","11611D7ADEE14F5D91DCFC3B7ADFDB7F-2024-11-24-18-56-45","","null","","[]","null","",""
"","","","","","image-button-response","46","636261","0.0-10.0-1.0-0.7","11611D7ADEE14F5D91DCFC3B7ADFDB7F","11611D7ADEE14F5D91DCFC3B7ADFDB7F","cd375c40-2a50-4ee9-a4c7-48f3cd69093a","a0a8f18c-a66e-4ba7-a170-23efbdc67501","{""participantId"":""11611D7ADEE14F5D91DCFC3B7ADFDB7F"",""assignmentId"":""cd375c40-2a50-4ee9-a4c7-48f3cd69093a"",""projectId"":""a0a8f18c-a66e-4ba7-a170-23efbdc67501""}","https://test12345.live/?participantId=11611D7ADEE14F5D91DCFC3B7ADFDB7F&assignmentId=cd375c40-2a50-4ee9-a4c7-48f3cd69093a&projectId=a0a8f18c-a66e-4ba7-a170-23efbdc67501","11611D7ADEE14F5D91DCFC3B7ADFDB7F-2024-11-24-18-56-45","","null","","images/causal_sequence/museum_causal/museum_causal_8.png","null","",""
"","","","","","image-button-response","47","637356","0.0-10.0-1.0-1.7","11611D7ADEE14F5D91DCFC3B7ADFDB7F","11611D7ADEE14F5D91DCFC3B7ADFDB7F","cd375c40-2a50-4ee9-a4c7-48f3cd69093a","a0a8f18c-a66e-4ba7-a170-23efbdc67501","{""participantId"":""11611D7ADEE14F5D91DCFC3B7ADFDB7F"",""assignmentId"":""cd375c40-2a50-4ee9-a4c7-48f3cd69093a"",""projectId"":""a0a8f18c-a66e-4ba7-a170-23efbdc67501""}","https://test12345.live/?participantId=11611D7ADEE14F5D91DCFC3B7ADFDB7F&assignmentId=cd375c40-2a50-4ee9-a4c7-48f3cd69093a&projectId=a0a8f18c-a66e-4ba7-a170-23efbdc67501","11611D7ADEE14F5D91DCFC3B7ADFDB7F-2024-11-24-18-56-45","","1093","","images/causal_sequence/museum_causal/museum_causal_8.png","0","",""
"","","","","","image-button-response","48","639161","0.0-10.0-1.0-2.7","11611D7ADEE14F5D91DCFC3B7ADFDB7F","11611D7ADEE14F5D91DCFC3B7ADFDB7F","cd375c40-2a50-4ee9-a4c7-48f3cd69093a","a0a8f18c-a66e-4ba7-a170-23efbdc67501","{""participantId"":""11611D7ADEE14F5D91DCFC3B7ADFDB7F"",""assignmentId"":""cd375c40-2a50-4ee9-a4c7-48f3cd69093a"",""projectId"":""a0a8f18c-a66e-4ba7-a170-23efbdc67501""}","https://test12345.live/?participantId=11611D7ADEE14F5D91DCFC3B7ADFDB7F&assignmentId=cd375c40-2a50-4ee9-a4c7-48f3cd69093a&projectId=a0a8f18c-a66e-4ba7-a170-23efbdc67501","11611D7ADEE14F5D91DCFC3B7ADFDB7F-2024-11-24-18-56-45","","null","","[]","null","",""
"","","","","","image-button-response","49","643668","0.0-10.0-1.0-0.8","11611D7ADEE14F5D91DCFC3B7ADFDB7F","11611D7ADEE14F5D91DCFC3B7ADFDB7F","cd375c40-2a50-4ee9-a4c7-48f3cd69093a","a0a8f18c-a66e-4ba7-a170-23efbdc67501","{""participantId"":""11611D7ADEE14F5D91DCFC3B7ADFDB7F"",""assignmentId"":""cd375c40-2a50-4ee9-a4c7-48f3cd69093a"",""projectId"":""a0a8f18c-a66e-4ba7-a170-23efbdc67501""}","https://test12345.live/?participantId=11611D7ADEE14F5D91DCFC3B7ADFDB7F&assignmentId=cd375c40-2a50-4ee9-a4c7-48f3cd69093a&projectId=a0a8f18c-a66e-4ba7-a170-23efbdc67501","11611D7ADEE14F5D91DCFC3B7ADFDB7F-2024-11-24-18-56-45","","null","","images/causal_sequence/museum_causal/museum_causal_9.png","null","",""
"","","","","","image-button-response","50","645192","0.0-10.0-1.0-1.8","11611D7ADEE14F5D91DCFC3B7ADFDB7F","11611D7ADEE14F5D91DCFC3B7ADFDB7F","cd375c40-2a50-4ee9-a4c7-48f3cd69093a","a0a8f18c-a66e-4ba7-a170-23efbdc67501","{""participantId"":""11611D7ADEE14F5D91DCFC3B7ADFDB7F"",""assignmentId"":""cd375c40-2a50-4ee9-a4c7-48f3cd69093a"",""projectId"":""a0a8f18c-a66e-4ba7-a170-23efbdc67501""}","https://test12345.live/?participantId=11611D7ADEE14F5D91DCFC3B7ADFDB7F&assignmentId=cd375c40-2a50-4ee9-a4c7-48f3cd69093a&projectId=a0a8f18c-a66e-4ba7-a170-23efbdc67501","11611D7ADEE14F5D91DCFC3B7ADFDB7F-2024-11-24-18-56-45","","1522","","images/causal_sequence/museum_causal/museum_causal_9.png","1","",""
"","","","","","image-button-response","51","646999","0.0-10.0-1.0-2.8","11611D7ADEE14F5D91DCFC3B7ADFDB7F","11611D7ADEE14F5D91DCFC3B7ADFDB7F","cd375c40-2a50-4ee9-a4c7-48f3cd69093a","a0a8f18c-a66e-4ba7-a170-23efbdc67501","{""participantId"":""11611D7ADEE14F5D91DCFC3B7ADFDB7F"",""assignmentId"":""cd375c40-2a50-4ee9-a4c7-48f3cd69093a"",""projectId"":""a0a8f18c-a66e-4ba7-a170-23efbdc67501""}","https://test12345.live/?participantId=11611D7ADEE14F5D91DCFC3B7ADFDB7F&assignmentId=cd375c40-2a50-4ee9-a4c7-48f3cd69093a&projectId=a0a8f18c-a66e-4ba7-a170-23efbdc67501","11611D7ADEE14F5D91DCFC3B7ADFDB7F-2024-11-24-18-56-45","","null","","[]","null","",""
"","","","","","image-button-response","52","651504","0.0-10.0-1.0-0.9","11611D7ADEE14F5D91DCFC3B7ADFDB7F","11611D7ADEE14F5D91DCFC3B7ADFDB7F","cd375c40-2a50-4ee9-a4c7-48f3cd69093a","a0a8f18c-a66e-4ba7-a170-23efbdc67501","{""participantId"":""11611D7ADEE14F5D91DCFC3B7ADFDB7F"",""assignmentId"":""cd375c40-2a50-4ee9-a4c7-48f3cd69093a"",""projectId"":""a0a8f18c-a66e-4ba7-a170-23efbdc67501""}","https://test12345.live/?participantId=11611D7ADEE14F5D91DCFC3B7ADFDB7F&assignmentId=cd375c40-2a50-4ee9-a4c7-48f3cd69093a&projectId=a0a8f18c-a66e-4ba7-a170-23efbdc67501","11611D7ADEE14F5D91DCFC3B7ADFDB7F-2024-11-24-18-56-45","","null","","images/causal_sequence/museum_causal/museum_causal_ten.png","null","",""
"","","","","","image-button-response","53","652757","0.0-10.0-1.0-1.9","11611D7ADEE14F5D91DCFC3B7ADFDB7F","11611D7ADEE14F5D91DCFC3B7ADFDB7F","cd375c40-2a50-4ee9-a4c7-48f3cd69093a","a0a8f18c-a66e-4ba7-a170-23efbdc67501","{""participantId"":""11611D7ADEE14F5D91DCFC3B7ADFDB7F"",""assignmentId"":""cd375c40-2a50-4ee9-a4c7-48f3cd69093a"",""projectId"":""a0a8f18c-a66e-4ba7-a170-23efbdc67501""}","https://test12345.live/?participantId=11611D7ADEE14F5D91DCFC3B7ADFDB7F&assignmentId=cd375c40-2a50-4ee9-a4c7-48f3cd69093a&projectId=a0a8f18c-a66e-4ba7-a170-23efbdc67501","11611D7ADEE14F5D91DCFC3B7ADFDB7F-2024-11-24-18-56-45","","1252","","images/causal_sequence/museum_causal/museum_causal_ten.png","0","",""
"","","","","","image-button-response","54","654561","0.0-10.0-1.0-2.9","11611D7ADEE14F5D91DCFC3B7ADFDB7F","11611D7ADEE14F5D91DCFC3B7ADFDB7F","cd375c40-2a50-4ee9-a4c7-48f3cd69093a","a0a8f18c-a66e-4ba7-a170-23efbdc67501","{""participantId"":""11611D7ADEE14F5D91DCFC3B7ADFDB7F"",""assignmentId"":""cd375c40-2a50-4ee9-a4c7-48f3cd69093a"",""projectId"":""a0a8f18c-a66e-4ba7-a170-23efbdc67501""}","https://test12345.live/?participantId=11611D7ADEE14F5D91DCFC3B7ADFDB7F&assignmentId=cd375c40-2a50-4ee9-a4c7-48f3cd69093a&projectId=a0a8f18c-a66e-4ba7-a170-23efbdc67501","11611D7ADEE14F5D91DCFC3B7ADFDB7F-2024-11-24-18-56-45","","null","","[]","null","",""
"","","","","","html-audio-response","55","748931","0.0-11.0","11611D7ADEE14F5D91DCFC3B7ADFDB7F","11611D7ADEE14F5D91DCFC3B7ADFDB7F","cd375c40-2a50-4ee9-a4c7-48f3cd69093a","a0a8f18c-a66e-4ba7-a170-23efbdc67501","{""participantId"":""11611D7ADEE14F5D91DCFC3B7ADFDB7F"",""assignmentId"":""cd375c40-2a50-4ee9-a4c7-48f3cd69093a"",""projectId"":""a0a8f18c-a66e-4ba7-a170-23efbdc67501""}","https://test12345.live/?participantId=11611D7ADEE14F5D91DCFC3B7ADFDB7F&assignmentId=cd375c40-2a50-4ee9-a4c7-48f3cd69093a&projectId=a0a8f18c-a66e-4ba7-a170-23efbdc67501","11611D7ADEE14F5D91DCFC3B7ADFDB7F-2024-11-24-18-56-45","","44552","","[""<span style=\""color: red; font-size: 24px\""> NOW RECORDING</span><p>Please say out loud all the images you saw, as many as you can remember. The images can be said in any order.</p>""]","","39","museum_causal"
"","","","","","image-button-response","56","755006","0.0-12.0-0.0","11611D7ADEE14F5D91DCFC3B7ADFDB7F","11611D7ADEE14F5D91DCFC3B7ADFDB7F","cd375c40-2a50-4ee9-a4c7-48f3cd69093a","a0a8f18c-a66e-4ba7-a170-23efbdc67501","{""participantId"":""11611D7ADEE14F5D91DCFC3B7ADFDB7F"",""assignmentId"":""cd375c40-2a50-4ee9-a4c7-48f3cd69093a"",""projectId"":""a0a8f18c-a66e-4ba7-a170-23efbdc67501""}","https://test12345.live/?participantId=11611D7ADEE14F5D91DCFC3B7ADFDB7F&assignmentId=cd375c40-2a50-4ee9-a4c7-48f3cd69093a&projectId=a0a8f18c-a66e-4ba7-a170-23efbdc67501","11611D7ADEE14F5D91DCFC3B7ADFDB7F-2024-11-24-18-56-45","","null","","images/causal_sequence/dog_causal/dog_causal_0.png","null","",""
"","","","","","image-button-response","57","759552","0.0-12.0-1.0-0.0","11611D7ADEE14F5D91DCFC3B7ADFDB7F","11611D7ADEE14F5D91DCFC3B7ADFDB7F","cd375c40-2a50-4ee9-a4c7-48f3cd69093a","a0a8f18c-a66e-4ba7-a170-23efbdc67501","{""participantId"":""11611D7ADEE14F5D91DCFC3B7ADFDB7F"",""assignmentId"":""cd375c40-2a50-4ee9-a4c7-48f3cd69093a"",""projectId"":""a0a8f18c-a66e-4ba7-a170-23efbdc67501""}","https://test12345.live/?participantId=11611D7ADEE14F5D91DCFC3B7ADFDB7F&assignmentId=cd375c40-2a50-4ee9-a4c7-48f3cd69093a&projectId=a0a8f18c-a66e-4ba7-a170-23efbdc67501","11611D7ADEE14F5D91DCFC3B7ADFDB7F-2024-11-24-18-56-45","","null","","images/causal_sequence/dog_causal/dog_causal_1.png","null","",""
"","","","","","image-button-response","58","761567","0.0-12.0-1.0-1.0","11611D7ADEE14F5D91DCFC3B7ADFDB7F","11611D7ADEE14F5D91DCFC3B7ADFDB7F","cd375c40-2a50-4ee9-a4c7-48f3cd69093a","a0a8f18c-a66e-4ba7-a170-23efbdc67501","{""participantId"":""11611D7ADEE14F5D91DCFC3B7ADFDB7F"",""assignmentId"":""cd375c40-2a50-4ee9-a4c7-48f3cd69093a"",""projectId"":""a0a8f18c-a66e-4ba7-a170-23efbdc67501""}","https://test12345.live/?participantId=11611D7ADEE14F5D91DCFC3B7ADFDB7F&assignmentId=cd375c40-2a50-4ee9-a4c7-48f3cd69093a&projectId=a0a8f18c-a66e-4ba7-a170-23efbdc67501","11611D7ADEE14F5D91DCFC3B7ADFDB7F-2024-11-24-18-56-45","","2006","","images/causal_sequence/dog_causal/dog_causal_1.png","0","",""
"","","","","","image-button-response","59","763379","0.0-12.0-1.0-2.0","11611D7ADEE14F5D91DCFC3B7ADFDB7F","11611D7ADEE14F5D91DCFC3B7ADFDB7F","cd375c40-2a50-4ee9-a4c7-48f3cd69093a","a0a8f18c-a66e-4ba7-a170-23efbdc67501","{""participantId"":""11611D7ADEE14F5D91DCFC3B7ADFDB7F"",""assignmentId"":""cd375c40-2a50-4ee9-a4c7-48f3cd69093a"",""projectId"":""a0a8f18c-a66e-4ba7-a170-23efbdc67501""}","https://test12345.live/?participantId=11611D7ADEE14F5D91DCFC3B7ADFDB7F&assignmentId=cd375c40-2a50-4ee9-a4c7-48f3cd69093a&projectId=a0a8f18c-a66e-4ba7-a170-23efbdc67501","11611D7ADEE14F5D91DCFC3B7ADFDB7F-2024-11-24-18-56-45","","null","","[]","null","",""
"","","","","","image-button-response","60","767891","0.0-12.0-1.0-0.1","11611D7ADEE14F5D91DCFC3B7ADFDB7F","11611D7ADEE14F5D91DCFC3B7ADFDB7F","cd375c40-2a50-4ee9-a4c7-48f3cd69093a","a0a8f18c-a66e-4ba7-a170-23efbdc67501","{""participantId"":""11611D7ADEE14F5D91DCFC3B7ADFDB7F"",""assignmentId"":""cd375c40-2a50-4ee9-a4c7-48f3cd69093a"",""projectId"":""a0a8f18c-a66e-4ba7-a170-23efbdc67501""}","https://test12345.live/?participantId=11611D7ADEE14F5D91DCFC3B7ADFDB7F&assignmentId=cd375c40-2a50-4ee9-a4c7-48f3cd69093a&projectId=a0a8f18c-a66e-4ba7-a170-23efbdc67501","11611D7ADEE14F5D91DCFC3B7ADFDB7F-2024-11-24-18-56-45","","null","","images/causal_sequence/dog_causal/dog_causal_2.png","null","",""
"","","","","","image-button-response","61","769468","0.0-12.0-1.0-1.1","11611D7ADEE14F5D91DCFC3B7ADFDB7F","11611D7ADEE14F5D91DCFC3B7ADFDB7F","cd375c40-2a50-4ee9-a4c7-48f3cd69093a","a0a8f18c-a66e-4ba7-a170-23efbdc67501","{""participantId"":""11611D7ADEE14F5D91DCFC3B7ADFDB7F"",""assignmentId"":""cd375c40-2a50-4ee9-a4c7-48f3cd69093a"",""projectId"":""a0a8f18c-a66e-4ba7-a170-23efbdc67501""}","https://test12345.live/?participantId=11611D7ADEE14F5D91DCFC3B7ADFDB7F&assignmentId=cd375c40-2a50-4ee9-a4c7-48f3cd69093a&projectId=a0a8f18c-a66e-4ba7-a170-23efbdc67501","11611D7ADEE14F5D91DCFC3B7ADFDB7F-2024-11-24-18-56-45","","1567","","images/causal_sequence/dog_causal/dog_causal_2.png","0","",""
"","","","","","image-button-response","62","771276","0.0-12.0-1.0-2.1","11611D7ADEE14F5D91DCFC3B7ADFDB7F","11611D7ADEE14F5D91DCFC3B7ADFDB7F","cd375c40-2a50-4ee9-a4c7-48f3cd69093a","a0a8f18c-a66e-4ba7-a170-23efbdc67501","{""participantId"":""11611D7ADEE14F5D91DCFC3B7ADFDB7F"",""assignmentId"":""cd375c40-2a50-4ee9-a4c7-48f3cd69093a"",""projectId"":""a0a8f18c-a66e-4ba7-a170-23efbdc67501""}","https://test12345.live/?participantId=11611D7ADEE14F5D91DCFC3B7ADFDB7F&assignmentId=cd375c40-2a50-4ee9-a4c7-48f3cd69093a&projectId=a0a8f18c-a66e-4ba7-a170-23efbdc67501","11611D7ADEE14F5D91DCFC3B7ADFDB7F-2024-11-24-18-56-45","","null","","[]","null","",""
"","","","","","image-button-response","63","775780","0.0-12.0-1.0-0.2","11611D7ADEE14F5D91DCFC3B7ADFDB7F","11611D7ADEE14F5D91DCFC3B7ADFDB7F","cd375c40-2a50-4ee9-a4c7-48f3cd69093a","a0a8f18c-a66e-4ba7-a170-23efbdc67501","{""participantId"":""11611D7ADEE14F5D91DCFC3B7ADFDB7F"",""assignmentId"":""cd375c40-2a50-4ee9-a4c7-48f3cd69093a"",""projectId"":""a0a8f18c-a66e-4ba7-a170-23efbdc67501""}","https://test12345.live/?participantId=11611D7ADEE14F5D91DCFC3B7ADFDB7F&assignmentId=cd375c40-2a50-4ee9-a4c7-48f3cd69093a&projectId=a0a8f18c-a66e-4ba7-a170-23efbdc67501","11611D7ADEE14F5D91DCFC3B7ADFDB7F-2024-11-24-18-56-45","","null","","images/causal_sequence/dog_causal/dog_causal_3.png","null","",""
"","","","","","image-button-response","64","776932","0.0-12.0-1.0-1.2","11611D7ADEE14F5D91DCFC3B7ADFDB7F","11611D7ADEE14F5D91DCFC3B7ADFDB7F","cd375c40-2a50-4ee9-a4c7-48f3cd69093a","a0a8f18c-a66e-4ba7-a170-23efbdc67501","{""participantId"":""11611D7ADEE14F5D91DCFC3B7ADFDB7F"",""assignmentId"":""cd375c40-2a50-4ee9-a4c7-48f3cd69093a"",""projectId"":""a0a8f18c-a66e-4ba7-a170-23efbdc67501""}","https://test12345.live/?participantId=11611D7ADEE14F5D91DCFC3B7ADFDB7F&assignmentId=cd375c40-2a50-4ee9-a4c7-48f3cd69093a&projectId=a0a8f18c-a66e-4ba7-a170-23efbdc67501","11611D7ADEE14F5D91DCFC3B7ADFDB7F-2024-11-24-18-56-45","","1150","","images/causal_sequence/dog_causal/dog_causal_3.png","0","",""
"","","","","","image-button-response","65","778736","0.0-12.0-1.0-2.2","11611D7ADEE14F5D91DCFC3B7ADFDB7F","11611D7ADEE14F5D91DCFC3B7ADFDB7F","cd375c40-2a50-4ee9-a4c7-48f3cd69093a","a0a8f18c-a66e-4ba7-a170-23efbdc67501","{""participantId"":""11611D7ADEE14F5D91DCFC3B7ADFDB7F"",""assignmentId"":""cd375c40-2a50-4ee9-a4c7-48f3cd69093a"",""projectId"":""a0a8f18c-a66e-4ba7-a170-23efbdc67501""}","https://test12345.live/?participantId=11611D7ADEE14F5D91DCFC3B7ADFDB7F&assignmentId=cd375c40-2a50-4ee9-a4c7-48f3cd69093a&projectId=a0a8f18c-a66e-4ba7-a170-23efbdc67501","11611D7ADEE14F5D91DCFC3B7ADFDB7F-2024-11-24-18-56-45","","null","","[]","null","",""
"","","","","","image-button-response","66","783242","0.0-12.0-1.0-0.3","11611D7ADEE14F5D91DCFC3B7ADFDB7F","11611D7ADEE14F5D91DCFC3B7ADFDB7F","cd375c40-2a50-4ee9-a4c7-48f3cd69093a","a0a8f18c-a66e-4ba7-a170-23efbdc67501","{""participantId"":""11611D7ADEE14F5D91DCFC3B7ADFDB7F"",""assignmentId"":""cd375c40-2a50-4ee9-a4c7-48f3cd69093a"",""projectId"":""a0a8f18c-a66e-4ba7-a170-23efbdc67501""}","https://test12345.live/?participantId=11611D7ADEE14F5D91DCFC3B7ADFDB7F&assignmentId=cd375c40-2a50-4ee9-a4c7-48f3cd69093a&projectId=a0a8f18c-a66e-4ba7-a170-23efbdc67501","11611D7ADEE14F5D91DCFC3B7ADFDB7F-2024-11-24-18-56-45","","null","","images/causal_sequence/dog_causal/dog_causal_4.png","null","",""
"","","","","","image-button-response","67","784559","0.0-12.0-1.0-1.3","11611D7ADEE14F5D91DCFC3B7ADFDB7F","11611D7ADEE14F5D91DCFC3B7ADFDB7F","cd375c40-2a50-4ee9-a4c7-48f3cd69093a","a0a8f18c-a66e-4ba7-a170-23efbdc67501","{""participantId"":""11611D7ADEE14F5D91DCFC3B7ADFDB7F"",""assignmentId"":""cd375c40-2a50-4ee9-a4c7-48f3cd69093a"",""projectId"":""a0a8f18c-a66e-4ba7-a170-23efbdc67501""}","https://test12345.live/?participantId=11611D7ADEE14F5D91DCFC3B7ADFDB7F&assignmentId=cd375c40-2a50-4ee9-a4c7-48f3cd69093a&projectId=a0a8f18c-a66e-4ba7-a170-23efbdc67501","11611D7ADEE14F5D91DCFC3B7ADFDB7F-2024-11-24-18-56-45","","1315","","images/causal_sequence/dog_causal/dog_causal_4.png","0","",""
"","","","","","image-button-response","68","786363","0.0-12.0-1.0-2.3","11611D7ADEE14F5D91DCFC3B7ADFDB7F","11611D7ADEE14F5D91DCFC3B7ADFDB7F","cd375c40-2a50-4ee9-a4c7-48f3cd69093a","a0a8f18c-a66e-4ba7-a170-23efbdc67501","{""participantId"":""11611D7ADEE14F5D91DCFC3B7ADFDB7F"",""assignmentId"":""cd375c40-2a50-4ee9-a4c7-48f3cd69093a"",""projectId"":""a0a8f18c-a66e-4ba7-a170-23efbdc67501""}","https://test12345.live/?participantId=11611D7ADEE14F5D91DCFC3B7ADFDB7F&assignmentId=cd375c40-2a50-4ee9-a4c7-48f3cd69093a&projectId=a0a8f18c-a66e-4ba7-a170-23efbdc67501","11611D7ADEE14F5D91DCFC3B7ADFDB7F-2024-11-24-18-56-45","","null","","[]","null","",""
"","","","","","image-button-response","69","790866","0.0-12.0-1.0-0.4","11611D7ADEE14F5D91DCFC3B7ADFDB7F","11611D7ADEE14F5D91DCFC3B7ADFDB7F","cd375c40-2a50-4ee9-a4c7-48f3cd69093a","a0a8f18c-a66e-4ba7-a170-23efbdc67501","{""participantId"":""11611D7ADEE14F5D91DCFC3B7ADFDB7F"",""assignmentId"":""cd375c40-2a50-4ee9-a4c7-48f3cd69093a"",""projectId"":""a0a8f18c-a66e-4ba7-a170-23efbdc67501""}","https://test12345.live/?participantId=11611D7ADEE14F5D91DCFC3B7ADFDB7F&assignmentId=cd375c40-2a50-4ee9-a4c7-48f3cd69093a&projectId=a0a8f18c-a66e-4ba7-a170-23efbdc67501","11611D7ADEE14F5D91DCFC3B7ADFDB7F-2024-11-24-18-56-45","","null","","images/causal_sequence/dog_causal/dog_causal_5.png","null","",""
"","","","","","image-button-response","70","791973","0.0-12.0-1.0-1.4","11611D7ADEE14F5D91DCFC3B7ADFDB7F","11611D7ADEE14F5D91DCFC3B7ADFDB7F","cd375c40-2a50-4ee9-a4c7-48f3cd69093a","a0a8f18c-a66e-4ba7-a170-23efbdc67501","{""participantId"":""11611D7ADEE14F5D91DCFC3B7ADFDB7F"",""assignmentId"":""cd375c40-2a50-4ee9-a4c7-48f3cd69093a"",""projectId"":""a0a8f18c-a66e-4ba7-a170-23efbdc67501""}","https://test12345.live/?participantId=11611D7ADEE14F5D91DCFC3B7ADFDB7F&assignmentId=cd375c40-2a50-4ee9-a4c7-48f3cd69093a&projectId=a0a8f18c-a66e-4ba7-a170-23efbdc67501","11611D7ADEE14F5D91DCFC3B7ADFDB7F-2024-11-24-18-56-45","","1106","","images/causal_sequence/dog_causal/dog_causal_5.png","0","",""
"","","","","","image-button-response","71","793783","0.0-12.0-1.0-2.4","11611D7ADEE14F5D91DCFC3B7ADFDB7F","11611D7ADEE14F5D91DCFC3B7ADFDB7F","cd375c40-2a50-4ee9-a4c7-48f3cd69093a","a0a8f18c-a66e-4ba7-a170-23efbdc67501","{""participantId"":""11611D7ADEE14F5D91DCFC3B7ADFDB7F"",""assignmentId"":""cd375c40-2a50-4ee9-a4c7-48f3cd69093a"",""projectId"":""a0a8f18c-a66e-4ba7-a170-23efbdc67501""}","https://test12345.live/?participantId=11611D7ADEE14F5D91DCFC3B7ADFDB7F&assignmentId=cd375c40-2a50-4ee9-a4c7-48f3cd69093a&projectId=a0a8f18c-a66e-4ba7-a170-23efbdc67501","11611D7ADEE14F5D91DCFC3B7ADFDB7F-2024-11-24-18-56-45","","null","","[]","null","",""
"","","","","","image-button-response","72","798342","0.0-12.0-1.0-0.5","11611D7ADEE14F5D91DCFC3B7ADFDB7F","11611D7ADEE14F5D91DCFC3B7ADFDB7F","cd375c40-2a50-4ee9-a4c7-48f3cd69093a","a0a8f18c-a66e-4ba7-a170-23efbdc67501","{""participantId"":""11611D7ADEE14F5D91DCFC3B7ADFDB7F"",""assignmentId"":""cd375c40-2a50-4ee9-a4c7-48f3cd69093a"",""projectId"":""a0a8f18c-a66e-4ba7-a170-23efbdc67501""}","https://test12345.live/?participantId=11611D7ADEE14F5D91DCFC3B7ADFDB7F&assignmentId=cd375c40-2a50-4ee9-a4c7-48f3cd69093a&projectId=a0a8f18c-a66e-4ba7-a170-23efbdc67501","11611D7ADEE14F5D91DCFC3B7ADFDB7F-2024-11-24-18-56-45","","null","","images/causal_sequence/dog_causal/dog_causal_6.png","null","",""
"","","","","","image-button-response","73","799945","0.0-12.0-1.0-1.5","11611D7ADEE14F5D91DCFC3B7ADFDB7F","11611D7ADEE14F5D91DCFC3B7ADFDB7F","cd375c40-2a50-4ee9-a4c7-48f3cd69093a","a0a8f18c-a66e-4ba7-a170-23efbdc67501","{""participantId"":""11611D7ADEE14F5D91DCFC3B7ADFDB7F"",""assignmentId"":""cd375c40-2a50-4ee9-a4c7-48f3cd69093a"",""projectId"":""a0a8f18c-a66e-4ba7-a170-23efbdc67501""}","https://test12345.live/?participantId=11611D7ADEE14F5D91DCFC3B7ADFDB7F&assignmentId=cd375c40-2a50-4ee9-a4c7-48f3cd69093a&projectId=a0a8f18c-a66e-4ba7-a170-23efbdc67501","11611D7ADEE14F5D91DCFC3B7ADFDB7F-2024-11-24-18-56-45","","1591","","images/causal_sequence/dog_causal/dog_causal_6.png","0","",""
"","","","","","image-button-response","74","801752","0.0-12.0-1.0-2.5","11611D7ADEE14F5D91DCFC3B7ADFDB7F","11611D7ADEE14F5D91DCFC3B7ADFDB7F","cd375c40-2a50-4ee9-a4c7-48f3cd69093a","a0a8f18c-a66e-4ba7-a170-23efbdc67501","{""participantId"":""11611D7ADEE14F5D91DCFC3B7ADFDB7F"",""assignmentId"":""cd375c40-2a50-4ee9-a4c7-48f3cd69093a"",""projectId"":""a0a8f18c-a66e-4ba7-a170-23efbdc67501""}","https://test12345.live/?participantId=11611D7ADEE14F5D91DCFC3B7ADFDB7F&assignmentId=cd375c40-2a50-4ee9-a4c7-48f3cd69093a&projectId=a0a8f18c-a66e-4ba7-a170-23efbdc67501","11611D7ADEE14F5D91DCFC3B7ADFDB7F-2024-11-24-18-56-45","","null","","[]","null","",""
"","","","","","image-button-response","75","806256","0.0-12.0-1.0-0.6","11611D7ADEE14F5D91DCFC3B7ADFDB7F","11611D7ADEE14F5D91DCFC3B7ADFDB7F","cd375c40-2a50-4ee9-a4c7-48f3cd69093a","a0a8f18c-a66e-4ba7-a170-23efbdc67501","{""participantId"":""11611D7ADEE14F5D91DCFC3B7ADFDB7F"",""assignmentId"":""cd375c40-2a50-4ee9-a4c7-48f3cd69093a"",""projectId"":""a0a8f18c-a66e-4ba7-a170-23efbdc67501""}","https://test12345.live/?participantId=11611D7ADEE14F5D91DCFC3B7ADFDB7F&assignmentId=cd375c40-2a50-4ee9-a4c7-48f3cd69093a&projectId=a0a8f18c-a66e-4ba7-a170-23efbdc67501","11611D7ADEE14F5D91DCFC3B7ADFDB7F-2024-11-24-18-56-45","","null","","images/causal_sequence/dog_causal/dog_causal_7.png","null","",""
"","","","","","image-button-response","76","807156","0.0-12.0-1.0-1.6","11611D7ADEE14F5D91DCFC3B7ADFDB7F","11611D7ADEE14F5D91DCFC3B7ADFDB7F","cd375c40-2a50-4ee9-a4c7-48f3cd69093a","a0a8f18c-a66e-4ba7-a170-23efbdc67501","{""participantId"":""11611D7ADEE14F5D91DCFC3B7ADFDB7F"",""assignmentId"":""cd375c40-2a50-4ee9-a4c7-48f3cd69093a"",""projectId"":""a0a8f18c-a66e-4ba7-a170-23efbdc67501""}","https://test12345.live/?participantId=11611D7ADEE14F5D91DCFC3B7ADFDB7F&assignmentId=cd375c40-2a50-4ee9-a4c7-48f3cd69093a&projectId=a0a8f18c-a66e-4ba7-a170-23efbdc67501","11611D7ADEE14F5D91DCFC3B7ADFDB7F-2024-11-24-18-56-45","","897","","images/causal_sequence/dog_causal/dog_causal_7.png","0","",""
"","","","","","image-button-response","77","808962","0.0-12.0-1.0-2.6","11611D7ADEE14F5D91DCFC3B7ADFDB7F","11611D7ADEE14F5D91DCFC3B7ADFDB7F","cd375c40-2a50-4ee9-a4c7-48f3cd69093a","a0a8f18c-a66e-4ba7-a170-23efbdc67501","{""participantId"":""11611D7ADEE14F5D91DCFC3B7ADFDB7F"",""assignmentId"":""cd375c40-2a50-4ee9-a4c7-48f3cd69093a"",""projectId"":""a0a8f18c-a66e-4ba7-a170-23efbdc67501""}","https://test12345.live/?participantId=11611D7ADEE14F5D91DCFC3B7ADFDB7F&assignmentId=cd375c40-2a50-4ee9-a4c7-48f3cd69093a&projectId=a0a8f18c-a66e-4ba7-a170-23efbdc67501","11611D7ADEE14F5D91DCFC3B7ADFDB7F-2024-11-24-18-56-45","","null","","[]","null","",""
"","","","","","image-button-response","78","813477","0.0-12.0-1.0-0.7","11611D7ADEE14F5D91DCFC3B7ADFDB7F","11611D7ADEE14F5D91DCFC3B7ADFDB7F","cd375c40-2a50-4ee9-a4c7-48f3cd69093a","a0a8f18c-a66e-4ba7-a170-23efbdc67501","{""participantId"":""11611D7ADEE14F5D91DCFC3B7ADFDB7F"",""assignmentId"":""cd375c40-2a50-4ee9-a4c7-48f3cd69093a"",""projectId"":""a0a8f18c-a66e-4ba7-a170-23efbdc67501""}","https://test12345.live/?participantId=11611D7ADEE14F5D91DCFC3B7ADFDB7F&assignmentId=cd375c40-2a50-4ee9-a4c7-48f3cd69093a&projectId=a0a8f18c-a66e-4ba7-a170-23efbdc67501","11611D7ADEE14F5D91DCFC3B7ADFDB7F-2024-11-24-18-56-45","","null","","images/causal_sequence/dog_causal/dog_causal_8.png","null","",""
"","","","","","image-button-response","79","814531","0.0-12.0-1.0-1.7","11611D7ADEE14F5D91DCFC3B7ADFDB7F","11611D7ADEE14F5D91DCFC3B7ADFDB7F","cd375c40-2a50-4ee9-a4c7-48f3cd69093a","a0a8f18c-a66e-4ba7-a170-23efbdc67501","{""participantId"":""11611D7ADEE14F5D91DCFC3B7ADFDB7F"",""assignmentId"":""cd375c40-2a50-4ee9-a4c7-48f3cd69093a"",""projectId"":""a0a8f18c-a66e-4ba7-a170-23efbdc67501""}","https://test12345.live/?participantId=11611D7ADEE14F5D91DCFC3B7ADFDB7F&assignmentId=cd375c40-2a50-4ee9-a4c7-48f3cd69093a&projectId=a0a8f18c-a66e-4ba7-a170-23efbdc67501","11611D7ADEE14F5D91DCFC3B7ADFDB7F-2024-11-24-18-56-45","","1052","","images/causal_sequence/dog_causal/dog_causal_8.png","0","",""
"","","","","","image-button-response","80","816337","0.0-12.0-1.0-2.7","11611D7ADEE14F5D91DCFC3B7ADFDB7F","11611D7ADEE14F5D91DCFC3B7ADFDB7F","cd375c40-2a50-4ee9-a4c7-48f3cd69093a","a0a8f18c-a66e-4ba7-a170-23efbdc67501","{""participantId"":""11611D7ADEE14F5D91DCFC3B7ADFDB7F"",""assignmentId"":""cd375c40-2a50-4ee9-a4c7-48f3cd69093a"",""projectId"":""a0a8f18c-a66e-4ba7-a170-23efbdc67501""}","https://test12345.live/?participantId=11611D7ADEE14F5D91DCFC3B7ADFDB7F&assignmentId=cd375c40-2a50-4ee9-a4c7-48f3cd69093a&projectId=a0a8f18c-a66e-4ba7-a170-23efbdc67501","11611D7ADEE14F5D91DCFC3B7ADFDB7F-2024-11-24-18-56-45","","null","","[]","null","",""
"","","","","","image-button-response","81","820839","0.0-12.0-1.0-0.8","11611D7ADEE14F5D91DCFC3B7ADFDB7F","11611D7ADEE14F5D91DCFC3B7ADFDB7F","cd375c40-2a50-4ee9-a4c7-48f3cd69093a","a0a8f18c-a66e-4ba7-a170-23efbdc67501","{""participantId"":""11611D7ADEE14F5D91DCFC3B7ADFDB7F"",""assignmentId"":""cd375c40-2a50-4ee9-a4c7-48f3cd69093a"",""projectId"":""a0a8f18c-a66e-4ba7-a170-23efbdc67501""}","https://test12345.live/?participantId=11611D7ADEE14F5D91DCFC3B7ADFDB7F&assignmentId=cd375c40-2a50-4ee9-a4c7-48f3cd69093a&projectId=a0a8f18c-a66e-4ba7-a170-23efbdc67501","11611D7ADEE14F5D91DCFC3B7ADFDB7F-2024-11-24-18-56-45","","null","","images/causal_sequence/dog_causal/dog_causal_9.png","null","",""
"","","","","","image-button-response","82","821668","0.0-12.0-1.0-1.8","11611D7ADEE14F5D91DCFC3B7ADFDB7F","11611D7ADEE14F5D91DCFC3B7ADFDB7F","cd375c40-2a50-4ee9-a4c7-48f3cd69093a","a0a8f18c-a66e-4ba7-a170-23efbdc67501","{""participantId"":""11611D7ADEE14F5D91DCFC3B7ADFDB7F"",""assignmentId"":""cd375c40-2a50-4ee9-a4c7-48f3cd69093a"",""projectId"":""a0a8f18c-a66e-4ba7-a170-23efbdc67501""}","https://test12345.live/?participantId=11611D7ADEE14F5D91DCFC3B7ADFDB7F&assignmentId=cd375c40-2a50-4ee9-a4c7-48f3cd69093a&projectId=a0a8f18c-a66e-4ba7-a170-23efbdc67501","11611D7ADEE14F5D91DCFC3B7ADFDB7F-2024-11-24-18-56-45","","828","","images/causal_sequence/dog_causal/dog_causal_9.png","0","",""
"","","","","","image-button-response","83","823477","0.0-12.0-1.0-2.8","11611D7ADEE14F5D91DCFC3B7ADFDB7F","11611D7ADEE14F5D91DCFC3B7ADFDB7F","cd375c40-2a50-4ee9-a4c7-48f3cd69093a","a0a8f18c-a66e-4ba7-a170-23efbdc67501","{""participantId"":""11611D7ADEE14F5D91DCFC3B7ADFDB7F"",""assignmentId"":""cd375c40-2a50-4ee9-a4c7-48f3cd69093a"",""projectId"":""a0a8f18c-a66e-4ba7-a170-23efbdc67501""}","https://test12345.live/?participantId=11611D7ADEE14F5D91DCFC3B7ADFDB7F&assignmentId=cd375c40-2a50-4ee9-a4c7-48f3cd69093a&projectId=a0a8f18c-a66e-4ba7-a170-23efbdc67501","11611D7ADEE14F5D91DCFC3B7ADFDB7F-2024-11-24-18-56-45","","null","","[]","null","",""
"","","","","","image-button-response","84","827980","0.0-12.0-1.0-0.9","11611D7ADEE14F5D91DCFC3B7ADFDB7F","11611D7ADEE14F5D91DCFC3B7ADFDB7F","cd375c40-2a50-4ee9-a4c7-48f3cd69093a","a0a8f18c-a66e-4ba7-a170-23efbdc67501","{""participantId"":""11611D7ADEE14F5D91DCFC3B7ADFDB7F"",""assignmentId"":""cd375c40-2a50-4ee9-a4c7-48f3cd69093a"",""projectId"":""a0a8f18c-a66e-4ba7-a170-23efbdc67501""}","https://test12345.live/?participantId=11611D7ADEE14F5D91DCFC3B7ADFDB7F&assignmentId=cd375c40-2a50-4ee9-a4c7-48f3cd69093a&projectId=a0a8f18c-a66e-4ba7-a170-23efbdc67501","11611D7ADEE14F5D91DCFC3B7ADFDB7F-2024-11-24-18-56-45","","null","","images/causal_sequence/dog_causal/dog_causal_ten.png","null","",""
"","","","","","image-button-response","85","829388","0.0-12.0-1.0-1.9","11611D7ADEE14F5D91DCFC3B7ADFDB7F","11611D7ADEE14F5D91DCFC3B7ADFDB7F","cd375c40-2a50-4ee9-a4c7-48f3cd69093a","a0a8f18c-a66e-4ba7-a170-23efbdc67501","{""participantId"":""11611D7ADEE14F5D91DCFC3B7ADFDB7F"",""assignmentId"":""cd375c40-2a50-4ee9-a4c7-48f3cd69093a"",""projectId"":""a0a8f18c-a66e-4ba7-a170-23efbdc67501""}","https://test12345.live/?participantId=11611D7ADEE14F5D91DCFC3B7ADFDB7F&assignmentId=cd375c40-2a50-4ee9-a4c7-48f3cd69093a&projectId=a0a8f18c-a66e-4ba7-a170-23efbdc67501","11611D7ADEE14F5D91DCFC3B7ADFDB7F-2024-11-24-18-56-45","","1407","","images/causal_sequence/dog_causal/dog_causal_ten.png","0","",""
"","","","","","image-button-response","86","831193","0.0-12.0-1.0-2.9","11611D7ADEE14F5D91DCFC3B7ADFDB7F","11611D7ADEE14F5D91DCFC3B7ADFDB7F","cd375c40-2a50-4ee9-a4c7-48f3cd69093a","a0a8f18c-a66e-4ba7-a170-23efbdc67501","{""participantId"":""11611D7ADEE14F5D91DCFC3B7ADFDB7F"",""assignmentId"":""cd375c40-2a50-4ee9-a4c7-48f3cd69093a"",""projectId"":""a0a8f18c-a66e-4ba7-a170-23efbdc67501""}","https://test12345.live/?participantId=11611D7ADEE14F5D91DCFC3B7ADFDB7F&assignmentId=cd375c40-2a50-4ee9-a4c7-48f3cd69093a&projectId=a0a8f18c-a66e-4ba7-a170-23efbdc67501","11611D7ADEE14F5D91DCFC3B7ADFDB7F-2024-11-24-18-56-45","","null","","[]","null","",""
"","","","","","html-audio-response","87","919386","0.0-13.0","11611D7ADEE14F5D91DCFC3B7ADFDB7F","11611D7ADEE14F5D91DCFC3B7ADFDB7F","cd375c40-2a50-4ee9-a4c7-48f3cd69093a","a0a8f18c-a66e-4ba7-a170-23efbdc67501","{""participantId"":""11611D7ADEE14F5D91DCFC3B7ADFDB7F"",""assignmentId"":""cd375c40-2a50-4ee9-a4c7-48f3cd69093a"",""projectId"":""a0a8f18c-a66e-4ba7-a170-23efbdc67501""}","https://test12345.live/?participantId=11611D7ADEE14F5D91DCFC3B7ADFDB7F&assignmentId=cd375c40-2a50-4ee9-a4c7-48f3cd69093a&projectId=a0a8f18c-a66e-4ba7-a170-23efbdc67501","11611D7ADEE14F5D91DCFC3B7ADFDB7F-2024-11-24-18-56-45","","43172","","[""<span style=\""color: red; font-size: 24px\""> NOW RECORDING</span><p>Please say out loud all the images you saw, as many as you can remember. The images can be said in any order.</p>""]","","23","dog_causal"
"","","","","","image-button-response","88","925434","0.0-14.0-0.0","11611D7ADEE14F5D91DCFC3B7ADFDB7F","11611D7ADEE14F5D91DCFC3B7ADFDB7F","cd375c40-2a50-4ee9-a4c7-48f3cd69093a","a0a8f18c-a66e-4ba7-a170-23efbdc67501","{""participantId"":""11611D7ADEE14F5D91DCFC3B7ADFDB7F"",""assignmentId"":""cd375c40-2a50-4ee9-a4c7-48f3cd69093a"",""projectId"":""a0a8f18c-a66e-4ba7-a170-23efbdc67501""}","https://test12345.live/?participantId=11611D7ADEE14F5D91DCFC3B7ADFDB7F&assignmentId=cd375c40-2a50-4ee9-a4c7-48f3cd69093a&projectId=a0a8f18c-a66e-4ba7-a170-23efbdc67501","11611D7ADEE14F5D91DCFC3B7ADFDB7F-2024-11-24-18-56-45","","null","","images/schematic_sequence/restaurant_scheme/restaurant_scheme_0.png","null","",""
"","","","","","image-button-response","89","929978","0.0-14.0-1.0-0.0","11611D7ADEE14F5D91DCFC3B7ADFDB7F","11611D7ADEE14F5D91DCFC3B7ADFDB7F","cd375c40-2a50-4ee9-a4c7-48f3cd69093a","a0a8f18c-a66e-4ba7-a170-23efbdc67501","{""participantId"":""11611D7ADEE14F5D91DCFC3B7ADFDB7F"",""assignmentId"":""cd375c40-2a50-4ee9-a4c7-48f3cd69093a"",""projectId"":""a0a8f18c-a66e-4ba7-a170-23efbdc67501""}","https://test12345.live/?participantId=11611D7ADEE14F5D91DCFC3B7ADFDB7F&assignmentId=cd375c40-2a50-4ee9-a4c7-48f3cd69093a&projectId=a0a8f18c-a66e-4ba7-a170-23efbdc67501","11611D7ADEE14F5D91DCFC3B7ADFDB7F-2024-11-24-18-56-45","","null","","images/schematic_sequence/restaurant_scheme/restaurant_scheme_8.png","null","",""
"","","","","","image-button-response","90","931738","0.0-14.0-1.0-1.0","11611D7ADEE14F5D91DCFC3B7ADFDB7F","11611D7ADEE14F5D91DCFC3B7ADFDB7F","cd375c40-2a50-4ee9-a4c7-48f3cd69093a","a0a8f18c-a66e-4ba7-a170-23efbdc67501","{""participantId"":""11611D7ADEE14F5D91DCFC3B7ADFDB7F"",""assignmentId"":""cd375c40-2a50-4ee9-a4c7-48f3cd69093a"",""projectId"":""a0a8f18c-a66e-4ba7-a170-23efbdc67501""}","https://test12345.live/?participantId=11611D7ADEE14F5D91DCFC3B7ADFDB7F&assignmentId=cd375c40-2a50-4ee9-a4c7-48f3cd69093a&projectId=a0a8f18c-a66e-4ba7-a170-23efbdc67501","11611D7ADEE14F5D91DCFC3B7ADFDB7F-2024-11-24-18-56-45","","1743","","images/schematic_sequence/restaurant_scheme/restaurant_scheme_8.png","1","",""
"","","","","","image-button-response","91","933543","0.0-14.0-1.0-2.0","11611D7ADEE14F5D91DCFC3B7ADFDB7F","11611D7ADEE14F5D91DCFC3B7ADFDB7F","cd375c40-2a50-4ee9-a4c7-48f3cd69093a","a0a8f18c-a66e-4ba7-a170-23efbdc67501","{""participantId"":""11611D7ADEE14F5D91DCFC3B7ADFDB7F"",""assignmentId"":""cd375c40-2a50-4ee9-a4c7-48f3cd69093a"",""projectId"":""a0a8f18c-a66e-4ba7-a170-23efbdc67501""}","https://test12345.live/?participantId=11611D7ADEE14F5D91DCFC3B7ADFDB7F&assignmentId=cd375c40-2a50-4ee9-a4c7-48f3cd69093a&projectId=a0a8f18c-a66e-4ba7-a170-23efbdc67501","11611D7ADEE14F5D91DCFC3B7ADFDB7F-2024-11-24-18-56-45","","null","","[]","null","",""
"","","","","","image-button-response","92","938051","0.0-14.0-1.0-0.1","11611D7ADEE14F5D91DCFC3B7ADFDB7F","11611D7ADEE14F5D91DCFC3B7ADFDB7F","cd375c40-2a50-4ee9-a4c7-48f3cd69093a","a0a8f18c-a66e-4ba7-a170-23efbdc67501","{""participantId"":""11611D7ADEE14F5D91DCFC3B7ADFDB7F"",""assignmentId"":""cd375c40-2a50-4ee9-a4c7-48f3cd69093a"",""projectId"":""a0a8f18c-a66e-4ba7-a170-23efbdc67501""}","https://test12345.live/?participantId=11611D7ADEE14F5D91DCFC3B7ADFDB7F&assignmentId=cd375c40-2a50-4ee9-a4c7-48f3cd69093a&projectId=a0a8f18c-a66e-4ba7-a170-23efbdc67501","11611D7ADEE14F5D91DCFC3B7ADFDB7F-2024-11-24-18-56-45","","null","","images/schematic_sequence/restaurant_scheme/restaurant_scheme_6.png","null","",""
"","","","","","image-button-response","93","938992","0.0-14.0-1.0-1.1","11611D7ADEE14F5D91DCFC3B7ADFDB7F","11611D7ADEE14F5D91DCFC3B7ADFDB7F","cd375c40-2a50-4ee9-a4c7-48f3cd69093a","a0a8f18c-a66e-4ba7-a170-23efbdc67501","{""participantId"":""11611D7ADEE14F5D91DCFC3B7ADFDB7F"",""assignmentId"":""cd375c40-2a50-4ee9-a4c7-48f3cd69093a"",""projectId"":""a0a8f18c-a66e-4ba7-a170-23efbdc67501""}","https://test12345.live/?participantId=11611D7ADEE14F5D91DCFC3B7ADFDB7F&assignmentId=cd375c40-2a50-4ee9-a4c7-48f3cd69093a&projectId=a0a8f18c-a66e-4ba7-a170-23efbdc67501","11611D7ADEE14F5D91DCFC3B7ADFDB7F-2024-11-24-18-56-45","","940","","images/schematic_sequence/restaurant_scheme/restaurant_scheme_6.png","1","",""
"","","","","","image-button-response","94","940800","0.0-14.0-1.0-2.1","11611D7ADEE14F5D91DCFC3B7ADFDB7F","11611D7ADEE14F5D91DCFC3B7ADFDB7F","cd375c40-2a50-4ee9-a4c7-48f3cd69093a","a0a8f18c-a66e-4ba7-a170-23efbdc67501","{""participantId"":""11611D7ADEE14F5D91DCFC3B7ADFDB7F"",""assignmentId"":""cd375c40-2a50-4ee9-a4c7-48f3cd69093a"",""projectId"":""a0a8f18c-a66e-4ba7-a170-23efbdc67501""}","https://test12345.live/?participantId=11611D7ADEE14F5D91DCFC3B7ADFDB7F&assignmentId=cd375c40-2a50-4ee9-a4c7-48f3cd69093a&projectId=a0a8f18c-a66e-4ba7-a170-23efbdc67501","11611D7ADEE14F5D91DCFC3B7ADFDB7F-2024-11-24-18-56-45","","null","","[]","null","",""
"","","","","","image-button-response","95","945303","0.0-14.0-1.0-0.2","11611D7ADEE14F5D91DCFC3B7ADFDB7F","11611D7ADEE14F5D91DCFC3B7ADFDB7F","cd375c40-2a50-4ee9-a4c7-48f3cd69093a","a0a8f18c-a66e-4ba7-a170-23efbdc67501","{""participantId"":""11611D7ADEE14F5D91DCFC3B7ADFDB7F"",""assignmentId"":""cd375c40-2a50-4ee9-a4c7-48f3cd69093a"",""projectId"":""a0a8f18c-a66e-4ba7-a170-23efbdc67501""}","https://test12345.live/?participantId=11611D7ADEE14F5D91DCFC3B7ADFDB7F&assignmentId=cd375c40-2a50-4ee9-a4c7-48f3cd69093a&projectId=a0a8f18c-a66e-4ba7-a170-23efbdc67501","11611D7ADEE14F5D91DCFC3B7ADFDB7F-2024-11-24-18-56-45","","null","","images/schematic_sequence/restaurant_scheme/restaurant_scheme_1.png","null","",""
"","","","","","image-button-response","96","947347","0.0-14.0-1.0-1.2","11611D7ADEE14F5D91DCFC3B7ADFDB7F","11611D7ADEE14F5D91DCFC3B7ADFDB7F","cd375c40-2a50-4ee9-a4c7-48f3cd69093a","a0a8f18c-a66e-4ba7-a170-23efbdc67501","{""participantId"":""11611D7ADEE14F5D91DCFC3B7ADFDB7F"",""assignmentId"":""cd375c40-2a50-4ee9-a4c7-48f3cd69093a"",""projectId"":""a0a8f18c-a66e-4ba7-a170-23efbdc67501""}","https://test12345.live/?participantId=11611D7ADEE14F5D91DCFC3B7ADFDB7F&assignmentId=cd375c40-2a50-4ee9-a4c7-48f3cd69093a&projectId=a0a8f18c-a66e-4ba7-a170-23efbdc67501","11611D7ADEE14F5D91DCFC3B7ADFDB7F-2024-11-24-18-56-45","","2042","","images/schematic_sequence/restaurant_scheme/restaurant_scheme_1.png","0","",""
"","","","","","image-button-response","97","949150","0.0-14.0-1.0-2.2","11611D7ADEE14F5D91DCFC3B7ADFDB7F","11611D7ADEE14F5D91DCFC3B7ADFDB7F","cd375c40-2a50-4ee9-a4c7-48f3cd69093a","a0a8f18c-a66e-4ba7-a170-23efbdc67501","{""participantId"":""11611D7ADEE14F5D91DCFC3B7ADFDB7F"",""assignmentId"":""cd375c40-2a50-4ee9-a4c7-48f3cd69093a"",""projectId"":""a0a8f18c-a66e-4ba7-a170-23efbdc67501""}","https://test12345.live/?participantId=11611D7ADEE14F5D91DCFC3B7ADFDB7F&assignmentId=cd375c40-2a50-4ee9-a4c7-48f3cd69093a&projectId=a0a8f18c-a66e-4ba7-a170-23efbdc67501","11611D7ADEE14F5D91DCFC3B7ADFDB7F-2024-11-24-18-56-45","","null","","[]","null","",""
"","","","","","image-button-response","98","953654","0.0-14.0-1.0-0.3","11611D7ADEE14F5D91DCFC3B7ADFDB7F","11611D7ADEE14F5D91DCFC3B7ADFDB7F","cd375c40-2a50-4ee9-a4c7-48f3cd69093a","a0a8f18c-a66e-4ba7-a170-23efbdc67501","{""participantId"":""11611D7ADEE14F5D91DCFC3B7ADFDB7F"",""assignmentId"":""cd375c40-2a50-4ee9-a4c7-48f3cd69093a"",""projectId"":""a0a8f18c-a66e-4ba7-a170-23efbdc67501""}","https://test12345.live/?participantId=11611D7ADEE14F5D91DCFC3B7ADFDB7F&assignmentId=cd375c40-2a50-4ee9-a4c7-48f3cd69093a&projectId=a0a8f18c-a66e-4ba7-a170-23efbdc67501","11611D7ADEE14F5D91DCFC3B7ADFDB7F-2024-11-24-18-56-45","","null","","images/schematic_sequence/restaurant_scheme/restaurant_scheme_7.png","null","",""
"","","","","","image-button-response","99","955498","0.0-14.0-1.0-1.3","11611D7ADEE14F5D91DCFC3B7ADFDB7F","11611D7ADEE14F5D91DCFC3B7ADFDB7F","cd375c40-2a50-4ee9-a4c7-48f3cd69093a","a0a8f18c-a66e-4ba7-a170-23efbdc67501","{""participantId"":""11611D7ADEE14F5D91DCFC3B7ADFDB7F"",""assignmentId"":""cd375c40-2a50-4ee9-a4c7-48f3cd69093a"",""projectId"":""a0a8f18c-a66e-4ba7-a170-23efbdc67501""}","https://test12345.live/?participantId=11611D7ADEE14F5D91DCFC3B7ADFDB7F&assignmentId=cd375c40-2a50-4ee9-a4c7-48f3cd69093a&projectId=a0a8f18c-a66e-4ba7-a170-23efbdc67501","11611D7ADEE14F5D91DCFC3B7ADFDB7F-2024-11-24-18-56-45","","1842","","images/schematic_sequence/restaurant_scheme/restaurant_scheme_7.png","1","",""
"","","","","","image-button-response","100","957301","0.0-14.0-1.0-2.3","11611D7ADEE14F5D91DCFC3B7ADFDB7F","11611D7ADEE14F5D91DCFC3B7ADFDB7F","cd375c40-2a50-4ee9-a4c7-48f3cd69093a","a0a8f18c-a66e-4ba7-a170-23efbdc67501","{""participantId"":""11611D7ADEE14F5D91DCFC3B7ADFDB7F"",""assignmentId"":""cd375c40-2a50-4ee9-a4c7-48f3cd69093a"",""projectId"":""a0a8f18c-a66e-4ba7-a170-23efbdc67501""}","https://test12345.live/?participantId=11611D7ADEE14F5D91DCFC3B7ADFDB7F&assignmentId=cd375c40-2a50-4ee9-a4c7-48f3cd69093a&projectId=a0a8f18c-a66e-4ba7-a170-23efbdc67501","11611D7ADEE14F5D91DCFC3B7ADFDB7F-2024-11-24-18-56-45","","null","","[]","null","",""
"","","","","","image-button-response","101","961803","0.0-14.0-1.0-0.4","11611D7ADEE14F5D91DCFC3B7ADFDB7F","11611D7ADEE14F5D91DCFC3B7ADFDB7F","cd375c40-2a50-4ee9-a4c7-48f3cd69093a","a0a8f18c-a66e-4ba7-a170-23efbdc67501","{""participantId"":""11611D7ADEE14F5D91DCFC3B7ADFDB7F"",""assignmentId"":""cd375c40-2a50-4ee9-a4c7-48f3cd69093a"",""projectId"":""a0a8f18c-a66e-4ba7-a170-23efbdc67501""}","https://test12345.live/?participantId=11611D7ADEE14F5D91DCFC3B7ADFDB7F&assignmentId=cd375c40-2a50-4ee9-a4c7-48f3cd69093a&projectId=a0a8f18c-a66e-4ba7-a170-23efbdc67501","11611D7ADEE14F5D91DCFC3B7ADFDB7F-2024-11-24-18-56-45","","null","","images/schematic_sequence/restaurant_scheme/restaurant_scheme_9.png","null","",""
"","","","","","image-button-response","102","963042","0.0-14.0-1.0-1.4","11611D7ADEE14F5D91DCFC3B7ADFDB7F","11611D7ADEE14F5D91DCFC3B7ADFDB7F","cd375c40-2a50-4ee9-a4c7-48f3cd69093a","a0a8f18c-a66e-4ba7-a170-23efbdc67501","{""participantId"":""11611D7ADEE14F5D91DCFC3B7ADFDB7F"",""assignmentId"":""cd375c40-2a50-4ee9-a4c7-48f3cd69093a"",""projectId"":""a0a8f18c-a66e-4ba7-a170-23efbdc67501""}","https://test12345.live/?participantId=11611D7ADEE14F5D91DCFC3B7ADFDB7F&assignmentId=cd375c40-2a50-4ee9-a4c7-48f3cd69093a&projectId=a0a8f18c-a66e-4ba7-a170-23efbdc67501","11611D7ADEE14F5D91DCFC3B7ADFDB7F-2024-11-24-18-56-45","","1237","","images/schematic_sequence/restaurant_scheme/restaurant_scheme_9.png","0","",""
"","","","","","image-button-response","103","964849","0.0-14.0-1.0-2.4","11611D7ADEE14F5D91DCFC3B7ADFDB7F","11611D7ADEE14F5D91DCFC3B7ADFDB7F","cd375c40-2a50-4ee9-a4c7-48f3cd69093a","a0a8f18c-a66e-4ba7-a170-23efbdc67501","{""participantId"":""11611D7ADEE14F5D91DCFC3B7ADFDB7F"",""assignmentId"":""cd375c40-2a50-4ee9-a4c7-48f3cd69093a"",""projectId"":""a0a8f18c-a66e-4ba7-a170-23efbdc67501""}","https://test12345.live/?participantId=11611D7ADEE14F5D91DCFC3B7ADFDB7F&assignmentId=cd375c40-2a50-4ee9-a4c7-48f3cd69093a&projectId=a0a8f18c-a66e-4ba7-a170-23efbdc67501","11611D7ADEE14F5D91DCFC3B7ADFDB7F-2024-11-24-18-56-45","","null","","[]","null","",""
"","","","","","image-button-response","104","969351","0.0-14.0-1.0-0.5","11611D7ADEE14F5D91DCFC3B7ADFDB7F","11611D7ADEE14F5D91DCFC3B7ADFDB7F","cd375c40-2a50-4ee9-a4c7-48f3cd69093a","a0a8f18c-a66e-4ba7-a170-23efbdc67501","{""participantId"":""11611D7ADEE14F5D91DCFC3B7ADFDB7F"",""assignmentId"":""cd375c40-2a50-4ee9-a4c7-48f3cd69093a"",""projectId"":""a0a8f18c-a66e-4ba7-a170-23efbdc67501""}","https://test12345.live/?participantId=11611D7ADEE14F5D91DCFC3B7ADFDB7F&assignmentId=cd375c40-2a50-4ee9-a4c7-48f3cd69093a&projectId=a0a8f18c-a66e-4ba7-a170-23efbdc67501","11611D7ADEE14F5D91DCFC3B7ADFDB7F-2024-11-24-18-56-45","","null","","images/schematic_sequence/restaurant_scheme/restaurant_scheme_4.png","null","",""
"","","","","","image-button-response","105","970399","0.0-14.0-1.0-1.5","11611D7ADEE14F5D91DCFC3B7ADFDB7F","11611D7ADEE14F5D91DCFC3B7ADFDB7F","cd375c40-2a50-4ee9-a4c7-48f3cd69093a","a0a8f18c-a66e-4ba7-a170-23efbdc67501","{""participantId"":""11611D7ADEE14F5D91DCFC3B7ADFDB7F"",""assignmentId"":""cd375c40-2a50-4ee9-a4c7-48f3cd69093a"",""projectId"":""a0a8f18c-a66e-4ba7-a170-23efbdc67501""}","https://test12345.live/?participantId=11611D7ADEE14F5D91DCFC3B7ADFDB7F&assignmentId=cd375c40-2a50-4ee9-a4c7-48f3cd69093a&projectId=a0a8f18c-a66e-4ba7-a170-23efbdc67501","11611D7ADEE14F5D91DCFC3B7ADFDB7F-2024-11-24-18-56-45","","1046","","images/schematic_sequence/restaurant_scheme/restaurant_scheme_4.png","0","",""
"","","","","","image-button-response","106","972204","0.0-14.0-1.0-2.5","11611D7ADEE14F5D91DCFC3B7ADFDB7F","11611D7ADEE14F5D91DCFC3B7ADFDB7F","cd375c40-2a50-4ee9-a4c7-48f3cd69093a","a0a8f18c-a66e-4ba7-a170-23efbdc67501","{""participantId"":""11611D7ADEE14F5D91DCFC3B7ADFDB7F"",""assignmentId"":""cd375c40-2a50-4ee9-a4c7-48f3cd69093a"",""projectId"":""a0a8f18c-a66e-4ba7-a170-23efbdc67501""}","https://test12345.live/?participantId=11611D7ADEE14F5D91DCFC3B7ADFDB7F&assignmentId=cd375c40-2a50-4ee9-a4c7-48f3cd69093a&projectId=a0a8f18c-a66e-4ba7-a170-23efbdc67501","11611D7ADEE14F5D91DCFC3B7ADFDB7F-2024-11-24-18-56-45","","null","","[]","null","",""
"","","","","","image-button-response","107","976722","0.0-14.0-1.0-0.6","11611D7ADEE14F5D91DCFC3B7ADFDB7F","11611D7ADEE14F5D91DCFC3B7ADFDB7F","cd375c40-2a50-4ee9-a4c7-48f3cd69093a","a0a8f18c-a66e-4ba7-a170-23efbdc67501","{""participantId"":""11611D7ADEE14F5D91DCFC3B7ADFDB7F"",""assignmentId"":""cd375c40-2a50-4ee9-a4c7-48f3cd69093a"",""projectId"":""a0a8f18c-a66e-4ba7-a170-23efbdc67501""}","https://test12345.live/?participantId=11611D7ADEE14F5D91DCFC3B7ADFDB7F&assignmentId=cd375c40-2a50-4ee9-a4c7-48f3cd69093a&projectId=a0a8f18c-a66e-4ba7-a170-23efbdc67501","11611D7ADEE14F5D91DCFC3B7ADFDB7F-2024-11-24-18-56-45","","null","","images/schematic_sequence/restaurant_scheme/restaurant_scheme_3.png","null","",""
"","","","","","image-button-response","108","977923","0.0-14.0-1.0-1.6","11611D7ADEE14F5D91DCFC3B7ADFDB7F","11611D7ADEE14F5D91DCFC3B7ADFDB7F","cd375c40-2a50-4ee9-a4c7-48f3cd69093a","a0a8f18c-a66e-4ba7-a170-23efbdc67501","{""participantId"":""11611D7ADEE14F5D91DCFC3B7ADFDB7F"",""assignmentId"":""cd375c40-2a50-4ee9-a4c7-48f3cd69093a"",""projectId"":""a0a8f18c-a66e-4ba7-a170-23efbdc67501""}","https://test12345.live/?participantId=11611D7ADEE14F5D91DCFC3B7ADFDB7F&assignmentId=cd375c40-2a50-4ee9-a4c7-48f3cd69093a&projectId=a0a8f18c-a66e-4ba7-a170-23efbdc67501","11611D7ADEE14F5D91DCFC3B7ADFDB7F-2024-11-24-18-56-45","","1128","","images/schematic_sequence/restaurant_scheme/restaurant_scheme_3.png","1","",""
"","","","","","image-button-response","109","979735","0.0-14.0-1.0-2.6","11611D7ADEE14F5D91DCFC3B7ADFDB7F","11611D7ADEE14F5D91DCFC3B7ADFDB7F","cd375c40-2a50-4ee9-a4c7-48f3cd69093a","a0a8f18c-a66e-4ba7-a170-23efbdc67501","{""participantId"":""11611D7ADEE14F5D91DCFC3B7ADFDB7F"",""assignmentId"":""cd375c40-2a50-4ee9-a4c7-48f3cd69093a"",""projectId"":""a0a8f18c-a66e-4ba7-a170-23efbdc67501""}","https://test12345.live/?participantId=11611D7ADEE14F5D91DCFC3B7ADFDB7F&assignmentId=cd375c40-2a50-4ee9-a4c7-48f3cd69093a&projectId=a0a8f18c-a66e-4ba7-a170-23efbdc67501","11611D7ADEE14F5D91DCFC3B7ADFDB7F-2024-11-24-18-56-45","","null","","[]","null","",""
"","","","","","image-button-response","110","984240","0.0-14.0-1.0-0.7","11611D7ADEE14F5D91DCFC3B7ADFDB7F","11611D7ADEE14F5D91DCFC3B7ADFDB7F","cd375c40-2a50-4ee9-a4c7-48f3cd69093a","a0a8f18c-a66e-4ba7-a170-23efbdc67501","{""participantId"":""11611D7ADEE14F5D91DCFC3B7ADFDB7F"",""assignmentId"":""cd375c40-2a50-4ee9-a4c7-48f3cd69093a"",""projectId"":""a0a8f18c-a66e-4ba7-a170-23efbdc67501""}","https://test12345.live/?participantId=11611D7ADEE14F5D91DCFC3B7ADFDB7F&assignmentId=cd375c40-2a50-4ee9-a4c7-48f3cd69093a&projectId=a0a8f18c-a66e-4ba7-a170-23efbdc67501","11611D7ADEE14F5D91DCFC3B7ADFDB7F-2024-11-24-18-56-45","","null","","images/schematic_sequence/restaurant_scheme/restaurant_scheme_ten.png","null","",""
"","","","","","image-button-response","111","985272","0.0-14.0-1.0-1.7","11611D7ADEE14F5D91DCFC3B7ADFDB7F","11611D7ADEE14F5D91DCFC3B7ADFDB7F","cd375c40-2a50-4ee9-a4c7-48f3cd69093a","a0a8f18c-a66e-4ba7-a170-23efbdc67501","{""participantId"":""11611D7ADEE14F5D91DCFC3B7ADFDB7F"",""assignmentId"":""cd375c40-2a50-4ee9-a4c7-48f3cd69093a"",""projectId"":""a0a8f18c-a66e-4ba7-a170-23efbdc67501""}","https://test12345.live/?participantId=11611D7ADEE14F5D91DCFC3B7ADFDB7F&assignmentId=cd375c40-2a50-4ee9-a4c7-48f3cd69093a&projectId=a0a8f18c-a66e-4ba7-a170-23efbdc67501","11611D7ADEE14F5D91DCFC3B7ADFDB7F-2024-11-24-18-56-45","","1030","","images/schematic_sequence/restaurant_scheme/restaurant_scheme_ten.png","0","",""
"","","","","","image-button-response","112","987079","0.0-14.0-1.0-2.7","11611D7ADEE14F5D91DCFC3B7ADFDB7F","11611D7ADEE14F5D91DCFC3B7ADFDB7F","cd375c40-2a50-4ee9-a4c7-48f3cd69093a","a0a8f18c-a66e-4ba7-a170-23efbdc67501","{""participantId"":""11611D7ADEE14F5D91DCFC3B7ADFDB7F"",""assignmentId"":""cd375c40-2a50-4ee9-a4c7-48f3cd69093a"",""projectId"":""a0a8f18c-a66e-4ba7-a170-23efbdc67501""}","https://test12345.live/?participantId=11611D7ADEE14F5D91DCFC3B7ADFDB7F&assignmentId=cd375c40-2a50-4ee9-a4c7-48f3cd69093a&projectId=a0a8f18c-a66e-4ba7-a170-23efbdc67501","11611D7ADEE14F5D91DCFC3B7ADFDB7F-2024-11-24-18-56-45","","null","","[]","null","",""
"","","","","","image-button-response","113","991581","0.0-14.0-1.0-0.8","11611D7ADEE14F5D91DCFC3B7ADFDB7F","11611D7ADEE14F5D91DCFC3B7ADFDB7F","cd375c40-2a50-4ee9-a4c7-48f3cd69093a","a0a8f18c-a66e-4ba7-a170-23efbdc67501","{""participantId"":""11611D7ADEE14F5D91DCFC3B7ADFDB7F"",""assignmentId"":""cd375c40-2a50-4ee9-a4c7-48f3cd69093a"",""projectId"":""a0a8f18c-a66e-4ba7-a170-23efbdc67501""}","https://test12345.live/?participantId=11611D7ADEE14F5D91DCFC3B7ADFDB7F&assignmentId=cd375c40-2a50-4ee9-a4c7-48f3cd69093a&projectId=a0a8f18c-a66e-4ba7-a170-23efbdc67501","11611D7ADEE14F5D91DCFC3B7ADFDB7F-2024-11-24-18-56-45","","null","","images/schematic_sequence/restaurant_scheme/restaurant_scheme_2.png","null","",""
"","","","","","image-button-response","114","993354","0.0-14.0-1.0-1.8","11611D7ADEE14F5D91DCFC3B7ADFDB7F","11611D7ADEE14F5D91DCFC3B7ADFDB7F","cd375c40-2a50-4ee9-a4c7-48f3cd69093a","a0a8f18c-a66e-4ba7-a170-23efbdc67501","{""participantId"":""11611D7ADEE14F5D91DCFC3B7ADFDB7F"",""assignmentId"":""cd375c40-2a50-4ee9-a4c7-48f3cd69093a"",""projectId"":""a0a8f18c-a66e-4ba7-a170-23efbdc67501""}","https://test12345.live/?participantId=11611D7ADEE14F5D91DCFC3B7ADFDB7F&assignmentId=cd375c40-2a50-4ee9-a4c7-48f3cd69093a&projectId=a0a8f18c-a66e-4ba7-a170-23efbdc67501","11611D7ADEE14F5D91DCFC3B7ADFDB7F-2024-11-24-18-56-45","","1771","","images/schematic_sequence/restaurant_scheme/restaurant_scheme_2.png","1","",""
"","","","","","image-button-response","115","995159","0.0-14.0-1.0-2.8","11611D7ADEE14F5D91DCFC3B7ADFDB7F","11611D7ADEE14F5D91DCFC3B7ADFDB7F","cd375c40-2a50-4ee9-a4c7-48f3cd69093a","a0a8f18c-a66e-4ba7-a170-23efbdc67501","{""participantId"":""11611D7ADEE14F5D91DCFC3B7ADFDB7F"",""assignmentId"":""cd375c40-2a50-4ee9-a4c7-48f3cd69093a"",""projectId"":""a0a8f18c-a66e-4ba7-a170-23efbdc67501""}","https://test12345.live/?participantId=11611D7ADEE14F5D91DCFC3B7ADFDB7F&assignmentId=cd375c40-2a50-4ee9-a4c7-48f3cd69093a&projectId=a0a8f18c-a66e-4ba7-a170-23efbdc67501","11611D7ADEE14F5D91DCFC3B7ADFDB7F-2024-11-24-18-56-45","","null","","[]","null","",""
"","","","","","image-button-response","116","999666","0.0-14.0-1.0-0.9","11611D7ADEE14F5D91DCFC3B7ADFDB7F","11611D7ADEE14F5D91DCFC3B7ADFDB7F","cd375c40-2a50-4ee9-a4c7-48f3cd69093a","a0a8f18c-a66e-4ba7-a170-23efbdc67501","{""participantId"":""11611D7ADEE14F5D91DCFC3B7ADFDB7F"",""assignmentId"":""cd375c40-2a50-4ee9-a4c7-48f3cd69093a"",""projectId"":""a0a8f18c-a66e-4ba7-a170-23efbdc67501""}","https://test12345.live/?participantId=11611D7ADEE14F5D91DCFC3B7ADFDB7F&assignmentId=cd375c40-2a50-4ee9-a4c7-48f3cd69093a&projectId=a0a8f18c-a66e-4ba7-a170-23efbdc67501","11611D7ADEE14F5D91DCFC3B7ADFDB7F-2024-11-24-18-56-45","","null","","images/schematic_sequence/restaurant_scheme/restaurant_scheme_5.png","null","",""
"","","","","","image-button-response","117","1000749","0.0-14.0-1.0-1.9","11611D7ADEE14F5D91DCFC3B7ADFDB7F","11611D7ADEE14F5D91DCFC3B7ADFDB7F","cd375c40-2a50-4ee9-a4c7-48f3cd69093a","a0a8f18c-a66e-4ba7-a170-23efbdc67501","{""participantId"":""11611D7ADEE14F5D91DCFC3B7ADFDB7F"",""assignmentId"":""cd375c40-2a50-4ee9-a4c7-48f3cd69093a"",""projectId"":""a0a8f18c-a66e-4ba7-a170-23efbdc67501""}","https://test12345.live/?participantId=11611D7ADEE14F5D91DCFC3B7ADFDB7F&assignmentId=cd375c40-2a50-4ee9-a4c7-48f3cd69093a&projectId=a0a8f18c-a66e-4ba7-a170-23efbdc67501","11611D7ADEE14F5D91DCFC3B7ADFDB7F-2024-11-24-18-56-45","","1081","","images/schematic_sequence/restaurant_scheme/restaurant_scheme_5.png","0","",""
"","","","","","image-button-response","118","1002556","0.0-14.0-1.0-2.9","11611D7ADEE14F5D91DCFC3B7ADFDB7F","11611D7ADEE14F5D91DCFC3B7ADFDB7F","cd375c40-2a50-4ee9-a4c7-48f3cd69093a","a0a8f18c-a66e-4ba7-a170-23efbdc67501","{""participantId"":""11611D7ADEE14F5D91DCFC3B7ADFDB7F"",""assignmentId"":""cd375c40-2a50-4ee9-a4c7-48f3cd69093a"",""projectId"":""a0a8f18c-a66e-4ba7-a170-23efbdc67501""}","https://test12345.live/?participantId=11611D7ADEE14F5D91DCFC3B7ADFDB7F&assignmentId=cd375c40-2a50-4ee9-a4c7-48f3cd69093a&projectId=a0a8f18c-a66e-4ba7-a170-23efbdc67501","11611D7ADEE14F5D91DCFC3B7ADFDB7F-2024-11-24-18-56-45","","null","","[]","null","",""
"","","","","","html-audio-response","119","1058361","0.0-15.0","11611D7ADEE14F5D91DCFC3B7ADFDB7F","11611D7ADEE14F5D91DCFC3B7ADFDB7F","cd375c40-2a50-4ee9-a4c7-48f3cd69093a","a0a8f18c-a66e-4ba7-a170-23efbdc67501","{""participantId"":""11611D7ADEE14F5D91DCFC3B7ADFDB7F"",""assignmentId"":""cd375c40-2a50-4ee9-a4c7-48f3cd69093a"",""projectId"":""a0a8f18c-a66e-4ba7-a170-23efbdc67501""}","https://test12345.live/?participantId=11611D7ADEE14F5D91DCFC3B7ADFDB7F&assignmentId=cd375c40-2a50-4ee9-a4c7-48f3cd69093a&projectId=a0a8f18c-a66e-4ba7-a170-23efbdc67501","11611D7ADEE14F5D91DCFC3B7ADFDB7F-2024-11-24-18-56-45","","54464","","[""<span style=\""color: red; font-size: 24px\""> NOW RECORDING</span><p>Please say out loud all the images you saw, as many as you can remember. The images can be said in any order.</p>""]","","24","restaurant_scheme"
"","","","","","image-button-response","120","1064412","0.0-16.0-0.0","11611D7ADEE14F5D91DCFC3B7ADFDB7F","11611D7ADEE14F5D91DCFC3B7ADFDB7F","cd375c40-2a50-4ee9-a4c7-48f3cd69093a","a0a8f18c-a66e-4ba7-a170-23efbdc67501","{""participantId"":""11611D7ADEE14F5D91DCFC3B7ADFDB7F"",""assignmentId"":""cd375c40-2a50-4ee9-a4c7-48f3cd69093a"",""projectId"":""a0a8f18c-a66e-4ba7-a170-23efbdc67501""}","https://test12345.live/?participantId=11611D7ADEE14F5D91DCFC3B7ADFDB7F&assignmentId=cd375c40-2a50-4ee9-a4c7-48f3cd69093a&projectId=a0a8f18c-a66e-4ba7-a170-23efbdc67501","11611D7ADEE14F5D91DCFC3B7ADFDB7F-2024-11-24-18-56-45","","null","","images/causal_sequence/saving_a_cat_causal/saving_a_cat_causal_0.png","null","",""
"","","","","","image-button-response","121","1068918","0.0-16.0-1.0-0.0","11611D7ADEE14F5D91DCFC3B7ADFDB7F","11611D7ADEE14F5D91DCFC3B7ADFDB7F","cd375c40-2a50-4ee9-a4c7-48f3cd69093a","a0a8f18c-a66e-4ba7-a170-23efbdc67501","{""participantId"":""11611D7ADEE14F5D91DCFC3B7ADFDB7F"",""assignmentId"":""cd375c40-2a50-4ee9-a4c7-48f3cd69093a"",""projectId"":""a0a8f18c-a66e-4ba7-a170-23efbdc67501""}","https://test12345.live/?participantId=11611D7ADEE14F5D91DCFC3B7ADFDB7F&assignmentId=cd375c40-2a50-4ee9-a4c7-48f3cd69093a&projectId=a0a8f18c-a66e-4ba7-a170-23efbdc67501","11611D7ADEE14F5D91DCFC3B7ADFDB7F-2024-11-24-18-56-45","","null","","images/causal_sequence/saving_a_cat_causal/saving_a_cat_causal_4.png","null","",""
"","","","","","image-button-response","122","1071453","0.0-16.0-1.0-1.0","11611D7ADEE14F5D91DCFC3B7ADFDB7F","11611D7ADEE14F5D91DCFC3B7ADFDB7F","cd375c40-2a50-4ee9-a4c7-48f3cd69093a","a0a8f18c-a66e-4ba7-a170-23efbdc67501","{""participantId"":""11611D7ADEE14F5D91DCFC3B7ADFDB7F"",""assignmentId"":""cd375c40-2a50-4ee9-a4c7-48f3cd69093a"",""projectId"":""a0a8f18c-a66e-4ba7-a170-23efbdc67501""}","https://test12345.live/?participantId=11611D7ADEE14F5D91DCFC3B7ADFDB7F&assignmentId=cd375c40-2a50-4ee9-a4c7-48f3cd69093a&projectId=a0a8f18c-a66e-4ba7-a170-23efbdc67501","11611D7ADEE14F5D91DCFC3B7ADFDB7F-2024-11-24-18-56-45","","2466","","images/causal_sequence/saving_a_cat_causal/saving_a_cat_causal_4.png","0","",""
"","","","","","image-button-response","123","1073340","0.0-16.0-1.0-2.0","11611D7ADEE14F5D91DCFC3B7ADFDB7F","11611D7ADEE14F5D91DCFC3B7ADFDB7F","cd375c40-2a50-4ee9-a4c7-48f3cd69093a","a0a8f18c-a66e-4ba7-a170-23efbdc67501","{""participantId"":""11611D7ADEE14F5D91DCFC3B7ADFDB7F"",""assignmentId"":""cd375c40-2a50-4ee9-a4c7-48f3cd69093a"",""projectId"":""a0a8f18c-a66e-4ba7-a170-23efbdc67501""}","https://test12345.live/?participantId=11611D7ADEE14F5D91DCFC3B7ADFDB7F&assignmentId=cd375c40-2a50-4ee9-a4c7-48f3cd69093a&projectId=a0a8f18c-a66e-4ba7-a170-23efbdc67501","11611D7ADEE14F5D91DCFC3B7ADFDB7F-2024-11-24-18-56-45","","null","","[]","null","",""
"","","","","","image-button-response","124","1077864","0.0-16.0-1.0-0.1","11611D7ADEE14F5D91DCFC3B7ADFDB7F","11611D7ADEE14F5D91DCFC3B7ADFDB7F","cd375c40-2a50-4ee9-a4c7-48f3cd69093a","a0a8f18c-a66e-4ba7-a170-23efbdc67501","{""participantId"":""11611D7ADEE14F5D91DCFC3B7ADFDB7F"",""assignmentId"":""cd375c40-2a50-4ee9-a4c7-48f3cd69093a"",""projectId"":""a0a8f18c-a66e-4ba7-a170-23efbdc67501""}","https://test12345.live/?participantId=11611D7ADEE14F5D91DCFC3B7ADFDB7F&assignmentId=cd375c40-2a50-4ee9-a4c7-48f3cd69093a&projectId=a0a8f18c-a66e-4ba7-a170-23efbdc67501","11611D7ADEE14F5D91DCFC3B7ADFDB7F-2024-11-24-18-56-45","","null","","images/causal_sequence/saving_a_cat_causal/saving_a_cat_causal_9.png","null","",""
"","","","","","image-button-response","125","1078971","0.0-16.0-1.0-1.1","11611D7ADEE14F5D91DCFC3B7ADFDB7F","11611D7ADEE14F5D91DCFC3B7ADFDB7F","cd375c40-2a50-4ee9-a4c7-48f3cd69093a","a0a8f18c-a66e-4ba7-a170-23efbdc67501","{""participantId"":""11611D7ADEE14F5D91DCFC3B7ADFDB7F"",""assignmentId"":""cd375c40-2a50-4ee9-a4c7-48f3cd69093a"",""projectId"":""a0a8f18c-a66e-4ba7-a170-23efbdc67501""}","https://test12345.live/?participantId=11611D7ADEE14F5D91DCFC3B7ADFDB7F&assignmentId=cd375c40-2a50-4ee9-a4c7-48f3cd69093a&projectId=a0a8f18c-a66e-4ba7-a170-23efbdc67501","11611D7ADEE14F5D91DCFC3B7ADFDB7F-2024-11-24-18-56-45","","1096","","images/causal_sequence/saving_a_cat_causal/saving_a_cat_causal_9.png","0","",""
"","","","","","image-button-response","126","1080775","0.0-16.0-1.0-2.1","11611D7ADEE14F5D91DCFC3B7ADFDB7F","11611D7ADEE14F5D91DCFC3B7ADFDB7F","cd375c40-2a50-4ee9-a4c7-48f3cd69093a","a0a8f18c-a66e-4ba7-a170-23efbdc67501","{""participantId"":""11611D7ADEE14F5D91DCFC3B7ADFDB7F"",""assignmentId"":""cd375c40-2a50-4ee9-a4c7-48f3cd69093a"",""projectId"":""a0a8f18c-a66e-4ba7-a170-23efbdc67501""}","https://test12345.live/?participantId=11611D7ADEE14F5D91DCFC3B7ADFDB7F&assignmentId=cd375c40-2a50-4ee9-a4c7-48f3cd69093a&projectId=a0a8f18c-a66e-4ba7-a170-23efbdc67501","11611D7ADEE14F5D91DCFC3B7ADFDB7F-2024-11-24-18-56-45","","null","","[]","null","",""
"","","","","","image-button-response","127","1085281","0.0-16.0-1.0-0.2","11611D7ADEE14F5D91DCFC3B7ADFDB7F","11611D7ADEE14F5D91DCFC3B7ADFDB7F","cd375c40-2a50-4ee9-a4c7-48f3cd69093a","a0a8f18c-a66e-4ba7-a170-23efbdc67501","{""participantId"":""11611D7ADEE14F5D91DCFC3B7ADFDB7F"",""assignmentId"":""cd375c40-2a50-4ee9-a4c7-48f3cd69093a"",""projectId"":""a0a8f18c-a66e-4ba7-a170-23efbdc67501""}","https://test12345.live/?participantId=11611D7ADEE14F5D91DCFC3B7ADFDB7F&assignmentId=cd375c40-2a50-4ee9-a4c7-48f3cd69093a&projectId=a0a8f18c-a66e-4ba7-a170-23efbdc67501","11611D7ADEE14F5D91DCFC3B7ADFDB7F-2024-11-24-18-56-45","","null","","images/causal_sequence/saving_a_cat_causal/saving_a_cat_causal_1.png","null","",""
"","","","","","image-button-response","128","1086984","0.0-16.0-1.0-1.2","11611D7ADEE14F5D91DCFC3B7ADFDB7F","11611D7ADEE14F5D91DCFC3B7ADFDB7F","cd375c40-2a50-4ee9-a4c7-48f3cd69093a","a0a8f18c-a66e-4ba7-a170-23efbdc67501","{""participantId"":""11611D7ADEE14F5D91DCFC3B7ADFDB7F"",""assignmentId"":""cd375c40-2a50-4ee9-a4c7-48f3cd69093a"",""projectId"":""a0a8f18c-a66e-4ba7-a170-23efbdc67501""}","https://test12345.live/?participantId=11611D7ADEE14F5D91DCFC3B7ADFDB7F&assignmentId=cd375c40-2a50-4ee9-a4c7-48f3cd69093a&projectId=a0a8f18c-a66e-4ba7-a170-23efbdc67501","11611D7ADEE14F5D91DCFC3B7ADFDB7F-2024-11-24-18-56-45","","1702","","images/causal_sequence/saving_a_cat_causal/saving_a_cat_causal_1.png","0","",""
"","","","","","image-button-response","129","1088791","0.0-16.0-1.0-2.2","11611D7ADEE14F5D91DCFC3B7ADFDB7F","11611D7ADEE14F5D91DCFC3B7ADFDB7F","cd375c40-2a50-4ee9-a4c7-48f3cd69093a","a0a8f18c-a66e-4ba7-a170-23efbdc67501","{""participantId"":""11611D7ADEE14F5D91DCFC3B7ADFDB7F"",""assignmentId"":""cd375c40-2a50-4ee9-a4c7-48f3cd69093a"",""projectId"":""a0a8f18c-a66e-4ba7-a170-23efbdc67501""}","https://test12345.live/?participantId=11611D7ADEE14F5D91DCFC3B7ADFDB7F&assignmentId=cd375c40-2a50-4ee9-a4c7-48f3cd69093a&projectId=a0a8f18c-a66e-4ba7-a170-23efbdc67501","11611D7ADEE14F5D91DCFC3B7ADFDB7F-2024-11-24-18-56-45","","null","","[]","null","",""
"","","","","","image-button-response","130","1093295","0.0-16.0-1.0-0.3","11611D7ADEE14F5D91DCFC3B7ADFDB7F","11611D7ADEE14F5D91DCFC3B7ADFDB7F","cd375c40-2a50-4ee9-a4c7-48f3cd69093a","a0a8f18c-a66e-4ba7-a170-23efbdc67501","{""participantId"":""11611D7ADEE14F5D91DCFC3B7ADFDB7F"",""assignmentId"":""cd375c40-2a50-4ee9-a4c7-48f3cd69093a"",""projectId"":""a0a8f18c-a66e-4ba7-a170-23efbdc67501""}","https://test12345.live/?participantId=11611D7ADEE14F5D91DCFC3B7ADFDB7F&assignmentId=cd375c40-2a50-4ee9-a4c7-48f3cd69093a&projectId=a0a8f18c-a66e-4ba7-a170-23efbdc67501","11611D7ADEE14F5D91DCFC3B7ADFDB7F-2024-11-24-18-56-45","","null","","images/causal_sequence/saving_a_cat_causal/saving_a_cat_causal_3.png","null","",""
"","","","","","image-button-response","131","1094841","0.0-16.0-1.0-1.3","11611D7ADEE14F5D91DCFC3B7ADFDB7F","11611D7ADEE14F5D91DCFC3B7ADFDB7F","cd375c40-2a50-4ee9-a4c7-48f3cd69093a","a0a8f18c-a66e-4ba7-a170-23efbdc67501","{""participantId"":""11611D7ADEE14F5D91DCFC3B7ADFDB7F"",""assignmentId"":""cd375c40-2a50-4ee9-a4c7-48f3cd69093a"",""projectId"":""a0a8f18c-a66e-4ba7-a170-23efbdc67501""}","https://test12345.live/?participantId=11611D7ADEE14F5D91DCFC3B7ADFDB7F&assignmentId=cd375c40-2a50-4ee9-a4c7-48f3cd69093a&projectId=a0a8f18c-a66e-4ba7-a170-23efbdc67501","11611D7ADEE14F5D91DCFC3B7ADFDB7F-2024-11-24-18-56-45","","1543","","images/causal_sequence/saving_a_cat_causal/saving_a_cat_causal_3.png","1","",""
"","","","","","image-button-response","132","1096646","0.0-16.0-1.0-2.3","11611D7ADEE14F5D91DCFC3B7ADFDB7F","11611D7ADEE14F5D91DCFC3B7ADFDB7F","cd375c40-2a50-4ee9-a4c7-48f3cd69093a","a0a8f18c-a66e-4ba7-a170-23efbdc67501","{""participantId"":""11611D7ADEE14F5D91DCFC3B7ADFDB7F"",""assignmentId"":""cd375c40-2a50-4ee9-a4c7-48f3cd69093a"",""projectId"":""a0a8f18c-a66e-4ba7-a170-23efbdc67501""}","https://test12345.live/?participantId=11611D7ADEE14F5D91DCFC3B7ADFDB7F&assignmentId=cd375c40-2a50-4ee9-a4c7-48f3cd69093a&projectId=a0a8f18c-a66e-4ba7-a170-23efbdc67501","11611D7ADEE14F5D91DCFC3B7ADFDB7F-2024-11-24-18-56-45","","null","","[]","null","",""
"","","","","","image-button-response","133","1101155","0.0-16.0-1.0-0.4","11611D7ADEE14F5D91DCFC3B7ADFDB7F","11611D7ADEE14F5D91DCFC3B7ADFDB7F","cd375c40-2a50-4ee9-a4c7-48f3cd69093a","a0a8f18c-a66e-4ba7-a170-23efbdc67501","{""participantId"":""11611D7ADEE14F5D91DCFC3B7ADFDB7F"",""assignmentId"":""cd375c40-2a50-4ee9-a4c7-48f3cd69093a"",""projectId"":""a0a8f18c-a66e-4ba7-a170-23efbdc67501""}","https://test12345.live/?participantId=11611D7ADEE14F5D91DCFC3B7ADFDB7F&assignmentId=cd375c40-2a50-4ee9-a4c7-48f3cd69093a&projectId=a0a8f18c-a66e-4ba7-a170-23efbdc67501","11611D7ADEE14F5D91DCFC3B7ADFDB7F-2024-11-24-18-56-45","","null","","images/causal_sequence/saving_a_cat_causal/saving_a_cat_causal_6.png","null","",""
"","","","","","image-button-response","134","1103058","0.0-16.0-1.0-1.4","11611D7ADEE14F5D91DCFC3B7ADFDB7F","11611D7ADEE14F5D91DCFC3B7ADFDB7F","cd375c40-2a50-4ee9-a4c7-48f3cd69093a","a0a8f18c-a66e-4ba7-a170-23efbdc67501","{""participantId"":""11611D7ADEE14F5D91DCFC3B7ADFDB7F"",""assignmentId"":""cd375c40-2a50-4ee9-a4c7-48f3cd69093a"",""projectId"":""a0a8f18c-a66e-4ba7-a170-23efbdc67501""}","https://test12345.live/?participantId=11611D7ADEE14F5D91DCFC3B7ADFDB7F&assignmentId=cd375c40-2a50-4ee9-a4c7-48f3cd69093a&projectId=a0a8f18c-a66e-4ba7-a170-23efbdc67501","11611D7ADEE14F5D91DCFC3B7ADFDB7F-2024-11-24-18-56-45","","1852","","images/causal_sequence/saving_a_cat_causal/saving_a_cat_causal_6.png","0","",""
"","","","","","image-button-response","135","1104864","0.0-16.0-1.0-2.4","11611D7ADEE14F5D91DCFC3B7ADFDB7F","11611D7ADEE14F5D91DCFC3B7ADFDB7F","cd375c40-2a50-4ee9-a4c7-48f3cd69093a","a0a8f18c-a66e-4ba7-a170-23efbdc67501","{""participantId"":""11611D7ADEE14F5D91DCFC3B7ADFDB7F"",""assignmentId"":""cd375c40-2a50-4ee9-a4c7-48f3cd69093a"",""projectId"":""a0a8f18c-a66e-4ba7-a170-23efbdc67501""}","https://test12345.live/?participantId=11611D7ADEE14F5D91DCFC3B7ADFDB7F&assignmentId=cd375c40-2a50-4ee9-a4c7-48f3cd69093a&projectId=a0a8f18c-a66e-4ba7-a170-23efbdc67501","11611D7ADEE14F5D91DCFC3B7ADFDB7F-2024-11-24-18-56-45","","null","","[]","null","",""
"","","","","","image-button-response","136","1109369","0.0-16.0-1.0-0.5","11611D7ADEE14F5D91DCFC3B7ADFDB7F","11611D7ADEE14F5D91DCFC3B7ADFDB7F","cd375c40-2a50-4ee9-a4c7-48f3cd69093a","a0a8f18c-a66e-4ba7-a170-23efbdc67501","{""participantId"":""11611D7ADEE14F5D91DCFC3B7ADFDB7F"",""assignmentId"":""cd375c40-2a50-4ee9-a4c7-48f3cd69093a"",""projectId"":""a0a8f18c-a66e-4ba7-a170-23efbdc67501""}","https://test12345.live/?participantId=11611D7ADEE14F5D91DCFC3B7ADFDB7F&assignmentId=cd375c40-2a50-4ee9-a4c7-48f3cd69093a&projectId=a0a8f18c-a66e-4ba7-a170-23efbdc67501","11611D7ADEE14F5D91DCFC3B7ADFDB7F-2024-11-24-18-56-45","","null","","images/causal_sequence/saving_a_cat_causal/saving_a_cat_causal_ten.png","null","",""
"","","","","","image-button-response","137","1111155","0.0-16.0-1.0-1.5","11611D7ADEE14F5D91DCFC3B7ADFDB7F","11611D7ADEE14F5D91DCFC3B7ADFDB7F","cd375c40-2a50-4ee9-a4c7-48f3cd69093a","a0a8f18c-a66e-4ba7-a170-23efbdc67501","{""participantId"":""11611D7ADEE14F5D91DCFC3B7ADFDB7F"",""assignmentId"":""cd375c40-2a50-4ee9-a4c7-48f3cd69093a"",""projectId"":""a0a8f18c-a66e-4ba7-a170-23efbdc67501""}","https://test12345.live/?participantId=11611D7ADEE14F5D91DCFC3B7ADFDB7F&assignmentId=cd375c40-2a50-4ee9-a4c7-48f3cd69093a&projectId=a0a8f18c-a66e-4ba7-a170-23efbdc67501","11611D7ADEE14F5D91DCFC3B7ADFDB7F-2024-11-24-18-56-45","","1784","","images/causal_sequence/saving_a_cat_causal/saving_a_cat_causal_ten.png","0","",""
"","","","","","image-button-response","138","1112961","0.0-16.0-1.0-2.5","11611D7ADEE14F5D91DCFC3B7ADFDB7F","11611D7ADEE14F5D91DCFC3B7ADFDB7F","cd375c40-2a50-4ee9-a4c7-48f3cd69093a","a0a8f18c-a66e-4ba7-a170-23efbdc67501","{""participantId"":""11611D7ADEE14F5D91DCFC3B7ADFDB7F"",""assignmentId"":""cd375c40-2a50-4ee9-a4c7-48f3cd69093a"",""projectId"":""a0a8f18c-a66e-4ba7-a170-23efbdc67501""}","https://test12345.live/?participantId=11611D7ADEE14F5D91DCFC3B7ADFDB7F&assignmentId=cd375c40-2a50-4ee9-a4c7-48f3cd69093a&projectId=a0a8f18c-a66e-4ba7-a170-23efbdc67501","11611D7ADEE14F5D91DCFC3B7ADFDB7F-2024-11-24-18-56-45","","null","","[]","null","",""
"","","","","","image-button-response","139","1117466","0.0-16.0-1.0-0.6","11611D7ADEE14F5D91DCFC3B7ADFDB7F","11611D7ADEE14F5D91DCFC3B7ADFDB7F","cd375c40-2a50-4ee9-a4c7-48f3cd69093a","a0a8f18c-a66e-4ba7-a170-23efbdc67501","{""participantId"":""11611D7ADEE14F5D91DCFC3B7ADFDB7F"",""assignmentId"":""cd375c40-2a50-4ee9-a4c7-48f3cd69093a"",""projectId"":""a0a8f18c-a66e-4ba7-a170-23efbdc67501""}","https://test12345.live/?participantId=11611D7ADEE14F5D91DCFC3B7ADFDB7F&assignmentId=cd375c40-2a50-4ee9-a4c7-48f3cd69093a&projectId=a0a8f18c-a66e-4ba7-a170-23efbdc67501","11611D7ADEE14F5D91DCFC3B7ADFDB7F-2024-11-24-18-56-45","","null","","images/causal_sequence/saving_a_cat_causal/saving_a_cat_causal_7.png","null","",""
"","","","","","image-button-response","140","1119778","0.0-16.0-1.0-1.6","11611D7ADEE14F5D91DCFC3B7ADFDB7F","11611D7ADEE14F5D91DCFC3B7ADFDB7F","cd375c40-2a50-4ee9-a4c7-48f3cd69093a","a0a8f18c-a66e-4ba7-a170-23efbdc67501","{""participantId"":""11611D7ADEE14F5D91DCFC3B7ADFDB7F"",""assignmentId"":""cd375c40-2a50-4ee9-a4c7-48f3cd69093a"",""projectId"":""a0a8f18c-a66e-4ba7-a170-23efbdc67501""}","https://test12345.live/?participantId=11611D7ADEE14F5D91DCFC3B7ADFDB7F&assignmentId=cd375c40-2a50-4ee9-a4c7-48f3cd69093a&projectId=a0a8f18c-a66e-4ba7-a170-23efbdc67501","11611D7ADEE14F5D91DCFC3B7ADFDB7F-2024-11-24-18-56-45","","2310","","images/causal_sequence/saving_a_cat_causal/saving_a_cat_causal_7.png","0","",""
"","","","","","image-button-response","141","1121584","0.0-16.0-1.0-2.6","11611D7ADEE14F5D91DCFC3B7ADFDB7F","11611D7ADEE14F5D91DCFC3B7ADFDB7F","cd375c40-2a50-4ee9-a4c7-48f3cd69093a","a0a8f18c-a66e-4ba7-a170-23efbdc67501","{""participantId"":""11611D7ADEE14F5D91DCFC3B7ADFDB7F"",""assignmentId"":""cd375c40-2a50-4ee9-a4c7-48f3cd69093a"",""projectId"":""a0a8f18c-a66e-4ba7-a170-23efbdc67501""}","https://test12345.live/?participantId=11611D7ADEE14F5D91DCFC3B7ADFDB7F&assignmentId=cd375c40-2a50-4ee9-a4c7-48f3cd69093a&projectId=a0a8f18c-a66e-4ba7-a170-23efbdc67501","11611D7ADEE14F5D91DCFC3B7ADFDB7F-2024-11-24-18-56-45","","null","","[]","null","",""
"","","","","","image-button-response","142","1126088","0.0-16.0-1.0-0.7","11611D7ADEE14F5D91DCFC3B7ADFDB7F","11611D7ADEE14F5D91DCFC3B7ADFDB7F","cd375c40-2a50-4ee9-a4c7-48f3cd69093a","a0a8f18c-a66e-4ba7-a170-23efbdc67501","{""participantId"":""11611D7ADEE14F5D91DCFC3B7ADFDB7F"",""assignmentId"":""cd375c40-2a50-4ee9-a4c7-48f3cd69093a"",""projectId"":""a0a8f18c-a66e-4ba7-a170-23efbdc67501""}","https://test12345.live/?participantId=11611D7ADEE14F5D91DCFC3B7ADFDB7F&assignmentId=cd375c40-2a50-4ee9-a4c7-48f3cd69093a&projectId=a0a8f18c-a66e-4ba7-a170-23efbdc67501","11611D7ADEE14F5D91DCFC3B7ADFDB7F-2024-11-24-18-56-45","","null","","images/causal_sequence/saving_a_cat_causal/saving_a_cat_causal_5.png","null","",""
"","","","","","image-button-response","143","1128366","0.0-16.0-1.0-1.7","11611D7ADEE14F5D91DCFC3B7ADFDB7F","11611D7ADEE14F5D91DCFC3B7ADFDB7F","cd375c40-2a50-4ee9-a4c7-48f3cd69093a","a0a8f18c-a66e-4ba7-a170-23efbdc67501","{""participantId"":""11611D7ADEE14F5D91DCFC3B7ADFDB7F"",""assignmentId"":""cd375c40-2a50-4ee9-a4c7-48f3cd69093a"",""projectId"":""a0a8f18c-a66e-4ba7-a170-23efbdc67501""}","https://test12345.live/?participantId=11611D7ADEE14F5D91DCFC3B7ADFDB7F&assignmentId=cd375c40-2a50-4ee9-a4c7-48f3cd69093a&projectId=a0a8f18c-a66e-4ba7-a170-23efbdc67501","11611D7ADEE14F5D91DCFC3B7ADFDB7F-2024-11-24-18-56-45","","2276","","images/causal_sequence/saving_a_cat_causal/saving_a_cat_causal_5.png","0","",""
