"success","timeout","failed_images","failed_audio","failed_video","trial_type","trial_index","time_elapsed","internal_node_id","subject","subject_id","study_id","session_id","urlvar","current_url","audio_id","view_history","rt","device_id","stimulus","response","estimated_stimulus_onset","seq_name"
"true","false","[]","[]","[]","preload","0","270","0.0-0.0","12701B4AD25343918D991BAA397622EE","12701B4AD25343918D991BAA397622EE","1e9212eb-f6ca-4f83-b081-06117e73edb5","a0a8f18c-a66e-4ba7-a170-23efbdc67501","{""participantId"":""12701B4AD25343918D991BAA397622EE"",""assignmentId"":""1e9212eb-f6ca-4f83-b081-06117e73edb5"",""projectId"":""a0a8f18c-a66e-4ba7-a170-23efbdc67501""}","https://test12345.live/?participantId=12701B4AD25343918D991BAA397622EE&assignmentId=1e9212eb-f6ca-4f83-b081-06117e73edb5&projectId=a0a8f18c-a66e-4ba7-a170-23efbdc67501","12701B4AD25343918D991BAA397622EE-2024-11-24-19-24-29","","","","","","",""
"","","","","","instructions","1","334867","0.0-1.0","12701B4AD25343918D991BAA397622EE","12701B4AD25343918D991BAA397622EE","1e9212eb-f6ca-4f83-b081-06117e73edb5","a0a8f18c-a66e-4ba7-a170-23efbdc67501","{""participantId"":""12701B4AD25343918D991BAA397622EE"",""assignmentId"":""1e9212eb-f6ca-4f83-b081-06117e73edb5"",""projectId"":""a0a8f18c-a66e-4ba7-a170-23efbdc67501""}","https://test12345.live/?participantId=12701B4AD25343918D991BAA397622EE&assignmentId=1e9212eb-f6ca-4f83-b081-06117e73edb5&projectId=a0a8f18c-a66e-4ba7-a170-23efbdc67501","12701B4AD25343918D991BAA397622EE-2024-11-24-19-24-29","[{""page_index"":0,""viewing_time"":334595}]","334596","","","","",""
"","","","","","instructions","2","360752","0.0-2.0","12701B4AD25343918D991BAA397622EE","12701B4AD25343918D991BAA397622EE","1e9212eb-f6ca-4f83-b081-06117e73edb5","a0a8f18c-a66e-4ba7-a170-23efbdc67501","{""participantId"":""12701B4AD25343918D991BAA397622EE"",""assignmentId"":""1e9212eb-f6ca-4f83-b081-06117e73edb5"",""projectId"":""a0a8f18c-a66e-4ba7-a170-23efbdc67501""}","https://test12345.live/?participantId=12701B4AD25343918D991BAA397622EE&assignmentId=1e9212eb-f6ca-4f83-b081-06117e73edb5&projectId=a0a8f18c-a66e-4ba7-a170-23efbdc67501","12701B4AD25343918D991BAA397622EE-2024-11-24-19-24-29","[{""page_index"":0,""viewing_time"":25884}]","25884","","","","",""
"true","","","","","fullscreen","3","369093","0.0-3.0","12701B4AD25343918D991BAA397622EE","12701B4AD25343918D991BAA397622EE","1e9212eb-f6ca-4f83-b081-06117e73edb5","a0a8f18c-a66e-4ba7-a170-23efbdc67501","{""participantId"":""12701B4AD25343918D991BAA397622EE"",""assignmentId"":""1e9212eb-f6ca-4f83-b081-06117e73edb5"",""projectId"":""a0a8f18c-a66e-4ba7-a170-23efbdc67501""}","https://test12345.live/?participantId=12701B4AD25343918D991BAA397622EE&assignmentId=1e9212eb-f6ca-4f83-b081-06117e73edb5&projectId=a0a8f18c-a66e-4ba7-a170-23efbdc67501","12701B4AD25343918D991BAA397622EE-2024-11-24-19-24-29","","7336","","","","",""
"","","","","","initialize-microphone","4","375235","0.0-4.0-0.0","12701B4AD25343918D991BAA397622EE","12701B4AD25343918D991BAA397622EE","1e9212eb-f6ca-4f83-b081-06117e73edb5","a0a8f18c-a66e-4ba7-a170-23efbdc67501","{""participantId"":""12701B4AD25343918D991BAA397622EE"",""assignmentId"":""1e9212eb-f6ca-4f83-b081-06117e73edb5"",""projectId"":""a0a8f18c-a66e-4ba7-a170-23efbdc67501""}","https://test12345.live/?participantId=12701B4AD25343918D991BAA397622EE&assignmentId=1e9212eb-f6ca-4f83-b081-06117e73edb5&projectId=a0a8f18c-a66e-4ba7-a170-23efbdc67501","12701B4AD25343918D991BAA397622EE-2024-11-24-19-24-29","","","9d7fb648a74abb42171b311dc73bb02240cccaa187980cf3d8961d327ee3e931","","","",""
"","","","","","html-audio-response","5","384627","0.0-4.0-1.0","12701B4AD25343918D991BAA397622EE","12701B4AD25343918D991BAA397622EE","1e9212eb-f6ca-4f83-b081-06117e73edb5","a0a8f18c-a66e-4ba7-a170-23efbdc67501","{""participantId"":""12701B4AD25343918D991BAA397622EE"",""assignmentId"":""1e9212eb-f6ca-4f83-b081-06117e73edb5"",""projectId"":""a0a8f18c-a66e-4ba7-a170-23efbdc67501""}","https://test12345.live/?participantId=12701B4AD25343918D991BAA397622EE&assignmentId=1e9212eb-f6ca-4f83-b081-06117e73edb5&projectId=a0a8f18c-a66e-4ba7-a170-23efbdc67501","12701B4AD25343918D991BAA397622EE-2024-11-24-19-24-29","","2267","","<span style=""color: red; font-size: 24px""> NOW RECORDING</span>
        <p>Please test Microphone</p>","","4",""
"","","","","","html-button-response","6","386381","0.0-4.0-2.0","12701B4AD25343918D991BAA397622EE","12701B4AD25343918D991BAA397622EE","1e9212eb-f6ca-4f83-b081-06117e73edb5","a0a8f18c-a66e-4ba7-a170-23efbdc67501","{""participantId"":""12701B4AD25343918D991BAA397622EE"",""assignmentId"":""1e9212eb-f6ca-4f83-b081-06117e73edb5"",""projectId"":""a0a8f18c-a66e-4ba7-a170-23efbdc67501""}","https://test12345.live/?participantId=12701B4AD25343918D991BAA397622EE&assignmentId=1e9212eb-f6ca-4f83-b081-06117e73edb5&projectId=a0a8f18c-a66e-4ba7-a170-23efbdc67501","12701B4AD25343918D991BAA397622EE-2024-11-24-19-24-29","","1751","","<p style=""font-size:48px; color:red;"">Is Microphone OK?</p>","1","",""
"","","","","","instructions","7","678902","0.0-5.0","12701B4AD25343918D991BAA397622EE","12701B4AD25343918D991BAA397622EE","1e9212eb-f6ca-4f83-b081-06117e73edb5","a0a8f18c-a66e-4ba7-a170-23efbdc67501","{""participantId"":""12701B4AD25343918D991BAA397622EE"",""assignmentId"":""1e9212eb-f6ca-4f83-b081-06117e73edb5"",""projectId"":""a0a8f18c-a66e-4ba7-a170-23efbdc67501""}","https://test12345.live/?participantId=12701B4AD25343918D991BAA397622EE&assignmentId=1e9212eb-f6ca-4f83-b081-06117e73edb5&projectId=a0a8f18c-a66e-4ba7-a170-23efbdc67501","12701B4AD25343918D991BAA397622EE-2024-11-24-19-24-29","[{""page_index"":0,""viewing_time"":4216},{""page_index"":1,""viewing_time"":288303}]","292519","","","","",""
"","","","","","image-button-response","8","684908","0.0-6.0-0.0","12701B4AD25343918D991BAA397622EE","12701B4AD25343918D991BAA397622EE","1e9212eb-f6ca-4f83-b081-06117e73edb5","a0a8f18c-a66e-4ba7-a170-23efbdc67501","{""participantId"":""12701B4AD25343918D991BAA397622EE"",""assignmentId"":""1e9212eb-f6ca-4f83-b081-06117e73edb5"",""projectId"":""a0a8f18c-a66e-4ba7-a170-23efbdc67501""}","https://test12345.live/?participantId=12701B4AD25343918D991BAA397622EE&assignmentId=1e9212eb-f6ca-4f83-b081-06117e73edb5&projectId=a0a8f18c-a66e-4ba7-a170-23efbdc67501","12701B4AD25343918D991BAA397622EE-2024-11-24-19-24-29","","null","","images/instructions/movie_0.png","null","",""
"","","","","","image-button-response","9","689411","0.0-6.0-1.0-0.0","12701B4AD25343918D991BAA397622EE","12701B4AD25343918D991BAA397622EE","1e9212eb-f6ca-4f83-b081-06117e73edb5","a0a8f18c-a66e-4ba7-a170-23efbdc67501","{""participantId"":""12701B4AD25343918D991BAA397622EE"",""assignmentId"":""1e9212eb-f6ca-4f83-b081-06117e73edb5"",""projectId"":""a0a8f18c-a66e-4ba7-a170-23efbdc67501""}","https://test12345.live/?participantId=12701B4AD25343918D991BAA397622EE&assignmentId=1e9212eb-f6ca-4f83-b081-06117e73edb5&projectId=a0a8f18c-a66e-4ba7-a170-23efbdc67501","12701B4AD25343918D991BAA397622EE-2024-11-24-19-24-29","","null","","images/instructions/movie_1.png","null","",""
"","","","","","image-button-response","10","693338","0.0-6.0-1.0-1.0","12701B4AD25343918D991BAA397622EE","12701B4AD25343918D991BAA397622EE","1e9212eb-f6ca-4f83-b081-06117e73edb5","a0a8f18c-a66e-4ba7-a170-23efbdc67501","{""participantId"":""12701B4AD25343918D991BAA397622EE"",""assignmentId"":""1e9212eb-f6ca-4f83-b081-06117e73edb5"",""projectId"":""a0a8f18c-a66e-4ba7-a170-23efbdc67501""}","https://test12345.live/?participantId=12701B4AD25343918D991BAA397622EE&assignmentId=1e9212eb-f6ca-4f83-b081-06117e73edb5&projectId=a0a8f18c-a66e-4ba7-a170-23efbdc67501","12701B4AD25343918D991BAA397622EE-2024-11-24-19-24-29","","3924","","images/instructions/movie_1.png","0","",""
"","","","","","image-button-response","11","695142","0.0-6.0-1.0-2.0","12701B4AD25343918D991BAA397622EE","12701B4AD25343918D991BAA397622EE","1e9212eb-f6ca-4f83-b081-06117e73edb5","a0a8f18c-a66e-4ba7-a170-23efbdc67501","{""participantId"":""12701B4AD25343918D991BAA397622EE"",""assignmentId"":""1e9212eb-f6ca-4f83-b081-06117e73edb5"",""projectId"":""a0a8f18c-a66e-4ba7-a170-23efbdc67501""}","https://test12345.live/?participantId=12701B4AD25343918D991BAA397622EE&assignmentId=1e9212eb-f6ca-4f83-b081-06117e73edb5&projectId=a0a8f18c-a66e-4ba7-a170-23efbdc67501","12701B4AD25343918D991BAA397622EE-2024-11-24-19-24-29","","null","","[]","null","",""
"","","","","","image-button-response","12","699644","0.0-6.0-1.0-0.1","12701B4AD25343918D991BAA397622EE","12701B4AD25343918D991BAA397622EE","1e9212eb-f6ca-4f83-b081-06117e73edb5","a0a8f18c-a66e-4ba7-a170-23efbdc67501","{""participantId"":""12701B4AD25343918D991BAA397622EE"",""assignmentId"":""1e9212eb-f6ca-4f83-b081-06117e73edb5"",""projectId"":""a0a8f18c-a66e-4ba7-a170-23efbdc67501""}","https://test12345.live/?participantId=12701B4AD25343918D991BAA397622EE&assignmentId=1e9212eb-f6ca-4f83-b081-06117e73edb5&projectId=a0a8f18c-a66e-4ba7-a170-23efbdc67501","12701B4AD25343918D991BAA397622EE-2024-11-24-19-24-29","","null","","images/instructions/movie_2.png","null","",""
"","","","","","image-button-response","13","701037","0.0-6.0-1.0-1.1","12701B4AD25343918D991BAA397622EE","12701B4AD25343918D991BAA397622EE","1e9212eb-f6ca-4f83-b081-06117e73edb5","a0a8f18c-a66e-4ba7-a170-23efbdc67501","{""participantId"":""12701B4AD25343918D991BAA397622EE"",""assignmentId"":""1e9212eb-f6ca-4f83-b081-06117e73edb5"",""projectId"":""a0a8f18c-a66e-4ba7-a170-23efbdc67501""}","https://test12345.live/?participantId=12701B4AD25343918D991BAA397622EE&assignmentId=1e9212eb-f6ca-4f83-b081-06117e73edb5&projectId=a0a8f18c-a66e-4ba7-a170-23efbdc67501","12701B4AD25343918D991BAA397622EE-2024-11-24-19-24-29","","1391","","images/instructions/movie_2.png","1","",""
"","","","","","image-button-response","14","702841","0.0-6.0-1.0-2.1","12701B4AD25343918D991BAA397622EE","12701B4AD25343918D991BAA397622EE","1e9212eb-f6ca-4f83-b081-06117e73edb5","a0a8f18c-a66e-4ba7-a170-23efbdc67501","{""participantId"":""12701B4AD25343918D991BAA397622EE"",""assignmentId"":""1e9212eb-f6ca-4f83-b081-06117e73edb5"",""projectId"":""a0a8f18c-a66e-4ba7-a170-23efbdc67501""}","https://test12345.live/?participantId=12701B4AD25343918D991BAA397622EE&assignmentId=1e9212eb-f6ca-4f83-b081-06117e73edb5&projectId=a0a8f18c-a66e-4ba7-a170-23efbdc67501","12701B4AD25343918D991BAA397622EE-2024-11-24-19-24-29","","null","","[]","null","",""
"","","","","","image-button-response","15","707343","0.0-6.0-1.0-0.2","12701B4AD25343918D991BAA397622EE","12701B4AD25343918D991BAA397622EE","1e9212eb-f6ca-4f83-b081-06117e73edb5","a0a8f18c-a66e-4ba7-a170-23efbdc67501","{""participantId"":""12701B4AD25343918D991BAA397622EE"",""assignmentId"":""1e9212eb-f6ca-4f83-b081-06117e73edb5"",""projectId"":""a0a8f18c-a66e-4ba7-a170-23efbdc67501""}","https://test12345.live/?participantId=12701B4AD25343918D991BAA397622EE&assignmentId=1e9212eb-f6ca-4f83-b081-06117e73edb5&projectId=a0a8f18c-a66e-4ba7-a170-23efbdc67501","12701B4AD25343918D991BAA397622EE-2024-11-24-19-24-29","","null","","images/instructions/movie_3.png","null","",""
"","","","","","image-button-response","16","709802","0.0-6.0-1.0-1.2","12701B4AD25343918D991BAA397622EE","12701B4AD25343918D991BAA397622EE","1e9212eb-f6ca-4f83-b081-06117e73edb5","a0a8f18c-a66e-4ba7-a170-23efbdc67501","{""participantId"":""12701B4AD25343918D991BAA397622EE"",""assignmentId"":""1e9212eb-f6ca-4f83-b081-06117e73edb5"",""projectId"":""a0a8f18c-a66e-4ba7-a170-23efbdc67501""}","https://test12345.live/?participantId=12701B4AD25343918D991BAA397622EE&assignmentId=1e9212eb-f6ca-4f83-b081-06117e73edb5&projectId=a0a8f18c-a66e-4ba7-a170-23efbdc67501","12701B4AD25343918D991BAA397622EE-2024-11-24-19-24-29","","2457","","images/instructions/movie_3.png","0","",""
"","","","","","image-button-response","17","711606","0.0-6.0-1.0-2.2","12701B4AD25343918D991BAA397622EE","12701B4AD25343918D991BAA397622EE","1e9212eb-f6ca-4f83-b081-06117e73edb5","a0a8f18c-a66e-4ba7-a170-23efbdc67501","{""participantId"":""12701B4AD25343918D991BAA397622EE"",""assignmentId"":""1e9212eb-f6ca-4f83-b081-06117e73edb5"",""projectId"":""a0a8f18c-a66e-4ba7-a170-23efbdc67501""}","https://test12345.live/?participantId=12701B4AD25343918D991BAA397622EE&assignmentId=1e9212eb-f6ca-4f83-b081-06117e73edb5&projectId=a0a8f18c-a66e-4ba7-a170-23efbdc67501","12701B4AD25343918D991BAA397622EE-2024-11-24-19-24-29","","null","","[]","null","",""
"","","","","","image-button-response","18","716110","0.0-6.0-1.0-0.3","12701B4AD25343918D991BAA397622EE","12701B4AD25343918D991BAA397622EE","1e9212eb-f6ca-4f83-b081-06117e73edb5","a0a8f18c-a66e-4ba7-a170-23efbdc67501","{""participantId"":""12701B4AD25343918D991BAA397622EE"",""assignmentId"":""1e9212eb-f6ca-4f83-b081-06117e73edb5"",""projectId"":""a0a8f18c-a66e-4ba7-a170-23efbdc67501""}","https://test12345.live/?participantId=12701B4AD25343918D991BAA397622EE&assignmentId=1e9212eb-f6ca-4f83-b081-06117e73edb5&projectId=a0a8f18c-a66e-4ba7-a170-23efbdc67501","12701B4AD25343918D991BAA397622EE-2024-11-24-19-24-29","","null","","images/instructions/movie_4.png","null","",""
"","","","","","image-button-response","19","718467","0.0-6.0-1.0-1.3","12701B4AD25343918D991BAA397622EE","12701B4AD25343918D991BAA397622EE","1e9212eb-f6ca-4f83-b081-06117e73edb5","a0a8f18c-a66e-4ba7-a170-23efbdc67501","{""participantId"":""12701B4AD25343918D991BAA397622EE"",""assignmentId"":""1e9212eb-f6ca-4f83-b081-06117e73edb5"",""projectId"":""a0a8f18c-a66e-4ba7-a170-23efbdc67501""}","https://test12345.live/?participantId=12701B4AD25343918D991BAA397622EE&assignmentId=1e9212eb-f6ca-4f83-b081-06117e73edb5&projectId=a0a8f18c-a66e-4ba7-a170-23efbdc67501","12701B4AD25343918D991BAA397622EE-2024-11-24-19-24-29","","2355","","images/instructions/movie_4.png","0","",""
"","","","","","image-button-response","20","720270","0.0-6.0-1.0-2.3","12701B4AD25343918D991BAA397622EE","12701B4AD25343918D991BAA397622EE","1e9212eb-f6ca-4f83-b081-06117e73edb5","a0a8f18c-a66e-4ba7-a170-23efbdc67501","{""participantId"":""12701B4AD25343918D991BAA397622EE"",""assignmentId"":""1e9212eb-f6ca-4f83-b081-06117e73edb5"",""projectId"":""a0a8f18c-a66e-4ba7-a170-23efbdc67501""}","https://test12345.live/?participantId=12701B4AD25343918D991BAA397622EE&assignmentId=1e9212eb-f6ca-4f83-b081-06117e73edb5&projectId=a0a8f18c-a66e-4ba7-a170-23efbdc67501","12701B4AD25343918D991BAA397622EE-2024-11-24-19-24-29","","null","","[]","null","",""
"","","","","","instructions","21","726354","0.0-7.0","12701B4AD25343918D991BAA397622EE","12701B4AD25343918D991BAA397622EE","1e9212eb-f6ca-4f83-b081-06117e73edb5","a0a8f18c-a66e-4ba7-a170-23efbdc67501","{""participantId"":""12701B4AD25343918D991BAA397622EE"",""assignmentId"":""1e9212eb-f6ca-4f83-b081-06117e73edb5"",""projectId"":""a0a8f18c-a66e-4ba7-a170-23efbdc67501""}","https://test12345.live/?participantId=12701B4AD25343918D991BAA397622EE&assignmentId=1e9212eb-f6ca-4f83-b081-06117e73edb5&projectId=a0a8f18c-a66e-4ba7-a170-23efbdc67501","12701B4AD25343918D991BAA397622EE-2024-11-24-19-24-29","[{""page_index"":0,""viewing_time"":4532},{""page_index"":1,""viewing_time"":1551}]","6084","","","","",""
"","","","","","html-audio-response","22","746611","0.0-8.0","12701B4AD25343918D991BAA397622EE","12701B4AD25343918D991BAA397622EE","1e9212eb-f6ca-4f83-b081-06117e73edb5","a0a8f18c-a66e-4ba7-a170-23efbdc67501","{""participantId"":""12701B4AD25343918D991BAA397622EE"",""assignmentId"":""1e9212eb-f6ca-4f83-b081-06117e73edb5"",""projectId"":""a0a8f18c-a66e-4ba7-a170-23efbdc67501""}","https://test12345.live/?participantId=12701B4AD25343918D991BAA397622EE&assignmentId=1e9212eb-f6ca-4f83-b081-06117e73edb5&projectId=a0a8f18c-a66e-4ba7-a170-23efbdc67501","12701B4AD25343918D991BAA397622EE-2024-11-24-19-24-29","","10004","","[""<span style=\""color: red; font-size: 24px\""> NOW RECORDING</span><p>Please say out loud all the images you saw, as many as you can remember. The images can be said in any order.</p>""]","","6",""
"","","","","","instructions","23","748608","0.0-9.0","12701B4AD25343918D991BAA397622EE","12701B4AD25343918D991BAA397622EE","1e9212eb-f6ca-4f83-b081-06117e73edb5","a0a8f18c-a66e-4ba7-a170-23efbdc67501","{""participantId"":""12701B4AD25343918D991BAA397622EE"",""assignmentId"":""1e9212eb-f6ca-4f83-b081-06117e73edb5"",""projectId"":""a0a8f18c-a66e-4ba7-a170-23efbdc67501""}","https://test12345.live/?participantId=12701B4AD25343918D991BAA397622EE&assignmentId=1e9212eb-f6ca-4f83-b081-06117e73edb5&projectId=a0a8f18c-a66e-4ba7-a170-23efbdc67501","12701B4AD25343918D991BAA397622EE-2024-11-24-19-24-29","[{""page_index"":0,""viewing_time"":1990}]","1991","","","","",""
"","","","","","image-button-response","24","754611","0.0-10.0-0.0","12701B4AD25343918D991BAA397622EE","12701B4AD25343918D991BAA397622EE","1e9212eb-f6ca-4f83-b081-06117e73edb5","a0a8f18c-a66e-4ba7-a170-23efbdc67501","{""participantId"":""12701B4AD25343918D991BAA397622EE"",""assignmentId"":""1e9212eb-f6ca-4f83-b081-06117e73edb5"",""projectId"":""a0a8f18c-a66e-4ba7-a170-23efbdc67501""}","https://test12345.live/?participantId=12701B4AD25343918D991BAA397622EE&assignmentId=1e9212eb-f6ca-4f83-b081-06117e73edb5&projectId=a0a8f18c-a66e-4ba7-a170-23efbdc67501","12701B4AD25343918D991BAA397622EE-2024-11-24-19-24-29","","null","","images/causal_sequence/museum_causal/museum_causal_0.png","null","",""
"","","","","","image-button-response","25","759115","0.0-10.0-1.0-0.0","12701B4AD25343918D991BAA397622EE","12701B4AD25343918D991BAA397622EE","1e9212eb-f6ca-4f83-b081-06117e73edb5","a0a8f18c-a66e-4ba7-a170-23efbdc67501","{""participantId"":""12701B4AD25343918D991BAA397622EE"",""assignmentId"":""1e9212eb-f6ca-4f83-b081-06117e73edb5"",""projectId"":""a0a8f18c-a66e-4ba7-a170-23efbdc67501""}","https://test12345.live/?participantId=12701B4AD25343918D991BAA397622EE&assignmentId=1e9212eb-f6ca-4f83-b081-06117e73edb5&projectId=a0a8f18c-a66e-4ba7-a170-23efbdc67501","12701B4AD25343918D991BAA397622EE-2024-11-24-19-24-29","","null","","images/causal_sequence/museum_causal/museum_causal_1.png","null","",""
"","","","","","image-button-response","26","761167","0.0-10.0-1.0-1.0","12701B4AD25343918D991BAA397622EE","12701B4AD25343918D991BAA397622EE","1e9212eb-f6ca-4f83-b081-06117e73edb5","a0a8f18c-a66e-4ba7-a170-23efbdc67501","{""participantId"":""12701B4AD25343918D991BAA397622EE"",""assignmentId"":""1e9212eb-f6ca-4f83-b081-06117e73edb5"",""projectId"":""a0a8f18c-a66e-4ba7-a170-23efbdc67501""}","https://test12345.live/?participantId=12701B4AD25343918D991BAA397622EE&assignmentId=1e9212eb-f6ca-4f83-b081-06117e73edb5&projectId=a0a8f18c-a66e-4ba7-a170-23efbdc67501","12701B4AD25343918D991BAA397622EE-2024-11-24-19-24-29","","2049","","images/causal_sequence/museum_causal/museum_causal_1.png","0","",""
"","","","","","image-button-response","27","762969","0.0-10.0-1.0-2.0","12701B4AD25343918D991BAA397622EE","12701B4AD25343918D991BAA397622EE","1e9212eb-f6ca-4f83-b081-06117e73edb5","a0a8f18c-a66e-4ba7-a170-23efbdc67501","{""participantId"":""12701B4AD25343918D991BAA397622EE"",""assignmentId"":""1e9212eb-f6ca-4f83-b081-06117e73edb5"",""projectId"":""a0a8f18c-a66e-4ba7-a170-23efbdc67501""}","https://test12345.live/?participantId=12701B4AD25343918D991BAA397622EE&assignmentId=1e9212eb-f6ca-4f83-b081-06117e73edb5&projectId=a0a8f18c-a66e-4ba7-a170-23efbdc67501","12701B4AD25343918D991BAA397622EE-2024-11-24-19-24-29","","null","","[]","null","",""
"","","","","","image-button-response","28","767472","0.0-10.0-1.0-0.1","12701B4AD25343918D991BAA397622EE","12701B4AD25343918D991BAA397622EE","1e9212eb-f6ca-4f83-b081-06117e73edb5","a0a8f18c-a66e-4ba7-a170-23efbdc67501","{""participantId"":""12701B4AD25343918D991BAA397622EE"",""assignmentId"":""1e9212eb-f6ca-4f83-b081-06117e73edb5"",""projectId"":""a0a8f18c-a66e-4ba7-a170-23efbdc67501""}","https://test12345.live/?participantId=12701B4AD25343918D991BAA397622EE&assignmentId=1e9212eb-f6ca-4f83-b081-06117e73edb5&projectId=a0a8f18c-a66e-4ba7-a170-23efbdc67501","12701B4AD25343918D991BAA397622EE-2024-11-24-19-24-29","","null","","images/causal_sequence/museum_causal/museum_causal_2.png","null","",""
"","","","","","image-button-response","29","769808","0.0-10.0-1.0-1.1","12701B4AD25343918D991BAA397622EE","12701B4AD25343918D991BAA397622EE","1e9212eb-f6ca-4f83-b081-06117e73edb5","a0a8f18c-a66e-4ba7-a170-23efbdc67501","{""participantId"":""12701B4AD25343918D991BAA397622EE"",""assignmentId"":""1e9212eb-f6ca-4f83-b081-06117e73edb5"",""projectId"":""a0a8f18c-a66e-4ba7-a170-23efbdc67501""}","https://test12345.live/?participantId=12701B4AD25343918D991BAA397622EE&assignmentId=1e9212eb-f6ca-4f83-b081-06117e73edb5&projectId=a0a8f18c-a66e-4ba7-a170-23efbdc67501","12701B4AD25343918D991BAA397622EE-2024-11-24-19-24-29","","2335","","images/causal_sequence/museum_causal/museum_causal_2.png","0","",""
"","","","","","image-button-response","30","771612","0.0-10.0-1.0-2.1","12701B4AD25343918D991BAA397622EE","12701B4AD25343918D991BAA397622EE","1e9212eb-f6ca-4f83-b081-06117e73edb5","a0a8f18c-a66e-4ba7-a170-23efbdc67501","{""participantId"":""12701B4AD25343918D991BAA397622EE"",""assignmentId"":""1e9212eb-f6ca-4f83-b081-06117e73edb5"",""projectId"":""a0a8f18c-a66e-4ba7-a170-23efbdc67501""}","https://test12345.live/?participantId=12701B4AD25343918D991BAA397622EE&assignmentId=1e9212eb-f6ca-4f83-b081-06117e73edb5&projectId=a0a8f18c-a66e-4ba7-a170-23efbdc67501","12701B4AD25343918D991BAA397622EE-2024-11-24-19-24-29","","null","","[]","null","",""
"","","","","","image-button-response","31","776115","0.0-10.0-1.0-0.2","12701B4AD25343918D991BAA397622EE","12701B4AD25343918D991BAA397622EE","1e9212eb-f6ca-4f83-b081-06117e73edb5","a0a8f18c-a66e-4ba7-a170-23efbdc67501","{""participantId"":""12701B4AD25343918D991BAA397622EE"",""assignmentId"":""1e9212eb-f6ca-4f83-b081-06117e73edb5"",""projectId"":""a0a8f18c-a66e-4ba7-a170-23efbdc67501""}","https://test12345.live/?participantId=12701B4AD25343918D991BAA397622EE&assignmentId=1e9212eb-f6ca-4f83-b081-06117e73edb5&projectId=a0a8f18c-a66e-4ba7-a170-23efbdc67501","12701B4AD25343918D991BAA397622EE-2024-11-24-19-24-29","","null","","images/causal_sequence/museum_causal/museum_causal_3.png","null","",""
"","","","","","image-button-response","32","779131","0.0-10.0-1.0-1.2","12701B4AD25343918D991BAA397622EE","12701B4AD25343918D991BAA397622EE","1e9212eb-f6ca-4f83-b081-06117e73edb5","a0a8f18c-a66e-4ba7-a170-23efbdc67501","{""participantId"":""12701B4AD25343918D991BAA397622EE"",""assignmentId"":""1e9212eb-f6ca-4f83-b081-06117e73edb5"",""projectId"":""a0a8f18c-a66e-4ba7-a170-23efbdc67501""}","https://test12345.live/?participantId=12701B4AD25343918D991BAA397622EE&assignmentId=1e9212eb-f6ca-4f83-b081-06117e73edb5&projectId=a0a8f18c-a66e-4ba7-a170-23efbdc67501","12701B4AD25343918D991BAA397622EE-2024-11-24-19-24-29","","3015","","images/causal_sequence/museum_causal/museum_causal_3.png","0","",""
"","","","","","image-button-response","33","780933","0.0-10.0-1.0-2.2","12701B4AD25343918D991BAA397622EE","12701B4AD25343918D991BAA397622EE","1e9212eb-f6ca-4f83-b081-06117e73edb5","a0a8f18c-a66e-4ba7-a170-23efbdc67501","{""participantId"":""12701B4AD25343918D991BAA397622EE"",""assignmentId"":""1e9212eb-f6ca-4f83-b081-06117e73edb5"",""projectId"":""a0a8f18c-a66e-4ba7-a170-23efbdc67501""}","https://test12345.live/?participantId=12701B4AD25343918D991BAA397622EE&assignmentId=1e9212eb-f6ca-4f83-b081-06117e73edb5&projectId=a0a8f18c-a66e-4ba7-a170-23efbdc67501","12701B4AD25343918D991BAA397622EE-2024-11-24-19-24-29","","null","","[]","null","",""
"","","","","","image-button-response","34","785435","0.0-10.0-1.0-0.3","12701B4AD25343918D991BAA397622EE","12701B4AD25343918D991BAA397622EE","1e9212eb-f6ca-4f83-b081-06117e73edb5","a0a8f18c-a66e-4ba7-a170-23efbdc67501","{""participantId"":""12701B4AD25343918D991BAA397622EE"",""assignmentId"":""1e9212eb-f6ca-4f83-b081-06117e73edb5"",""projectId"":""a0a8f18c-a66e-4ba7-a170-23efbdc67501""}","https://test12345.live/?participantId=12701B4AD25343918D991BAA397622EE&assignmentId=1e9212eb-f6ca-4f83-b081-06117e73edb5&projectId=a0a8f18c-a66e-4ba7-a170-23efbdc67501","12701B4AD25343918D991BAA397622EE-2024-11-24-19-24-29","","null","","images/causal_sequence/museum_causal/museum_causal_4.png","null","",""
"","","","","","image-button-response","35","787428","0.0-10.0-1.0-1.3","12701B4AD25343918D991BAA397622EE","12701B4AD25343918D991BAA397622EE","1e9212eb-f6ca-4f83-b081-06117e73edb5","a0a8f18c-a66e-4ba7-a170-23efbdc67501","{""participantId"":""12701B4AD25343918D991BAA397622EE"",""assignmentId"":""1e9212eb-f6ca-4f83-b081-06117e73edb5"",""projectId"":""a0a8f18c-a66e-4ba7-a170-23efbdc67501""}","https://test12345.live/?participantId=12701B4AD25343918D991BAA397622EE&assignmentId=1e9212eb-f6ca-4f83-b081-06117e73edb5&projectId=a0a8f18c-a66e-4ba7-a170-23efbdc67501","12701B4AD25343918D991BAA397622EE-2024-11-24-19-24-29","","1991","","images/causal_sequence/museum_causal/museum_causal_4.png","1","",""
"","","","","","image-button-response","36","789231","0.0-10.0-1.0-2.3","12701B4AD25343918D991BAA397622EE","12701B4AD25343918D991BAA397622EE","1e9212eb-f6ca-4f83-b081-06117e73edb5","a0a8f18c-a66e-4ba7-a170-23efbdc67501","{""participantId"":""12701B4AD25343918D991BAA397622EE"",""assignmentId"":""1e9212eb-f6ca-4f83-b081-06117e73edb5"",""projectId"":""a0a8f18c-a66e-4ba7-a170-23efbdc67501""}","https://test12345.live/?participantId=12701B4AD25343918D991BAA397622EE&assignmentId=1e9212eb-f6ca-4f83-b081-06117e73edb5&projectId=a0a8f18c-a66e-4ba7-a170-23efbdc67501","12701B4AD25343918D991BAA397622EE-2024-11-24-19-24-29","","null","","[]","null","",""
"","","","","","image-button-response","37","793734","0.0-10.0-1.0-0.4","12701B4AD25343918D991BAA397622EE","12701B4AD25343918D991BAA397622EE","1e9212eb-f6ca-4f83-b081-06117e73edb5","a0a8f18c-a66e-4ba7-a170-23efbdc67501","{""participantId"":""12701B4AD25343918D991BAA397622EE"",""assignmentId"":""1e9212eb-f6ca-4f83-b081-06117e73edb5"",""projectId"":""a0a8f18c-a66e-4ba7-a170-23efbdc67501""}","https://test12345.live/?participantId=12701B4AD25343918D991BAA397622EE&assignmentId=1e9212eb-f6ca-4f83-b081-06117e73edb5&projectId=a0a8f18c-a66e-4ba7-a170-23efbdc67501","12701B4AD25343918D991BAA397622EE-2024-11-24-19-24-29","","null","","images/causal_sequence/museum_causal/museum_causal_5.png","null","",""
"","","","","","image-button-response","38","795246","0.0-10.0-1.0-1.4","12701B4AD25343918D991BAA397622EE","12701B4AD25343918D991BAA397622EE","1e9212eb-f6ca-4f83-b081-06117e73edb5","a0a8f18c-a66e-4ba7-a170-23efbdc67501","{""participantId"":""12701B4AD25343918D991BAA397622EE"",""assignmentId"":""1e9212eb-f6ca-4f83-b081-06117e73edb5"",""projectId"":""a0a8f18c-a66e-4ba7-a170-23efbdc67501""}","https://test12345.live/?participantId=12701B4AD25343918D991BAA397622EE&assignmentId=1e9212eb-f6ca-4f83-b081-06117e73edb5&projectId=a0a8f18c-a66e-4ba7-a170-23efbdc67501","12701B4AD25343918D991BAA397622EE-2024-11-24-19-24-29","","1511","","images/causal_sequence/museum_causal/museum_causal_5.png","0","",""
"","","","","","image-button-response","39","797047","0.0-10.0-1.0-2.4","12701B4AD25343918D991BAA397622EE","12701B4AD25343918D991BAA397622EE","1e9212eb-f6ca-4f83-b081-06117e73edb5","a0a8f18c-a66e-4ba7-a170-23efbdc67501","{""participantId"":""12701B4AD25343918D991BAA397622EE"",""assignmentId"":""1e9212eb-f6ca-4f83-b081-06117e73edb5"",""projectId"":""a0a8f18c-a66e-4ba7-a170-23efbdc67501""}","https://test12345.live/?participantId=12701B4AD25343918D991BAA397622EE&assignmentId=1e9212eb-f6ca-4f83-b081-06117e73edb5&projectId=a0a8f18c-a66e-4ba7-a170-23efbdc67501","12701B4AD25343918D991BAA397622EE-2024-11-24-19-24-29","","null","","[]","null","",""
"","","","","","image-button-response","40","801552","0.0-10.0-1.0-0.5","12701B4AD25343918D991BAA397622EE","12701B4AD25343918D991BAA397622EE","1e9212eb-f6ca-4f83-b081-06117e73edb5","a0a8f18c-a66e-4ba7-a170-23efbdc67501","{""participantId"":""12701B4AD25343918D991BAA397622EE"",""assignmentId"":""1e9212eb-f6ca-4f83-b081-06117e73edb5"",""projectId"":""a0a8f18c-a66e-4ba7-a170-23efbdc67501""}","https://test12345.live/?participantId=12701B4AD25343918D991BAA397622EE&assignmentId=1e9212eb-f6ca-4f83-b081-06117e73edb5&projectId=a0a8f18c-a66e-4ba7-a170-23efbdc67501","12701B4AD25343918D991BAA397622EE-2024-11-24-19-24-29","","null","","images/causal_sequence/museum_causal/museum_causal_6.png","null","",""
"","","","","","image-button-response","41","803603","0.0-10.0-1.0-1.5","12701B4AD25343918D991BAA397622EE","12701B4AD25343918D991BAA397622EE","1e9212eb-f6ca-4f83-b081-06117e73edb5","a0a8f18c-a66e-4ba7-a170-23efbdc67501","{""participantId"":""12701B4AD25343918D991BAA397622EE"",""assignmentId"":""1e9212eb-f6ca-4f83-b081-06117e73edb5"",""projectId"":""a0a8f18c-a66e-4ba7-a170-23efbdc67501""}","https://test12345.live/?participantId=12701B4AD25343918D991BAA397622EE&assignmentId=1e9212eb-f6ca-4f83-b081-06117e73edb5&projectId=a0a8f18c-a66e-4ba7-a170-23efbdc67501","12701B4AD25343918D991BAA397622EE-2024-11-24-19-24-29","","2050","","images/causal_sequence/museum_causal/museum_causal_6.png","0","",""
"","","","","","image-button-response","42","805404","0.0-10.0-1.0-2.5","12701B4AD25343918D991BAA397622EE","12701B4AD25343918D991BAA397622EE","1e9212eb-f6ca-4f83-b081-06117e73edb5","a0a8f18c-a66e-4ba7-a170-23efbdc67501","{""participantId"":""12701B4AD25343918D991BAA397622EE"",""assignmentId"":""1e9212eb-f6ca-4f83-b081-06117e73edb5"",""projectId"":""a0a8f18c-a66e-4ba7-a170-23efbdc67501""}","https://test12345.live/?participantId=12701B4AD25343918D991BAA397622EE&assignmentId=1e9212eb-f6ca-4f83-b081-06117e73edb5&projectId=a0a8f18c-a66e-4ba7-a170-23efbdc67501","12701B4AD25343918D991BAA397622EE-2024-11-24-19-24-29","","null","","[]","null","",""
"","","","","","image-button-response","43","809906","0.0-10.0-1.0-0.6","12701B4AD25343918D991BAA397622EE","12701B4AD25343918D991BAA397622EE","1e9212eb-f6ca-4f83-b081-06117e73edb5","a0a8f18c-a66e-4ba7-a170-23efbdc67501","{""participantId"":""12701B4AD25343918D991BAA397622EE"",""assignmentId"":""1e9212eb-f6ca-4f83-b081-06117e73edb5"",""projectId"":""a0a8f18c-a66e-4ba7-a170-23efbdc67501""}","https://test12345.live/?participantId=12701B4AD25343918D991BAA397622EE&assignmentId=1e9212eb-f6ca-4f83-b081-06117e73edb5&projectId=a0a8f18c-a66e-4ba7-a170-23efbdc67501","12701B4AD25343918D991BAA397622EE-2024-11-24-19-24-29","","null","","images/causal_sequence/museum_causal/museum_causal_7.png","null","",""
"","","","","","image-button-response","44","812002","0.0-10.0-1.0-1.6","12701B4AD25343918D991BAA397622EE","12701B4AD25343918D991BAA397622EE","1e9212eb-f6ca-4f83-b081-06117e73edb5","a0a8f18c-a66e-4ba7-a170-23efbdc67501","{""participantId"":""12701B4AD25343918D991BAA397622EE"",""assignmentId"":""1e9212eb-f6ca-4f83-b081-06117e73edb5"",""projectId"":""a0a8f18c-a66e-4ba7-a170-23efbdc67501""}","https://test12345.live/?participantId=12701B4AD25343918D991BAA397622EE&assignmentId=1e9212eb-f6ca-4f83-b081-06117e73edb5&projectId=a0a8f18c-a66e-4ba7-a170-23efbdc67501","12701B4AD25343918D991BAA397622EE-2024-11-24-19-24-29","","2095","","images/causal_sequence/museum_causal/museum_causal_7.png","1","",""
"","","","","","image-button-response","45","813804","0.0-10.0-1.0-2.6","12701B4AD25343918D991BAA397622EE","12701B4AD25343918D991BAA397622EE","1e9212eb-f6ca-4f83-b081-06117e73edb5","a0a8f18c-a66e-4ba7-a170-23efbdc67501","{""participantId"":""12701B4AD25343918D991BAA397622EE"",""assignmentId"":""1e9212eb-f6ca-4f83-b081-06117e73edb5"",""projectId"":""a0a8f18c-a66e-4ba7-a170-23efbdc67501""}","https://test12345.live/?participantId=12701B4AD25343918D991BAA397622EE&assignmentId=1e9212eb-f6ca-4f83-b081-06117e73edb5&projectId=a0a8f18c-a66e-4ba7-a170-23efbdc67501","12701B4AD25343918D991BAA397622EE-2024-11-24-19-24-29","","null","","[]","null","",""
"","","","","","image-button-response","46","818307","0.0-10.0-1.0-0.7","12701B4AD25343918D991BAA397622EE","12701B4AD25343918D991BAA397622EE","1e9212eb-f6ca-4f83-b081-06117e73edb5","a0a8f18c-a66e-4ba7-a170-23efbdc67501","{""participantId"":""12701B4AD25343918D991BAA397622EE"",""assignmentId"":""1e9212eb-f6ca-4f83-b081-06117e73edb5"",""projectId"":""a0a8f18c-a66e-4ba7-a170-23efbdc67501""}","https://test12345.live/?participantId=12701B4AD25343918D991BAA397622EE&assignmentId=1e9212eb-f6ca-4f83-b081-06117e73edb5&projectId=a0a8f18c-a66e-4ba7-a170-23efbdc67501","12701B4AD25343918D991BAA397622EE-2024-11-24-19-24-29","","null","","images/causal_sequence/museum_causal/museum_causal_8.png","null","",""
"","","","","","image-button-response","47","822242","0.0-10.0-1.0-1.7","12701B4AD25343918D991BAA397622EE","12701B4AD25343918D991BAA397622EE","1e9212eb-f6ca-4f83-b081-06117e73edb5","a0a8f18c-a66e-4ba7-a170-23efbdc67501","{""participantId"":""12701B4AD25343918D991BAA397622EE"",""assignmentId"":""1e9212eb-f6ca-4f83-b081-06117e73edb5"",""projectId"":""a0a8f18c-a66e-4ba7-a170-23efbdc67501""}","https://test12345.live/?participantId=12701B4AD25343918D991BAA397622EE&assignmentId=1e9212eb-f6ca-4f83-b081-06117e73edb5&projectId=a0a8f18c-a66e-4ba7-a170-23efbdc67501","12701B4AD25343918D991BAA397622EE-2024-11-24-19-24-29","","3933","","images/causal_sequence/museum_causal/museum_causal_8.png","0","",""
"","","","","","image-button-response","48","824045","0.0-10.0-1.0-2.7","12701B4AD25343918D991BAA397622EE","12701B4AD25343918D991BAA397622EE","1e9212eb-f6ca-4f83-b081-06117e73edb5","a0a8f18c-a66e-4ba7-a170-23efbdc67501","{""participantId"":""12701B4AD25343918D991BAA397622EE"",""assignmentId"":""1e9212eb-f6ca-4f83-b081-06117e73edb5"",""projectId"":""a0a8f18c-a66e-4ba7-a170-23efbdc67501""}","https://test12345.live/?participantId=12701B4AD25343918D991BAA397622EE&assignmentId=1e9212eb-f6ca-4f83-b081-06117e73edb5&projectId=a0a8f18c-a66e-4ba7-a170-23efbdc67501","12701B4AD25343918D991BAA397622EE-2024-11-24-19-24-29","","null","","[]","null","",""
"","","","","","image-button-response","49","828549","0.0-10.0-1.0-0.8","12701B4AD25343918D991BAA397622EE","12701B4AD25343918D991BAA397622EE","1e9212eb-f6ca-4f83-b081-06117e73edb5","a0a8f18c-a66e-4ba7-a170-23efbdc67501","{""participantId"":""12701B4AD25343918D991BAA397622EE"",""assignmentId"":""1e9212eb-f6ca-4f83-b081-06117e73edb5"",""projectId"":""a0a8f18c-a66e-4ba7-a170-23efbdc67501""}","https://test12345.live/?participantId=12701B4AD25343918D991BAA397622EE&assignmentId=1e9212eb-f6ca-4f83-b081-06117e73edb5&projectId=a0a8f18c-a66e-4ba7-a170-23efbdc67501","12701B4AD25343918D991BAA397622EE-2024-11-24-19-24-29","","null","","images/causal_sequence/museum_causal/museum_causal_9.png","null","",""
"","","","","","image-button-response","50","830293","0.0-10.0-1.0-1.8","12701B4AD25343918D991BAA397622EE","12701B4AD25343918D991BAA397622EE","1e9212eb-f6ca-4f83-b081-06117e73edb5","a0a8f18c-a66e-4ba7-a170-23efbdc67501","{""participantId"":""12701B4AD25343918D991BAA397622EE"",""assignmentId"":""1e9212eb-f6ca-4f83-b081-06117e73edb5"",""projectId"":""a0a8f18c-a66e-4ba7-a170-23efbdc67501""}","https://test12345.live/?participantId=12701B4AD25343918D991BAA397622EE&assignmentId=1e9212eb-f6ca-4f83-b081-06117e73edb5&projectId=a0a8f18c-a66e-4ba7-a170-23efbdc67501","12701B4AD25343918D991BAA397622EE-2024-11-24-19-24-29","","1743","","images/causal_sequence/museum_causal/museum_causal_9.png","1","",""
"","","","","","image-button-response","51","832095","0.0-10.0-1.0-2.8","12701B4AD25343918D991BAA397622EE","12701B4AD25343918D991BAA397622EE","1e9212eb-f6ca-4f83-b081-06117e73edb5","a0a8f18c-a66e-4ba7-a170-23efbdc67501","{""participantId"":""12701B4AD25343918D991BAA397622EE"",""assignmentId"":""1e9212eb-f6ca-4f83-b081-06117e73edb5"",""projectId"":""a0a8f18c-a66e-4ba7-a170-23efbdc67501""}","https://test12345.live/?participantId=12701B4AD25343918D991BAA397622EE&assignmentId=1e9212eb-f6ca-4f83-b081-06117e73edb5&projectId=a0a8f18c-a66e-4ba7-a170-23efbdc67501","12701B4AD25343918D991BAA397622EE-2024-11-24-19-24-29","","null","","[]","null","",""
"","","","","","image-button-response","52","836598","0.0-10.0-1.0-0.9","12701B4AD25343918D991BAA397622EE","12701B4AD25343918D991BAA397622EE","1e9212eb-f6ca-4f83-b081-06117e73edb5","a0a8f18c-a66e-4ba7-a170-23efbdc67501","{""participantId"":""12701B4AD25343918D991BAA397622EE"",""assignmentId"":""1e9212eb-f6ca-4f83-b081-06117e73edb5"",""projectId"":""a0a8f18c-a66e-4ba7-a170-23efbdc67501""}","https://test12345.live/?participantId=12701B4AD25343918D991BAA397622EE&assignmentId=1e9212eb-f6ca-4f83-b081-06117e73edb5&projectId=a0a8f18c-a66e-4ba7-a170-23efbdc67501","12701B4AD25343918D991BAA397622EE-2024-11-24-19-24-29","","null","","images/causal_sequence/museum_causal/museum_causal_ten.png","null","",""
"","","","","","image-button-response","53","838074","0.0-10.0-1.0-1.9","12701B4AD25343918D991BAA397622EE","12701B4AD25343918D991BAA397622EE","1e9212eb-f6ca-4f83-b081-06117e73edb5","a0a8f18c-a66e-4ba7-a170-23efbdc67501","{""participantId"":""12701B4AD25343918D991BAA397622EE"",""assignmentId"":""1e9212eb-f6ca-4f83-b081-06117e73edb5"",""projectId"":""a0a8f18c-a66e-4ba7-a170-23efbdc67501""}","https://test12345.live/?participantId=12701B4AD25343918D991BAA397622EE&assignmentId=1e9212eb-f6ca-4f83-b081-06117e73edb5&projectId=a0a8f18c-a66e-4ba7-a170-23efbdc67501","12701B4AD25343918D991BAA397622EE-2024-11-24-19-24-29","","1474","","images/causal_sequence/museum_causal/museum_causal_ten.png","0","",""
"","","","","","image-button-response","54","839877","0.0-10.0-1.0-2.9","12701B4AD25343918D991BAA397622EE","12701B4AD25343918D991BAA397622EE","1e9212eb-f6ca-4f83-b081-06117e73edb5","a0a8f18c-a66e-4ba7-a170-23efbdc67501","{""participantId"":""12701B4AD25343918D991BAA397622EE"",""assignmentId"":""1e9212eb-f6ca-4f83-b081-06117e73edb5"",""projectId"":""a0a8f18c-a66e-4ba7-a170-23efbdc67501""}","https://test12345.live/?participantId=12701B4AD25343918D991BAA397622EE&assignmentId=1e9212eb-f6ca-4f83-b081-06117e73edb5&projectId=a0a8f18c-a66e-4ba7-a170-23efbdc67501","12701B4AD25343918D991BAA397622EE-2024-11-24-19-24-29","","null","","[]","null","",""
"","","","","","html-audio-response","55","885621","0.0-11.0","12701B4AD25343918D991BAA397622EE","12701B4AD25343918D991BAA397622EE","1e9212eb-f6ca-4f83-b081-06117e73edb5","a0a8f18c-a66e-4ba7-a170-23efbdc67501","{""participantId"":""12701B4AD25343918D991BAA397622EE"",""assignmentId"":""1e9212eb-f6ca-4f83-b081-06117e73edb5"",""projectId"":""a0a8f18c-a66e-4ba7-a170-23efbdc67501""}","https://test12345.live/?participantId=12701B4AD25343918D991BAA397622EE&assignmentId=1e9212eb-f6ca-4f83-b081-06117e73edb5&projectId=a0a8f18c-a66e-4ba7-a170-23efbdc67501","12701B4AD25343918D991BAA397622EE-2024-11-24-19-24-29","","24874","","[""<span style=\""color: red; font-size: 24px\""> NOW RECORDING</span><p>Please say out loud all the images you saw, as many as you can remember. The images can be said in any order.</p>""]","","8","museum_causal"
"","","","","","image-button-response","56","891631","0.0-12.0-0.0","12701B4AD25343918D991BAA397622EE","12701B4AD25343918D991BAA397622EE","1e9212eb-f6ca-4f83-b081-06117e73edb5","a0a8f18c-a66e-4ba7-a170-23efbdc67501","{""participantId"":""12701B4AD25343918D991BAA397622EE"",""assignmentId"":""1e9212eb-f6ca-4f83-b081-06117e73edb5"",""projectId"":""a0a8f18c-a66e-4ba7-a170-23efbdc67501""}","https://test12345.live/?participantId=12701B4AD25343918D991BAA397622EE&assignmentId=1e9212eb-f6ca-4f83-b081-06117e73edb5&projectId=a0a8f18c-a66e-4ba7-a170-23efbdc67501","12701B4AD25343918D991BAA397622EE-2024-11-24-19-24-29","","null","","images/causal_sequence/saving_a_cat_causal/saving_a_cat_causal_0.png","null","",""
"","","","","","image-button-response","57","896134","0.0-12.0-1.0-0.0","12701B4AD25343918D991BAA397622EE","12701B4AD25343918D991BAA397622EE","1e9212eb-f6ca-4f83-b081-06117e73edb5","a0a8f18c-a66e-4ba7-a170-23efbdc67501","{""participantId"":""12701B4AD25343918D991BAA397622EE"",""assignmentId"":""1e9212eb-f6ca-4f83-b081-06117e73edb5"",""projectId"":""a0a8f18c-a66e-4ba7-a170-23efbdc67501""}","https://test12345.live/?participantId=12701B4AD25343918D991BAA397622EE&assignmentId=1e9212eb-f6ca-4f83-b081-06117e73edb5&projectId=a0a8f18c-a66e-4ba7-a170-23efbdc67501","12701B4AD25343918D991BAA397622EE-2024-11-24-19-24-29","","null","","images/causal_sequence/saving_a_cat_causal/saving_a_cat_causal_9.png","null","",""
"","","","","","image-button-response","58","898482","0.0-12.0-1.0-1.0","12701B4AD25343918D991BAA397622EE","12701B4AD25343918D991BAA397622EE","1e9212eb-f6ca-4f83-b081-06117e73edb5","a0a8f18c-a66e-4ba7-a170-23efbdc67501","{""participantId"":""12701B4AD25343918D991BAA397622EE"",""assignmentId"":""1e9212eb-f6ca-4f83-b081-06117e73edb5"",""projectId"":""a0a8f18c-a66e-4ba7-a170-23efbdc67501""}","https://test12345.live/?participantId=12701B4AD25343918D991BAA397622EE&assignmentId=1e9212eb-f6ca-4f83-b081-06117e73edb5&projectId=a0a8f18c-a66e-4ba7-a170-23efbdc67501","12701B4AD25343918D991BAA397622EE-2024-11-24-19-24-29","","2345","","images/causal_sequence/saving_a_cat_causal/saving_a_cat_causal_9.png","0","",""
"","","","","","image-button-response","59","900284","0.0-12.0-1.0-2.0","12701B4AD25343918D991BAA397622EE","12701B4AD25343918D991BAA397622EE","1e9212eb-f6ca-4f83-b081-06117e73edb5","a0a8f18c-a66e-4ba7-a170-23efbdc67501","{""participantId"":""12701B4AD25343918D991BAA397622EE"",""assignmentId"":""1e9212eb-f6ca-4f83-b081-06117e73edb5"",""projectId"":""a0a8f18c-a66e-4ba7-a170-23efbdc67501""}","https://test12345.live/?participantId=12701B4AD25343918D991BAA397622EE&assignmentId=1e9212eb-f6ca-4f83-b081-06117e73edb5&projectId=a0a8f18c-a66e-4ba7-a170-23efbdc67501","12701B4AD25343918D991BAA397622EE-2024-11-24-19-24-29","","null","","[]","null","",""
"","","","","","image-button-response","60","904786","0.0-12.0-1.0-0.1","12701B4AD25343918D991BAA397622EE","12701B4AD25343918D991BAA397622EE","1e9212eb-f6ca-4f83-b081-06117e73edb5","a0a8f18c-a66e-4ba7-a170-23efbdc67501","{""participantId"":""12701B4AD25343918D991BAA397622EE"",""assignmentId"":""1e9212eb-f6ca-4f83-b081-06117e73edb5"",""projectId"":""a0a8f18c-a66e-4ba7-a170-23efbdc67501""}","https://test12345.live/?participantId=12701B4AD25343918D991BAA397622EE&assignmentId=1e9212eb-f6ca-4f83-b081-06117e73edb5&projectId=a0a8f18c-a66e-4ba7-a170-23efbdc67501","12701B4AD25343918D991BAA397622EE-2024-11-24-19-24-29","","null","","images/causal_sequence/saving_a_cat_causal/saving_a_cat_causal_7.png","null","",""
"","","","","","image-button-response","61","908218","0.0-12.0-1.0-1.1","12701B4AD25343918D991BAA397622EE","12701B4AD25343918D991BAA397622EE","1e9212eb-f6ca-4f83-b081-06117e73edb5","a0a8f18c-a66e-4ba7-a170-23efbdc67501","{""participantId"":""12701B4AD25343918D991BAA397622EE"",""assignmentId"":""1e9212eb-f6ca-4f83-b081-06117e73edb5"",""projectId"":""a0a8f18c-a66e-4ba7-a170-23efbdc67501""}","https://test12345.live/?participantId=12701B4AD25343918D991BAA397622EE&assignmentId=1e9212eb-f6ca-4f83-b081-06117e73edb5&projectId=a0a8f18c-a66e-4ba7-a170-23efbdc67501","12701B4AD25343918D991BAA397622EE-2024-11-24-19-24-29","","3430","","images/causal_sequence/saving_a_cat_causal/saving_a_cat_causal_7.png","0","",""
"","","","","","image-button-response","62","910021","0.0-12.0-1.0-2.1","12701B4AD25343918D991BAA397622EE","12701B4AD25343918D991BAA397622EE","1e9212eb-f6ca-4f83-b081-06117e73edb5","a0a8f18c-a66e-4ba7-a170-23efbdc67501","{""participantId"":""12701B4AD25343918D991BAA397622EE"",""assignmentId"":""1e9212eb-f6ca-4f83-b081-06117e73edb5"",""projectId"":""a0a8f18c-a66e-4ba7-a170-23efbdc67501""}","https://test12345.live/?participantId=12701B4AD25343918D991BAA397622EE&assignmentId=1e9212eb-f6ca-4f83-b081-06117e73edb5&projectId=a0a8f18c-a66e-4ba7-a170-23efbdc67501","12701B4AD25343918D991BAA397622EE-2024-11-24-19-24-29","","null","","[]","null","",""
"","","","","","image-button-response","63","914524","0.0-12.0-1.0-0.2","12701B4AD25343918D991BAA397622EE","12701B4AD25343918D991BAA397622EE","1e9212eb-f6ca-4f83-b081-06117e73edb5","a0a8f18c-a66e-4ba7-a170-23efbdc67501","{""participantId"":""12701B4AD25343918D991BAA397622EE"",""assignmentId"":""1e9212eb-f6ca-4f83-b081-06117e73edb5"",""projectId"":""a0a8f18c-a66e-4ba7-a170-23efbdc67501""}","https://test12345.live/?participantId=12701B4AD25343918D991BAA397622EE&assignmentId=1e9212eb-f6ca-4f83-b081-06117e73edb5&projectId=a0a8f18c-a66e-4ba7-a170-23efbdc67501","12701B4AD25343918D991BAA397622EE-2024-11-24-19-24-29","","null","","images/causal_sequence/saving_a_cat_causal/saving_a_cat_causal_4.png","null","",""
"","","","","","image-button-response","64","915780","0.0-12.0-1.0-1.2","12701B4AD25343918D991BAA397622EE","12701B4AD25343918D991BAA397622EE","1e9212eb-f6ca-4f83-b081-06117e73edb5","a0a8f18c-a66e-4ba7-a170-23efbdc67501","{""participantId"":""12701B4AD25343918D991BAA397622EE"",""assignmentId"":""1e9212eb-f6ca-4f83-b081-06117e73edb5"",""projectId"":""a0a8f18c-a66e-4ba7-a170-23efbdc67501""}","https://test12345.live/?participantId=12701B4AD25343918D991BAA397622EE&assignmentId=1e9212eb-f6ca-4f83-b081-06117e73edb5&projectId=a0a8f18c-a66e-4ba7-a170-23efbdc67501","12701B4AD25343918D991BAA397622EE-2024-11-24-19-24-29","","1254","","images/causal_sequence/saving_a_cat_causal/saving_a_cat_causal_4.png","0","",""
"","","","","","image-button-response","65","917584","0.0-12.0-1.0-2.2","12701B4AD25343918D991BAA397622EE","12701B4AD25343918D991BAA397622EE","1e9212eb-f6ca-4f83-b081-06117e73edb5","a0a8f18c-a66e-4ba7-a170-23efbdc67501","{""participantId"":""12701B4AD25343918D991BAA397622EE"",""assignmentId"":""1e9212eb-f6ca-4f83-b081-06117e73edb5"",""projectId"":""a0a8f18c-a66e-4ba7-a170-23efbdc67501""}","https://test12345.live/?participantId=12701B4AD25343918D991BAA397622EE&assignmentId=1e9212eb-f6ca-4f83-b081-06117e73edb5&projectId=a0a8f18c-a66e-4ba7-a170-23efbdc67501","12701B4AD25343918D991BAA397622EE-2024-11-24-19-24-29","","null","","[]","null","",""
"","","","","","image-button-response","66","922086","0.0-12.0-1.0-0.3","12701B4AD25343918D991BAA397622EE","12701B4AD25343918D991BAA397622EE","1e9212eb-f6ca-4f83-b081-06117e73edb5","a0a8f18c-a66e-4ba7-a170-23efbdc67501","{""participantId"":""12701B4AD25343918D991BAA397622EE"",""assignmentId"":""1e9212eb-f6ca-4f83-b081-06117e73edb5"",""projectId"":""a0a8f18c-a66e-4ba7-a170-23efbdc67501""}","https://test12345.live/?participantId=12701B4AD25343918D991BAA397622EE&assignmentId=1e9212eb-f6ca-4f83-b081-06117e73edb5&projectId=a0a8f18c-a66e-4ba7-a170-23efbdc67501","12701B4AD25343918D991BAA397622EE-2024-11-24-19-24-29","","null","","images/causal_sequence/saving_a_cat_causal/saving_a_cat_causal_ten.png","null","",""
"","","","","","image-button-response","67","923814","0.0-12.0-1.0-1.3","12701B4AD25343918D991BAA397622EE","12701B4AD25343918D991BAA397622EE","1e9212eb-f6ca-4f83-b081-06117e73edb5","a0a8f18c-a66e-4ba7-a170-23efbdc67501","{""participantId"":""12701B4AD25343918D991BAA397622EE"",""assignmentId"":""1e9212eb-f6ca-4f83-b081-06117e73edb5"",""projectId"":""a0a8f18c-a66e-4ba7-a170-23efbdc67501""}","https://test12345.live/?participantId=12701B4AD25343918D991BAA397622EE&assignmentId=1e9212eb-f6ca-4f83-b081-06117e73edb5&projectId=a0a8f18c-a66e-4ba7-a170-23efbdc67501","12701B4AD25343918D991BAA397622EE-2024-11-24-19-24-29","","1727","","images/causal_sequence/saving_a_cat_causal/saving_a_cat_causal_ten.png","0","",""
"","","","","","image-button-response","68","925616","0.0-12.0-1.0-2.3","12701B4AD25343918D991BAA397622EE","12701B4AD25343918D991BAA397622EE","1e9212eb-f6ca-4f83-b081-06117e73edb5","a0a8f18c-a66e-4ba7-a170-23efbdc67501","{""participantId"":""12701B4AD25343918D991BAA397622EE"",""assignmentId"":""1e9212eb-f6ca-4f83-b081-06117e73edb5"",""projectId"":""a0a8f18c-a66e-4ba7-a170-23efbdc67501""}","https://test12345.live/?participantId=12701B4AD25343918D991BAA397622EE&assignmentId=1e9212eb-f6ca-4f83-b081-06117e73edb5&projectId=a0a8f18c-a66e-4ba7-a170-23efbdc67501","12701B4AD25343918D991BAA397622EE-2024-11-24-19-24-29","","null","","[]","null","",""
"","","","","","image-button-response","69","930120","0.0-12.0-1.0-0.4","12701B4AD25343918D991BAA397622EE","12701B4AD25343918D991BAA397622EE","1e9212eb-f6ca-4f83-b081-06117e73edb5","a0a8f18c-a66e-4ba7-a170-23efbdc67501","{""participantId"":""12701B4AD25343918D991BAA397622EE"",""assignmentId"":""1e9212eb-f6ca-4f83-b081-06117e73edb5"",""projectId"":""a0a8f18c-a66e-4ba7-a170-23efbdc67501""}","https://test12345.live/?participantId=12701B4AD25343918D991BAA397622EE&assignmentId=1e9212eb-f6ca-4f83-b081-06117e73edb5&projectId=a0a8f18c-a66e-4ba7-a170-23efbdc67501","12701B4AD25343918D991BAA397622EE-2024-11-24-19-24-29","","null","","images/causal_sequence/saving_a_cat_causal/saving_a_cat_causal_8.png","null","",""
"","","","","","image-button-response","70","934045","0.0-12.0-1.0-1.4","12701B4AD25343918D991BAA397622EE","12701B4AD25343918D991BAA397622EE","1e9212eb-f6ca-4f83-b081-06117e73edb5","a0a8f18c-a66e-4ba7-a170-23efbdc67501","{""participantId"":""12701B4AD25343918D991BAA397622EE"",""assignmentId"":""1e9212eb-f6ca-4f83-b081-06117e73edb5"",""projectId"":""a0a8f18c-a66e-4ba7-a170-23efbdc67501""}","https://test12345.live/?participantId=12701B4AD25343918D991BAA397622EE&assignmentId=1e9212eb-f6ca-4f83-b081-06117e73edb5&projectId=a0a8f18c-a66e-4ba7-a170-23efbdc67501","12701B4AD25343918D991BAA397622EE-2024-11-24-19-24-29","","3922","","images/causal_sequence/saving_a_cat_causal/saving_a_cat_causal_8.png","0","",""
"","","","","","image-button-response","71","935850","0.0-12.0-1.0-2.4","12701B4AD25343918D991BAA397622EE","12701B4AD25343918D991BAA397622EE","1e9212eb-f6ca-4f83-b081-06117e73edb5","a0a8f18c-a66e-4ba7-a170-23efbdc67501","{""participantId"":""12701B4AD25343918D991BAA397622EE"",""assignmentId"":""1e9212eb-f6ca-4f83-b081-06117e73edb5"",""projectId"":""a0a8f18c-a66e-4ba7-a170-23efbdc67501""}","https://test12345.live/?participantId=12701B4AD25343918D991BAA397622EE&assignmentId=1e9212eb-f6ca-4f83-b081-06117e73edb5&projectId=a0a8f18c-a66e-4ba7-a170-23efbdc67501","12701B4AD25343918D991BAA397622EE-2024-11-24-19-24-29","","null","","[]","null","",""
"","","","","","image-button-response","72","940351","0.0-12.0-1.0-0.5","12701B4AD25343918D991BAA397622EE","12701B4AD25343918D991BAA397622EE","1e9212eb-f6ca-4f83-b081-06117e73edb5","a0a8f18c-a66e-4ba7-a170-23efbdc67501","{""participantId"":""12701B4AD25343918D991BAA397622EE"",""assignmentId"":""1e9212eb-f6ca-4f83-b081-06117e73edb5"",""projectId"":""a0a8f18c-a66e-4ba7-a170-23efbdc67501""}","https://test12345.live/?participantId=12701B4AD25343918D991BAA397622EE&assignmentId=1e9212eb-f6ca-4f83-b081-06117e73edb5&projectId=a0a8f18c-a66e-4ba7-a170-23efbdc67501","12701B4AD25343918D991BAA397622EE-2024-11-24-19-24-29","","null","","images/causal_sequence/saving_a_cat_causal/saving_a_cat_causal_5.png","null","",""
"","","","","","image-button-response","73","942084","0.0-12.0-1.0-1.5","12701B4AD25343918D991BAA397622EE","12701B4AD25343918D991BAA397622EE","1e9212eb-f6ca-4f83-b081-06117e73edb5","a0a8f18c-a66e-4ba7-a170-23efbdc67501","{""participantId"":""12701B4AD25343918D991BAA397622EE"",""assignmentId"":""1e9212eb-f6ca-4f83-b081-06117e73edb5"",""projectId"":""a0a8f18c-a66e-4ba7-a170-23efbdc67501""}","https://test12345.live/?participantId=12701B4AD25343918D991BAA397622EE&assignmentId=1e9212eb-f6ca-4f83-b081-06117e73edb5&projectId=a0a8f18c-a66e-4ba7-a170-23efbdc67501","12701B4AD25343918D991BAA397622EE-2024-11-24-19-24-29","","1732","","images/causal_sequence/saving_a_cat_causal/saving_a_cat_causal_5.png","0","",""
"","","","","","image-button-response","74","943886","0.0-12.0-1.0-2.5","12701B4AD25343918D991BAA397622EE","12701B4AD25343918D991BAA397622EE","1e9212eb-f6ca-4f83-b081-06117e73edb5","a0a8f18c-a66e-4ba7-a170-23efbdc67501","{""participantId"":""12701B4AD25343918D991BAA397622EE"",""assignmentId"":""1e9212eb-f6ca-4f83-b081-06117e73edb5"",""projectId"":""a0a8f18c-a66e-4ba7-a170-23efbdc67501""}","https://test12345.live/?participantId=12701B4AD25343918D991BAA397622EE&assignmentId=1e9212eb-f6ca-4f83-b081-06117e73edb5&projectId=a0a8f18c-a66e-4ba7-a170-23efbdc67501","12701B4AD25343918D991BAA397622EE-2024-11-24-19-24-29","","null","","[]","null","",""
"","","","","","image-button-response","75","948389","0.0-12.0-1.0-0.6","12701B4AD25343918D991BAA397622EE","12701B4AD25343918D991BAA397622EE","1e9212eb-f6ca-4f83-b081-06117e73edb5","a0a8f18c-a66e-4ba7-a170-23efbdc67501","{""participantId"":""12701B4AD25343918D991BAA397622EE"",""assignmentId"":""1e9212eb-f6ca-4f83-b081-06117e73edb5"",""projectId"":""a0a8f18c-a66e-4ba7-a170-23efbdc67501""}","https://test12345.live/?participantId=12701B4AD25343918D991BAA397622EE&assignmentId=1e9212eb-f6ca-4f83-b081-06117e73edb5&projectId=a0a8f18c-a66e-4ba7-a170-23efbdc67501","12701B4AD25343918D991BAA397622EE-2024-11-24-19-24-29","","null","","images/causal_sequence/saving_a_cat_causal/saving_a_cat_causal_2.png","null","",""
"","","","","","image-button-response","76","950247","0.0-12.0-1.0-1.6","12701B4AD25343918D991BAA397622EE","12701B4AD25343918D991BAA397622EE","1e9212eb-f6ca-4f83-b081-06117e73edb5","a0a8f18c-a66e-4ba7-a170-23efbdc67501","{""participantId"":""12701B4AD25343918D991BAA397622EE"",""assignmentId"":""1e9212eb-f6ca-4f83-b081-06117e73edb5"",""projectId"":""a0a8f18c-a66e-4ba7-a170-23efbdc67501""}","https://test12345.live/?participantId=12701B4AD25343918D991BAA397622EE&assignmentId=1e9212eb-f6ca-4f83-b081-06117e73edb5&projectId=a0a8f18c-a66e-4ba7-a170-23efbdc67501","12701B4AD25343918D991BAA397622EE-2024-11-24-19-24-29","","1856","","images/causal_sequence/saving_a_cat_causal/saving_a_cat_causal_2.png","1","",""
"","","","","","image-button-response","77","952048","0.0-12.0-1.0-2.6","12701B4AD25343918D991BAA397622EE","12701B4AD25343918D991BAA397622EE","1e9212eb-f6ca-4f83-b081-06117e73edb5","a0a8f18c-a66e-4ba7-a170-23efbdc67501","{""participantId"":""12701B4AD25343918D991BAA397622EE"",""assignmentId"":""1e9212eb-f6ca-4f83-b081-06117e73edb5"",""projectId"":""a0a8f18c-a66e-4ba7-a170-23efbdc67501""}","https://test12345.live/?participantId=12701B4AD25343918D991BAA397622EE&assignmentId=1e9212eb-f6ca-4f83-b081-06117e73edb5&projectId=a0a8f18c-a66e-4ba7-a170-23efbdc67501","12701B4AD25343918D991BAA397622EE-2024-11-24-19-24-29","","null","","[]","null","",""
"","","","","","image-button-response","78","956550","0.0-12.0-1.0-0.7","12701B4AD25343918D991BAA397622EE","12701B4AD25343918D991BAA397622EE","1e9212eb-f6ca-4f83-b081-06117e73edb5","a0a8f18c-a66e-4ba7-a170-23efbdc67501","{""participantId"":""12701B4AD25343918D991BAA397622EE"",""assignmentId"":""1e9212eb-f6ca-4f83-b081-06117e73edb5"",""projectId"":""a0a8f18c-a66e-4ba7-a170-23efbdc67501""}","https://test12345.live/?participantId=12701B4AD25343918D991BAA397622EE&assignmentId=1e9212eb-f6ca-4f83-b081-06117e73edb5&projectId=a0a8f18c-a66e-4ba7-a170-23efbdc67501","12701B4AD25343918D991BAA397622EE-2024-11-24-19-24-29","","null","","images/causal_sequence/saving_a_cat_causal/saving_a_cat_causal_1.png","null","",""
"","","","","","image-button-response","79","958393","0.0-12.0-1.0-1.7","12701B4AD25343918D991BAA397622EE","12701B4AD25343918D991BAA397622EE","1e9212eb-f6ca-4f83-b081-06117e73edb5","a0a8f18c-a66e-4ba7-a170-23efbdc67501","{""participantId"":""12701B4AD25343918D991BAA397622EE"",""assignmentId"":""1e9212eb-f6ca-4f83-b081-06117e73edb5"",""projectId"":""a0a8f18c-a66e-4ba7-a170-23efbdc67501""}","https://test12345.live/?participantId=12701B4AD25343918D991BAA397622EE&assignmentId=1e9212eb-f6ca-4f83-b081-06117e73edb5&projectId=a0a8f18c-a66e-4ba7-a170-23efbdc67501","12701B4AD25343918D991BAA397622EE-2024-11-24-19-24-29","","1842","","images/causal_sequence/saving_a_cat_causal/saving_a_cat_causal_1.png","0","",""
"","","","","","image-button-response","80","960195","0.0-12.0-1.0-2.7","12701B4AD25343918D991BAA397622EE","12701B4AD25343918D991BAA397622EE","1e9212eb-f6ca-4f83-b081-06117e73edb5","a0a8f18c-a66e-4ba7-a170-23efbdc67501","{""participantId"":""12701B4AD25343918D991BAA397622EE"",""assignmentId"":""1e9212eb-f6ca-4f83-b081-06117e73edb5"",""projectId"":""a0a8f18c-a66e-4ba7-a170-23efbdc67501""}","https://test12345.live/?participantId=12701B4AD25343918D991BAA397622EE&assignmentId=1e9212eb-f6ca-4f83-b081-06117e73edb5&projectId=a0a8f18c-a66e-4ba7-a170-23efbdc67501","12701B4AD25343918D991BAA397622EE-2024-11-24-19-24-29","","null","","[]","null","",""
"","","","","","image-button-response","81","964695","0.0-12.0-1.0-0.8","12701B4AD25343918D991BAA397622EE","12701B4AD25343918D991BAA397622EE","1e9212eb-f6ca-4f83-b081-06117e73edb5","a0a8f18c-a66e-4ba7-a170-23efbdc67501","{""participantId"":""12701B4AD25343918D991BAA397622EE"",""assignmentId"":""1e9212eb-f6ca-4f83-b081-06117e73edb5"",""projectId"":""a0a8f18c-a66e-4ba7-a170-23efbdc67501""}","https://test12345.live/?participantId=12701B4AD25343918D991BAA397622EE&assignmentId=1e9212eb-f6ca-4f83-b081-06117e73edb5&projectId=a0a8f18c-a66e-4ba7-a170-23efbdc67501","12701B4AD25343918D991BAA397622EE-2024-11-24-19-24-29","","null","","images/causal_sequence/saving_a_cat_causal/saving_a_cat_causal_6.png","null","",""
"","","","","","image-button-response","82","966531","0.0-12.0-1.0-1.8","12701B4AD25343918D991BAA397622EE","12701B4AD25343918D991BAA397622EE","1e9212eb-f6ca-4f83-b081-06117e73edb5","a0a8f18c-a66e-4ba7-a170-23efbdc67501","{""participantId"":""12701B4AD25343918D991BAA397622EE"",""assignmentId"":""1e9212eb-f6ca-4f83-b081-06117e73edb5"",""projectId"":""a0a8f18c-a66e-4ba7-a170-23efbdc67501""}","https://test12345.live/?participantId=12701B4AD25343918D991BAA397622EE&assignmentId=1e9212eb-f6ca-4f83-b081-06117e73edb5&projectId=a0a8f18c-a66e-4ba7-a170-23efbdc67501","12701B4AD25343918D991BAA397622EE-2024-11-24-19-24-29","","1835","","images/causal_sequence/saving_a_cat_causal/saving_a_cat_causal_6.png","0","",""
"","","","","","image-button-response","83","968334","0.0-12.0-1.0-2.8","12701B4AD25343918D991BAA397622EE","12701B4AD25343918D991BAA397622EE","1e9212eb-f6ca-4f83-b081-06117e73edb5","a0a8f18c-a66e-4ba7-a170-23efbdc67501","{""participantId"":""12701B4AD25343918D991BAA397622EE"",""assignmentId"":""1e9212eb-f6ca-4f83-b081-06117e73edb5"",""projectId"":""a0a8f18c-a66e-4ba7-a170-23efbdc67501""}","https://test12345.live/?participantId=12701B4AD25343918D991BAA397622EE&assignmentId=1e9212eb-f6ca-4f83-b081-06117e73edb5&projectId=a0a8f18c-a66e-4ba7-a170-23efbdc67501","12701B4AD25343918D991BAA397622EE-2024-11-24-19-24-29","","null","","[]","null","",""
"","","","","","image-button-response","84","972836","0.0-12.0-1.0-0.9","12701B4AD25343918D991BAA397622EE","12701B4AD25343918D991BAA397622EE","1e9212eb-f6ca-4f83-b081-06117e73edb5","a0a8f18c-a66e-4ba7-a170-23efbdc67501","{""participantId"":""12701B4AD25343918D991BAA397622EE"",""assignmentId"":""1e9212eb-f6ca-4f83-b081-06117e73edb5"",""projectId"":""a0a8f18c-a66e-4ba7-a170-23efbdc67501""}","https://test12345.live/?participantId=12701B4AD25343918D991BAA397622EE&assignmentId=1e9212eb-f6ca-4f83-b081-06117e73edb5&projectId=a0a8f18c-a66e-4ba7-a170-23efbdc67501","12701B4AD25343918D991BAA397622EE-2024-11-24-19-24-29","","null","","images/causal_sequence/saving_a_cat_causal/saving_a_cat_causal_3.png","null","",""
"","","","","","image-button-response","85","975494","0.0-12.0-1.0-1.9","12701B4AD25343918D991BAA397622EE","12701B4AD25343918D991BAA397622EE","1e9212eb-f6ca-4f83-b081-06117e73edb5","a0a8f18c-a66e-4ba7-a170-23efbdc67501","{""participantId"":""12701B4AD25343918D991BAA397622EE"",""assignmentId"":""1e9212eb-f6ca-4f83-b081-06117e73edb5"",""projectId"":""a0a8f18c-a66e-4ba7-a170-23efbdc67501""}","https://test12345.live/?participantId=12701B4AD25343918D991BAA397622EE&assignmentId=1e9212eb-f6ca-4f83-b081-06117e73edb5&projectId=a0a8f18c-a66e-4ba7-a170-23efbdc67501","12701B4AD25343918D991BAA397622EE-2024-11-24-19-24-29","","2656","","images/causal_sequence/saving_a_cat_causal/saving_a_cat_causal_3.png","1","",""
"","","","","","image-button-response","86","977297","0.0-12.0-1.0-2.9","12701B4AD25343918D991BAA397622EE","12701B4AD25343918D991BAA397622EE","1e9212eb-f6ca-4f83-b081-06117e73edb5","a0a8f18c-a66e-4ba7-a170-23efbdc67501","{""participantId"":""12701B4AD25343918D991BAA397622EE"",""assignmentId"":""1e9212eb-f6ca-4f83-b081-06117e73edb5"",""projectId"":""a0a8f18c-a66e-4ba7-a170-23efbdc67501""}","https://test12345.live/?participantId=12701B4AD25343918D991BAA397622EE&assignmentId=1e9212eb-f6ca-4f83-b081-06117e73edb5&projectId=a0a8f18c-a66e-4ba7-a170-23efbdc67501","12701B4AD25343918D991BAA397622EE-2024-11-24-19-24-29","","null","","[]","null","",""
"","","","","","html-audio-response","87","1005362","0.0-13.0","12701B4AD25343918D991BAA397622EE","12701B4AD25343918D991BAA397622EE","1e9212eb-f6ca-4f83-b081-06117e73edb5","a0a8f18c-a66e-4ba7-a170-23efbdc67501","{""participantId"":""12701B4AD25343918D991BAA397622EE"",""assignmentId"":""1e9212eb-f6ca-4f83-b081-06117e73edb5"",""projectId"":""a0a8f18c-a66e-4ba7-a170-23efbdc67501""}","https://test12345.live/?participantId=12701B4AD25343918D991BAA397622EE&assignmentId=1e9212eb-f6ca-4f83-b081-06117e73edb5&projectId=a0a8f18c-a66e-4ba7-a170-23efbdc67501","12701B4AD25343918D991BAA397622EE-2024-11-24-19-24-29","","26695","","[""<span style=\""color: red; font-size: 24px\""> NOW RECORDING</span><p>Please say out loud all the images you saw, as many as you can remember. The images can be said in any order.</p>""]","","2","saving_a_cat_causal"
"","","","","","image-button-response","88","1011379","0.0-14.0-0.0","12701B4AD25343918D991BAA397622EE","12701B4AD25343918D991BAA397622EE","1e9212eb-f6ca-4f83-b081-06117e73edb5","a0a8f18c-a66e-4ba7-a170-23efbdc67501","{""participantId"":""12701B4AD25343918D991BAA397622EE"",""assignmentId"":""1e9212eb-f6ca-4f83-b081-06117e73edb5"",""projectId"":""a0a8f18c-a66e-4ba7-a170-23efbdc67501""}","https://test12345.live/?participantId=12701B4AD25343918D991BAA397622EE&assignmentId=1e9212eb-f6ca-4f83-b081-06117e73edb5&projectId=a0a8f18c-a66e-4ba7-a170-23efbdc67501","12701B4AD25343918D991BAA397622EE-2024-11-24-19-24-29","","null","","images/schematic_sequence/flight_scheme/flight_scheme_0.png","null","",""
"","","","","","image-button-response","89","1015882","0.0-14.0-1.0-0.0","12701B4AD25343918D991BAA397622EE","12701B4AD25343918D991BAA397622EE","1e9212eb-f6ca-4f83-b081-06117e73edb5","a0a8f18c-a66e-4ba7-a170-23efbdc67501","{""participantId"":""12701B4AD25343918D991BAA397622EE"",""assignmentId"":""1e9212eb-f6ca-4f83-b081-06117e73edb5"",""projectId"":""a0a8f18c-a66e-4ba7-a170-23efbdc67501""}","https://test12345.live/?participantId=12701B4AD25343918D991BAA397622EE&assignmentId=1e9212eb-f6ca-4f83-b081-06117e73edb5&projectId=a0a8f18c-a66e-4ba7-a170-23efbdc67501","12701B4AD25343918D991BAA397622EE-2024-11-24-19-24-29","","null","","images/schematic_sequence/flight_scheme/flight_scheme_7.png","null","",""
"","","","","","image-button-response","90","1019884","0.0-14.0-1.0-1.0","12701B4AD25343918D991BAA397622EE","12701B4AD25343918D991BAA397622EE","1e9212eb-f6ca-4f83-b081-06117e73edb5","a0a8f18c-a66e-4ba7-a170-23efbdc67501","{""participantId"":""12701B4AD25343918D991BAA397622EE"",""assignmentId"":""1e9212eb-f6ca-4f83-b081-06117e73edb5"",""projectId"":""a0a8f18c-a66e-4ba7-a170-23efbdc67501""}","https://test12345.live/?participantId=12701B4AD25343918D991BAA397622EE&assignmentId=1e9212eb-f6ca-4f83-b081-06117e73edb5&projectId=a0a8f18c-a66e-4ba7-a170-23efbdc67501","12701B4AD25343918D991BAA397622EE-2024-11-24-19-24-29","","null","","images/schematic_sequence/flight_scheme/flight_scheme_7.png","null","",""
"","","","","","image-button-response","91","1021685","0.0-14.0-1.0-2.0","12701B4AD25343918D991BAA397622EE","12701B4AD25343918D991BAA397622EE","1e9212eb-f6ca-4f83-b081-06117e73edb5","a0a8f18c-a66e-4ba7-a170-23efbdc67501","{""participantId"":""12701B4AD25343918D991BAA397622EE"",""assignmentId"":""1e9212eb-f6ca-4f83-b081-06117e73edb5"",""projectId"":""a0a8f18c-a66e-4ba7-a170-23efbdc67501""}","https://test12345.live/?participantId=12701B4AD25343918D991BAA397622EE&assignmentId=1e9212eb-f6ca-4f83-b081-06117e73edb5&projectId=a0a8f18c-a66e-4ba7-a170-23efbdc67501","12701B4AD25343918D991BAA397622EE-2024-11-24-19-24-29","","null","","[]","null","",""
"","","","","","image-button-response","92","1026187","0.0-14.0-1.0-0.1","12701B4AD25343918D991BAA397622EE","12701B4AD25343918D991BAA397622EE","1e9212eb-f6ca-4f83-b081-06117e73edb5","a0a8f18c-a66e-4ba7-a170-23efbdc67501","{""participantId"":""12701B4AD25343918D991BAA397622EE"",""assignmentId"":""1e9212eb-f6ca-4f83-b081-06117e73edb5"",""projectId"":""a0a8f18c-a66e-4ba7-a170-23efbdc67501""}","https://test12345.live/?participantId=12701B4AD25343918D991BAA397622EE&assignmentId=1e9212eb-f6ca-4f83-b081-06117e73edb5&projectId=a0a8f18c-a66e-4ba7-a170-23efbdc67501","12701B4AD25343918D991BAA397622EE-2024-11-24-19-24-29","","null","","images/schematic_sequence/flight_scheme/flight_scheme_8.png","null","",""
"","","","","","image-button-response","93","1027429","0.0-14.0-1.0-1.1","12701B4AD25343918D991BAA397622EE","12701B4AD25343918D991BAA397622EE","1e9212eb-f6ca-4f83-b081-06117e73edb5","a0a8f18c-a66e-4ba7-a170-23efbdc67501","{""participantId"":""12701B4AD25343918D991BAA397622EE"",""assignmentId"":""1e9212eb-f6ca-4f83-b081-06117e73edb5"",""projectId"":""a0a8f18c-a66e-4ba7-a170-23efbdc67501""}","https://test12345.live/?participantId=12701B4AD25343918D991BAA397622EE&assignmentId=1e9212eb-f6ca-4f83-b081-06117e73edb5&projectId=a0a8f18c-a66e-4ba7-a170-23efbdc67501","12701B4AD25343918D991BAA397622EE-2024-11-24-19-24-29","","1239","","images/schematic_sequence/flight_scheme/flight_scheme_8.png","1","",""
"","","","","","image-button-response","94","1029233","0.0-14.0-1.0-2.1","12701B4AD25343918D991BAA397622EE","12701B4AD25343918D991BAA397622EE","1e9212eb-f6ca-4f83-b081-06117e73edb5","a0a8f18c-a66e-4ba7-a170-23efbdc67501","{""participantId"":""12701B4AD25343918D991BAA397622EE"",""assignmentId"":""1e9212eb-f6ca-4f83-b081-06117e73edb5"",""projectId"":""a0a8f18c-a66e-4ba7-a170-23efbdc67501""}","https://test12345.live/?participantId=12701B4AD25343918D991BAA397622EE&assignmentId=1e9212eb-f6ca-4f83-b081-06117e73edb5&projectId=a0a8f18c-a66e-4ba7-a170-23efbdc67501","12701B4AD25343918D991BAA397622EE-2024-11-24-19-24-29","","null","","[]","null","",""
"","","","","","image-button-response","95","1033736","0.0-14.0-1.0-0.2","12701B4AD25343918D991BAA397622EE","12701B4AD25343918D991BAA397622EE","1e9212eb-f6ca-4f83-b081-06117e73edb5","a0a8f18c-a66e-4ba7-a170-23efbdc67501","{""participantId"":""12701B4AD25343918D991BAA397622EE"",""assignmentId"":""1e9212eb-f6ca-4f83-b081-06117e73edb5"",""projectId"":""a0a8f18c-a66e-4ba7-a170-23efbdc67501""}","https://test12345.live/?participantId=12701B4AD25343918D991BAA397622EE&assignmentId=1e9212eb-f6ca-4f83-b081-06117e73edb5&projectId=a0a8f18c-a66e-4ba7-a170-23efbdc67501","12701B4AD25343918D991BAA397622EE-2024-11-24-19-24-29","","null","","images/schematic_sequence/flight_scheme/flight_scheme_6.png","null","",""
"","","","","","image-button-response","96","1036493","0.0-14.0-1.0-1.2","12701B4AD25343918D991BAA397622EE","12701B4AD25343918D991BAA397622EE","1e9212eb-f6ca-4f83-b081-06117e73edb5","a0a8f18c-a66e-4ba7-a170-23efbdc67501","{""participantId"":""12701B4AD25343918D991BAA397622EE"",""assignmentId"":""1e9212eb-f6ca-4f83-b081-06117e73edb5"",""projectId"":""a0a8f18c-a66e-4ba7-a170-23efbdc67501""}","https://test12345.live/?participantId=12701B4AD25343918D991BAA397622EE&assignmentId=1e9212eb-f6ca-4f83-b081-06117e73edb5&projectId=a0a8f18c-a66e-4ba7-a170-23efbdc67501","12701B4AD25343918D991BAA397622EE-2024-11-24-19-24-29","","2754","","images/schematic_sequence/flight_scheme/flight_scheme_6.png","1","",""
"","","","","","image-button-response","97","1038298","0.0-14.0-1.0-2.2","12701B4AD25343918D991BAA397622EE","12701B4AD25343918D991BAA397622EE","1e9212eb-f6ca-4f83-b081-06117e73edb5","a0a8f18c-a66e-4ba7-a170-23efbdc67501","{""participantId"":""12701B4AD25343918D991BAA397622EE"",""assignmentId"":""1e9212eb-f6ca-4f83-b081-06117e73edb5"",""projectId"":""a0a8f18c-a66e-4ba7-a170-23efbdc67501""}","https://test12345.live/?participantId=12701B4AD25343918D991BAA397622EE&assignmentId=1e9212eb-f6ca-4f83-b081-06117e73edb5&projectId=a0a8f18c-a66e-4ba7-a170-23efbdc67501","12701B4AD25343918D991BAA397622EE-2024-11-24-19-24-29","","null","","[]","null","",""
"","","","","","image-button-response","98","1042802","0.0-14.0-1.0-0.3","12701B4AD25343918D991BAA397622EE","12701B4AD25343918D991BAA397622EE","1e9212eb-f6ca-4f83-b081-06117e73edb5","a0a8f18c-a66e-4ba7-a170-23efbdc67501","{""participantId"":""12701B4AD25343918D991BAA397622EE"",""assignmentId"":""1e9212eb-f6ca-4f83-b081-06117e73edb5"",""projectId"":""a0a8f18c-a66e-4ba7-a170-23efbdc67501""}","https://test12345.live/?participantId=12701B4AD25343918D991BAA397622EE&assignmentId=1e9212eb-f6ca-4f83-b081-06117e73edb5&projectId=a0a8f18c-a66e-4ba7-a170-23efbdc67501","12701B4AD25343918D991BAA397622EE-2024-11-24-19-24-29","","null","","images/schematic_sequence/flight_scheme/flight_scheme_4.png","null","",""
"","","","","","image-button-response","99","1044353","0.0-14.0-1.0-1.3","12701B4AD25343918D991BAA397622EE","12701B4AD25343918D991BAA397622EE","1e9212eb-f6ca-4f83-b081-06117e73edb5","a0a8f18c-a66e-4ba7-a170-23efbdc67501","{""participantId"":""12701B4AD25343918D991BAA397622EE"",""assignmentId"":""1e9212eb-f6ca-4f83-b081-06117e73edb5"",""projectId"":""a0a8f18c-a66e-4ba7-a170-23efbdc67501""}","https://test12345.live/?participantId=12701B4AD25343918D991BAA397622EE&assignmentId=1e9212eb-f6ca-4f83-b081-06117e73edb5&projectId=a0a8f18c-a66e-4ba7-a170-23efbdc67501","12701B4AD25343918D991BAA397622EE-2024-11-24-19-24-29","","1551","","images/schematic_sequence/flight_scheme/flight_scheme_4.png","0","",""
"","","","","","image-button-response","100","1046156","0.0-14.0-1.0-2.3","12701B4AD25343918D991BAA397622EE","12701B4AD25343918D991BAA397622EE","1e9212eb-f6ca-4f83-b081-06117e73edb5","a0a8f18c-a66e-4ba7-a170-23efbdc67501","{""participantId"":""12701B4AD25343918D991BAA397622EE"",""assignmentId"":""1e9212eb-f6ca-4f83-b081-06117e73edb5"",""projectId"":""a0a8f18c-a66e-4ba7-a170-23efbdc67501""}","https://test12345.live/?participantId=12701B4AD25343918D991BAA397622EE&assignmentId=1e9212eb-f6ca-4f83-b081-06117e73edb5&projectId=a0a8f18c-a66e-4ba7-a170-23efbdc67501","12701B4AD25343918D991BAA397622EE-2024-11-24-19-24-29","","null","","[]","null","",""
"","","","","","image-button-response","101","1050659","0.0-14.0-1.0-0.4","12701B4AD25343918D991BAA397622EE","12701B4AD25343918D991BAA397622EE","1e9212eb-f6ca-4f83-b081-06117e73edb5","a0a8f18c-a66e-4ba7-a170-23efbdc67501","{""participantId"":""12701B4AD25343918D991BAA397622EE"",""assignmentId"":""1e9212eb-f6ca-4f83-b081-06117e73edb5"",""projectId"":""a0a8f18c-a66e-4ba7-a170-23efbdc67501""}","https://test12345.live/?participantId=12701B4AD25343918D991BAA397622EE&assignmentId=1e9212eb-f6ca-4f83-b081-06117e73edb5&projectId=a0a8f18c-a66e-4ba7-a170-23efbdc67501","12701B4AD25343918D991BAA397622EE-2024-11-24-19-24-29","","null","","images/schematic_sequence/flight_scheme/flight_scheme_9.png","null","",""
"","","","","","image-button-response","102","1053813","0.0-14.0-1.0-1.4","12701B4AD25343918D991BAA397622EE","12701B4AD25343918D991BAA397622EE","1e9212eb-f6ca-4f83-b081-06117e73edb5","a0a8f18c-a66e-4ba7-a170-23efbdc67501","{""participantId"":""12701B4AD25343918D991BAA397622EE"",""assignmentId"":""1e9212eb-f6ca-4f83-b081-06117e73edb5"",""projectId"":""a0a8f18c-a66e-4ba7-a170-23efbdc67501""}","https://test12345.live/?participantId=12701B4AD25343918D991BAA397622EE&assignmentId=1e9212eb-f6ca-4f83-b081-06117e73edb5&projectId=a0a8f18c-a66e-4ba7-a170-23efbdc67501","12701B4AD25343918D991BAA397622EE-2024-11-24-19-24-29","","3152","","images/schematic_sequence/flight_scheme/flight_scheme_9.png","0","",""
"","","","","","image-button-response","103","1055615","0.0-14.0-1.0-2.4","12701B4AD25343918D991BAA397622EE","12701B4AD25343918D991BAA397622EE","1e9212eb-f6ca-4f83-b081-06117e73edb5","a0a8f18c-a66e-4ba7-a170-23efbdc67501","{""participantId"":""12701B4AD25343918D991BAA397622EE"",""assignmentId"":""1e9212eb-f6ca-4f83-b081-06117e73edb5"",""projectId"":""a0a8f18c-a66e-4ba7-a170-23efbdc67501""}","https://test12345.live/?participantId=12701B4AD25343918D991BAA397622EE&assignmentId=1e9212eb-f6ca-4f83-b081-06117e73edb5&projectId=a0a8f18c-a66e-4ba7-a170-23efbdc67501","12701B4AD25343918D991BAA397622EE-2024-11-24-19-24-29","","null","","[]","null","",""
"","","","","","image-button-response","104","1060118","0.0-14.0-1.0-0.5","12701B4AD25343918D991BAA397622EE","12701B4AD25343918D991BAA397622EE","1e9212eb-f6ca-4f83-b081-06117e73edb5","a0a8f18c-a66e-4ba7-a170-23efbdc67501","{""participantId"":""12701B4AD25343918D991BAA397622EE"",""assignmentId"":""1e9212eb-f6ca-4f83-b081-06117e73edb5"",""projectId"":""a0a8f18c-a66e-4ba7-a170-23efbdc67501""}","https://test12345.live/?participantId=12701B4AD25343918D991BAA397622EE&assignmentId=1e9212eb-f6ca-4f83-b081-06117e73edb5&projectId=a0a8f18c-a66e-4ba7-a170-23efbdc67501","12701B4AD25343918D991BAA397622EE-2024-11-24-19-24-29","","null","","images/schematic_sequence/flight_scheme/flight_scheme_3.png","null","",""
"","","","","","image-button-response","105","1061910","0.0-14.0-1.0-1.5","12701B4AD25343918D991BAA397622EE","12701B4AD25343918D991BAA397622EE","1e9212eb-f6ca-4f83-b081-06117e73edb5","a0a8f18c-a66e-4ba7-a170-23efbdc67501","{""participantId"":""12701B4AD25343918D991BAA397622EE"",""assignmentId"":""1e9212eb-f6ca-4f83-b081-06117e73edb5"",""projectId"":""a0a8f18c-a66e-4ba7-a170-23efbdc67501""}","https://test12345.live/?participantId=12701B4AD25343918D991BAA397622EE&assignmentId=1e9212eb-f6ca-4f83-b081-06117e73edb5&projectId=a0a8f18c-a66e-4ba7-a170-23efbdc67501","12701B4AD25343918D991BAA397622EE-2024-11-24-19-24-29","","1790","","images/schematic_sequence/flight_scheme/flight_scheme_3.png","0","",""
"","","","","","image-button-response","106","1063713","0.0-14.0-1.0-2.5","12701B4AD25343918D991BAA397622EE","12701B4AD25343918D991BAA397622EE","1e9212eb-f6ca-4f83-b081-06117e73edb5","a0a8f18c-a66e-4ba7-a170-23efbdc67501","{""participantId"":""12701B4AD25343918D991BAA397622EE"",""assignmentId"":""1e9212eb-f6ca-4f83-b081-06117e73edb5"",""projectId"":""a0a8f18c-a66e-4ba7-a170-23efbdc67501""}","https://test12345.live/?participantId=12701B4AD25343918D991BAA397622EE&assignmentId=1e9212eb-f6ca-4f83-b081-06117e73edb5&projectId=a0a8f18c-a66e-4ba7-a170-23efbdc67501","12701B4AD25343918D991BAA397622EE-2024-11-24-19-24-29","","null","","[]","null","",""
"","","","","","image-button-response","107","1068215","0.0-14.0-1.0-0.6","12701B4AD25343918D991BAA397622EE","12701B4AD25343918D991BAA397622EE","1e9212eb-f6ca-4f83-b081-06117e73edb5","a0a8f18c-a66e-4ba7-a170-23efbdc67501","{""participantId"":""12701B4AD25343918D991BAA397622EE"",""assignmentId"":""1e9212eb-f6ca-4f83-b081-06117e73edb5"",""projectId"":""a0a8f18c-a66e-4ba7-a170-23efbdc67501""}","https://test12345.live/?participantId=12701B4AD25343918D991BAA397622EE&assignmentId=1e9212eb-f6ca-4f83-b081-06117e73edb5&projectId=a0a8f18c-a66e-4ba7-a170-23efbdc67501","12701B4AD25343918D991BAA397622EE-2024-11-24-19-24-29","","null","","images/schematic_sequence/flight_scheme/flight_scheme_ten.png","null","",""
"","","","","","image-button-response","108","1070033","0.0-14.0-1.0-1.6","12701B4AD25343918D991BAA397622EE","12701B4AD25343918D991BAA397622EE","1e9212eb-f6ca-4f83-b081-06117e73edb5","a0a8f18c-a66e-4ba7-a170-23efbdc67501","{""participantId"":""12701B4AD25343918D991BAA397622EE"",""assignmentId"":""1e9212eb-f6ca-4f83-b081-06117e73edb5"",""projectId"":""a0a8f18c-a66e-4ba7-a170-23efbdc67501""}","https://test12345.live/?participantId=12701B4AD25343918D991BAA397622EE&assignmentId=1e9212eb-f6ca-4f83-b081-06117e73edb5&projectId=a0a8f18c-a66e-4ba7-a170-23efbdc67501","12701B4AD25343918D991BAA397622EE-2024-11-24-19-24-29","","1817","","images/schematic_sequence/flight_scheme/flight_scheme_ten.png","0","",""
"","","","","","image-button-response","109","1071836","0.0-14.0-1.0-2.6","12701B4AD25343918D991BAA397622EE","12701B4AD25343918D991BAA397622EE","1e9212eb-f6ca-4f83-b081-06117e73edb5","a0a8f18c-a66e-4ba7-a170-23efbdc67501","{""participantId"":""12701B4AD25343918D991BAA397622EE"",""assignmentId"":""1e9212eb-f6ca-4f83-b081-06117e73edb5"",""projectId"":""a0a8f18c-a66e-4ba7-a170-23efbdc67501""}","https://test12345.live/?participantId=12701B4AD25343918D991BAA397622EE&assignmentId=1e9212eb-f6ca-4f83-b081-06117e73edb5&projectId=a0a8f18c-a66e-4ba7-a170-23efbdc67501","12701B4AD25343918D991BAA397622EE-2024-11-24-19-24-29","","null","","[]","null","",""
"","","","","","image-button-response","110","1076338","0.0-14.0-1.0-0.7","12701B4AD25343918D991BAA397622EE","12701B4AD25343918D991BAA397622EE","1e9212eb-f6ca-4f83-b081-06117e73edb5","a0a8f18c-a66e-4ba7-a170-23efbdc67501","{""participantId"":""12701B4AD25343918D991BAA397622EE"",""assignmentId"":""1e9212eb-f6ca-4f83-b081-06117e73edb5"",""projectId"":""a0a8f18c-a66e-4ba7-a170-23efbdc67501""}","https://test12345.live/?participantId=12701B4AD25343918D991BAA397622EE&assignmentId=1e9212eb-f6ca-4f83-b081-06117e73edb5&projectId=a0a8f18c-a66e-4ba7-a170-23efbdc67501","12701B4AD25343918D991BAA397622EE-2024-11-24-19-24-29","","null","","images/schematic_sequence/flight_scheme/flight_scheme_1.png","null","",""
"","","","","","image-button-response","111","1078920","0.0-14.0-1.0-1.7","12701B4AD25343918D991BAA397622EE","12701B4AD25343918D991BAA397622EE","1e9212eb-f6ca-4f83-b081-06117e73edb5","a0a8f18c-a66e-4ba7-a170-23efbdc67501","{""participantId"":""12701B4AD25343918D991BAA397622EE"",""assignmentId"":""1e9212eb-f6ca-4f83-b081-06117e73edb5"",""projectId"":""a0a8f18c-a66e-4ba7-a170-23efbdc67501""}","https://test12345.live/?participantId=12701B4AD25343918D991BAA397622EE&assignmentId=1e9212eb-f6ca-4f83-b081-06117e73edb5&projectId=a0a8f18c-a66e-4ba7-a170-23efbdc67501","12701B4AD25343918D991BAA397622EE-2024-11-24-19-24-29","","2581","","images/schematic_sequence/flight_scheme/flight_scheme_1.png","1","",""
"","","","","","image-button-response","112","1080722","0.0-14.0-1.0-2.7","12701B4AD25343918D991BAA397622EE","12701B4AD25343918D991BAA397622EE","1e9212eb-f6ca-4f83-b081-06117e73edb5","a0a8f18c-a66e-4ba7-a170-23efbdc67501","{""participantId"":""12701B4AD25343918D991BAA397622EE"",""assignmentId"":""1e9212eb-f6ca-4f83-b081-06117e73edb5"",""projectId"":""a0a8f18c-a66e-4ba7-a170-23efbdc67501""}","https://test12345.live/?participantId=12701B4AD25343918D991BAA397622EE&assignmentId=1e9212eb-f6ca-4f83-b081-06117e73edb5&projectId=a0a8f18c-a66e-4ba7-a170-23efbdc67501","12701B4AD25343918D991BAA397622EE-2024-11-24-19-24-29","","null","","[]","null","",""
"","","","","","image-button-response","113","1085224","0.0-14.0-1.0-0.8","12701B4AD25343918D991BAA397622EE","12701B4AD25343918D991BAA397622EE","1e9212eb-f6ca-4f83-b081-06117e73edb5","a0a8f18c-a66e-4ba7-a170-23efbdc67501","{""participantId"":""12701B4AD25343918D991BAA397622EE"",""assignmentId"":""1e9212eb-f6ca-4f83-b081-06117e73edb5"",""projectId"":""a0a8f18c-a66e-4ba7-a170-23efbdc67501""}","https://test12345.live/?participantId=12701B4AD25343918D991BAA397622EE&assignmentId=1e9212eb-f6ca-4f83-b081-06117e73edb5&projectId=a0a8f18c-a66e-4ba7-a170-23efbdc67501","12701B4AD25343918D991BAA397622EE-2024-11-24-19-24-29","","null","","images/schematic_sequence/flight_scheme/flight_scheme_2.png","null","",""
"","","","","","image-button-response","114","1086375","0.0-14.0-1.0-1.8","12701B4AD25343918D991BAA397622EE","12701B4AD25343918D991BAA397622EE","1e9212eb-f6ca-4f83-b081-06117e73edb5","a0a8f18c-a66e-4ba7-a170-23efbdc67501","{""participantId"":""12701B4AD25343918D991BAA397622EE"",""assignmentId"":""1e9212eb-f6ca-4f83-b081-06117e73edb5"",""projectId"":""a0a8f18c-a66e-4ba7-a170-23efbdc67501""}","https://test12345.live/?participantId=12701B4AD25343918D991BAA397622EE&assignmentId=1e9212eb-f6ca-4f83-b081-06117e73edb5&projectId=a0a8f18c-a66e-4ba7-a170-23efbdc67501","12701B4AD25343918D991BAA397622EE-2024-11-24-19-24-29","","1150","","images/schematic_sequence/flight_scheme/flight_scheme_2.png","1","",""
"","","","","","image-button-response","115","1088179","0.0-14.0-1.0-2.8","12701B4AD25343918D991BAA397622EE","12701B4AD25343918D991BAA397622EE","1e9212eb-f6ca-4f83-b081-06117e73edb5","a0a8f18c-a66e-4ba7-a170-23efbdc67501","{""participantId"":""12701B4AD25343918D991BAA397622EE"",""assignmentId"":""1e9212eb-f6ca-4f83-b081-06117e73edb5"",""projectId"":""a0a8f18c-a66e-4ba7-a170-23efbdc67501""}","https://test12345.live/?participantId=12701B4AD25343918D991BAA397622EE&assignmentId=1e9212eb-f6ca-4f83-b081-06117e73edb5&projectId=a0a8f18c-a66e-4ba7-a170-23efbdc67501","12701B4AD25343918D991BAA397622EE-2024-11-24-19-24-29","","null","","[]","null","",""
"","","","","","image-button-response","116","1092683","0.0-14.0-1.0-0.9","12701B4AD25343918D991BAA397622EE","12701B4AD25343918D991BAA397622EE","1e9212eb-f6ca-4f83-b081-06117e73edb5","a0a8f18c-a66e-4ba7-a170-23efbdc67501","{""participantId"":""12701B4AD25343918D991BAA397622EE"",""assignmentId"":""1e9212eb-f6ca-4f83-b081-06117e73edb5"",""projectId"":""a0a8f18c-a66e-4ba7-a170-23efbdc67501""}","https://test12345.live/?participantId=12701B4AD25343918D991BAA397622EE&assignmentId=1e9212eb-f6ca-4f83-b081-06117e73edb5&projectId=a0a8f18c-a66e-4ba7-a170-23efbdc67501","12701B4AD25343918D991BAA397622EE-2024-11-24-19-24-29","","null","","images/schematic_sequence/flight_scheme/flight_scheme_5.png","null","",""
"","","","","","image-button-response","117","1094430","0.0-14.0-1.0-1.9","12701B4AD25343918D991BAA397622EE","12701B4AD25343918D991BAA397622EE","1e9212eb-f6ca-4f83-b081-06117e73edb5","a0a8f18c-a66e-4ba7-a170-23efbdc67501","{""participantId"":""12701B4AD25343918D991BAA397622EE"",""assignmentId"":""1e9212eb-f6ca-4f83-b081-06117e73edb5"",""projectId"":""a0a8f18c-a66e-4ba7-a170-23efbdc67501""}","https://test12345.live/?participantId=12701B4AD25343918D991BAA397622EE&assignmentId=1e9212eb-f6ca-4f83-b081-06117e73edb5&projectId=a0a8f18c-a66e-4ba7-a170-23efbdc67501","12701B4AD25343918D991BAA397622EE-2024-11-24-19-24-29","","1746","","images/schematic_sequence/flight_scheme/flight_scheme_5.png","0","",""
"","","","","","image-button-response","118","1096232","0.0-14.0-1.0-2.9","12701B4AD25343918D991BAA397622EE","12701B4AD25343918D991BAA397622EE","1e9212eb-f6ca-4f83-b081-06117e73edb5","a0a8f18c-a66e-4ba7-a170-23efbdc67501","{""participantId"":""12701B4AD25343918D991BAA397622EE"",""assignmentId"":""1e9212eb-f6ca-4f83-b081-06117e73edb5"",""projectId"":""a0a8f18c-a66e-4ba7-a170-23efbdc67501""}","https://test12345.live/?participantId=12701B4AD25343918D991BAA397622EE&assignmentId=1e9212eb-f6ca-4f83-b081-06117e73edb5&projectId=a0a8f18c-a66e-4ba7-a170-23efbdc67501","12701B4AD25343918D991BAA397622EE-2024-11-24-19-24-29","","null","","[]","null","",""
"","","","","","html-audio-response","119","1129825","0.0-15.0","12701B4AD25343918D991BAA397622EE","12701B4AD25343918D991BAA397622EE","1e9212eb-f6ca-4f83-b081-06117e73edb5","a0a8f18c-a66e-4ba7-a170-23efbdc67501","{""participantId"":""12701B4AD25343918D991BAA397622EE"",""assignmentId"":""1e9212eb-f6ca-4f83-b081-06117e73edb5"",""projectId"":""a0a8f18c-a66e-4ba7-a170-23efbdc67501""}","https://test12345.live/?participantId=12701B4AD25343918D991BAA397622EE&assignmentId=1e9212eb-f6ca-4f83-b081-06117e73edb5&projectId=a0a8f18c-a66e-4ba7-a170-23efbdc67501","12701B4AD25343918D991BAA397622EE-2024-11-24-19-24-29","","18443","","[""<span style=\""color: red; font-size: 24px\""> NOW RECORDING</span><p>Please say out loud all the images you saw, as many as you can remember. The images can be said in any order.</p>""]","","5","flight_scheme"
"","","","","","image-button-response","120","1135837","0.0-16.0-0.0","12701B4AD25343918D991BAA397622EE","12701B4AD25343918D991BAA397622EE","1e9212eb-f6ca-4f83-b081-06117e73edb5","a0a8f18c-a66e-4ba7-a170-23efbdc67501","{""participantId"":""12701B4AD25343918D991BAA397622EE"",""assignmentId"":""1e9212eb-f6ca-4f83-b081-06117e73edb5"",""projectId"":""a0a8f18c-a66e-4ba7-a170-23efbdc67501""}","https://test12345.live/?participantId=12701B4AD25343918D991BAA397622EE&assignmentId=1e9212eb-f6ca-4f83-b081-06117e73edb5&projectId=a0a8f18c-a66e-4ba7-a170-23efbdc67501","12701B4AD25343918D991BAA397622EE-2024-11-24-19-24-29","","null","","images/schematic_sequence/restaurant_scheme/restaurant_scheme_0.png","null","",""
"","","","","","image-button-response","121","1140341","0.0-16.0-1.0-0.0","12701B4AD25343918D991BAA397622EE","12701B4AD25343918D991BAA397622EE","1e9212eb-f6ca-4f83-b081-06117e73edb5","a0a8f18c-a66e-4ba7-a170-23efbdc67501","{""participantId"":""12701B4AD25343918D991BAA397622EE"",""assignmentId"":""1e9212eb-f6ca-4f83-b081-06117e73edb5"",""projectId"":""a0a8f18c-a66e-4ba7-a170-23efbdc67501""}","https://test12345.live/?participantId=12701B4AD25343918D991BAA397622EE&assignmentId=1e9212eb-f6ca-4f83-b081-06117e73edb5&projectId=a0a8f18c-a66e-4ba7-a170-23efbdc67501","12701B4AD25343918D991BAA397622EE-2024-11-24-19-24-29","","null","","images/schematic_sequence/restaurant_scheme/restaurant_scheme_1.png","null","",""
"","","","","","image-button-response","122","1142961","0.0-16.0-1.0-1.0","12701B4AD25343918D991BAA397622EE","12701B4AD25343918D991BAA397622EE","1e9212eb-f6ca-4f83-b081-06117e73edb5","a0a8f18c-a66e-4ba7-a170-23efbdc67501","{""participantId"":""12701B4AD25343918D991BAA397622EE"",""assignmentId"":""1e9212eb-f6ca-4f83-b081-06117e73edb5"",""projectId"":""a0a8f18c-a66e-4ba7-a170-23efbdc67501""}","https://test12345.live/?participantId=12701B4AD25343918D991BAA397622EE&assignmentId=1e9212eb-f6ca-4f83-b081-06117e73edb5&projectId=a0a8f18c-a66e-4ba7-a170-23efbdc67501","12701B4AD25343918D991BAA397622EE-2024-11-24-19-24-29","","2619","","images/schematic_sequence/restaurant_scheme/restaurant_scheme_1.png","0","",""
"","","","","","image-button-response","123","1144764","0.0-16.0-1.0-2.0","12701B4AD25343918D991BAA397622EE","12701B4AD25343918D991BAA397622EE","1e9212eb-f6ca-4f83-b081-06117e73edb5","a0a8f18c-a66e-4ba7-a170-23efbdc67501","{""participantId"":""12701B4AD25343918D991BAA397622EE"",""assignmentId"":""1e9212eb-f6ca-4f83-b081-06117e73edb5"",""projectId"":""a0a8f18c-a66e-4ba7-a170-23efbdc67501""}","https://test12345.live/?participantId=12701B4AD25343918D991BAA397622EE&assignmentId=1e9212eb-f6ca-4f83-b081-06117e73edb5&projectId=a0a8f18c-a66e-4ba7-a170-23efbdc67501","12701B4AD25343918D991BAA397622EE-2024-11-24-19-24-29","","null","","[]","null","",""
"","","","","","image-button-response","124","1149267","0.0-16.0-1.0-0.1","12701B4AD25343918D991BAA397622EE","12701B4AD25343918D991BAA397622EE","1e9212eb-f6ca-4f83-b081-06117e73edb5","a0a8f18c-a66e-4ba7-a170-23efbdc67501","{""participantId"":""12701B4AD25343918D991BAA397622EE"",""assignmentId"":""1e9212eb-f6ca-4f83-b081-06117e73edb5"",""projectId"":""a0a8f18c-a66e-4ba7-a170-23efbdc67501""}","https://test12345.live/?participantId=12701B4AD25343918D991BAA397622EE&assignmentId=1e9212eb-f6ca-4f83-b081-06117e73edb5&projectId=a0a8f18c-a66e-4ba7-a170-23efbdc67501","12701B4AD25343918D991BAA397622EE-2024-11-24-19-24-29","","null","","images/schematic_sequence/restaurant_scheme/restaurant_scheme_2.png","null","",""
"","","","","","image-button-response","125","1151683","0.0-16.0-1.0-1.1","12701B4AD25343918D991BAA397622EE","12701B4AD25343918D991BAA397622EE","1e9212eb-f6ca-4f83-b081-06117e73edb5","a0a8f18c-a66e-4ba7-a170-23efbdc67501","{""participantId"":""12701B4AD25343918D991BAA397622EE"",""assignmentId"":""1e9212eb-f6ca-4f83-b081-06117e73edb5"",""projectId"":""a0a8f18c-a66e-4ba7-a170-23efbdc67501""}","https://test12345.live/?participantId=12701B4AD25343918D991BAA397622EE&assignmentId=1e9212eb-f6ca-4f83-b081-06117e73edb5&projectId=a0a8f18c-a66e-4ba7-a170-23efbdc67501","12701B4AD25343918D991BAA397622EE-2024-11-24-19-24-29","","2415","","images/schematic_sequence/restaurant_scheme/restaurant_scheme_2.png","1","",""
"","","","","","image-button-response","126","1153486","0.0-16.0-1.0-2.1","12701B4AD25343918D991BAA397622EE","12701B4AD25343918D991BAA397622EE","1e9212eb-f6ca-4f83-b081-06117e73edb5","a0a8f18c-a66e-4ba7-a170-23efbdc67501","{""participantId"":""12701B4AD25343918D991BAA397622EE"",""assignmentId"":""1e9212eb-f6ca-4f83-b081-06117e73edb5"",""projectId"":""a0a8f18c-a66e-4ba7-a170-23efbdc67501""}","https://test12345.live/?participantId=12701B4AD25343918D991BAA397622EE&assignmentId=1e9212eb-f6ca-4f83-b081-06117e73edb5&projectId=a0a8f18c-a66e-4ba7-a170-23efbdc67501","12701B4AD25343918D991BAA397622EE-2024-11-24-19-24-29","","null","","[]","null","",""
"","","","","","image-button-response","127","1157988","0.0-16.0-1.0-0.2","12701B4AD25343918D991BAA397622EE","12701B4AD25343918D991BAA397622EE","1e9212eb-f6ca-4f83-b081-06117e73edb5","a0a8f18c-a66e-4ba7-a170-23efbdc67501","{""participantId"":""12701B4AD25343918D991BAA397622EE"",""assignmentId"":""1e9212eb-f6ca-4f83-b081-06117e73edb5"",""projectId"":""a0a8f18c-a66e-4ba7-a170-23efbdc67501""}","https://test12345.live/?participantId=12701B4AD25343918D991BAA397622EE&assignmentId=1e9212eb-f6ca-4f83-b081-06117e73edb5&projectId=a0a8f18c-a66e-4ba7-a170-23efbdc67501","12701B4AD25343918D991BAA397622EE-2024-11-24-19-24-29","","null","","images/schematic_sequence/restaurant_scheme/restaurant_scheme_3.png","null","",""
"","","","","","image-button-response","128","1159754","0.0-16.0-1.0-1.2","12701B4AD25343918D991BAA397622EE","12701B4AD25343918D991BAA397622EE","1e9212eb-f6ca-4f83-b081-06117e73edb5","a0a8f18c-a66e-4ba7-a170-23efbdc67501","{""participantId"":""12701B4AD25343918D991BAA397622EE"",""assignmentId"":""1e9212eb-f6ca-4f83-b081-06117e73edb5"",""projectId"":""a0a8f18c-a66e-4ba7-a170-23efbdc67501""}","https://test12345.live/?participantId=12701B4AD25343918D991BAA397622EE&assignmentId=1e9212eb-f6ca-4f83-b081-06117e73edb5&projectId=a0a8f18c-a66e-4ba7-a170-23efbdc67501","12701B4AD25343918D991BAA397622EE-2024-11-24-19-24-29","","1765","","images/schematic_sequence/restaurant_scheme/restaurant_scheme_3.png","1","",""
"","","","","","image-button-response","129","1161558","0.0-16.0-1.0-2.2","12701B4AD25343918D991BAA397622EE","12701B4AD25343918D991BAA397622EE","1e9212eb-f6ca-4f83-b081-06117e73edb5","a0a8f18c-a66e-4ba7-a170-23efbdc67501","{""participantId"":""12701B4AD25343918D991BAA397622EE"",""assignmentId"":""1e9212eb-f6ca-4f83-b081-06117e73edb5"",""projectId"":""a0a8f18c-a66e-4ba7-a170-23efbdc67501""}","https://test12345.live/?participantId=12701B4AD25343918D991BAA397622EE&assignmentId=1e9212eb-f6ca-4f83-b081-06117e73edb5&projectId=a0a8f18c-a66e-4ba7-a170-23efbdc67501","12701B4AD25343918D991BAA397622EE-2024-11-24-19-24-29","","null","","[]","null","",""
"","","","","","image-button-response","130","1166061","0.0-16.0-1.0-0.3","12701B4AD25343918D991BAA397622EE","12701B4AD25343918D991BAA397622EE","1e9212eb-f6ca-4f83-b081-06117e73edb5","a0a8f18c-a66e-4ba7-a170-23efbdc67501","{""participantId"":""12701B4AD25343918D991BAA397622EE"",""assignmentId"":""1e9212eb-f6ca-4f83-b081-06117e73edb5"",""projectId"":""a0a8f18c-a66e-4ba7-a170-23efbdc67501""}","https://test12345.live/?participantId=12701B4AD25343918D991BAA397622EE&assignmentId=1e9212eb-f6ca-4f83-b081-06117e73edb5&projectId=a0a8f18c-a66e-4ba7-a170-23efbdc67501","12701B4AD25343918D991BAA397622EE-2024-11-24-19-24-29","","null","","images/schematic_sequence/restaurant_scheme/restaurant_scheme_4.png","null","",""
"","","","","","image-button-response","131","1168978","0.0-16.0-1.0-1.3","12701B4AD25343918D991BAA397622EE","12701B4AD25343918D991BAA397622EE","1e9212eb-f6ca-4f83-b081-06117e73edb5","a0a8f18c-a66e-4ba7-a170-23efbdc67501","{""participantId"":""12701B4AD25343918D991BAA397622EE"",""assignmentId"":""1e9212eb-f6ca-4f83-b081-06117e73edb5"",""projectId"":""a0a8f18c-a66e-4ba7-a170-23efbdc67501""}","https://test12345.live/?participantId=12701B4AD25343918D991BAA397622EE&assignmentId=1e9212eb-f6ca-4f83-b081-06117e73edb5&projectId=a0a8f18c-a66e-4ba7-a170-23efbdc67501","12701B4AD25343918D991BAA397622EE-2024-11-24-19-24-29","","2913","","images/schematic_sequence/restaurant_scheme/restaurant_scheme_4.png","0","",""
"","","","","","image-button-response","132","1170781","0.0-16.0-1.0-2.3","12701B4AD25343918D991BAA397622EE","12701B4AD25343918D991BAA397622EE","1e9212eb-f6ca-4f83-b081-06117e73edb5","a0a8f18c-a66e-4ba7-a170-23efbdc67501","{""participantId"":""12701B4AD25343918D991BAA397622EE"",""assignmentId"":""1e9212eb-f6ca-4f83-b081-06117e73edb5"",""projectId"":""a0a8f18c-a66e-4ba7-a170-23efbdc67501""}","https://test12345.live/?participantId=12701B4AD25343918D991BAA397622EE&assignmentId=1e9212eb-f6ca-4f83-b081-06117e73edb5&projectId=a0a8f18c-a66e-4ba7-a170-23efbdc67501","12701B4AD25343918D991BAA397622EE-2024-11-24-19-24-29","","null","","[]","null","",""
"","","","","","image-button-response","133","1175282","0.0-16.0-1.0-0.4","12701B4AD25343918D991BAA397622EE","12701B4AD25343918D991BAA397622EE","1e9212eb-f6ca-4f83-b081-06117e73edb5","a0a8f18c-a66e-4ba7-a170-23efbdc67501","{""participantId"":""12701B4AD25343918D991BAA397622EE"",""assignmentId"":""1e9212eb-f6ca-4f83-b081-06117e73edb5"",""projectId"":""a0a8f18c-a66e-4ba7-a170-23efbdc67501""}","https://test12345.live/?participantId=12701B4AD25343918D991BAA397622EE&assignmentId=1e9212eb-f6ca-4f83-b081-06117e73edb5&projectId=a0a8f18c-a66e-4ba7-a170-23efbdc67501","12701B4AD25343918D991BAA397622EE-2024-11-24-19-24-29","","null","","images/schematic_sequence/restaurant_scheme/restaurant_scheme_5.png","null","",""
"","","","","","image-button-response","134","1178570","0.0-16.0-1.0-1.4","12701B4AD25343918D991BAA397622EE","12701B4AD25343918D991BAA397622EE","1e9212eb-f6ca-4f83-b081-06117e73edb5","a0a8f18c-a66e-4ba7-a170-23efbdc67501","{""participantId"":""12701B4AD25343918D991BAA397622EE"",""assignmentId"":""1e9212eb-f6ca-4f83-b081-06117e73edb5"",""projectId"":""a0a8f18c-a66e-4ba7-a170-23efbdc67501""}","https://test12345.live/?participantId=12701B4AD25343918D991BAA397622EE&assignmentId=1e9212eb-f6ca-4f83-b081-06117e73edb5&projectId=a0a8f18c-a66e-4ba7-a170-23efbdc67501","12701B4AD25343918D991BAA397622EE-2024-11-24-19-24-29","","3287","","images/schematic_sequence/restaurant_scheme/restaurant_scheme_5.png","0","",""
"","","","","","image-button-response","135","1180372","0.0-16.0-1.0-2.4","12701B4AD25343918D991BAA397622EE","12701B4AD25343918D991BAA397622EE","1e9212eb-f6ca-4f83-b081-06117e73edb5","a0a8f18c-a66e-4ba7-a170-23efbdc67501","{""participantId"":""12701B4AD25343918D991BAA397622EE"",""assignmentId"":""1e9212eb-f6ca-4f83-b081-06117e73edb5"",""projectId"":""a0a8f18c-a66e-4ba7-a170-23efbdc67501""}","https://test12345.live/?participantId=12701B4AD25343918D991BAA397622EE&assignmentId=1e9212eb-f6ca-4f83-b081-06117e73edb5&projectId=a0a8f18c-a66e-4ba7-a170-23efbdc67501","12701B4AD25343918D991BAA397622EE-2024-11-24-19-24-29","","null","","[]","null","",""
"","","","","","image-button-response","136","1184875","0.0-16.0-1.0-0.5","12701B4AD25343918D991BAA397622EE","12701B4AD25343918D991BAA397622EE","1e9212eb-f6ca-4f83-b081-06117e73edb5","a0a8f18c-a66e-4ba7-a170-23efbdc67501","{""participantId"":""12701B4AD25343918D991BAA397622EE"",""assignmentId"":""1e9212eb-f6ca-4f83-b081-06117e73edb5"",""projectId"":""a0a8f18c-a66e-4ba7-a170-23efbdc67501""}","https://test12345.live/?participantId=12701B4AD25343918D991BAA397622EE&assignmentId=1e9212eb-f6ca-4f83-b081-06117e73edb5&projectId=a0a8f18c-a66e-4ba7-a170-23efbdc67501","12701B4AD25343918D991BAA397622EE-2024-11-24-19-24-29","","null","","images/schematic_sequence/restaurant_scheme/restaurant_scheme_6.png","null","",""
"","","","","","image-button-response","137","1187332","0.0-16.0-1.0-1.5","12701B4AD25343918D991BAA397622EE","12701B4AD25343918D991BAA397622EE","1e9212eb-f6ca-4f83-b081-06117e73edb5","a0a8f18c-a66e-4ba7-a170-23efbdc67501","{""participantId"":""12701B4AD25343918D991BAA397622EE"",""assignmentId"":""1e9212eb-f6ca-4f83-b081-06117e73edb5"",""projectId"":""a0a8f18c-a66e-4ba7-a170-23efbdc67501""}","https://test12345.live/?participantId=12701B4AD25343918D991BAA397622EE&assignmentId=1e9212eb-f6ca-4f83-b081-06117e73edb5&projectId=a0a8f18c-a66e-4ba7-a170-23efbdc67501","12701B4AD25343918D991BAA397622EE-2024-11-24-19-24-29","","2454","","images/schematic_sequence/restaurant_scheme/restaurant_scheme_6.png","1","",""
"","","","","","image-button-response","138","1189133","0.0-16.0-1.0-2.5","12701B4AD25343918D991BAA397622EE","12701B4AD25343918D991BAA397622EE","1e9212eb-f6ca-4f83-b081-06117e73edb5","a0a8f18c-a66e-4ba7-a170-23efbdc67501","{""participantId"":""12701B4AD25343918D991BAA397622EE"",""assignmentId"":""1e9212eb-f6ca-4f83-b081-06117e73edb5"",""projectId"":""a0a8f18c-a66e-4ba7-a170-23efbdc67501""}","https://test12345.live/?participantId=12701B4AD25343918D991BAA397622EE&assignmentId=1e9212eb-f6ca-4f83-b081-06117e73edb5&projectId=a0a8f18c-a66e-4ba7-a170-23efbdc67501","12701B4AD25343918D991BAA397622EE-2024-11-24-19-24-29","","null","","[]","null","",""
"","","","","","image-button-response","139","1193635","0.0-16.0-1.0-0.6","12701B4AD25343918D991BAA397622EE","12701B4AD25343918D991BAA397622EE","1e9212eb-f6ca-4f83-b081-06117e73edb5","a0a8f18c-a66e-4ba7-a170-23efbdc67501","{""participantId"":""12701B4AD25343918D991BAA397622EE"",""assignmentId"":""1e9212eb-f6ca-4f83-b081-06117e73edb5"",""projectId"":""a0a8f18c-a66e-4ba7-a170-23efbdc67501""}","https://test12345.live/?participantId=12701B4AD25343918D991BAA397622EE&assignmentId=1e9212eb-f6ca-4f83-b081-06117e73edb5&projectId=a0a8f18c-a66e-4ba7-a170-23efbdc67501","12701B4AD25343918D991BAA397622EE-2024-11-24-19-24-29","","null","","images/schematic_sequence/restaurant_scheme/restaurant_scheme_7.png","null","",""
"","","","","","image-button-response","140","1195510","0.0-16.0-1.0-1.6","12701B4AD25343918D991BAA397622EE","12701B4AD25343918D991BAA397622EE","1e9212eb-f6ca-4f83-b081-06117e73edb5","a0a8f18c-a66e-4ba7-a170-23efbdc67501","{""participantId"":""12701B4AD25343918D991BAA397622EE"",""assignmentId"":""1e9212eb-f6ca-4f83-b081-06117e73edb5"",""projectId"":""a0a8f18c-a66e-4ba7-a170-23efbdc67501""}","https://test12345.live/?participantId=12701B4AD25343918D991BAA397622EE&assignmentId=1e9212eb-f6ca-4f83-b081-06117e73edb5&projectId=a0a8f18c-a66e-4ba7-a170-23efbdc67501","12701B4AD25343918D991BAA397622EE-2024-11-24-19-24-29","","1874","","images/schematic_sequence/restaurant_scheme/restaurant_scheme_7.png","1","",""
"","","","","","image-button-response","141","1197313","0.0-16.0-1.0-2.6","12701B4AD25343918D991BAA397622EE","12701B4AD25343918D991BAA397622EE","1e9212eb-f6ca-4f83-b081-06117e73edb5","a0a8f18c-a66e-4ba7-a170-23efbdc67501","{""participantId"":""12701B4AD25343918D991BAA397622EE"",""assignmentId"":""1e9212eb-f6ca-4f83-b081-06117e73edb5"",""projectId"":""a0a8f18c-a66e-4ba7-a170-23efbdc67501""}","https://test12345.live/?participantId=12701B4AD25343918D991BAA397622EE&assignmentId=1e9212eb-f6ca-4f83-b081-06117e73edb5&projectId=a0a8f18c-a66e-4ba7-a170-23efbdc67501","12701B4AD25343918D991BAA397622EE-2024-11-24-19-24-29","","null","","[]","null","",""
"","","","","","image-button-response","142","1201814","0.0-16.0-1.0-0.7","12701B4AD25343918D991BAA397622EE","12701B4AD25343918D991BAA397622EE","1e9212eb-f6ca-4f83-b081-06117e73edb5","a0a8f18c-a66e-4ba7-a170-23efbdc67501","{""participantId"":""12701B4AD25343918D991BAA397622EE"",""assignmentId"":""1e9212eb-f6ca-4f83-b081-06117e73edb5"",""projectId"":""a0a8f18c-a66e-4ba7-a170-23efbdc67501""}","https://test12345.live/?participantId=12701B4AD25343918D991BAA397622EE&assignmentId=1e9212eb-f6ca-4f83-b081-06117e73edb5&projectId=a0a8f18c-a66e-4ba7-a170-23efbdc67501","12701B4AD25343918D991BAA397622EE-2024-11-24-19-24-29","","null","","images/schematic_sequence/restaurant_scheme/restaurant_scheme_8.png","null","",""
"","","","","","image-button-response","143","1203649","0.0-16.0-1.0-1.7","12701B4AD25343918D991BAA397622EE","12701B4AD25343918D991BAA397622EE","1e9212eb-f6ca-4f83-b081-06117e73edb5","a0a8f18c-a66e-4ba7-a170-23efbdc67501","{""participantId"":""12701B4AD25343918D991BAA397622EE"",""assignmentId"":""1e9212eb-f6ca-4f83-b081-06117e73edb5"",""projectId"":""a0a8f18c-a66e-4ba7-a170-23efbdc67501""}","https://test12345.live/?participantId=12701B4AD25343918D991BAA397622EE&assignmentId=1e9212eb-f6ca-4f83-b081-06117e73edb5&projectId=a0a8f18c-a66e-4ba7-a170-23efbdc67501","12701B4AD25343918D991BAA397622EE-2024-11-24-19-24-29","","1834","","images/schematic_sequence/restaurant_scheme/restaurant_scheme_8.png","1","",""
