"success","timeout","failed_images","failed_audio","failed_video","trial_type","trial_index","time_elapsed","internal_node_id","subject","subject_id","study_id","session_id","urlvar","current_url","audio_id","view_history","rt","device_id","stimulus","response","estimated_stimulus_onset","seq_name"
"true","false","[]","[]","[]","preload","0","14","0.0-0.0","25B06F95013D47D9B5BC112264CFF342","25B06F95013D47D9B5BC112264CFF342","180edf25-3d30-4a4a-ba97-34a7e664c476","a0a8f18c-a66e-4ba7-a170-23efbdc67501","{""participantId"":""25B06F95013D47D9B5BC112264CFF342"",""assignmentId"":""180edf25-3d30-4a4a-ba97-34a7e664c476"",""projectId"":""a0a8f18c-a66e-4ba7-a170-23efbdc67501""}","https://test12345.live/?participantId=25B06F95013D47D9B5BC112264CFF342&assignmentId=180edf25-3d30-4a4a-ba97-34a7e664c476&projectId=a0a8f18c-a66e-4ba7-a170-23efbdc67501","25B06F95013D47D9B5BC112264CFF342-2024-11-24-19-35-08","","","","","","",""
"","","","","","instructions","1","7457","0.0-1.0","25B06F95013D47D9B5BC112264CFF342","25B06F95013D47D9B5BC112264CFF342","180edf25-3d30-4a4a-ba97-34a7e664c476","a0a8f18c-a66e-4ba7-a170-23efbdc67501","{""participantId"":""25B06F95013D47D9B5BC112264CFF342"",""assignmentId"":""180edf25-3d30-4a4a-ba97-34a7e664c476"",""projectId"":""a0a8f18c-a66e-4ba7-a170-23efbdc67501""}","https://test12345.live/?participantId=25B06F95013D47D9B5BC112264CFF342&assignmentId=180edf25-3d30-4a4a-ba97-34a7e664c476&projectId=a0a8f18c-a66e-4ba7-a170-23efbdc67501","25B06F95013D47D9B5BC112264CFF342-2024-11-24-19-35-08","[{""page_index"":0,""viewing_time"":7443}]","7443","","","","",""
"","","","","","instructions","2","10276","0.0-2.0","25B06F95013D47D9B5BC112264CFF342","25B06F95013D47D9B5BC112264CFF342","180edf25-3d30-4a4a-ba97-34a7e664c476","a0a8f18c-a66e-4ba7-a170-23efbdc67501","{""participantId"":""25B06F95013D47D9B5BC112264CFF342"",""assignmentId"":""180edf25-3d30-4a4a-ba97-34a7e664c476"",""projectId"":""a0a8f18c-a66e-4ba7-a170-23efbdc67501""}","https://test12345.live/?participantId=25B06F95013D47D9B5BC112264CFF342&assignmentId=180edf25-3d30-4a4a-ba97-34a7e664c476&projectId=a0a8f18c-a66e-4ba7-a170-23efbdc67501","25B06F95013D47D9B5BC112264CFF342-2024-11-24-19-35-08","[{""page_index"":0,""viewing_time"":2818}]","2818","","","","",""
"true","","","","","fullscreen","3","12836","0.0-3.0","25B06F95013D47D9B5BC112264CFF342","25B06F95013D47D9B5BC112264CFF342","180edf25-3d30-4a4a-ba97-34a7e664c476","a0a8f18c-a66e-4ba7-a170-23efbdc67501","{""participantId"":""25B06F95013D47D9B5BC112264CFF342"",""assignmentId"":""180edf25-3d30-4a4a-ba97-34a7e664c476"",""projectId"":""a0a8f18c-a66e-4ba7-a170-23efbdc67501""}","https://test12345.live/?participantId=25B06F95013D47D9B5BC112264CFF342&assignmentId=180edf25-3d30-4a4a-ba97-34a7e664c476&projectId=a0a8f18c-a66e-4ba7-a170-23efbdc67501","25B06F95013D47D9B5BC112264CFF342-2024-11-24-19-35-08","","1555","","","","",""
"","","","","","initialize-microphone","4","55330","0.0-4.0-0.0","25B06F95013D47D9B5BC112264CFF342","25B06F95013D47D9B5BC112264CFF342","180edf25-3d30-4a4a-ba97-34a7e664c476","a0a8f18c-a66e-4ba7-a170-23efbdc67501","{""participantId"":""25B06F95013D47D9B5BC112264CFF342"",""assignmentId"":""180edf25-3d30-4a4a-ba97-34a7e664c476"",""projectId"":""a0a8f18c-a66e-4ba7-a170-23efbdc67501""}","https://test12345.live/?participantId=25B06F95013D47D9B5BC112264CFF342&assignmentId=180edf25-3d30-4a4a-ba97-34a7e664c476&projectId=a0a8f18c-a66e-4ba7-a170-23efbdc67501","25B06F95013D47D9B5BC112264CFF342-2024-11-24-19-35-08","","","e67eb73b283a79d82dec3ee794bdcaa6331c7178df4886a06b1f55315de607c3","","","",""
"","","","","","html-audio-response","5","73333","0.0-4.0-1.0","25B06F95013D47D9B5BC112264CFF342","25B06F95013D47D9B5BC112264CFF342","180edf25-3d30-4a4a-ba97-34a7e664c476","a0a8f18c-a66e-4ba7-a170-23efbdc67501","{""participantId"":""25B06F95013D47D9B5BC112264CFF342"",""assignmentId"":""180edf25-3d30-4a4a-ba97-34a7e664c476"",""projectId"":""a0a8f18c-a66e-4ba7-a170-23efbdc67501""}","https://test12345.live/?participantId=25B06F95013D47D9B5BC112264CFF342&assignmentId=180edf25-3d30-4a4a-ba97-34a7e664c476&projectId=a0a8f18c-a66e-4ba7-a170-23efbdc67501","25B06F95013D47D9B5BC112264CFF342-2024-11-24-19-35-08","","6437","","<span style=""color: red; font-size: 24px""> NOW RECORDING</span>
        <p>Please test Microphone</p>","","8",""
"","","","","","html-button-response","6","75795","0.0-4.0-2.0","25B06F95013D47D9B5BC112264CFF342","25B06F95013D47D9B5BC112264CFF342","180edf25-3d30-4a4a-ba97-34a7e664c476","a0a8f18c-a66e-4ba7-a170-23efbdc67501","{""participantId"":""25B06F95013D47D9B5BC112264CFF342"",""assignmentId"":""180edf25-3d30-4a4a-ba97-34a7e664c476"",""projectId"":""a0a8f18c-a66e-4ba7-a170-23efbdc67501""}","https://test12345.live/?participantId=25B06F95013D47D9B5BC112264CFF342&assignmentId=180edf25-3d30-4a4a-ba97-34a7e664c476&projectId=a0a8f18c-a66e-4ba7-a170-23efbdc67501","25B06F95013D47D9B5BC112264CFF342-2024-11-24-19-35-08","","2460","","<p style=""font-size:48px; color:red;"">Is Microphone OK?</p>","1","",""
"","","","","","instructions","7","87711","0.0-5.0","25B06F95013D47D9B5BC112264CFF342","25B06F95013D47D9B5BC112264CFF342","180edf25-3d30-4a4a-ba97-34a7e664c476","a0a8f18c-a66e-4ba7-a170-23efbdc67501","{""participantId"":""25B06F95013D47D9B5BC112264CFF342"",""assignmentId"":""180edf25-3d30-4a4a-ba97-34a7e664c476"",""projectId"":""a0a8f18c-a66e-4ba7-a170-23efbdc67501""}","https://test12345.live/?participantId=25B06F95013D47D9B5BC112264CFF342&assignmentId=180edf25-3d30-4a4a-ba97-34a7e664c476&projectId=a0a8f18c-a66e-4ba7-a170-23efbdc67501","25B06F95013D47D9B5BC112264CFF342-2024-11-24-19-35-08","[{""page_index"":0,""viewing_time"":4681},{""page_index"":1,""viewing_time"":7232}]","11914","","","","",""
"","","","","","image-button-response","8","93730","0.0-6.0-0.0","25B06F95013D47D9B5BC112264CFF342","25B06F95013D47D9B5BC112264CFF342","180edf25-3d30-4a4a-ba97-34a7e664c476","a0a8f18c-a66e-4ba7-a170-23efbdc67501","{""participantId"":""25B06F95013D47D9B5BC112264CFF342"",""assignmentId"":""180edf25-3d30-4a4a-ba97-34a7e664c476"",""projectId"":""a0a8f18c-a66e-4ba7-a170-23efbdc67501""}","https://test12345.live/?participantId=25B06F95013D47D9B5BC112264CFF342&assignmentId=180edf25-3d30-4a4a-ba97-34a7e664c476&projectId=a0a8f18c-a66e-4ba7-a170-23efbdc67501","25B06F95013D47D9B5BC112264CFF342-2024-11-24-19-35-08","","null","","images/instructions/movie_0.png","null","",""
"","","","","","image-button-response","9","98233","0.0-6.0-1.0-0.0","25B06F95013D47D9B5BC112264CFF342","25B06F95013D47D9B5BC112264CFF342","180edf25-3d30-4a4a-ba97-34a7e664c476","a0a8f18c-a66e-4ba7-a170-23efbdc67501","{""participantId"":""25B06F95013D47D9B5BC112264CFF342"",""assignmentId"":""180edf25-3d30-4a4a-ba97-34a7e664c476"",""projectId"":""a0a8f18c-a66e-4ba7-a170-23efbdc67501""}","https://test12345.live/?participantId=25B06F95013D47D9B5BC112264CFF342&assignmentId=180edf25-3d30-4a4a-ba97-34a7e664c476&projectId=a0a8f18c-a66e-4ba7-a170-23efbdc67501","25B06F95013D47D9B5BC112264CFF342-2024-11-24-19-35-08","","null","","images/instructions/movie_1.png","null","",""
"","","","","","image-button-response","10","102235","0.0-6.0-1.0-1.0","25B06F95013D47D9B5BC112264CFF342","25B06F95013D47D9B5BC112264CFF342","180edf25-3d30-4a4a-ba97-34a7e664c476","a0a8f18c-a66e-4ba7-a170-23efbdc67501","{""participantId"":""25B06F95013D47D9B5BC112264CFF342"",""assignmentId"":""180edf25-3d30-4a4a-ba97-34a7e664c476"",""projectId"":""a0a8f18c-a66e-4ba7-a170-23efbdc67501""}","https://test12345.live/?participantId=25B06F95013D47D9B5BC112264CFF342&assignmentId=180edf25-3d30-4a4a-ba97-34a7e664c476&projectId=a0a8f18c-a66e-4ba7-a170-23efbdc67501","25B06F95013D47D9B5BC112264CFF342-2024-11-24-19-35-08","","null","","images/instructions/movie_1.png","null","",""
"","","","","","image-button-response","11","104048","0.0-6.0-1.0-2.0","25B06F95013D47D9B5BC112264CFF342","25B06F95013D47D9B5BC112264CFF342","180edf25-3d30-4a4a-ba97-34a7e664c476","a0a8f18c-a66e-4ba7-a170-23efbdc67501","{""participantId"":""25B06F95013D47D9B5BC112264CFF342"",""assignmentId"":""180edf25-3d30-4a4a-ba97-34a7e664c476"",""projectId"":""a0a8f18c-a66e-4ba7-a170-23efbdc67501""}","https://test12345.live/?participantId=25B06F95013D47D9B5BC112264CFF342&assignmentId=180edf25-3d30-4a4a-ba97-34a7e664c476&projectId=a0a8f18c-a66e-4ba7-a170-23efbdc67501","25B06F95013D47D9B5BC112264CFF342-2024-11-24-19-35-08","","null","","[]","null","",""
"","","","","","image-button-response","12","108551","0.0-6.0-1.0-0.1","25B06F95013D47D9B5BC112264CFF342","25B06F95013D47D9B5BC112264CFF342","180edf25-3d30-4a4a-ba97-34a7e664c476","a0a8f18c-a66e-4ba7-a170-23efbdc67501","{""participantId"":""25B06F95013D47D9B5BC112264CFF342"",""assignmentId"":""180edf25-3d30-4a4a-ba97-34a7e664c476"",""projectId"":""a0a8f18c-a66e-4ba7-a170-23efbdc67501""}","https://test12345.live/?participantId=25B06F95013D47D9B5BC112264CFF342&assignmentId=180edf25-3d30-4a4a-ba97-34a7e664c476&projectId=a0a8f18c-a66e-4ba7-a170-23efbdc67501","25B06F95013D47D9B5BC112264CFF342-2024-11-24-19-35-08","","null","","images/instructions/movie_2.png","null","",""
"","","","","","image-button-response","13","110572","0.0-6.0-1.0-1.1","25B06F95013D47D9B5BC112264CFF342","25B06F95013D47D9B5BC112264CFF342","180edf25-3d30-4a4a-ba97-34a7e664c476","a0a8f18c-a66e-4ba7-a170-23efbdc67501","{""participantId"":""25B06F95013D47D9B5BC112264CFF342"",""assignmentId"":""180edf25-3d30-4a4a-ba97-34a7e664c476"",""projectId"":""a0a8f18c-a66e-4ba7-a170-23efbdc67501""}","https://test12345.live/?participantId=25B06F95013D47D9B5BC112264CFF342&assignmentId=180edf25-3d30-4a4a-ba97-34a7e664c476&projectId=a0a8f18c-a66e-4ba7-a170-23efbdc67501","25B06F95013D47D9B5BC112264CFF342-2024-11-24-19-35-08","","2019","","images/instructions/movie_2.png","1","",""
"","","","","","image-button-response","14","112387","0.0-6.0-1.0-2.1","25B06F95013D47D9B5BC112264CFF342","25B06F95013D47D9B5BC112264CFF342","180edf25-3d30-4a4a-ba97-34a7e664c476","a0a8f18c-a66e-4ba7-a170-23efbdc67501","{""participantId"":""25B06F95013D47D9B5BC112264CFF342"",""assignmentId"":""180edf25-3d30-4a4a-ba97-34a7e664c476"",""projectId"":""a0a8f18c-a66e-4ba7-a170-23efbdc67501""}","https://test12345.live/?participantId=25B06F95013D47D9B5BC112264CFF342&assignmentId=180edf25-3d30-4a4a-ba97-34a7e664c476&projectId=a0a8f18c-a66e-4ba7-a170-23efbdc67501","25B06F95013D47D9B5BC112264CFF342-2024-11-24-19-35-08","","null","","[]","null","",""
"","","","","","image-button-response","15","116904","0.0-6.0-1.0-0.2","25B06F95013D47D9B5BC112264CFF342","25B06F95013D47D9B5BC112264CFF342","180edf25-3d30-4a4a-ba97-34a7e664c476","a0a8f18c-a66e-4ba7-a170-23efbdc67501","{""participantId"":""25B06F95013D47D9B5BC112264CFF342"",""assignmentId"":""180edf25-3d30-4a4a-ba97-34a7e664c476"",""projectId"":""a0a8f18c-a66e-4ba7-a170-23efbdc67501""}","https://test12345.live/?participantId=25B06F95013D47D9B5BC112264CFF342&assignmentId=180edf25-3d30-4a4a-ba97-34a7e664c476&projectId=a0a8f18c-a66e-4ba7-a170-23efbdc67501","25B06F95013D47D9B5BC112264CFF342-2024-11-24-19-35-08","","null","","images/instructions/movie_3.png","null","",""
"","","","","","image-button-response","16","118745","0.0-6.0-1.0-1.2","25B06F95013D47D9B5BC112264CFF342","25B06F95013D47D9B5BC112264CFF342","180edf25-3d30-4a4a-ba97-34a7e664c476","a0a8f18c-a66e-4ba7-a170-23efbdc67501","{""participantId"":""25B06F95013D47D9B5BC112264CFF342"",""assignmentId"":""180edf25-3d30-4a4a-ba97-34a7e664c476"",""projectId"":""a0a8f18c-a66e-4ba7-a170-23efbdc67501""}","https://test12345.live/?participantId=25B06F95013D47D9B5BC112264CFF342&assignmentId=180edf25-3d30-4a4a-ba97-34a7e664c476&projectId=a0a8f18c-a66e-4ba7-a170-23efbdc67501","25B06F95013D47D9B5BC112264CFF342-2024-11-24-19-35-08","","1839","","images/instructions/movie_3.png","0","",""
"","","","","","image-button-response","17","120552","0.0-6.0-1.0-2.2","25B06F95013D47D9B5BC112264CFF342","25B06F95013D47D9B5BC112264CFF342","180edf25-3d30-4a4a-ba97-34a7e664c476","a0a8f18c-a66e-4ba7-a170-23efbdc67501","{""participantId"":""25B06F95013D47D9B5BC112264CFF342"",""assignmentId"":""180edf25-3d30-4a4a-ba97-34a7e664c476"",""projectId"":""a0a8f18c-a66e-4ba7-a170-23efbdc67501""}","https://test12345.live/?participantId=25B06F95013D47D9B5BC112264CFF342&assignmentId=180edf25-3d30-4a4a-ba97-34a7e664c476&projectId=a0a8f18c-a66e-4ba7-a170-23efbdc67501","25B06F95013D47D9B5BC112264CFF342-2024-11-24-19-35-08","","null","","[]","null","",""
"","","","","","image-button-response","18","125065","0.0-6.0-1.0-0.3","25B06F95013D47D9B5BC112264CFF342","25B06F95013D47D9B5BC112264CFF342","180edf25-3d30-4a4a-ba97-34a7e664c476","a0a8f18c-a66e-4ba7-a170-23efbdc67501","{""participantId"":""25B06F95013D47D9B5BC112264CFF342"",""assignmentId"":""180edf25-3d30-4a4a-ba97-34a7e664c476"",""projectId"":""a0a8f18c-a66e-4ba7-a170-23efbdc67501""}","https://test12345.live/?participantId=25B06F95013D47D9B5BC112264CFF342&assignmentId=180edf25-3d30-4a4a-ba97-34a7e664c476&projectId=a0a8f18c-a66e-4ba7-a170-23efbdc67501","25B06F95013D47D9B5BC112264CFF342-2024-11-24-19-35-08","","null","","images/instructions/movie_4.png","null","",""
"","","","","","image-button-response","19","126882","0.0-6.0-1.0-1.3","25B06F95013D47D9B5BC112264CFF342","25B06F95013D47D9B5BC112264CFF342","180edf25-3d30-4a4a-ba97-34a7e664c476","a0a8f18c-a66e-4ba7-a170-23efbdc67501","{""participantId"":""25B06F95013D47D9B5BC112264CFF342"",""assignmentId"":""180edf25-3d30-4a4a-ba97-34a7e664c476"",""projectId"":""a0a8f18c-a66e-4ba7-a170-23efbdc67501""}","https://test12345.live/?participantId=25B06F95013D47D9B5BC112264CFF342&assignmentId=180edf25-3d30-4a4a-ba97-34a7e664c476&projectId=a0a8f18c-a66e-4ba7-a170-23efbdc67501","25B06F95013D47D9B5BC112264CFF342-2024-11-24-19-35-08","","1815","","images/instructions/movie_4.png","0","",""
"","","","","","image-button-response","20","128689","0.0-6.0-1.0-2.3","25B06F95013D47D9B5BC112264CFF342","25B06F95013D47D9B5BC112264CFF342","180edf25-3d30-4a4a-ba97-34a7e664c476","a0a8f18c-a66e-4ba7-a170-23efbdc67501","{""participantId"":""25B06F95013D47D9B5BC112264CFF342"",""assignmentId"":""180edf25-3d30-4a4a-ba97-34a7e664c476"",""projectId"":""a0a8f18c-a66e-4ba7-a170-23efbdc67501""}","https://test12345.live/?participantId=25B06F95013D47D9B5BC112264CFF342&assignmentId=180edf25-3d30-4a4a-ba97-34a7e664c476&projectId=a0a8f18c-a66e-4ba7-a170-23efbdc67501","25B06F95013D47D9B5BC112264CFF342-2024-11-24-19-35-08","","null","","[]","null","",""
"","","","","","instructions","21","161130","0.0-7.0","25B06F95013D47D9B5BC112264CFF342","25B06F95013D47D9B5BC112264CFF342","180edf25-3d30-4a4a-ba97-34a7e664c476","a0a8f18c-a66e-4ba7-a170-23efbdc67501","{""participantId"":""25B06F95013D47D9B5BC112264CFF342"",""assignmentId"":""180edf25-3d30-4a4a-ba97-34a7e664c476"",""projectId"":""a0a8f18c-a66e-4ba7-a170-23efbdc67501""}","https://test12345.live/?participantId=25B06F95013D47D9B5BC112264CFF342&assignmentId=180edf25-3d30-4a4a-ba97-34a7e664c476&projectId=a0a8f18c-a66e-4ba7-a170-23efbdc67501","25B06F95013D47D9B5BC112264CFF342-2024-11-24-19-35-08","[{""page_index"":0,""viewing_time"":30149},{""page_index"":1,""viewing_time"":2290}]","32440","","","","",""
"","","","","","html-audio-response","22","219141","0.0-8.0","25B06F95013D47D9B5BC112264CFF342","25B06F95013D47D9B5BC112264CFF342","180edf25-3d30-4a4a-ba97-34a7e664c476","a0a8f18c-a66e-4ba7-a170-23efbdc67501","{""participantId"":""25B06F95013D47D9B5BC112264CFF342"",""assignmentId"":""180edf25-3d30-4a4a-ba97-34a7e664c476"",""projectId"":""a0a8f18c-a66e-4ba7-a170-23efbdc67501""}","https://test12345.live/?participantId=25B06F95013D47D9B5BC112264CFF342&assignmentId=180edf25-3d30-4a4a-ba97-34a7e664c476&projectId=a0a8f18c-a66e-4ba7-a170-23efbdc67501","25B06F95013D47D9B5BC112264CFF342-2024-11-24-19-35-08","","5096","","[""<span style=\""color: red; font-size: 24px\""> NOW RECORDING</span><p>Please say out loud all the images you saw, as many as you can remember. The images can be said in any order.</p>""]","","1",""
"","","","","","instructions","23","221529","0.0-9.0","25B06F95013D47D9B5BC112264CFF342","25B06F95013D47D9B5BC112264CFF342","180edf25-3d30-4a4a-ba97-34a7e664c476","a0a8f18c-a66e-4ba7-a170-23efbdc67501","{""participantId"":""25B06F95013D47D9B5BC112264CFF342"",""assignmentId"":""180edf25-3d30-4a4a-ba97-34a7e664c476"",""projectId"":""a0a8f18c-a66e-4ba7-a170-23efbdc67501""}","https://test12345.live/?participantId=25B06F95013D47D9B5BC112264CFF342&assignmentId=180edf25-3d30-4a4a-ba97-34a7e664c476&projectId=a0a8f18c-a66e-4ba7-a170-23efbdc67501","25B06F95013D47D9B5BC112264CFF342-2024-11-24-19-35-08","[{""page_index"":0,""viewing_time"":2384}]","2384","","","","",""
"","","","","","image-button-response","24","227543","0.0-10.0-0.0","25B06F95013D47D9B5BC112264CFF342","25B06F95013D47D9B5BC112264CFF342","180edf25-3d30-4a4a-ba97-34a7e664c476","a0a8f18c-a66e-4ba7-a170-23efbdc67501","{""participantId"":""25B06F95013D47D9B5BC112264CFF342"",""assignmentId"":""180edf25-3d30-4a4a-ba97-34a7e664c476"",""projectId"":""a0a8f18c-a66e-4ba7-a170-23efbdc67501""}","https://test12345.live/?participantId=25B06F95013D47D9B5BC112264CFF342&assignmentId=180edf25-3d30-4a4a-ba97-34a7e664c476&projectId=a0a8f18c-a66e-4ba7-a170-23efbdc67501","25B06F95013D47D9B5BC112264CFF342-2024-11-24-19-35-08","","null","","images/causal_sequence/dog_causal/dog_causal_0.png","null","",""
"","","","","","image-button-response","25","232060","0.0-10.0-1.0-0.0","25B06F95013D47D9B5BC112264CFF342","25B06F95013D47D9B5BC112264CFF342","180edf25-3d30-4a4a-ba97-34a7e664c476","a0a8f18c-a66e-4ba7-a170-23efbdc67501","{""participantId"":""25B06F95013D47D9B5BC112264CFF342"",""assignmentId"":""180edf25-3d30-4a4a-ba97-34a7e664c476"",""projectId"":""a0a8f18c-a66e-4ba7-a170-23efbdc67501""}","https://test12345.live/?participantId=25B06F95013D47D9B5BC112264CFF342&assignmentId=180edf25-3d30-4a4a-ba97-34a7e664c476&projectId=a0a8f18c-a66e-4ba7-a170-23efbdc67501","25B06F95013D47D9B5BC112264CFF342-2024-11-24-19-35-08","","null","","images/causal_sequence/dog_causal/dog_causal_1.png","null","",""
"","","","","","image-button-response","26","236070","0.0-10.0-1.0-1.0","25B06F95013D47D9B5BC112264CFF342","25B06F95013D47D9B5BC112264CFF342","180edf25-3d30-4a4a-ba97-34a7e664c476","a0a8f18c-a66e-4ba7-a170-23efbdc67501","{""participantId"":""25B06F95013D47D9B5BC112264CFF342"",""assignmentId"":""180edf25-3d30-4a4a-ba97-34a7e664c476"",""projectId"":""a0a8f18c-a66e-4ba7-a170-23efbdc67501""}","https://test12345.live/?participantId=25B06F95013D47D9B5BC112264CFF342&assignmentId=180edf25-3d30-4a4a-ba97-34a7e664c476&projectId=a0a8f18c-a66e-4ba7-a170-23efbdc67501","25B06F95013D47D9B5BC112264CFF342-2024-11-24-19-35-08","","null","","images/causal_sequence/dog_causal/dog_causal_1.png","null","",""
"","","","","","image-button-response","27","237872","0.0-10.0-1.0-2.0","25B06F95013D47D9B5BC112264CFF342","25B06F95013D47D9B5BC112264CFF342","180edf25-3d30-4a4a-ba97-34a7e664c476","a0a8f18c-a66e-4ba7-a170-23efbdc67501","{""participantId"":""25B06F95013D47D9B5BC112264CFF342"",""assignmentId"":""180edf25-3d30-4a4a-ba97-34a7e664c476"",""projectId"":""a0a8f18c-a66e-4ba7-a170-23efbdc67501""}","https://test12345.live/?participantId=25B06F95013D47D9B5BC112264CFF342&assignmentId=180edf25-3d30-4a4a-ba97-34a7e664c476&projectId=a0a8f18c-a66e-4ba7-a170-23efbdc67501","25B06F95013D47D9B5BC112264CFF342-2024-11-24-19-35-08","","null","","[]","null","",""
"","","","","","image-button-response","28","242373","0.0-10.0-1.0-0.1","25B06F95013D47D9B5BC112264CFF342","25B06F95013D47D9B5BC112264CFF342","180edf25-3d30-4a4a-ba97-34a7e664c476","a0a8f18c-a66e-4ba7-a170-23efbdc67501","{""participantId"":""25B06F95013D47D9B5BC112264CFF342"",""assignmentId"":""180edf25-3d30-4a4a-ba97-34a7e664c476"",""projectId"":""a0a8f18c-a66e-4ba7-a170-23efbdc67501""}","https://test12345.live/?participantId=25B06F95013D47D9B5BC112264CFF342&assignmentId=180edf25-3d30-4a4a-ba97-34a7e664c476&projectId=a0a8f18c-a66e-4ba7-a170-23efbdc67501","25B06F95013D47D9B5BC112264CFF342-2024-11-24-19-35-08","","null","","images/causal_sequence/dog_causal/dog_causal_2.png","null","",""
"","","","","","image-button-response","29","243457","0.0-10.0-1.0-1.1","25B06F95013D47D9B5BC112264CFF342","25B06F95013D47D9B5BC112264CFF342","180edf25-3d30-4a4a-ba97-34a7e664c476","a0a8f18c-a66e-4ba7-a170-23efbdc67501","{""participantId"":""25B06F95013D47D9B5BC112264CFF342"",""assignmentId"":""180edf25-3d30-4a4a-ba97-34a7e664c476"",""projectId"":""a0a8f18c-a66e-4ba7-a170-23efbdc67501""}","https://test12345.live/?participantId=25B06F95013D47D9B5BC112264CFF342&assignmentId=180edf25-3d30-4a4a-ba97-34a7e664c476&projectId=a0a8f18c-a66e-4ba7-a170-23efbdc67501","25B06F95013D47D9B5BC112264CFF342-2024-11-24-19-35-08","","1083","","images/causal_sequence/dog_causal/dog_causal_2.png","0","",""
"","","","","","image-button-response","30","245269","0.0-10.0-1.0-2.1","25B06F95013D47D9B5BC112264CFF342","25B06F95013D47D9B5BC112264CFF342","180edf25-3d30-4a4a-ba97-34a7e664c476","a0a8f18c-a66e-4ba7-a170-23efbdc67501","{""participantId"":""25B06F95013D47D9B5BC112264CFF342"",""assignmentId"":""180edf25-3d30-4a4a-ba97-34a7e664c476"",""projectId"":""a0a8f18c-a66e-4ba7-a170-23efbdc67501""}","https://test12345.live/?participantId=25B06F95013D47D9B5BC112264CFF342&assignmentId=180edf25-3d30-4a4a-ba97-34a7e664c476&projectId=a0a8f18c-a66e-4ba7-a170-23efbdc67501","25B06F95013D47D9B5BC112264CFF342-2024-11-24-19-35-08","","null","","[]","null","",""
"","","","","","image-button-response","31","249783","0.0-10.0-1.0-0.2","25B06F95013D47D9B5BC112264CFF342","25B06F95013D47D9B5BC112264CFF342","180edf25-3d30-4a4a-ba97-34a7e664c476","a0a8f18c-a66e-4ba7-a170-23efbdc67501","{""participantId"":""25B06F95013D47D9B5BC112264CFF342"",""assignmentId"":""180edf25-3d30-4a4a-ba97-34a7e664c476"",""projectId"":""a0a8f18c-a66e-4ba7-a170-23efbdc67501""}","https://test12345.live/?participantId=25B06F95013D47D9B5BC112264CFF342&assignmentId=180edf25-3d30-4a4a-ba97-34a7e664c476&projectId=a0a8f18c-a66e-4ba7-a170-23efbdc67501","25B06F95013D47D9B5BC112264CFF342-2024-11-24-19-35-08","","null","","images/causal_sequence/dog_causal/dog_causal_3.png","null","",""
"","","","","","image-button-response","32","250954","0.0-10.0-1.0-1.2","25B06F95013D47D9B5BC112264CFF342","25B06F95013D47D9B5BC112264CFF342","180edf25-3d30-4a4a-ba97-34a7e664c476","a0a8f18c-a66e-4ba7-a170-23efbdc67501","{""participantId"":""25B06F95013D47D9B5BC112264CFF342"",""assignmentId"":""180edf25-3d30-4a4a-ba97-34a7e664c476"",""projectId"":""a0a8f18c-a66e-4ba7-a170-23efbdc67501""}","https://test12345.live/?participantId=25B06F95013D47D9B5BC112264CFF342&assignmentId=180edf25-3d30-4a4a-ba97-34a7e664c476&projectId=a0a8f18c-a66e-4ba7-a170-23efbdc67501","25B06F95013D47D9B5BC112264CFF342-2024-11-24-19-35-08","","1170","","images/causal_sequence/dog_causal/dog_causal_3.png","0","",""
"","","","","","image-button-response","33","252760","0.0-10.0-1.0-2.2","25B06F95013D47D9B5BC112264CFF342","25B06F95013D47D9B5BC112264CFF342","180edf25-3d30-4a4a-ba97-34a7e664c476","a0a8f18c-a66e-4ba7-a170-23efbdc67501","{""participantId"":""25B06F95013D47D9B5BC112264CFF342"",""assignmentId"":""180edf25-3d30-4a4a-ba97-34a7e664c476"",""projectId"":""a0a8f18c-a66e-4ba7-a170-23efbdc67501""}","https://test12345.live/?participantId=25B06F95013D47D9B5BC112264CFF342&assignmentId=180edf25-3d30-4a4a-ba97-34a7e664c476&projectId=a0a8f18c-a66e-4ba7-a170-23efbdc67501","25B06F95013D47D9B5BC112264CFF342-2024-11-24-19-35-08","","null","","[]","null","",""
"","","","","","image-button-response","34","257266","0.0-10.0-1.0-0.3","25B06F95013D47D9B5BC112264CFF342","25B06F95013D47D9B5BC112264CFF342","180edf25-3d30-4a4a-ba97-34a7e664c476","a0a8f18c-a66e-4ba7-a170-23efbdc67501","{""participantId"":""25B06F95013D47D9B5BC112264CFF342"",""assignmentId"":""180edf25-3d30-4a4a-ba97-34a7e664c476"",""projectId"":""a0a8f18c-a66e-4ba7-a170-23efbdc67501""}","https://test12345.live/?participantId=25B06F95013D47D9B5BC112264CFF342&assignmentId=180edf25-3d30-4a4a-ba97-34a7e664c476&projectId=a0a8f18c-a66e-4ba7-a170-23efbdc67501","25B06F95013D47D9B5BC112264CFF342-2024-11-24-19-35-08","","null","","images/causal_sequence/dog_causal/dog_causal_4.png","null","",""
"","","","","","image-button-response","35","258506","0.0-10.0-1.0-1.3","25B06F95013D47D9B5BC112264CFF342","25B06F95013D47D9B5BC112264CFF342","180edf25-3d30-4a4a-ba97-34a7e664c476","a0a8f18c-a66e-4ba7-a170-23efbdc67501","{""participantId"":""25B06F95013D47D9B5BC112264CFF342"",""assignmentId"":""180edf25-3d30-4a4a-ba97-34a7e664c476"",""projectId"":""a0a8f18c-a66e-4ba7-a170-23efbdc67501""}","https://test12345.live/?participantId=25B06F95013D47D9B5BC112264CFF342&assignmentId=180edf25-3d30-4a4a-ba97-34a7e664c476&projectId=a0a8f18c-a66e-4ba7-a170-23efbdc67501","25B06F95013D47D9B5BC112264CFF342-2024-11-24-19-35-08","","1238","","images/causal_sequence/dog_causal/dog_causal_4.png","0","",""
"","","","","","image-button-response","36","260319","0.0-10.0-1.0-2.3","25B06F95013D47D9B5BC112264CFF342","25B06F95013D47D9B5BC112264CFF342","180edf25-3d30-4a4a-ba97-34a7e664c476","a0a8f18c-a66e-4ba7-a170-23efbdc67501","{""participantId"":""25B06F95013D47D9B5BC112264CFF342"",""assignmentId"":""180edf25-3d30-4a4a-ba97-34a7e664c476"",""projectId"":""a0a8f18c-a66e-4ba7-a170-23efbdc67501""}","https://test12345.live/?participantId=25B06F95013D47D9B5BC112264CFF342&assignmentId=180edf25-3d30-4a4a-ba97-34a7e664c476&projectId=a0a8f18c-a66e-4ba7-a170-23efbdc67501","25B06F95013D47D9B5BC112264CFF342-2024-11-24-19-35-08","","null","","[]","null","",""
"","","","","","image-button-response","37","264820","0.0-10.0-1.0-0.4","25B06F95013D47D9B5BC112264CFF342","25B06F95013D47D9B5BC112264CFF342","180edf25-3d30-4a4a-ba97-34a7e664c476","a0a8f18c-a66e-4ba7-a170-23efbdc67501","{""participantId"":""25B06F95013D47D9B5BC112264CFF342"",""assignmentId"":""180edf25-3d30-4a4a-ba97-34a7e664c476"",""projectId"":""a0a8f18c-a66e-4ba7-a170-23efbdc67501""}","https://test12345.live/?participantId=25B06F95013D47D9B5BC112264CFF342&assignmentId=180edf25-3d30-4a4a-ba97-34a7e664c476&projectId=a0a8f18c-a66e-4ba7-a170-23efbdc67501","25B06F95013D47D9B5BC112264CFF342-2024-11-24-19-35-08","","null","","images/causal_sequence/dog_causal/dog_causal_5.png","null","",""
"","","","","","image-button-response","38","265983","0.0-10.0-1.0-1.4","25B06F95013D47D9B5BC112264CFF342","25B06F95013D47D9B5BC112264CFF342","180edf25-3d30-4a4a-ba97-34a7e664c476","a0a8f18c-a66e-4ba7-a170-23efbdc67501","{""participantId"":""25B06F95013D47D9B5BC112264CFF342"",""assignmentId"":""180edf25-3d30-4a4a-ba97-34a7e664c476"",""projectId"":""a0a8f18c-a66e-4ba7-a170-23efbdc67501""}","https://test12345.live/?participantId=25B06F95013D47D9B5BC112264CFF342&assignmentId=180edf25-3d30-4a4a-ba97-34a7e664c476&projectId=a0a8f18c-a66e-4ba7-a170-23efbdc67501","25B06F95013D47D9B5BC112264CFF342-2024-11-24-19-35-08","","1161","","images/causal_sequence/dog_causal/dog_causal_5.png","0","",""
"","","","","","image-button-response","39","267787","0.0-10.0-1.0-2.4","25B06F95013D47D9B5BC112264CFF342","25B06F95013D47D9B5BC112264CFF342","180edf25-3d30-4a4a-ba97-34a7e664c476","a0a8f18c-a66e-4ba7-a170-23efbdc67501","{""participantId"":""25B06F95013D47D9B5BC112264CFF342"",""assignmentId"":""180edf25-3d30-4a4a-ba97-34a7e664c476"",""projectId"":""a0a8f18c-a66e-4ba7-a170-23efbdc67501""}","https://test12345.live/?participantId=25B06F95013D47D9B5BC112264CFF342&assignmentId=180edf25-3d30-4a4a-ba97-34a7e664c476&projectId=a0a8f18c-a66e-4ba7-a170-23efbdc67501","25B06F95013D47D9B5BC112264CFF342-2024-11-24-19-35-08","","null","","[]","null","",""
"","","","","","image-button-response","40","272292","0.0-10.0-1.0-0.5","25B06F95013D47D9B5BC112264CFF342","25B06F95013D47D9B5BC112264CFF342","180edf25-3d30-4a4a-ba97-34a7e664c476","a0a8f18c-a66e-4ba7-a170-23efbdc67501","{""participantId"":""25B06F95013D47D9B5BC112264CFF342"",""assignmentId"":""180edf25-3d30-4a4a-ba97-34a7e664c476"",""projectId"":""a0a8f18c-a66e-4ba7-a170-23efbdc67501""}","https://test12345.live/?participantId=25B06F95013D47D9B5BC112264CFF342&assignmentId=180edf25-3d30-4a4a-ba97-34a7e664c476&projectId=a0a8f18c-a66e-4ba7-a170-23efbdc67501","25B06F95013D47D9B5BC112264CFF342-2024-11-24-19-35-08","","null","","images/causal_sequence/dog_causal/dog_causal_6.png","null","",""
"","","","","","image-button-response","41","273373","0.0-10.0-1.0-1.5","25B06F95013D47D9B5BC112264CFF342","25B06F95013D47D9B5BC112264CFF342","180edf25-3d30-4a4a-ba97-34a7e664c476","a0a8f18c-a66e-4ba7-a170-23efbdc67501","{""participantId"":""25B06F95013D47D9B5BC112264CFF342"",""assignmentId"":""180edf25-3d30-4a4a-ba97-34a7e664c476"",""projectId"":""a0a8f18c-a66e-4ba7-a170-23efbdc67501""}","https://test12345.live/?participantId=25B06F95013D47D9B5BC112264CFF342&assignmentId=180edf25-3d30-4a4a-ba97-34a7e664c476&projectId=a0a8f18c-a66e-4ba7-a170-23efbdc67501","25B06F95013D47D9B5BC112264CFF342-2024-11-24-19-35-08","","1079","","images/causal_sequence/dog_causal/dog_causal_6.png","0","",""
"","","","","","image-button-response","42","275177","0.0-10.0-1.0-2.5","25B06F95013D47D9B5BC112264CFF342","25B06F95013D47D9B5BC112264CFF342","180edf25-3d30-4a4a-ba97-34a7e664c476","a0a8f18c-a66e-4ba7-a170-23efbdc67501","{""participantId"":""25B06F95013D47D9B5BC112264CFF342"",""assignmentId"":""180edf25-3d30-4a4a-ba97-34a7e664c476"",""projectId"":""a0a8f18c-a66e-4ba7-a170-23efbdc67501""}","https://test12345.live/?participantId=25B06F95013D47D9B5BC112264CFF342&assignmentId=180edf25-3d30-4a4a-ba97-34a7e664c476&projectId=a0a8f18c-a66e-4ba7-a170-23efbdc67501","25B06F95013D47D9B5BC112264CFF342-2024-11-24-19-35-08","","null","","[]","null","",""
"","","","","","image-button-response","43","279684","0.0-10.0-1.0-0.6","25B06F95013D47D9B5BC112264CFF342","25B06F95013D47D9B5BC112264CFF342","180edf25-3d30-4a4a-ba97-34a7e664c476","a0a8f18c-a66e-4ba7-a170-23efbdc67501","{""participantId"":""25B06F95013D47D9B5BC112264CFF342"",""assignmentId"":""180edf25-3d30-4a4a-ba97-34a7e664c476"",""projectId"":""a0a8f18c-a66e-4ba7-a170-23efbdc67501""}","https://test12345.live/?participantId=25B06F95013D47D9B5BC112264CFF342&assignmentId=180edf25-3d30-4a4a-ba97-34a7e664c476&projectId=a0a8f18c-a66e-4ba7-a170-23efbdc67501","25B06F95013D47D9B5BC112264CFF342-2024-11-24-19-35-08","","null","","images/causal_sequence/dog_causal/dog_causal_7.png","null","",""
"","","","","","image-button-response","44","281535","0.0-10.0-1.0-1.6","25B06F95013D47D9B5BC112264CFF342","25B06F95013D47D9B5BC112264CFF342","180edf25-3d30-4a4a-ba97-34a7e664c476","a0a8f18c-a66e-4ba7-a170-23efbdc67501","{""participantId"":""25B06F95013D47D9B5BC112264CFF342"",""assignmentId"":""180edf25-3d30-4a4a-ba97-34a7e664c476"",""projectId"":""a0a8f18c-a66e-4ba7-a170-23efbdc67501""}","https://test12345.live/?participantId=25B06F95013D47D9B5BC112264CFF342&assignmentId=180edf25-3d30-4a4a-ba97-34a7e664c476&projectId=a0a8f18c-a66e-4ba7-a170-23efbdc67501","25B06F95013D47D9B5BC112264CFF342-2024-11-24-19-35-08","","1850","","images/causal_sequence/dog_causal/dog_causal_7.png","0","",""
"","","","","","image-button-response","45","283345","0.0-10.0-1.0-2.6","25B06F95013D47D9B5BC112264CFF342","25B06F95013D47D9B5BC112264CFF342","180edf25-3d30-4a4a-ba97-34a7e664c476","a0a8f18c-a66e-4ba7-a170-23efbdc67501","{""participantId"":""25B06F95013D47D9B5BC112264CFF342"",""assignmentId"":""180edf25-3d30-4a4a-ba97-34a7e664c476"",""projectId"":""a0a8f18c-a66e-4ba7-a170-23efbdc67501""}","https://test12345.live/?participantId=25B06F95013D47D9B5BC112264CFF342&assignmentId=180edf25-3d30-4a4a-ba97-34a7e664c476&projectId=a0a8f18c-a66e-4ba7-a170-23efbdc67501","25B06F95013D47D9B5BC112264CFF342-2024-11-24-19-35-08","","null","","[]","null","",""
"","","","","","image-button-response","46","287847","0.0-10.0-1.0-0.7","25B06F95013D47D9B5BC112264CFF342","25B06F95013D47D9B5BC112264CFF342","180edf25-3d30-4a4a-ba97-34a7e664c476","a0a8f18c-a66e-4ba7-a170-23efbdc67501","{""participantId"":""25B06F95013D47D9B5BC112264CFF342"",""assignmentId"":""180edf25-3d30-4a4a-ba97-34a7e664c476"",""projectId"":""a0a8f18c-a66e-4ba7-a170-23efbdc67501""}","https://test12345.live/?participantId=25B06F95013D47D9B5BC112264CFF342&assignmentId=180edf25-3d30-4a4a-ba97-34a7e664c476&projectId=a0a8f18c-a66e-4ba7-a170-23efbdc67501","25B06F95013D47D9B5BC112264CFF342-2024-11-24-19-35-08","","null","","images/causal_sequence/dog_causal/dog_causal_8.png","null","",""
"","","","","","image-button-response","47","289092","0.0-10.0-1.0-1.7","25B06F95013D47D9B5BC112264CFF342","25B06F95013D47D9B5BC112264CFF342","180edf25-3d30-4a4a-ba97-34a7e664c476","a0a8f18c-a66e-4ba7-a170-23efbdc67501","{""participantId"":""25B06F95013D47D9B5BC112264CFF342"",""assignmentId"":""180edf25-3d30-4a4a-ba97-34a7e664c476"",""projectId"":""a0a8f18c-a66e-4ba7-a170-23efbdc67501""}","https://test12345.live/?participantId=25B06F95013D47D9B5BC112264CFF342&assignmentId=180edf25-3d30-4a4a-ba97-34a7e664c476&projectId=a0a8f18c-a66e-4ba7-a170-23efbdc67501","25B06F95013D47D9B5BC112264CFF342-2024-11-24-19-35-08","","1244","","images/causal_sequence/dog_causal/dog_causal_8.png","0","",""
"","","","","","image-button-response","48","290905","0.0-10.0-1.0-2.7","25B06F95013D47D9B5BC112264CFF342","25B06F95013D47D9B5BC112264CFF342","180edf25-3d30-4a4a-ba97-34a7e664c476","a0a8f18c-a66e-4ba7-a170-23efbdc67501","{""participantId"":""25B06F95013D47D9B5BC112264CFF342"",""assignmentId"":""180edf25-3d30-4a4a-ba97-34a7e664c476"",""projectId"":""a0a8f18c-a66e-4ba7-a170-23efbdc67501""}","https://test12345.live/?participantId=25B06F95013D47D9B5BC112264CFF342&assignmentId=180edf25-3d30-4a4a-ba97-34a7e664c476&projectId=a0a8f18c-a66e-4ba7-a170-23efbdc67501","25B06F95013D47D9B5BC112264CFF342-2024-11-24-19-35-08","","null","","[]","null","",""
"","","","","","image-button-response","49","295420","0.0-10.0-1.0-0.8","25B06F95013D47D9B5BC112264CFF342","25B06F95013D47D9B5BC112264CFF342","180edf25-3d30-4a4a-ba97-34a7e664c476","a0a8f18c-a66e-4ba7-a170-23efbdc67501","{""participantId"":""25B06F95013D47D9B5BC112264CFF342"",""assignmentId"":""180edf25-3d30-4a4a-ba97-34a7e664c476"",""projectId"":""a0a8f18c-a66e-4ba7-a170-23efbdc67501""}","https://test12345.live/?participantId=25B06F95013D47D9B5BC112264CFF342&assignmentId=180edf25-3d30-4a4a-ba97-34a7e664c476&projectId=a0a8f18c-a66e-4ba7-a170-23efbdc67501","25B06F95013D47D9B5BC112264CFF342-2024-11-24-19-35-08","","null","","images/causal_sequence/dog_causal/dog_causal_9.png","null","",""
"","","","","","image-button-response","50","296597","0.0-10.0-1.0-1.8","25B06F95013D47D9B5BC112264CFF342","25B06F95013D47D9B5BC112264CFF342","180edf25-3d30-4a4a-ba97-34a7e664c476","a0a8f18c-a66e-4ba7-a170-23efbdc67501","{""participantId"":""25B06F95013D47D9B5BC112264CFF342"",""assignmentId"":""180edf25-3d30-4a4a-ba97-34a7e664c476"",""projectId"":""a0a8f18c-a66e-4ba7-a170-23efbdc67501""}","https://test12345.live/?participantId=25B06F95013D47D9B5BC112264CFF342&assignmentId=180edf25-3d30-4a4a-ba97-34a7e664c476&projectId=a0a8f18c-a66e-4ba7-a170-23efbdc67501","25B06F95013D47D9B5BC112264CFF342-2024-11-24-19-35-08","","1176","","images/causal_sequence/dog_causal/dog_causal_9.png","0","",""
"","","","","","image-button-response","51","298400","0.0-10.0-1.0-2.8","25B06F95013D47D9B5BC112264CFF342","25B06F95013D47D9B5BC112264CFF342","180edf25-3d30-4a4a-ba97-34a7e664c476","a0a8f18c-a66e-4ba7-a170-23efbdc67501","{""participantId"":""25B06F95013D47D9B5BC112264CFF342"",""assignmentId"":""180edf25-3d30-4a4a-ba97-34a7e664c476"",""projectId"":""a0a8f18c-a66e-4ba7-a170-23efbdc67501""}","https://test12345.live/?participantId=25B06F95013D47D9B5BC112264CFF342&assignmentId=180edf25-3d30-4a4a-ba97-34a7e664c476&projectId=a0a8f18c-a66e-4ba7-a170-23efbdc67501","25B06F95013D47D9B5BC112264CFF342-2024-11-24-19-35-08","","null","","[]","null","",""
"","","","","","image-button-response","52","302901","0.0-10.0-1.0-0.9","25B06F95013D47D9B5BC112264CFF342","25B06F95013D47D9B5BC112264CFF342","180edf25-3d30-4a4a-ba97-34a7e664c476","a0a8f18c-a66e-4ba7-a170-23efbdc67501","{""participantId"":""25B06F95013D47D9B5BC112264CFF342"",""assignmentId"":""180edf25-3d30-4a4a-ba97-34a7e664c476"",""projectId"":""a0a8f18c-a66e-4ba7-a170-23efbdc67501""}","https://test12345.live/?participantId=25B06F95013D47D9B5BC112264CFF342&assignmentId=180edf25-3d30-4a4a-ba97-34a7e664c476&projectId=a0a8f18c-a66e-4ba7-a170-23efbdc67501","25B06F95013D47D9B5BC112264CFF342-2024-11-24-19-35-08","","null","","images/causal_sequence/dog_causal/dog_causal_ten.png","null","",""
"","","","","","image-button-response","53","304684","0.0-10.0-1.0-1.9","25B06F95013D47D9B5BC112264CFF342","25B06F95013D47D9B5BC112264CFF342","180edf25-3d30-4a4a-ba97-34a7e664c476","a0a8f18c-a66e-4ba7-a170-23efbdc67501","{""participantId"":""25B06F95013D47D9B5BC112264CFF342"",""assignmentId"":""180edf25-3d30-4a4a-ba97-34a7e664c476"",""projectId"":""a0a8f18c-a66e-4ba7-a170-23efbdc67501""}","https://test12345.live/?participantId=25B06F95013D47D9B5BC112264CFF342&assignmentId=180edf25-3d30-4a4a-ba97-34a7e664c476&projectId=a0a8f18c-a66e-4ba7-a170-23efbdc67501","25B06F95013D47D9B5BC112264CFF342-2024-11-24-19-35-08","","1781","","images/causal_sequence/dog_causal/dog_causal_ten.png","0","",""
"","","","","","image-button-response","54","306487","0.0-10.0-1.0-2.9","25B06F95013D47D9B5BC112264CFF342","25B06F95013D47D9B5BC112264CFF342","180edf25-3d30-4a4a-ba97-34a7e664c476","a0a8f18c-a66e-4ba7-a170-23efbdc67501","{""participantId"":""25B06F95013D47D9B5BC112264CFF342"",""assignmentId"":""180edf25-3d30-4a4a-ba97-34a7e664c476"",""projectId"":""a0a8f18c-a66e-4ba7-a170-23efbdc67501""}","https://test12345.live/?participantId=25B06F95013D47D9B5BC112264CFF342&assignmentId=180edf25-3d30-4a4a-ba97-34a7e664c476&projectId=a0a8f18c-a66e-4ba7-a170-23efbdc67501","25B06F95013D47D9B5BC112264CFF342-2024-11-24-19-35-08","","null","","[]","null","",""
"","","","","","html-audio-response","55","364526","0.0-11.0","25B06F95013D47D9B5BC112264CFF342","25B06F95013D47D9B5BC112264CFF342","180edf25-3d30-4a4a-ba97-34a7e664c476","a0a8f18c-a66e-4ba7-a170-23efbdc67501","{""participantId"":""25B06F95013D47D9B5BC112264CFF342"",""assignmentId"":""180edf25-3d30-4a4a-ba97-34a7e664c476"",""projectId"":""a0a8f18c-a66e-4ba7-a170-23efbdc67501""}","https://test12345.live/?participantId=25B06F95013D47D9B5BC112264CFF342&assignmentId=180edf25-3d30-4a4a-ba97-34a7e664c476&projectId=a0a8f18c-a66e-4ba7-a170-23efbdc67501","25B06F95013D47D9B5BC112264CFF342-2024-11-24-19-35-08","","15373","","[""<span style=\""color: red; font-size: 24px\""> NOW RECORDING</span><p>Please say out loud all the images you saw, as many as you can remember. The images can be said in any order.</p>""]","","2","dog_causal"
"","","","","","image-button-response","56","370547","0.0-12.0-0.0","25B06F95013D47D9B5BC112264CFF342","25B06F95013D47D9B5BC112264CFF342","180edf25-3d30-4a4a-ba97-34a7e664c476","a0a8f18c-a66e-4ba7-a170-23efbdc67501","{""participantId"":""25B06F95013D47D9B5BC112264CFF342"",""assignmentId"":""180edf25-3d30-4a4a-ba97-34a7e664c476"",""projectId"":""a0a8f18c-a66e-4ba7-a170-23efbdc67501""}","https://test12345.live/?participantId=25B06F95013D47D9B5BC112264CFF342&assignmentId=180edf25-3d30-4a4a-ba97-34a7e664c476&projectId=a0a8f18c-a66e-4ba7-a170-23efbdc67501","25B06F95013D47D9B5BC112264CFF342-2024-11-24-19-35-08","","null","","images/semantic_sequence/physical_activity_semantic/physical_activity_semantic_0.png","null","",""
"","","","","","image-button-response","57","375048","0.0-12.0-1.0-0.0","25B06F95013D47D9B5BC112264CFF342","25B06F95013D47D9B5BC112264CFF342","180edf25-3d30-4a4a-ba97-34a7e664c476","a0a8f18c-a66e-4ba7-a170-23efbdc67501","{""participantId"":""25B06F95013D47D9B5BC112264CFF342"",""assignmentId"":""180edf25-3d30-4a4a-ba97-34a7e664c476"",""projectId"":""a0a8f18c-a66e-4ba7-a170-23efbdc67501""}","https://test12345.live/?participantId=25B06F95013D47D9B5BC112264CFF342&assignmentId=180edf25-3d30-4a4a-ba97-34a7e664c476&projectId=a0a8f18c-a66e-4ba7-a170-23efbdc67501","25B06F95013D47D9B5BC112264CFF342-2024-11-24-19-35-08","","null","","images/semantic_sequence/physical_activity_semantic/physical_activity_semantic_1.png","null","",""
"","","","","","image-button-response","58","376480","0.0-12.0-1.0-1.0","25B06F95013D47D9B5BC112264CFF342","25B06F95013D47D9B5BC112264CFF342","180edf25-3d30-4a4a-ba97-34a7e664c476","a0a8f18c-a66e-4ba7-a170-23efbdc67501","{""participantId"":""25B06F95013D47D9B5BC112264CFF342"",""assignmentId"":""180edf25-3d30-4a4a-ba97-34a7e664c476"",""projectId"":""a0a8f18c-a66e-4ba7-a170-23efbdc67501""}","https://test12345.live/?participantId=25B06F95013D47D9B5BC112264CFF342&assignmentId=180edf25-3d30-4a4a-ba97-34a7e664c476&projectId=a0a8f18c-a66e-4ba7-a170-23efbdc67501","25B06F95013D47D9B5BC112264CFF342-2024-11-24-19-35-08","","1430","","images/semantic_sequence/physical_activity_semantic/physical_activity_semantic_1.png","0","",""
"","","","","","image-button-response","59","378287","0.0-12.0-1.0-2.0","25B06F95013D47D9B5BC112264CFF342","25B06F95013D47D9B5BC112264CFF342","180edf25-3d30-4a4a-ba97-34a7e664c476","a0a8f18c-a66e-4ba7-a170-23efbdc67501","{""participantId"":""25B06F95013D47D9B5BC112264CFF342"",""assignmentId"":""180edf25-3d30-4a4a-ba97-34a7e664c476"",""projectId"":""a0a8f18c-a66e-4ba7-a170-23efbdc67501""}","https://test12345.live/?participantId=25B06F95013D47D9B5BC112264CFF342&assignmentId=180edf25-3d30-4a4a-ba97-34a7e664c476&projectId=a0a8f18c-a66e-4ba7-a170-23efbdc67501","25B06F95013D47D9B5BC112264CFF342-2024-11-24-19-35-08","","null","","[]","null","",""
"","","","","","image-button-response","60","382792","0.0-12.0-1.0-0.1","25B06F95013D47D9B5BC112264CFF342","25B06F95013D47D9B5BC112264CFF342","180edf25-3d30-4a4a-ba97-34a7e664c476","a0a8f18c-a66e-4ba7-a170-23efbdc67501","{""participantId"":""25B06F95013D47D9B5BC112264CFF342"",""assignmentId"":""180edf25-3d30-4a4a-ba97-34a7e664c476"",""projectId"":""a0a8f18c-a66e-4ba7-a170-23efbdc67501""}","https://test12345.live/?participantId=25B06F95013D47D9B5BC112264CFF342&assignmentId=180edf25-3d30-4a4a-ba97-34a7e664c476&projectId=a0a8f18c-a66e-4ba7-a170-23efbdc67501","25B06F95013D47D9B5BC112264CFF342-2024-11-24-19-35-08","","null","","images/semantic_sequence/physical_activity_semantic/physical_activity_semantic_2.png","null","",""
"","","","","","image-button-response","61","384015","0.0-12.0-1.0-1.1","25B06F95013D47D9B5BC112264CFF342","25B06F95013D47D9B5BC112264CFF342","180edf25-3d30-4a4a-ba97-34a7e664c476","a0a8f18c-a66e-4ba7-a170-23efbdc67501","{""participantId"":""25B06F95013D47D9B5BC112264CFF342"",""assignmentId"":""180edf25-3d30-4a4a-ba97-34a7e664c476"",""projectId"":""a0a8f18c-a66e-4ba7-a170-23efbdc67501""}","https://test12345.live/?participantId=25B06F95013D47D9B5BC112264CFF342&assignmentId=180edf25-3d30-4a4a-ba97-34a7e664c476&projectId=a0a8f18c-a66e-4ba7-a170-23efbdc67501","25B06F95013D47D9B5BC112264CFF342-2024-11-24-19-35-08","","1222","","images/semantic_sequence/physical_activity_semantic/physical_activity_semantic_2.png","0","",""
"","","","","","image-button-response","62","385821","0.0-12.0-1.0-2.1","25B06F95013D47D9B5BC112264CFF342","25B06F95013D47D9B5BC112264CFF342","180edf25-3d30-4a4a-ba97-34a7e664c476","a0a8f18c-a66e-4ba7-a170-23efbdc67501","{""participantId"":""25B06F95013D47D9B5BC112264CFF342"",""assignmentId"":""180edf25-3d30-4a4a-ba97-34a7e664c476"",""projectId"":""a0a8f18c-a66e-4ba7-a170-23efbdc67501""}","https://test12345.live/?participantId=25B06F95013D47D9B5BC112264CFF342&assignmentId=180edf25-3d30-4a4a-ba97-34a7e664c476&projectId=a0a8f18c-a66e-4ba7-a170-23efbdc67501","25B06F95013D47D9B5BC112264CFF342-2024-11-24-19-35-08","","null","","[]","null","",""
"","","","","","image-button-response","63","390331","0.0-12.0-1.0-0.2","25B06F95013D47D9B5BC112264CFF342","25B06F95013D47D9B5BC112264CFF342","180edf25-3d30-4a4a-ba97-34a7e664c476","a0a8f18c-a66e-4ba7-a170-23efbdc67501","{""participantId"":""25B06F95013D47D9B5BC112264CFF342"",""assignmentId"":""180edf25-3d30-4a4a-ba97-34a7e664c476"",""projectId"":""a0a8f18c-a66e-4ba7-a170-23efbdc67501""}","https://test12345.live/?participantId=25B06F95013D47D9B5BC112264CFF342&assignmentId=180edf25-3d30-4a4a-ba97-34a7e664c476&projectId=a0a8f18c-a66e-4ba7-a170-23efbdc67501","25B06F95013D47D9B5BC112264CFF342-2024-11-24-19-35-08","","null","","images/semantic_sequence/physical_activity_semantic/physical_activity_semantic_3.png","null","",""
"","","","","","image-button-response","64","391544","0.0-12.0-1.0-1.2","25B06F95013D47D9B5BC112264CFF342","25B06F95013D47D9B5BC112264CFF342","180edf25-3d30-4a4a-ba97-34a7e664c476","a0a8f18c-a66e-4ba7-a170-23efbdc67501","{""participantId"":""25B06F95013D47D9B5BC112264CFF342"",""assignmentId"":""180edf25-3d30-4a4a-ba97-34a7e664c476"",""projectId"":""a0a8f18c-a66e-4ba7-a170-23efbdc67501""}","https://test12345.live/?participantId=25B06F95013D47D9B5BC112264CFF342&assignmentId=180edf25-3d30-4a4a-ba97-34a7e664c476&projectId=a0a8f18c-a66e-4ba7-a170-23efbdc67501","25B06F95013D47D9B5BC112264CFF342-2024-11-24-19-35-08","","1212","","images/semantic_sequence/physical_activity_semantic/physical_activity_semantic_3.png","0","",""
"","","","","","image-button-response","65","393359","0.0-12.0-1.0-2.2","25B06F95013D47D9B5BC112264CFF342","25B06F95013D47D9B5BC112264CFF342","180edf25-3d30-4a4a-ba97-34a7e664c476","a0a8f18c-a66e-4ba7-a170-23efbdc67501","{""participantId"":""25B06F95013D47D9B5BC112264CFF342"",""assignmentId"":""180edf25-3d30-4a4a-ba97-34a7e664c476"",""projectId"":""a0a8f18c-a66e-4ba7-a170-23efbdc67501""}","https://test12345.live/?participantId=25B06F95013D47D9B5BC112264CFF342&assignmentId=180edf25-3d30-4a4a-ba97-34a7e664c476&projectId=a0a8f18c-a66e-4ba7-a170-23efbdc67501","25B06F95013D47D9B5BC112264CFF342-2024-11-24-19-35-08","","null","","[]","null","",""
"","","","","","image-button-response","66","397861","0.0-12.0-1.0-0.3","25B06F95013D47D9B5BC112264CFF342","25B06F95013D47D9B5BC112264CFF342","180edf25-3d30-4a4a-ba97-34a7e664c476","a0a8f18c-a66e-4ba7-a170-23efbdc67501","{""participantId"":""25B06F95013D47D9B5BC112264CFF342"",""assignmentId"":""180edf25-3d30-4a4a-ba97-34a7e664c476"",""projectId"":""a0a8f18c-a66e-4ba7-a170-23efbdc67501""}","https://test12345.live/?participantId=25B06F95013D47D9B5BC112264CFF342&assignmentId=180edf25-3d30-4a4a-ba97-34a7e664c476&projectId=a0a8f18c-a66e-4ba7-a170-23efbdc67501","25B06F95013D47D9B5BC112264CFF342-2024-11-24-19-35-08","","null","","images/semantic_sequence/physical_activity_semantic/physical_activity_semantic_4.png","null","",""
"","","","","","image-button-response","67","398971","0.0-12.0-1.0-1.3","25B06F95013D47D9B5BC112264CFF342","25B06F95013D47D9B5BC112264CFF342","180edf25-3d30-4a4a-ba97-34a7e664c476","a0a8f18c-a66e-4ba7-a170-23efbdc67501","{""participantId"":""25B06F95013D47D9B5BC112264CFF342"",""assignmentId"":""180edf25-3d30-4a4a-ba97-34a7e664c476"",""projectId"":""a0a8f18c-a66e-4ba7-a170-23efbdc67501""}","https://test12345.live/?participantId=25B06F95013D47D9B5BC112264CFF342&assignmentId=180edf25-3d30-4a4a-ba97-34a7e664c476&projectId=a0a8f18c-a66e-4ba7-a170-23efbdc67501","25B06F95013D47D9B5BC112264CFF342-2024-11-24-19-35-08","","1108","","images/semantic_sequence/physical_activity_semantic/physical_activity_semantic_4.png","0","",""
"","","","","","image-button-response","68","400781","0.0-12.0-1.0-2.3","25B06F95013D47D9B5BC112264CFF342","25B06F95013D47D9B5BC112264CFF342","180edf25-3d30-4a4a-ba97-34a7e664c476","a0a8f18c-a66e-4ba7-a170-23efbdc67501","{""participantId"":""25B06F95013D47D9B5BC112264CFF342"",""assignmentId"":""180edf25-3d30-4a4a-ba97-34a7e664c476"",""projectId"":""a0a8f18c-a66e-4ba7-a170-23efbdc67501""}","https://test12345.live/?participantId=25B06F95013D47D9B5BC112264CFF342&assignmentId=180edf25-3d30-4a4a-ba97-34a7e664c476&projectId=a0a8f18c-a66e-4ba7-a170-23efbdc67501","25B06F95013D47D9B5BC112264CFF342-2024-11-24-19-35-08","","null","","[]","null","",""
"","","","","","image-button-response","69","405290","0.0-12.0-1.0-0.4","25B06F95013D47D9B5BC112264CFF342","25B06F95013D47D9B5BC112264CFF342","180edf25-3d30-4a4a-ba97-34a7e664c476","a0a8f18c-a66e-4ba7-a170-23efbdc67501","{""participantId"":""25B06F95013D47D9B5BC112264CFF342"",""assignmentId"":""180edf25-3d30-4a4a-ba97-34a7e664c476"",""projectId"":""a0a8f18c-a66e-4ba7-a170-23efbdc67501""}","https://test12345.live/?participantId=25B06F95013D47D9B5BC112264CFF342&assignmentId=180edf25-3d30-4a4a-ba97-34a7e664c476&projectId=a0a8f18c-a66e-4ba7-a170-23efbdc67501","25B06F95013D47D9B5BC112264CFF342-2024-11-24-19-35-08","","null","","images/semantic_sequence/physical_activity_semantic/physical_activity_semantic_5.png","null","",""
"","","","","","image-button-response","70","406682","0.0-12.0-1.0-1.4","25B06F95013D47D9B5BC112264CFF342","25B06F95013D47D9B5BC112264CFF342","180edf25-3d30-4a4a-ba97-34a7e664c476","a0a8f18c-a66e-4ba7-a170-23efbdc67501","{""participantId"":""25B06F95013D47D9B5BC112264CFF342"",""assignmentId"":""180edf25-3d30-4a4a-ba97-34a7e664c476"",""projectId"":""a0a8f18c-a66e-4ba7-a170-23efbdc67501""}","https://test12345.live/?participantId=25B06F95013D47D9B5BC112264CFF342&assignmentId=180edf25-3d30-4a4a-ba97-34a7e664c476&projectId=a0a8f18c-a66e-4ba7-a170-23efbdc67501","25B06F95013D47D9B5BC112264CFF342-2024-11-24-19-35-08","","1391","","images/semantic_sequence/physical_activity_semantic/physical_activity_semantic_5.png","0","",""
"","","","","","image-button-response","71","408498","0.0-12.0-1.0-2.4","25B06F95013D47D9B5BC112264CFF342","25B06F95013D47D9B5BC112264CFF342","180edf25-3d30-4a4a-ba97-34a7e664c476","a0a8f18c-a66e-4ba7-a170-23efbdc67501","{""participantId"":""25B06F95013D47D9B5BC112264CFF342"",""assignmentId"":""180edf25-3d30-4a4a-ba97-34a7e664c476"",""projectId"":""a0a8f18c-a66e-4ba7-a170-23efbdc67501""}","https://test12345.live/?participantId=25B06F95013D47D9B5BC112264CFF342&assignmentId=180edf25-3d30-4a4a-ba97-34a7e664c476&projectId=a0a8f18c-a66e-4ba7-a170-23efbdc67501","25B06F95013D47D9B5BC112264CFF342-2024-11-24-19-35-08","","null","","[]","null","",""
"","","","","","image-button-response","72","413011","0.0-12.0-1.0-0.5","25B06F95013D47D9B5BC112264CFF342","25B06F95013D47D9B5BC112264CFF342","180edf25-3d30-4a4a-ba97-34a7e664c476","a0a8f18c-a66e-4ba7-a170-23efbdc67501","{""participantId"":""25B06F95013D47D9B5BC112264CFF342"",""assignmentId"":""180edf25-3d30-4a4a-ba97-34a7e664c476"",""projectId"":""a0a8f18c-a66e-4ba7-a170-23efbdc67501""}","https://test12345.live/?participantId=25B06F95013D47D9B5BC112264CFF342&assignmentId=180edf25-3d30-4a4a-ba97-34a7e664c476&projectId=a0a8f18c-a66e-4ba7-a170-23efbdc67501","25B06F95013D47D9B5BC112264CFF342-2024-11-24-19-35-08","","null","","images/semantic_sequence/physical_activity_semantic/physical_activity_semantic_6.png","null","",""
"","","","","","image-button-response","73","414631","0.0-12.0-1.0-1.5","25B06F95013D47D9B5BC112264CFF342","25B06F95013D47D9B5BC112264CFF342","180edf25-3d30-4a4a-ba97-34a7e664c476","a0a8f18c-a66e-4ba7-a170-23efbdc67501","{""participantId"":""25B06F95013D47D9B5BC112264CFF342"",""assignmentId"":""180edf25-3d30-4a4a-ba97-34a7e664c476"",""projectId"":""a0a8f18c-a66e-4ba7-a170-23efbdc67501""}","https://test12345.live/?participantId=25B06F95013D47D9B5BC112264CFF342&assignmentId=180edf25-3d30-4a4a-ba97-34a7e664c476&projectId=a0a8f18c-a66e-4ba7-a170-23efbdc67501","25B06F95013D47D9B5BC112264CFF342-2024-11-24-19-35-08","","1619","","images/semantic_sequence/physical_activity_semantic/physical_activity_semantic_6.png","0","",""
"","","","","","image-button-response","74","416447","0.0-12.0-1.0-2.5","25B06F95013D47D9B5BC112264CFF342","25B06F95013D47D9B5BC112264CFF342","180edf25-3d30-4a4a-ba97-34a7e664c476","a0a8f18c-a66e-4ba7-a170-23efbdc67501","{""participantId"":""25B06F95013D47D9B5BC112264CFF342"",""assignmentId"":""180edf25-3d30-4a4a-ba97-34a7e664c476"",""projectId"":""a0a8f18c-a66e-4ba7-a170-23efbdc67501""}","https://test12345.live/?participantId=25B06F95013D47D9B5BC112264CFF342&assignmentId=180edf25-3d30-4a4a-ba97-34a7e664c476&projectId=a0a8f18c-a66e-4ba7-a170-23efbdc67501","25B06F95013D47D9B5BC112264CFF342-2024-11-24-19-35-08","","null","","[]","null","",""
"","","","","","image-button-response","75","420955","0.0-12.0-1.0-0.6","25B06F95013D47D9B5BC112264CFF342","25B06F95013D47D9B5BC112264CFF342","180edf25-3d30-4a4a-ba97-34a7e664c476","a0a8f18c-a66e-4ba7-a170-23efbdc67501","{""participantId"":""25B06F95013D47D9B5BC112264CFF342"",""assignmentId"":""180edf25-3d30-4a4a-ba97-34a7e664c476"",""projectId"":""a0a8f18c-a66e-4ba7-a170-23efbdc67501""}","https://test12345.live/?participantId=25B06F95013D47D9B5BC112264CFF342&assignmentId=180edf25-3d30-4a4a-ba97-34a7e664c476&projectId=a0a8f18c-a66e-4ba7-a170-23efbdc67501","25B06F95013D47D9B5BC112264CFF342-2024-11-24-19-35-08","","null","","images/semantic_sequence/physical_activity_semantic/physical_activity_semantic_7.png","null","",""
"","","","","","image-button-response","76","422494","0.0-12.0-1.0-1.6","25B06F95013D47D9B5BC112264CFF342","25B06F95013D47D9B5BC112264CFF342","180edf25-3d30-4a4a-ba97-34a7e664c476","a0a8f18c-a66e-4ba7-a170-23efbdc67501","{""participantId"":""25B06F95013D47D9B5BC112264CFF342"",""assignmentId"":""180edf25-3d30-4a4a-ba97-34a7e664c476"",""projectId"":""a0a8f18c-a66e-4ba7-a170-23efbdc67501""}","https://test12345.live/?participantId=25B06F95013D47D9B5BC112264CFF342&assignmentId=180edf25-3d30-4a4a-ba97-34a7e664c476&projectId=a0a8f18c-a66e-4ba7-a170-23efbdc67501","25B06F95013D47D9B5BC112264CFF342-2024-11-24-19-35-08","","1538","","images/semantic_sequence/physical_activity_semantic/physical_activity_semantic_7.png","0","",""
"","","","","","image-button-response","77","424295","0.0-12.0-1.0-2.6","25B06F95013D47D9B5BC112264CFF342","25B06F95013D47D9B5BC112264CFF342","180edf25-3d30-4a4a-ba97-34a7e664c476","a0a8f18c-a66e-4ba7-a170-23efbdc67501","{""participantId"":""25B06F95013D47D9B5BC112264CFF342"",""assignmentId"":""180edf25-3d30-4a4a-ba97-34a7e664c476"",""projectId"":""a0a8f18c-a66e-4ba7-a170-23efbdc67501""}","https://test12345.live/?participantId=25B06F95013D47D9B5BC112264CFF342&assignmentId=180edf25-3d30-4a4a-ba97-34a7e664c476&projectId=a0a8f18c-a66e-4ba7-a170-23efbdc67501","25B06F95013D47D9B5BC112264CFF342-2024-11-24-19-35-08","","null","","[]","null","",""
"","","","","","image-button-response","78","428810","0.0-12.0-1.0-0.7","25B06F95013D47D9B5BC112264CFF342","25B06F95013D47D9B5BC112264CFF342","180edf25-3d30-4a4a-ba97-34a7e664c476","a0a8f18c-a66e-4ba7-a170-23efbdc67501","{""participantId"":""25B06F95013D47D9B5BC112264CFF342"",""assignmentId"":""180edf25-3d30-4a4a-ba97-34a7e664c476"",""projectId"":""a0a8f18c-a66e-4ba7-a170-23efbdc67501""}","https://test12345.live/?participantId=25B06F95013D47D9B5BC112264CFF342&assignmentId=180edf25-3d30-4a4a-ba97-34a7e664c476&projectId=a0a8f18c-a66e-4ba7-a170-23efbdc67501","25B06F95013D47D9B5BC112264CFF342-2024-11-24-19-35-08","","null","","images/semantic_sequence/physical_activity_semantic/physical_activity_semantic_8.png","null","",""
"","","","","","image-button-response","79","429893","0.0-12.0-1.0-1.7","25B06F95013D47D9B5BC112264CFF342","25B06F95013D47D9B5BC112264CFF342","180edf25-3d30-4a4a-ba97-34a7e664c476","a0a8f18c-a66e-4ba7-a170-23efbdc67501","{""participantId"":""25B06F95013D47D9B5BC112264CFF342"",""assignmentId"":""180edf25-3d30-4a4a-ba97-34a7e664c476"",""projectId"":""a0a8f18c-a66e-4ba7-a170-23efbdc67501""}","https://test12345.live/?participantId=25B06F95013D47D9B5BC112264CFF342&assignmentId=180edf25-3d30-4a4a-ba97-34a7e664c476&projectId=a0a8f18c-a66e-4ba7-a170-23efbdc67501","25B06F95013D47D9B5BC112264CFF342-2024-11-24-19-35-08","","1082","","images/semantic_sequence/physical_activity_semantic/physical_activity_semantic_8.png","0","",""
"","","","","","image-button-response","80","431694","0.0-12.0-1.0-2.7","25B06F95013D47D9B5BC112264CFF342","25B06F95013D47D9B5BC112264CFF342","180edf25-3d30-4a4a-ba97-34a7e664c476","a0a8f18c-a66e-4ba7-a170-23efbdc67501","{""participantId"":""25B06F95013D47D9B5BC112264CFF342"",""assignmentId"":""180edf25-3d30-4a4a-ba97-34a7e664c476"",""projectId"":""a0a8f18c-a66e-4ba7-a170-23efbdc67501""}","https://test12345.live/?participantId=25B06F95013D47D9B5BC112264CFF342&assignmentId=180edf25-3d30-4a4a-ba97-34a7e664c476&projectId=a0a8f18c-a66e-4ba7-a170-23efbdc67501","25B06F95013D47D9B5BC112264CFF342-2024-11-24-19-35-08","","null","","[]","null","",""
"","","","","","image-button-response","81","436206","0.0-12.0-1.0-0.8","25B06F95013D47D9B5BC112264CFF342","25B06F95013D47D9B5BC112264CFF342","180edf25-3d30-4a4a-ba97-34a7e664c476","a0a8f18c-a66e-4ba7-a170-23efbdc67501","{""participantId"":""25B06F95013D47D9B5BC112264CFF342"",""assignmentId"":""180edf25-3d30-4a4a-ba97-34a7e664c476"",""projectId"":""a0a8f18c-a66e-4ba7-a170-23efbdc67501""}","https://test12345.live/?participantId=25B06F95013D47D9B5BC112264CFF342&assignmentId=180edf25-3d30-4a4a-ba97-34a7e664c476&projectId=a0a8f18c-a66e-4ba7-a170-23efbdc67501","25B06F95013D47D9B5BC112264CFF342-2024-11-24-19-35-08","","null","","images/semantic_sequence/physical_activity_semantic/physical_activity_semantic_9.png","null","",""
"","","","","","image-button-response","82","437300","0.0-12.0-1.0-1.8","25B06F95013D47D9B5BC112264CFF342","25B06F95013D47D9B5BC112264CFF342","180edf25-3d30-4a4a-ba97-34a7e664c476","a0a8f18c-a66e-4ba7-a170-23efbdc67501","{""participantId"":""25B06F95013D47D9B5BC112264CFF342"",""assignmentId"":""180edf25-3d30-4a4a-ba97-34a7e664c476"",""projectId"":""a0a8f18c-a66e-4ba7-a170-23efbdc67501""}","https://test12345.live/?participantId=25B06F95013D47D9B5BC112264CFF342&assignmentId=180edf25-3d30-4a4a-ba97-34a7e664c476&projectId=a0a8f18c-a66e-4ba7-a170-23efbdc67501","25B06F95013D47D9B5BC112264CFF342-2024-11-24-19-35-08","","1093","","images/semantic_sequence/physical_activity_semantic/physical_activity_semantic_9.png","0","",""
"","","","","","image-button-response","83","439110","0.0-12.0-1.0-2.8","25B06F95013D47D9B5BC112264CFF342","25B06F95013D47D9B5BC112264CFF342","180edf25-3d30-4a4a-ba97-34a7e664c476","a0a8f18c-a66e-4ba7-a170-23efbdc67501","{""participantId"":""25B06F95013D47D9B5BC112264CFF342"",""assignmentId"":""180edf25-3d30-4a4a-ba97-34a7e664c476"",""projectId"":""a0a8f18c-a66e-4ba7-a170-23efbdc67501""}","https://test12345.live/?participantId=25B06F95013D47D9B5BC112264CFF342&assignmentId=180edf25-3d30-4a4a-ba97-34a7e664c476&projectId=a0a8f18c-a66e-4ba7-a170-23efbdc67501","25B06F95013D47D9B5BC112264CFF342-2024-11-24-19-35-08","","null","","[]","null","",""
"","","","","","image-button-response","84","443612","0.0-12.0-1.0-0.9","25B06F95013D47D9B5BC112264CFF342","25B06F95013D47D9B5BC112264CFF342","180edf25-3d30-4a4a-ba97-34a7e664c476","a0a8f18c-a66e-4ba7-a170-23efbdc67501","{""participantId"":""25B06F95013D47D9B5BC112264CFF342"",""assignmentId"":""180edf25-3d30-4a4a-ba97-34a7e664c476"",""projectId"":""a0a8f18c-a66e-4ba7-a170-23efbdc67501""}","https://test12345.live/?participantId=25B06F95013D47D9B5BC112264CFF342&assignmentId=180edf25-3d30-4a4a-ba97-34a7e664c476&projectId=a0a8f18c-a66e-4ba7-a170-23efbdc67501","25B06F95013D47D9B5BC112264CFF342-2024-11-24-19-35-08","","null","","images/semantic_sequence/physical_activity_semantic/physical_activity_semantic_ten.png","null","",""
"","","","","","image-button-response","85","444848","0.0-12.0-1.0-1.9","25B06F95013D47D9B5BC112264CFF342","25B06F95013D47D9B5BC112264CFF342","180edf25-3d30-4a4a-ba97-34a7e664c476","a0a8f18c-a66e-4ba7-a170-23efbdc67501","{""participantId"":""25B06F95013D47D9B5BC112264CFF342"",""assignmentId"":""180edf25-3d30-4a4a-ba97-34a7e664c476"",""projectId"":""a0a8f18c-a66e-4ba7-a170-23efbdc67501""}","https://test12345.live/?participantId=25B06F95013D47D9B5BC112264CFF342&assignmentId=180edf25-3d30-4a4a-ba97-34a7e664c476&projectId=a0a8f18c-a66e-4ba7-a170-23efbdc67501","25B06F95013D47D9B5BC112264CFF342-2024-11-24-19-35-08","","1236","","images/semantic_sequence/physical_activity_semantic/physical_activity_semantic_ten.png","0","",""
"","","","","","image-button-response","86","446654","0.0-12.0-1.0-2.9","25B06F95013D47D9B5BC112264CFF342","25B06F95013D47D9B5BC112264CFF342","180edf25-3d30-4a4a-ba97-34a7e664c476","a0a8f18c-a66e-4ba7-a170-23efbdc67501","{""participantId"":""25B06F95013D47D9B5BC112264CFF342"",""assignmentId"":""180edf25-3d30-4a4a-ba97-34a7e664c476"",""projectId"":""a0a8f18c-a66e-4ba7-a170-23efbdc67501""}","https://test12345.live/?participantId=25B06F95013D47D9B5BC112264CFF342&assignmentId=180edf25-3d30-4a4a-ba97-34a7e664c476&projectId=a0a8f18c-a66e-4ba7-a170-23efbdc67501","25B06F95013D47D9B5BC112264CFF342-2024-11-24-19-35-08","","null","","[]","null","",""
"","","","","","html-audio-response","87","471393","0.0-13.0","25B06F95013D47D9B5BC112264CFF342","25B06F95013D47D9B5BC112264CFF342","180edf25-3d30-4a4a-ba97-34a7e664c476","a0a8f18c-a66e-4ba7-a170-23efbdc67501","{""participantId"":""25B06F95013D47D9B5BC112264CFF342"",""assignmentId"":""180edf25-3d30-4a4a-ba97-34a7e664c476"",""projectId"":""a0a8f18c-a66e-4ba7-a170-23efbdc67501""}","https://test12345.live/?participantId=25B06F95013D47D9B5BC112264CFF342&assignmentId=180edf25-3d30-4a4a-ba97-34a7e664c476&projectId=a0a8f18c-a66e-4ba7-a170-23efbdc67501","25B06F95013D47D9B5BC112264CFF342-2024-11-24-19-35-08","","11453","","[""<span style=\""color: red; font-size: 24px\""> NOW RECORDING</span><p>Please say out loud all the images you saw, as many as you can remember. The images can be said in any order.</p>""]","","2","physical_activity_semantic"
"","","","","","image-button-response","88","477412","0.0-14.0-0.0","25B06F95013D47D9B5BC112264CFF342","25B06F95013D47D9B5BC112264CFF342","180edf25-3d30-4a4a-ba97-34a7e664c476","a0a8f18c-a66e-4ba7-a170-23efbdc67501","{""participantId"":""25B06F95013D47D9B5BC112264CFF342"",""assignmentId"":""180edf25-3d30-4a4a-ba97-34a7e664c476"",""projectId"":""a0a8f18c-a66e-4ba7-a170-23efbdc67501""}","https://test12345.live/?participantId=25B06F95013D47D9B5BC112264CFF342&assignmentId=180edf25-3d30-4a4a-ba97-34a7e664c476&projectId=a0a8f18c-a66e-4ba7-a170-23efbdc67501","25B06F95013D47D9B5BC112264CFF342-2024-11-24-19-35-08","","null","","images/causal_sequence/saving_a_cat_causal/saving_a_cat_causal_0.png","null","",""
"","","","","","image-button-response","89","481926","0.0-14.0-1.0-0.0","25B06F95013D47D9B5BC112264CFF342","25B06F95013D47D9B5BC112264CFF342","180edf25-3d30-4a4a-ba97-34a7e664c476","a0a8f18c-a66e-4ba7-a170-23efbdc67501","{""participantId"":""25B06F95013D47D9B5BC112264CFF342"",""assignmentId"":""180edf25-3d30-4a4a-ba97-34a7e664c476"",""projectId"":""a0a8f18c-a66e-4ba7-a170-23efbdc67501""}","https://test12345.live/?participantId=25B06F95013D47D9B5BC112264CFF342&assignmentId=180edf25-3d30-4a4a-ba97-34a7e664c476&projectId=a0a8f18c-a66e-4ba7-a170-23efbdc67501","25B06F95013D47D9B5BC112264CFF342-2024-11-24-19-35-08","","null","","images/causal_sequence/saving_a_cat_causal/saving_a_cat_causal_2.png","null","",""
"","","","","","image-button-response","90","484587","0.0-14.0-1.0-1.0","25B06F95013D47D9B5BC112264CFF342","25B06F95013D47D9B5BC112264CFF342","180edf25-3d30-4a4a-ba97-34a7e664c476","a0a8f18c-a66e-4ba7-a170-23efbdc67501","{""participantId"":""25B06F95013D47D9B5BC112264CFF342"",""assignmentId"":""180edf25-3d30-4a4a-ba97-34a7e664c476"",""projectId"":""a0a8f18c-a66e-4ba7-a170-23efbdc67501""}","https://test12345.live/?participantId=25B06F95013D47D9B5BC112264CFF342&assignmentId=180edf25-3d30-4a4a-ba97-34a7e664c476&projectId=a0a8f18c-a66e-4ba7-a170-23efbdc67501","25B06F95013D47D9B5BC112264CFF342-2024-11-24-19-35-08","","2659","","images/causal_sequence/saving_a_cat_causal/saving_a_cat_causal_2.png","0","",""
"","","","","","image-button-response","91","486391","0.0-14.0-1.0-2.0","25B06F95013D47D9B5BC112264CFF342","25B06F95013D47D9B5BC112264CFF342","180edf25-3d30-4a4a-ba97-34a7e664c476","a0a8f18c-a66e-4ba7-a170-23efbdc67501","{""participantId"":""25B06F95013D47D9B5BC112264CFF342"",""assignmentId"":""180edf25-3d30-4a4a-ba97-34a7e664c476"",""projectId"":""a0a8f18c-a66e-4ba7-a170-23efbdc67501""}","https://test12345.live/?participantId=25B06F95013D47D9B5BC112264CFF342&assignmentId=180edf25-3d30-4a4a-ba97-34a7e664c476&projectId=a0a8f18c-a66e-4ba7-a170-23efbdc67501","25B06F95013D47D9B5BC112264CFF342-2024-11-24-19-35-08","","null","","[]","null","",""
"","","","","","image-button-response","92","490900","0.0-14.0-1.0-0.1","25B06F95013D47D9B5BC112264CFF342","25B06F95013D47D9B5BC112264CFF342","180edf25-3d30-4a4a-ba97-34a7e664c476","a0a8f18c-a66e-4ba7-a170-23efbdc67501","{""participantId"":""25B06F95013D47D9B5BC112264CFF342"",""assignmentId"":""180edf25-3d30-4a4a-ba97-34a7e664c476"",""projectId"":""a0a8f18c-a66e-4ba7-a170-23efbdc67501""}","https://test12345.live/?participantId=25B06F95013D47D9B5BC112264CFF342&assignmentId=180edf25-3d30-4a4a-ba97-34a7e664c476&projectId=a0a8f18c-a66e-4ba7-a170-23efbdc67501","25B06F95013D47D9B5BC112264CFF342-2024-11-24-19-35-08","","null","","images/causal_sequence/saving_a_cat_causal/saving_a_cat_causal_9.png","null","",""
"","","","","","image-button-response","93","493026","0.0-14.0-1.0-1.1","25B06F95013D47D9B5BC112264CFF342","25B06F95013D47D9B5BC112264CFF342","180edf25-3d30-4a4a-ba97-34a7e664c476","a0a8f18c-a66e-4ba7-a170-23efbdc67501","{""participantId"":""25B06F95013D47D9B5BC112264CFF342"",""assignmentId"":""180edf25-3d30-4a4a-ba97-34a7e664c476"",""projectId"":""a0a8f18c-a66e-4ba7-a170-23efbdc67501""}","https://test12345.live/?participantId=25B06F95013D47D9B5BC112264CFF342&assignmentId=180edf25-3d30-4a4a-ba97-34a7e664c476&projectId=a0a8f18c-a66e-4ba7-a170-23efbdc67501","25B06F95013D47D9B5BC112264CFF342-2024-11-24-19-35-08","","2126","","images/causal_sequence/saving_a_cat_causal/saving_a_cat_causal_9.png","1","",""
"","","","","","image-button-response","94","494829","0.0-14.0-1.0-2.1","25B06F95013D47D9B5BC112264CFF342","25B06F95013D47D9B5BC112264CFF342","180edf25-3d30-4a4a-ba97-34a7e664c476","a0a8f18c-a66e-4ba7-a170-23efbdc67501","{""participantId"":""25B06F95013D47D9B5BC112264CFF342"",""assignmentId"":""180edf25-3d30-4a4a-ba97-34a7e664c476"",""projectId"":""a0a8f18c-a66e-4ba7-a170-23efbdc67501""}","https://test12345.live/?participantId=25B06F95013D47D9B5BC112264CFF342&assignmentId=180edf25-3d30-4a4a-ba97-34a7e664c476&projectId=a0a8f18c-a66e-4ba7-a170-23efbdc67501","25B06F95013D47D9B5BC112264CFF342-2024-11-24-19-35-08","","null","","[]","null","",""
"","","","","","image-button-response","95","499331","0.0-14.0-1.0-0.2","25B06F95013D47D9B5BC112264CFF342","25B06F95013D47D9B5BC112264CFF342","180edf25-3d30-4a4a-ba97-34a7e664c476","a0a8f18c-a66e-4ba7-a170-23efbdc67501","{""participantId"":""25B06F95013D47D9B5BC112264CFF342"",""assignmentId"":""180edf25-3d30-4a4a-ba97-34a7e664c476"",""projectId"":""a0a8f18c-a66e-4ba7-a170-23efbdc67501""}","https://test12345.live/?participantId=25B06F95013D47D9B5BC112264CFF342&assignmentId=180edf25-3d30-4a4a-ba97-34a7e664c476&projectId=a0a8f18c-a66e-4ba7-a170-23efbdc67501","25B06F95013D47D9B5BC112264CFF342-2024-11-24-19-35-08","","null","","images/causal_sequence/saving_a_cat_causal/saving_a_cat_causal_6.png","null","",""
"","","","","","image-button-response","96","501331","0.0-14.0-1.0-1.2","25B06F95013D47D9B5BC112264CFF342","25B06F95013D47D9B5BC112264CFF342","180edf25-3d30-4a4a-ba97-34a7e664c476","a0a8f18c-a66e-4ba7-a170-23efbdc67501","{""participantId"":""25B06F95013D47D9B5BC112264CFF342"",""assignmentId"":""180edf25-3d30-4a4a-ba97-34a7e664c476"",""projectId"":""a0a8f18c-a66e-4ba7-a170-23efbdc67501""}","https://test12345.live/?participantId=25B06F95013D47D9B5BC112264CFF342&assignmentId=180edf25-3d30-4a4a-ba97-34a7e664c476&projectId=a0a8f18c-a66e-4ba7-a170-23efbdc67501","25B06F95013D47D9B5BC112264CFF342-2024-11-24-19-35-08","","1999","","images/causal_sequence/saving_a_cat_causal/saving_a_cat_causal_6.png","0","",""
"","","","","","image-button-response","97","503136","0.0-14.0-1.0-2.2","25B06F95013D47D9B5BC112264CFF342","25B06F95013D47D9B5BC112264CFF342","180edf25-3d30-4a4a-ba97-34a7e664c476","a0a8f18c-a66e-4ba7-a170-23efbdc67501","{""participantId"":""25B06F95013D47D9B5BC112264CFF342"",""assignmentId"":""180edf25-3d30-4a4a-ba97-34a7e664c476"",""projectId"":""a0a8f18c-a66e-4ba7-a170-23efbdc67501""}","https://test12345.live/?participantId=25B06F95013D47D9B5BC112264CFF342&assignmentId=180edf25-3d30-4a4a-ba97-34a7e664c476&projectId=a0a8f18c-a66e-4ba7-a170-23efbdc67501","25B06F95013D47D9B5BC112264CFF342-2024-11-24-19-35-08","","null","","[]","null","",""
"","","","","","image-button-response","98","507651","0.0-14.0-1.0-0.3","25B06F95013D47D9B5BC112264CFF342","25B06F95013D47D9B5BC112264CFF342","180edf25-3d30-4a4a-ba97-34a7e664c476","a0a8f18c-a66e-4ba7-a170-23efbdc67501","{""participantId"":""25B06F95013D47D9B5BC112264CFF342"",""assignmentId"":""180edf25-3d30-4a4a-ba97-34a7e664c476"",""projectId"":""a0a8f18c-a66e-4ba7-a170-23efbdc67501""}","https://test12345.live/?participantId=25B06F95013D47D9B5BC112264CFF342&assignmentId=180edf25-3d30-4a4a-ba97-34a7e664c476&projectId=a0a8f18c-a66e-4ba7-a170-23efbdc67501","25B06F95013D47D9B5BC112264CFF342-2024-11-24-19-35-08","","null","","images/causal_sequence/saving_a_cat_causal/saving_a_cat_causal_4.png","null","",""
"","","","","","image-button-response","99","508995","0.0-14.0-1.0-1.3","25B06F95013D47D9B5BC112264CFF342","25B06F95013D47D9B5BC112264CFF342","180edf25-3d30-4a4a-ba97-34a7e664c476","a0a8f18c-a66e-4ba7-a170-23efbdc67501","{""participantId"":""25B06F95013D47D9B5BC112264CFF342"",""assignmentId"":""180edf25-3d30-4a4a-ba97-34a7e664c476"",""projectId"":""a0a8f18c-a66e-4ba7-a170-23efbdc67501""}","https://test12345.live/?participantId=25B06F95013D47D9B5BC112264CFF342&assignmentId=180edf25-3d30-4a4a-ba97-34a7e664c476&projectId=a0a8f18c-a66e-4ba7-a170-23efbdc67501","25B06F95013D47D9B5BC112264CFF342-2024-11-24-19-35-08","","1342","","images/causal_sequence/saving_a_cat_causal/saving_a_cat_causal_4.png","0","",""
"","","","","","image-button-response","100","510806","0.0-14.0-1.0-2.3","25B06F95013D47D9B5BC112264CFF342","25B06F95013D47D9B5BC112264CFF342","180edf25-3d30-4a4a-ba97-34a7e664c476","a0a8f18c-a66e-4ba7-a170-23efbdc67501","{""participantId"":""25B06F95013D47D9B5BC112264CFF342"",""assignmentId"":""180edf25-3d30-4a4a-ba97-34a7e664c476"",""projectId"":""a0a8f18c-a66e-4ba7-a170-23efbdc67501""}","https://test12345.live/?participantId=25B06F95013D47D9B5BC112264CFF342&assignmentId=180edf25-3d30-4a4a-ba97-34a7e664c476&projectId=a0a8f18c-a66e-4ba7-a170-23efbdc67501","25B06F95013D47D9B5BC112264CFF342-2024-11-24-19-35-08","","null","","[]","null","",""
"","","","","","image-button-response","101","515309","0.0-14.0-1.0-0.4","25B06F95013D47D9B5BC112264CFF342","25B06F95013D47D9B5BC112264CFF342","180edf25-3d30-4a4a-ba97-34a7e664c476","a0a8f18c-a66e-4ba7-a170-23efbdc67501","{""participantId"":""25B06F95013D47D9B5BC112264CFF342"",""assignmentId"":""180edf25-3d30-4a4a-ba97-34a7e664c476"",""projectId"":""a0a8f18c-a66e-4ba7-a170-23efbdc67501""}","https://test12345.live/?participantId=25B06F95013D47D9B5BC112264CFF342&assignmentId=180edf25-3d30-4a4a-ba97-34a7e664c476&projectId=a0a8f18c-a66e-4ba7-a170-23efbdc67501","25B06F95013D47D9B5BC112264CFF342-2024-11-24-19-35-08","","null","","images/causal_sequence/saving_a_cat_causal/saving_a_cat_causal_5.png","null","",""
"","","","","","image-button-response","102","517075","0.0-14.0-1.0-1.4","25B06F95013D47D9B5BC112264CFF342","25B06F95013D47D9B5BC112264CFF342","180edf25-3d30-4a4a-ba97-34a7e664c476","a0a8f18c-a66e-4ba7-a170-23efbdc67501","{""participantId"":""25B06F95013D47D9B5BC112264CFF342"",""assignmentId"":""180edf25-3d30-4a4a-ba97-34a7e664c476"",""projectId"":""a0a8f18c-a66e-4ba7-a170-23efbdc67501""}","https://test12345.live/?participantId=25B06F95013D47D9B5BC112264CFF342&assignmentId=180edf25-3d30-4a4a-ba97-34a7e664c476&projectId=a0a8f18c-a66e-4ba7-a170-23efbdc67501","25B06F95013D47D9B5BC112264CFF342-2024-11-24-19-35-08","","1764","","images/causal_sequence/saving_a_cat_causal/saving_a_cat_causal_5.png","0","",""
"","","","","","image-button-response","103","518891","0.0-14.0-1.0-2.4","25B06F95013D47D9B5BC112264CFF342","25B06F95013D47D9B5BC112264CFF342","180edf25-3d30-4a4a-ba97-34a7e664c476","a0a8f18c-a66e-4ba7-a170-23efbdc67501","{""participantId"":""25B06F95013D47D9B5BC112264CFF342"",""assignmentId"":""180edf25-3d30-4a4a-ba97-34a7e664c476"",""projectId"":""a0a8f18c-a66e-4ba7-a170-23efbdc67501""}","https://test12345.live/?participantId=25B06F95013D47D9B5BC112264CFF342&assignmentId=180edf25-3d30-4a4a-ba97-34a7e664c476&projectId=a0a8f18c-a66e-4ba7-a170-23efbdc67501","25B06F95013D47D9B5BC112264CFF342-2024-11-24-19-35-08","","null","","[]","null","",""
"","","","","","image-button-response","104","523392","0.0-14.0-1.0-0.5","25B06F95013D47D9B5BC112264CFF342","25B06F95013D47D9B5BC112264CFF342","180edf25-3d30-4a4a-ba97-34a7e664c476","a0a8f18c-a66e-4ba7-a170-23efbdc67501","{""participantId"":""25B06F95013D47D9B5BC112264CFF342"",""assignmentId"":""180edf25-3d30-4a4a-ba97-34a7e664c476"",""projectId"":""a0a8f18c-a66e-4ba7-a170-23efbdc67501""}","https://test12345.live/?participantId=25B06F95013D47D9B5BC112264CFF342&assignmentId=180edf25-3d30-4a4a-ba97-34a7e664c476&projectId=a0a8f18c-a66e-4ba7-a170-23efbdc67501","25B06F95013D47D9B5BC112264CFF342-2024-11-24-19-35-08","","null","","images/causal_sequence/saving_a_cat_causal/saving_a_cat_causal_7.png","null","",""
"","","","","","image-button-response","105","524647","0.0-14.0-1.0-1.5","25B06F95013D47D9B5BC112264CFF342","25B06F95013D47D9B5BC112264CFF342","180edf25-3d30-4a4a-ba97-34a7e664c476","a0a8f18c-a66e-4ba7-a170-23efbdc67501","{""participantId"":""25B06F95013D47D9B5BC112264CFF342"",""assignmentId"":""180edf25-3d30-4a4a-ba97-34a7e664c476"",""projectId"":""a0a8f18c-a66e-4ba7-a170-23efbdc67501""}","https://test12345.live/?participantId=25B06F95013D47D9B5BC112264CFF342&assignmentId=180edf25-3d30-4a4a-ba97-34a7e664c476&projectId=a0a8f18c-a66e-4ba7-a170-23efbdc67501","25B06F95013D47D9B5BC112264CFF342-2024-11-24-19-35-08","","1254","","images/causal_sequence/saving_a_cat_causal/saving_a_cat_causal_7.png","0","",""
"","","","","","image-button-response","106","526449","0.0-14.0-1.0-2.5","25B06F95013D47D9B5BC112264CFF342","25B06F95013D47D9B5BC112264CFF342","180edf25-3d30-4a4a-ba97-34a7e664c476","a0a8f18c-a66e-4ba7-a170-23efbdc67501","{""participantId"":""25B06F95013D47D9B5BC112264CFF342"",""assignmentId"":""180edf25-3d30-4a4a-ba97-34a7e664c476"",""projectId"":""a0a8f18c-a66e-4ba7-a170-23efbdc67501""}","https://test12345.live/?participantId=25B06F95013D47D9B5BC112264CFF342&assignmentId=180edf25-3d30-4a4a-ba97-34a7e664c476&projectId=a0a8f18c-a66e-4ba7-a170-23efbdc67501","25B06F95013D47D9B5BC112264CFF342-2024-11-24-19-35-08","","null","","[]","null","",""
"","","","","","image-button-response","107","530958","0.0-14.0-1.0-0.6","25B06F95013D47D9B5BC112264CFF342","25B06F95013D47D9B5BC112264CFF342","180edf25-3d30-4a4a-ba97-34a7e664c476","a0a8f18c-a66e-4ba7-a170-23efbdc67501","{""participantId"":""25B06F95013D47D9B5BC112264CFF342"",""assignmentId"":""180edf25-3d30-4a4a-ba97-34a7e664c476"",""projectId"":""a0a8f18c-a66e-4ba7-a170-23efbdc67501""}","https://test12345.live/?participantId=25B06F95013D47D9B5BC112264CFF342&assignmentId=180edf25-3d30-4a4a-ba97-34a7e664c476&projectId=a0a8f18c-a66e-4ba7-a170-23efbdc67501","25B06F95013D47D9B5BC112264CFF342-2024-11-24-19-35-08","","null","","images/causal_sequence/saving_a_cat_causal/saving_a_cat_causal_ten.png","null","",""
"","","","","","image-button-response","108","532318","0.0-14.0-1.0-1.6","25B06F95013D47D9B5BC112264CFF342","25B06F95013D47D9B5BC112264CFF342","180edf25-3d30-4a4a-ba97-34a7e664c476","a0a8f18c-a66e-4ba7-a170-23efbdc67501","{""participantId"":""25B06F95013D47D9B5BC112264CFF342"",""assignmentId"":""180edf25-3d30-4a4a-ba97-34a7e664c476"",""projectId"":""a0a8f18c-a66e-4ba7-a170-23efbdc67501""}","https://test12345.live/?participantId=25B06F95013D47D9B5BC112264CFF342&assignmentId=180edf25-3d30-4a4a-ba97-34a7e664c476&projectId=a0a8f18c-a66e-4ba7-a170-23efbdc67501","25B06F95013D47D9B5BC112264CFF342-2024-11-24-19-35-08","","1359","","images/causal_sequence/saving_a_cat_causal/saving_a_cat_causal_ten.png","0","",""
"","","","","","image-button-response","109","534121","0.0-14.0-1.0-2.6","25B06F95013D47D9B5BC112264CFF342","25B06F95013D47D9B5BC112264CFF342","180edf25-3d30-4a4a-ba97-34a7e664c476","a0a8f18c-a66e-4ba7-a170-23efbdc67501","{""participantId"":""25B06F95013D47D9B5BC112264CFF342"",""assignmentId"":""180edf25-3d30-4a4a-ba97-34a7e664c476"",""projectId"":""a0a8f18c-a66e-4ba7-a170-23efbdc67501""}","https://test12345.live/?participantId=25B06F95013D47D9B5BC112264CFF342&assignmentId=180edf25-3d30-4a4a-ba97-34a7e664c476&projectId=a0a8f18c-a66e-4ba7-a170-23efbdc67501","25B06F95013D47D9B5BC112264CFF342-2024-11-24-19-35-08","","null","","[]","null","",""
"","","","","","image-button-response","110","538629","0.0-14.0-1.0-0.7","25B06F95013D47D9B5BC112264CFF342","25B06F95013D47D9B5BC112264CFF342","180edf25-3d30-4a4a-ba97-34a7e664c476","a0a8f18c-a66e-4ba7-a170-23efbdc67501","{""participantId"":""25B06F95013D47D9B5BC112264CFF342"",""assignmentId"":""180edf25-3d30-4a4a-ba97-34a7e664c476"",""projectId"":""a0a8f18c-a66e-4ba7-a170-23efbdc67501""}","https://test12345.live/?participantId=25B06F95013D47D9B5BC112264CFF342&assignmentId=180edf25-3d30-4a4a-ba97-34a7e664c476&projectId=a0a8f18c-a66e-4ba7-a170-23efbdc67501","25B06F95013D47D9B5BC112264CFF342-2024-11-24-19-35-08","","null","","images/causal_sequence/saving_a_cat_causal/saving_a_cat_causal_8.png","null","",""
"","","","","","image-button-response","111","540281","0.0-14.0-1.0-1.7","25B06F95013D47D9B5BC112264CFF342","25B06F95013D47D9B5BC112264CFF342","180edf25-3d30-4a4a-ba97-34a7e664c476","a0a8f18c-a66e-4ba7-a170-23efbdc67501","{""participantId"":""25B06F95013D47D9B5BC112264CFF342"",""assignmentId"":""180edf25-3d30-4a4a-ba97-34a7e664c476"",""projectId"":""a0a8f18c-a66e-4ba7-a170-23efbdc67501""}","https://test12345.live/?participantId=25B06F95013D47D9B5BC112264CFF342&assignmentId=180edf25-3d30-4a4a-ba97-34a7e664c476&projectId=a0a8f18c-a66e-4ba7-a170-23efbdc67501","25B06F95013D47D9B5BC112264CFF342-2024-11-24-19-35-08","","1652","","images/causal_sequence/saving_a_cat_causal/saving_a_cat_causal_8.png","0","",""
"","","","","","image-button-response","112","542091","0.0-14.0-1.0-2.7","25B06F95013D47D9B5BC112264CFF342","25B06F95013D47D9B5BC112264CFF342","180edf25-3d30-4a4a-ba97-34a7e664c476","a0a8f18c-a66e-4ba7-a170-23efbdc67501","{""participantId"":""25B06F95013D47D9B5BC112264CFF342"",""assignmentId"":""180edf25-3d30-4a4a-ba97-34a7e664c476"",""projectId"":""a0a8f18c-a66e-4ba7-a170-23efbdc67501""}","https://test12345.live/?participantId=25B06F95013D47D9B5BC112264CFF342&assignmentId=180edf25-3d30-4a4a-ba97-34a7e664c476&projectId=a0a8f18c-a66e-4ba7-a170-23efbdc67501","25B06F95013D47D9B5BC112264CFF342-2024-11-24-19-35-08","","null","","[]","null","",""
"","","","","","image-button-response","113","546599","0.0-14.0-1.0-0.8","25B06F95013D47D9B5BC112264CFF342","25B06F95013D47D9B5BC112264CFF342","180edf25-3d30-4a4a-ba97-34a7e664c476","a0a8f18c-a66e-4ba7-a170-23efbdc67501","{""participantId"":""25B06F95013D47D9B5BC112264CFF342"",""assignmentId"":""180edf25-3d30-4a4a-ba97-34a7e664c476"",""projectId"":""a0a8f18c-a66e-4ba7-a170-23efbdc67501""}","https://test12345.live/?participantId=25B06F95013D47D9B5BC112264CFF342&assignmentId=180edf25-3d30-4a4a-ba97-34a7e664c476&projectId=a0a8f18c-a66e-4ba7-a170-23efbdc67501","25B06F95013D47D9B5BC112264CFF342-2024-11-24-19-35-08","","null","","images/causal_sequence/saving_a_cat_causal/saving_a_cat_causal_1.png","null","",""
"","","","","","image-button-response","114","548004","0.0-14.0-1.0-1.8","25B06F95013D47D9B5BC112264CFF342","25B06F95013D47D9B5BC112264CFF342","180edf25-3d30-4a4a-ba97-34a7e664c476","a0a8f18c-a66e-4ba7-a170-23efbdc67501","{""participantId"":""25B06F95013D47D9B5BC112264CFF342"",""assignmentId"":""180edf25-3d30-4a4a-ba97-34a7e664c476"",""projectId"":""a0a8f18c-a66e-4ba7-a170-23efbdc67501""}","https://test12345.live/?participantId=25B06F95013D47D9B5BC112264CFF342&assignmentId=180edf25-3d30-4a4a-ba97-34a7e664c476&projectId=a0a8f18c-a66e-4ba7-a170-23efbdc67501","25B06F95013D47D9B5BC112264CFF342-2024-11-24-19-35-08","","1403","","images/causal_sequence/saving_a_cat_causal/saving_a_cat_causal_1.png","0","",""
"","","","","","image-button-response","115","549813","0.0-14.0-1.0-2.8","25B06F95013D47D9B5BC112264CFF342","25B06F95013D47D9B5BC112264CFF342","180edf25-3d30-4a4a-ba97-34a7e664c476","a0a8f18c-a66e-4ba7-a170-23efbdc67501","{""participantId"":""25B06F95013D47D9B5BC112264CFF342"",""assignmentId"":""180edf25-3d30-4a4a-ba97-34a7e664c476"",""projectId"":""a0a8f18c-a66e-4ba7-a170-23efbdc67501""}","https://test12345.live/?participantId=25B06F95013D47D9B5BC112264CFF342&assignmentId=180edf25-3d30-4a4a-ba97-34a7e664c476&projectId=a0a8f18c-a66e-4ba7-a170-23efbdc67501","25B06F95013D47D9B5BC112264CFF342-2024-11-24-19-35-08","","null","","[]","null","",""
"","","","","","image-button-response","116","554324","0.0-14.0-1.0-0.9","25B06F95013D47D9B5BC112264CFF342","25B06F95013D47D9B5BC112264CFF342","180edf25-3d30-4a4a-ba97-34a7e664c476","a0a8f18c-a66e-4ba7-a170-23efbdc67501","{""participantId"":""25B06F95013D47D9B5BC112264CFF342"",""assignmentId"":""180edf25-3d30-4a4a-ba97-34a7e664c476"",""projectId"":""a0a8f18c-a66e-4ba7-a170-23efbdc67501""}","https://test12345.live/?participantId=25B06F95013D47D9B5BC112264CFF342&assignmentId=180edf25-3d30-4a4a-ba97-34a7e664c476&projectId=a0a8f18c-a66e-4ba7-a170-23efbdc67501","25B06F95013D47D9B5BC112264CFF342-2024-11-24-19-35-08","","null","","images/causal_sequence/saving_a_cat_causal/saving_a_cat_causal_3.png","null","",""
"","","","","","image-button-response","117","557240","0.0-14.0-1.0-1.9","25B06F95013D47D9B5BC112264CFF342","25B06F95013D47D9B5BC112264CFF342","180edf25-3d30-4a4a-ba97-34a7e664c476","a0a8f18c-a66e-4ba7-a170-23efbdc67501","{""participantId"":""25B06F95013D47D9B5BC112264CFF342"",""assignmentId"":""180edf25-3d30-4a4a-ba97-34a7e664c476"",""projectId"":""a0a8f18c-a66e-4ba7-a170-23efbdc67501""}","https://test12345.live/?participantId=25B06F95013D47D9B5BC112264CFF342&assignmentId=180edf25-3d30-4a4a-ba97-34a7e664c476&projectId=a0a8f18c-a66e-4ba7-a170-23efbdc67501","25B06F95013D47D9B5BC112264CFF342-2024-11-24-19-35-08","","2915","","images/causal_sequence/saving_a_cat_causal/saving_a_cat_causal_3.png","1","",""
"","","","","","image-button-response","118","559050","0.0-14.0-1.0-2.9","25B06F95013D47D9B5BC112264CFF342","25B06F95013D47D9B5BC112264CFF342","180edf25-3d30-4a4a-ba97-34a7e664c476","a0a8f18c-a66e-4ba7-a170-23efbdc67501","{""participantId"":""25B06F95013D47D9B5BC112264CFF342"",""assignmentId"":""180edf25-3d30-4a4a-ba97-34a7e664c476"",""projectId"":""a0a8f18c-a66e-4ba7-a170-23efbdc67501""}","https://test12345.live/?participantId=25B06F95013D47D9B5BC112264CFF342&assignmentId=180edf25-3d30-4a4a-ba97-34a7e664c476&projectId=a0a8f18c-a66e-4ba7-a170-23efbdc67501","25B06F95013D47D9B5BC112264CFF342-2024-11-24-19-35-08","","null","","[]","null","",""
"","","","","","html-audio-response","119","587442","0.0-15.0","25B06F95013D47D9B5BC112264CFF342","25B06F95013D47D9B5BC112264CFF342","180edf25-3d30-4a4a-ba97-34a7e664c476","a0a8f18c-a66e-4ba7-a170-23efbdc67501","{""participantId"":""25B06F95013D47D9B5BC112264CFF342"",""assignmentId"":""180edf25-3d30-4a4a-ba97-34a7e664c476"",""projectId"":""a0a8f18c-a66e-4ba7-a170-23efbdc67501""}","https://test12345.live/?participantId=25B06F95013D47D9B5BC112264CFF342&assignmentId=180edf25-3d30-4a4a-ba97-34a7e664c476&projectId=a0a8f18c-a66e-4ba7-a170-23efbdc67501","25B06F95013D47D9B5BC112264CFF342-2024-11-24-19-35-08","","19014","","[""<span style=\""color: red; font-size: 24px\""> NOW RECORDING</span><p>Please say out loud all the images you saw, as many as you can remember. The images can be said in any order.</p>""]","","2","saving_a_cat_causal"
"","","","","","image-button-response","120","593456","0.0-16.0-0.0","25B06F95013D47D9B5BC112264CFF342","25B06F95013D47D9B5BC112264CFF342","180edf25-3d30-4a4a-ba97-34a7e664c476","a0a8f18c-a66e-4ba7-a170-23efbdc67501","{""participantId"":""25B06F95013D47D9B5BC112264CFF342"",""assignmentId"":""180edf25-3d30-4a4a-ba97-34a7e664c476"",""projectId"":""a0a8f18c-a66e-4ba7-a170-23efbdc67501""}","https://test12345.live/?participantId=25B06F95013D47D9B5BC112264CFF342&assignmentId=180edf25-3d30-4a4a-ba97-34a7e664c476&projectId=a0a8f18c-a66e-4ba7-a170-23efbdc67501","25B06F95013D47D9B5BC112264CFF342-2024-11-24-19-35-08","","null","","images/schematic_sequence/restaurant_scheme/restaurant_scheme_0.png","null","",""
"","","","","","image-button-response","121","597969","0.0-16.0-1.0-0.0","25B06F95013D47D9B5BC112264CFF342","25B06F95013D47D9B5BC112264CFF342","180edf25-3d30-4a4a-ba97-34a7e664c476","a0a8f18c-a66e-4ba7-a170-23efbdc67501","{""participantId"":""25B06F95013D47D9B5BC112264CFF342"",""assignmentId"":""180edf25-3d30-4a4a-ba97-34a7e664c476"",""projectId"":""a0a8f18c-a66e-4ba7-a170-23efbdc67501""}","https://test12345.live/?participantId=25B06F95013D47D9B5BC112264CFF342&assignmentId=180edf25-3d30-4a4a-ba97-34a7e664c476&projectId=a0a8f18c-a66e-4ba7-a170-23efbdc67501","25B06F95013D47D9B5BC112264CFF342-2024-11-24-19-35-08","","null","","images/schematic_sequence/restaurant_scheme/restaurant_scheme_1.png","null","",""
"","","","","","image-button-response","122","601306","0.0-16.0-1.0-1.0","25B06F95013D47D9B5BC112264CFF342","25B06F95013D47D9B5BC112264CFF342","180edf25-3d30-4a4a-ba97-34a7e664c476","a0a8f18c-a66e-4ba7-a170-23efbdc67501","{""participantId"":""25B06F95013D47D9B5BC112264CFF342"",""assignmentId"":""180edf25-3d30-4a4a-ba97-34a7e664c476"",""projectId"":""a0a8f18c-a66e-4ba7-a170-23efbdc67501""}","https://test12345.live/?participantId=25B06F95013D47D9B5BC112264CFF342&assignmentId=180edf25-3d30-4a4a-ba97-34a7e664c476&projectId=a0a8f18c-a66e-4ba7-a170-23efbdc67501","25B06F95013D47D9B5BC112264CFF342-2024-11-24-19-35-08","","3336","","images/schematic_sequence/restaurant_scheme/restaurant_scheme_1.png","0","",""
"","","","","","image-button-response","123","603114","0.0-16.0-1.0-2.0","25B06F95013D47D9B5BC112264CFF342","25B06F95013D47D9B5BC112264CFF342","180edf25-3d30-4a4a-ba97-34a7e664c476","a0a8f18c-a66e-4ba7-a170-23efbdc67501","{""participantId"":""25B06F95013D47D9B5BC112264CFF342"",""assignmentId"":""180edf25-3d30-4a4a-ba97-34a7e664c476"",""projectId"":""a0a8f18c-a66e-4ba7-a170-23efbdc67501""}","https://test12345.live/?participantId=25B06F95013D47D9B5BC112264CFF342&assignmentId=180edf25-3d30-4a4a-ba97-34a7e664c476&projectId=a0a8f18c-a66e-4ba7-a170-23efbdc67501","25B06F95013D47D9B5BC112264CFF342-2024-11-24-19-35-08","","null","","[]","null","",""
"","","","","","image-button-response","124","607627","0.0-16.0-1.0-0.1","25B06F95013D47D9B5BC112264CFF342","25B06F95013D47D9B5BC112264CFF342","180edf25-3d30-4a4a-ba97-34a7e664c476","a0a8f18c-a66e-4ba7-a170-23efbdc67501","{""participantId"":""25B06F95013D47D9B5BC112264CFF342"",""assignmentId"":""180edf25-3d30-4a4a-ba97-34a7e664c476"",""projectId"":""a0a8f18c-a66e-4ba7-a170-23efbdc67501""}","https://test12345.live/?participantId=25B06F95013D47D9B5BC112264CFF342&assignmentId=180edf25-3d30-4a4a-ba97-34a7e664c476&projectId=a0a8f18c-a66e-4ba7-a170-23efbdc67501","25B06F95013D47D9B5BC112264CFF342-2024-11-24-19-35-08","","null","","images/schematic_sequence/restaurant_scheme/restaurant_scheme_2.png","null","",""
"","","","","","image-button-response","125","609582","0.0-16.0-1.0-1.1","25B06F95013D47D9B5BC112264CFF342","25B06F95013D47D9B5BC112264CFF342","180edf25-3d30-4a4a-ba97-34a7e664c476","a0a8f18c-a66e-4ba7-a170-23efbdc67501","{""participantId"":""25B06F95013D47D9B5BC112264CFF342"",""assignmentId"":""180edf25-3d30-4a4a-ba97-34a7e664c476"",""projectId"":""a0a8f18c-a66e-4ba7-a170-23efbdc67501""}","https://test12345.live/?participantId=25B06F95013D47D9B5BC112264CFF342&assignmentId=180edf25-3d30-4a4a-ba97-34a7e664c476&projectId=a0a8f18c-a66e-4ba7-a170-23efbdc67501","25B06F95013D47D9B5BC112264CFF342-2024-11-24-19-35-08","","1953","","images/schematic_sequence/restaurant_scheme/restaurant_scheme_2.png","1","",""
"","","","","","image-button-response","126","611386","0.0-16.0-1.0-2.1","25B06F95013D47D9B5BC112264CFF342","25B06F95013D47D9B5BC112264CFF342","180edf25-3d30-4a4a-ba97-34a7e664c476","a0a8f18c-a66e-4ba7-a170-23efbdc67501","{""participantId"":""25B06F95013D47D9B5BC112264CFF342"",""assignmentId"":""180edf25-3d30-4a4a-ba97-34a7e664c476"",""projectId"":""a0a8f18c-a66e-4ba7-a170-23efbdc67501""}","https://test12345.live/?participantId=25B06F95013D47D9B5BC112264CFF342&assignmentId=180edf25-3d30-4a4a-ba97-34a7e664c476&projectId=a0a8f18c-a66e-4ba7-a170-23efbdc67501","25B06F95013D47D9B5BC112264CFF342-2024-11-24-19-35-08","","null","","[]","null","",""
"","","","","","image-button-response","127","615891","0.0-16.0-1.0-0.2","25B06F95013D47D9B5BC112264CFF342","25B06F95013D47D9B5BC112264CFF342","180edf25-3d30-4a4a-ba97-34a7e664c476","a0a8f18c-a66e-4ba7-a170-23efbdc67501","{""participantId"":""25B06F95013D47D9B5BC112264CFF342"",""assignmentId"":""180edf25-3d30-4a4a-ba97-34a7e664c476"",""projectId"":""a0a8f18c-a66e-4ba7-a170-23efbdc67501""}","https://test12345.live/?participantId=25B06F95013D47D9B5BC112264CFF342&assignmentId=180edf25-3d30-4a4a-ba97-34a7e664c476&projectId=a0a8f18c-a66e-4ba7-a170-23efbdc67501","25B06F95013D47D9B5BC112264CFF342-2024-11-24-19-35-08","","null","","images/schematic_sequence/restaurant_scheme/restaurant_scheme_3.png","null","",""
"","","","","","image-button-response","128","617076","0.0-16.0-1.0-1.2","25B06F95013D47D9B5BC112264CFF342","25B06F95013D47D9B5BC112264CFF342","180edf25-3d30-4a4a-ba97-34a7e664c476","a0a8f18c-a66e-4ba7-a170-23efbdc67501","{""participantId"":""25B06F95013D47D9B5BC112264CFF342"",""assignmentId"":""180edf25-3d30-4a4a-ba97-34a7e664c476"",""projectId"":""a0a8f18c-a66e-4ba7-a170-23efbdc67501""}","https://test12345.live/?participantId=25B06F95013D47D9B5BC112264CFF342&assignmentId=180edf25-3d30-4a4a-ba97-34a7e664c476&projectId=a0a8f18c-a66e-4ba7-a170-23efbdc67501","25B06F95013D47D9B5BC112264CFF342-2024-11-24-19-35-08","","1184","","images/schematic_sequence/restaurant_scheme/restaurant_scheme_3.png","1","",""
"","","","","","image-button-response","129","618884","0.0-16.0-1.0-2.2","25B06F95013D47D9B5BC112264CFF342","25B06F95013D47D9B5BC112264CFF342","180edf25-3d30-4a4a-ba97-34a7e664c476","a0a8f18c-a66e-4ba7-a170-23efbdc67501","{""participantId"":""25B06F95013D47D9B5BC112264CFF342"",""assignmentId"":""180edf25-3d30-4a4a-ba97-34a7e664c476"",""projectId"":""a0a8f18c-a66e-4ba7-a170-23efbdc67501""}","https://test12345.live/?participantId=25B06F95013D47D9B5BC112264CFF342&assignmentId=180edf25-3d30-4a4a-ba97-34a7e664c476&projectId=a0a8f18c-a66e-4ba7-a170-23efbdc67501","25B06F95013D47D9B5BC112264CFF342-2024-11-24-19-35-08","","null","","[]","null","",""
"","","","","","image-button-response","130","623396","0.0-16.0-1.0-0.3","25B06F95013D47D9B5BC112264CFF342","25B06F95013D47D9B5BC112264CFF342","180edf25-3d30-4a4a-ba97-34a7e664c476","a0a8f18c-a66e-4ba7-a170-23efbdc67501","{""participantId"":""25B06F95013D47D9B5BC112264CFF342"",""assignmentId"":""180edf25-3d30-4a4a-ba97-34a7e664c476"",""projectId"":""a0a8f18c-a66e-4ba7-a170-23efbdc67501""}","https://test12345.live/?participantId=25B06F95013D47D9B5BC112264CFF342&assignmentId=180edf25-3d30-4a4a-ba97-34a7e664c476&projectId=a0a8f18c-a66e-4ba7-a170-23efbdc67501","25B06F95013D47D9B5BC112264CFF342-2024-11-24-19-35-08","","null","","images/schematic_sequence/restaurant_scheme/restaurant_scheme_4.png","null","",""
"","","","","","image-button-response","131","624803","0.0-16.0-1.0-1.3","25B06F95013D47D9B5BC112264CFF342","25B06F95013D47D9B5BC112264CFF342","180edf25-3d30-4a4a-ba97-34a7e664c476","a0a8f18c-a66e-4ba7-a170-23efbdc67501","{""participantId"":""25B06F95013D47D9B5BC112264CFF342"",""assignmentId"":""180edf25-3d30-4a4a-ba97-34a7e664c476"",""projectId"":""a0a8f18c-a66e-4ba7-a170-23efbdc67501""}","https://test12345.live/?participantId=25B06F95013D47D9B5BC112264CFF342&assignmentId=180edf25-3d30-4a4a-ba97-34a7e664c476&projectId=a0a8f18c-a66e-4ba7-a170-23efbdc67501","25B06F95013D47D9B5BC112264CFF342-2024-11-24-19-35-08","","1405","","images/schematic_sequence/restaurant_scheme/restaurant_scheme_4.png","0","",""
"","","","","","image-button-response","132","626611","0.0-16.0-1.0-2.3","25B06F95013D47D9B5BC112264CFF342","25B06F95013D47D9B5BC112264CFF342","180edf25-3d30-4a4a-ba97-34a7e664c476","a0a8f18c-a66e-4ba7-a170-23efbdc67501","{""participantId"":""25B06F95013D47D9B5BC112264CFF342"",""assignmentId"":""180edf25-3d30-4a4a-ba97-34a7e664c476"",""projectId"":""a0a8f18c-a66e-4ba7-a170-23efbdc67501""}","https://test12345.live/?participantId=25B06F95013D47D9B5BC112264CFF342&assignmentId=180edf25-3d30-4a4a-ba97-34a7e664c476&projectId=a0a8f18c-a66e-4ba7-a170-23efbdc67501","25B06F95013D47D9B5BC112264CFF342-2024-11-24-19-35-08","","null","","[]","null","",""
"","","","","","image-button-response","133","631118","0.0-16.0-1.0-0.4","25B06F95013D47D9B5BC112264CFF342","25B06F95013D47D9B5BC112264CFF342","180edf25-3d30-4a4a-ba97-34a7e664c476","a0a8f18c-a66e-4ba7-a170-23efbdc67501","{""participantId"":""25B06F95013D47D9B5BC112264CFF342"",""assignmentId"":""180edf25-3d30-4a4a-ba97-34a7e664c476"",""projectId"":""a0a8f18c-a66e-4ba7-a170-23efbdc67501""}","https://test12345.live/?participantId=25B06F95013D47D9B5BC112264CFF342&assignmentId=180edf25-3d30-4a4a-ba97-34a7e664c476&projectId=a0a8f18c-a66e-4ba7-a170-23efbdc67501","25B06F95013D47D9B5BC112264CFF342-2024-11-24-19-35-08","","null","","images/schematic_sequence/restaurant_scheme/restaurant_scheme_5.png","null","",""
"","","","","","image-button-response","134","632698","0.0-16.0-1.0-1.4","25B06F95013D47D9B5BC112264CFF342","25B06F95013D47D9B5BC112264CFF342","180edf25-3d30-4a4a-ba97-34a7e664c476","a0a8f18c-a66e-4ba7-a170-23efbdc67501","{""participantId"":""25B06F95013D47D9B5BC112264CFF342"",""assignmentId"":""180edf25-3d30-4a4a-ba97-34a7e664c476"",""projectId"":""a0a8f18c-a66e-4ba7-a170-23efbdc67501""}","https://test12345.live/?participantId=25B06F95013D47D9B5BC112264CFF342&assignmentId=180edf25-3d30-4a4a-ba97-34a7e664c476&projectId=a0a8f18c-a66e-4ba7-a170-23efbdc67501","25B06F95013D47D9B5BC112264CFF342-2024-11-24-19-35-08","","1579","","images/schematic_sequence/restaurant_scheme/restaurant_scheme_5.png","0","",""
"","","","","","image-button-response","135","634502","0.0-16.0-1.0-2.4","25B06F95013D47D9B5BC112264CFF342","25B06F95013D47D9B5BC112264CFF342","180edf25-3d30-4a4a-ba97-34a7e664c476","a0a8f18c-a66e-4ba7-a170-23efbdc67501","{""participantId"":""25B06F95013D47D9B5BC112264CFF342"",""assignmentId"":""180edf25-3d30-4a4a-ba97-34a7e664c476"",""projectId"":""a0a8f18c-a66e-4ba7-a170-23efbdc67501""}","https://test12345.live/?participantId=25B06F95013D47D9B5BC112264CFF342&assignmentId=180edf25-3d30-4a4a-ba97-34a7e664c476&projectId=a0a8f18c-a66e-4ba7-a170-23efbdc67501","25B06F95013D47D9B5BC112264CFF342-2024-11-24-19-35-08","","null","","[]","null","",""
"","","","","","image-button-response","136","639004","0.0-16.0-1.0-0.5","25B06F95013D47D9B5BC112264CFF342","25B06F95013D47D9B5BC112264CFF342","180edf25-3d30-4a4a-ba97-34a7e664c476","a0a8f18c-a66e-4ba7-a170-23efbdc67501","{""participantId"":""25B06F95013D47D9B5BC112264CFF342"",""assignmentId"":""180edf25-3d30-4a4a-ba97-34a7e664c476"",""projectId"":""a0a8f18c-a66e-4ba7-a170-23efbdc67501""}","https://test12345.live/?participantId=25B06F95013D47D9B5BC112264CFF342&assignmentId=180edf25-3d30-4a4a-ba97-34a7e664c476&projectId=a0a8f18c-a66e-4ba7-a170-23efbdc67501","25B06F95013D47D9B5BC112264CFF342-2024-11-24-19-35-08","","null","","images/schematic_sequence/restaurant_scheme/restaurant_scheme_6.png","null","",""
"","","","","","image-button-response","137","640493","0.0-16.0-1.0-1.5","25B06F95013D47D9B5BC112264CFF342","25B06F95013D47D9B5BC112264CFF342","180edf25-3d30-4a4a-ba97-34a7e664c476","a0a8f18c-a66e-4ba7-a170-23efbdc67501","{""participantId"":""25B06F95013D47D9B5BC112264CFF342"",""assignmentId"":""180edf25-3d30-4a4a-ba97-34a7e664c476"",""projectId"":""a0a8f18c-a66e-4ba7-a170-23efbdc67501""}","https://test12345.live/?participantId=25B06F95013D47D9B5BC112264CFF342&assignmentId=180edf25-3d30-4a4a-ba97-34a7e664c476&projectId=a0a8f18c-a66e-4ba7-a170-23efbdc67501","25B06F95013D47D9B5BC112264CFF342-2024-11-24-19-35-08","","1487","","images/schematic_sequence/restaurant_scheme/restaurant_scheme_6.png","1","",""
"","","","","","image-button-response","138","642301","0.0-16.0-1.0-2.5","25B06F95013D47D9B5BC112264CFF342","25B06F95013D47D9B5BC112264CFF342","180edf25-3d30-4a4a-ba97-34a7e664c476","a0a8f18c-a66e-4ba7-a170-23efbdc67501","{""participantId"":""25B06F95013D47D9B5BC112264CFF342"",""assignmentId"":""180edf25-3d30-4a4a-ba97-34a7e664c476"",""projectId"":""a0a8f18c-a66e-4ba7-a170-23efbdc67501""}","https://test12345.live/?participantId=25B06F95013D47D9B5BC112264CFF342&assignmentId=180edf25-3d30-4a4a-ba97-34a7e664c476&projectId=a0a8f18c-a66e-4ba7-a170-23efbdc67501","25B06F95013D47D9B5BC112264CFF342-2024-11-24-19-35-08","","null","","[]","null","",""
"","","","","","image-button-response","139","646804","0.0-16.0-1.0-0.6","25B06F95013D47D9B5BC112264CFF342","25B06F95013D47D9B5BC112264CFF342","180edf25-3d30-4a4a-ba97-34a7e664c476","a0a8f18c-a66e-4ba7-a170-23efbdc67501","{""participantId"":""25B06F95013D47D9B5BC112264CFF342"",""assignmentId"":""180edf25-3d30-4a4a-ba97-34a7e664c476"",""projectId"":""a0a8f18c-a66e-4ba7-a170-23efbdc67501""}","https://test12345.live/?participantId=25B06F95013D47D9B5BC112264CFF342&assignmentId=180edf25-3d30-4a4a-ba97-34a7e664c476&projectId=a0a8f18c-a66e-4ba7-a170-23efbdc67501","25B06F95013D47D9B5BC112264CFF342-2024-11-24-19-35-08","","null","","images/schematic_sequence/restaurant_scheme/restaurant_scheme_7.png","null","",""
"","","","","","image-button-response","140","648330","0.0-16.0-1.0-1.6","25B06F95013D47D9B5BC112264CFF342","25B06F95013D47D9B5BC112264CFF342","180edf25-3d30-4a4a-ba97-34a7e664c476","a0a8f18c-a66e-4ba7-a170-23efbdc67501","{""participantId"":""25B06F95013D47D9B5BC112264CFF342"",""assignmentId"":""180edf25-3d30-4a4a-ba97-34a7e664c476"",""projectId"":""a0a8f18c-a66e-4ba7-a170-23efbdc67501""}","https://test12345.live/?participantId=25B06F95013D47D9B5BC112264CFF342&assignmentId=180edf25-3d30-4a4a-ba97-34a7e664c476&projectId=a0a8f18c-a66e-4ba7-a170-23efbdc67501","25B06F95013D47D9B5BC112264CFF342-2024-11-24-19-35-08","","1525","","images/schematic_sequence/restaurant_scheme/restaurant_scheme_7.png","1","",""
"","","","","","image-button-response","141","650139","0.0-16.0-1.0-2.6","25B06F95013D47D9B5BC112264CFF342","25B06F95013D47D9B5BC112264CFF342","180edf25-3d30-4a4a-ba97-34a7e664c476","a0a8f18c-a66e-4ba7-a170-23efbdc67501","{""participantId"":""25B06F95013D47D9B5BC112264CFF342"",""assignmentId"":""180edf25-3d30-4a4a-ba97-34a7e664c476"",""projectId"":""a0a8f18c-a66e-4ba7-a170-23efbdc67501""}","https://test12345.live/?participantId=25B06F95013D47D9B5BC112264CFF342&assignmentId=180edf25-3d30-4a4a-ba97-34a7e664c476&projectId=a0a8f18c-a66e-4ba7-a170-23efbdc67501","25B06F95013D47D9B5BC112264CFF342-2024-11-24-19-35-08","","null","","[]","null","",""
"","","","","","image-button-response","142","654656","0.0-16.0-1.0-0.7","25B06F95013D47D9B5BC112264CFF342","25B06F95013D47D9B5BC112264CFF342","180edf25-3d30-4a4a-ba97-34a7e664c476","a0a8f18c-a66e-4ba7-a170-23efbdc67501","{""participantId"":""25B06F95013D47D9B5BC112264CFF342"",""assignmentId"":""180edf25-3d30-4a4a-ba97-34a7e664c476"",""projectId"":""a0a8f18c-a66e-4ba7-a170-23efbdc67501""}","https://test12345.live/?participantId=25B06F95013D47D9B5BC112264CFF342&assignmentId=180edf25-3d30-4a4a-ba97-34a7e664c476&projectId=a0a8f18c-a66e-4ba7-a170-23efbdc67501","25B06F95013D47D9B5BC112264CFF342-2024-11-24-19-35-08","","null","","images/schematic_sequence/restaurant_scheme/restaurant_scheme_8.png","null","",""
