"success","timeout","failed_images","failed_audio","failed_video","trial_type","trial_index","time_elapsed","internal_node_id","subject","subject_id","study_id","session_id","urlvar","current_url","audio_id","view_history","rt","device_id","stimulus","response","estimated_stimulus_onset","seq_name"
"true","false","[]","[]","[]","preload","0","2199","0.0-0.0","3C3B0DCC689A44C29FA452A3BAE7B8C3","3C3B0DCC689A44C29FA452A3BAE7B8C3","35674c9c-1a64-4182-b57a-1bf653ebd6da","a0a8f18c-a66e-4ba7-a170-23efbdc67501","{""participantId"":""3C3B0DCC689A44C29FA452A3BAE7B8C3"",""assignmentId"":""35674c9c-1a64-4182-b57a-1bf653ebd6da"",""projectId"":""a0a8f18c-a66e-4ba7-a170-23efbdc67501""}","https://test12345.live/?participantId=3C3B0DCC689A44C29FA452A3BAE7B8C3&assignmentId=35674c9c-1a64-4182-b57a-1bf653ebd6da&projectId=a0a8f18c-a66e-4ba7-a170-23efbdc67501","3C3B0DCC689A44C29FA452A3BAE7B8C3-2024-11-24-18-31-39","","","","","","",""
"","","","","","instructions","1","45110","0.0-1.0","3C3B0DCC689A44C29FA452A3BAE7B8C3","3C3B0DCC689A44C29FA452A3BAE7B8C3","35674c9c-1a64-4182-b57a-1bf653ebd6da","a0a8f18c-a66e-4ba7-a170-23efbdc67501","{""participantId"":""3C3B0DCC689A44C29FA452A3BAE7B8C3"",""assignmentId"":""35674c9c-1a64-4182-b57a-1bf653ebd6da"",""projectId"":""a0a8f18c-a66e-4ba7-a170-23efbdc67501""}","https://test12345.live/?participantId=3C3B0DCC689A44C29FA452A3BAE7B8C3&assignmentId=35674c9c-1a64-4182-b57a-1bf653ebd6da&projectId=a0a8f18c-a66e-4ba7-a170-23efbdc67501","3C3B0DCC689A44C29FA452A3BAE7B8C3-2024-11-24-18-31-39","[{""page_index"":0,""viewing_time"":42910}]","42910","","","","",""
"","","","","","instructions","2","56111","0.0-2.0","3C3B0DCC689A44C29FA452A3BAE7B8C3","3C3B0DCC689A44C29FA452A3BAE7B8C3","35674c9c-1a64-4182-b57a-1bf653ebd6da","a0a8f18c-a66e-4ba7-a170-23efbdc67501","{""participantId"":""3C3B0DCC689A44C29FA452A3BAE7B8C3"",""assignmentId"":""35674c9c-1a64-4182-b57a-1bf653ebd6da"",""projectId"":""a0a8f18c-a66e-4ba7-a170-23efbdc67501""}","https://test12345.live/?participantId=3C3B0DCC689A44C29FA452A3BAE7B8C3&assignmentId=35674c9c-1a64-4182-b57a-1bf653ebd6da&projectId=a0a8f18c-a66e-4ba7-a170-23efbdc67501","3C3B0DCC689A44C29FA452A3BAE7B8C3-2024-11-24-18-31-39","[{""page_index"":0,""viewing_time"":10999}]","11000","","","","",""
"true","","","","","fullscreen","3","58652","0.0-3.0","3C3B0DCC689A44C29FA452A3BAE7B8C3","3C3B0DCC689A44C29FA452A3BAE7B8C3","35674c9c-1a64-4182-b57a-1bf653ebd6da","a0a8f18c-a66e-4ba7-a170-23efbdc67501","{""participantId"":""3C3B0DCC689A44C29FA452A3BAE7B8C3"",""assignmentId"":""35674c9c-1a64-4182-b57a-1bf653ebd6da"",""projectId"":""a0a8f18c-a66e-4ba7-a170-23efbdc67501""}","https://test12345.live/?participantId=3C3B0DCC689A44C29FA452A3BAE7B8C3&assignmentId=35674c9c-1a64-4182-b57a-1bf653ebd6da&projectId=a0a8f18c-a66e-4ba7-a170-23efbdc67501","3C3B0DCC689A44C29FA452A3BAE7B8C3-2024-11-24-18-31-39","","1531","","","","",""
"","","","","","initialize-microphone","4","64843","0.0-4.0-0.0","3C3B0DCC689A44C29FA452A3BAE7B8C3","3C3B0DCC689A44C29FA452A3BAE7B8C3","35674c9c-1a64-4182-b57a-1bf653ebd6da","a0a8f18c-a66e-4ba7-a170-23efbdc67501","{""participantId"":""3C3B0DCC689A44C29FA452A3BAE7B8C3"",""assignmentId"":""35674c9c-1a64-4182-b57a-1bf653ebd6da"",""projectId"":""a0a8f18c-a66e-4ba7-a170-23efbdc67501""}","https://test12345.live/?participantId=3C3B0DCC689A44C29FA452A3BAE7B8C3&assignmentId=35674c9c-1a64-4182-b57a-1bf653ebd6da&projectId=a0a8f18c-a66e-4ba7-a170-23efbdc67501","3C3B0DCC689A44C29FA452A3BAE7B8C3-2024-11-24-18-31-39","","","28a86bf40abe441865d30ae1263479fd4d7d8b7dcbb0cd8a2261459bea260fdd","","","",""
"","","","","","html-audio-response","5","82493","0.0-4.0-1.0","3C3B0DCC689A44C29FA452A3BAE7B8C3","3C3B0DCC689A44C29FA452A3BAE7B8C3","35674c9c-1a64-4182-b57a-1bf653ebd6da","a0a8f18c-a66e-4ba7-a170-23efbdc67501","{""participantId"":""3C3B0DCC689A44C29FA452A3BAE7B8C3"",""assignmentId"":""35674c9c-1a64-4182-b57a-1bf653ebd6da"",""projectId"":""a0a8f18c-a66e-4ba7-a170-23efbdc67501""}","https://test12345.live/?participantId=3C3B0DCC689A44C29FA452A3BAE7B8C3&assignmentId=35674c9c-1a64-4182-b57a-1bf653ebd6da&projectId=a0a8f18c-a66e-4ba7-a170-23efbdc67501","3C3B0DCC689A44C29FA452A3BAE7B8C3-2024-11-24-18-31-39","","862","","<span style=""color: red; font-size: 24px""> NOW RECORDING</span>
        <p>Please test Microphone</p>","","2",""
"","","","","","html-button-response","6","84382","0.0-4.0-2.0","3C3B0DCC689A44C29FA452A3BAE7B8C3","3C3B0DCC689A44C29FA452A3BAE7B8C3","35674c9c-1a64-4182-b57a-1bf653ebd6da","a0a8f18c-a66e-4ba7-a170-23efbdc67501","{""participantId"":""3C3B0DCC689A44C29FA452A3BAE7B8C3"",""assignmentId"":""35674c9c-1a64-4182-b57a-1bf653ebd6da"",""projectId"":""a0a8f18c-a66e-4ba7-a170-23efbdc67501""}","https://test12345.live/?participantId=3C3B0DCC689A44C29FA452A3BAE7B8C3&assignmentId=35674c9c-1a64-4182-b57a-1bf653ebd6da&projectId=a0a8f18c-a66e-4ba7-a170-23efbdc67501","3C3B0DCC689A44C29FA452A3BAE7B8C3-2024-11-24-18-31-39","","1888","","<p style=""font-size:48px; color:red;"">Is Microphone OK?</p>","1","",""
"","","","","","instructions","7","94110","0.0-5.0","3C3B0DCC689A44C29FA452A3BAE7B8C3","3C3B0DCC689A44C29FA452A3BAE7B8C3","35674c9c-1a64-4182-b57a-1bf653ebd6da","a0a8f18c-a66e-4ba7-a170-23efbdc67501","{""participantId"":""3C3B0DCC689A44C29FA452A3BAE7B8C3"",""assignmentId"":""35674c9c-1a64-4182-b57a-1bf653ebd6da"",""projectId"":""a0a8f18c-a66e-4ba7-a170-23efbdc67501""}","https://test12345.live/?participantId=3C3B0DCC689A44C29FA452A3BAE7B8C3&assignmentId=35674c9c-1a64-4182-b57a-1bf653ebd6da&projectId=a0a8f18c-a66e-4ba7-a170-23efbdc67501","3C3B0DCC689A44C29FA452A3BAE7B8C3-2024-11-24-18-31-39","[{""page_index"":0,""viewing_time"":3823},{""page_index"":1,""viewing_time"":5904}]","9728","","","","",""
"","","","","","image-button-response","8","100127","0.0-6.0-0.0","3C3B0DCC689A44C29FA452A3BAE7B8C3","3C3B0DCC689A44C29FA452A3BAE7B8C3","35674c9c-1a64-4182-b57a-1bf653ebd6da","a0a8f18c-a66e-4ba7-a170-23efbdc67501","{""participantId"":""3C3B0DCC689A44C29FA452A3BAE7B8C3"",""assignmentId"":""35674c9c-1a64-4182-b57a-1bf653ebd6da"",""projectId"":""a0a8f18c-a66e-4ba7-a170-23efbdc67501""}","https://test12345.live/?participantId=3C3B0DCC689A44C29FA452A3BAE7B8C3&assignmentId=35674c9c-1a64-4182-b57a-1bf653ebd6da&projectId=a0a8f18c-a66e-4ba7-a170-23efbdc67501","3C3B0DCC689A44C29FA452A3BAE7B8C3-2024-11-24-18-31-39","","null","","images/instructions/movie_0.png","null","",""
"","","","","","image-button-response","9","104639","0.0-6.0-1.0-0.0","3C3B0DCC689A44C29FA452A3BAE7B8C3","3C3B0DCC689A44C29FA452A3BAE7B8C3","35674c9c-1a64-4182-b57a-1bf653ebd6da","a0a8f18c-a66e-4ba7-a170-23efbdc67501","{""participantId"":""3C3B0DCC689A44C29FA452A3BAE7B8C3"",""assignmentId"":""35674c9c-1a64-4182-b57a-1bf653ebd6da"",""projectId"":""a0a8f18c-a66e-4ba7-a170-23efbdc67501""}","https://test12345.live/?participantId=3C3B0DCC689A44C29FA452A3BAE7B8C3&assignmentId=35674c9c-1a64-4182-b57a-1bf653ebd6da&projectId=a0a8f18c-a66e-4ba7-a170-23efbdc67501","3C3B0DCC689A44C29FA452A3BAE7B8C3-2024-11-24-18-31-39","","null","","images/instructions/movie_1.png","null","",""
"","","","","","image-button-response","10","107079","0.0-6.0-1.0-1.0","3C3B0DCC689A44C29FA452A3BAE7B8C3","3C3B0DCC689A44C29FA452A3BAE7B8C3","35674c9c-1a64-4182-b57a-1bf653ebd6da","a0a8f18c-a66e-4ba7-a170-23efbdc67501","{""participantId"":""3C3B0DCC689A44C29FA452A3BAE7B8C3"",""assignmentId"":""35674c9c-1a64-4182-b57a-1bf653ebd6da"",""projectId"":""a0a8f18c-a66e-4ba7-a170-23efbdc67501""}","https://test12345.live/?participantId=3C3B0DCC689A44C29FA452A3BAE7B8C3&assignmentId=35674c9c-1a64-4182-b57a-1bf653ebd6da&projectId=a0a8f18c-a66e-4ba7-a170-23efbdc67501","3C3B0DCC689A44C29FA452A3BAE7B8C3-2024-11-24-18-31-39","","2439","","images/instructions/movie_1.png","0","",""
"","","","","","image-button-response","11","108890","0.0-6.0-1.0-2.0","3C3B0DCC689A44C29FA452A3BAE7B8C3","3C3B0DCC689A44C29FA452A3BAE7B8C3","35674c9c-1a64-4182-b57a-1bf653ebd6da","a0a8f18c-a66e-4ba7-a170-23efbdc67501","{""participantId"":""3C3B0DCC689A44C29FA452A3BAE7B8C3"",""assignmentId"":""35674c9c-1a64-4182-b57a-1bf653ebd6da"",""projectId"":""a0a8f18c-a66e-4ba7-a170-23efbdc67501""}","https://test12345.live/?participantId=3C3B0DCC689A44C29FA452A3BAE7B8C3&assignmentId=35674c9c-1a64-4182-b57a-1bf653ebd6da&projectId=a0a8f18c-a66e-4ba7-a170-23efbdc67501","3C3B0DCC689A44C29FA452A3BAE7B8C3-2024-11-24-18-31-39","","null","","[]","null","",""
"","","","","","image-button-response","12","113402","0.0-6.0-1.0-0.1","3C3B0DCC689A44C29FA452A3BAE7B8C3","3C3B0DCC689A44C29FA452A3BAE7B8C3","35674c9c-1a64-4182-b57a-1bf653ebd6da","a0a8f18c-a66e-4ba7-a170-23efbdc67501","{""participantId"":""3C3B0DCC689A44C29FA452A3BAE7B8C3"",""assignmentId"":""35674c9c-1a64-4182-b57a-1bf653ebd6da"",""projectId"":""a0a8f18c-a66e-4ba7-a170-23efbdc67501""}","https://test12345.live/?participantId=3C3B0DCC689A44C29FA452A3BAE7B8C3&assignmentId=35674c9c-1a64-4182-b57a-1bf653ebd6da&projectId=a0a8f18c-a66e-4ba7-a170-23efbdc67501","3C3B0DCC689A44C29FA452A3BAE7B8C3-2024-11-24-18-31-39","","null","","images/instructions/movie_2.png","null","",""
"","","","","","image-button-response","13","115225","0.0-6.0-1.0-1.1","3C3B0DCC689A44C29FA452A3BAE7B8C3","3C3B0DCC689A44C29FA452A3BAE7B8C3","35674c9c-1a64-4182-b57a-1bf653ebd6da","a0a8f18c-a66e-4ba7-a170-23efbdc67501","{""participantId"":""3C3B0DCC689A44C29FA452A3BAE7B8C3"",""assignmentId"":""35674c9c-1a64-4182-b57a-1bf653ebd6da"",""projectId"":""a0a8f18c-a66e-4ba7-a170-23efbdc67501""}","https://test12345.live/?participantId=3C3B0DCC689A44C29FA452A3BAE7B8C3&assignmentId=35674c9c-1a64-4182-b57a-1bf653ebd6da&projectId=a0a8f18c-a66e-4ba7-a170-23efbdc67501","3C3B0DCC689A44C29FA452A3BAE7B8C3-2024-11-24-18-31-39","","1822","","images/instructions/movie_2.png","1","",""
"","","","","","image-button-response","14","117034","0.0-6.0-1.0-2.1","3C3B0DCC689A44C29FA452A3BAE7B8C3","3C3B0DCC689A44C29FA452A3BAE7B8C3","35674c9c-1a64-4182-b57a-1bf653ebd6da","a0a8f18c-a66e-4ba7-a170-23efbdc67501","{""participantId"":""3C3B0DCC689A44C29FA452A3BAE7B8C3"",""assignmentId"":""35674c9c-1a64-4182-b57a-1bf653ebd6da"",""projectId"":""a0a8f18c-a66e-4ba7-a170-23efbdc67501""}","https://test12345.live/?participantId=3C3B0DCC689A44C29FA452A3BAE7B8C3&assignmentId=35674c9c-1a64-4182-b57a-1bf653ebd6da&projectId=a0a8f18c-a66e-4ba7-a170-23efbdc67501","3C3B0DCC689A44C29FA452A3BAE7B8C3-2024-11-24-18-31-39","","null","","[]","null","",""
"","","","","","image-button-response","15","121541","0.0-6.0-1.0-0.2","3C3B0DCC689A44C29FA452A3BAE7B8C3","3C3B0DCC689A44C29FA452A3BAE7B8C3","35674c9c-1a64-4182-b57a-1bf653ebd6da","a0a8f18c-a66e-4ba7-a170-23efbdc67501","{""participantId"":""3C3B0DCC689A44C29FA452A3BAE7B8C3"",""assignmentId"":""35674c9c-1a64-4182-b57a-1bf653ebd6da"",""projectId"":""a0a8f18c-a66e-4ba7-a170-23efbdc67501""}","https://test12345.live/?participantId=3C3B0DCC689A44C29FA452A3BAE7B8C3&assignmentId=35674c9c-1a64-4182-b57a-1bf653ebd6da&projectId=a0a8f18c-a66e-4ba7-a170-23efbdc67501","3C3B0DCC689A44C29FA452A3BAE7B8C3-2024-11-24-18-31-39","","null","","images/instructions/movie_3.png","null","",""
"","","","","","image-button-response","16","122795","0.0-6.0-1.0-1.2","3C3B0DCC689A44C29FA452A3BAE7B8C3","3C3B0DCC689A44C29FA452A3BAE7B8C3","35674c9c-1a64-4182-b57a-1bf653ebd6da","a0a8f18c-a66e-4ba7-a170-23efbdc67501","{""participantId"":""3C3B0DCC689A44C29FA452A3BAE7B8C3"",""assignmentId"":""35674c9c-1a64-4182-b57a-1bf653ebd6da"",""projectId"":""a0a8f18c-a66e-4ba7-a170-23efbdc67501""}","https://test12345.live/?participantId=3C3B0DCC689A44C29FA452A3BAE7B8C3&assignmentId=35674c9c-1a64-4182-b57a-1bf653ebd6da&projectId=a0a8f18c-a66e-4ba7-a170-23efbdc67501","3C3B0DCC689A44C29FA452A3BAE7B8C3-2024-11-24-18-31-39","","1252","","images/instructions/movie_3.png","0","",""
"","","","","","image-button-response","17","124608","0.0-6.0-1.0-2.2","3C3B0DCC689A44C29FA452A3BAE7B8C3","3C3B0DCC689A44C29FA452A3BAE7B8C3","35674c9c-1a64-4182-b57a-1bf653ebd6da","a0a8f18c-a66e-4ba7-a170-23efbdc67501","{""participantId"":""3C3B0DCC689A44C29FA452A3BAE7B8C3"",""assignmentId"":""35674c9c-1a64-4182-b57a-1bf653ebd6da"",""projectId"":""a0a8f18c-a66e-4ba7-a170-23efbdc67501""}","https://test12345.live/?participantId=3C3B0DCC689A44C29FA452A3BAE7B8C3&assignmentId=35674c9c-1a64-4182-b57a-1bf653ebd6da&projectId=a0a8f18c-a66e-4ba7-a170-23efbdc67501","3C3B0DCC689A44C29FA452A3BAE7B8C3-2024-11-24-18-31-39","","null","","[]","null","",""
"","","","","","image-button-response","18","129125","0.0-6.0-1.0-0.3","3C3B0DCC689A44C29FA452A3BAE7B8C3","3C3B0DCC689A44C29FA452A3BAE7B8C3","35674c9c-1a64-4182-b57a-1bf653ebd6da","a0a8f18c-a66e-4ba7-a170-23efbdc67501","{""participantId"":""3C3B0DCC689A44C29FA452A3BAE7B8C3"",""assignmentId"":""35674c9c-1a64-4182-b57a-1bf653ebd6da"",""projectId"":""a0a8f18c-a66e-4ba7-a170-23efbdc67501""}","https://test12345.live/?participantId=3C3B0DCC689A44C29FA452A3BAE7B8C3&assignmentId=35674c9c-1a64-4182-b57a-1bf653ebd6da&projectId=a0a8f18c-a66e-4ba7-a170-23efbdc67501","3C3B0DCC689A44C29FA452A3BAE7B8C3-2024-11-24-18-31-39","","null","","images/instructions/movie_4.png","null","",""
"","","","","","image-button-response","19","130165","0.0-6.0-1.0-1.3","3C3B0DCC689A44C29FA452A3BAE7B8C3","3C3B0DCC689A44C29FA452A3BAE7B8C3","35674c9c-1a64-4182-b57a-1bf653ebd6da","a0a8f18c-a66e-4ba7-a170-23efbdc67501","{""participantId"":""3C3B0DCC689A44C29FA452A3BAE7B8C3"",""assignmentId"":""35674c9c-1a64-4182-b57a-1bf653ebd6da"",""projectId"":""a0a8f18c-a66e-4ba7-a170-23efbdc67501""}","https://test12345.live/?participantId=3C3B0DCC689A44C29FA452A3BAE7B8C3&assignmentId=35674c9c-1a64-4182-b57a-1bf653ebd6da&projectId=a0a8f18c-a66e-4ba7-a170-23efbdc67501","3C3B0DCC689A44C29FA452A3BAE7B8C3-2024-11-24-18-31-39","","1039","","images/instructions/movie_4.png","0","",""
"","","","","","image-button-response","20","131967","0.0-6.0-1.0-2.3","3C3B0DCC689A44C29FA452A3BAE7B8C3","3C3B0DCC689A44C29FA452A3BAE7B8C3","35674c9c-1a64-4182-b57a-1bf653ebd6da","a0a8f18c-a66e-4ba7-a170-23efbdc67501","{""participantId"":""3C3B0DCC689A44C29FA452A3BAE7B8C3"",""assignmentId"":""35674c9c-1a64-4182-b57a-1bf653ebd6da"",""projectId"":""a0a8f18c-a66e-4ba7-a170-23efbdc67501""}","https://test12345.live/?participantId=3C3B0DCC689A44C29FA452A3BAE7B8C3&assignmentId=35674c9c-1a64-4182-b57a-1bf653ebd6da&projectId=a0a8f18c-a66e-4ba7-a170-23efbdc67501","3C3B0DCC689A44C29FA452A3BAE7B8C3-2024-11-24-18-31-39","","null","","[]","null","",""
"","","","","","instructions","21","143802","0.0-7.0","3C3B0DCC689A44C29FA452A3BAE7B8C3","3C3B0DCC689A44C29FA452A3BAE7B8C3","35674c9c-1a64-4182-b57a-1bf653ebd6da","a0a8f18c-a66e-4ba7-a170-23efbdc67501","{""participantId"":""3C3B0DCC689A44C29FA452A3BAE7B8C3"",""assignmentId"":""35674c9c-1a64-4182-b57a-1bf653ebd6da"",""projectId"":""a0a8f18c-a66e-4ba7-a170-23efbdc67501""}","https://test12345.live/?participantId=3C3B0DCC689A44C29FA452A3BAE7B8C3&assignmentId=35674c9c-1a64-4182-b57a-1bf653ebd6da&projectId=a0a8f18c-a66e-4ba7-a170-23efbdc67501","3C3B0DCC689A44C29FA452A3BAE7B8C3-2024-11-24-18-31-39","[{""page_index"":0,""viewing_time"":10445},{""page_index"":1,""viewing_time"":1389}]","11835","","","","",""
"","","","","","html-audio-response","22","172384","0.0-8.0","3C3B0DCC689A44C29FA452A3BAE7B8C3","3C3B0DCC689A44C29FA452A3BAE7B8C3","35674c9c-1a64-4182-b57a-1bf653ebd6da","a0a8f18c-a66e-4ba7-a170-23efbdc67501","{""participantId"":""3C3B0DCC689A44C29FA452A3BAE7B8C3"",""assignmentId"":""35674c9c-1a64-4182-b57a-1bf653ebd6da"",""projectId"":""a0a8f18c-a66e-4ba7-a170-23efbdc67501""}","https://test12345.live/?participantId=3C3B0DCC689A44C29FA452A3BAE7B8C3&assignmentId=35674c9c-1a64-4182-b57a-1bf653ebd6da&projectId=a0a8f18c-a66e-4ba7-a170-23efbdc67501","3C3B0DCC689A44C29FA452A3BAE7B8C3-2024-11-24-18-31-39","","8946","","[""<span style=\""color: red; font-size: 24px\""> NOW RECORDING</span><p>Please say out loud all the images you saw, as many as you can remember. The images can be said in any order.</p>""]","","19",""
"","","","","","instructions","23","173977","0.0-9.0","3C3B0DCC689A44C29FA452A3BAE7B8C3","3C3B0DCC689A44C29FA452A3BAE7B8C3","35674c9c-1a64-4182-b57a-1bf653ebd6da","a0a8f18c-a66e-4ba7-a170-23efbdc67501","{""participantId"":""3C3B0DCC689A44C29FA452A3BAE7B8C3"",""assignmentId"":""35674c9c-1a64-4182-b57a-1bf653ebd6da"",""projectId"":""a0a8f18c-a66e-4ba7-a170-23efbdc67501""}","https://test12345.live/?participantId=3C3B0DCC689A44C29FA452A3BAE7B8C3&assignmentId=35674c9c-1a64-4182-b57a-1bf653ebd6da&projectId=a0a8f18c-a66e-4ba7-a170-23efbdc67501","3C3B0DCC689A44C29FA452A3BAE7B8C3-2024-11-24-18-31-39","[{""page_index"":0,""viewing_time"":1590}]","1590","","","","",""
"","","","","","image-button-response","24","179982","0.0-10.0-0.0","3C3B0DCC689A44C29FA452A3BAE7B8C3","3C3B0DCC689A44C29FA452A3BAE7B8C3","35674c9c-1a64-4182-b57a-1bf653ebd6da","a0a8f18c-a66e-4ba7-a170-23efbdc67501","{""participantId"":""3C3B0DCC689A44C29FA452A3BAE7B8C3"",""assignmentId"":""35674c9c-1a64-4182-b57a-1bf653ebd6da"",""projectId"":""a0a8f18c-a66e-4ba7-a170-23efbdc67501""}","https://test12345.live/?participantId=3C3B0DCC689A44C29FA452A3BAE7B8C3&assignmentId=35674c9c-1a64-4182-b57a-1bf653ebd6da&projectId=a0a8f18c-a66e-4ba7-a170-23efbdc67501","3C3B0DCC689A44C29FA452A3BAE7B8C3-2024-11-24-18-31-39","","null","","images/semantic_sequence/physical_activity_semantic/physical_activity_semantic_0.png","null","",""
"","","","","","image-button-response","25","184488","0.0-10.0-1.0-0.0","3C3B0DCC689A44C29FA452A3BAE7B8C3","3C3B0DCC689A44C29FA452A3BAE7B8C3","35674c9c-1a64-4182-b57a-1bf653ebd6da","a0a8f18c-a66e-4ba7-a170-23efbdc67501","{""participantId"":""3C3B0DCC689A44C29FA452A3BAE7B8C3"",""assignmentId"":""35674c9c-1a64-4182-b57a-1bf653ebd6da"",""projectId"":""a0a8f18c-a66e-4ba7-a170-23efbdc67501""}","https://test12345.live/?participantId=3C3B0DCC689A44C29FA452A3BAE7B8C3&assignmentId=35674c9c-1a64-4182-b57a-1bf653ebd6da&projectId=a0a8f18c-a66e-4ba7-a170-23efbdc67501","3C3B0DCC689A44C29FA452A3BAE7B8C3-2024-11-24-18-31-39","","null","","images/semantic_sequence/physical_activity_semantic/physical_activity_semantic_1.png","null","",""
"","","","","","image-button-response","26","186172","0.0-10.0-1.0-1.0","3C3B0DCC689A44C29FA452A3BAE7B8C3","3C3B0DCC689A44C29FA452A3BAE7B8C3","35674c9c-1a64-4182-b57a-1bf653ebd6da","a0a8f18c-a66e-4ba7-a170-23efbdc67501","{""participantId"":""3C3B0DCC689A44C29FA452A3BAE7B8C3"",""assignmentId"":""35674c9c-1a64-4182-b57a-1bf653ebd6da"",""projectId"":""a0a8f18c-a66e-4ba7-a170-23efbdc67501""}","https://test12345.live/?participantId=3C3B0DCC689A44C29FA452A3BAE7B8C3&assignmentId=35674c9c-1a64-4182-b57a-1bf653ebd6da&projectId=a0a8f18c-a66e-4ba7-a170-23efbdc67501","3C3B0DCC689A44C29FA452A3BAE7B8C3-2024-11-24-18-31-39","","1683","","images/semantic_sequence/physical_activity_semantic/physical_activity_semantic_1.png","0","",""
"","","","","","image-button-response","27","187990","0.0-10.0-1.0-2.0","3C3B0DCC689A44C29FA452A3BAE7B8C3","3C3B0DCC689A44C29FA452A3BAE7B8C3","35674c9c-1a64-4182-b57a-1bf653ebd6da","a0a8f18c-a66e-4ba7-a170-23efbdc67501","{""participantId"":""3C3B0DCC689A44C29FA452A3BAE7B8C3"",""assignmentId"":""35674c9c-1a64-4182-b57a-1bf653ebd6da"",""projectId"":""a0a8f18c-a66e-4ba7-a170-23efbdc67501""}","https://test12345.live/?participantId=3C3B0DCC689A44C29FA452A3BAE7B8C3&assignmentId=35674c9c-1a64-4182-b57a-1bf653ebd6da&projectId=a0a8f18c-a66e-4ba7-a170-23efbdc67501","3C3B0DCC689A44C29FA452A3BAE7B8C3-2024-11-24-18-31-39","","null","","[]","null","",""
"","","","","","image-button-response","28","192491","0.0-10.0-1.0-0.1","3C3B0DCC689A44C29FA452A3BAE7B8C3","3C3B0DCC689A44C29FA452A3BAE7B8C3","35674c9c-1a64-4182-b57a-1bf653ebd6da","a0a8f18c-a66e-4ba7-a170-23efbdc67501","{""participantId"":""3C3B0DCC689A44C29FA452A3BAE7B8C3"",""assignmentId"":""35674c9c-1a64-4182-b57a-1bf653ebd6da"",""projectId"":""a0a8f18c-a66e-4ba7-a170-23efbdc67501""}","https://test12345.live/?participantId=3C3B0DCC689A44C29FA452A3BAE7B8C3&assignmentId=35674c9c-1a64-4182-b57a-1bf653ebd6da&projectId=a0a8f18c-a66e-4ba7-a170-23efbdc67501","3C3B0DCC689A44C29FA452A3BAE7B8C3-2024-11-24-18-31-39","","null","","images/semantic_sequence/physical_activity_semantic/physical_activity_semantic_2.png","null","",""
"","","","","","image-button-response","29","193538","0.0-10.0-1.0-1.1","3C3B0DCC689A44C29FA452A3BAE7B8C3","3C3B0DCC689A44C29FA452A3BAE7B8C3","35674c9c-1a64-4182-b57a-1bf653ebd6da","a0a8f18c-a66e-4ba7-a170-23efbdc67501","{""participantId"":""3C3B0DCC689A44C29FA452A3BAE7B8C3"",""assignmentId"":""35674c9c-1a64-4182-b57a-1bf653ebd6da"",""projectId"":""a0a8f18c-a66e-4ba7-a170-23efbdc67501""}","https://test12345.live/?participantId=3C3B0DCC689A44C29FA452A3BAE7B8C3&assignmentId=35674c9c-1a64-4182-b57a-1bf653ebd6da&projectId=a0a8f18c-a66e-4ba7-a170-23efbdc67501","3C3B0DCC689A44C29FA452A3BAE7B8C3-2024-11-24-18-31-39","","1045","","images/semantic_sequence/physical_activity_semantic/physical_activity_semantic_2.png","0","",""
"","","","","","image-button-response","30","195344","0.0-10.0-1.0-2.1","3C3B0DCC689A44C29FA452A3BAE7B8C3","3C3B0DCC689A44C29FA452A3BAE7B8C3","35674c9c-1a64-4182-b57a-1bf653ebd6da","a0a8f18c-a66e-4ba7-a170-23efbdc67501","{""participantId"":""3C3B0DCC689A44C29FA452A3BAE7B8C3"",""assignmentId"":""35674c9c-1a64-4182-b57a-1bf653ebd6da"",""projectId"":""a0a8f18c-a66e-4ba7-a170-23efbdc67501""}","https://test12345.live/?participantId=3C3B0DCC689A44C29FA452A3BAE7B8C3&assignmentId=35674c9c-1a64-4182-b57a-1bf653ebd6da&projectId=a0a8f18c-a66e-4ba7-a170-23efbdc67501","3C3B0DCC689A44C29FA452A3BAE7B8C3-2024-11-24-18-31-39","","null","","[]","null","",""
"","","","","","image-button-response","31","199854","0.0-10.0-1.0-0.2","3C3B0DCC689A44C29FA452A3BAE7B8C3","3C3B0DCC689A44C29FA452A3BAE7B8C3","35674c9c-1a64-4182-b57a-1bf653ebd6da","a0a8f18c-a66e-4ba7-a170-23efbdc67501","{""participantId"":""3C3B0DCC689A44C29FA452A3BAE7B8C3"",""assignmentId"":""35674c9c-1a64-4182-b57a-1bf653ebd6da"",""projectId"":""a0a8f18c-a66e-4ba7-a170-23efbdc67501""}","https://test12345.live/?participantId=3C3B0DCC689A44C29FA452A3BAE7B8C3&assignmentId=35674c9c-1a64-4182-b57a-1bf653ebd6da&projectId=a0a8f18c-a66e-4ba7-a170-23efbdc67501","3C3B0DCC689A44C29FA452A3BAE7B8C3-2024-11-24-18-31-39","","null","","images/semantic_sequence/physical_activity_semantic/physical_activity_semantic_3.png","null","",""
"","","","","","image-button-response","32","200776","0.0-10.0-1.0-1.2","3C3B0DCC689A44C29FA452A3BAE7B8C3","3C3B0DCC689A44C29FA452A3BAE7B8C3","35674c9c-1a64-4182-b57a-1bf653ebd6da","a0a8f18c-a66e-4ba7-a170-23efbdc67501","{""participantId"":""3C3B0DCC689A44C29FA452A3BAE7B8C3"",""assignmentId"":""35674c9c-1a64-4182-b57a-1bf653ebd6da"",""projectId"":""a0a8f18c-a66e-4ba7-a170-23efbdc67501""}","https://test12345.live/?participantId=3C3B0DCC689A44C29FA452A3BAE7B8C3&assignmentId=35674c9c-1a64-4182-b57a-1bf653ebd6da&projectId=a0a8f18c-a66e-4ba7-a170-23efbdc67501","3C3B0DCC689A44C29FA452A3BAE7B8C3-2024-11-24-18-31-39","","920","","images/semantic_sequence/physical_activity_semantic/physical_activity_semantic_3.png","0","",""
"","","","","","image-button-response","33","202589","0.0-10.0-1.0-2.2","3C3B0DCC689A44C29FA452A3BAE7B8C3","3C3B0DCC689A44C29FA452A3BAE7B8C3","35674c9c-1a64-4182-b57a-1bf653ebd6da","a0a8f18c-a66e-4ba7-a170-23efbdc67501","{""participantId"":""3C3B0DCC689A44C29FA452A3BAE7B8C3"",""assignmentId"":""35674c9c-1a64-4182-b57a-1bf653ebd6da"",""projectId"":""a0a8f18c-a66e-4ba7-a170-23efbdc67501""}","https://test12345.live/?participantId=3C3B0DCC689A44C29FA452A3BAE7B8C3&assignmentId=35674c9c-1a64-4182-b57a-1bf653ebd6da&projectId=a0a8f18c-a66e-4ba7-a170-23efbdc67501","3C3B0DCC689A44C29FA452A3BAE7B8C3-2024-11-24-18-31-39","","null","","[]","null","",""
"","","","","","image-button-response","34","207092","0.0-10.0-1.0-0.3","3C3B0DCC689A44C29FA452A3BAE7B8C3","3C3B0DCC689A44C29FA452A3BAE7B8C3","35674c9c-1a64-4182-b57a-1bf653ebd6da","a0a8f18c-a66e-4ba7-a170-23efbdc67501","{""participantId"":""3C3B0DCC689A44C29FA452A3BAE7B8C3"",""assignmentId"":""35674c9c-1a64-4182-b57a-1bf653ebd6da"",""projectId"":""a0a8f18c-a66e-4ba7-a170-23efbdc67501""}","https://test12345.live/?participantId=3C3B0DCC689A44C29FA452A3BAE7B8C3&assignmentId=35674c9c-1a64-4182-b57a-1bf653ebd6da&projectId=a0a8f18c-a66e-4ba7-a170-23efbdc67501","3C3B0DCC689A44C29FA452A3BAE7B8C3-2024-11-24-18-31-39","","null","","images/semantic_sequence/physical_activity_semantic/physical_activity_semantic_4.png","null","",""
"","","","","","image-button-response","35","207708","0.0-10.0-1.0-1.3","3C3B0DCC689A44C29FA452A3BAE7B8C3","3C3B0DCC689A44C29FA452A3BAE7B8C3","35674c9c-1a64-4182-b57a-1bf653ebd6da","a0a8f18c-a66e-4ba7-a170-23efbdc67501","{""participantId"":""3C3B0DCC689A44C29FA452A3BAE7B8C3"",""assignmentId"":""35674c9c-1a64-4182-b57a-1bf653ebd6da"",""projectId"":""a0a8f18c-a66e-4ba7-a170-23efbdc67501""}","https://test12345.live/?participantId=3C3B0DCC689A44C29FA452A3BAE7B8C3&assignmentId=35674c9c-1a64-4182-b57a-1bf653ebd6da&projectId=a0a8f18c-a66e-4ba7-a170-23efbdc67501","3C3B0DCC689A44C29FA452A3BAE7B8C3-2024-11-24-18-31-39","","615","","images/semantic_sequence/physical_activity_semantic/physical_activity_semantic_4.png","0","",""
"","","","","","image-button-response","36","209513","0.0-10.0-1.0-2.3","3C3B0DCC689A44C29FA452A3BAE7B8C3","3C3B0DCC689A44C29FA452A3BAE7B8C3","35674c9c-1a64-4182-b57a-1bf653ebd6da","a0a8f18c-a66e-4ba7-a170-23efbdc67501","{""participantId"":""3C3B0DCC689A44C29FA452A3BAE7B8C3"",""assignmentId"":""35674c9c-1a64-4182-b57a-1bf653ebd6da"",""projectId"":""a0a8f18c-a66e-4ba7-a170-23efbdc67501""}","https://test12345.live/?participantId=3C3B0DCC689A44C29FA452A3BAE7B8C3&assignmentId=35674c9c-1a64-4182-b57a-1bf653ebd6da&projectId=a0a8f18c-a66e-4ba7-a170-23efbdc67501","3C3B0DCC689A44C29FA452A3BAE7B8C3-2024-11-24-18-31-39","","null","","[]","null","",""
"","","","","","image-button-response","37","214014","0.0-10.0-1.0-0.4","3C3B0DCC689A44C29FA452A3BAE7B8C3","3C3B0DCC689A44C29FA452A3BAE7B8C3","35674c9c-1a64-4182-b57a-1bf653ebd6da","a0a8f18c-a66e-4ba7-a170-23efbdc67501","{""participantId"":""3C3B0DCC689A44C29FA452A3BAE7B8C3"",""assignmentId"":""35674c9c-1a64-4182-b57a-1bf653ebd6da"",""projectId"":""a0a8f18c-a66e-4ba7-a170-23efbdc67501""}","https://test12345.live/?participantId=3C3B0DCC689A44C29FA452A3BAE7B8C3&assignmentId=35674c9c-1a64-4182-b57a-1bf653ebd6da&projectId=a0a8f18c-a66e-4ba7-a170-23efbdc67501","3C3B0DCC689A44C29FA452A3BAE7B8C3-2024-11-24-18-31-39","","null","","images/semantic_sequence/physical_activity_semantic/physical_activity_semantic_5.png","null","",""
"","","","","","image-button-response","38","215129","0.0-10.0-1.0-1.4","3C3B0DCC689A44C29FA452A3BAE7B8C3","3C3B0DCC689A44C29FA452A3BAE7B8C3","35674c9c-1a64-4182-b57a-1bf653ebd6da","a0a8f18c-a66e-4ba7-a170-23efbdc67501","{""participantId"":""3C3B0DCC689A44C29FA452A3BAE7B8C3"",""assignmentId"":""35674c9c-1a64-4182-b57a-1bf653ebd6da"",""projectId"":""a0a8f18c-a66e-4ba7-a170-23efbdc67501""}","https://test12345.live/?participantId=3C3B0DCC689A44C29FA452A3BAE7B8C3&assignmentId=35674c9c-1a64-4182-b57a-1bf653ebd6da&projectId=a0a8f18c-a66e-4ba7-a170-23efbdc67501","3C3B0DCC689A44C29FA452A3BAE7B8C3-2024-11-24-18-31-39","","1113","","images/semantic_sequence/physical_activity_semantic/physical_activity_semantic_5.png","0","",""
"","","","","","image-button-response","39","216943","0.0-10.0-1.0-2.4","3C3B0DCC689A44C29FA452A3BAE7B8C3","3C3B0DCC689A44C29FA452A3BAE7B8C3","35674c9c-1a64-4182-b57a-1bf653ebd6da","a0a8f18c-a66e-4ba7-a170-23efbdc67501","{""participantId"":""3C3B0DCC689A44C29FA452A3BAE7B8C3"",""assignmentId"":""35674c9c-1a64-4182-b57a-1bf653ebd6da"",""projectId"":""a0a8f18c-a66e-4ba7-a170-23efbdc67501""}","https://test12345.live/?participantId=3C3B0DCC689A44C29FA452A3BAE7B8C3&assignmentId=35674c9c-1a64-4182-b57a-1bf653ebd6da&projectId=a0a8f18c-a66e-4ba7-a170-23efbdc67501","3C3B0DCC689A44C29FA452A3BAE7B8C3-2024-11-24-18-31-39","","null","","[]","null","",""
"","","","","","image-button-response","40","221456","0.0-10.0-1.0-0.5","3C3B0DCC689A44C29FA452A3BAE7B8C3","3C3B0DCC689A44C29FA452A3BAE7B8C3","35674c9c-1a64-4182-b57a-1bf653ebd6da","a0a8f18c-a66e-4ba7-a170-23efbdc67501","{""participantId"":""3C3B0DCC689A44C29FA452A3BAE7B8C3"",""assignmentId"":""35674c9c-1a64-4182-b57a-1bf653ebd6da"",""projectId"":""a0a8f18c-a66e-4ba7-a170-23efbdc67501""}","https://test12345.live/?participantId=3C3B0DCC689A44C29FA452A3BAE7B8C3&assignmentId=35674c9c-1a64-4182-b57a-1bf653ebd6da&projectId=a0a8f18c-a66e-4ba7-a170-23efbdc67501","3C3B0DCC689A44C29FA452A3BAE7B8C3-2024-11-24-18-31-39","","null","","images/semantic_sequence/physical_activity_semantic/physical_activity_semantic_6.png","null","",""
"","","","","","image-button-response","41","221973","0.0-10.0-1.0-1.5","3C3B0DCC689A44C29FA452A3BAE7B8C3","3C3B0DCC689A44C29FA452A3BAE7B8C3","35674c9c-1a64-4182-b57a-1bf653ebd6da","a0a8f18c-a66e-4ba7-a170-23efbdc67501","{""participantId"":""3C3B0DCC689A44C29FA452A3BAE7B8C3"",""assignmentId"":""35674c9c-1a64-4182-b57a-1bf653ebd6da"",""projectId"":""a0a8f18c-a66e-4ba7-a170-23efbdc67501""}","https://test12345.live/?participantId=3C3B0DCC689A44C29FA452A3BAE7B8C3&assignmentId=35674c9c-1a64-4182-b57a-1bf653ebd6da&projectId=a0a8f18c-a66e-4ba7-a170-23efbdc67501","3C3B0DCC689A44C29FA452A3BAE7B8C3-2024-11-24-18-31-39","","516","","images/semantic_sequence/physical_activity_semantic/physical_activity_semantic_6.png","0","",""
"","","","","","image-button-response","42","223786","0.0-10.0-1.0-2.5","3C3B0DCC689A44C29FA452A3BAE7B8C3","3C3B0DCC689A44C29FA452A3BAE7B8C3","35674c9c-1a64-4182-b57a-1bf653ebd6da","a0a8f18c-a66e-4ba7-a170-23efbdc67501","{""participantId"":""3C3B0DCC689A44C29FA452A3BAE7B8C3"",""assignmentId"":""35674c9c-1a64-4182-b57a-1bf653ebd6da"",""projectId"":""a0a8f18c-a66e-4ba7-a170-23efbdc67501""}","https://test12345.live/?participantId=3C3B0DCC689A44C29FA452A3BAE7B8C3&assignmentId=35674c9c-1a64-4182-b57a-1bf653ebd6da&projectId=a0a8f18c-a66e-4ba7-a170-23efbdc67501","3C3B0DCC689A44C29FA452A3BAE7B8C3-2024-11-24-18-31-39","","null","","[]","null","",""
"","","","","","image-button-response","43","228298","0.0-10.0-1.0-0.6","3C3B0DCC689A44C29FA452A3BAE7B8C3","3C3B0DCC689A44C29FA452A3BAE7B8C3","35674c9c-1a64-4182-b57a-1bf653ebd6da","a0a8f18c-a66e-4ba7-a170-23efbdc67501","{""participantId"":""3C3B0DCC689A44C29FA452A3BAE7B8C3"",""assignmentId"":""35674c9c-1a64-4182-b57a-1bf653ebd6da"",""projectId"":""a0a8f18c-a66e-4ba7-a170-23efbdc67501""}","https://test12345.live/?participantId=3C3B0DCC689A44C29FA452A3BAE7B8C3&assignmentId=35674c9c-1a64-4182-b57a-1bf653ebd6da&projectId=a0a8f18c-a66e-4ba7-a170-23efbdc67501","3C3B0DCC689A44C29FA452A3BAE7B8C3-2024-11-24-18-31-39","","null","","images/semantic_sequence/physical_activity_semantic/physical_activity_semantic_7.png","null","",""
"","","","","","image-button-response","44","228912","0.0-10.0-1.0-1.6","3C3B0DCC689A44C29FA452A3BAE7B8C3","3C3B0DCC689A44C29FA452A3BAE7B8C3","35674c9c-1a64-4182-b57a-1bf653ebd6da","a0a8f18c-a66e-4ba7-a170-23efbdc67501","{""participantId"":""3C3B0DCC689A44C29FA452A3BAE7B8C3"",""assignmentId"":""35674c9c-1a64-4182-b57a-1bf653ebd6da"",""projectId"":""a0a8f18c-a66e-4ba7-a170-23efbdc67501""}","https://test12345.live/?participantId=3C3B0DCC689A44C29FA452A3BAE7B8C3&assignmentId=35674c9c-1a64-4182-b57a-1bf653ebd6da&projectId=a0a8f18c-a66e-4ba7-a170-23efbdc67501","3C3B0DCC689A44C29FA452A3BAE7B8C3-2024-11-24-18-31-39","","613","","images/semantic_sequence/physical_activity_semantic/physical_activity_semantic_7.png","0","",""
"","","","","","image-button-response","45","230723","0.0-10.0-1.0-2.6","3C3B0DCC689A44C29FA452A3BAE7B8C3","3C3B0DCC689A44C29FA452A3BAE7B8C3","35674c9c-1a64-4182-b57a-1bf653ebd6da","a0a8f18c-a66e-4ba7-a170-23efbdc67501","{""participantId"":""3C3B0DCC689A44C29FA452A3BAE7B8C3"",""assignmentId"":""35674c9c-1a64-4182-b57a-1bf653ebd6da"",""projectId"":""a0a8f18c-a66e-4ba7-a170-23efbdc67501""}","https://test12345.live/?participantId=3C3B0DCC689A44C29FA452A3BAE7B8C3&assignmentId=35674c9c-1a64-4182-b57a-1bf653ebd6da&projectId=a0a8f18c-a66e-4ba7-a170-23efbdc67501","3C3B0DCC689A44C29FA452A3BAE7B8C3-2024-11-24-18-31-39","","null","","[]","null","",""
"","","","","","image-button-response","46","235226","0.0-10.0-1.0-0.7","3C3B0DCC689A44C29FA452A3BAE7B8C3","3C3B0DCC689A44C29FA452A3BAE7B8C3","35674c9c-1a64-4182-b57a-1bf653ebd6da","a0a8f18c-a66e-4ba7-a170-23efbdc67501","{""participantId"":""3C3B0DCC689A44C29FA452A3BAE7B8C3"",""assignmentId"":""35674c9c-1a64-4182-b57a-1bf653ebd6da"",""projectId"":""a0a8f18c-a66e-4ba7-a170-23efbdc67501""}","https://test12345.live/?participantId=3C3B0DCC689A44C29FA452A3BAE7B8C3&assignmentId=35674c9c-1a64-4182-b57a-1bf653ebd6da&projectId=a0a8f18c-a66e-4ba7-a170-23efbdc67501","3C3B0DCC689A44C29FA452A3BAE7B8C3-2024-11-24-18-31-39","","null","","images/semantic_sequence/physical_activity_semantic/physical_activity_semantic_8.png","null","",""
"","","","","","image-button-response","47","236018","0.0-10.0-1.0-1.7","3C3B0DCC689A44C29FA452A3BAE7B8C3","3C3B0DCC689A44C29FA452A3BAE7B8C3","35674c9c-1a64-4182-b57a-1bf653ebd6da","a0a8f18c-a66e-4ba7-a170-23efbdc67501","{""participantId"":""3C3B0DCC689A44C29FA452A3BAE7B8C3"",""assignmentId"":""35674c9c-1a64-4182-b57a-1bf653ebd6da"",""projectId"":""a0a8f18c-a66e-4ba7-a170-23efbdc67501""}","https://test12345.live/?participantId=3C3B0DCC689A44C29FA452A3BAE7B8C3&assignmentId=35674c9c-1a64-4182-b57a-1bf653ebd6da&projectId=a0a8f18c-a66e-4ba7-a170-23efbdc67501","3C3B0DCC689A44C29FA452A3BAE7B8C3-2024-11-24-18-31-39","","791","","images/semantic_sequence/physical_activity_semantic/physical_activity_semantic_8.png","0","",""
"","","","","","image-button-response","48","237820","0.0-10.0-1.0-2.7","3C3B0DCC689A44C29FA452A3BAE7B8C3","3C3B0DCC689A44C29FA452A3BAE7B8C3","35674c9c-1a64-4182-b57a-1bf653ebd6da","a0a8f18c-a66e-4ba7-a170-23efbdc67501","{""participantId"":""3C3B0DCC689A44C29FA452A3BAE7B8C3"",""assignmentId"":""35674c9c-1a64-4182-b57a-1bf653ebd6da"",""projectId"":""a0a8f18c-a66e-4ba7-a170-23efbdc67501""}","https://test12345.live/?participantId=3C3B0DCC689A44C29FA452A3BAE7B8C3&assignmentId=35674c9c-1a64-4182-b57a-1bf653ebd6da&projectId=a0a8f18c-a66e-4ba7-a170-23efbdc67501","3C3B0DCC689A44C29FA452A3BAE7B8C3-2024-11-24-18-31-39","","null","","[]","null","",""
"","","","","","image-button-response","49","242336","0.0-10.0-1.0-0.8","3C3B0DCC689A44C29FA452A3BAE7B8C3","3C3B0DCC689A44C29FA452A3BAE7B8C3","35674c9c-1a64-4182-b57a-1bf653ebd6da","a0a8f18c-a66e-4ba7-a170-23efbdc67501","{""participantId"":""3C3B0DCC689A44C29FA452A3BAE7B8C3"",""assignmentId"":""35674c9c-1a64-4182-b57a-1bf653ebd6da"",""projectId"":""a0a8f18c-a66e-4ba7-a170-23efbdc67501""}","https://test12345.live/?participantId=3C3B0DCC689A44C29FA452A3BAE7B8C3&assignmentId=35674c9c-1a64-4182-b57a-1bf653ebd6da&projectId=a0a8f18c-a66e-4ba7-a170-23efbdc67501","3C3B0DCC689A44C29FA452A3BAE7B8C3-2024-11-24-18-31-39","","null","","images/semantic_sequence/physical_activity_semantic/physical_activity_semantic_9.png","null","",""
"","","","","","image-button-response","50","242823","0.0-10.0-1.0-1.8","3C3B0DCC689A44C29FA452A3BAE7B8C3","3C3B0DCC689A44C29FA452A3BAE7B8C3","35674c9c-1a64-4182-b57a-1bf653ebd6da","a0a8f18c-a66e-4ba7-a170-23efbdc67501","{""participantId"":""3C3B0DCC689A44C29FA452A3BAE7B8C3"",""assignmentId"":""35674c9c-1a64-4182-b57a-1bf653ebd6da"",""projectId"":""a0a8f18c-a66e-4ba7-a170-23efbdc67501""}","https://test12345.live/?participantId=3C3B0DCC689A44C29FA452A3BAE7B8C3&assignmentId=35674c9c-1a64-4182-b57a-1bf653ebd6da&projectId=a0a8f18c-a66e-4ba7-a170-23efbdc67501","3C3B0DCC689A44C29FA452A3BAE7B8C3-2024-11-24-18-31-39","","485","","images/semantic_sequence/physical_activity_semantic/physical_activity_semantic_9.png","0","",""
"","","","","","image-button-response","51","244635","0.0-10.0-1.0-2.8","3C3B0DCC689A44C29FA452A3BAE7B8C3","3C3B0DCC689A44C29FA452A3BAE7B8C3","35674c9c-1a64-4182-b57a-1bf653ebd6da","a0a8f18c-a66e-4ba7-a170-23efbdc67501","{""participantId"":""3C3B0DCC689A44C29FA452A3BAE7B8C3"",""assignmentId"":""35674c9c-1a64-4182-b57a-1bf653ebd6da"",""projectId"":""a0a8f18c-a66e-4ba7-a170-23efbdc67501""}","https://test12345.live/?participantId=3C3B0DCC689A44C29FA452A3BAE7B8C3&assignmentId=35674c9c-1a64-4182-b57a-1bf653ebd6da&projectId=a0a8f18c-a66e-4ba7-a170-23efbdc67501","3C3B0DCC689A44C29FA452A3BAE7B8C3-2024-11-24-18-31-39","","null","","[]","null","",""
"","","","","","image-button-response","52","249136","0.0-10.0-1.0-0.9","3C3B0DCC689A44C29FA452A3BAE7B8C3","3C3B0DCC689A44C29FA452A3BAE7B8C3","35674c9c-1a64-4182-b57a-1bf653ebd6da","a0a8f18c-a66e-4ba7-a170-23efbdc67501","{""participantId"":""3C3B0DCC689A44C29FA452A3BAE7B8C3"",""assignmentId"":""35674c9c-1a64-4182-b57a-1bf653ebd6da"",""projectId"":""a0a8f18c-a66e-4ba7-a170-23efbdc67501""}","https://test12345.live/?participantId=3C3B0DCC689A44C29FA452A3BAE7B8C3&assignmentId=35674c9c-1a64-4182-b57a-1bf653ebd6da&projectId=a0a8f18c-a66e-4ba7-a170-23efbdc67501","3C3B0DCC689A44C29FA452A3BAE7B8C3-2024-11-24-18-31-39","","null","","images/semantic_sequence/physical_activity_semantic/physical_activity_semantic_ten.png","null","",""
"","","","","","image-button-response","53","249674","0.0-10.0-1.0-1.9","3C3B0DCC689A44C29FA452A3BAE7B8C3","3C3B0DCC689A44C29FA452A3BAE7B8C3","35674c9c-1a64-4182-b57a-1bf653ebd6da","a0a8f18c-a66e-4ba7-a170-23efbdc67501","{""participantId"":""3C3B0DCC689A44C29FA452A3BAE7B8C3"",""assignmentId"":""35674c9c-1a64-4182-b57a-1bf653ebd6da"",""projectId"":""a0a8f18c-a66e-4ba7-a170-23efbdc67501""}","https://test12345.live/?participantId=3C3B0DCC689A44C29FA452A3BAE7B8C3&assignmentId=35674c9c-1a64-4182-b57a-1bf653ebd6da&projectId=a0a8f18c-a66e-4ba7-a170-23efbdc67501","3C3B0DCC689A44C29FA452A3BAE7B8C3-2024-11-24-18-31-39","","537","","images/semantic_sequence/physical_activity_semantic/physical_activity_semantic_ten.png","0","",""
"","","","","","image-button-response","54","251487","0.0-10.0-1.0-2.9","3C3B0DCC689A44C29FA452A3BAE7B8C3","3C3B0DCC689A44C29FA452A3BAE7B8C3","35674c9c-1a64-4182-b57a-1bf653ebd6da","a0a8f18c-a66e-4ba7-a170-23efbdc67501","{""participantId"":""3C3B0DCC689A44C29FA452A3BAE7B8C3"",""assignmentId"":""35674c9c-1a64-4182-b57a-1bf653ebd6da"",""projectId"":""a0a8f18c-a66e-4ba7-a170-23efbdc67501""}","https://test12345.live/?participantId=3C3B0DCC689A44C29FA452A3BAE7B8C3&assignmentId=35674c9c-1a64-4182-b57a-1bf653ebd6da&projectId=a0a8f18c-a66e-4ba7-a170-23efbdc67501","3C3B0DCC689A44C29FA452A3BAE7B8C3-2024-11-24-18-31-39","","null","","[]","null","",""
"","","","","","html-audio-response","55","263490","0.0-11.0","3C3B0DCC689A44C29FA452A3BAE7B8C3","3C3B0DCC689A44C29FA452A3BAE7B8C3","35674c9c-1a64-4182-b57a-1bf653ebd6da","a0a8f18c-a66e-4ba7-a170-23efbdc67501","{""participantId"":""3C3B0DCC689A44C29FA452A3BAE7B8C3"",""assignmentId"":""35674c9c-1a64-4182-b57a-1bf653ebd6da"",""projectId"":""a0a8f18c-a66e-4ba7-a170-23efbdc67501""}","https://test12345.live/?participantId=3C3B0DCC689A44C29FA452A3BAE7B8C3&assignmentId=35674c9c-1a64-4182-b57a-1bf653ebd6da&projectId=a0a8f18c-a66e-4ba7-a170-23efbdc67501","3C3B0DCC689A44C29FA452A3BAE7B8C3-2024-11-24-18-31-39","","10480","","[""<span style=\""color: red; font-size: 24px\""> NOW RECORDING</span><p>Please say out loud all the images you saw, as many as you can remember. The images can be said in any order.</p>""]","","17","physical_activity_semantic"
"","","","","","image-button-response","56","269505","0.0-12.0-0.0","3C3B0DCC689A44C29FA452A3BAE7B8C3","3C3B0DCC689A44C29FA452A3BAE7B8C3","35674c9c-1a64-4182-b57a-1bf653ebd6da","a0a8f18c-a66e-4ba7-a170-23efbdc67501","{""participantId"":""3C3B0DCC689A44C29FA452A3BAE7B8C3"",""assignmentId"":""35674c9c-1a64-4182-b57a-1bf653ebd6da"",""projectId"":""a0a8f18c-a66e-4ba7-a170-23efbdc67501""}","https://test12345.live/?participantId=3C3B0DCC689A44C29FA452A3BAE7B8C3&assignmentId=35674c9c-1a64-4182-b57a-1bf653ebd6da&projectId=a0a8f18c-a66e-4ba7-a170-23efbdc67501","3C3B0DCC689A44C29FA452A3BAE7B8C3-2024-11-24-18-31-39","","null","","images/schematic_sequence/flight_scheme/flight_scheme_0.png","null","",""
"","","","","","image-button-response","57","274021","0.0-12.0-1.0-0.0","3C3B0DCC689A44C29FA452A3BAE7B8C3","3C3B0DCC689A44C29FA452A3BAE7B8C3","35674c9c-1a64-4182-b57a-1bf653ebd6da","a0a8f18c-a66e-4ba7-a170-23efbdc67501","{""participantId"":""3C3B0DCC689A44C29FA452A3BAE7B8C3"",""assignmentId"":""35674c9c-1a64-4182-b57a-1bf653ebd6da"",""projectId"":""a0a8f18c-a66e-4ba7-a170-23efbdc67501""}","https://test12345.live/?participantId=3C3B0DCC689A44C29FA452A3BAE7B8C3&assignmentId=35674c9c-1a64-4182-b57a-1bf653ebd6da&projectId=a0a8f18c-a66e-4ba7-a170-23efbdc67501","3C3B0DCC689A44C29FA452A3BAE7B8C3-2024-11-24-18-31-39","","null","","images/schematic_sequence/flight_scheme/flight_scheme_1.png","null","",""
"","","","","","image-button-response","58","275053","0.0-12.0-1.0-1.0","3C3B0DCC689A44C29FA452A3BAE7B8C3","3C3B0DCC689A44C29FA452A3BAE7B8C3","35674c9c-1a64-4182-b57a-1bf653ebd6da","a0a8f18c-a66e-4ba7-a170-23efbdc67501","{""participantId"":""3C3B0DCC689A44C29FA452A3BAE7B8C3"",""assignmentId"":""35674c9c-1a64-4182-b57a-1bf653ebd6da"",""projectId"":""a0a8f18c-a66e-4ba7-a170-23efbdc67501""}","https://test12345.live/?participantId=3C3B0DCC689A44C29FA452A3BAE7B8C3&assignmentId=35674c9c-1a64-4182-b57a-1bf653ebd6da&projectId=a0a8f18c-a66e-4ba7-a170-23efbdc67501","3C3B0DCC689A44C29FA452A3BAE7B8C3-2024-11-24-18-31-39","","1031","","images/schematic_sequence/flight_scheme/flight_scheme_1.png","0","",""
"","","","","","image-button-response","59","276864","0.0-12.0-1.0-2.0","3C3B0DCC689A44C29FA452A3BAE7B8C3","3C3B0DCC689A44C29FA452A3BAE7B8C3","35674c9c-1a64-4182-b57a-1bf653ebd6da","a0a8f18c-a66e-4ba7-a170-23efbdc67501","{""participantId"":""3C3B0DCC689A44C29FA452A3BAE7B8C3"",""assignmentId"":""35674c9c-1a64-4182-b57a-1bf653ebd6da"",""projectId"":""a0a8f18c-a66e-4ba7-a170-23efbdc67501""}","https://test12345.live/?participantId=3C3B0DCC689A44C29FA452A3BAE7B8C3&assignmentId=35674c9c-1a64-4182-b57a-1bf653ebd6da&projectId=a0a8f18c-a66e-4ba7-a170-23efbdc67501","3C3B0DCC689A44C29FA452A3BAE7B8C3-2024-11-24-18-31-39","","null","","[]","null","",""
"","","","","","image-button-response","60","281377","0.0-12.0-1.0-0.1","3C3B0DCC689A44C29FA452A3BAE7B8C3","3C3B0DCC689A44C29FA452A3BAE7B8C3","35674c9c-1a64-4182-b57a-1bf653ebd6da","a0a8f18c-a66e-4ba7-a170-23efbdc67501","{""participantId"":""3C3B0DCC689A44C29FA452A3BAE7B8C3"",""assignmentId"":""35674c9c-1a64-4182-b57a-1bf653ebd6da"",""projectId"":""a0a8f18c-a66e-4ba7-a170-23efbdc67501""}","https://test12345.live/?participantId=3C3B0DCC689A44C29FA452A3BAE7B8C3&assignmentId=35674c9c-1a64-4182-b57a-1bf653ebd6da&projectId=a0a8f18c-a66e-4ba7-a170-23efbdc67501","3C3B0DCC689A44C29FA452A3BAE7B8C3-2024-11-24-18-31-39","","null","","images/schematic_sequence/flight_scheme/flight_scheme_2.png","null","",""
"","","","","","image-button-response","61","282456","0.0-12.0-1.0-1.1","3C3B0DCC689A44C29FA452A3BAE7B8C3","3C3B0DCC689A44C29FA452A3BAE7B8C3","35674c9c-1a64-4182-b57a-1bf653ebd6da","a0a8f18c-a66e-4ba7-a170-23efbdc67501","{""participantId"":""3C3B0DCC689A44C29FA452A3BAE7B8C3"",""assignmentId"":""35674c9c-1a64-4182-b57a-1bf653ebd6da"",""projectId"":""a0a8f18c-a66e-4ba7-a170-23efbdc67501""}","https://test12345.live/?participantId=3C3B0DCC689A44C29FA452A3BAE7B8C3&assignmentId=35674c9c-1a64-4182-b57a-1bf653ebd6da&projectId=a0a8f18c-a66e-4ba7-a170-23efbdc67501","3C3B0DCC689A44C29FA452A3BAE7B8C3-2024-11-24-18-31-39","","1078","","images/schematic_sequence/flight_scheme/flight_scheme_2.png","1","",""
"","","","","","image-button-response","62","284260","0.0-12.0-1.0-2.1","3C3B0DCC689A44C29FA452A3BAE7B8C3","3C3B0DCC689A44C29FA452A3BAE7B8C3","35674c9c-1a64-4182-b57a-1bf653ebd6da","a0a8f18c-a66e-4ba7-a170-23efbdc67501","{""participantId"":""3C3B0DCC689A44C29FA452A3BAE7B8C3"",""assignmentId"":""35674c9c-1a64-4182-b57a-1bf653ebd6da"",""projectId"":""a0a8f18c-a66e-4ba7-a170-23efbdc67501""}","https://test12345.live/?participantId=3C3B0DCC689A44C29FA452A3BAE7B8C3&assignmentId=35674c9c-1a64-4182-b57a-1bf653ebd6da&projectId=a0a8f18c-a66e-4ba7-a170-23efbdc67501","3C3B0DCC689A44C29FA452A3BAE7B8C3-2024-11-24-18-31-39","","null","","[]","null","",""
"","","","","","image-button-response","63","288764","0.0-12.0-1.0-0.2","3C3B0DCC689A44C29FA452A3BAE7B8C3","3C3B0DCC689A44C29FA452A3BAE7B8C3","35674c9c-1a64-4182-b57a-1bf653ebd6da","a0a8f18c-a66e-4ba7-a170-23efbdc67501","{""participantId"":""3C3B0DCC689A44C29FA452A3BAE7B8C3"",""assignmentId"":""35674c9c-1a64-4182-b57a-1bf653ebd6da"",""projectId"":""a0a8f18c-a66e-4ba7-a170-23efbdc67501""}","https://test12345.live/?participantId=3C3B0DCC689A44C29FA452A3BAE7B8C3&assignmentId=35674c9c-1a64-4182-b57a-1bf653ebd6da&projectId=a0a8f18c-a66e-4ba7-a170-23efbdc67501","3C3B0DCC689A44C29FA452A3BAE7B8C3-2024-11-24-18-31-39","","null","","images/schematic_sequence/flight_scheme/flight_scheme_3.png","null","",""
"","","","","","image-button-response","64","289609","0.0-12.0-1.0-1.2","3C3B0DCC689A44C29FA452A3BAE7B8C3","3C3B0DCC689A44C29FA452A3BAE7B8C3","35674c9c-1a64-4182-b57a-1bf653ebd6da","a0a8f18c-a66e-4ba7-a170-23efbdc67501","{""participantId"":""3C3B0DCC689A44C29FA452A3BAE7B8C3"",""assignmentId"":""35674c9c-1a64-4182-b57a-1bf653ebd6da"",""projectId"":""a0a8f18c-a66e-4ba7-a170-23efbdc67501""}","https://test12345.live/?participantId=3C3B0DCC689A44C29FA452A3BAE7B8C3&assignmentId=35674c9c-1a64-4182-b57a-1bf653ebd6da&projectId=a0a8f18c-a66e-4ba7-a170-23efbdc67501","3C3B0DCC689A44C29FA452A3BAE7B8C3-2024-11-24-18-31-39","","844","","images/schematic_sequence/flight_scheme/flight_scheme_3.png","0","",""
"","","","","","image-button-response","65","291416","0.0-12.0-1.0-2.2","3C3B0DCC689A44C29FA452A3BAE7B8C3","3C3B0DCC689A44C29FA452A3BAE7B8C3","35674c9c-1a64-4182-b57a-1bf653ebd6da","a0a8f18c-a66e-4ba7-a170-23efbdc67501","{""participantId"":""3C3B0DCC689A44C29FA452A3BAE7B8C3"",""assignmentId"":""35674c9c-1a64-4182-b57a-1bf653ebd6da"",""projectId"":""a0a8f18c-a66e-4ba7-a170-23efbdc67501""}","https://test12345.live/?participantId=3C3B0DCC689A44C29FA452A3BAE7B8C3&assignmentId=35674c9c-1a64-4182-b57a-1bf653ebd6da&projectId=a0a8f18c-a66e-4ba7-a170-23efbdc67501","3C3B0DCC689A44C29FA452A3BAE7B8C3-2024-11-24-18-31-39","","null","","[]","null","",""
"","","","","","image-button-response","66","295918","0.0-12.0-1.0-0.3","3C3B0DCC689A44C29FA452A3BAE7B8C3","3C3B0DCC689A44C29FA452A3BAE7B8C3","35674c9c-1a64-4182-b57a-1bf653ebd6da","a0a8f18c-a66e-4ba7-a170-23efbdc67501","{""participantId"":""3C3B0DCC689A44C29FA452A3BAE7B8C3"",""assignmentId"":""35674c9c-1a64-4182-b57a-1bf653ebd6da"",""projectId"":""a0a8f18c-a66e-4ba7-a170-23efbdc67501""}","https://test12345.live/?participantId=3C3B0DCC689A44C29FA452A3BAE7B8C3&assignmentId=35674c9c-1a64-4182-b57a-1bf653ebd6da&projectId=a0a8f18c-a66e-4ba7-a170-23efbdc67501","3C3B0DCC689A44C29FA452A3BAE7B8C3-2024-11-24-18-31-39","","null","","images/schematic_sequence/flight_scheme/flight_scheme_4.png","null","",""
"","","","","","image-button-response","67","296544","0.0-12.0-1.0-1.3","3C3B0DCC689A44C29FA452A3BAE7B8C3","3C3B0DCC689A44C29FA452A3BAE7B8C3","35674c9c-1a64-4182-b57a-1bf653ebd6da","a0a8f18c-a66e-4ba7-a170-23efbdc67501","{""participantId"":""3C3B0DCC689A44C29FA452A3BAE7B8C3"",""assignmentId"":""35674c9c-1a64-4182-b57a-1bf653ebd6da"",""projectId"":""a0a8f18c-a66e-4ba7-a170-23efbdc67501""}","https://test12345.live/?participantId=3C3B0DCC689A44C29FA452A3BAE7B8C3&assignmentId=35674c9c-1a64-4182-b57a-1bf653ebd6da&projectId=a0a8f18c-a66e-4ba7-a170-23efbdc67501","3C3B0DCC689A44C29FA452A3BAE7B8C3-2024-11-24-18-31-39","","625","","images/schematic_sequence/flight_scheme/flight_scheme_4.png","0","",""
"","","","","","image-button-response","68","298350","0.0-12.0-1.0-2.3","3C3B0DCC689A44C29FA452A3BAE7B8C3","3C3B0DCC689A44C29FA452A3BAE7B8C3","35674c9c-1a64-4182-b57a-1bf653ebd6da","a0a8f18c-a66e-4ba7-a170-23efbdc67501","{""participantId"":""3C3B0DCC689A44C29FA452A3BAE7B8C3"",""assignmentId"":""35674c9c-1a64-4182-b57a-1bf653ebd6da"",""projectId"":""a0a8f18c-a66e-4ba7-a170-23efbdc67501""}","https://test12345.live/?participantId=3C3B0DCC689A44C29FA452A3BAE7B8C3&assignmentId=35674c9c-1a64-4182-b57a-1bf653ebd6da&projectId=a0a8f18c-a66e-4ba7-a170-23efbdc67501","3C3B0DCC689A44C29FA452A3BAE7B8C3-2024-11-24-18-31-39","","null","","[]","null","",""
"","","","","","image-button-response","69","302863","0.0-12.0-1.0-0.4","3C3B0DCC689A44C29FA452A3BAE7B8C3","3C3B0DCC689A44C29FA452A3BAE7B8C3","35674c9c-1a64-4182-b57a-1bf653ebd6da","a0a8f18c-a66e-4ba7-a170-23efbdc67501","{""participantId"":""3C3B0DCC689A44C29FA452A3BAE7B8C3"",""assignmentId"":""35674c9c-1a64-4182-b57a-1bf653ebd6da"",""projectId"":""a0a8f18c-a66e-4ba7-a170-23efbdc67501""}","https://test12345.live/?participantId=3C3B0DCC689A44C29FA452A3BAE7B8C3&assignmentId=35674c9c-1a64-4182-b57a-1bf653ebd6da&projectId=a0a8f18c-a66e-4ba7-a170-23efbdc67501","3C3B0DCC689A44C29FA452A3BAE7B8C3-2024-11-24-18-31-39","","null","","images/schematic_sequence/flight_scheme/flight_scheme_5.png","null","",""
"","","","","","image-button-response","70","304204","0.0-12.0-1.0-1.4","3C3B0DCC689A44C29FA452A3BAE7B8C3","3C3B0DCC689A44C29FA452A3BAE7B8C3","35674c9c-1a64-4182-b57a-1bf653ebd6da","a0a8f18c-a66e-4ba7-a170-23efbdc67501","{""participantId"":""3C3B0DCC689A44C29FA452A3BAE7B8C3"",""assignmentId"":""35674c9c-1a64-4182-b57a-1bf653ebd6da"",""projectId"":""a0a8f18c-a66e-4ba7-a170-23efbdc67501""}","https://test12345.live/?participantId=3C3B0DCC689A44C29FA452A3BAE7B8C3&assignmentId=35674c9c-1a64-4182-b57a-1bf653ebd6da&projectId=a0a8f18c-a66e-4ba7-a170-23efbdc67501","3C3B0DCC689A44C29FA452A3BAE7B8C3-2024-11-24-18-31-39","","1340","","images/schematic_sequence/flight_scheme/flight_scheme_5.png","0","",""
"","","","","","image-button-response","71","306013","0.0-12.0-1.0-2.4","3C3B0DCC689A44C29FA452A3BAE7B8C3","3C3B0DCC689A44C29FA452A3BAE7B8C3","35674c9c-1a64-4182-b57a-1bf653ebd6da","a0a8f18c-a66e-4ba7-a170-23efbdc67501","{""participantId"":""3C3B0DCC689A44C29FA452A3BAE7B8C3"",""assignmentId"":""35674c9c-1a64-4182-b57a-1bf653ebd6da"",""projectId"":""a0a8f18c-a66e-4ba7-a170-23efbdc67501""}","https://test12345.live/?participantId=3C3B0DCC689A44C29FA452A3BAE7B8C3&assignmentId=35674c9c-1a64-4182-b57a-1bf653ebd6da&projectId=a0a8f18c-a66e-4ba7-a170-23efbdc67501","3C3B0DCC689A44C29FA452A3BAE7B8C3-2024-11-24-18-31-39","","null","","[]","null","",""
"","","","","","image-button-response","72","310526","0.0-12.0-1.0-0.5","3C3B0DCC689A44C29FA452A3BAE7B8C3","3C3B0DCC689A44C29FA452A3BAE7B8C3","35674c9c-1a64-4182-b57a-1bf653ebd6da","a0a8f18c-a66e-4ba7-a170-23efbdc67501","{""participantId"":""3C3B0DCC689A44C29FA452A3BAE7B8C3"",""assignmentId"":""35674c9c-1a64-4182-b57a-1bf653ebd6da"",""projectId"":""a0a8f18c-a66e-4ba7-a170-23efbdc67501""}","https://test12345.live/?participantId=3C3B0DCC689A44C29FA452A3BAE7B8C3&assignmentId=35674c9c-1a64-4182-b57a-1bf653ebd6da&projectId=a0a8f18c-a66e-4ba7-a170-23efbdc67501","3C3B0DCC689A44C29FA452A3BAE7B8C3-2024-11-24-18-31-39","","null","","images/schematic_sequence/flight_scheme/flight_scheme_6.png","null","",""
"","","","","","image-button-response","73","313307","0.0-12.0-1.0-1.5","3C3B0DCC689A44C29FA452A3BAE7B8C3","3C3B0DCC689A44C29FA452A3BAE7B8C3","35674c9c-1a64-4182-b57a-1bf653ebd6da","a0a8f18c-a66e-4ba7-a170-23efbdc67501","{""participantId"":""3C3B0DCC689A44C29FA452A3BAE7B8C3"",""assignmentId"":""35674c9c-1a64-4182-b57a-1bf653ebd6da"",""projectId"":""a0a8f18c-a66e-4ba7-a170-23efbdc67501""}","https://test12345.live/?participantId=3C3B0DCC689A44C29FA452A3BAE7B8C3&assignmentId=35674c9c-1a64-4182-b57a-1bf653ebd6da&projectId=a0a8f18c-a66e-4ba7-a170-23efbdc67501","3C3B0DCC689A44C29FA452A3BAE7B8C3-2024-11-24-18-31-39","","2779","","images/schematic_sequence/flight_scheme/flight_scheme_6.png","1","",""
"","","","","","image-button-response","74","315118","0.0-12.0-1.0-2.5","3C3B0DCC689A44C29FA452A3BAE7B8C3","3C3B0DCC689A44C29FA452A3BAE7B8C3","35674c9c-1a64-4182-b57a-1bf653ebd6da","a0a8f18c-a66e-4ba7-a170-23efbdc67501","{""participantId"":""3C3B0DCC689A44C29FA452A3BAE7B8C3"",""assignmentId"":""35674c9c-1a64-4182-b57a-1bf653ebd6da"",""projectId"":""a0a8f18c-a66e-4ba7-a170-23efbdc67501""}","https://test12345.live/?participantId=3C3B0DCC689A44C29FA452A3BAE7B8C3&assignmentId=35674c9c-1a64-4182-b57a-1bf653ebd6da&projectId=a0a8f18c-a66e-4ba7-a170-23efbdc67501","3C3B0DCC689A44C29FA452A3BAE7B8C3-2024-11-24-18-31-39","","null","","[]","null","",""
"","","","","","image-button-response","75","319619","0.0-12.0-1.0-0.6","3C3B0DCC689A44C29FA452A3BAE7B8C3","3C3B0DCC689A44C29FA452A3BAE7B8C3","35674c9c-1a64-4182-b57a-1bf653ebd6da","a0a8f18c-a66e-4ba7-a170-23efbdc67501","{""participantId"":""3C3B0DCC689A44C29FA452A3BAE7B8C3"",""assignmentId"":""35674c9c-1a64-4182-b57a-1bf653ebd6da"",""projectId"":""a0a8f18c-a66e-4ba7-a170-23efbdc67501""}","https://test12345.live/?participantId=3C3B0DCC689A44C29FA452A3BAE7B8C3&assignmentId=35674c9c-1a64-4182-b57a-1bf653ebd6da&projectId=a0a8f18c-a66e-4ba7-a170-23efbdc67501","3C3B0DCC689A44C29FA452A3BAE7B8C3-2024-11-24-18-31-39","","null","","images/schematic_sequence/flight_scheme/flight_scheme_7.png","null","",""
"","","","","","image-button-response","76","320259","0.0-12.0-1.0-1.6","3C3B0DCC689A44C29FA452A3BAE7B8C3","3C3B0DCC689A44C29FA452A3BAE7B8C3","35674c9c-1a64-4182-b57a-1bf653ebd6da","a0a8f18c-a66e-4ba7-a170-23efbdc67501","{""participantId"":""3C3B0DCC689A44C29FA452A3BAE7B8C3"",""assignmentId"":""35674c9c-1a64-4182-b57a-1bf653ebd6da"",""projectId"":""a0a8f18c-a66e-4ba7-a170-23efbdc67501""}","https://test12345.live/?participantId=3C3B0DCC689A44C29FA452A3BAE7B8C3&assignmentId=35674c9c-1a64-4182-b57a-1bf653ebd6da&projectId=a0a8f18c-a66e-4ba7-a170-23efbdc67501","3C3B0DCC689A44C29FA452A3BAE7B8C3-2024-11-24-18-31-39","","639","","images/schematic_sequence/flight_scheme/flight_scheme_7.png","1","",""
"","","","","","image-button-response","77","322070","0.0-12.0-1.0-2.6","3C3B0DCC689A44C29FA452A3BAE7B8C3","3C3B0DCC689A44C29FA452A3BAE7B8C3","35674c9c-1a64-4182-b57a-1bf653ebd6da","a0a8f18c-a66e-4ba7-a170-23efbdc67501","{""participantId"":""3C3B0DCC689A44C29FA452A3BAE7B8C3"",""assignmentId"":""35674c9c-1a64-4182-b57a-1bf653ebd6da"",""projectId"":""a0a8f18c-a66e-4ba7-a170-23efbdc67501""}","https://test12345.live/?participantId=3C3B0DCC689A44C29FA452A3BAE7B8C3&assignmentId=35674c9c-1a64-4182-b57a-1bf653ebd6da&projectId=a0a8f18c-a66e-4ba7-a170-23efbdc67501","3C3B0DCC689A44C29FA452A3BAE7B8C3-2024-11-24-18-31-39","","null","","[]","null","",""
"","","","","","image-button-response","78","326582","0.0-12.0-1.0-0.7","3C3B0DCC689A44C29FA452A3BAE7B8C3","3C3B0DCC689A44C29FA452A3BAE7B8C3","35674c9c-1a64-4182-b57a-1bf653ebd6da","a0a8f18c-a66e-4ba7-a170-23efbdc67501","{""participantId"":""3C3B0DCC689A44C29FA452A3BAE7B8C3"",""assignmentId"":""35674c9c-1a64-4182-b57a-1bf653ebd6da"",""projectId"":""a0a8f18c-a66e-4ba7-a170-23efbdc67501""}","https://test12345.live/?participantId=3C3B0DCC689A44C29FA452A3BAE7B8C3&assignmentId=35674c9c-1a64-4182-b57a-1bf653ebd6da&projectId=a0a8f18c-a66e-4ba7-a170-23efbdc67501","3C3B0DCC689A44C29FA452A3BAE7B8C3-2024-11-24-18-31-39","","null","","images/schematic_sequence/flight_scheme/flight_scheme_8.png","null","",""
"","","","","","image-button-response","79","328075","0.0-12.0-1.0-1.7","3C3B0DCC689A44C29FA452A3BAE7B8C3","3C3B0DCC689A44C29FA452A3BAE7B8C3","35674c9c-1a64-4182-b57a-1bf653ebd6da","a0a8f18c-a66e-4ba7-a170-23efbdc67501","{""participantId"":""3C3B0DCC689A44C29FA452A3BAE7B8C3"",""assignmentId"":""35674c9c-1a64-4182-b57a-1bf653ebd6da"",""projectId"":""a0a8f18c-a66e-4ba7-a170-23efbdc67501""}","https://test12345.live/?participantId=3C3B0DCC689A44C29FA452A3BAE7B8C3&assignmentId=35674c9c-1a64-4182-b57a-1bf653ebd6da&projectId=a0a8f18c-a66e-4ba7-a170-23efbdc67501","3C3B0DCC689A44C29FA452A3BAE7B8C3-2024-11-24-18-31-39","","1493","","images/schematic_sequence/flight_scheme/flight_scheme_8.png","1","",""
"","","","","","image-button-response","80","329887","0.0-12.0-1.0-2.7","3C3B0DCC689A44C29FA452A3BAE7B8C3","3C3B0DCC689A44C29FA452A3BAE7B8C3","35674c9c-1a64-4182-b57a-1bf653ebd6da","a0a8f18c-a66e-4ba7-a170-23efbdc67501","{""participantId"":""3C3B0DCC689A44C29FA452A3BAE7B8C3"",""assignmentId"":""35674c9c-1a64-4182-b57a-1bf653ebd6da"",""projectId"":""a0a8f18c-a66e-4ba7-a170-23efbdc67501""}","https://test12345.live/?participantId=3C3B0DCC689A44C29FA452A3BAE7B8C3&assignmentId=35674c9c-1a64-4182-b57a-1bf653ebd6da&projectId=a0a8f18c-a66e-4ba7-a170-23efbdc67501","3C3B0DCC689A44C29FA452A3BAE7B8C3-2024-11-24-18-31-39","","null","","[]","null","",""
"","","","","","image-button-response","81","334398","0.0-12.0-1.0-0.8","3C3B0DCC689A44C29FA452A3BAE7B8C3","3C3B0DCC689A44C29FA452A3BAE7B8C3","35674c9c-1a64-4182-b57a-1bf653ebd6da","a0a8f18c-a66e-4ba7-a170-23efbdc67501","{""participantId"":""3C3B0DCC689A44C29FA452A3BAE7B8C3"",""assignmentId"":""35674c9c-1a64-4182-b57a-1bf653ebd6da"",""projectId"":""a0a8f18c-a66e-4ba7-a170-23efbdc67501""}","https://test12345.live/?participantId=3C3B0DCC689A44C29FA452A3BAE7B8C3&assignmentId=35674c9c-1a64-4182-b57a-1bf653ebd6da&projectId=a0a8f18c-a66e-4ba7-a170-23efbdc67501","3C3B0DCC689A44C29FA452A3BAE7B8C3-2024-11-24-18-31-39","","null","","images/schematic_sequence/flight_scheme/flight_scheme_9.png","null","",""
"","","","","","image-button-response","82","335060","0.0-12.0-1.0-1.8","3C3B0DCC689A44C29FA452A3BAE7B8C3","3C3B0DCC689A44C29FA452A3BAE7B8C3","35674c9c-1a64-4182-b57a-1bf653ebd6da","a0a8f18c-a66e-4ba7-a170-23efbdc67501","{""participantId"":""3C3B0DCC689A44C29FA452A3BAE7B8C3"",""assignmentId"":""35674c9c-1a64-4182-b57a-1bf653ebd6da"",""projectId"":""a0a8f18c-a66e-4ba7-a170-23efbdc67501""}","https://test12345.live/?participantId=3C3B0DCC689A44C29FA452A3BAE7B8C3&assignmentId=35674c9c-1a64-4182-b57a-1bf653ebd6da&projectId=a0a8f18c-a66e-4ba7-a170-23efbdc67501","3C3B0DCC689A44C29FA452A3BAE7B8C3-2024-11-24-18-31-39","","661","","images/schematic_sequence/flight_scheme/flight_scheme_9.png","0","",""
"","","","","","image-button-response","83","336873","0.0-12.0-1.0-2.8","3C3B0DCC689A44C29FA452A3BAE7B8C3","3C3B0DCC689A44C29FA452A3BAE7B8C3","35674c9c-1a64-4182-b57a-1bf653ebd6da","a0a8f18c-a66e-4ba7-a170-23efbdc67501","{""participantId"":""3C3B0DCC689A44C29FA452A3BAE7B8C3"",""assignmentId"":""35674c9c-1a64-4182-b57a-1bf653ebd6da"",""projectId"":""a0a8f18c-a66e-4ba7-a170-23efbdc67501""}","https://test12345.live/?participantId=3C3B0DCC689A44C29FA452A3BAE7B8C3&assignmentId=35674c9c-1a64-4182-b57a-1bf653ebd6da&projectId=a0a8f18c-a66e-4ba7-a170-23efbdc67501","3C3B0DCC689A44C29FA452A3BAE7B8C3-2024-11-24-18-31-39","","null","","[]","null","",""
"","","","","","image-button-response","84","341375","0.0-12.0-1.0-0.9","3C3B0DCC689A44C29FA452A3BAE7B8C3","3C3B0DCC689A44C29FA452A3BAE7B8C3","35674c9c-1a64-4182-b57a-1bf653ebd6da","a0a8f18c-a66e-4ba7-a170-23efbdc67501","{""participantId"":""3C3B0DCC689A44C29FA452A3BAE7B8C3"",""assignmentId"":""35674c9c-1a64-4182-b57a-1bf653ebd6da"",""projectId"":""a0a8f18c-a66e-4ba7-a170-23efbdc67501""}","https://test12345.live/?participantId=3C3B0DCC689A44C29FA452A3BAE7B8C3&assignmentId=35674c9c-1a64-4182-b57a-1bf653ebd6da&projectId=a0a8f18c-a66e-4ba7-a170-23efbdc67501","3C3B0DCC689A44C29FA452A3BAE7B8C3-2024-11-24-18-31-39","","null","","images/schematic_sequence/flight_scheme/flight_scheme_ten.png","null","",""
"","","","","","image-button-response","85","341949","0.0-12.0-1.0-1.9","3C3B0DCC689A44C29FA452A3BAE7B8C3","3C3B0DCC689A44C29FA452A3BAE7B8C3","35674c9c-1a64-4182-b57a-1bf653ebd6da","a0a8f18c-a66e-4ba7-a170-23efbdc67501","{""participantId"":""3C3B0DCC689A44C29FA452A3BAE7B8C3"",""assignmentId"":""35674c9c-1a64-4182-b57a-1bf653ebd6da"",""projectId"":""a0a8f18c-a66e-4ba7-a170-23efbdc67501""}","https://test12345.live/?participantId=3C3B0DCC689A44C29FA452A3BAE7B8C3&assignmentId=35674c9c-1a64-4182-b57a-1bf653ebd6da&projectId=a0a8f18c-a66e-4ba7-a170-23efbdc67501","3C3B0DCC689A44C29FA452A3BAE7B8C3-2024-11-24-18-31-39","","573","","images/schematic_sequence/flight_scheme/flight_scheme_ten.png","0","",""
"","","","","","image-button-response","86","343759","0.0-12.0-1.0-2.9","3C3B0DCC689A44C29FA452A3BAE7B8C3","3C3B0DCC689A44C29FA452A3BAE7B8C3","35674c9c-1a64-4182-b57a-1bf653ebd6da","a0a8f18c-a66e-4ba7-a170-23efbdc67501","{""participantId"":""3C3B0DCC689A44C29FA452A3BAE7B8C3"",""assignmentId"":""35674c9c-1a64-4182-b57a-1bf653ebd6da"",""projectId"":""a0a8f18c-a66e-4ba7-a170-23efbdc67501""}","https://test12345.live/?participantId=3C3B0DCC689A44C29FA452A3BAE7B8C3&assignmentId=35674c9c-1a64-4182-b57a-1bf653ebd6da&projectId=a0a8f18c-a66e-4ba7-a170-23efbdc67501","3C3B0DCC689A44C29FA452A3BAE7B8C3-2024-11-24-18-31-39","","null","","[]","null","",""
"","","","","","html-audio-response","87","360836","0.0-13.0","3C3B0DCC689A44C29FA452A3BAE7B8C3","3C3B0DCC689A44C29FA452A3BAE7B8C3","35674c9c-1a64-4182-b57a-1bf653ebd6da","a0a8f18c-a66e-4ba7-a170-23efbdc67501","{""participantId"":""3C3B0DCC689A44C29FA452A3BAE7B8C3"",""assignmentId"":""35674c9c-1a64-4182-b57a-1bf653ebd6da"",""projectId"":""a0a8f18c-a66e-4ba7-a170-23efbdc67501""}","https://test12345.live/?participantId=3C3B0DCC689A44C29FA452A3BAE7B8C3&assignmentId=35674c9c-1a64-4182-b57a-1bf653ebd6da&projectId=a0a8f18c-a66e-4ba7-a170-23efbdc67501","3C3B0DCC689A44C29FA452A3BAE7B8C3-2024-11-24-18-31-39","","15231","","[""<span style=\""color: red; font-size: 24px\""> NOW RECORDING</span><p>Please say out loud all the images you saw, as many as you can remember. The images can be said in any order.</p>""]","","13","flight_scheme"
"","","","","","image-button-response","88","366839","0.0-14.0-0.0","3C3B0DCC689A44C29FA452A3BAE7B8C3","3C3B0DCC689A44C29FA452A3BAE7B8C3","35674c9c-1a64-4182-b57a-1bf653ebd6da","a0a8f18c-a66e-4ba7-a170-23efbdc67501","{""participantId"":""3C3B0DCC689A44C29FA452A3BAE7B8C3"",""assignmentId"":""35674c9c-1a64-4182-b57a-1bf653ebd6da"",""projectId"":""a0a8f18c-a66e-4ba7-a170-23efbdc67501""}","https://test12345.live/?participantId=3C3B0DCC689A44C29FA452A3BAE7B8C3&assignmentId=35674c9c-1a64-4182-b57a-1bf653ebd6da&projectId=a0a8f18c-a66e-4ba7-a170-23efbdc67501","3C3B0DCC689A44C29FA452A3BAE7B8C3-2024-11-24-18-31-39","","null","","images/causal_sequence/museum_causal/museum_causal_0.png","null","",""
"","","","","","image-button-response","89","371355","0.0-14.0-1.0-0.0","3C3B0DCC689A44C29FA452A3BAE7B8C3","3C3B0DCC689A44C29FA452A3BAE7B8C3","35674c9c-1a64-4182-b57a-1bf653ebd6da","a0a8f18c-a66e-4ba7-a170-23efbdc67501","{""participantId"":""3C3B0DCC689A44C29FA452A3BAE7B8C3"",""assignmentId"":""35674c9c-1a64-4182-b57a-1bf653ebd6da"",""projectId"":""a0a8f18c-a66e-4ba7-a170-23efbdc67501""}","https://test12345.live/?participantId=3C3B0DCC689A44C29FA452A3BAE7B8C3&assignmentId=35674c9c-1a64-4182-b57a-1bf653ebd6da&projectId=a0a8f18c-a66e-4ba7-a170-23efbdc67501","3C3B0DCC689A44C29FA452A3BAE7B8C3-2024-11-24-18-31-39","","null","","images/causal_sequence/museum_causal/museum_causal_1.png","null","",""
"","","","","","image-button-response","90","372600","0.0-14.0-1.0-1.0","3C3B0DCC689A44C29FA452A3BAE7B8C3","3C3B0DCC689A44C29FA452A3BAE7B8C3","35674c9c-1a64-4182-b57a-1bf653ebd6da","a0a8f18c-a66e-4ba7-a170-23efbdc67501","{""participantId"":""3C3B0DCC689A44C29FA452A3BAE7B8C3"",""assignmentId"":""35674c9c-1a64-4182-b57a-1bf653ebd6da"",""projectId"":""a0a8f18c-a66e-4ba7-a170-23efbdc67501""}","https://test12345.live/?participantId=3C3B0DCC689A44C29FA452A3BAE7B8C3&assignmentId=35674c9c-1a64-4182-b57a-1bf653ebd6da&projectId=a0a8f18c-a66e-4ba7-a170-23efbdc67501","3C3B0DCC689A44C29FA452A3BAE7B8C3-2024-11-24-18-31-39","","1244","","images/causal_sequence/museum_causal/museum_causal_1.png","0","",""
"","","","","","image-button-response","91","374406","0.0-14.0-1.0-2.0","3C3B0DCC689A44C29FA452A3BAE7B8C3","3C3B0DCC689A44C29FA452A3BAE7B8C3","35674c9c-1a64-4182-b57a-1bf653ebd6da","a0a8f18c-a66e-4ba7-a170-23efbdc67501","{""participantId"":""3C3B0DCC689A44C29FA452A3BAE7B8C3"",""assignmentId"":""35674c9c-1a64-4182-b57a-1bf653ebd6da"",""projectId"":""a0a8f18c-a66e-4ba7-a170-23efbdc67501""}","https://test12345.live/?participantId=3C3B0DCC689A44C29FA452A3BAE7B8C3&assignmentId=35674c9c-1a64-4182-b57a-1bf653ebd6da&projectId=a0a8f18c-a66e-4ba7-a170-23efbdc67501","3C3B0DCC689A44C29FA452A3BAE7B8C3-2024-11-24-18-31-39","","null","","[]","null","",""
"","","","","","image-button-response","92","378919","0.0-14.0-1.0-0.1","3C3B0DCC689A44C29FA452A3BAE7B8C3","3C3B0DCC689A44C29FA452A3BAE7B8C3","35674c9c-1a64-4182-b57a-1bf653ebd6da","a0a8f18c-a66e-4ba7-a170-23efbdc67501","{""participantId"":""3C3B0DCC689A44C29FA452A3BAE7B8C3"",""assignmentId"":""35674c9c-1a64-4182-b57a-1bf653ebd6da"",""projectId"":""a0a8f18c-a66e-4ba7-a170-23efbdc67501""}","https://test12345.live/?participantId=3C3B0DCC689A44C29FA452A3BAE7B8C3&assignmentId=35674c9c-1a64-4182-b57a-1bf653ebd6da&projectId=a0a8f18c-a66e-4ba7-a170-23efbdc67501","3C3B0DCC689A44C29FA452A3BAE7B8C3-2024-11-24-18-31-39","","null","","images/causal_sequence/museum_causal/museum_causal_2.png","null","",""
"","","","","","image-button-response","93","379672","0.0-14.0-1.0-1.1","3C3B0DCC689A44C29FA452A3BAE7B8C3","3C3B0DCC689A44C29FA452A3BAE7B8C3","35674c9c-1a64-4182-b57a-1bf653ebd6da","a0a8f18c-a66e-4ba7-a170-23efbdc67501","{""participantId"":""3C3B0DCC689A44C29FA452A3BAE7B8C3"",""assignmentId"":""35674c9c-1a64-4182-b57a-1bf653ebd6da"",""projectId"":""a0a8f18c-a66e-4ba7-a170-23efbdc67501""}","https://test12345.live/?participantId=3C3B0DCC689A44C29FA452A3BAE7B8C3&assignmentId=35674c9c-1a64-4182-b57a-1bf653ebd6da&projectId=a0a8f18c-a66e-4ba7-a170-23efbdc67501","3C3B0DCC689A44C29FA452A3BAE7B8C3-2024-11-24-18-31-39","","752","","images/causal_sequence/museum_causal/museum_causal_2.png","1","",""
"","","","","","image-button-response","94","381485","0.0-14.0-1.0-2.1","3C3B0DCC689A44C29FA452A3BAE7B8C3","3C3B0DCC689A44C29FA452A3BAE7B8C3","35674c9c-1a64-4182-b57a-1bf653ebd6da","a0a8f18c-a66e-4ba7-a170-23efbdc67501","{""participantId"":""3C3B0DCC689A44C29FA452A3BAE7B8C3"",""assignmentId"":""35674c9c-1a64-4182-b57a-1bf653ebd6da"",""projectId"":""a0a8f18c-a66e-4ba7-a170-23efbdc67501""}","https://test12345.live/?participantId=3C3B0DCC689A44C29FA452A3BAE7B8C3&assignmentId=35674c9c-1a64-4182-b57a-1bf653ebd6da&projectId=a0a8f18c-a66e-4ba7-a170-23efbdc67501","3C3B0DCC689A44C29FA452A3BAE7B8C3-2024-11-24-18-31-39","","null","","[]","null","",""
"","","","","","image-button-response","95","385997","0.0-14.0-1.0-0.2","3C3B0DCC689A44C29FA452A3BAE7B8C3","3C3B0DCC689A44C29FA452A3BAE7B8C3","35674c9c-1a64-4182-b57a-1bf653ebd6da","a0a8f18c-a66e-4ba7-a170-23efbdc67501","{""participantId"":""3C3B0DCC689A44C29FA452A3BAE7B8C3"",""assignmentId"":""35674c9c-1a64-4182-b57a-1bf653ebd6da"",""projectId"":""a0a8f18c-a66e-4ba7-a170-23efbdc67501""}","https://test12345.live/?participantId=3C3B0DCC689A44C29FA452A3BAE7B8C3&assignmentId=35674c9c-1a64-4182-b57a-1bf653ebd6da&projectId=a0a8f18c-a66e-4ba7-a170-23efbdc67501","3C3B0DCC689A44C29FA452A3BAE7B8C3-2024-11-24-18-31-39","","null","","images/causal_sequence/museum_causal/museum_causal_3.png","null","",""
"","","","","","image-button-response","96","387741","0.0-14.0-1.0-1.2","3C3B0DCC689A44C29FA452A3BAE7B8C3","3C3B0DCC689A44C29FA452A3BAE7B8C3","35674c9c-1a64-4182-b57a-1bf653ebd6da","a0a8f18c-a66e-4ba7-a170-23efbdc67501","{""participantId"":""3C3B0DCC689A44C29FA452A3BAE7B8C3"",""assignmentId"":""35674c9c-1a64-4182-b57a-1bf653ebd6da"",""projectId"":""a0a8f18c-a66e-4ba7-a170-23efbdc67501""}","https://test12345.live/?participantId=3C3B0DCC689A44C29FA452A3BAE7B8C3&assignmentId=35674c9c-1a64-4182-b57a-1bf653ebd6da&projectId=a0a8f18c-a66e-4ba7-a170-23efbdc67501","3C3B0DCC689A44C29FA452A3BAE7B8C3-2024-11-24-18-31-39","","1743","","images/causal_sequence/museum_causal/museum_causal_3.png","0","",""
"","","","","","image-button-response","97","389554","0.0-14.0-1.0-2.2","3C3B0DCC689A44C29FA452A3BAE7B8C3","3C3B0DCC689A44C29FA452A3BAE7B8C3","35674c9c-1a64-4182-b57a-1bf653ebd6da","a0a8f18c-a66e-4ba7-a170-23efbdc67501","{""participantId"":""3C3B0DCC689A44C29FA452A3BAE7B8C3"",""assignmentId"":""35674c9c-1a64-4182-b57a-1bf653ebd6da"",""projectId"":""a0a8f18c-a66e-4ba7-a170-23efbdc67501""}","https://test12345.live/?participantId=3C3B0DCC689A44C29FA452A3BAE7B8C3&assignmentId=35674c9c-1a64-4182-b57a-1bf653ebd6da&projectId=a0a8f18c-a66e-4ba7-a170-23efbdc67501","3C3B0DCC689A44C29FA452A3BAE7B8C3-2024-11-24-18-31-39","","null","","[]","null","",""
"","","","","","image-button-response","98","394067","0.0-14.0-1.0-0.3","3C3B0DCC689A44C29FA452A3BAE7B8C3","3C3B0DCC689A44C29FA452A3BAE7B8C3","35674c9c-1a64-4182-b57a-1bf653ebd6da","a0a8f18c-a66e-4ba7-a170-23efbdc67501","{""participantId"":""3C3B0DCC689A44C29FA452A3BAE7B8C3"",""assignmentId"":""35674c9c-1a64-4182-b57a-1bf653ebd6da"",""projectId"":""a0a8f18c-a66e-4ba7-a170-23efbdc67501""}","https://test12345.live/?participantId=3C3B0DCC689A44C29FA452A3BAE7B8C3&assignmentId=35674c9c-1a64-4182-b57a-1bf653ebd6da&projectId=a0a8f18c-a66e-4ba7-a170-23efbdc67501","3C3B0DCC689A44C29FA452A3BAE7B8C3-2024-11-24-18-31-39","","null","","images/causal_sequence/museum_causal/museum_causal_4.png","null","",""
"","","","","","image-button-response","99","394980","0.0-14.0-1.0-1.3","3C3B0DCC689A44C29FA452A3BAE7B8C3","3C3B0DCC689A44C29FA452A3BAE7B8C3","35674c9c-1a64-4182-b57a-1bf653ebd6da","a0a8f18c-a66e-4ba7-a170-23efbdc67501","{""participantId"":""3C3B0DCC689A44C29FA452A3BAE7B8C3"",""assignmentId"":""35674c9c-1a64-4182-b57a-1bf653ebd6da"",""projectId"":""a0a8f18c-a66e-4ba7-a170-23efbdc67501""}","https://test12345.live/?participantId=3C3B0DCC689A44C29FA452A3BAE7B8C3&assignmentId=35674c9c-1a64-4182-b57a-1bf653ebd6da&projectId=a0a8f18c-a66e-4ba7-a170-23efbdc67501","3C3B0DCC689A44C29FA452A3BAE7B8C3-2024-11-24-18-31-39","","912","","images/causal_sequence/museum_causal/museum_causal_4.png","1","",""
"","","","","","image-button-response","100","396791","0.0-14.0-1.0-2.3","3C3B0DCC689A44C29FA452A3BAE7B8C3","3C3B0DCC689A44C29FA452A3BAE7B8C3","35674c9c-1a64-4182-b57a-1bf653ebd6da","a0a8f18c-a66e-4ba7-a170-23efbdc67501","{""participantId"":""3C3B0DCC689A44C29FA452A3BAE7B8C3"",""assignmentId"":""35674c9c-1a64-4182-b57a-1bf653ebd6da"",""projectId"":""a0a8f18c-a66e-4ba7-a170-23efbdc67501""}","https://test12345.live/?participantId=3C3B0DCC689A44C29FA452A3BAE7B8C3&assignmentId=35674c9c-1a64-4182-b57a-1bf653ebd6da&projectId=a0a8f18c-a66e-4ba7-a170-23efbdc67501","3C3B0DCC689A44C29FA452A3BAE7B8C3-2024-11-24-18-31-39","","null","","[]","null","",""
"","","","","","image-button-response","101","401293","0.0-14.0-1.0-0.4","3C3B0DCC689A44C29FA452A3BAE7B8C3","3C3B0DCC689A44C29FA452A3BAE7B8C3","35674c9c-1a64-4182-b57a-1bf653ebd6da","a0a8f18c-a66e-4ba7-a170-23efbdc67501","{""participantId"":""3C3B0DCC689A44C29FA452A3BAE7B8C3"",""assignmentId"":""35674c9c-1a64-4182-b57a-1bf653ebd6da"",""projectId"":""a0a8f18c-a66e-4ba7-a170-23efbdc67501""}","https://test12345.live/?participantId=3C3B0DCC689A44C29FA452A3BAE7B8C3&assignmentId=35674c9c-1a64-4182-b57a-1bf653ebd6da&projectId=a0a8f18c-a66e-4ba7-a170-23efbdc67501","3C3B0DCC689A44C29FA452A3BAE7B8C3-2024-11-24-18-31-39","","null","","images/causal_sequence/museum_causal/museum_causal_5.png","null","",""
"","","","","","image-button-response","102","402257","0.0-14.0-1.0-1.4","3C3B0DCC689A44C29FA452A3BAE7B8C3","3C3B0DCC689A44C29FA452A3BAE7B8C3","35674c9c-1a64-4182-b57a-1bf653ebd6da","a0a8f18c-a66e-4ba7-a170-23efbdc67501","{""participantId"":""3C3B0DCC689A44C29FA452A3BAE7B8C3"",""assignmentId"":""35674c9c-1a64-4182-b57a-1bf653ebd6da"",""projectId"":""a0a8f18c-a66e-4ba7-a170-23efbdc67501""}","https://test12345.live/?participantId=3C3B0DCC689A44C29FA452A3BAE7B8C3&assignmentId=35674c9c-1a64-4182-b57a-1bf653ebd6da&projectId=a0a8f18c-a66e-4ba7-a170-23efbdc67501","3C3B0DCC689A44C29FA452A3BAE7B8C3-2024-11-24-18-31-39","","963","","images/causal_sequence/museum_causal/museum_causal_5.png","0","",""
"","","","","","image-button-response","103","404068","0.0-14.0-1.0-2.4","3C3B0DCC689A44C29FA452A3BAE7B8C3","3C3B0DCC689A44C29FA452A3BAE7B8C3","35674c9c-1a64-4182-b57a-1bf653ebd6da","a0a8f18c-a66e-4ba7-a170-23efbdc67501","{""participantId"":""3C3B0DCC689A44C29FA452A3BAE7B8C3"",""assignmentId"":""35674c9c-1a64-4182-b57a-1bf653ebd6da"",""projectId"":""a0a8f18c-a66e-4ba7-a170-23efbdc67501""}","https://test12345.live/?participantId=3C3B0DCC689A44C29FA452A3BAE7B8C3&assignmentId=35674c9c-1a64-4182-b57a-1bf653ebd6da&projectId=a0a8f18c-a66e-4ba7-a170-23efbdc67501","3C3B0DCC689A44C29FA452A3BAE7B8C3-2024-11-24-18-31-39","","null","","[]","null","",""
"","","","","","image-button-response","104","408583","0.0-14.0-1.0-0.5","3C3B0DCC689A44C29FA452A3BAE7B8C3","3C3B0DCC689A44C29FA452A3BAE7B8C3","35674c9c-1a64-4182-b57a-1bf653ebd6da","a0a8f18c-a66e-4ba7-a170-23efbdc67501","{""participantId"":""3C3B0DCC689A44C29FA452A3BAE7B8C3"",""assignmentId"":""35674c9c-1a64-4182-b57a-1bf653ebd6da"",""projectId"":""a0a8f18c-a66e-4ba7-a170-23efbdc67501""}","https://test12345.live/?participantId=3C3B0DCC689A44C29FA452A3BAE7B8C3&assignmentId=35674c9c-1a64-4182-b57a-1bf653ebd6da&projectId=a0a8f18c-a66e-4ba7-a170-23efbdc67501","3C3B0DCC689A44C29FA452A3BAE7B8C3-2024-11-24-18-31-39","","null","","images/causal_sequence/museum_causal/museum_causal_6.png","null","",""
"","","","","","image-button-response","105","409956","0.0-14.0-1.0-1.5","3C3B0DCC689A44C29FA452A3BAE7B8C3","3C3B0DCC689A44C29FA452A3BAE7B8C3","35674c9c-1a64-4182-b57a-1bf653ebd6da","a0a8f18c-a66e-4ba7-a170-23efbdc67501","{""participantId"":""3C3B0DCC689A44C29FA452A3BAE7B8C3"",""assignmentId"":""35674c9c-1a64-4182-b57a-1bf653ebd6da"",""projectId"":""a0a8f18c-a66e-4ba7-a170-23efbdc67501""}","https://test12345.live/?participantId=3C3B0DCC689A44C29FA452A3BAE7B8C3&assignmentId=35674c9c-1a64-4182-b57a-1bf653ebd6da&projectId=a0a8f18c-a66e-4ba7-a170-23efbdc67501","3C3B0DCC689A44C29FA452A3BAE7B8C3-2024-11-24-18-31-39","","1372","","images/causal_sequence/museum_causal/museum_causal_6.png","0","",""
"","","","","","image-button-response","106","411766","0.0-14.0-1.0-2.5","3C3B0DCC689A44C29FA452A3BAE7B8C3","3C3B0DCC689A44C29FA452A3BAE7B8C3","35674c9c-1a64-4182-b57a-1bf653ebd6da","a0a8f18c-a66e-4ba7-a170-23efbdc67501","{""participantId"":""3C3B0DCC689A44C29FA452A3BAE7B8C3"",""assignmentId"":""35674c9c-1a64-4182-b57a-1bf653ebd6da"",""projectId"":""a0a8f18c-a66e-4ba7-a170-23efbdc67501""}","https://test12345.live/?participantId=3C3B0DCC689A44C29FA452A3BAE7B8C3&assignmentId=35674c9c-1a64-4182-b57a-1bf653ebd6da&projectId=a0a8f18c-a66e-4ba7-a170-23efbdc67501","3C3B0DCC689A44C29FA452A3BAE7B8C3-2024-11-24-18-31-39","","null","","[]","null","",""
"","","","","","image-button-response","107","416268","0.0-14.0-1.0-0.6","3C3B0DCC689A44C29FA452A3BAE7B8C3","3C3B0DCC689A44C29FA452A3BAE7B8C3","35674c9c-1a64-4182-b57a-1bf653ebd6da","a0a8f18c-a66e-4ba7-a170-23efbdc67501","{""participantId"":""3C3B0DCC689A44C29FA452A3BAE7B8C3"",""assignmentId"":""35674c9c-1a64-4182-b57a-1bf653ebd6da"",""projectId"":""a0a8f18c-a66e-4ba7-a170-23efbdc67501""}","https://test12345.live/?participantId=3C3B0DCC689A44C29FA452A3BAE7B8C3&assignmentId=35674c9c-1a64-4182-b57a-1bf653ebd6da&projectId=a0a8f18c-a66e-4ba7-a170-23efbdc67501","3C3B0DCC689A44C29FA452A3BAE7B8C3-2024-11-24-18-31-39","","null","","images/causal_sequence/museum_causal/museum_causal_7.png","null","",""
"","","","","","image-button-response","108","417565","0.0-14.0-1.0-1.6","3C3B0DCC689A44C29FA452A3BAE7B8C3","3C3B0DCC689A44C29FA452A3BAE7B8C3","35674c9c-1a64-4182-b57a-1bf653ebd6da","a0a8f18c-a66e-4ba7-a170-23efbdc67501","{""participantId"":""3C3B0DCC689A44C29FA452A3BAE7B8C3"",""assignmentId"":""35674c9c-1a64-4182-b57a-1bf653ebd6da"",""projectId"":""a0a8f18c-a66e-4ba7-a170-23efbdc67501""}","https://test12345.live/?participantId=3C3B0DCC689A44C29FA452A3BAE7B8C3&assignmentId=35674c9c-1a64-4182-b57a-1bf653ebd6da&projectId=a0a8f18c-a66e-4ba7-a170-23efbdc67501","3C3B0DCC689A44C29FA452A3BAE7B8C3-2024-11-24-18-31-39","","1296","","images/causal_sequence/museum_causal/museum_causal_7.png","1","",""
"","","","","","image-button-response","109","419368","0.0-14.0-1.0-2.6","3C3B0DCC689A44C29FA452A3BAE7B8C3","3C3B0DCC689A44C29FA452A3BAE7B8C3","35674c9c-1a64-4182-b57a-1bf653ebd6da","a0a8f18c-a66e-4ba7-a170-23efbdc67501","{""participantId"":""3C3B0DCC689A44C29FA452A3BAE7B8C3"",""assignmentId"":""35674c9c-1a64-4182-b57a-1bf653ebd6da"",""projectId"":""a0a8f18c-a66e-4ba7-a170-23efbdc67501""}","https://test12345.live/?participantId=3C3B0DCC689A44C29FA452A3BAE7B8C3&assignmentId=35674c9c-1a64-4182-b57a-1bf653ebd6da&projectId=a0a8f18c-a66e-4ba7-a170-23efbdc67501","3C3B0DCC689A44C29FA452A3BAE7B8C3-2024-11-24-18-31-39","","null","","[]","null","",""
"","","","","","image-button-response","110","423878","0.0-14.0-1.0-0.7","3C3B0DCC689A44C29FA452A3BAE7B8C3","3C3B0DCC689A44C29FA452A3BAE7B8C3","35674c9c-1a64-4182-b57a-1bf653ebd6da","a0a8f18c-a66e-4ba7-a170-23efbdc67501","{""participantId"":""3C3B0DCC689A44C29FA452A3BAE7B8C3"",""assignmentId"":""35674c9c-1a64-4182-b57a-1bf653ebd6da"",""projectId"":""a0a8f18c-a66e-4ba7-a170-23efbdc67501""}","https://test12345.live/?participantId=3C3B0DCC689A44C29FA452A3BAE7B8C3&assignmentId=35674c9c-1a64-4182-b57a-1bf653ebd6da&projectId=a0a8f18c-a66e-4ba7-a170-23efbdc67501","3C3B0DCC689A44C29FA452A3BAE7B8C3-2024-11-24-18-31-39","","null","","images/causal_sequence/museum_causal/museum_causal_8.png","null","",""
"","","","","","image-button-response","111","424613","0.0-14.0-1.0-1.7","3C3B0DCC689A44C29FA452A3BAE7B8C3","3C3B0DCC689A44C29FA452A3BAE7B8C3","35674c9c-1a64-4182-b57a-1bf653ebd6da","a0a8f18c-a66e-4ba7-a170-23efbdc67501","{""participantId"":""3C3B0DCC689A44C29FA452A3BAE7B8C3"",""assignmentId"":""35674c9c-1a64-4182-b57a-1bf653ebd6da"",""projectId"":""a0a8f18c-a66e-4ba7-a170-23efbdc67501""}","https://test12345.live/?participantId=3C3B0DCC689A44C29FA452A3BAE7B8C3&assignmentId=35674c9c-1a64-4182-b57a-1bf653ebd6da&projectId=a0a8f18c-a66e-4ba7-a170-23efbdc67501","3C3B0DCC689A44C29FA452A3BAE7B8C3-2024-11-24-18-31-39","","734","","images/causal_sequence/museum_causal/museum_causal_8.png","0","",""
"","","","","","image-button-response","112","426430","0.0-14.0-1.0-2.7","3C3B0DCC689A44C29FA452A3BAE7B8C3","3C3B0DCC689A44C29FA452A3BAE7B8C3","35674c9c-1a64-4182-b57a-1bf653ebd6da","a0a8f18c-a66e-4ba7-a170-23efbdc67501","{""participantId"":""3C3B0DCC689A44C29FA452A3BAE7B8C3"",""assignmentId"":""35674c9c-1a64-4182-b57a-1bf653ebd6da"",""projectId"":""a0a8f18c-a66e-4ba7-a170-23efbdc67501""}","https://test12345.live/?participantId=3C3B0DCC689A44C29FA452A3BAE7B8C3&assignmentId=35674c9c-1a64-4182-b57a-1bf653ebd6da&projectId=a0a8f18c-a66e-4ba7-a170-23efbdc67501","3C3B0DCC689A44C29FA452A3BAE7B8C3-2024-11-24-18-31-39","","null","","[]","null","",""
"","","","","","image-button-response","113","430946","0.0-14.0-1.0-0.8","3C3B0DCC689A44C29FA452A3BAE7B8C3","3C3B0DCC689A44C29FA452A3BAE7B8C3","35674c9c-1a64-4182-b57a-1bf653ebd6da","a0a8f18c-a66e-4ba7-a170-23efbdc67501","{""participantId"":""3C3B0DCC689A44C29FA452A3BAE7B8C3"",""assignmentId"":""35674c9c-1a64-4182-b57a-1bf653ebd6da"",""projectId"":""a0a8f18c-a66e-4ba7-a170-23efbdc67501""}","https://test12345.live/?participantId=3C3B0DCC689A44C29FA452A3BAE7B8C3&assignmentId=35674c9c-1a64-4182-b57a-1bf653ebd6da&projectId=a0a8f18c-a66e-4ba7-a170-23efbdc67501","3C3B0DCC689A44C29FA452A3BAE7B8C3-2024-11-24-18-31-39","","null","","images/causal_sequence/museum_causal/museum_causal_9.png","null","",""
"","","","","","image-button-response","114","431448","0.0-14.0-1.0-1.8","3C3B0DCC689A44C29FA452A3BAE7B8C3","3C3B0DCC689A44C29FA452A3BAE7B8C3","35674c9c-1a64-4182-b57a-1bf653ebd6da","a0a8f18c-a66e-4ba7-a170-23efbdc67501","{""participantId"":""3C3B0DCC689A44C29FA452A3BAE7B8C3"",""assignmentId"":""35674c9c-1a64-4182-b57a-1bf653ebd6da"",""projectId"":""a0a8f18c-a66e-4ba7-a170-23efbdc67501""}","https://test12345.live/?participantId=3C3B0DCC689A44C29FA452A3BAE7B8C3&assignmentId=35674c9c-1a64-4182-b57a-1bf653ebd6da&projectId=a0a8f18c-a66e-4ba7-a170-23efbdc67501","3C3B0DCC689A44C29FA452A3BAE7B8C3-2024-11-24-18-31-39","","500","","images/causal_sequence/museum_causal/museum_causal_9.png","1","",""
"","","","","","image-button-response","115","433251","0.0-14.0-1.0-2.8","3C3B0DCC689A44C29FA452A3BAE7B8C3","3C3B0DCC689A44C29FA452A3BAE7B8C3","35674c9c-1a64-4182-b57a-1bf653ebd6da","a0a8f18c-a66e-4ba7-a170-23efbdc67501","{""participantId"":""3C3B0DCC689A44C29FA452A3BAE7B8C3"",""assignmentId"":""35674c9c-1a64-4182-b57a-1bf653ebd6da"",""projectId"":""a0a8f18c-a66e-4ba7-a170-23efbdc67501""}","https://test12345.live/?participantId=3C3B0DCC689A44C29FA452A3BAE7B8C3&assignmentId=35674c9c-1a64-4182-b57a-1bf653ebd6da&projectId=a0a8f18c-a66e-4ba7-a170-23efbdc67501","3C3B0DCC689A44C29FA452A3BAE7B8C3-2024-11-24-18-31-39","","null","","[]","null","",""
"","","","","","image-button-response","116","437753","0.0-14.0-1.0-0.9","3C3B0DCC689A44C29FA452A3BAE7B8C3","3C3B0DCC689A44C29FA452A3BAE7B8C3","35674c9c-1a64-4182-b57a-1bf653ebd6da","a0a8f18c-a66e-4ba7-a170-23efbdc67501","{""participantId"":""3C3B0DCC689A44C29FA452A3BAE7B8C3"",""assignmentId"":""35674c9c-1a64-4182-b57a-1bf653ebd6da"",""projectId"":""a0a8f18c-a66e-4ba7-a170-23efbdc67501""}","https://test12345.live/?participantId=3C3B0DCC689A44C29FA452A3BAE7B8C3&assignmentId=35674c9c-1a64-4182-b57a-1bf653ebd6da&projectId=a0a8f18c-a66e-4ba7-a170-23efbdc67501","3C3B0DCC689A44C29FA452A3BAE7B8C3-2024-11-24-18-31-39","","null","","images/causal_sequence/museum_causal/museum_causal_ten.png","null","",""
"","","","","","image-button-response","117","438504","0.0-14.0-1.0-1.9","3C3B0DCC689A44C29FA452A3BAE7B8C3","3C3B0DCC689A44C29FA452A3BAE7B8C3","35674c9c-1a64-4182-b57a-1bf653ebd6da","a0a8f18c-a66e-4ba7-a170-23efbdc67501","{""participantId"":""3C3B0DCC689A44C29FA452A3BAE7B8C3"",""assignmentId"":""35674c9c-1a64-4182-b57a-1bf653ebd6da"",""projectId"":""a0a8f18c-a66e-4ba7-a170-23efbdc67501""}","https://test12345.live/?participantId=3C3B0DCC689A44C29FA452A3BAE7B8C3&assignmentId=35674c9c-1a64-4182-b57a-1bf653ebd6da&projectId=a0a8f18c-a66e-4ba7-a170-23efbdc67501","3C3B0DCC689A44C29FA452A3BAE7B8C3-2024-11-24-18-31-39","","750","","images/causal_sequence/museum_causal/museum_causal_ten.png","0","",""
"","","","","","image-button-response","118","440314","0.0-14.0-1.0-2.9","3C3B0DCC689A44C29FA452A3BAE7B8C3","3C3B0DCC689A44C29FA452A3BAE7B8C3","35674c9c-1a64-4182-b57a-1bf653ebd6da","a0a8f18c-a66e-4ba7-a170-23efbdc67501","{""participantId"":""3C3B0DCC689A44C29FA452A3BAE7B8C3"",""assignmentId"":""35674c9c-1a64-4182-b57a-1bf653ebd6da"",""projectId"":""a0a8f18c-a66e-4ba7-a170-23efbdc67501""}","https://test12345.live/?participantId=3C3B0DCC689A44C29FA452A3BAE7B8C3&assignmentId=35674c9c-1a64-4182-b57a-1bf653ebd6da&projectId=a0a8f18c-a66e-4ba7-a170-23efbdc67501","3C3B0DCC689A44C29FA452A3BAE7B8C3-2024-11-24-18-31-39","","null","","[]","null","",""
"","","","","","html-audio-response","119","455996","0.0-15.0","3C3B0DCC689A44C29FA452A3BAE7B8C3","3C3B0DCC689A44C29FA452A3BAE7B8C3","35674c9c-1a64-4182-b57a-1bf653ebd6da","a0a8f18c-a66e-4ba7-a170-23efbdc67501","{""participantId"":""3C3B0DCC689A44C29FA452A3BAE7B8C3"",""assignmentId"":""35674c9c-1a64-4182-b57a-1bf653ebd6da"",""projectId"":""a0a8f18c-a66e-4ba7-a170-23efbdc67501""}","https://test12345.live/?participantId=3C3B0DCC689A44C29FA452A3BAE7B8C3&assignmentId=35674c9c-1a64-4182-b57a-1bf653ebd6da&projectId=a0a8f18c-a66e-4ba7-a170-23efbdc67501","3C3B0DCC689A44C29FA452A3BAE7B8C3-2024-11-24-18-31-39","","14955","","[""<span style=\""color: red; font-size: 24px\""> NOW RECORDING</span><p>Please say out loud all the images you saw, as many as you can remember. The images can be said in any order.</p>""]","","16","museum_causal"
"","","","","","image-button-response","120","462012","0.0-16.0-0.0","3C3B0DCC689A44C29FA452A3BAE7B8C3","3C3B0DCC689A44C29FA452A3BAE7B8C3","35674c9c-1a64-4182-b57a-1bf653ebd6da","a0a8f18c-a66e-4ba7-a170-23efbdc67501","{""participantId"":""3C3B0DCC689A44C29FA452A3BAE7B8C3"",""assignmentId"":""35674c9c-1a64-4182-b57a-1bf653ebd6da"",""projectId"":""a0a8f18c-a66e-4ba7-a170-23efbdc67501""}","https://test12345.live/?participantId=3C3B0DCC689A44C29FA452A3BAE7B8C3&assignmentId=35674c9c-1a64-4182-b57a-1bf653ebd6da&projectId=a0a8f18c-a66e-4ba7-a170-23efbdc67501","3C3B0DCC689A44C29FA452A3BAE7B8C3-2024-11-24-18-31-39","","null","","images/causal_sequence/saving_a_cat_causal/saving_a_cat_causal_0.png","null","",""
"","","","","","image-button-response","121","466514","0.0-16.0-1.0-0.0","3C3B0DCC689A44C29FA452A3BAE7B8C3","3C3B0DCC689A44C29FA452A3BAE7B8C3","35674c9c-1a64-4182-b57a-1bf653ebd6da","a0a8f18c-a66e-4ba7-a170-23efbdc67501","{""participantId"":""3C3B0DCC689A44C29FA452A3BAE7B8C3"",""assignmentId"":""35674c9c-1a64-4182-b57a-1bf653ebd6da"",""projectId"":""a0a8f18c-a66e-4ba7-a170-23efbdc67501""}","https://test12345.live/?participantId=3C3B0DCC689A44C29FA452A3BAE7B8C3&assignmentId=35674c9c-1a64-4182-b57a-1bf653ebd6da&projectId=a0a8f18c-a66e-4ba7-a170-23efbdc67501","3C3B0DCC689A44C29FA452A3BAE7B8C3-2024-11-24-18-31-39","","null","","images/causal_sequence/saving_a_cat_causal/saving_a_cat_causal_1.png","null","",""
"","","","","","image-button-response","122","467756","0.0-16.0-1.0-1.0","3C3B0DCC689A44C29FA452A3BAE7B8C3","3C3B0DCC689A44C29FA452A3BAE7B8C3","35674c9c-1a64-4182-b57a-1bf653ebd6da","a0a8f18c-a66e-4ba7-a170-23efbdc67501","{""participantId"":""3C3B0DCC689A44C29FA452A3BAE7B8C3"",""assignmentId"":""35674c9c-1a64-4182-b57a-1bf653ebd6da"",""projectId"":""a0a8f18c-a66e-4ba7-a170-23efbdc67501""}","https://test12345.live/?participantId=3C3B0DCC689A44C29FA452A3BAE7B8C3&assignmentId=35674c9c-1a64-4182-b57a-1bf653ebd6da&projectId=a0a8f18c-a66e-4ba7-a170-23efbdc67501","3C3B0DCC689A44C29FA452A3BAE7B8C3-2024-11-24-18-31-39","","1241","","images/causal_sequence/saving_a_cat_causal/saving_a_cat_causal_1.png","0","",""
"","","","","","image-button-response","123","469565","0.0-16.0-1.0-2.0","3C3B0DCC689A44C29FA452A3BAE7B8C3","3C3B0DCC689A44C29FA452A3BAE7B8C3","35674c9c-1a64-4182-b57a-1bf653ebd6da","a0a8f18c-a66e-4ba7-a170-23efbdc67501","{""participantId"":""3C3B0DCC689A44C29FA452A3BAE7B8C3"",""assignmentId"":""35674c9c-1a64-4182-b57a-1bf653ebd6da"",""projectId"":""a0a8f18c-a66e-4ba7-a170-23efbdc67501""}","https://test12345.live/?participantId=3C3B0DCC689A44C29FA452A3BAE7B8C3&assignmentId=35674c9c-1a64-4182-b57a-1bf653ebd6da&projectId=a0a8f18c-a66e-4ba7-a170-23efbdc67501","3C3B0DCC689A44C29FA452A3BAE7B8C3-2024-11-24-18-31-39","","null","","[]","null","",""
"","","","","","image-button-response","124","474075","0.0-16.0-1.0-0.1","3C3B0DCC689A44C29FA452A3BAE7B8C3","3C3B0DCC689A44C29FA452A3BAE7B8C3","35674c9c-1a64-4182-b57a-1bf653ebd6da","a0a8f18c-a66e-4ba7-a170-23efbdc67501","{""participantId"":""3C3B0DCC689A44C29FA452A3BAE7B8C3"",""assignmentId"":""35674c9c-1a64-4182-b57a-1bf653ebd6da"",""projectId"":""a0a8f18c-a66e-4ba7-a170-23efbdc67501""}","https://test12345.live/?participantId=3C3B0DCC689A44C29FA452A3BAE7B8C3&assignmentId=35674c9c-1a64-4182-b57a-1bf653ebd6da&projectId=a0a8f18c-a66e-4ba7-a170-23efbdc67501","3C3B0DCC689A44C29FA452A3BAE7B8C3-2024-11-24-18-31-39","","null","","images/causal_sequence/saving_a_cat_causal/saving_a_cat_causal_2.png","null","",""
"","","","","","image-button-response","125","474915","0.0-16.0-1.0-1.1","3C3B0DCC689A44C29FA452A3BAE7B8C3","3C3B0DCC689A44C29FA452A3BAE7B8C3","35674c9c-1a64-4182-b57a-1bf653ebd6da","a0a8f18c-a66e-4ba7-a170-23efbdc67501","{""participantId"":""3C3B0DCC689A44C29FA452A3BAE7B8C3"",""assignmentId"":""35674c9c-1a64-4182-b57a-1bf653ebd6da"",""projectId"":""a0a8f18c-a66e-4ba7-a170-23efbdc67501""}","https://test12345.live/?participantId=3C3B0DCC689A44C29FA452A3BAE7B8C3&assignmentId=35674c9c-1a64-4182-b57a-1bf653ebd6da&projectId=a0a8f18c-a66e-4ba7-a170-23efbdc67501","3C3B0DCC689A44C29FA452A3BAE7B8C3-2024-11-24-18-31-39","","839","","images/causal_sequence/saving_a_cat_causal/saving_a_cat_causal_2.png","1","",""
"","","","","","image-button-response","126","476720","0.0-16.0-1.0-2.1","3C3B0DCC689A44C29FA452A3BAE7B8C3","3C3B0DCC689A44C29FA452A3BAE7B8C3","35674c9c-1a64-4182-b57a-1bf653ebd6da","a0a8f18c-a66e-4ba7-a170-23efbdc67501","{""participantId"":""3C3B0DCC689A44C29FA452A3BAE7B8C3"",""assignmentId"":""35674c9c-1a64-4182-b57a-1bf653ebd6da"",""projectId"":""a0a8f18c-a66e-4ba7-a170-23efbdc67501""}","https://test12345.live/?participantId=3C3B0DCC689A44C29FA452A3BAE7B8C3&assignmentId=35674c9c-1a64-4182-b57a-1bf653ebd6da&projectId=a0a8f18c-a66e-4ba7-a170-23efbdc67501","3C3B0DCC689A44C29FA452A3BAE7B8C3-2024-11-24-18-31-39","","null","","[]","null","",""
"","","","","","image-button-response","127","481222","0.0-16.0-1.0-0.2","3C3B0DCC689A44C29FA452A3BAE7B8C3","3C3B0DCC689A44C29FA452A3BAE7B8C3","35674c9c-1a64-4182-b57a-1bf653ebd6da","a0a8f18c-a66e-4ba7-a170-23efbdc67501","{""participantId"":""3C3B0DCC689A44C29FA452A3BAE7B8C3"",""assignmentId"":""35674c9c-1a64-4182-b57a-1bf653ebd6da"",""projectId"":""a0a8f18c-a66e-4ba7-a170-23efbdc67501""}","https://test12345.live/?participantId=3C3B0DCC689A44C29FA452A3BAE7B8C3&assignmentId=35674c9c-1a64-4182-b57a-1bf653ebd6da&projectId=a0a8f18c-a66e-4ba7-a170-23efbdc67501","3C3B0DCC689A44C29FA452A3BAE7B8C3-2024-11-24-18-31-39","","null","","images/causal_sequence/saving_a_cat_causal/saving_a_cat_causal_3.png","null","",""
"","","","","","image-button-response","128","482178","0.0-16.0-1.0-1.2","3C3B0DCC689A44C29FA452A3BAE7B8C3","3C3B0DCC689A44C29FA452A3BAE7B8C3","35674c9c-1a64-4182-b57a-1bf653ebd6da","a0a8f18c-a66e-4ba7-a170-23efbdc67501","{""participantId"":""3C3B0DCC689A44C29FA452A3BAE7B8C3"",""assignmentId"":""35674c9c-1a64-4182-b57a-1bf653ebd6da"",""projectId"":""a0a8f18c-a66e-4ba7-a170-23efbdc67501""}","https://test12345.live/?participantId=3C3B0DCC689A44C29FA452A3BAE7B8C3&assignmentId=35674c9c-1a64-4182-b57a-1bf653ebd6da&projectId=a0a8f18c-a66e-4ba7-a170-23efbdc67501","3C3B0DCC689A44C29FA452A3BAE7B8C3-2024-11-24-18-31-39","","955","","images/causal_sequence/saving_a_cat_causal/saving_a_cat_causal_3.png","1","",""
"","","","","","image-button-response","129","483992","0.0-16.0-1.0-2.2","3C3B0DCC689A44C29FA452A3BAE7B8C3","3C3B0DCC689A44C29FA452A3BAE7B8C3","35674c9c-1a64-4182-b57a-1bf653ebd6da","a0a8f18c-a66e-4ba7-a170-23efbdc67501","{""participantId"":""3C3B0DCC689A44C29FA452A3BAE7B8C3"",""assignmentId"":""35674c9c-1a64-4182-b57a-1bf653ebd6da"",""projectId"":""a0a8f18c-a66e-4ba7-a170-23efbdc67501""}","https://test12345.live/?participantId=3C3B0DCC689A44C29FA452A3BAE7B8C3&assignmentId=35674c9c-1a64-4182-b57a-1bf653ebd6da&projectId=a0a8f18c-a66e-4ba7-a170-23efbdc67501","3C3B0DCC689A44C29FA452A3BAE7B8C3-2024-11-24-18-31-39","","null","","[]","null","",""
"","","","","","image-button-response","130","488504","0.0-16.0-1.0-0.3","3C3B0DCC689A44C29FA452A3BAE7B8C3","3C3B0DCC689A44C29FA452A3BAE7B8C3","35674c9c-1a64-4182-b57a-1bf653ebd6da","a0a8f18c-a66e-4ba7-a170-23efbdc67501","{""participantId"":""3C3B0DCC689A44C29FA452A3BAE7B8C3"",""assignmentId"":""35674c9c-1a64-4182-b57a-1bf653ebd6da"",""projectId"":""a0a8f18c-a66e-4ba7-a170-23efbdc67501""}","https://test12345.live/?participantId=3C3B0DCC689A44C29FA452A3BAE7B8C3&assignmentId=35674c9c-1a64-4182-b57a-1bf653ebd6da&projectId=a0a8f18c-a66e-4ba7-a170-23efbdc67501","3C3B0DCC689A44C29FA452A3BAE7B8C3-2024-11-24-18-31-39","","null","","images/causal_sequence/saving_a_cat_causal/saving_a_cat_causal_4.png","null","",""
"","","","","","image-button-response","131","489179","0.0-16.0-1.0-1.3","3C3B0DCC689A44C29FA452A3BAE7B8C3","3C3B0DCC689A44C29FA452A3BAE7B8C3","35674c9c-1a64-4182-b57a-1bf653ebd6da","a0a8f18c-a66e-4ba7-a170-23efbdc67501","{""participantId"":""3C3B0DCC689A44C29FA452A3BAE7B8C3"",""assignmentId"":""35674c9c-1a64-4182-b57a-1bf653ebd6da"",""projectId"":""a0a8f18c-a66e-4ba7-a170-23efbdc67501""}","https://test12345.live/?participantId=3C3B0DCC689A44C29FA452A3BAE7B8C3&assignmentId=35674c9c-1a64-4182-b57a-1bf653ebd6da&projectId=a0a8f18c-a66e-4ba7-a170-23efbdc67501","3C3B0DCC689A44C29FA452A3BAE7B8C3-2024-11-24-18-31-39","","674","","images/causal_sequence/saving_a_cat_causal/saving_a_cat_causal_4.png","0","",""
"","","","","","image-button-response","132","490992","0.0-16.0-1.0-2.3","3C3B0DCC689A44C29FA452A3BAE7B8C3","3C3B0DCC689A44C29FA452A3BAE7B8C3","35674c9c-1a64-4182-b57a-1bf653ebd6da","a0a8f18c-a66e-4ba7-a170-23efbdc67501","{""participantId"":""3C3B0DCC689A44C29FA452A3BAE7B8C3"",""assignmentId"":""35674c9c-1a64-4182-b57a-1bf653ebd6da"",""projectId"":""a0a8f18c-a66e-4ba7-a170-23efbdc67501""}","https://test12345.live/?participantId=3C3B0DCC689A44C29FA452A3BAE7B8C3&assignmentId=35674c9c-1a64-4182-b57a-1bf653ebd6da&projectId=a0a8f18c-a66e-4ba7-a170-23efbdc67501","3C3B0DCC689A44C29FA452A3BAE7B8C3-2024-11-24-18-31-39","","null","","[]","null","",""
"","","","","","image-button-response","133","495495","0.0-16.0-1.0-0.4","3C3B0DCC689A44C29FA452A3BAE7B8C3","3C3B0DCC689A44C29FA452A3BAE7B8C3","35674c9c-1a64-4182-b57a-1bf653ebd6da","a0a8f18c-a66e-4ba7-a170-23efbdc67501","{""participantId"":""3C3B0DCC689A44C29FA452A3BAE7B8C3"",""assignmentId"":""35674c9c-1a64-4182-b57a-1bf653ebd6da"",""projectId"":""a0a8f18c-a66e-4ba7-a170-23efbdc67501""}","https://test12345.live/?participantId=3C3B0DCC689A44C29FA452A3BAE7B8C3&assignmentId=35674c9c-1a64-4182-b57a-1bf653ebd6da&projectId=a0a8f18c-a66e-4ba7-a170-23efbdc67501","3C3B0DCC689A44C29FA452A3BAE7B8C3-2024-11-24-18-31-39","","null","","images/causal_sequence/saving_a_cat_causal/saving_a_cat_causal_5.png","null","",""
"","","","","","image-button-response","134","496005","0.0-16.0-1.0-1.4","3C3B0DCC689A44C29FA452A3BAE7B8C3","3C3B0DCC689A44C29FA452A3BAE7B8C3","35674c9c-1a64-4182-b57a-1bf653ebd6da","a0a8f18c-a66e-4ba7-a170-23efbdc67501","{""participantId"":""3C3B0DCC689A44C29FA452A3BAE7B8C3"",""assignmentId"":""35674c9c-1a64-4182-b57a-1bf653ebd6da"",""projectId"":""a0a8f18c-a66e-4ba7-a170-23efbdc67501""}","https://test12345.live/?participantId=3C3B0DCC689A44C29FA452A3BAE7B8C3&assignmentId=35674c9c-1a64-4182-b57a-1bf653ebd6da&projectId=a0a8f18c-a66e-4ba7-a170-23efbdc67501","3C3B0DCC689A44C29FA452A3BAE7B8C3-2024-11-24-18-31-39","","510","","images/causal_sequence/saving_a_cat_causal/saving_a_cat_causal_5.png","0","",""
"","","","","","image-button-response","135","497813","0.0-16.0-1.0-2.4","3C3B0DCC689A44C29FA452A3BAE7B8C3","3C3B0DCC689A44C29FA452A3BAE7B8C3","35674c9c-1a64-4182-b57a-1bf653ebd6da","a0a8f18c-a66e-4ba7-a170-23efbdc67501","{""participantId"":""3C3B0DCC689A44C29FA452A3BAE7B8C3"",""assignmentId"":""35674c9c-1a64-4182-b57a-1bf653ebd6da"",""projectId"":""a0a8f18c-a66e-4ba7-a170-23efbdc67501""}","https://test12345.live/?participantId=3C3B0DCC689A44C29FA452A3BAE7B8C3&assignmentId=35674c9c-1a64-4182-b57a-1bf653ebd6da&projectId=a0a8f18c-a66e-4ba7-a170-23efbdc67501","3C3B0DCC689A44C29FA452A3BAE7B8C3-2024-11-24-18-31-39","","null","","[]","null","",""
"","","","","","image-button-response","136","502316","0.0-16.0-1.0-0.5","3C3B0DCC689A44C29FA452A3BAE7B8C3","3C3B0DCC689A44C29FA452A3BAE7B8C3","35674c9c-1a64-4182-b57a-1bf653ebd6da","a0a8f18c-a66e-4ba7-a170-23efbdc67501","{""participantId"":""3C3B0DCC689A44C29FA452A3BAE7B8C3"",""assignmentId"":""35674c9c-1a64-4182-b57a-1bf653ebd6da"",""projectId"":""a0a8f18c-a66e-4ba7-a170-23efbdc67501""}","https://test12345.live/?participantId=3C3B0DCC689A44C29FA452A3BAE7B8C3&assignmentId=35674c9c-1a64-4182-b57a-1bf653ebd6da&projectId=a0a8f18c-a66e-4ba7-a170-23efbdc67501","3C3B0DCC689A44C29FA452A3BAE7B8C3-2024-11-24-18-31-39","","null","","images/causal_sequence/saving_a_cat_causal/saving_a_cat_causal_6.png","null","",""
"","","","","","image-button-response","137","502729","0.0-16.0-1.0-1.5","3C3B0DCC689A44C29FA452A3BAE7B8C3","3C3B0DCC689A44C29FA452A3BAE7B8C3","35674c9c-1a64-4182-b57a-1bf653ebd6da","a0a8f18c-a66e-4ba7-a170-23efbdc67501","{""participantId"":""3C3B0DCC689A44C29FA452A3BAE7B8C3"",""assignmentId"":""35674c9c-1a64-4182-b57a-1bf653ebd6da"",""projectId"":""a0a8f18c-a66e-4ba7-a170-23efbdc67501""}","https://test12345.live/?participantId=3C3B0DCC689A44C29FA452A3BAE7B8C3&assignmentId=35674c9c-1a64-4182-b57a-1bf653ebd6da&projectId=a0a8f18c-a66e-4ba7-a170-23efbdc67501","3C3B0DCC689A44C29FA452A3BAE7B8C3-2024-11-24-18-31-39","","412","","images/causal_sequence/saving_a_cat_causal/saving_a_cat_causal_6.png","0","",""
"","","","","","image-button-response","138","504546","0.0-16.0-1.0-2.5","3C3B0DCC689A44C29FA452A3BAE7B8C3","3C3B0DCC689A44C29FA452A3BAE7B8C3","35674c9c-1a64-4182-b57a-1bf653ebd6da","a0a8f18c-a66e-4ba7-a170-23efbdc67501","{""participantId"":""3C3B0DCC689A44C29FA452A3BAE7B8C3"",""assignmentId"":""35674c9c-1a64-4182-b57a-1bf653ebd6da"",""projectId"":""a0a8f18c-a66e-4ba7-a170-23efbdc67501""}","https://test12345.live/?participantId=3C3B0DCC689A44C29FA452A3BAE7B8C3&assignmentId=35674c9c-1a64-4182-b57a-1bf653ebd6da&projectId=a0a8f18c-a66e-4ba7-a170-23efbdc67501","3C3B0DCC689A44C29FA452A3BAE7B8C3-2024-11-24-18-31-39","","null","","[]","null","",""
"","","","","","image-button-response","139","509063","0.0-16.0-1.0-0.6","3C3B0DCC689A44C29FA452A3BAE7B8C3","3C3B0DCC689A44C29FA452A3BAE7B8C3","35674c9c-1a64-4182-b57a-1bf653ebd6da","a0a8f18c-a66e-4ba7-a170-23efbdc67501","{""participantId"":""3C3B0DCC689A44C29FA452A3BAE7B8C3"",""assignmentId"":""35674c9c-1a64-4182-b57a-1bf653ebd6da"",""projectId"":""a0a8f18c-a66e-4ba7-a170-23efbdc67501""}","https://test12345.live/?participantId=3C3B0DCC689A44C29FA452A3BAE7B8C3&assignmentId=35674c9c-1a64-4182-b57a-1bf653ebd6da&projectId=a0a8f18c-a66e-4ba7-a170-23efbdc67501","3C3B0DCC689A44C29FA452A3BAE7B8C3-2024-11-24-18-31-39","","null","","images/causal_sequence/saving_a_cat_causal/saving_a_cat_causal_7.png","null","",""
"","","","","","image-button-response","140","510584","0.0-16.0-1.0-1.6","3C3B0DCC689A44C29FA452A3BAE7B8C3","3C3B0DCC689A44C29FA452A3BAE7B8C3","35674c9c-1a64-4182-b57a-1bf653ebd6da","a0a8f18c-a66e-4ba7-a170-23efbdc67501","{""participantId"":""3C3B0DCC689A44C29FA452A3BAE7B8C3"",""assignmentId"":""35674c9c-1a64-4182-b57a-1bf653ebd6da"",""projectId"":""a0a8f18c-a66e-4ba7-a170-23efbdc67501""}","https://test12345.live/?participantId=3C3B0DCC689A44C29FA452A3BAE7B8C3&assignmentId=35674c9c-1a64-4182-b57a-1bf653ebd6da&projectId=a0a8f18c-a66e-4ba7-a170-23efbdc67501","3C3B0DCC689A44C29FA452A3BAE7B8C3-2024-11-24-18-31-39","","1521","","images/causal_sequence/saving_a_cat_causal/saving_a_cat_causal_7.png","0","",""
"","","","","","image-button-response","141","512388","0.0-16.0-1.0-2.6","3C3B0DCC689A44C29FA452A3BAE7B8C3","3C3B0DCC689A44C29FA452A3BAE7B8C3","35674c9c-1a64-4182-b57a-1bf653ebd6da","a0a8f18c-a66e-4ba7-a170-23efbdc67501","{""participantId"":""3C3B0DCC689A44C29FA452A3BAE7B8C3"",""assignmentId"":""35674c9c-1a64-4182-b57a-1bf653ebd6da"",""projectId"":""a0a8f18c-a66e-4ba7-a170-23efbdc67501""}","https://test12345.live/?participantId=3C3B0DCC689A44C29FA452A3BAE7B8C3&assignmentId=35674c9c-1a64-4182-b57a-1bf653ebd6da&projectId=a0a8f18c-a66e-4ba7-a170-23efbdc67501","3C3B0DCC689A44C29FA452A3BAE7B8C3-2024-11-24-18-31-39","","null","","[]","null","",""
"","","","","","image-button-response","142","516903","0.0-16.0-1.0-0.7","3C3B0DCC689A44C29FA452A3BAE7B8C3","3C3B0DCC689A44C29FA452A3BAE7B8C3","35674c9c-1a64-4182-b57a-1bf653ebd6da","a0a8f18c-a66e-4ba7-a170-23efbdc67501","{""participantId"":""3C3B0DCC689A44C29FA452A3BAE7B8C3"",""assignmentId"":""35674c9c-1a64-4182-b57a-1bf653ebd6da"",""projectId"":""a0a8f18c-a66e-4ba7-a170-23efbdc67501""}","https://test12345.live/?participantId=3C3B0DCC689A44C29FA452A3BAE7B8C3&assignmentId=35674c9c-1a64-4182-b57a-1bf653ebd6da&projectId=a0a8f18c-a66e-4ba7-a170-23efbdc67501","3C3B0DCC689A44C29FA452A3BAE7B8C3-2024-11-24-18-31-39","","null","","images/causal_sequence/saving_a_cat_causal/saving_a_cat_causal_8.png","null","",""
"","","","","","image-button-response","143","517663","0.0-16.0-1.0-1.7","3C3B0DCC689A44C29FA452A3BAE7B8C3","3C3B0DCC689A44C29FA452A3BAE7B8C3","35674c9c-1a64-4182-b57a-1bf653ebd6da","a0a8f18c-a66e-4ba7-a170-23efbdc67501","{""participantId"":""3C3B0DCC689A44C29FA452A3BAE7B8C3"",""assignmentId"":""35674c9c-1a64-4182-b57a-1bf653ebd6da"",""projectId"":""a0a8f18c-a66e-4ba7-a170-23efbdc67501""}","https://test12345.live/?participantId=3C3B0DCC689A44C29FA452A3BAE7B8C3&assignmentId=35674c9c-1a64-4182-b57a-1bf653ebd6da&projectId=a0a8f18c-a66e-4ba7-a170-23efbdc67501","3C3B0DCC689A44C29FA452A3BAE7B8C3-2024-11-24-18-31-39","","759","","images/causal_sequence/saving_a_cat_causal/saving_a_cat_causal_8.png","0","",""
