"success","timeout","failed_images","failed_audio","failed_video","trial_type","trial_index","time_elapsed","internal_node_id","subject","subject_id","study_id","session_id","urlvar","current_url","audio_id","view_history","rt","device_id","stimulus","response","estimated_stimulus_onset","seq_name"
"true","false","[]","[]","[]","preload","0","3911","0.0-0.0","5AD3AFFE36B745C49727022D0FA08094","5AD3AFFE36B745C49727022D0FA08094","97e94290-be3b-4e10-aa59-d4fd16975b19","a0a8f18c-a66e-4ba7-a170-23efbdc67501","{""participantId"":""5AD3AFFE36B745C49727022D0FA08094"",""assignmentId"":""97e94290-be3b-4e10-aa59-d4fd16975b19"",""projectId"":""a0a8f18c-a66e-4ba7-a170-23efbdc67501""}","https://test12345.live/?participantId=5AD3AFFE36B745C49727022D0FA08094&assignmentId=97e94290-be3b-4e10-aa59-d4fd16975b19&projectId=a0a8f18c-a66e-4ba7-a170-23efbdc67501","5AD3AFFE36B745C49727022D0FA08094-2024-11-24-19-50-33","","","","","","",""
"","","","","","instructions","1","164429","0.0-1.0","5AD3AFFE36B745C49727022D0FA08094","5AD3AFFE36B745C49727022D0FA08094","97e94290-be3b-4e10-aa59-d4fd16975b19","a0a8f18c-a66e-4ba7-a170-23efbdc67501","{""participantId"":""5AD3AFFE36B745C49727022D0FA08094"",""assignmentId"":""97e94290-be3b-4e10-aa59-d4fd16975b19"",""projectId"":""a0a8f18c-a66e-4ba7-a170-23efbdc67501""}","https://test12345.live/?participantId=5AD3AFFE36B745C49727022D0FA08094&assignmentId=97e94290-be3b-4e10-aa59-d4fd16975b19&projectId=a0a8f18c-a66e-4ba7-a170-23efbdc67501","5AD3AFFE36B745C49727022D0FA08094-2024-11-24-19-50-33","[{""page_index"":0,""viewing_time"":160483}]","160483","","","","",""
"","","","","","instructions","2","177886","0.0-2.0","5AD3AFFE36B745C49727022D0FA08094","5AD3AFFE36B745C49727022D0FA08094","97e94290-be3b-4e10-aa59-d4fd16975b19","a0a8f18c-a66e-4ba7-a170-23efbdc67501","{""participantId"":""5AD3AFFE36B745C49727022D0FA08094"",""assignmentId"":""97e94290-be3b-4e10-aa59-d4fd16975b19"",""projectId"":""a0a8f18c-a66e-4ba7-a170-23efbdc67501""}","https://test12345.live/?participantId=5AD3AFFE36B745C49727022D0FA08094&assignmentId=97e94290-be3b-4e10-aa59-d4fd16975b19&projectId=a0a8f18c-a66e-4ba7-a170-23efbdc67501","5AD3AFFE36B745C49727022D0FA08094-2024-11-24-19-50-33","[{""page_index"":0,""viewing_time"":13456}]","13456","","","","",""
"true","","","","","fullscreen","3","181469","0.0-3.0","5AD3AFFE36B745C49727022D0FA08094","5AD3AFFE36B745C49727022D0FA08094","97e94290-be3b-4e10-aa59-d4fd16975b19","a0a8f18c-a66e-4ba7-a170-23efbdc67501","{""participantId"":""5AD3AFFE36B745C49727022D0FA08094"",""assignmentId"":""97e94290-be3b-4e10-aa59-d4fd16975b19"",""projectId"":""a0a8f18c-a66e-4ba7-a170-23efbdc67501""}","https://test12345.live/?participantId=5AD3AFFE36B745C49727022D0FA08094&assignmentId=97e94290-be3b-4e10-aa59-d4fd16975b19&projectId=a0a8f18c-a66e-4ba7-a170-23efbdc67501","5AD3AFFE36B745C49727022D0FA08094-2024-11-24-19-50-33","","2577","","","","",""
"","","","","","initialize-microphone","4","189253","0.0-4.0-0.0","5AD3AFFE36B745C49727022D0FA08094","5AD3AFFE36B745C49727022D0FA08094","97e94290-be3b-4e10-aa59-d4fd16975b19","a0a8f18c-a66e-4ba7-a170-23efbdc67501","{""participantId"":""5AD3AFFE36B745C49727022D0FA08094"",""assignmentId"":""97e94290-be3b-4e10-aa59-d4fd16975b19"",""projectId"":""a0a8f18c-a66e-4ba7-a170-23efbdc67501""}","https://test12345.live/?participantId=5AD3AFFE36B745C49727022D0FA08094&assignmentId=97e94290-be3b-4e10-aa59-d4fd16975b19&projectId=a0a8f18c-a66e-4ba7-a170-23efbdc67501","5AD3AFFE36B745C49727022D0FA08094-2024-11-24-19-50-33","","","3431b898126a83cb4bbbcf799de97498f2f626073ca478cfcc49fa49d9c7fa69","","","",""
"","","","","","html-audio-response","5","209644","0.0-4.0-1.0","5AD3AFFE36B745C49727022D0FA08094","5AD3AFFE36B745C49727022D0FA08094","97e94290-be3b-4e10-aa59-d4fd16975b19","a0a8f18c-a66e-4ba7-a170-23efbdc67501","{""participantId"":""5AD3AFFE36B745C49727022D0FA08094"",""assignmentId"":""97e94290-be3b-4e10-aa59-d4fd16975b19"",""projectId"":""a0a8f18c-a66e-4ba7-a170-23efbdc67501""}","https://test12345.live/?participantId=5AD3AFFE36B745C49727022D0FA08094&assignmentId=97e94290-be3b-4e10-aa59-d4fd16975b19&projectId=a0a8f18c-a66e-4ba7-a170-23efbdc67501","5AD3AFFE36B745C49727022D0FA08094-2024-11-24-19-50-33","","8482","","<span style=""color: red; font-size: 24px""> NOW RECORDING</span>
        <p>Please test Microphone</p>","","4",""
"","","","","","html-button-response","6","211110","0.0-4.0-2.0","5AD3AFFE36B745C49727022D0FA08094","5AD3AFFE36B745C49727022D0FA08094","97e94290-be3b-4e10-aa59-d4fd16975b19","a0a8f18c-a66e-4ba7-a170-23efbdc67501","{""participantId"":""5AD3AFFE36B745C49727022D0FA08094"",""assignmentId"":""97e94290-be3b-4e10-aa59-d4fd16975b19"",""projectId"":""a0a8f18c-a66e-4ba7-a170-23efbdc67501""}","https://test12345.live/?participantId=5AD3AFFE36B745C49727022D0FA08094&assignmentId=97e94290-be3b-4e10-aa59-d4fd16975b19&projectId=a0a8f18c-a66e-4ba7-a170-23efbdc67501","5AD3AFFE36B745C49727022D0FA08094-2024-11-24-19-50-33","","1465","","<p style=""font-size:48px; color:red;"">Is Microphone OK?</p>","1","",""
"","","","","","instructions","7","224988","0.0-5.0","5AD3AFFE36B745C49727022D0FA08094","5AD3AFFE36B745C49727022D0FA08094","97e94290-be3b-4e10-aa59-d4fd16975b19","a0a8f18c-a66e-4ba7-a170-23efbdc67501","{""participantId"":""5AD3AFFE36B745C49727022D0FA08094"",""assignmentId"":""97e94290-be3b-4e10-aa59-d4fd16975b19"",""projectId"":""a0a8f18c-a66e-4ba7-a170-23efbdc67501""}","https://test12345.live/?participantId=5AD3AFFE36B745C49727022D0FA08094&assignmentId=97e94290-be3b-4e10-aa59-d4fd16975b19&projectId=a0a8f18c-a66e-4ba7-a170-23efbdc67501","5AD3AFFE36B745C49727022D0FA08094-2024-11-24-19-50-33","[{""page_index"":0,""viewing_time"":6448},{""page_index"":1,""viewing_time"":7430}]","13878","","","","",""
"","","","","","image-button-response","8","230994","0.0-6.0-0.0","5AD3AFFE36B745C49727022D0FA08094","5AD3AFFE36B745C49727022D0FA08094","97e94290-be3b-4e10-aa59-d4fd16975b19","a0a8f18c-a66e-4ba7-a170-23efbdc67501","{""participantId"":""5AD3AFFE36B745C49727022D0FA08094"",""assignmentId"":""97e94290-be3b-4e10-aa59-d4fd16975b19"",""projectId"":""a0a8f18c-a66e-4ba7-a170-23efbdc67501""}","https://test12345.live/?participantId=5AD3AFFE36B745C49727022D0FA08094&assignmentId=97e94290-be3b-4e10-aa59-d4fd16975b19&projectId=a0a8f18c-a66e-4ba7-a170-23efbdc67501","5AD3AFFE36B745C49727022D0FA08094-2024-11-24-19-50-33","","null","","images/instructions/movie_0.png","null","",""
"","","","","","image-button-response","9","235495","0.0-6.0-1.0-0.0","5AD3AFFE36B745C49727022D0FA08094","5AD3AFFE36B745C49727022D0FA08094","97e94290-be3b-4e10-aa59-d4fd16975b19","a0a8f18c-a66e-4ba7-a170-23efbdc67501","{""participantId"":""5AD3AFFE36B745C49727022D0FA08094"",""assignmentId"":""97e94290-be3b-4e10-aa59-d4fd16975b19"",""projectId"":""a0a8f18c-a66e-4ba7-a170-23efbdc67501""}","https://test12345.live/?participantId=5AD3AFFE36B745C49727022D0FA08094&assignmentId=97e94290-be3b-4e10-aa59-d4fd16975b19&projectId=a0a8f18c-a66e-4ba7-a170-23efbdc67501","5AD3AFFE36B745C49727022D0FA08094-2024-11-24-19-50-33","","null","","images/instructions/movie_1.png","null","",""
"","","","","","image-button-response","10","239497","0.0-6.0-1.0-1.0","5AD3AFFE36B745C49727022D0FA08094","5AD3AFFE36B745C49727022D0FA08094","97e94290-be3b-4e10-aa59-d4fd16975b19","a0a8f18c-a66e-4ba7-a170-23efbdc67501","{""participantId"":""5AD3AFFE36B745C49727022D0FA08094"",""assignmentId"":""97e94290-be3b-4e10-aa59-d4fd16975b19"",""projectId"":""a0a8f18c-a66e-4ba7-a170-23efbdc67501""}","https://test12345.live/?participantId=5AD3AFFE36B745C49727022D0FA08094&assignmentId=97e94290-be3b-4e10-aa59-d4fd16975b19&projectId=a0a8f18c-a66e-4ba7-a170-23efbdc67501","5AD3AFFE36B745C49727022D0FA08094-2024-11-24-19-50-33","","null","","images/instructions/movie_1.png","null","",""
"","","","","","image-button-response","11","241310","0.0-6.0-1.0-2.0","5AD3AFFE36B745C49727022D0FA08094","5AD3AFFE36B745C49727022D0FA08094","97e94290-be3b-4e10-aa59-d4fd16975b19","a0a8f18c-a66e-4ba7-a170-23efbdc67501","{""participantId"":""5AD3AFFE36B745C49727022D0FA08094"",""assignmentId"":""97e94290-be3b-4e10-aa59-d4fd16975b19"",""projectId"":""a0a8f18c-a66e-4ba7-a170-23efbdc67501""}","https://test12345.live/?participantId=5AD3AFFE36B745C49727022D0FA08094&assignmentId=97e94290-be3b-4e10-aa59-d4fd16975b19&projectId=a0a8f18c-a66e-4ba7-a170-23efbdc67501","5AD3AFFE36B745C49727022D0FA08094-2024-11-24-19-50-33","","null","","[]","null","",""
"","","","","","image-button-response","12","245812","0.0-6.0-1.0-0.1","5AD3AFFE36B745C49727022D0FA08094","5AD3AFFE36B745C49727022D0FA08094","97e94290-be3b-4e10-aa59-d4fd16975b19","a0a8f18c-a66e-4ba7-a170-23efbdc67501","{""participantId"":""5AD3AFFE36B745C49727022D0FA08094"",""assignmentId"":""97e94290-be3b-4e10-aa59-d4fd16975b19"",""projectId"":""a0a8f18c-a66e-4ba7-a170-23efbdc67501""}","https://test12345.live/?participantId=5AD3AFFE36B745C49727022D0FA08094&assignmentId=97e94290-be3b-4e10-aa59-d4fd16975b19&projectId=a0a8f18c-a66e-4ba7-a170-23efbdc67501","5AD3AFFE36B745C49727022D0FA08094-2024-11-24-19-50-33","","null","","images/instructions/movie_2.png","null","",""
"","","","","","image-button-response","13","248221","0.0-6.0-1.0-1.1","5AD3AFFE36B745C49727022D0FA08094","5AD3AFFE36B745C49727022D0FA08094","97e94290-be3b-4e10-aa59-d4fd16975b19","a0a8f18c-a66e-4ba7-a170-23efbdc67501","{""participantId"":""5AD3AFFE36B745C49727022D0FA08094"",""assignmentId"":""97e94290-be3b-4e10-aa59-d4fd16975b19"",""projectId"":""a0a8f18c-a66e-4ba7-a170-23efbdc67501""}","https://test12345.live/?participantId=5AD3AFFE36B745C49727022D0FA08094&assignmentId=97e94290-be3b-4e10-aa59-d4fd16975b19&projectId=a0a8f18c-a66e-4ba7-a170-23efbdc67501","5AD3AFFE36B745C49727022D0FA08094-2024-11-24-19-50-33","","2408","","images/instructions/movie_2.png","1","",""
"","","","","","image-button-response","14","250023","0.0-6.0-1.0-2.1","5AD3AFFE36B745C49727022D0FA08094","5AD3AFFE36B745C49727022D0FA08094","97e94290-be3b-4e10-aa59-d4fd16975b19","a0a8f18c-a66e-4ba7-a170-23efbdc67501","{""participantId"":""5AD3AFFE36B745C49727022D0FA08094"",""assignmentId"":""97e94290-be3b-4e10-aa59-d4fd16975b19"",""projectId"":""a0a8f18c-a66e-4ba7-a170-23efbdc67501""}","https://test12345.live/?participantId=5AD3AFFE36B745C49727022D0FA08094&assignmentId=97e94290-be3b-4e10-aa59-d4fd16975b19&projectId=a0a8f18c-a66e-4ba7-a170-23efbdc67501","5AD3AFFE36B745C49727022D0FA08094-2024-11-24-19-50-33","","null","","[]","null","",""
"","","","","","image-button-response","15","254525","0.0-6.0-1.0-0.2","5AD3AFFE36B745C49727022D0FA08094","5AD3AFFE36B745C49727022D0FA08094","97e94290-be3b-4e10-aa59-d4fd16975b19","a0a8f18c-a66e-4ba7-a170-23efbdc67501","{""participantId"":""5AD3AFFE36B745C49727022D0FA08094"",""assignmentId"":""97e94290-be3b-4e10-aa59-d4fd16975b19"",""projectId"":""a0a8f18c-a66e-4ba7-a170-23efbdc67501""}","https://test12345.live/?participantId=5AD3AFFE36B745C49727022D0FA08094&assignmentId=97e94290-be3b-4e10-aa59-d4fd16975b19&projectId=a0a8f18c-a66e-4ba7-a170-23efbdc67501","5AD3AFFE36B745C49727022D0FA08094-2024-11-24-19-50-33","","null","","images/instructions/movie_3.png","null","",""
"","","","","","image-button-response","16","255814","0.0-6.0-1.0-1.2","5AD3AFFE36B745C49727022D0FA08094","5AD3AFFE36B745C49727022D0FA08094","97e94290-be3b-4e10-aa59-d4fd16975b19","a0a8f18c-a66e-4ba7-a170-23efbdc67501","{""participantId"":""5AD3AFFE36B745C49727022D0FA08094"",""assignmentId"":""97e94290-be3b-4e10-aa59-d4fd16975b19"",""projectId"":""a0a8f18c-a66e-4ba7-a170-23efbdc67501""}","https://test12345.live/?participantId=5AD3AFFE36B745C49727022D0FA08094&assignmentId=97e94290-be3b-4e10-aa59-d4fd16975b19&projectId=a0a8f18c-a66e-4ba7-a170-23efbdc67501","5AD3AFFE36B745C49727022D0FA08094-2024-11-24-19-50-33","","1288","","images/instructions/movie_3.png","0","",""
"","","","","","image-button-response","17","257616","0.0-6.0-1.0-2.2","5AD3AFFE36B745C49727022D0FA08094","5AD3AFFE36B745C49727022D0FA08094","97e94290-be3b-4e10-aa59-d4fd16975b19","a0a8f18c-a66e-4ba7-a170-23efbdc67501","{""participantId"":""5AD3AFFE36B745C49727022D0FA08094"",""assignmentId"":""97e94290-be3b-4e10-aa59-d4fd16975b19"",""projectId"":""a0a8f18c-a66e-4ba7-a170-23efbdc67501""}","https://test12345.live/?participantId=5AD3AFFE36B745C49727022D0FA08094&assignmentId=97e94290-be3b-4e10-aa59-d4fd16975b19&projectId=a0a8f18c-a66e-4ba7-a170-23efbdc67501","5AD3AFFE36B745C49727022D0FA08094-2024-11-24-19-50-33","","null","","[]","null","",""
"","","","","","image-button-response","18","262117","0.0-6.0-1.0-0.3","5AD3AFFE36B745C49727022D0FA08094","5AD3AFFE36B745C49727022D0FA08094","97e94290-be3b-4e10-aa59-d4fd16975b19","a0a8f18c-a66e-4ba7-a170-23efbdc67501","{""participantId"":""5AD3AFFE36B745C49727022D0FA08094"",""assignmentId"":""97e94290-be3b-4e10-aa59-d4fd16975b19"",""projectId"":""a0a8f18c-a66e-4ba7-a170-23efbdc67501""}","https://test12345.live/?participantId=5AD3AFFE36B745C49727022D0FA08094&assignmentId=97e94290-be3b-4e10-aa59-d4fd16975b19&projectId=a0a8f18c-a66e-4ba7-a170-23efbdc67501","5AD3AFFE36B745C49727022D0FA08094-2024-11-24-19-50-33","","null","","images/instructions/movie_4.png","null","",""
"","","","","","image-button-response","19","263626","0.0-6.0-1.0-1.3","5AD3AFFE36B745C49727022D0FA08094","5AD3AFFE36B745C49727022D0FA08094","97e94290-be3b-4e10-aa59-d4fd16975b19","a0a8f18c-a66e-4ba7-a170-23efbdc67501","{""participantId"":""5AD3AFFE36B745C49727022D0FA08094"",""assignmentId"":""97e94290-be3b-4e10-aa59-d4fd16975b19"",""projectId"":""a0a8f18c-a66e-4ba7-a170-23efbdc67501""}","https://test12345.live/?participantId=5AD3AFFE36B745C49727022D0FA08094&assignmentId=97e94290-be3b-4e10-aa59-d4fd16975b19&projectId=a0a8f18c-a66e-4ba7-a170-23efbdc67501","5AD3AFFE36B745C49727022D0FA08094-2024-11-24-19-50-33","","1508","","images/instructions/movie_4.png","0","",""
"","","","","","image-button-response","20","265428","0.0-6.0-1.0-2.3","5AD3AFFE36B745C49727022D0FA08094","5AD3AFFE36B745C49727022D0FA08094","97e94290-be3b-4e10-aa59-d4fd16975b19","a0a8f18c-a66e-4ba7-a170-23efbdc67501","{""participantId"":""5AD3AFFE36B745C49727022D0FA08094"",""assignmentId"":""97e94290-be3b-4e10-aa59-d4fd16975b19"",""projectId"":""a0a8f18c-a66e-4ba7-a170-23efbdc67501""}","https://test12345.live/?participantId=5AD3AFFE36B745C49727022D0FA08094&assignmentId=97e94290-be3b-4e10-aa59-d4fd16975b19&projectId=a0a8f18c-a66e-4ba7-a170-23efbdc67501","5AD3AFFE36B745C49727022D0FA08094-2024-11-24-19-50-33","","null","","[]","null","",""
"","","","","","instructions","21","280019","0.0-7.0","5AD3AFFE36B745C49727022D0FA08094","5AD3AFFE36B745C49727022D0FA08094","97e94290-be3b-4e10-aa59-d4fd16975b19","a0a8f18c-a66e-4ba7-a170-23efbdc67501","{""participantId"":""5AD3AFFE36B745C49727022D0FA08094"",""assignmentId"":""97e94290-be3b-4e10-aa59-d4fd16975b19"",""projectId"":""a0a8f18c-a66e-4ba7-a170-23efbdc67501""}","https://test12345.live/?participantId=5AD3AFFE36B745C49727022D0FA08094&assignmentId=97e94290-be3b-4e10-aa59-d4fd16975b19&projectId=a0a8f18c-a66e-4ba7-a170-23efbdc67501","5AD3AFFE36B745C49727022D0FA08094-2024-11-24-19-50-33","[{""page_index"":0,""viewing_time"":12135},{""page_index"":1,""viewing_time"":2455}]","14591","","","","",""
"","","","","","html-audio-response","22","415441","0.0-8.0","5AD3AFFE36B745C49727022D0FA08094","5AD3AFFE36B745C49727022D0FA08094","97e94290-be3b-4e10-aa59-d4fd16975b19","a0a8f18c-a66e-4ba7-a170-23efbdc67501","{""participantId"":""5AD3AFFE36B745C49727022D0FA08094"",""assignmentId"":""97e94290-be3b-4e10-aa59-d4fd16975b19"",""projectId"":""a0a8f18c-a66e-4ba7-a170-23efbdc67501""}","https://test12345.live/?participantId=5AD3AFFE36B745C49727022D0FA08094&assignmentId=97e94290-be3b-4e10-aa59-d4fd16975b19&projectId=a0a8f18c-a66e-4ba7-a170-23efbdc67501","5AD3AFFE36B745C49727022D0FA08094-2024-11-24-19-50-33","","38393","","[""<span style=\""color: red; font-size: 24px\""> NOW RECORDING</span><p>Please say out loud all the images you saw, as many as you can remember. The images can be said in any order.</p>""]","","1",""
"","","","","","instructions","23","434429","0.0-9.0","5AD3AFFE36B745C49727022D0FA08094","5AD3AFFE36B745C49727022D0FA08094","97e94290-be3b-4e10-aa59-d4fd16975b19","a0a8f18c-a66e-4ba7-a170-23efbdc67501","{""participantId"":""5AD3AFFE36B745C49727022D0FA08094"",""assignmentId"":""97e94290-be3b-4e10-aa59-d4fd16975b19"",""projectId"":""a0a8f18c-a66e-4ba7-a170-23efbdc67501""}","https://test12345.live/?participantId=5AD3AFFE36B745C49727022D0FA08094&assignmentId=97e94290-be3b-4e10-aa59-d4fd16975b19&projectId=a0a8f18c-a66e-4ba7-a170-23efbdc67501","5AD3AFFE36B745C49727022D0FA08094-2024-11-24-19-50-33","[{""page_index"":0,""viewing_time"":18983}]","18983","","","","",""
"","","","","","image-button-response","24","440430","0.0-10.0-0.0","5AD3AFFE36B745C49727022D0FA08094","5AD3AFFE36B745C49727022D0FA08094","97e94290-be3b-4e10-aa59-d4fd16975b19","a0a8f18c-a66e-4ba7-a170-23efbdc67501","{""participantId"":""5AD3AFFE36B745C49727022D0FA08094"",""assignmentId"":""97e94290-be3b-4e10-aa59-d4fd16975b19"",""projectId"":""a0a8f18c-a66e-4ba7-a170-23efbdc67501""}","https://test12345.live/?participantId=5AD3AFFE36B745C49727022D0FA08094&assignmentId=97e94290-be3b-4e10-aa59-d4fd16975b19&projectId=a0a8f18c-a66e-4ba7-a170-23efbdc67501","5AD3AFFE36B745C49727022D0FA08094-2024-11-24-19-50-33","","null","","images/causal_sequence/museum_causal/museum_causal_0.png","null","",""
"","","","","","image-button-response","25","444932","0.0-10.0-1.0-0.0","5AD3AFFE36B745C49727022D0FA08094","5AD3AFFE36B745C49727022D0FA08094","97e94290-be3b-4e10-aa59-d4fd16975b19","a0a8f18c-a66e-4ba7-a170-23efbdc67501","{""participantId"":""5AD3AFFE36B745C49727022D0FA08094"",""assignmentId"":""97e94290-be3b-4e10-aa59-d4fd16975b19"",""projectId"":""a0a8f18c-a66e-4ba7-a170-23efbdc67501""}","https://test12345.live/?participantId=5AD3AFFE36B745C49727022D0FA08094&assignmentId=97e94290-be3b-4e10-aa59-d4fd16975b19&projectId=a0a8f18c-a66e-4ba7-a170-23efbdc67501","5AD3AFFE36B745C49727022D0FA08094-2024-11-24-19-50-33","","null","","images/causal_sequence/museum_causal/museum_causal_9.png","null","",""
"","","","","","image-button-response","26","448076","0.0-10.0-1.0-1.0","5AD3AFFE36B745C49727022D0FA08094","5AD3AFFE36B745C49727022D0FA08094","97e94290-be3b-4e10-aa59-d4fd16975b19","a0a8f18c-a66e-4ba7-a170-23efbdc67501","{""participantId"":""5AD3AFFE36B745C49727022D0FA08094"",""assignmentId"":""97e94290-be3b-4e10-aa59-d4fd16975b19"",""projectId"":""a0a8f18c-a66e-4ba7-a170-23efbdc67501""}","https://test12345.live/?participantId=5AD3AFFE36B745C49727022D0FA08094&assignmentId=97e94290-be3b-4e10-aa59-d4fd16975b19&projectId=a0a8f18c-a66e-4ba7-a170-23efbdc67501","5AD3AFFE36B745C49727022D0FA08094-2024-11-24-19-50-33","","3144","","images/causal_sequence/museum_causal/museum_causal_9.png","1","",""
"","","","","","image-button-response","27","449877","0.0-10.0-1.0-2.0","5AD3AFFE36B745C49727022D0FA08094","5AD3AFFE36B745C49727022D0FA08094","97e94290-be3b-4e10-aa59-d4fd16975b19","a0a8f18c-a66e-4ba7-a170-23efbdc67501","{""participantId"":""5AD3AFFE36B745C49727022D0FA08094"",""assignmentId"":""97e94290-be3b-4e10-aa59-d4fd16975b19"",""projectId"":""a0a8f18c-a66e-4ba7-a170-23efbdc67501""}","https://test12345.live/?participantId=5AD3AFFE36B745C49727022D0FA08094&assignmentId=97e94290-be3b-4e10-aa59-d4fd16975b19&projectId=a0a8f18c-a66e-4ba7-a170-23efbdc67501","5AD3AFFE36B745C49727022D0FA08094-2024-11-24-19-50-33","","null","","[]","null","",""
"","","","","","image-button-response","28","454379","0.0-10.0-1.0-0.1","5AD3AFFE36B745C49727022D0FA08094","5AD3AFFE36B745C49727022D0FA08094","97e94290-be3b-4e10-aa59-d4fd16975b19","a0a8f18c-a66e-4ba7-a170-23efbdc67501","{""participantId"":""5AD3AFFE36B745C49727022D0FA08094"",""assignmentId"":""97e94290-be3b-4e10-aa59-d4fd16975b19"",""projectId"":""a0a8f18c-a66e-4ba7-a170-23efbdc67501""}","https://test12345.live/?participantId=5AD3AFFE36B745C49727022D0FA08094&assignmentId=97e94290-be3b-4e10-aa59-d4fd16975b19&projectId=a0a8f18c-a66e-4ba7-a170-23efbdc67501","5AD3AFFE36B745C49727022D0FA08094-2024-11-24-19-50-33","","null","","images/causal_sequence/museum_causal/museum_causal_1.png","null","",""
"","","","","","image-button-response","29","456180","0.0-10.0-1.0-1.1","5AD3AFFE36B745C49727022D0FA08094","5AD3AFFE36B745C49727022D0FA08094","97e94290-be3b-4e10-aa59-d4fd16975b19","a0a8f18c-a66e-4ba7-a170-23efbdc67501","{""participantId"":""5AD3AFFE36B745C49727022D0FA08094"",""assignmentId"":""97e94290-be3b-4e10-aa59-d4fd16975b19"",""projectId"":""a0a8f18c-a66e-4ba7-a170-23efbdc67501""}","https://test12345.live/?participantId=5AD3AFFE36B745C49727022D0FA08094&assignmentId=97e94290-be3b-4e10-aa59-d4fd16975b19&projectId=a0a8f18c-a66e-4ba7-a170-23efbdc67501","5AD3AFFE36B745C49727022D0FA08094-2024-11-24-19-50-33","","1800","","images/causal_sequence/museum_causal/museum_causal_1.png","0","",""
"","","","","","image-button-response","30","457982","0.0-10.0-1.0-2.1","5AD3AFFE36B745C49727022D0FA08094","5AD3AFFE36B745C49727022D0FA08094","97e94290-be3b-4e10-aa59-d4fd16975b19","a0a8f18c-a66e-4ba7-a170-23efbdc67501","{""participantId"":""5AD3AFFE36B745C49727022D0FA08094"",""assignmentId"":""97e94290-be3b-4e10-aa59-d4fd16975b19"",""projectId"":""a0a8f18c-a66e-4ba7-a170-23efbdc67501""}","https://test12345.live/?participantId=5AD3AFFE36B745C49727022D0FA08094&assignmentId=97e94290-be3b-4e10-aa59-d4fd16975b19&projectId=a0a8f18c-a66e-4ba7-a170-23efbdc67501","5AD3AFFE36B745C49727022D0FA08094-2024-11-24-19-50-33","","null","","[]","null","",""
"","","","","","image-button-response","31","462484","0.0-10.0-1.0-0.2","5AD3AFFE36B745C49727022D0FA08094","5AD3AFFE36B745C49727022D0FA08094","97e94290-be3b-4e10-aa59-d4fd16975b19","a0a8f18c-a66e-4ba7-a170-23efbdc67501","{""participantId"":""5AD3AFFE36B745C49727022D0FA08094"",""assignmentId"":""97e94290-be3b-4e10-aa59-d4fd16975b19"",""projectId"":""a0a8f18c-a66e-4ba7-a170-23efbdc67501""}","https://test12345.live/?participantId=5AD3AFFE36B745C49727022D0FA08094&assignmentId=97e94290-be3b-4e10-aa59-d4fd16975b19&projectId=a0a8f18c-a66e-4ba7-a170-23efbdc67501","5AD3AFFE36B745C49727022D0FA08094-2024-11-24-19-50-33","","null","","images/causal_sequence/museum_causal/museum_causal_2.png","null","",""
"","","","","","image-button-response","32","463715","0.0-10.0-1.0-1.2","5AD3AFFE36B745C49727022D0FA08094","5AD3AFFE36B745C49727022D0FA08094","97e94290-be3b-4e10-aa59-d4fd16975b19","a0a8f18c-a66e-4ba7-a170-23efbdc67501","{""participantId"":""5AD3AFFE36B745C49727022D0FA08094"",""assignmentId"":""97e94290-be3b-4e10-aa59-d4fd16975b19"",""projectId"":""a0a8f18c-a66e-4ba7-a170-23efbdc67501""}","https://test12345.live/?participantId=5AD3AFFE36B745C49727022D0FA08094&assignmentId=97e94290-be3b-4e10-aa59-d4fd16975b19&projectId=a0a8f18c-a66e-4ba7-a170-23efbdc67501","5AD3AFFE36B745C49727022D0FA08094-2024-11-24-19-50-33","","1230","","images/causal_sequence/museum_causal/museum_causal_2.png","1","",""
"","","","","","image-button-response","33","465517","0.0-10.0-1.0-2.2","5AD3AFFE36B745C49727022D0FA08094","5AD3AFFE36B745C49727022D0FA08094","97e94290-be3b-4e10-aa59-d4fd16975b19","a0a8f18c-a66e-4ba7-a170-23efbdc67501","{""participantId"":""5AD3AFFE36B745C49727022D0FA08094"",""assignmentId"":""97e94290-be3b-4e10-aa59-d4fd16975b19"",""projectId"":""a0a8f18c-a66e-4ba7-a170-23efbdc67501""}","https://test12345.live/?participantId=5AD3AFFE36B745C49727022D0FA08094&assignmentId=97e94290-be3b-4e10-aa59-d4fd16975b19&projectId=a0a8f18c-a66e-4ba7-a170-23efbdc67501","5AD3AFFE36B745C49727022D0FA08094-2024-11-24-19-50-33","","null","","[]","null","",""
"","","","","","image-button-response","34","470019","0.0-10.0-1.0-0.3","5AD3AFFE36B745C49727022D0FA08094","5AD3AFFE36B745C49727022D0FA08094","97e94290-be3b-4e10-aa59-d4fd16975b19","a0a8f18c-a66e-4ba7-a170-23efbdc67501","{""participantId"":""5AD3AFFE36B745C49727022D0FA08094"",""assignmentId"":""97e94290-be3b-4e10-aa59-d4fd16975b19"",""projectId"":""a0a8f18c-a66e-4ba7-a170-23efbdc67501""}","https://test12345.live/?participantId=5AD3AFFE36B745C49727022D0FA08094&assignmentId=97e94290-be3b-4e10-aa59-d4fd16975b19&projectId=a0a8f18c-a66e-4ba7-a170-23efbdc67501","5AD3AFFE36B745C49727022D0FA08094-2024-11-24-19-50-33","","null","","images/causal_sequence/museum_causal/museum_causal_7.png","null","",""
"","","","","","image-button-response","35","471704","0.0-10.0-1.0-1.3","5AD3AFFE36B745C49727022D0FA08094","5AD3AFFE36B745C49727022D0FA08094","97e94290-be3b-4e10-aa59-d4fd16975b19","a0a8f18c-a66e-4ba7-a170-23efbdc67501","{""participantId"":""5AD3AFFE36B745C49727022D0FA08094"",""assignmentId"":""97e94290-be3b-4e10-aa59-d4fd16975b19"",""projectId"":""a0a8f18c-a66e-4ba7-a170-23efbdc67501""}","https://test12345.live/?participantId=5AD3AFFE36B745C49727022D0FA08094&assignmentId=97e94290-be3b-4e10-aa59-d4fd16975b19&projectId=a0a8f18c-a66e-4ba7-a170-23efbdc67501","5AD3AFFE36B745C49727022D0FA08094-2024-11-24-19-50-33","","1683","","images/causal_sequence/museum_causal/museum_causal_7.png","1","",""
"","","","","","image-button-response","36","473506","0.0-10.0-1.0-2.3","5AD3AFFE36B745C49727022D0FA08094","5AD3AFFE36B745C49727022D0FA08094","97e94290-be3b-4e10-aa59-d4fd16975b19","a0a8f18c-a66e-4ba7-a170-23efbdc67501","{""participantId"":""5AD3AFFE36B745C49727022D0FA08094"",""assignmentId"":""97e94290-be3b-4e10-aa59-d4fd16975b19"",""projectId"":""a0a8f18c-a66e-4ba7-a170-23efbdc67501""}","https://test12345.live/?participantId=5AD3AFFE36B745C49727022D0FA08094&assignmentId=97e94290-be3b-4e10-aa59-d4fd16975b19&projectId=a0a8f18c-a66e-4ba7-a170-23efbdc67501","5AD3AFFE36B745C49727022D0FA08094-2024-11-24-19-50-33","","null","","[]","null","",""
"","","","","","image-button-response","37","478008","0.0-10.0-1.0-0.4","5AD3AFFE36B745C49727022D0FA08094","5AD3AFFE36B745C49727022D0FA08094","97e94290-be3b-4e10-aa59-d4fd16975b19","a0a8f18c-a66e-4ba7-a170-23efbdc67501","{""participantId"":""5AD3AFFE36B745C49727022D0FA08094"",""assignmentId"":""97e94290-be3b-4e10-aa59-d4fd16975b19"",""projectId"":""a0a8f18c-a66e-4ba7-a170-23efbdc67501""}","https://test12345.live/?participantId=5AD3AFFE36B745C49727022D0FA08094&assignmentId=97e94290-be3b-4e10-aa59-d4fd16975b19&projectId=a0a8f18c-a66e-4ba7-a170-23efbdc67501","5AD3AFFE36B745C49727022D0FA08094-2024-11-24-19-50-33","","null","","images/causal_sequence/museum_causal/museum_causal_8.png","null","",""
"","","","","","image-button-response","38","478976","0.0-10.0-1.0-1.4","5AD3AFFE36B745C49727022D0FA08094","5AD3AFFE36B745C49727022D0FA08094","97e94290-be3b-4e10-aa59-d4fd16975b19","a0a8f18c-a66e-4ba7-a170-23efbdc67501","{""participantId"":""5AD3AFFE36B745C49727022D0FA08094"",""assignmentId"":""97e94290-be3b-4e10-aa59-d4fd16975b19"",""projectId"":""a0a8f18c-a66e-4ba7-a170-23efbdc67501""}","https://test12345.live/?participantId=5AD3AFFE36B745C49727022D0FA08094&assignmentId=97e94290-be3b-4e10-aa59-d4fd16975b19&projectId=a0a8f18c-a66e-4ba7-a170-23efbdc67501","5AD3AFFE36B745C49727022D0FA08094-2024-11-24-19-50-33","","967","","images/causal_sequence/museum_causal/museum_causal_8.png","0","",""
"","","","","","image-button-response","39","480778","0.0-10.0-1.0-2.4","5AD3AFFE36B745C49727022D0FA08094","5AD3AFFE36B745C49727022D0FA08094","97e94290-be3b-4e10-aa59-d4fd16975b19","a0a8f18c-a66e-4ba7-a170-23efbdc67501","{""participantId"":""5AD3AFFE36B745C49727022D0FA08094"",""assignmentId"":""97e94290-be3b-4e10-aa59-d4fd16975b19"",""projectId"":""a0a8f18c-a66e-4ba7-a170-23efbdc67501""}","https://test12345.live/?participantId=5AD3AFFE36B745C49727022D0FA08094&assignmentId=97e94290-be3b-4e10-aa59-d4fd16975b19&projectId=a0a8f18c-a66e-4ba7-a170-23efbdc67501","5AD3AFFE36B745C49727022D0FA08094-2024-11-24-19-50-33","","null","","[]","null","",""
"","","","","","image-button-response","40","485280","0.0-10.0-1.0-0.5","5AD3AFFE36B745C49727022D0FA08094","5AD3AFFE36B745C49727022D0FA08094","97e94290-be3b-4e10-aa59-d4fd16975b19","a0a8f18c-a66e-4ba7-a170-23efbdc67501","{""participantId"":""5AD3AFFE36B745C49727022D0FA08094"",""assignmentId"":""97e94290-be3b-4e10-aa59-d4fd16975b19"",""projectId"":""a0a8f18c-a66e-4ba7-a170-23efbdc67501""}","https://test12345.live/?participantId=5AD3AFFE36B745C49727022D0FA08094&assignmentId=97e94290-be3b-4e10-aa59-d4fd16975b19&projectId=a0a8f18c-a66e-4ba7-a170-23efbdc67501","5AD3AFFE36B745C49727022D0FA08094-2024-11-24-19-50-33","","null","","images/causal_sequence/museum_causal/museum_causal_3.png","null","",""
"","","","","","image-button-response","41","486314","0.0-10.0-1.0-1.5","5AD3AFFE36B745C49727022D0FA08094","5AD3AFFE36B745C49727022D0FA08094","97e94290-be3b-4e10-aa59-d4fd16975b19","a0a8f18c-a66e-4ba7-a170-23efbdc67501","{""participantId"":""5AD3AFFE36B745C49727022D0FA08094"",""assignmentId"":""97e94290-be3b-4e10-aa59-d4fd16975b19"",""projectId"":""a0a8f18c-a66e-4ba7-a170-23efbdc67501""}","https://test12345.live/?participantId=5AD3AFFE36B745C49727022D0FA08094&assignmentId=97e94290-be3b-4e10-aa59-d4fd16975b19&projectId=a0a8f18c-a66e-4ba7-a170-23efbdc67501","5AD3AFFE36B745C49727022D0FA08094-2024-11-24-19-50-33","","1033","","images/causal_sequence/museum_causal/museum_causal_3.png","0","",""
"","","","","","image-button-response","42","488116","0.0-10.0-1.0-2.5","5AD3AFFE36B745C49727022D0FA08094","5AD3AFFE36B745C49727022D0FA08094","97e94290-be3b-4e10-aa59-d4fd16975b19","a0a8f18c-a66e-4ba7-a170-23efbdc67501","{""participantId"":""5AD3AFFE36B745C49727022D0FA08094"",""assignmentId"":""97e94290-be3b-4e10-aa59-d4fd16975b19"",""projectId"":""a0a8f18c-a66e-4ba7-a170-23efbdc67501""}","https://test12345.live/?participantId=5AD3AFFE36B745C49727022D0FA08094&assignmentId=97e94290-be3b-4e10-aa59-d4fd16975b19&projectId=a0a8f18c-a66e-4ba7-a170-23efbdc67501","5AD3AFFE36B745C49727022D0FA08094-2024-11-24-19-50-33","","null","","[]","null","",""
"","","","","","image-button-response","43","492618","0.0-10.0-1.0-0.6","5AD3AFFE36B745C49727022D0FA08094","5AD3AFFE36B745C49727022D0FA08094","97e94290-be3b-4e10-aa59-d4fd16975b19","a0a8f18c-a66e-4ba7-a170-23efbdc67501","{""participantId"":""5AD3AFFE36B745C49727022D0FA08094"",""assignmentId"":""97e94290-be3b-4e10-aa59-d4fd16975b19"",""projectId"":""a0a8f18c-a66e-4ba7-a170-23efbdc67501""}","https://test12345.live/?participantId=5AD3AFFE36B745C49727022D0FA08094&assignmentId=97e94290-be3b-4e10-aa59-d4fd16975b19&projectId=a0a8f18c-a66e-4ba7-a170-23efbdc67501","5AD3AFFE36B745C49727022D0FA08094-2024-11-24-19-50-33","","null","","images/causal_sequence/museum_causal/museum_causal_4.png","null","",""
"","","","","","image-button-response","44","493884","0.0-10.0-1.0-1.6","5AD3AFFE36B745C49727022D0FA08094","5AD3AFFE36B745C49727022D0FA08094","97e94290-be3b-4e10-aa59-d4fd16975b19","a0a8f18c-a66e-4ba7-a170-23efbdc67501","{""participantId"":""5AD3AFFE36B745C49727022D0FA08094"",""assignmentId"":""97e94290-be3b-4e10-aa59-d4fd16975b19"",""projectId"":""a0a8f18c-a66e-4ba7-a170-23efbdc67501""}","https://test12345.live/?participantId=5AD3AFFE36B745C49727022D0FA08094&assignmentId=97e94290-be3b-4e10-aa59-d4fd16975b19&projectId=a0a8f18c-a66e-4ba7-a170-23efbdc67501","5AD3AFFE36B745C49727022D0FA08094-2024-11-24-19-50-33","","1266","","images/causal_sequence/museum_causal/museum_causal_4.png","1","",""
"","","","","","image-button-response","45","495687","0.0-10.0-1.0-2.6","5AD3AFFE36B745C49727022D0FA08094","5AD3AFFE36B745C49727022D0FA08094","97e94290-be3b-4e10-aa59-d4fd16975b19","a0a8f18c-a66e-4ba7-a170-23efbdc67501","{""participantId"":""5AD3AFFE36B745C49727022D0FA08094"",""assignmentId"":""97e94290-be3b-4e10-aa59-d4fd16975b19"",""projectId"":""a0a8f18c-a66e-4ba7-a170-23efbdc67501""}","https://test12345.live/?participantId=5AD3AFFE36B745C49727022D0FA08094&assignmentId=97e94290-be3b-4e10-aa59-d4fd16975b19&projectId=a0a8f18c-a66e-4ba7-a170-23efbdc67501","5AD3AFFE36B745C49727022D0FA08094-2024-11-24-19-50-33","","null","","[]","null","",""
"","","","","","image-button-response","46","500189","0.0-10.0-1.0-0.7","5AD3AFFE36B745C49727022D0FA08094","5AD3AFFE36B745C49727022D0FA08094","97e94290-be3b-4e10-aa59-d4fd16975b19","a0a8f18c-a66e-4ba7-a170-23efbdc67501","{""participantId"":""5AD3AFFE36B745C49727022D0FA08094"",""assignmentId"":""97e94290-be3b-4e10-aa59-d4fd16975b19"",""projectId"":""a0a8f18c-a66e-4ba7-a170-23efbdc67501""}","https://test12345.live/?participantId=5AD3AFFE36B745C49727022D0FA08094&assignmentId=97e94290-be3b-4e10-aa59-d4fd16975b19&projectId=a0a8f18c-a66e-4ba7-a170-23efbdc67501","5AD3AFFE36B745C49727022D0FA08094-2024-11-24-19-50-33","","null","","images/causal_sequence/museum_causal/museum_causal_ten.png","null","",""
"","","","","","image-button-response","47","501125","0.0-10.0-1.0-1.7","5AD3AFFE36B745C49727022D0FA08094","5AD3AFFE36B745C49727022D0FA08094","97e94290-be3b-4e10-aa59-d4fd16975b19","a0a8f18c-a66e-4ba7-a170-23efbdc67501","{""participantId"":""5AD3AFFE36B745C49727022D0FA08094"",""assignmentId"":""97e94290-be3b-4e10-aa59-d4fd16975b19"",""projectId"":""a0a8f18c-a66e-4ba7-a170-23efbdc67501""}","https://test12345.live/?participantId=5AD3AFFE36B745C49727022D0FA08094&assignmentId=97e94290-be3b-4e10-aa59-d4fd16975b19&projectId=a0a8f18c-a66e-4ba7-a170-23efbdc67501","5AD3AFFE36B745C49727022D0FA08094-2024-11-24-19-50-33","","935","","images/causal_sequence/museum_causal/museum_causal_ten.png","0","",""
"","","","","","image-button-response","48","502927","0.0-10.0-1.0-2.7","5AD3AFFE36B745C49727022D0FA08094","5AD3AFFE36B745C49727022D0FA08094","97e94290-be3b-4e10-aa59-d4fd16975b19","a0a8f18c-a66e-4ba7-a170-23efbdc67501","{""participantId"":""5AD3AFFE36B745C49727022D0FA08094"",""assignmentId"":""97e94290-be3b-4e10-aa59-d4fd16975b19"",""projectId"":""a0a8f18c-a66e-4ba7-a170-23efbdc67501""}","https://test12345.live/?participantId=5AD3AFFE36B745C49727022D0FA08094&assignmentId=97e94290-be3b-4e10-aa59-d4fd16975b19&projectId=a0a8f18c-a66e-4ba7-a170-23efbdc67501","5AD3AFFE36B745C49727022D0FA08094-2024-11-24-19-50-33","","null","","[]","null","",""
"","","","","","image-button-response","49","507428","0.0-10.0-1.0-0.8","5AD3AFFE36B745C49727022D0FA08094","5AD3AFFE36B745C49727022D0FA08094","97e94290-be3b-4e10-aa59-d4fd16975b19","a0a8f18c-a66e-4ba7-a170-23efbdc67501","{""participantId"":""5AD3AFFE36B745C49727022D0FA08094"",""assignmentId"":""97e94290-be3b-4e10-aa59-d4fd16975b19"",""projectId"":""a0a8f18c-a66e-4ba7-a170-23efbdc67501""}","https://test12345.live/?participantId=5AD3AFFE36B745C49727022D0FA08094&assignmentId=97e94290-be3b-4e10-aa59-d4fd16975b19&projectId=a0a8f18c-a66e-4ba7-a170-23efbdc67501","5AD3AFFE36B745C49727022D0FA08094-2024-11-24-19-50-33","","null","","images/causal_sequence/museum_causal/museum_causal_6.png","null","",""
"","","","","","image-button-response","50","508617","0.0-10.0-1.0-1.8","5AD3AFFE36B745C49727022D0FA08094","5AD3AFFE36B745C49727022D0FA08094","97e94290-be3b-4e10-aa59-d4fd16975b19","a0a8f18c-a66e-4ba7-a170-23efbdc67501","{""participantId"":""5AD3AFFE36B745C49727022D0FA08094"",""assignmentId"":""97e94290-be3b-4e10-aa59-d4fd16975b19"",""projectId"":""a0a8f18c-a66e-4ba7-a170-23efbdc67501""}","https://test12345.live/?participantId=5AD3AFFE36B745C49727022D0FA08094&assignmentId=97e94290-be3b-4e10-aa59-d4fd16975b19&projectId=a0a8f18c-a66e-4ba7-a170-23efbdc67501","5AD3AFFE36B745C49727022D0FA08094-2024-11-24-19-50-33","","1188","","images/causal_sequence/museum_causal/museum_causal_6.png","0","",""
"","","","","","image-button-response","51","510418","0.0-10.0-1.0-2.8","5AD3AFFE36B745C49727022D0FA08094","5AD3AFFE36B745C49727022D0FA08094","97e94290-be3b-4e10-aa59-d4fd16975b19","a0a8f18c-a66e-4ba7-a170-23efbdc67501","{""participantId"":""5AD3AFFE36B745C49727022D0FA08094"",""assignmentId"":""97e94290-be3b-4e10-aa59-d4fd16975b19"",""projectId"":""a0a8f18c-a66e-4ba7-a170-23efbdc67501""}","https://test12345.live/?participantId=5AD3AFFE36B745C49727022D0FA08094&assignmentId=97e94290-be3b-4e10-aa59-d4fd16975b19&projectId=a0a8f18c-a66e-4ba7-a170-23efbdc67501","5AD3AFFE36B745C49727022D0FA08094-2024-11-24-19-50-33","","null","","[]","null","",""
"","","","","","image-button-response","52","514919","0.0-10.0-1.0-0.9","5AD3AFFE36B745C49727022D0FA08094","5AD3AFFE36B745C49727022D0FA08094","97e94290-be3b-4e10-aa59-d4fd16975b19","a0a8f18c-a66e-4ba7-a170-23efbdc67501","{""participantId"":""5AD3AFFE36B745C49727022D0FA08094"",""assignmentId"":""97e94290-be3b-4e10-aa59-d4fd16975b19"",""projectId"":""a0a8f18c-a66e-4ba7-a170-23efbdc67501""}","https://test12345.live/?participantId=5AD3AFFE36B745C49727022D0FA08094&assignmentId=97e94290-be3b-4e10-aa59-d4fd16975b19&projectId=a0a8f18c-a66e-4ba7-a170-23efbdc67501","5AD3AFFE36B745C49727022D0FA08094-2024-11-24-19-50-33","","null","","images/causal_sequence/museum_causal/museum_causal_5.png","null","",""
"","","","","","image-button-response","53","515921","0.0-10.0-1.0-1.9","5AD3AFFE36B745C49727022D0FA08094","5AD3AFFE36B745C49727022D0FA08094","97e94290-be3b-4e10-aa59-d4fd16975b19","a0a8f18c-a66e-4ba7-a170-23efbdc67501","{""participantId"":""5AD3AFFE36B745C49727022D0FA08094"",""assignmentId"":""97e94290-be3b-4e10-aa59-d4fd16975b19"",""projectId"":""a0a8f18c-a66e-4ba7-a170-23efbdc67501""}","https://test12345.live/?participantId=5AD3AFFE36B745C49727022D0FA08094&assignmentId=97e94290-be3b-4e10-aa59-d4fd16975b19&projectId=a0a8f18c-a66e-4ba7-a170-23efbdc67501","5AD3AFFE36B745C49727022D0FA08094-2024-11-24-19-50-33","","1001","","images/causal_sequence/museum_causal/museum_causal_5.png","0","",""
"","","","","","image-button-response","54","517723","0.0-10.0-1.0-2.9","5AD3AFFE36B745C49727022D0FA08094","5AD3AFFE36B745C49727022D0FA08094","97e94290-be3b-4e10-aa59-d4fd16975b19","a0a8f18c-a66e-4ba7-a170-23efbdc67501","{""participantId"":""5AD3AFFE36B745C49727022D0FA08094"",""assignmentId"":""97e94290-be3b-4e10-aa59-d4fd16975b19"",""projectId"":""a0a8f18c-a66e-4ba7-a170-23efbdc67501""}","https://test12345.live/?participantId=5AD3AFFE36B745C49727022D0FA08094&assignmentId=97e94290-be3b-4e10-aa59-d4fd16975b19&projectId=a0a8f18c-a66e-4ba7-a170-23efbdc67501","5AD3AFFE36B745C49727022D0FA08094-2024-11-24-19-50-33","","null","","[]","null","",""
"","","","","","html-audio-response","55","675341","0.0-11.0","5AD3AFFE36B745C49727022D0FA08094","5AD3AFFE36B745C49727022D0FA08094","97e94290-be3b-4e10-aa59-d4fd16975b19","a0a8f18c-a66e-4ba7-a170-23efbdc67501","{""participantId"":""5AD3AFFE36B745C49727022D0FA08094"",""assignmentId"":""97e94290-be3b-4e10-aa59-d4fd16975b19"",""projectId"":""a0a8f18c-a66e-4ba7-a170-23efbdc67501""}","https://test12345.live/?participantId=5AD3AFFE36B745C49727022D0FA08094&assignmentId=97e94290-be3b-4e10-aa59-d4fd16975b19&projectId=a0a8f18c-a66e-4ba7-a170-23efbdc67501","5AD3AFFE36B745C49727022D0FA08094-2024-11-24-19-50-33","","4261","","[""<span style=\""color: red; font-size: 24px\""> NOW RECORDING</span><p>Please say out loud all the images you saw, as many as you can remember. The images can be said in any order.</p>""]","","1","museum_causal"
"","","","","","image-button-response","56","681346","0.0-12.0-0.0","5AD3AFFE36B745C49727022D0FA08094","5AD3AFFE36B745C49727022D0FA08094","97e94290-be3b-4e10-aa59-d4fd16975b19","a0a8f18c-a66e-4ba7-a170-23efbdc67501","{""participantId"":""5AD3AFFE36B745C49727022D0FA08094"",""assignmentId"":""97e94290-be3b-4e10-aa59-d4fd16975b19"",""projectId"":""a0a8f18c-a66e-4ba7-a170-23efbdc67501""}","https://test12345.live/?participantId=5AD3AFFE36B745C49727022D0FA08094&assignmentId=97e94290-be3b-4e10-aa59-d4fd16975b19&projectId=a0a8f18c-a66e-4ba7-a170-23efbdc67501","5AD3AFFE36B745C49727022D0FA08094-2024-11-24-19-50-33","","null","","images/schematic_sequence/restaurant_scheme/restaurant_scheme_0.png","null","",""
"","","","","","image-button-response","57","685848","0.0-12.0-1.0-0.0","5AD3AFFE36B745C49727022D0FA08094","5AD3AFFE36B745C49727022D0FA08094","97e94290-be3b-4e10-aa59-d4fd16975b19","a0a8f18c-a66e-4ba7-a170-23efbdc67501","{""participantId"":""5AD3AFFE36B745C49727022D0FA08094"",""assignmentId"":""97e94290-be3b-4e10-aa59-d4fd16975b19"",""projectId"":""a0a8f18c-a66e-4ba7-a170-23efbdc67501""}","https://test12345.live/?participantId=5AD3AFFE36B745C49727022D0FA08094&assignmentId=97e94290-be3b-4e10-aa59-d4fd16975b19&projectId=a0a8f18c-a66e-4ba7-a170-23efbdc67501","5AD3AFFE36B745C49727022D0FA08094-2024-11-24-19-50-33","","null","","images/schematic_sequence/restaurant_scheme/restaurant_scheme_1.png","null","",""
"","","","","","image-button-response","58","688312","0.0-12.0-1.0-1.0","5AD3AFFE36B745C49727022D0FA08094","5AD3AFFE36B745C49727022D0FA08094","97e94290-be3b-4e10-aa59-d4fd16975b19","a0a8f18c-a66e-4ba7-a170-23efbdc67501","{""participantId"":""5AD3AFFE36B745C49727022D0FA08094"",""assignmentId"":""97e94290-be3b-4e10-aa59-d4fd16975b19"",""projectId"":""a0a8f18c-a66e-4ba7-a170-23efbdc67501""}","https://test12345.live/?participantId=5AD3AFFE36B745C49727022D0FA08094&assignmentId=97e94290-be3b-4e10-aa59-d4fd16975b19&projectId=a0a8f18c-a66e-4ba7-a170-23efbdc67501","5AD3AFFE36B745C49727022D0FA08094-2024-11-24-19-50-33","","2462","","images/schematic_sequence/restaurant_scheme/restaurant_scheme_1.png","0","",""
"","","","","","image-button-response","59","690114","0.0-12.0-1.0-2.0","5AD3AFFE36B745C49727022D0FA08094","5AD3AFFE36B745C49727022D0FA08094","97e94290-be3b-4e10-aa59-d4fd16975b19","a0a8f18c-a66e-4ba7-a170-23efbdc67501","{""participantId"":""5AD3AFFE36B745C49727022D0FA08094"",""assignmentId"":""97e94290-be3b-4e10-aa59-d4fd16975b19"",""projectId"":""a0a8f18c-a66e-4ba7-a170-23efbdc67501""}","https://test12345.live/?participantId=5AD3AFFE36B745C49727022D0FA08094&assignmentId=97e94290-be3b-4e10-aa59-d4fd16975b19&projectId=a0a8f18c-a66e-4ba7-a170-23efbdc67501","5AD3AFFE36B745C49727022D0FA08094-2024-11-24-19-50-33","","null","","[]","null","",""
"","","","","","image-button-response","60","694616","0.0-12.0-1.0-0.1","5AD3AFFE36B745C49727022D0FA08094","5AD3AFFE36B745C49727022D0FA08094","97e94290-be3b-4e10-aa59-d4fd16975b19","a0a8f18c-a66e-4ba7-a170-23efbdc67501","{""participantId"":""5AD3AFFE36B745C49727022D0FA08094"",""assignmentId"":""97e94290-be3b-4e10-aa59-d4fd16975b19"",""projectId"":""a0a8f18c-a66e-4ba7-a170-23efbdc67501""}","https://test12345.live/?participantId=5AD3AFFE36B745C49727022D0FA08094&assignmentId=97e94290-be3b-4e10-aa59-d4fd16975b19&projectId=a0a8f18c-a66e-4ba7-a170-23efbdc67501","5AD3AFFE36B745C49727022D0FA08094-2024-11-24-19-50-33","","null","","images/schematic_sequence/restaurant_scheme/restaurant_scheme_3.png","null","",""
"","","","","","image-button-response","61","696130","0.0-12.0-1.0-1.1","5AD3AFFE36B745C49727022D0FA08094","5AD3AFFE36B745C49727022D0FA08094","97e94290-be3b-4e10-aa59-d4fd16975b19","a0a8f18c-a66e-4ba7-a170-23efbdc67501","{""participantId"":""5AD3AFFE36B745C49727022D0FA08094"",""assignmentId"":""97e94290-be3b-4e10-aa59-d4fd16975b19"",""projectId"":""a0a8f18c-a66e-4ba7-a170-23efbdc67501""}","https://test12345.live/?participantId=5AD3AFFE36B745C49727022D0FA08094&assignmentId=97e94290-be3b-4e10-aa59-d4fd16975b19&projectId=a0a8f18c-a66e-4ba7-a170-23efbdc67501","5AD3AFFE36B745C49727022D0FA08094-2024-11-24-19-50-33","","1513","","images/schematic_sequence/restaurant_scheme/restaurant_scheme_3.png","1","",""
"","","","","","image-button-response","62","697934","0.0-12.0-1.0-2.1","5AD3AFFE36B745C49727022D0FA08094","5AD3AFFE36B745C49727022D0FA08094","97e94290-be3b-4e10-aa59-d4fd16975b19","a0a8f18c-a66e-4ba7-a170-23efbdc67501","{""participantId"":""5AD3AFFE36B745C49727022D0FA08094"",""assignmentId"":""97e94290-be3b-4e10-aa59-d4fd16975b19"",""projectId"":""a0a8f18c-a66e-4ba7-a170-23efbdc67501""}","https://test12345.live/?participantId=5AD3AFFE36B745C49727022D0FA08094&assignmentId=97e94290-be3b-4e10-aa59-d4fd16975b19&projectId=a0a8f18c-a66e-4ba7-a170-23efbdc67501","5AD3AFFE36B745C49727022D0FA08094-2024-11-24-19-50-33","","null","","[]","null","",""
"","","","","","image-button-response","63","702436","0.0-12.0-1.0-0.2","5AD3AFFE36B745C49727022D0FA08094","5AD3AFFE36B745C49727022D0FA08094","97e94290-be3b-4e10-aa59-d4fd16975b19","a0a8f18c-a66e-4ba7-a170-23efbdc67501","{""participantId"":""5AD3AFFE36B745C49727022D0FA08094"",""assignmentId"":""97e94290-be3b-4e10-aa59-d4fd16975b19"",""projectId"":""a0a8f18c-a66e-4ba7-a170-23efbdc67501""}","https://test12345.live/?participantId=5AD3AFFE36B745C49727022D0FA08094&assignmentId=97e94290-be3b-4e10-aa59-d4fd16975b19&projectId=a0a8f18c-a66e-4ba7-a170-23efbdc67501","5AD3AFFE36B745C49727022D0FA08094-2024-11-24-19-50-33","","null","","images/schematic_sequence/restaurant_scheme/restaurant_scheme_7.png","null","",""
"","","","","","image-button-response","64","703530","0.0-12.0-1.0-1.2","5AD3AFFE36B745C49727022D0FA08094","5AD3AFFE36B745C49727022D0FA08094","97e94290-be3b-4e10-aa59-d4fd16975b19","a0a8f18c-a66e-4ba7-a170-23efbdc67501","{""participantId"":""5AD3AFFE36B745C49727022D0FA08094"",""assignmentId"":""97e94290-be3b-4e10-aa59-d4fd16975b19"",""projectId"":""a0a8f18c-a66e-4ba7-a170-23efbdc67501""}","https://test12345.live/?participantId=5AD3AFFE36B745C49727022D0FA08094&assignmentId=97e94290-be3b-4e10-aa59-d4fd16975b19&projectId=a0a8f18c-a66e-4ba7-a170-23efbdc67501","5AD3AFFE36B745C49727022D0FA08094-2024-11-24-19-50-33","","1094","","images/schematic_sequence/restaurant_scheme/restaurant_scheme_7.png","1","",""
"","","","","","image-button-response","65","705333","0.0-12.0-1.0-2.2","5AD3AFFE36B745C49727022D0FA08094","5AD3AFFE36B745C49727022D0FA08094","97e94290-be3b-4e10-aa59-d4fd16975b19","a0a8f18c-a66e-4ba7-a170-23efbdc67501","{""participantId"":""5AD3AFFE36B745C49727022D0FA08094"",""assignmentId"":""97e94290-be3b-4e10-aa59-d4fd16975b19"",""projectId"":""a0a8f18c-a66e-4ba7-a170-23efbdc67501""}","https://test12345.live/?participantId=5AD3AFFE36B745C49727022D0FA08094&assignmentId=97e94290-be3b-4e10-aa59-d4fd16975b19&projectId=a0a8f18c-a66e-4ba7-a170-23efbdc67501","5AD3AFFE36B745C49727022D0FA08094-2024-11-24-19-50-33","","null","","[]","null","",""
"","","","","","image-button-response","66","709834","0.0-12.0-1.0-0.3","5AD3AFFE36B745C49727022D0FA08094","5AD3AFFE36B745C49727022D0FA08094","97e94290-be3b-4e10-aa59-d4fd16975b19","a0a8f18c-a66e-4ba7-a170-23efbdc67501","{""participantId"":""5AD3AFFE36B745C49727022D0FA08094"",""assignmentId"":""97e94290-be3b-4e10-aa59-d4fd16975b19"",""projectId"":""a0a8f18c-a66e-4ba7-a170-23efbdc67501""}","https://test12345.live/?participantId=5AD3AFFE36B745C49727022D0FA08094&assignmentId=97e94290-be3b-4e10-aa59-d4fd16975b19&projectId=a0a8f18c-a66e-4ba7-a170-23efbdc67501","5AD3AFFE36B745C49727022D0FA08094-2024-11-24-19-50-33","","null","","images/schematic_sequence/restaurant_scheme/restaurant_scheme_4.png","null","",""
"","","","","","image-button-response","67","710781","0.0-12.0-1.0-1.3","5AD3AFFE36B745C49727022D0FA08094","5AD3AFFE36B745C49727022D0FA08094","97e94290-be3b-4e10-aa59-d4fd16975b19","a0a8f18c-a66e-4ba7-a170-23efbdc67501","{""participantId"":""5AD3AFFE36B745C49727022D0FA08094"",""assignmentId"":""97e94290-be3b-4e10-aa59-d4fd16975b19"",""projectId"":""a0a8f18c-a66e-4ba7-a170-23efbdc67501""}","https://test12345.live/?participantId=5AD3AFFE36B745C49727022D0FA08094&assignmentId=97e94290-be3b-4e10-aa59-d4fd16975b19&projectId=a0a8f18c-a66e-4ba7-a170-23efbdc67501","5AD3AFFE36B745C49727022D0FA08094-2024-11-24-19-50-33","","946","","images/schematic_sequence/restaurant_scheme/restaurant_scheme_4.png","0","",""
"","","","","","image-button-response","68","712583","0.0-12.0-1.0-2.3","5AD3AFFE36B745C49727022D0FA08094","5AD3AFFE36B745C49727022D0FA08094","97e94290-be3b-4e10-aa59-d4fd16975b19","a0a8f18c-a66e-4ba7-a170-23efbdc67501","{""participantId"":""5AD3AFFE36B745C49727022D0FA08094"",""assignmentId"":""97e94290-be3b-4e10-aa59-d4fd16975b19"",""projectId"":""a0a8f18c-a66e-4ba7-a170-23efbdc67501""}","https://test12345.live/?participantId=5AD3AFFE36B745C49727022D0FA08094&assignmentId=97e94290-be3b-4e10-aa59-d4fd16975b19&projectId=a0a8f18c-a66e-4ba7-a170-23efbdc67501","5AD3AFFE36B745C49727022D0FA08094-2024-11-24-19-50-33","","null","","[]","null","",""
"","","","","","image-button-response","69","717084","0.0-12.0-1.0-0.4","5AD3AFFE36B745C49727022D0FA08094","5AD3AFFE36B745C49727022D0FA08094","97e94290-be3b-4e10-aa59-d4fd16975b19","a0a8f18c-a66e-4ba7-a170-23efbdc67501","{""participantId"":""5AD3AFFE36B745C49727022D0FA08094"",""assignmentId"":""97e94290-be3b-4e10-aa59-d4fd16975b19"",""projectId"":""a0a8f18c-a66e-4ba7-a170-23efbdc67501""}","https://test12345.live/?participantId=5AD3AFFE36B745C49727022D0FA08094&assignmentId=97e94290-be3b-4e10-aa59-d4fd16975b19&projectId=a0a8f18c-a66e-4ba7-a170-23efbdc67501","5AD3AFFE36B745C49727022D0FA08094-2024-11-24-19-50-33","","null","","images/schematic_sequence/restaurant_scheme/restaurant_scheme_5.png","null","",""
"","","","","","image-button-response","70","718310","0.0-12.0-1.0-1.4","5AD3AFFE36B745C49727022D0FA08094","5AD3AFFE36B745C49727022D0FA08094","97e94290-be3b-4e10-aa59-d4fd16975b19","a0a8f18c-a66e-4ba7-a170-23efbdc67501","{""participantId"":""5AD3AFFE36B745C49727022D0FA08094"",""assignmentId"":""97e94290-be3b-4e10-aa59-d4fd16975b19"",""projectId"":""a0a8f18c-a66e-4ba7-a170-23efbdc67501""}","https://test12345.live/?participantId=5AD3AFFE36B745C49727022D0FA08094&assignmentId=97e94290-be3b-4e10-aa59-d4fd16975b19&projectId=a0a8f18c-a66e-4ba7-a170-23efbdc67501","5AD3AFFE36B745C49727022D0FA08094-2024-11-24-19-50-33","","1225","","images/schematic_sequence/restaurant_scheme/restaurant_scheme_5.png","0","",""
"","","","","","image-button-response","71","720112","0.0-12.0-1.0-2.4","5AD3AFFE36B745C49727022D0FA08094","5AD3AFFE36B745C49727022D0FA08094","97e94290-be3b-4e10-aa59-d4fd16975b19","a0a8f18c-a66e-4ba7-a170-23efbdc67501","{""participantId"":""5AD3AFFE36B745C49727022D0FA08094"",""assignmentId"":""97e94290-be3b-4e10-aa59-d4fd16975b19"",""projectId"":""a0a8f18c-a66e-4ba7-a170-23efbdc67501""}","https://test12345.live/?participantId=5AD3AFFE36B745C49727022D0FA08094&assignmentId=97e94290-be3b-4e10-aa59-d4fd16975b19&projectId=a0a8f18c-a66e-4ba7-a170-23efbdc67501","5AD3AFFE36B745C49727022D0FA08094-2024-11-24-19-50-33","","null","","[]","null","",""
"","","","","","image-button-response","72","724614","0.0-12.0-1.0-0.5","5AD3AFFE36B745C49727022D0FA08094","5AD3AFFE36B745C49727022D0FA08094","97e94290-be3b-4e10-aa59-d4fd16975b19","a0a8f18c-a66e-4ba7-a170-23efbdc67501","{""participantId"":""5AD3AFFE36B745C49727022D0FA08094"",""assignmentId"":""97e94290-be3b-4e10-aa59-d4fd16975b19"",""projectId"":""a0a8f18c-a66e-4ba7-a170-23efbdc67501""}","https://test12345.live/?participantId=5AD3AFFE36B745C49727022D0FA08094&assignmentId=97e94290-be3b-4e10-aa59-d4fd16975b19&projectId=a0a8f18c-a66e-4ba7-a170-23efbdc67501","5AD3AFFE36B745C49727022D0FA08094-2024-11-24-19-50-33","","null","","images/schematic_sequence/restaurant_scheme/restaurant_scheme_9.png","null","",""
"","","","","","image-button-response","73","727798","0.0-12.0-1.0-1.5","5AD3AFFE36B745C49727022D0FA08094","5AD3AFFE36B745C49727022D0FA08094","97e94290-be3b-4e10-aa59-d4fd16975b19","a0a8f18c-a66e-4ba7-a170-23efbdc67501","{""participantId"":""5AD3AFFE36B745C49727022D0FA08094"",""assignmentId"":""97e94290-be3b-4e10-aa59-d4fd16975b19"",""projectId"":""a0a8f18c-a66e-4ba7-a170-23efbdc67501""}","https://test12345.live/?participantId=5AD3AFFE36B745C49727022D0FA08094&assignmentId=97e94290-be3b-4e10-aa59-d4fd16975b19&projectId=a0a8f18c-a66e-4ba7-a170-23efbdc67501","5AD3AFFE36B745C49727022D0FA08094-2024-11-24-19-50-33","","3183","","images/schematic_sequence/restaurant_scheme/restaurant_scheme_9.png","0","",""
"","","","","","image-button-response","74","729600","0.0-12.0-1.0-2.5","5AD3AFFE36B745C49727022D0FA08094","5AD3AFFE36B745C49727022D0FA08094","97e94290-be3b-4e10-aa59-d4fd16975b19","a0a8f18c-a66e-4ba7-a170-23efbdc67501","{""participantId"":""5AD3AFFE36B745C49727022D0FA08094"",""assignmentId"":""97e94290-be3b-4e10-aa59-d4fd16975b19"",""projectId"":""a0a8f18c-a66e-4ba7-a170-23efbdc67501""}","https://test12345.live/?participantId=5AD3AFFE36B745C49727022D0FA08094&assignmentId=97e94290-be3b-4e10-aa59-d4fd16975b19&projectId=a0a8f18c-a66e-4ba7-a170-23efbdc67501","5AD3AFFE36B745C49727022D0FA08094-2024-11-24-19-50-33","","null","","[]","null","",""
"","","","","","image-button-response","75","734102","0.0-12.0-1.0-0.6","5AD3AFFE36B745C49727022D0FA08094","5AD3AFFE36B745C49727022D0FA08094","97e94290-be3b-4e10-aa59-d4fd16975b19","a0a8f18c-a66e-4ba7-a170-23efbdc67501","{""participantId"":""5AD3AFFE36B745C49727022D0FA08094"",""assignmentId"":""97e94290-be3b-4e10-aa59-d4fd16975b19"",""projectId"":""a0a8f18c-a66e-4ba7-a170-23efbdc67501""}","https://test12345.live/?participantId=5AD3AFFE36B745C49727022D0FA08094&assignmentId=97e94290-be3b-4e10-aa59-d4fd16975b19&projectId=a0a8f18c-a66e-4ba7-a170-23efbdc67501","5AD3AFFE36B745C49727022D0FA08094-2024-11-24-19-50-33","","null","","images/schematic_sequence/restaurant_scheme/restaurant_scheme_6.png","null","",""
"","","","","","image-button-response","76","735293","0.0-12.0-1.0-1.6","5AD3AFFE36B745C49727022D0FA08094","5AD3AFFE36B745C49727022D0FA08094","97e94290-be3b-4e10-aa59-d4fd16975b19","a0a8f18c-a66e-4ba7-a170-23efbdc67501","{""participantId"":""5AD3AFFE36B745C49727022D0FA08094"",""assignmentId"":""97e94290-be3b-4e10-aa59-d4fd16975b19"",""projectId"":""a0a8f18c-a66e-4ba7-a170-23efbdc67501""}","https://test12345.live/?participantId=5AD3AFFE36B745C49727022D0FA08094&assignmentId=97e94290-be3b-4e10-aa59-d4fd16975b19&projectId=a0a8f18c-a66e-4ba7-a170-23efbdc67501","5AD3AFFE36B745C49727022D0FA08094-2024-11-24-19-50-33","","1190","","images/schematic_sequence/restaurant_scheme/restaurant_scheme_6.png","1","",""
"","","","","","image-button-response","77","737096","0.0-12.0-1.0-2.6","5AD3AFFE36B745C49727022D0FA08094","5AD3AFFE36B745C49727022D0FA08094","97e94290-be3b-4e10-aa59-d4fd16975b19","a0a8f18c-a66e-4ba7-a170-23efbdc67501","{""participantId"":""5AD3AFFE36B745C49727022D0FA08094"",""assignmentId"":""97e94290-be3b-4e10-aa59-d4fd16975b19"",""projectId"":""a0a8f18c-a66e-4ba7-a170-23efbdc67501""}","https://test12345.live/?participantId=5AD3AFFE36B745C49727022D0FA08094&assignmentId=97e94290-be3b-4e10-aa59-d4fd16975b19&projectId=a0a8f18c-a66e-4ba7-a170-23efbdc67501","5AD3AFFE36B745C49727022D0FA08094-2024-11-24-19-50-33","","null","","[]","null","",""
"","","","","","image-button-response","78","741597","0.0-12.0-1.0-0.7","5AD3AFFE36B745C49727022D0FA08094","5AD3AFFE36B745C49727022D0FA08094","97e94290-be3b-4e10-aa59-d4fd16975b19","a0a8f18c-a66e-4ba7-a170-23efbdc67501","{""participantId"":""5AD3AFFE36B745C49727022D0FA08094"",""assignmentId"":""97e94290-be3b-4e10-aa59-d4fd16975b19"",""projectId"":""a0a8f18c-a66e-4ba7-a170-23efbdc67501""}","https://test12345.live/?participantId=5AD3AFFE36B745C49727022D0FA08094&assignmentId=97e94290-be3b-4e10-aa59-d4fd16975b19&projectId=a0a8f18c-a66e-4ba7-a170-23efbdc67501","5AD3AFFE36B745C49727022D0FA08094-2024-11-24-19-50-33","","null","","images/schematic_sequence/restaurant_scheme/restaurant_scheme_8.png","null","",""
"","","","","","image-button-response","79","743287","0.0-12.0-1.0-1.7","5AD3AFFE36B745C49727022D0FA08094","5AD3AFFE36B745C49727022D0FA08094","97e94290-be3b-4e10-aa59-d4fd16975b19","a0a8f18c-a66e-4ba7-a170-23efbdc67501","{""participantId"":""5AD3AFFE36B745C49727022D0FA08094"",""assignmentId"":""97e94290-be3b-4e10-aa59-d4fd16975b19"",""projectId"":""a0a8f18c-a66e-4ba7-a170-23efbdc67501""}","https://test12345.live/?participantId=5AD3AFFE36B745C49727022D0FA08094&assignmentId=97e94290-be3b-4e10-aa59-d4fd16975b19&projectId=a0a8f18c-a66e-4ba7-a170-23efbdc67501","5AD3AFFE36B745C49727022D0FA08094-2024-11-24-19-50-33","","1690","","images/schematic_sequence/restaurant_scheme/restaurant_scheme_8.png","1","",""
"","","","","","image-button-response","80","745090","0.0-12.0-1.0-2.7","5AD3AFFE36B745C49727022D0FA08094","5AD3AFFE36B745C49727022D0FA08094","97e94290-be3b-4e10-aa59-d4fd16975b19","a0a8f18c-a66e-4ba7-a170-23efbdc67501","{""participantId"":""5AD3AFFE36B745C49727022D0FA08094"",""assignmentId"":""97e94290-be3b-4e10-aa59-d4fd16975b19"",""projectId"":""a0a8f18c-a66e-4ba7-a170-23efbdc67501""}","https://test12345.live/?participantId=5AD3AFFE36B745C49727022D0FA08094&assignmentId=97e94290-be3b-4e10-aa59-d4fd16975b19&projectId=a0a8f18c-a66e-4ba7-a170-23efbdc67501","5AD3AFFE36B745C49727022D0FA08094-2024-11-24-19-50-33","","null","","[]","null","",""
"","","","","","image-button-response","81","749592","0.0-12.0-1.0-0.8","5AD3AFFE36B745C49727022D0FA08094","5AD3AFFE36B745C49727022D0FA08094","97e94290-be3b-4e10-aa59-d4fd16975b19","a0a8f18c-a66e-4ba7-a170-23efbdc67501","{""participantId"":""5AD3AFFE36B745C49727022D0FA08094"",""assignmentId"":""97e94290-be3b-4e10-aa59-d4fd16975b19"",""projectId"":""a0a8f18c-a66e-4ba7-a170-23efbdc67501""}","https://test12345.live/?participantId=5AD3AFFE36B745C49727022D0FA08094&assignmentId=97e94290-be3b-4e10-aa59-d4fd16975b19&projectId=a0a8f18c-a66e-4ba7-a170-23efbdc67501","5AD3AFFE36B745C49727022D0FA08094-2024-11-24-19-50-33","","null","","images/schematic_sequence/restaurant_scheme/restaurant_scheme_2.png","null","",""
"","","","","","image-button-response","82","751551","0.0-12.0-1.0-1.8","5AD3AFFE36B745C49727022D0FA08094","5AD3AFFE36B745C49727022D0FA08094","97e94290-be3b-4e10-aa59-d4fd16975b19","a0a8f18c-a66e-4ba7-a170-23efbdc67501","{""participantId"":""5AD3AFFE36B745C49727022D0FA08094"",""assignmentId"":""97e94290-be3b-4e10-aa59-d4fd16975b19"",""projectId"":""a0a8f18c-a66e-4ba7-a170-23efbdc67501""}","https://test12345.live/?participantId=5AD3AFFE36B745C49727022D0FA08094&assignmentId=97e94290-be3b-4e10-aa59-d4fd16975b19&projectId=a0a8f18c-a66e-4ba7-a170-23efbdc67501","5AD3AFFE36B745C49727022D0FA08094-2024-11-24-19-50-33","","1958","","images/schematic_sequence/restaurant_scheme/restaurant_scheme_2.png","1","",""
"","","","","","image-button-response","83","753353","0.0-12.0-1.0-2.8","5AD3AFFE36B745C49727022D0FA08094","5AD3AFFE36B745C49727022D0FA08094","97e94290-be3b-4e10-aa59-d4fd16975b19","a0a8f18c-a66e-4ba7-a170-23efbdc67501","{""participantId"":""5AD3AFFE36B745C49727022D0FA08094"",""assignmentId"":""97e94290-be3b-4e10-aa59-d4fd16975b19"",""projectId"":""a0a8f18c-a66e-4ba7-a170-23efbdc67501""}","https://test12345.live/?participantId=5AD3AFFE36B745C49727022D0FA08094&assignmentId=97e94290-be3b-4e10-aa59-d4fd16975b19&projectId=a0a8f18c-a66e-4ba7-a170-23efbdc67501","5AD3AFFE36B745C49727022D0FA08094-2024-11-24-19-50-33","","null","","[]","null","",""
"","","","","","image-button-response","84","757855","0.0-12.0-1.0-0.9","5AD3AFFE36B745C49727022D0FA08094","5AD3AFFE36B745C49727022D0FA08094","97e94290-be3b-4e10-aa59-d4fd16975b19","a0a8f18c-a66e-4ba7-a170-23efbdc67501","{""participantId"":""5AD3AFFE36B745C49727022D0FA08094"",""assignmentId"":""97e94290-be3b-4e10-aa59-d4fd16975b19"",""projectId"":""a0a8f18c-a66e-4ba7-a170-23efbdc67501""}","https://test12345.live/?participantId=5AD3AFFE36B745C49727022D0FA08094&assignmentId=97e94290-be3b-4e10-aa59-d4fd16975b19&projectId=a0a8f18c-a66e-4ba7-a170-23efbdc67501","5AD3AFFE36B745C49727022D0FA08094-2024-11-24-19-50-33","","null","","images/schematic_sequence/restaurant_scheme/restaurant_scheme_ten.png","null","",""
"","","","","","image-button-response","85","759069","0.0-12.0-1.0-1.9","5AD3AFFE36B745C49727022D0FA08094","5AD3AFFE36B745C49727022D0FA08094","97e94290-be3b-4e10-aa59-d4fd16975b19","a0a8f18c-a66e-4ba7-a170-23efbdc67501","{""participantId"":""5AD3AFFE36B745C49727022D0FA08094"",""assignmentId"":""97e94290-be3b-4e10-aa59-d4fd16975b19"",""projectId"":""a0a8f18c-a66e-4ba7-a170-23efbdc67501""}","https://test12345.live/?participantId=5AD3AFFE36B745C49727022D0FA08094&assignmentId=97e94290-be3b-4e10-aa59-d4fd16975b19&projectId=a0a8f18c-a66e-4ba7-a170-23efbdc67501","5AD3AFFE36B745C49727022D0FA08094-2024-11-24-19-50-33","","1214","","images/schematic_sequence/restaurant_scheme/restaurant_scheme_ten.png","0","",""
"","","","","","image-button-response","86","760871","0.0-12.0-1.0-2.9","5AD3AFFE36B745C49727022D0FA08094","5AD3AFFE36B745C49727022D0FA08094","97e94290-be3b-4e10-aa59-d4fd16975b19","a0a8f18c-a66e-4ba7-a170-23efbdc67501","{""participantId"":""5AD3AFFE36B745C49727022D0FA08094"",""assignmentId"":""97e94290-be3b-4e10-aa59-d4fd16975b19"",""projectId"":""a0a8f18c-a66e-4ba7-a170-23efbdc67501""}","https://test12345.live/?participantId=5AD3AFFE36B745C49727022D0FA08094&assignmentId=97e94290-be3b-4e10-aa59-d4fd16975b19&projectId=a0a8f18c-a66e-4ba7-a170-23efbdc67501","5AD3AFFE36B745C49727022D0FA08094-2024-11-24-19-50-33","","null","","[]","null","",""
"","","","","","html-audio-response","87","879196","0.0-13.0","5AD3AFFE36B745C49727022D0FA08094","5AD3AFFE36B745C49727022D0FA08094","97e94290-be3b-4e10-aa59-d4fd16975b19","a0a8f18c-a66e-4ba7-a170-23efbdc67501","{""participantId"":""5AD3AFFE36B745C49727022D0FA08094"",""assignmentId"":""97e94290-be3b-4e10-aa59-d4fd16975b19"",""projectId"":""a0a8f18c-a66e-4ba7-a170-23efbdc67501""}","https://test12345.live/?participantId=5AD3AFFE36B745C49727022D0FA08094&assignmentId=97e94290-be3b-4e10-aa59-d4fd16975b19&projectId=a0a8f18c-a66e-4ba7-a170-23efbdc67501","5AD3AFFE36B745C49727022D0FA08094-2024-11-24-19-50-33","","37338","","[""<span style=\""color: red; font-size: 24px\""> NOW RECORDING</span><p>Please say out loud all the images you saw, as many as you can remember. The images can be said in any order.</p>""]","","5","restaurant_scheme"
"","","","","","image-button-response","88","885201","0.0-14.0-0.0","5AD3AFFE36B745C49727022D0FA08094","5AD3AFFE36B745C49727022D0FA08094","97e94290-be3b-4e10-aa59-d4fd16975b19","a0a8f18c-a66e-4ba7-a170-23efbdc67501","{""participantId"":""5AD3AFFE36B745C49727022D0FA08094"",""assignmentId"":""97e94290-be3b-4e10-aa59-d4fd16975b19"",""projectId"":""a0a8f18c-a66e-4ba7-a170-23efbdc67501""}","https://test12345.live/?participantId=5AD3AFFE36B745C49727022D0FA08094&assignmentId=97e94290-be3b-4e10-aa59-d4fd16975b19&projectId=a0a8f18c-a66e-4ba7-a170-23efbdc67501","5AD3AFFE36B745C49727022D0FA08094-2024-11-24-19-50-33","","null","","images/causal_sequence/dog_causal/dog_causal_0.png","null","",""
"","","","","","image-button-response","89","889702","0.0-14.0-1.0-0.0","5AD3AFFE36B745C49727022D0FA08094","5AD3AFFE36B745C49727022D0FA08094","97e94290-be3b-4e10-aa59-d4fd16975b19","a0a8f18c-a66e-4ba7-a170-23efbdc67501","{""participantId"":""5AD3AFFE36B745C49727022D0FA08094"",""assignmentId"":""97e94290-be3b-4e10-aa59-d4fd16975b19"",""projectId"":""a0a8f18c-a66e-4ba7-a170-23efbdc67501""}","https://test12345.live/?participantId=5AD3AFFE36B745C49727022D0FA08094&assignmentId=97e94290-be3b-4e10-aa59-d4fd16975b19&projectId=a0a8f18c-a66e-4ba7-a170-23efbdc67501","5AD3AFFE36B745C49727022D0FA08094-2024-11-24-19-50-33","","null","","images/causal_sequence/dog_causal/dog_causal_1.png","null","",""
"","","","","","image-button-response","90","891978","0.0-14.0-1.0-1.0","5AD3AFFE36B745C49727022D0FA08094","5AD3AFFE36B745C49727022D0FA08094","97e94290-be3b-4e10-aa59-d4fd16975b19","a0a8f18c-a66e-4ba7-a170-23efbdc67501","{""participantId"":""5AD3AFFE36B745C49727022D0FA08094"",""assignmentId"":""97e94290-be3b-4e10-aa59-d4fd16975b19"",""projectId"":""a0a8f18c-a66e-4ba7-a170-23efbdc67501""}","https://test12345.live/?participantId=5AD3AFFE36B745C49727022D0FA08094&assignmentId=97e94290-be3b-4e10-aa59-d4fd16975b19&projectId=a0a8f18c-a66e-4ba7-a170-23efbdc67501","5AD3AFFE36B745C49727022D0FA08094-2024-11-24-19-50-33","","2274","","images/causal_sequence/dog_causal/dog_causal_1.png","0","",""
"","","","","","image-button-response","91","893780","0.0-14.0-1.0-2.0","5AD3AFFE36B745C49727022D0FA08094","5AD3AFFE36B745C49727022D0FA08094","97e94290-be3b-4e10-aa59-d4fd16975b19","a0a8f18c-a66e-4ba7-a170-23efbdc67501","{""participantId"":""5AD3AFFE36B745C49727022D0FA08094"",""assignmentId"":""97e94290-be3b-4e10-aa59-d4fd16975b19"",""projectId"":""a0a8f18c-a66e-4ba7-a170-23efbdc67501""}","https://test12345.live/?participantId=5AD3AFFE36B745C49727022D0FA08094&assignmentId=97e94290-be3b-4e10-aa59-d4fd16975b19&projectId=a0a8f18c-a66e-4ba7-a170-23efbdc67501","5AD3AFFE36B745C49727022D0FA08094-2024-11-24-19-50-33","","null","","[]","null","",""
"","","","","","image-button-response","92","898281","0.0-14.0-1.0-0.1","5AD3AFFE36B745C49727022D0FA08094","5AD3AFFE36B745C49727022D0FA08094","97e94290-be3b-4e10-aa59-d4fd16975b19","a0a8f18c-a66e-4ba7-a170-23efbdc67501","{""participantId"":""5AD3AFFE36B745C49727022D0FA08094"",""assignmentId"":""97e94290-be3b-4e10-aa59-d4fd16975b19"",""projectId"":""a0a8f18c-a66e-4ba7-a170-23efbdc67501""}","https://test12345.live/?participantId=5AD3AFFE36B745C49727022D0FA08094&assignmentId=97e94290-be3b-4e10-aa59-d4fd16975b19&projectId=a0a8f18c-a66e-4ba7-a170-23efbdc67501","5AD3AFFE36B745C49727022D0FA08094-2024-11-24-19-50-33","","null","","images/causal_sequence/dog_causal/dog_causal_2.png","null","",""
"","","","","","image-button-response","93","899381","0.0-14.0-1.0-1.1","5AD3AFFE36B745C49727022D0FA08094","5AD3AFFE36B745C49727022D0FA08094","97e94290-be3b-4e10-aa59-d4fd16975b19","a0a8f18c-a66e-4ba7-a170-23efbdc67501","{""participantId"":""5AD3AFFE36B745C49727022D0FA08094"",""assignmentId"":""97e94290-be3b-4e10-aa59-d4fd16975b19"",""projectId"":""a0a8f18c-a66e-4ba7-a170-23efbdc67501""}","https://test12345.live/?participantId=5AD3AFFE36B745C49727022D0FA08094&assignmentId=97e94290-be3b-4e10-aa59-d4fd16975b19&projectId=a0a8f18c-a66e-4ba7-a170-23efbdc67501","5AD3AFFE36B745C49727022D0FA08094-2024-11-24-19-50-33","","1099","","images/causal_sequence/dog_causal/dog_causal_2.png","0","",""
"","","","","","image-button-response","94","901183","0.0-14.0-1.0-2.1","5AD3AFFE36B745C49727022D0FA08094","5AD3AFFE36B745C49727022D0FA08094","97e94290-be3b-4e10-aa59-d4fd16975b19","a0a8f18c-a66e-4ba7-a170-23efbdc67501","{""participantId"":""5AD3AFFE36B745C49727022D0FA08094"",""assignmentId"":""97e94290-be3b-4e10-aa59-d4fd16975b19"",""projectId"":""a0a8f18c-a66e-4ba7-a170-23efbdc67501""}","https://test12345.live/?participantId=5AD3AFFE36B745C49727022D0FA08094&assignmentId=97e94290-be3b-4e10-aa59-d4fd16975b19&projectId=a0a8f18c-a66e-4ba7-a170-23efbdc67501","5AD3AFFE36B745C49727022D0FA08094-2024-11-24-19-50-33","","null","","[]","null","",""
"","","","","","image-button-response","95","905684","0.0-14.0-1.0-0.2","5AD3AFFE36B745C49727022D0FA08094","5AD3AFFE36B745C49727022D0FA08094","97e94290-be3b-4e10-aa59-d4fd16975b19","a0a8f18c-a66e-4ba7-a170-23efbdc67501","{""participantId"":""5AD3AFFE36B745C49727022D0FA08094"",""assignmentId"":""97e94290-be3b-4e10-aa59-d4fd16975b19"",""projectId"":""a0a8f18c-a66e-4ba7-a170-23efbdc67501""}","https://test12345.live/?participantId=5AD3AFFE36B745C49727022D0FA08094&assignmentId=97e94290-be3b-4e10-aa59-d4fd16975b19&projectId=a0a8f18c-a66e-4ba7-a170-23efbdc67501","5AD3AFFE36B745C49727022D0FA08094-2024-11-24-19-50-33","","null","","images/causal_sequence/dog_causal/dog_causal_3.png","null","",""
"","","","","","image-button-response","96","908256","0.0-14.0-1.0-1.2","5AD3AFFE36B745C49727022D0FA08094","5AD3AFFE36B745C49727022D0FA08094","97e94290-be3b-4e10-aa59-d4fd16975b19","a0a8f18c-a66e-4ba7-a170-23efbdc67501","{""participantId"":""5AD3AFFE36B745C49727022D0FA08094"",""assignmentId"":""97e94290-be3b-4e10-aa59-d4fd16975b19"",""projectId"":""a0a8f18c-a66e-4ba7-a170-23efbdc67501""}","https://test12345.live/?participantId=5AD3AFFE36B745C49727022D0FA08094&assignmentId=97e94290-be3b-4e10-aa59-d4fd16975b19&projectId=a0a8f18c-a66e-4ba7-a170-23efbdc67501","5AD3AFFE36B745C49727022D0FA08094-2024-11-24-19-50-33","","2571","","images/causal_sequence/dog_causal/dog_causal_3.png","0","",""
"","","","","","image-button-response","97","910058","0.0-14.0-1.0-2.2","5AD3AFFE36B745C49727022D0FA08094","5AD3AFFE36B745C49727022D0FA08094","97e94290-be3b-4e10-aa59-d4fd16975b19","a0a8f18c-a66e-4ba7-a170-23efbdc67501","{""participantId"":""5AD3AFFE36B745C49727022D0FA08094"",""assignmentId"":""97e94290-be3b-4e10-aa59-d4fd16975b19"",""projectId"":""a0a8f18c-a66e-4ba7-a170-23efbdc67501""}","https://test12345.live/?participantId=5AD3AFFE36B745C49727022D0FA08094&assignmentId=97e94290-be3b-4e10-aa59-d4fd16975b19&projectId=a0a8f18c-a66e-4ba7-a170-23efbdc67501","5AD3AFFE36B745C49727022D0FA08094-2024-11-24-19-50-33","","null","","[]","null","",""
"","","","","","image-button-response","98","914559","0.0-14.0-1.0-0.3","5AD3AFFE36B745C49727022D0FA08094","5AD3AFFE36B745C49727022D0FA08094","97e94290-be3b-4e10-aa59-d4fd16975b19","a0a8f18c-a66e-4ba7-a170-23efbdc67501","{""participantId"":""5AD3AFFE36B745C49727022D0FA08094"",""assignmentId"":""97e94290-be3b-4e10-aa59-d4fd16975b19"",""projectId"":""a0a8f18c-a66e-4ba7-a170-23efbdc67501""}","https://test12345.live/?participantId=5AD3AFFE36B745C49727022D0FA08094&assignmentId=97e94290-be3b-4e10-aa59-d4fd16975b19&projectId=a0a8f18c-a66e-4ba7-a170-23efbdc67501","5AD3AFFE36B745C49727022D0FA08094-2024-11-24-19-50-33","","null","","images/causal_sequence/dog_causal/dog_causal_4.png","null","",""
"","","","","","image-button-response","99","915817","0.0-14.0-1.0-1.3","5AD3AFFE36B745C49727022D0FA08094","5AD3AFFE36B745C49727022D0FA08094","97e94290-be3b-4e10-aa59-d4fd16975b19","a0a8f18c-a66e-4ba7-a170-23efbdc67501","{""participantId"":""5AD3AFFE36B745C49727022D0FA08094"",""assignmentId"":""97e94290-be3b-4e10-aa59-d4fd16975b19"",""projectId"":""a0a8f18c-a66e-4ba7-a170-23efbdc67501""}","https://test12345.live/?participantId=5AD3AFFE36B745C49727022D0FA08094&assignmentId=97e94290-be3b-4e10-aa59-d4fd16975b19&projectId=a0a8f18c-a66e-4ba7-a170-23efbdc67501","5AD3AFFE36B745C49727022D0FA08094-2024-11-24-19-50-33","","1257","","images/causal_sequence/dog_causal/dog_causal_4.png","0","",""
"","","","","","image-button-response","100","917620","0.0-14.0-1.0-2.3","5AD3AFFE36B745C49727022D0FA08094","5AD3AFFE36B745C49727022D0FA08094","97e94290-be3b-4e10-aa59-d4fd16975b19","a0a8f18c-a66e-4ba7-a170-23efbdc67501","{""participantId"":""5AD3AFFE36B745C49727022D0FA08094"",""assignmentId"":""97e94290-be3b-4e10-aa59-d4fd16975b19"",""projectId"":""a0a8f18c-a66e-4ba7-a170-23efbdc67501""}","https://test12345.live/?participantId=5AD3AFFE36B745C49727022D0FA08094&assignmentId=97e94290-be3b-4e10-aa59-d4fd16975b19&projectId=a0a8f18c-a66e-4ba7-a170-23efbdc67501","5AD3AFFE36B745C49727022D0FA08094-2024-11-24-19-50-33","","null","","[]","null","",""
"","","","","","image-button-response","101","922121","0.0-14.0-1.0-0.4","5AD3AFFE36B745C49727022D0FA08094","5AD3AFFE36B745C49727022D0FA08094","97e94290-be3b-4e10-aa59-d4fd16975b19","a0a8f18c-a66e-4ba7-a170-23efbdc67501","{""participantId"":""5AD3AFFE36B745C49727022D0FA08094"",""assignmentId"":""97e94290-be3b-4e10-aa59-d4fd16975b19"",""projectId"":""a0a8f18c-a66e-4ba7-a170-23efbdc67501""}","https://test12345.live/?participantId=5AD3AFFE36B745C49727022D0FA08094&assignmentId=97e94290-be3b-4e10-aa59-d4fd16975b19&projectId=a0a8f18c-a66e-4ba7-a170-23efbdc67501","5AD3AFFE36B745C49727022D0FA08094-2024-11-24-19-50-33","","null","","images/causal_sequence/dog_causal/dog_causal_5.png","null","",""
"","","","","","image-button-response","102","923141","0.0-14.0-1.0-1.4","5AD3AFFE36B745C49727022D0FA08094","5AD3AFFE36B745C49727022D0FA08094","97e94290-be3b-4e10-aa59-d4fd16975b19","a0a8f18c-a66e-4ba7-a170-23efbdc67501","{""participantId"":""5AD3AFFE36B745C49727022D0FA08094"",""assignmentId"":""97e94290-be3b-4e10-aa59-d4fd16975b19"",""projectId"":""a0a8f18c-a66e-4ba7-a170-23efbdc67501""}","https://test12345.live/?participantId=5AD3AFFE36B745C49727022D0FA08094&assignmentId=97e94290-be3b-4e10-aa59-d4fd16975b19&projectId=a0a8f18c-a66e-4ba7-a170-23efbdc67501","5AD3AFFE36B745C49727022D0FA08094-2024-11-24-19-50-33","","1020","","images/causal_sequence/dog_causal/dog_causal_5.png","0","",""
"","","","","","image-button-response","103","924942","0.0-14.0-1.0-2.4","5AD3AFFE36B745C49727022D0FA08094","5AD3AFFE36B745C49727022D0FA08094","97e94290-be3b-4e10-aa59-d4fd16975b19","a0a8f18c-a66e-4ba7-a170-23efbdc67501","{""participantId"":""5AD3AFFE36B745C49727022D0FA08094"",""assignmentId"":""97e94290-be3b-4e10-aa59-d4fd16975b19"",""projectId"":""a0a8f18c-a66e-4ba7-a170-23efbdc67501""}","https://test12345.live/?participantId=5AD3AFFE36B745C49727022D0FA08094&assignmentId=97e94290-be3b-4e10-aa59-d4fd16975b19&projectId=a0a8f18c-a66e-4ba7-a170-23efbdc67501","5AD3AFFE36B745C49727022D0FA08094-2024-11-24-19-50-33","","null","","[]","null","",""
"","","","","","image-button-response","104","929443","0.0-14.0-1.0-0.5","5AD3AFFE36B745C49727022D0FA08094","5AD3AFFE36B745C49727022D0FA08094","97e94290-be3b-4e10-aa59-d4fd16975b19","a0a8f18c-a66e-4ba7-a170-23efbdc67501","{""participantId"":""5AD3AFFE36B745C49727022D0FA08094"",""assignmentId"":""97e94290-be3b-4e10-aa59-d4fd16975b19"",""projectId"":""a0a8f18c-a66e-4ba7-a170-23efbdc67501""}","https://test12345.live/?participantId=5AD3AFFE36B745C49727022D0FA08094&assignmentId=97e94290-be3b-4e10-aa59-d4fd16975b19&projectId=a0a8f18c-a66e-4ba7-a170-23efbdc67501","5AD3AFFE36B745C49727022D0FA08094-2024-11-24-19-50-33","","null","","images/causal_sequence/dog_causal/dog_causal_6.png","null","",""
"","","","","","image-button-response","105","930444","0.0-14.0-1.0-1.5","5AD3AFFE36B745C49727022D0FA08094","5AD3AFFE36B745C49727022D0FA08094","97e94290-be3b-4e10-aa59-d4fd16975b19","a0a8f18c-a66e-4ba7-a170-23efbdc67501","{""participantId"":""5AD3AFFE36B745C49727022D0FA08094"",""assignmentId"":""97e94290-be3b-4e10-aa59-d4fd16975b19"",""projectId"":""a0a8f18c-a66e-4ba7-a170-23efbdc67501""}","https://test12345.live/?participantId=5AD3AFFE36B745C49727022D0FA08094&assignmentId=97e94290-be3b-4e10-aa59-d4fd16975b19&projectId=a0a8f18c-a66e-4ba7-a170-23efbdc67501","5AD3AFFE36B745C49727022D0FA08094-2024-11-24-19-50-33","","1000","","images/causal_sequence/dog_causal/dog_causal_6.png","0","",""
"","","","","","image-button-response","106","932246","0.0-14.0-1.0-2.5","5AD3AFFE36B745C49727022D0FA08094","5AD3AFFE36B745C49727022D0FA08094","97e94290-be3b-4e10-aa59-d4fd16975b19","a0a8f18c-a66e-4ba7-a170-23efbdc67501","{""participantId"":""5AD3AFFE36B745C49727022D0FA08094"",""assignmentId"":""97e94290-be3b-4e10-aa59-d4fd16975b19"",""projectId"":""a0a8f18c-a66e-4ba7-a170-23efbdc67501""}","https://test12345.live/?participantId=5AD3AFFE36B745C49727022D0FA08094&assignmentId=97e94290-be3b-4e10-aa59-d4fd16975b19&projectId=a0a8f18c-a66e-4ba7-a170-23efbdc67501","5AD3AFFE36B745C49727022D0FA08094-2024-11-24-19-50-33","","null","","[]","null","",""
"","","","","","image-button-response","107","936747","0.0-14.0-1.0-0.6","5AD3AFFE36B745C49727022D0FA08094","5AD3AFFE36B745C49727022D0FA08094","97e94290-be3b-4e10-aa59-d4fd16975b19","a0a8f18c-a66e-4ba7-a170-23efbdc67501","{""participantId"":""5AD3AFFE36B745C49727022D0FA08094"",""assignmentId"":""97e94290-be3b-4e10-aa59-d4fd16975b19"",""projectId"":""a0a8f18c-a66e-4ba7-a170-23efbdc67501""}","https://test12345.live/?participantId=5AD3AFFE36B745C49727022D0FA08094&assignmentId=97e94290-be3b-4e10-aa59-d4fd16975b19&projectId=a0a8f18c-a66e-4ba7-a170-23efbdc67501","5AD3AFFE36B745C49727022D0FA08094-2024-11-24-19-50-33","","null","","images/causal_sequence/dog_causal/dog_causal_7.png","null","",""
"","","","","","image-button-response","108","937812","0.0-14.0-1.0-1.6","5AD3AFFE36B745C49727022D0FA08094","5AD3AFFE36B745C49727022D0FA08094","97e94290-be3b-4e10-aa59-d4fd16975b19","a0a8f18c-a66e-4ba7-a170-23efbdc67501","{""participantId"":""5AD3AFFE36B745C49727022D0FA08094"",""assignmentId"":""97e94290-be3b-4e10-aa59-d4fd16975b19"",""projectId"":""a0a8f18c-a66e-4ba7-a170-23efbdc67501""}","https://test12345.live/?participantId=5AD3AFFE36B745C49727022D0FA08094&assignmentId=97e94290-be3b-4e10-aa59-d4fd16975b19&projectId=a0a8f18c-a66e-4ba7-a170-23efbdc67501","5AD3AFFE36B745C49727022D0FA08094-2024-11-24-19-50-33","","1065","","images/causal_sequence/dog_causal/dog_causal_7.png","0","",""
"","","","","","image-button-response","109","939613","0.0-14.0-1.0-2.6","5AD3AFFE36B745C49727022D0FA08094","5AD3AFFE36B745C49727022D0FA08094","97e94290-be3b-4e10-aa59-d4fd16975b19","a0a8f18c-a66e-4ba7-a170-23efbdc67501","{""participantId"":""5AD3AFFE36B745C49727022D0FA08094"",""assignmentId"":""97e94290-be3b-4e10-aa59-d4fd16975b19"",""projectId"":""a0a8f18c-a66e-4ba7-a170-23efbdc67501""}","https://test12345.live/?participantId=5AD3AFFE36B745C49727022D0FA08094&assignmentId=97e94290-be3b-4e10-aa59-d4fd16975b19&projectId=a0a8f18c-a66e-4ba7-a170-23efbdc67501","5AD3AFFE36B745C49727022D0FA08094-2024-11-24-19-50-33","","null","","[]","null","",""
"","","","","","image-button-response","110","944115","0.0-14.0-1.0-0.7","5AD3AFFE36B745C49727022D0FA08094","5AD3AFFE36B745C49727022D0FA08094","97e94290-be3b-4e10-aa59-d4fd16975b19","a0a8f18c-a66e-4ba7-a170-23efbdc67501","{""participantId"":""5AD3AFFE36B745C49727022D0FA08094"",""assignmentId"":""97e94290-be3b-4e10-aa59-d4fd16975b19"",""projectId"":""a0a8f18c-a66e-4ba7-a170-23efbdc67501""}","https://test12345.live/?participantId=5AD3AFFE36B745C49727022D0FA08094&assignmentId=97e94290-be3b-4e10-aa59-d4fd16975b19&projectId=a0a8f18c-a66e-4ba7-a170-23efbdc67501","5AD3AFFE36B745C49727022D0FA08094-2024-11-24-19-50-33","","null","","images/causal_sequence/dog_causal/dog_causal_8.png","null","",""
"","","","","","image-button-response","111","945081","0.0-14.0-1.0-1.7","5AD3AFFE36B745C49727022D0FA08094","5AD3AFFE36B745C49727022D0FA08094","97e94290-be3b-4e10-aa59-d4fd16975b19","a0a8f18c-a66e-4ba7-a170-23efbdc67501","{""participantId"":""5AD3AFFE36B745C49727022D0FA08094"",""assignmentId"":""97e94290-be3b-4e10-aa59-d4fd16975b19"",""projectId"":""a0a8f18c-a66e-4ba7-a170-23efbdc67501""}","https://test12345.live/?participantId=5AD3AFFE36B745C49727022D0FA08094&assignmentId=97e94290-be3b-4e10-aa59-d4fd16975b19&projectId=a0a8f18c-a66e-4ba7-a170-23efbdc67501","5AD3AFFE36B745C49727022D0FA08094-2024-11-24-19-50-33","","965","","images/causal_sequence/dog_causal/dog_causal_8.png","0","",""
"","","","","","image-button-response","112","946882","0.0-14.0-1.0-2.7","5AD3AFFE36B745C49727022D0FA08094","5AD3AFFE36B745C49727022D0FA08094","97e94290-be3b-4e10-aa59-d4fd16975b19","a0a8f18c-a66e-4ba7-a170-23efbdc67501","{""participantId"":""5AD3AFFE36B745C49727022D0FA08094"",""assignmentId"":""97e94290-be3b-4e10-aa59-d4fd16975b19"",""projectId"":""a0a8f18c-a66e-4ba7-a170-23efbdc67501""}","https://test12345.live/?participantId=5AD3AFFE36B745C49727022D0FA08094&assignmentId=97e94290-be3b-4e10-aa59-d4fd16975b19&projectId=a0a8f18c-a66e-4ba7-a170-23efbdc67501","5AD3AFFE36B745C49727022D0FA08094-2024-11-24-19-50-33","","null","","[]","null","",""
"","","","","","image-button-response","113","951383","0.0-14.0-1.0-0.8","5AD3AFFE36B745C49727022D0FA08094","5AD3AFFE36B745C49727022D0FA08094","97e94290-be3b-4e10-aa59-d4fd16975b19","a0a8f18c-a66e-4ba7-a170-23efbdc67501","{""participantId"":""5AD3AFFE36B745C49727022D0FA08094"",""assignmentId"":""97e94290-be3b-4e10-aa59-d4fd16975b19"",""projectId"":""a0a8f18c-a66e-4ba7-a170-23efbdc67501""}","https://test12345.live/?participantId=5AD3AFFE36B745C49727022D0FA08094&assignmentId=97e94290-be3b-4e10-aa59-d4fd16975b19&projectId=a0a8f18c-a66e-4ba7-a170-23efbdc67501","5AD3AFFE36B745C49727022D0FA08094-2024-11-24-19-50-33","","null","","images/causal_sequence/dog_causal/dog_causal_9.png","null","",""
"","","","","","image-button-response","114","952251","0.0-14.0-1.0-1.8","5AD3AFFE36B745C49727022D0FA08094","5AD3AFFE36B745C49727022D0FA08094","97e94290-be3b-4e10-aa59-d4fd16975b19","a0a8f18c-a66e-4ba7-a170-23efbdc67501","{""participantId"":""5AD3AFFE36B745C49727022D0FA08094"",""assignmentId"":""97e94290-be3b-4e10-aa59-d4fd16975b19"",""projectId"":""a0a8f18c-a66e-4ba7-a170-23efbdc67501""}","https://test12345.live/?participantId=5AD3AFFE36B745C49727022D0FA08094&assignmentId=97e94290-be3b-4e10-aa59-d4fd16975b19&projectId=a0a8f18c-a66e-4ba7-a170-23efbdc67501","5AD3AFFE36B745C49727022D0FA08094-2024-11-24-19-50-33","","867","","images/causal_sequence/dog_causal/dog_causal_9.png","0","",""
"","","","","","image-button-response","115","954052","0.0-14.0-1.0-2.8","5AD3AFFE36B745C49727022D0FA08094","5AD3AFFE36B745C49727022D0FA08094","97e94290-be3b-4e10-aa59-d4fd16975b19","a0a8f18c-a66e-4ba7-a170-23efbdc67501","{""participantId"":""5AD3AFFE36B745C49727022D0FA08094"",""assignmentId"":""97e94290-be3b-4e10-aa59-d4fd16975b19"",""projectId"":""a0a8f18c-a66e-4ba7-a170-23efbdc67501""}","https://test12345.live/?participantId=5AD3AFFE36B745C49727022D0FA08094&assignmentId=97e94290-be3b-4e10-aa59-d4fd16975b19&projectId=a0a8f18c-a66e-4ba7-a170-23efbdc67501","5AD3AFFE36B745C49727022D0FA08094-2024-11-24-19-50-33","","null","","[]","null","",""
"","","","","","image-button-response","116","958554","0.0-14.0-1.0-0.9","5AD3AFFE36B745C49727022D0FA08094","5AD3AFFE36B745C49727022D0FA08094","97e94290-be3b-4e10-aa59-d4fd16975b19","a0a8f18c-a66e-4ba7-a170-23efbdc67501","{""participantId"":""5AD3AFFE36B745C49727022D0FA08094"",""assignmentId"":""97e94290-be3b-4e10-aa59-d4fd16975b19"",""projectId"":""a0a8f18c-a66e-4ba7-a170-23efbdc67501""}","https://test12345.live/?participantId=5AD3AFFE36B745C49727022D0FA08094&assignmentId=97e94290-be3b-4e10-aa59-d4fd16975b19&projectId=a0a8f18c-a66e-4ba7-a170-23efbdc67501","5AD3AFFE36B745C49727022D0FA08094-2024-11-24-19-50-33","","null","","images/causal_sequence/dog_causal/dog_causal_ten.png","null","",""
"","","","","","image-button-response","117","959543","0.0-14.0-1.0-1.9","5AD3AFFE36B745C49727022D0FA08094","5AD3AFFE36B745C49727022D0FA08094","97e94290-be3b-4e10-aa59-d4fd16975b19","a0a8f18c-a66e-4ba7-a170-23efbdc67501","{""participantId"":""5AD3AFFE36B745C49727022D0FA08094"",""assignmentId"":""97e94290-be3b-4e10-aa59-d4fd16975b19"",""projectId"":""a0a8f18c-a66e-4ba7-a170-23efbdc67501""}","https://test12345.live/?participantId=5AD3AFFE36B745C49727022D0FA08094&assignmentId=97e94290-be3b-4e10-aa59-d4fd16975b19&projectId=a0a8f18c-a66e-4ba7-a170-23efbdc67501","5AD3AFFE36B745C49727022D0FA08094-2024-11-24-19-50-33","","988","","images/causal_sequence/dog_causal/dog_causal_ten.png","0","",""
"","","","","","image-button-response","118","961344","0.0-14.0-1.0-2.9","5AD3AFFE36B745C49727022D0FA08094","5AD3AFFE36B745C49727022D0FA08094","97e94290-be3b-4e10-aa59-d4fd16975b19","a0a8f18c-a66e-4ba7-a170-23efbdc67501","{""participantId"":""5AD3AFFE36B745C49727022D0FA08094"",""assignmentId"":""97e94290-be3b-4e10-aa59-d4fd16975b19"",""projectId"":""a0a8f18c-a66e-4ba7-a170-23efbdc67501""}","https://test12345.live/?participantId=5AD3AFFE36B745C49727022D0FA08094&assignmentId=97e94290-be3b-4e10-aa59-d4fd16975b19&projectId=a0a8f18c-a66e-4ba7-a170-23efbdc67501","5AD3AFFE36B745C49727022D0FA08094-2024-11-24-19-50-33","","null","","[]","null","",""
"","","","","","html-audio-response","119","1051595","0.0-15.0","5AD3AFFE36B745C49727022D0FA08094","5AD3AFFE36B745C49727022D0FA08094","97e94290-be3b-4e10-aa59-d4fd16975b19","a0a8f18c-a66e-4ba7-a170-23efbdc67501","{""participantId"":""5AD3AFFE36B745C49727022D0FA08094"",""assignmentId"":""97e94290-be3b-4e10-aa59-d4fd16975b19"",""projectId"":""a0a8f18c-a66e-4ba7-a170-23efbdc67501""}","https://test12345.live/?participantId=5AD3AFFE36B745C49727022D0FA08094&assignmentId=97e94290-be3b-4e10-aa59-d4fd16975b19&projectId=a0a8f18c-a66e-4ba7-a170-23efbdc67501","5AD3AFFE36B745C49727022D0FA08094-2024-11-24-19-50-33","","22396","","[""<span style=\""color: red; font-size: 24px\""> NOW RECORDING</span><p>Please say out loud all the images you saw, as many as you can remember. The images can be said in any order.</p>""]","","1","dog_causal"
"","","","","","image-button-response","120","1057599","0.0-16.0-0.0","5AD3AFFE36B745C49727022D0FA08094","5AD3AFFE36B745C49727022D0FA08094","97e94290-be3b-4e10-aa59-d4fd16975b19","a0a8f18c-a66e-4ba7-a170-23efbdc67501","{""participantId"":""5AD3AFFE36B745C49727022D0FA08094"",""assignmentId"":""97e94290-be3b-4e10-aa59-d4fd16975b19"",""projectId"":""a0a8f18c-a66e-4ba7-a170-23efbdc67501""}","https://test12345.live/?participantId=5AD3AFFE36B745C49727022D0FA08094&assignmentId=97e94290-be3b-4e10-aa59-d4fd16975b19&projectId=a0a8f18c-a66e-4ba7-a170-23efbdc67501","5AD3AFFE36B745C49727022D0FA08094-2024-11-24-19-50-33","","null","","images/semantic_sequence/physical_activity_semantic/physical_activity_semantic_0.png","null","",""
"","","","","","image-button-response","121","1062101","0.0-16.0-1.0-0.0","5AD3AFFE36B745C49727022D0FA08094","5AD3AFFE36B745C49727022D0FA08094","97e94290-be3b-4e10-aa59-d4fd16975b19","a0a8f18c-a66e-4ba7-a170-23efbdc67501","{""participantId"":""5AD3AFFE36B745C49727022D0FA08094"",""assignmentId"":""97e94290-be3b-4e10-aa59-d4fd16975b19"",""projectId"":""a0a8f18c-a66e-4ba7-a170-23efbdc67501""}","https://test12345.live/?participantId=5AD3AFFE36B745C49727022D0FA08094&assignmentId=97e94290-be3b-4e10-aa59-d4fd16975b19&projectId=a0a8f18c-a66e-4ba7-a170-23efbdc67501","5AD3AFFE36B745C49727022D0FA08094-2024-11-24-19-50-33","","null","","images/semantic_sequence/physical_activity_semantic/physical_activity_semantic_1.png","null","",""
"","","","","","image-button-response","122","1064503","0.0-16.0-1.0-1.0","5AD3AFFE36B745C49727022D0FA08094","5AD3AFFE36B745C49727022D0FA08094","97e94290-be3b-4e10-aa59-d4fd16975b19","a0a8f18c-a66e-4ba7-a170-23efbdc67501","{""participantId"":""5AD3AFFE36B745C49727022D0FA08094"",""assignmentId"":""97e94290-be3b-4e10-aa59-d4fd16975b19"",""projectId"":""a0a8f18c-a66e-4ba7-a170-23efbdc67501""}","https://test12345.live/?participantId=5AD3AFFE36B745C49727022D0FA08094&assignmentId=97e94290-be3b-4e10-aa59-d4fd16975b19&projectId=a0a8f18c-a66e-4ba7-a170-23efbdc67501","5AD3AFFE36B745C49727022D0FA08094-2024-11-24-19-50-33","","2401","","images/semantic_sequence/physical_activity_semantic/physical_activity_semantic_1.png","0","",""
"","","","","","image-button-response","123","1066305","0.0-16.0-1.0-2.0","5AD3AFFE36B745C49727022D0FA08094","5AD3AFFE36B745C49727022D0FA08094","97e94290-be3b-4e10-aa59-d4fd16975b19","a0a8f18c-a66e-4ba7-a170-23efbdc67501","{""participantId"":""5AD3AFFE36B745C49727022D0FA08094"",""assignmentId"":""97e94290-be3b-4e10-aa59-d4fd16975b19"",""projectId"":""a0a8f18c-a66e-4ba7-a170-23efbdc67501""}","https://test12345.live/?participantId=5AD3AFFE36B745C49727022D0FA08094&assignmentId=97e94290-be3b-4e10-aa59-d4fd16975b19&projectId=a0a8f18c-a66e-4ba7-a170-23efbdc67501","5AD3AFFE36B745C49727022D0FA08094-2024-11-24-19-50-33","","null","","[]","null","",""
"","","","","","image-button-response","124","1070807","0.0-16.0-1.0-0.1","5AD3AFFE36B745C49727022D0FA08094","5AD3AFFE36B745C49727022D0FA08094","97e94290-be3b-4e10-aa59-d4fd16975b19","a0a8f18c-a66e-4ba7-a170-23efbdc67501","{""participantId"":""5AD3AFFE36B745C49727022D0FA08094"",""assignmentId"":""97e94290-be3b-4e10-aa59-d4fd16975b19"",""projectId"":""a0a8f18c-a66e-4ba7-a170-23efbdc67501""}","https://test12345.live/?participantId=5AD3AFFE36B745C49727022D0FA08094&assignmentId=97e94290-be3b-4e10-aa59-d4fd16975b19&projectId=a0a8f18c-a66e-4ba7-a170-23efbdc67501","5AD3AFFE36B745C49727022D0FA08094-2024-11-24-19-50-33","","null","","images/semantic_sequence/physical_activity_semantic/physical_activity_semantic_2.png","null","",""
"","","","","","image-button-response","125","1072383","0.0-16.0-1.0-1.1","5AD3AFFE36B745C49727022D0FA08094","5AD3AFFE36B745C49727022D0FA08094","97e94290-be3b-4e10-aa59-d4fd16975b19","a0a8f18c-a66e-4ba7-a170-23efbdc67501","{""participantId"":""5AD3AFFE36B745C49727022D0FA08094"",""assignmentId"":""97e94290-be3b-4e10-aa59-d4fd16975b19"",""projectId"":""a0a8f18c-a66e-4ba7-a170-23efbdc67501""}","https://test12345.live/?participantId=5AD3AFFE36B745C49727022D0FA08094&assignmentId=97e94290-be3b-4e10-aa59-d4fd16975b19&projectId=a0a8f18c-a66e-4ba7-a170-23efbdc67501","5AD3AFFE36B745C49727022D0FA08094-2024-11-24-19-50-33","","1575","","images/semantic_sequence/physical_activity_semantic/physical_activity_semantic_2.png","0","",""
"","","","","","image-button-response","126","1074185","0.0-16.0-1.0-2.1","5AD3AFFE36B745C49727022D0FA08094","5AD3AFFE36B745C49727022D0FA08094","97e94290-be3b-4e10-aa59-d4fd16975b19","a0a8f18c-a66e-4ba7-a170-23efbdc67501","{""participantId"":""5AD3AFFE36B745C49727022D0FA08094"",""assignmentId"":""97e94290-be3b-4e10-aa59-d4fd16975b19"",""projectId"":""a0a8f18c-a66e-4ba7-a170-23efbdc67501""}","https://test12345.live/?participantId=5AD3AFFE36B745C49727022D0FA08094&assignmentId=97e94290-be3b-4e10-aa59-d4fd16975b19&projectId=a0a8f18c-a66e-4ba7-a170-23efbdc67501","5AD3AFFE36B745C49727022D0FA08094-2024-11-24-19-50-33","","null","","[]","null","",""
"","","","","","image-button-response","127","1078687","0.0-16.0-1.0-0.2","5AD3AFFE36B745C49727022D0FA08094","5AD3AFFE36B745C49727022D0FA08094","97e94290-be3b-4e10-aa59-d4fd16975b19","a0a8f18c-a66e-4ba7-a170-23efbdc67501","{""participantId"":""5AD3AFFE36B745C49727022D0FA08094"",""assignmentId"":""97e94290-be3b-4e10-aa59-d4fd16975b19"",""projectId"":""a0a8f18c-a66e-4ba7-a170-23efbdc67501""}","https://test12345.live/?participantId=5AD3AFFE36B745C49727022D0FA08094&assignmentId=97e94290-be3b-4e10-aa59-d4fd16975b19&projectId=a0a8f18c-a66e-4ba7-a170-23efbdc67501","5AD3AFFE36B745C49727022D0FA08094-2024-11-24-19-50-33","","null","","images/semantic_sequence/physical_activity_semantic/physical_activity_semantic_3.png","null","",""
"","","","","","image-button-response","128","1079678","0.0-16.0-1.0-1.2","5AD3AFFE36B745C49727022D0FA08094","5AD3AFFE36B745C49727022D0FA08094","97e94290-be3b-4e10-aa59-d4fd16975b19","a0a8f18c-a66e-4ba7-a170-23efbdc67501","{""participantId"":""5AD3AFFE36B745C49727022D0FA08094"",""assignmentId"":""97e94290-be3b-4e10-aa59-d4fd16975b19"",""projectId"":""a0a8f18c-a66e-4ba7-a170-23efbdc67501""}","https://test12345.live/?participantId=5AD3AFFE36B745C49727022D0FA08094&assignmentId=97e94290-be3b-4e10-aa59-d4fd16975b19&projectId=a0a8f18c-a66e-4ba7-a170-23efbdc67501","5AD3AFFE36B745C49727022D0FA08094-2024-11-24-19-50-33","","990","","images/semantic_sequence/physical_activity_semantic/physical_activity_semantic_3.png","0","",""
"","","","","","image-button-response","129","1081479","0.0-16.0-1.0-2.2","5AD3AFFE36B745C49727022D0FA08094","5AD3AFFE36B745C49727022D0FA08094","97e94290-be3b-4e10-aa59-d4fd16975b19","a0a8f18c-a66e-4ba7-a170-23efbdc67501","{""participantId"":""5AD3AFFE36B745C49727022D0FA08094"",""assignmentId"":""97e94290-be3b-4e10-aa59-d4fd16975b19"",""projectId"":""a0a8f18c-a66e-4ba7-a170-23efbdc67501""}","https://test12345.live/?participantId=5AD3AFFE36B745C49727022D0FA08094&assignmentId=97e94290-be3b-4e10-aa59-d4fd16975b19&projectId=a0a8f18c-a66e-4ba7-a170-23efbdc67501","5AD3AFFE36B745C49727022D0FA08094-2024-11-24-19-50-33","","null","","[]","null","",""
"","","","","","image-button-response","130","1085981","0.0-16.0-1.0-0.3","5AD3AFFE36B745C49727022D0FA08094","5AD3AFFE36B745C49727022D0FA08094","97e94290-be3b-4e10-aa59-d4fd16975b19","a0a8f18c-a66e-4ba7-a170-23efbdc67501","{""participantId"":""5AD3AFFE36B745C49727022D0FA08094"",""assignmentId"":""97e94290-be3b-4e10-aa59-d4fd16975b19"",""projectId"":""a0a8f18c-a66e-4ba7-a170-23efbdc67501""}","https://test12345.live/?participantId=5AD3AFFE36B745C49727022D0FA08094&assignmentId=97e94290-be3b-4e10-aa59-d4fd16975b19&projectId=a0a8f18c-a66e-4ba7-a170-23efbdc67501","5AD3AFFE36B745C49727022D0FA08094-2024-11-24-19-50-33","","null","","images/semantic_sequence/physical_activity_semantic/physical_activity_semantic_4.png","null","",""
"","","","","","image-button-response","131","1087255","0.0-16.0-1.0-1.3","5AD3AFFE36B745C49727022D0FA08094","5AD3AFFE36B745C49727022D0FA08094","97e94290-be3b-4e10-aa59-d4fd16975b19","a0a8f18c-a66e-4ba7-a170-23efbdc67501","{""participantId"":""5AD3AFFE36B745C49727022D0FA08094"",""assignmentId"":""97e94290-be3b-4e10-aa59-d4fd16975b19"",""projectId"":""a0a8f18c-a66e-4ba7-a170-23efbdc67501""}","https://test12345.live/?participantId=5AD3AFFE36B745C49727022D0FA08094&assignmentId=97e94290-be3b-4e10-aa59-d4fd16975b19&projectId=a0a8f18c-a66e-4ba7-a170-23efbdc67501","5AD3AFFE36B745C49727022D0FA08094-2024-11-24-19-50-33","","1273","","images/semantic_sequence/physical_activity_semantic/physical_activity_semantic_4.png","0","",""
"","","","","","image-button-response","132","1089057","0.0-16.0-1.0-2.3","5AD3AFFE36B745C49727022D0FA08094","5AD3AFFE36B745C49727022D0FA08094","97e94290-be3b-4e10-aa59-d4fd16975b19","a0a8f18c-a66e-4ba7-a170-23efbdc67501","{""participantId"":""5AD3AFFE36B745C49727022D0FA08094"",""assignmentId"":""97e94290-be3b-4e10-aa59-d4fd16975b19"",""projectId"":""a0a8f18c-a66e-4ba7-a170-23efbdc67501""}","https://test12345.live/?participantId=5AD3AFFE36B745C49727022D0FA08094&assignmentId=97e94290-be3b-4e10-aa59-d4fd16975b19&projectId=a0a8f18c-a66e-4ba7-a170-23efbdc67501","5AD3AFFE36B745C49727022D0FA08094-2024-11-24-19-50-33","","null","","[]","null","",""
"","","","","","image-button-response","133","1093558","0.0-16.0-1.0-0.4","5AD3AFFE36B745C49727022D0FA08094","5AD3AFFE36B745C49727022D0FA08094","97e94290-be3b-4e10-aa59-d4fd16975b19","a0a8f18c-a66e-4ba7-a170-23efbdc67501","{""participantId"":""5AD3AFFE36B745C49727022D0FA08094"",""assignmentId"":""97e94290-be3b-4e10-aa59-d4fd16975b19"",""projectId"":""a0a8f18c-a66e-4ba7-a170-23efbdc67501""}","https://test12345.live/?participantId=5AD3AFFE36B745C49727022D0FA08094&assignmentId=97e94290-be3b-4e10-aa59-d4fd16975b19&projectId=a0a8f18c-a66e-4ba7-a170-23efbdc67501","5AD3AFFE36B745C49727022D0FA08094-2024-11-24-19-50-33","","null","","images/semantic_sequence/physical_activity_semantic/physical_activity_semantic_5.png","null","",""
"","","","","","image-button-response","134","1094754","0.0-16.0-1.0-1.4","5AD3AFFE36B745C49727022D0FA08094","5AD3AFFE36B745C49727022D0FA08094","97e94290-be3b-4e10-aa59-d4fd16975b19","a0a8f18c-a66e-4ba7-a170-23efbdc67501","{""participantId"":""5AD3AFFE36B745C49727022D0FA08094"",""assignmentId"":""97e94290-be3b-4e10-aa59-d4fd16975b19"",""projectId"":""a0a8f18c-a66e-4ba7-a170-23efbdc67501""}","https://test12345.live/?participantId=5AD3AFFE36B745C49727022D0FA08094&assignmentId=97e94290-be3b-4e10-aa59-d4fd16975b19&projectId=a0a8f18c-a66e-4ba7-a170-23efbdc67501","5AD3AFFE36B745C49727022D0FA08094-2024-11-24-19-50-33","","1195","","images/semantic_sequence/physical_activity_semantic/physical_activity_semantic_5.png","0","",""
"","","","","","image-button-response","135","1096556","0.0-16.0-1.0-2.4","5AD3AFFE36B745C49727022D0FA08094","5AD3AFFE36B745C49727022D0FA08094","97e94290-be3b-4e10-aa59-d4fd16975b19","a0a8f18c-a66e-4ba7-a170-23efbdc67501","{""participantId"":""5AD3AFFE36B745C49727022D0FA08094"",""assignmentId"":""97e94290-be3b-4e10-aa59-d4fd16975b19"",""projectId"":""a0a8f18c-a66e-4ba7-a170-23efbdc67501""}","https://test12345.live/?participantId=5AD3AFFE36B745C49727022D0FA08094&assignmentId=97e94290-be3b-4e10-aa59-d4fd16975b19&projectId=a0a8f18c-a66e-4ba7-a170-23efbdc67501","5AD3AFFE36B745C49727022D0FA08094-2024-11-24-19-50-33","","null","","[]","null","",""
"","","","","","image-button-response","136","1101058","0.0-16.0-1.0-0.5","5AD3AFFE36B745C49727022D0FA08094","5AD3AFFE36B745C49727022D0FA08094","97e94290-be3b-4e10-aa59-d4fd16975b19","a0a8f18c-a66e-4ba7-a170-23efbdc67501","{""participantId"":""5AD3AFFE36B745C49727022D0FA08094"",""assignmentId"":""97e94290-be3b-4e10-aa59-d4fd16975b19"",""projectId"":""a0a8f18c-a66e-4ba7-a170-23efbdc67501""}","https://test12345.live/?participantId=5AD3AFFE36B745C49727022D0FA08094&assignmentId=97e94290-be3b-4e10-aa59-d4fd16975b19&projectId=a0a8f18c-a66e-4ba7-a170-23efbdc67501","5AD3AFFE36B745C49727022D0FA08094-2024-11-24-19-50-33","","null","","images/semantic_sequence/physical_activity_semantic/physical_activity_semantic_6.png","null","",""
"","","","","","image-button-response","137","1102448","0.0-16.0-1.0-1.5","5AD3AFFE36B745C49727022D0FA08094","5AD3AFFE36B745C49727022D0FA08094","97e94290-be3b-4e10-aa59-d4fd16975b19","a0a8f18c-a66e-4ba7-a170-23efbdc67501","{""participantId"":""5AD3AFFE36B745C49727022D0FA08094"",""assignmentId"":""97e94290-be3b-4e10-aa59-d4fd16975b19"",""projectId"":""a0a8f18c-a66e-4ba7-a170-23efbdc67501""}","https://test12345.live/?participantId=5AD3AFFE36B745C49727022D0FA08094&assignmentId=97e94290-be3b-4e10-aa59-d4fd16975b19&projectId=a0a8f18c-a66e-4ba7-a170-23efbdc67501","5AD3AFFE36B745C49727022D0FA08094-2024-11-24-19-50-33","","1389","","images/semantic_sequence/physical_activity_semantic/physical_activity_semantic_6.png","0","",""
"","","","","","image-button-response","138","1104249","0.0-16.0-1.0-2.5","5AD3AFFE36B745C49727022D0FA08094","5AD3AFFE36B745C49727022D0FA08094","97e94290-be3b-4e10-aa59-d4fd16975b19","a0a8f18c-a66e-4ba7-a170-23efbdc67501","{""participantId"":""5AD3AFFE36B745C49727022D0FA08094"",""assignmentId"":""97e94290-be3b-4e10-aa59-d4fd16975b19"",""projectId"":""a0a8f18c-a66e-4ba7-a170-23efbdc67501""}","https://test12345.live/?participantId=5AD3AFFE36B745C49727022D0FA08094&assignmentId=97e94290-be3b-4e10-aa59-d4fd16975b19&projectId=a0a8f18c-a66e-4ba7-a170-23efbdc67501","5AD3AFFE36B745C49727022D0FA08094-2024-11-24-19-50-33","","null","","[]","null","",""
"","","","","","image-button-response","139","1108751","0.0-16.0-1.0-0.6","5AD3AFFE36B745C49727022D0FA08094","5AD3AFFE36B745C49727022D0FA08094","97e94290-be3b-4e10-aa59-d4fd16975b19","a0a8f18c-a66e-4ba7-a170-23efbdc67501","{""participantId"":""5AD3AFFE36B745C49727022D0FA08094"",""assignmentId"":""97e94290-be3b-4e10-aa59-d4fd16975b19"",""projectId"":""a0a8f18c-a66e-4ba7-a170-23efbdc67501""}","https://test12345.live/?participantId=5AD3AFFE36B745C49727022D0FA08094&assignmentId=97e94290-be3b-4e10-aa59-d4fd16975b19&projectId=a0a8f18c-a66e-4ba7-a170-23efbdc67501","5AD3AFFE36B745C49727022D0FA08094-2024-11-24-19-50-33","","null","","images/semantic_sequence/physical_activity_semantic/physical_activity_semantic_7.png","null","",""
"","","","","","image-button-response","140","1109877","0.0-16.0-1.0-1.6","5AD3AFFE36B745C49727022D0FA08094","5AD3AFFE36B745C49727022D0FA08094","97e94290-be3b-4e10-aa59-d4fd16975b19","a0a8f18c-a66e-4ba7-a170-23efbdc67501","{""participantId"":""5AD3AFFE36B745C49727022D0FA08094"",""assignmentId"":""97e94290-be3b-4e10-aa59-d4fd16975b19"",""projectId"":""a0a8f18c-a66e-4ba7-a170-23efbdc67501""}","https://test12345.live/?participantId=5AD3AFFE36B745C49727022D0FA08094&assignmentId=97e94290-be3b-4e10-aa59-d4fd16975b19&projectId=a0a8f18c-a66e-4ba7-a170-23efbdc67501","5AD3AFFE36B745C49727022D0FA08094-2024-11-24-19-50-33","","1126","","images/semantic_sequence/physical_activity_semantic/physical_activity_semantic_7.png","0","",""
"","","","","","image-button-response","141","1111679","0.0-16.0-1.0-2.6","5AD3AFFE36B745C49727022D0FA08094","5AD3AFFE36B745C49727022D0FA08094","97e94290-be3b-4e10-aa59-d4fd16975b19","a0a8f18c-a66e-4ba7-a170-23efbdc67501","{""participantId"":""5AD3AFFE36B745C49727022D0FA08094"",""assignmentId"":""97e94290-be3b-4e10-aa59-d4fd16975b19"",""projectId"":""a0a8f18c-a66e-4ba7-a170-23efbdc67501""}","https://test12345.live/?participantId=5AD3AFFE36B745C49727022D0FA08094&assignmentId=97e94290-be3b-4e10-aa59-d4fd16975b19&projectId=a0a8f18c-a66e-4ba7-a170-23efbdc67501","5AD3AFFE36B745C49727022D0FA08094-2024-11-24-19-50-33","","null","","[]","null","",""
"","","","","","image-button-response","142","1116179","0.0-16.0-1.0-0.7","5AD3AFFE36B745C49727022D0FA08094","5AD3AFFE36B745C49727022D0FA08094","97e94290-be3b-4e10-aa59-d4fd16975b19","a0a8f18c-a66e-4ba7-a170-23efbdc67501","{""participantId"":""5AD3AFFE36B745C49727022D0FA08094"",""assignmentId"":""97e94290-be3b-4e10-aa59-d4fd16975b19"",""projectId"":""a0a8f18c-a66e-4ba7-a170-23efbdc67501""}","https://test12345.live/?participantId=5AD3AFFE36B745C49727022D0FA08094&assignmentId=97e94290-be3b-4e10-aa59-d4fd16975b19&projectId=a0a8f18c-a66e-4ba7-a170-23efbdc67501","5AD3AFFE36B745C49727022D0FA08094-2024-11-24-19-50-33","","null","","images/semantic_sequence/physical_activity_semantic/physical_activity_semantic_8.png","null","",""
"","","","","","image-button-response","143","1117457","0.0-16.0-1.0-1.7","5AD3AFFE36B745C49727022D0FA08094","5AD3AFFE36B745C49727022D0FA08094","97e94290-be3b-4e10-aa59-d4fd16975b19","a0a8f18c-a66e-4ba7-a170-23efbdc67501","{""participantId"":""5AD3AFFE36B745C49727022D0FA08094"",""assignmentId"":""97e94290-be3b-4e10-aa59-d4fd16975b19"",""projectId"":""a0a8f18c-a66e-4ba7-a170-23efbdc67501""}","https://test12345.live/?participantId=5AD3AFFE36B745C49727022D0FA08094&assignmentId=97e94290-be3b-4e10-aa59-d4fd16975b19&projectId=a0a8f18c-a66e-4ba7-a170-23efbdc67501","5AD3AFFE36B745C49727022D0FA08094-2024-11-24-19-50-33","","1277","","images/semantic_sequence/physical_activity_semantic/physical_activity_semantic_8.png","0","",""
