"success","timeout","failed_images","failed_audio","failed_video","trial_type","trial_index","time_elapsed","internal_node_id","subject","subject_id","study_id","session_id","urlvar","current_url","audio_id","view_history","rt","device_id","stimulus","response","estimated_stimulus_onset","seq_name"
"true","false","[]","[]","[]","preload","0","7699","0.0-0.0","61A13B482CA74777A9B903EA74B0E610","61A13B482CA74777A9B903EA74B0E610","7eeb310e-4482-4f57-b9ce-aceb4b671f77","a0a8f18c-a66e-4ba7-a170-23efbdc67501","{""participantId"":""61A13B482CA74777A9B903EA74B0E610"",""assignmentId"":""7eeb310e-4482-4f57-b9ce-aceb4b671f77"",""projectId"":""a0a8f18c-a66e-4ba7-a170-23efbdc67501""}","https://test12345.live/?participantId=61A13B482CA74777A9B903EA74B0E610&assignmentId=7eeb310e-4482-4f57-b9ce-aceb4b671f77&projectId=a0a8f18c-a66e-4ba7-a170-23efbdc67501","61A13B482CA74777A9B903EA74B0E610-2024-11-24-18-45-07","","","","","","",""
"","","","","","instructions","1","359125","0.0-1.0","61A13B482CA74777A9B903EA74B0E610","61A13B482CA74777A9B903EA74B0E610","7eeb310e-4482-4f57-b9ce-aceb4b671f77","a0a8f18c-a66e-4ba7-a170-23efbdc67501","{""participantId"":""61A13B482CA74777A9B903EA74B0E610"",""assignmentId"":""7eeb310e-4482-4f57-b9ce-aceb4b671f77"",""projectId"":""a0a8f18c-a66e-4ba7-a170-23efbdc67501""}","https://test12345.live/?participantId=61A13B482CA74777A9B903EA74B0E610&assignmentId=7eeb310e-4482-4f57-b9ce-aceb4b671f77&projectId=a0a8f18c-a66e-4ba7-a170-23efbdc67501","61A13B482CA74777A9B903EA74B0E610-2024-11-24-18-45-07","[{""page_index"":0,""viewing_time"":351423}]","351426","","","","",""
"","","","","","instructions","2","365989","0.0-2.0","61A13B482CA74777A9B903EA74B0E610","61A13B482CA74777A9B903EA74B0E610","7eeb310e-4482-4f57-b9ce-aceb4b671f77","a0a8f18c-a66e-4ba7-a170-23efbdc67501","{""participantId"":""61A13B482CA74777A9B903EA74B0E610"",""assignmentId"":""7eeb310e-4482-4f57-b9ce-aceb4b671f77"",""projectId"":""a0a8f18c-a66e-4ba7-a170-23efbdc67501""}","https://test12345.live/?participantId=61A13B482CA74777A9B903EA74B0E610&assignmentId=7eeb310e-4482-4f57-b9ce-aceb4b671f77&projectId=a0a8f18c-a66e-4ba7-a170-23efbdc67501","61A13B482CA74777A9B903EA74B0E610-2024-11-24-18-45-07","[{""page_index"":0,""viewing_time"":6862}]","6862","","","","",""
"true","","","","","fullscreen","3","369274","0.0-3.0","61A13B482CA74777A9B903EA74B0E610","61A13B482CA74777A9B903EA74B0E610","7eeb310e-4482-4f57-b9ce-aceb4b671f77","a0a8f18c-a66e-4ba7-a170-23efbdc67501","{""participantId"":""61A13B482CA74777A9B903EA74B0E610"",""assignmentId"":""7eeb310e-4482-4f57-b9ce-aceb4b671f77"",""projectId"":""a0a8f18c-a66e-4ba7-a170-23efbdc67501""}","https://test12345.live/?participantId=61A13B482CA74777A9B903EA74B0E610&assignmentId=7eeb310e-4482-4f57-b9ce-aceb4b671f77&projectId=a0a8f18c-a66e-4ba7-a170-23efbdc67501","61A13B482CA74777A9B903EA74B0E610-2024-11-24-18-45-07","","2260","","","","",""
"","","","","","initialize-microphone","4","403616","0.0-4.0-0.0","61A13B482CA74777A9B903EA74B0E610","61A13B482CA74777A9B903EA74B0E610","7eeb310e-4482-4f57-b9ce-aceb4b671f77","a0a8f18c-a66e-4ba7-a170-23efbdc67501","{""participantId"":""61A13B482CA74777A9B903EA74B0E610"",""assignmentId"":""7eeb310e-4482-4f57-b9ce-aceb4b671f77"",""projectId"":""a0a8f18c-a66e-4ba7-a170-23efbdc67501""}","https://test12345.live/?participantId=61A13B482CA74777A9B903EA74B0E610&assignmentId=7eeb310e-4482-4f57-b9ce-aceb4b671f77&projectId=a0a8f18c-a66e-4ba7-a170-23efbdc67501","61A13B482CA74777A9B903EA74B0E610-2024-11-24-18-45-07","","","cc79bb45b41406b47972f110eaee4c8b2a1014f5832e8479208a121ac03594f6","","","",""
"","","","","","html-audio-response","5","421271","0.0-4.0-1.0","61A13B482CA74777A9B903EA74B0E610","61A13B482CA74777A9B903EA74B0E610","7eeb310e-4482-4f57-b9ce-aceb4b671f77","a0a8f18c-a66e-4ba7-a170-23efbdc67501","{""participantId"":""61A13B482CA74777A9B903EA74B0E610"",""assignmentId"":""7eeb310e-4482-4f57-b9ce-aceb4b671f77"",""projectId"":""a0a8f18c-a66e-4ba7-a170-23efbdc67501""}","https://test12345.live/?participantId=61A13B482CA74777A9B903EA74B0E610&assignmentId=7eeb310e-4482-4f57-b9ce-aceb4b671f77&projectId=a0a8f18c-a66e-4ba7-a170-23efbdc67501","61A13B482CA74777A9B903EA74B0E610-2024-11-24-18-45-07","","7144","","<span style=""color: red; font-size: 24px""> NOW RECORDING</span>
        <p>Please test Microphone</p>","","13",""
"","","","","","html-button-response","6","424793","0.0-4.0-2.0","61A13B482CA74777A9B903EA74B0E610","61A13B482CA74777A9B903EA74B0E610","7eeb310e-4482-4f57-b9ce-aceb4b671f77","a0a8f18c-a66e-4ba7-a170-23efbdc67501","{""participantId"":""61A13B482CA74777A9B903EA74B0E610"",""assignmentId"":""7eeb310e-4482-4f57-b9ce-aceb4b671f77"",""projectId"":""a0a8f18c-a66e-4ba7-a170-23efbdc67501""}","https://test12345.live/?participantId=61A13B482CA74777A9B903EA74B0E610&assignmentId=7eeb310e-4482-4f57-b9ce-aceb4b671f77&projectId=a0a8f18c-a66e-4ba7-a170-23efbdc67501","61A13B482CA74777A9B903EA74B0E610-2024-11-24-18-45-07","","3519","","<p style=""font-size:48px; color:red;"">Is Microphone OK?</p>","1","",""
"","","","","","instructions","7","455379","0.0-5.0","61A13B482CA74777A9B903EA74B0E610","61A13B482CA74777A9B903EA74B0E610","7eeb310e-4482-4f57-b9ce-aceb4b671f77","a0a8f18c-a66e-4ba7-a170-23efbdc67501","{""participantId"":""61A13B482CA74777A9B903EA74B0E610"",""assignmentId"":""7eeb310e-4482-4f57-b9ce-aceb4b671f77"",""projectId"":""a0a8f18c-a66e-4ba7-a170-23efbdc67501""}","https://test12345.live/?participantId=61A13B482CA74777A9B903EA74B0E610&assignmentId=7eeb310e-4482-4f57-b9ce-aceb4b671f77&projectId=a0a8f18c-a66e-4ba7-a170-23efbdc67501","61A13B482CA74777A9B903EA74B0E610-2024-11-24-18-45-07","[{""page_index"":0,""viewing_time"":17815},{""page_index"":1,""viewing_time"":12767}]","30583","","","","",""
"","","","","","image-button-response","8","461393","0.0-6.0-0.0","61A13B482CA74777A9B903EA74B0E610","61A13B482CA74777A9B903EA74B0E610","7eeb310e-4482-4f57-b9ce-aceb4b671f77","a0a8f18c-a66e-4ba7-a170-23efbdc67501","{""participantId"":""61A13B482CA74777A9B903EA74B0E610"",""assignmentId"":""7eeb310e-4482-4f57-b9ce-aceb4b671f77"",""projectId"":""a0a8f18c-a66e-4ba7-a170-23efbdc67501""}","https://test12345.live/?participantId=61A13B482CA74777A9B903EA74B0E610&assignmentId=7eeb310e-4482-4f57-b9ce-aceb4b671f77&projectId=a0a8f18c-a66e-4ba7-a170-23efbdc67501","61A13B482CA74777A9B903EA74B0E610-2024-11-24-18-45-07","","null","","images/instructions/movie_0.png","null","",""
"","","","","","image-button-response","9","465906","0.0-6.0-1.0-0.0","61A13B482CA74777A9B903EA74B0E610","61A13B482CA74777A9B903EA74B0E610","7eeb310e-4482-4f57-b9ce-aceb4b671f77","a0a8f18c-a66e-4ba7-a170-23efbdc67501","{""participantId"":""61A13B482CA74777A9B903EA74B0E610"",""assignmentId"":""7eeb310e-4482-4f57-b9ce-aceb4b671f77"",""projectId"":""a0a8f18c-a66e-4ba7-a170-23efbdc67501""}","https://test12345.live/?participantId=61A13B482CA74777A9B903EA74B0E610&assignmentId=7eeb310e-4482-4f57-b9ce-aceb4b671f77&projectId=a0a8f18c-a66e-4ba7-a170-23efbdc67501","61A13B482CA74777A9B903EA74B0E610-2024-11-24-18-45-07","","null","","images/instructions/movie_1.png","null","",""
"","","","","","image-button-response","10","469919","0.0-6.0-1.0-1.0","61A13B482CA74777A9B903EA74B0E610","61A13B482CA74777A9B903EA74B0E610","7eeb310e-4482-4f57-b9ce-aceb4b671f77","a0a8f18c-a66e-4ba7-a170-23efbdc67501","{""participantId"":""61A13B482CA74777A9B903EA74B0E610"",""assignmentId"":""7eeb310e-4482-4f57-b9ce-aceb4b671f77"",""projectId"":""a0a8f18c-a66e-4ba7-a170-23efbdc67501""}","https://test12345.live/?participantId=61A13B482CA74777A9B903EA74B0E610&assignmentId=7eeb310e-4482-4f57-b9ce-aceb4b671f77&projectId=a0a8f18c-a66e-4ba7-a170-23efbdc67501","61A13B482CA74777A9B903EA74B0E610-2024-11-24-18-45-07","","null","","images/instructions/movie_1.png","null","",""
"","","","","","image-button-response","11","471726","0.0-6.0-1.0-2.0","61A13B482CA74777A9B903EA74B0E610","61A13B482CA74777A9B903EA74B0E610","7eeb310e-4482-4f57-b9ce-aceb4b671f77","a0a8f18c-a66e-4ba7-a170-23efbdc67501","{""participantId"":""61A13B482CA74777A9B903EA74B0E610"",""assignmentId"":""7eeb310e-4482-4f57-b9ce-aceb4b671f77"",""projectId"":""a0a8f18c-a66e-4ba7-a170-23efbdc67501""}","https://test12345.live/?participantId=61A13B482CA74777A9B903EA74B0E610&assignmentId=7eeb310e-4482-4f57-b9ce-aceb4b671f77&projectId=a0a8f18c-a66e-4ba7-a170-23efbdc67501","61A13B482CA74777A9B903EA74B0E610-2024-11-24-18-45-07","","null","","[]","null","",""
"","","","","","image-button-response","12","476240","0.0-6.0-1.0-0.1","61A13B482CA74777A9B903EA74B0E610","61A13B482CA74777A9B903EA74B0E610","7eeb310e-4482-4f57-b9ce-aceb4b671f77","a0a8f18c-a66e-4ba7-a170-23efbdc67501","{""participantId"":""61A13B482CA74777A9B903EA74B0E610"",""assignmentId"":""7eeb310e-4482-4f57-b9ce-aceb4b671f77"",""projectId"":""a0a8f18c-a66e-4ba7-a170-23efbdc67501""}","https://test12345.live/?participantId=61A13B482CA74777A9B903EA74B0E610&assignmentId=7eeb310e-4482-4f57-b9ce-aceb4b671f77&projectId=a0a8f18c-a66e-4ba7-a170-23efbdc67501","61A13B482CA74777A9B903EA74B0E610-2024-11-24-18-45-07","","null","","images/instructions/movie_2.png","null","",""
"","","","","","image-button-response","13","480248","0.0-6.0-1.0-1.1","61A13B482CA74777A9B903EA74B0E610","61A13B482CA74777A9B903EA74B0E610","7eeb310e-4482-4f57-b9ce-aceb4b671f77","a0a8f18c-a66e-4ba7-a170-23efbdc67501","{""participantId"":""61A13B482CA74777A9B903EA74B0E610"",""assignmentId"":""7eeb310e-4482-4f57-b9ce-aceb4b671f77"",""projectId"":""a0a8f18c-a66e-4ba7-a170-23efbdc67501""}","https://test12345.live/?participantId=61A13B482CA74777A9B903EA74B0E610&assignmentId=7eeb310e-4482-4f57-b9ce-aceb4b671f77&projectId=a0a8f18c-a66e-4ba7-a170-23efbdc67501","61A13B482CA74777A9B903EA74B0E610-2024-11-24-18-45-07","","null","","images/instructions/movie_2.png","null","",""
"","","","","","image-button-response","14","482059","0.0-6.0-1.0-2.1","61A13B482CA74777A9B903EA74B0E610","61A13B482CA74777A9B903EA74B0E610","7eeb310e-4482-4f57-b9ce-aceb4b671f77","a0a8f18c-a66e-4ba7-a170-23efbdc67501","{""participantId"":""61A13B482CA74777A9B903EA74B0E610"",""assignmentId"":""7eeb310e-4482-4f57-b9ce-aceb4b671f77"",""projectId"":""a0a8f18c-a66e-4ba7-a170-23efbdc67501""}","https://test12345.live/?participantId=61A13B482CA74777A9B903EA74B0E610&assignmentId=7eeb310e-4482-4f57-b9ce-aceb4b671f77&projectId=a0a8f18c-a66e-4ba7-a170-23efbdc67501","61A13B482CA74777A9B903EA74B0E610-2024-11-24-18-45-07","","null","","[]","null","",""
"","","","","","image-button-response","15","486571","0.0-6.0-1.0-0.2","61A13B482CA74777A9B903EA74B0E610","61A13B482CA74777A9B903EA74B0E610","7eeb310e-4482-4f57-b9ce-aceb4b671f77","a0a8f18c-a66e-4ba7-a170-23efbdc67501","{""participantId"":""61A13B482CA74777A9B903EA74B0E610"",""assignmentId"":""7eeb310e-4482-4f57-b9ce-aceb4b671f77"",""projectId"":""a0a8f18c-a66e-4ba7-a170-23efbdc67501""}","https://test12345.live/?participantId=61A13B482CA74777A9B903EA74B0E610&assignmentId=7eeb310e-4482-4f57-b9ce-aceb4b671f77&projectId=a0a8f18c-a66e-4ba7-a170-23efbdc67501","61A13B482CA74777A9B903EA74B0E610-2024-11-24-18-45-07","","null","","images/instructions/movie_3.png","null","",""
"","","","","","image-button-response","16","488099","0.0-6.0-1.0-1.2","61A13B482CA74777A9B903EA74B0E610","61A13B482CA74777A9B903EA74B0E610","7eeb310e-4482-4f57-b9ce-aceb4b671f77","a0a8f18c-a66e-4ba7-a170-23efbdc67501","{""participantId"":""61A13B482CA74777A9B903EA74B0E610"",""assignmentId"":""7eeb310e-4482-4f57-b9ce-aceb4b671f77"",""projectId"":""a0a8f18c-a66e-4ba7-a170-23efbdc67501""}","https://test12345.live/?participantId=61A13B482CA74777A9B903EA74B0E610&assignmentId=7eeb310e-4482-4f57-b9ce-aceb4b671f77&projectId=a0a8f18c-a66e-4ba7-a170-23efbdc67501","61A13B482CA74777A9B903EA74B0E610-2024-11-24-18-45-07","","1523","","images/instructions/movie_3.png","0","",""
"","","","","","image-button-response","17","489905","0.0-6.0-1.0-2.2","61A13B482CA74777A9B903EA74B0E610","61A13B482CA74777A9B903EA74B0E610","7eeb310e-4482-4f57-b9ce-aceb4b671f77","a0a8f18c-a66e-4ba7-a170-23efbdc67501","{""participantId"":""61A13B482CA74777A9B903EA74B0E610"",""assignmentId"":""7eeb310e-4482-4f57-b9ce-aceb4b671f77"",""projectId"":""a0a8f18c-a66e-4ba7-a170-23efbdc67501""}","https://test12345.live/?participantId=61A13B482CA74777A9B903EA74B0E610&assignmentId=7eeb310e-4482-4f57-b9ce-aceb4b671f77&projectId=a0a8f18c-a66e-4ba7-a170-23efbdc67501","61A13B482CA74777A9B903EA74B0E610-2024-11-24-18-45-07","","null","","[]","null","",""
"","","","","","image-button-response","18","494410","0.0-6.0-1.0-0.3","61A13B482CA74777A9B903EA74B0E610","61A13B482CA74777A9B903EA74B0E610","7eeb310e-4482-4f57-b9ce-aceb4b671f77","a0a8f18c-a66e-4ba7-a170-23efbdc67501","{""participantId"":""61A13B482CA74777A9B903EA74B0E610"",""assignmentId"":""7eeb310e-4482-4f57-b9ce-aceb4b671f77"",""projectId"":""a0a8f18c-a66e-4ba7-a170-23efbdc67501""}","https://test12345.live/?participantId=61A13B482CA74777A9B903EA74B0E610&assignmentId=7eeb310e-4482-4f57-b9ce-aceb4b671f77&projectId=a0a8f18c-a66e-4ba7-a170-23efbdc67501","61A13B482CA74777A9B903EA74B0E610-2024-11-24-18-45-07","","null","","images/instructions/movie_4.png","null","",""
"","","","","","image-button-response","19","496310","0.0-6.0-1.0-1.3","61A13B482CA74777A9B903EA74B0E610","61A13B482CA74777A9B903EA74B0E610","7eeb310e-4482-4f57-b9ce-aceb4b671f77","a0a8f18c-a66e-4ba7-a170-23efbdc67501","{""participantId"":""61A13B482CA74777A9B903EA74B0E610"",""assignmentId"":""7eeb310e-4482-4f57-b9ce-aceb4b671f77"",""projectId"":""a0a8f18c-a66e-4ba7-a170-23efbdc67501""}","https://test12345.live/?participantId=61A13B482CA74777A9B903EA74B0E610&assignmentId=7eeb310e-4482-4f57-b9ce-aceb4b671f77&projectId=a0a8f18c-a66e-4ba7-a170-23efbdc67501","61A13B482CA74777A9B903EA74B0E610-2024-11-24-18-45-07","","1898","","images/instructions/movie_4.png","0","",""
"","","","","","image-button-response","20","498113","0.0-6.0-1.0-2.3","61A13B482CA74777A9B903EA74B0E610","61A13B482CA74777A9B903EA74B0E610","7eeb310e-4482-4f57-b9ce-aceb4b671f77","a0a8f18c-a66e-4ba7-a170-23efbdc67501","{""participantId"":""61A13B482CA74777A9B903EA74B0E610"",""assignmentId"":""7eeb310e-4482-4f57-b9ce-aceb4b671f77"",""projectId"":""a0a8f18c-a66e-4ba7-a170-23efbdc67501""}","https://test12345.live/?participantId=61A13B482CA74777A9B903EA74B0E610&assignmentId=7eeb310e-4482-4f57-b9ce-aceb4b671f77&projectId=a0a8f18c-a66e-4ba7-a170-23efbdc67501","61A13B482CA74777A9B903EA74B0E610-2024-11-24-18-45-07","","null","","[]","null","",""
"","","","","","instructions","21","511346","0.0-7.0","61A13B482CA74777A9B903EA74B0E610","61A13B482CA74777A9B903EA74B0E610","7eeb310e-4482-4f57-b9ce-aceb4b671f77","a0a8f18c-a66e-4ba7-a170-23efbdc67501","{""participantId"":""61A13B482CA74777A9B903EA74B0E610"",""assignmentId"":""7eeb310e-4482-4f57-b9ce-aceb4b671f77"",""projectId"":""a0a8f18c-a66e-4ba7-a170-23efbdc67501""}","https://test12345.live/?participantId=61A13B482CA74777A9B903EA74B0E610&assignmentId=7eeb310e-4482-4f57-b9ce-aceb4b671f77&projectId=a0a8f18c-a66e-4ba7-a170-23efbdc67501","61A13B482CA74777A9B903EA74B0E610-2024-11-24-18-45-07","[{""page_index"":0,""viewing_time"":11713},{""page_index"":1,""viewing_time"":1520}]","13233","","","","",""
"","","","","","html-audio-response","22","522219","0.0-8.0","61A13B482CA74777A9B903EA74B0E610","61A13B482CA74777A9B903EA74B0E610","7eeb310e-4482-4f57-b9ce-aceb4b671f77","a0a8f18c-a66e-4ba7-a170-23efbdc67501","{""participantId"":""61A13B482CA74777A9B903EA74B0E610"",""assignmentId"":""7eeb310e-4482-4f57-b9ce-aceb4b671f77"",""projectId"":""a0a8f18c-a66e-4ba7-a170-23efbdc67501""}","https://test12345.live/?participantId=61A13B482CA74777A9B903EA74B0E610&assignmentId=7eeb310e-4482-4f57-b9ce-aceb4b671f77&projectId=a0a8f18c-a66e-4ba7-a170-23efbdc67501","61A13B482CA74777A9B903EA74B0E610-2024-11-24-18-45-07","","9198","","[""<span style=\""color: red; font-size: 24px\""> NOW RECORDING</span><p>Please say out loud all the images you saw, as many as you can remember. The images can be said in any order.</p>""]","","3",""
"","","","","","instructions","23","523590","0.0-9.0","61A13B482CA74777A9B903EA74B0E610","61A13B482CA74777A9B903EA74B0E610","7eeb310e-4482-4f57-b9ce-aceb4b671f77","a0a8f18c-a66e-4ba7-a170-23efbdc67501","{""participantId"":""61A13B482CA74777A9B903EA74B0E610"",""assignmentId"":""7eeb310e-4482-4f57-b9ce-aceb4b671f77"",""projectId"":""a0a8f18c-a66e-4ba7-a170-23efbdc67501""}","https://test12345.live/?participantId=61A13B482CA74777A9B903EA74B0E610&assignmentId=7eeb310e-4482-4f57-b9ce-aceb4b671f77&projectId=a0a8f18c-a66e-4ba7-a170-23efbdc67501","61A13B482CA74777A9B903EA74B0E610-2024-11-24-18-45-07","[{""page_index"":0,""viewing_time"":1362}]","1362","","","","",""
"","","","","","image-button-response","24","529596","0.0-10.0-0.0","61A13B482CA74777A9B903EA74B0E610","61A13B482CA74777A9B903EA74B0E610","7eeb310e-4482-4f57-b9ce-aceb4b671f77","a0a8f18c-a66e-4ba7-a170-23efbdc67501","{""participantId"":""61A13B482CA74777A9B903EA74B0E610"",""assignmentId"":""7eeb310e-4482-4f57-b9ce-aceb4b671f77"",""projectId"":""a0a8f18c-a66e-4ba7-a170-23efbdc67501""}","https://test12345.live/?participantId=61A13B482CA74777A9B903EA74B0E610&assignmentId=7eeb310e-4482-4f57-b9ce-aceb4b671f77&projectId=a0a8f18c-a66e-4ba7-a170-23efbdc67501","61A13B482CA74777A9B903EA74B0E610-2024-11-24-18-45-07","","null","","images/causal_sequence/dog_causal/dog_causal_0.png","null","",""
"","","","","","image-button-response","25","534102","0.0-10.0-1.0-0.0","61A13B482CA74777A9B903EA74B0E610","61A13B482CA74777A9B903EA74B0E610","7eeb310e-4482-4f57-b9ce-aceb4b671f77","a0a8f18c-a66e-4ba7-a170-23efbdc67501","{""participantId"":""61A13B482CA74777A9B903EA74B0E610"",""assignmentId"":""7eeb310e-4482-4f57-b9ce-aceb4b671f77"",""projectId"":""a0a8f18c-a66e-4ba7-a170-23efbdc67501""}","https://test12345.live/?participantId=61A13B482CA74777A9B903EA74B0E610&assignmentId=7eeb310e-4482-4f57-b9ce-aceb4b671f77&projectId=a0a8f18c-a66e-4ba7-a170-23efbdc67501","61A13B482CA74777A9B903EA74B0E610-2024-11-24-18-45-07","","null","","images/causal_sequence/dog_causal/dog_causal_1.png","null","",""
"","","","","","image-button-response","26","536929","0.0-10.0-1.0-1.0","61A13B482CA74777A9B903EA74B0E610","61A13B482CA74777A9B903EA74B0E610","7eeb310e-4482-4f57-b9ce-aceb4b671f77","a0a8f18c-a66e-4ba7-a170-23efbdc67501","{""participantId"":""61A13B482CA74777A9B903EA74B0E610"",""assignmentId"":""7eeb310e-4482-4f57-b9ce-aceb4b671f77"",""projectId"":""a0a8f18c-a66e-4ba7-a170-23efbdc67501""}","https://test12345.live/?participantId=61A13B482CA74777A9B903EA74B0E610&assignmentId=7eeb310e-4482-4f57-b9ce-aceb4b671f77&projectId=a0a8f18c-a66e-4ba7-a170-23efbdc67501","61A13B482CA74777A9B903EA74B0E610-2024-11-24-18-45-07","","2825","","images/causal_sequence/dog_causal/dog_causal_1.png","0","",""
"","","","","","image-button-response","27","538735","0.0-10.0-1.0-2.0","61A13B482CA74777A9B903EA74B0E610","61A13B482CA74777A9B903EA74B0E610","7eeb310e-4482-4f57-b9ce-aceb4b671f77","a0a8f18c-a66e-4ba7-a170-23efbdc67501","{""participantId"":""61A13B482CA74777A9B903EA74B0E610"",""assignmentId"":""7eeb310e-4482-4f57-b9ce-aceb4b671f77"",""projectId"":""a0a8f18c-a66e-4ba7-a170-23efbdc67501""}","https://test12345.live/?participantId=61A13B482CA74777A9B903EA74B0E610&assignmentId=7eeb310e-4482-4f57-b9ce-aceb4b671f77&projectId=a0a8f18c-a66e-4ba7-a170-23efbdc67501","61A13B482CA74777A9B903EA74B0E610-2024-11-24-18-45-07","","null","","[]","null","",""
"","","","","","image-button-response","28","543249","0.0-10.0-1.0-0.1","61A13B482CA74777A9B903EA74B0E610","61A13B482CA74777A9B903EA74B0E610","7eeb310e-4482-4f57-b9ce-aceb4b671f77","a0a8f18c-a66e-4ba7-a170-23efbdc67501","{""participantId"":""61A13B482CA74777A9B903EA74B0E610"",""assignmentId"":""7eeb310e-4482-4f57-b9ce-aceb4b671f77"",""projectId"":""a0a8f18c-a66e-4ba7-a170-23efbdc67501""}","https://test12345.live/?participantId=61A13B482CA74777A9B903EA74B0E610&assignmentId=7eeb310e-4482-4f57-b9ce-aceb4b671f77&projectId=a0a8f18c-a66e-4ba7-a170-23efbdc67501","61A13B482CA74777A9B903EA74B0E610-2024-11-24-18-45-07","","null","","images/causal_sequence/dog_causal/dog_causal_2.png","null","",""
"","","","","","image-button-response","29","544880","0.0-10.0-1.0-1.1","61A13B482CA74777A9B903EA74B0E610","61A13B482CA74777A9B903EA74B0E610","7eeb310e-4482-4f57-b9ce-aceb4b671f77","a0a8f18c-a66e-4ba7-a170-23efbdc67501","{""participantId"":""61A13B482CA74777A9B903EA74B0E610"",""assignmentId"":""7eeb310e-4482-4f57-b9ce-aceb4b671f77"",""projectId"":""a0a8f18c-a66e-4ba7-a170-23efbdc67501""}","https://test12345.live/?participantId=61A13B482CA74777A9B903EA74B0E610&assignmentId=7eeb310e-4482-4f57-b9ce-aceb4b671f77&projectId=a0a8f18c-a66e-4ba7-a170-23efbdc67501","61A13B482CA74777A9B903EA74B0E610-2024-11-24-18-45-07","","1629","","images/causal_sequence/dog_causal/dog_causal_2.png","0","",""
"","","","","","image-button-response","30","546692","0.0-10.0-1.0-2.1","61A13B482CA74777A9B903EA74B0E610","61A13B482CA74777A9B903EA74B0E610","7eeb310e-4482-4f57-b9ce-aceb4b671f77","a0a8f18c-a66e-4ba7-a170-23efbdc67501","{""participantId"":""61A13B482CA74777A9B903EA74B0E610"",""assignmentId"":""7eeb310e-4482-4f57-b9ce-aceb4b671f77"",""projectId"":""a0a8f18c-a66e-4ba7-a170-23efbdc67501""}","https://test12345.live/?participantId=61A13B482CA74777A9B903EA74B0E610&assignmentId=7eeb310e-4482-4f57-b9ce-aceb4b671f77&projectId=a0a8f18c-a66e-4ba7-a170-23efbdc67501","61A13B482CA74777A9B903EA74B0E610-2024-11-24-18-45-07","","null","","[]","null","",""
"","","","","","image-button-response","31","551203","0.0-10.0-1.0-0.2","61A13B482CA74777A9B903EA74B0E610","61A13B482CA74777A9B903EA74B0E610","7eeb310e-4482-4f57-b9ce-aceb4b671f77","a0a8f18c-a66e-4ba7-a170-23efbdc67501","{""participantId"":""61A13B482CA74777A9B903EA74B0E610"",""assignmentId"":""7eeb310e-4482-4f57-b9ce-aceb4b671f77"",""projectId"":""a0a8f18c-a66e-4ba7-a170-23efbdc67501""}","https://test12345.live/?participantId=61A13B482CA74777A9B903EA74B0E610&assignmentId=7eeb310e-4482-4f57-b9ce-aceb4b671f77&projectId=a0a8f18c-a66e-4ba7-a170-23efbdc67501","61A13B482CA74777A9B903EA74B0E610-2024-11-24-18-45-07","","null","","images/causal_sequence/dog_causal/dog_causal_3.png","null","",""
"","","","","","image-button-response","32","553030","0.0-10.0-1.0-1.2","61A13B482CA74777A9B903EA74B0E610","61A13B482CA74777A9B903EA74B0E610","7eeb310e-4482-4f57-b9ce-aceb4b671f77","a0a8f18c-a66e-4ba7-a170-23efbdc67501","{""participantId"":""61A13B482CA74777A9B903EA74B0E610"",""assignmentId"":""7eeb310e-4482-4f57-b9ce-aceb4b671f77"",""projectId"":""a0a8f18c-a66e-4ba7-a170-23efbdc67501""}","https://test12345.live/?participantId=61A13B482CA74777A9B903EA74B0E610&assignmentId=7eeb310e-4482-4f57-b9ce-aceb4b671f77&projectId=a0a8f18c-a66e-4ba7-a170-23efbdc67501","61A13B482CA74777A9B903EA74B0E610-2024-11-24-18-45-07","","1824","","images/causal_sequence/dog_causal/dog_causal_3.png","0","",""
"","","","","","image-button-response","33","554835","0.0-10.0-1.0-2.2","61A13B482CA74777A9B903EA74B0E610","61A13B482CA74777A9B903EA74B0E610","7eeb310e-4482-4f57-b9ce-aceb4b671f77","a0a8f18c-a66e-4ba7-a170-23efbdc67501","{""participantId"":""61A13B482CA74777A9B903EA74B0E610"",""assignmentId"":""7eeb310e-4482-4f57-b9ce-aceb4b671f77"",""projectId"":""a0a8f18c-a66e-4ba7-a170-23efbdc67501""}","https://test12345.live/?participantId=61A13B482CA74777A9B903EA74B0E610&assignmentId=7eeb310e-4482-4f57-b9ce-aceb4b671f77&projectId=a0a8f18c-a66e-4ba7-a170-23efbdc67501","61A13B482CA74777A9B903EA74B0E610-2024-11-24-18-45-07","","null","","[]","null","",""
"","","","","","image-button-response","34","559349","0.0-10.0-1.0-0.3","61A13B482CA74777A9B903EA74B0E610","61A13B482CA74777A9B903EA74B0E610","7eeb310e-4482-4f57-b9ce-aceb4b671f77","a0a8f18c-a66e-4ba7-a170-23efbdc67501","{""participantId"":""61A13B482CA74777A9B903EA74B0E610"",""assignmentId"":""7eeb310e-4482-4f57-b9ce-aceb4b671f77"",""projectId"":""a0a8f18c-a66e-4ba7-a170-23efbdc67501""}","https://test12345.live/?participantId=61A13B482CA74777A9B903EA74B0E610&assignmentId=7eeb310e-4482-4f57-b9ce-aceb4b671f77&projectId=a0a8f18c-a66e-4ba7-a170-23efbdc67501","61A13B482CA74777A9B903EA74B0E610-2024-11-24-18-45-07","","null","","images/causal_sequence/dog_causal/dog_causal_4.png","null","",""
"","","","","","image-button-response","35","561021","0.0-10.0-1.0-1.3","61A13B482CA74777A9B903EA74B0E610","61A13B482CA74777A9B903EA74B0E610","7eeb310e-4482-4f57-b9ce-aceb4b671f77","a0a8f18c-a66e-4ba7-a170-23efbdc67501","{""participantId"":""61A13B482CA74777A9B903EA74B0E610"",""assignmentId"":""7eeb310e-4482-4f57-b9ce-aceb4b671f77"",""projectId"":""a0a8f18c-a66e-4ba7-a170-23efbdc67501""}","https://test12345.live/?participantId=61A13B482CA74777A9B903EA74B0E610&assignmentId=7eeb310e-4482-4f57-b9ce-aceb4b671f77&projectId=a0a8f18c-a66e-4ba7-a170-23efbdc67501","61A13B482CA74777A9B903EA74B0E610-2024-11-24-18-45-07","","1670","","images/causal_sequence/dog_causal/dog_causal_4.png","0","",""
"","","","","","image-button-response","36","562825","0.0-10.0-1.0-2.3","61A13B482CA74777A9B903EA74B0E610","61A13B482CA74777A9B903EA74B0E610","7eeb310e-4482-4f57-b9ce-aceb4b671f77","a0a8f18c-a66e-4ba7-a170-23efbdc67501","{""participantId"":""61A13B482CA74777A9B903EA74B0E610"",""assignmentId"":""7eeb310e-4482-4f57-b9ce-aceb4b671f77"",""projectId"":""a0a8f18c-a66e-4ba7-a170-23efbdc67501""}","https://test12345.live/?participantId=61A13B482CA74777A9B903EA74B0E610&assignmentId=7eeb310e-4482-4f57-b9ce-aceb4b671f77&projectId=a0a8f18c-a66e-4ba7-a170-23efbdc67501","61A13B482CA74777A9B903EA74B0E610-2024-11-24-18-45-07","","null","","[]","null","",""
"","","","","","image-button-response","37","567341","0.0-10.0-1.0-0.4","61A13B482CA74777A9B903EA74B0E610","61A13B482CA74777A9B903EA74B0E610","7eeb310e-4482-4f57-b9ce-aceb4b671f77","a0a8f18c-a66e-4ba7-a170-23efbdc67501","{""participantId"":""61A13B482CA74777A9B903EA74B0E610"",""assignmentId"":""7eeb310e-4482-4f57-b9ce-aceb4b671f77"",""projectId"":""a0a8f18c-a66e-4ba7-a170-23efbdc67501""}","https://test12345.live/?participantId=61A13B482CA74777A9B903EA74B0E610&assignmentId=7eeb310e-4482-4f57-b9ce-aceb4b671f77&projectId=a0a8f18c-a66e-4ba7-a170-23efbdc67501","61A13B482CA74777A9B903EA74B0E610-2024-11-24-18-45-07","","null","","images/causal_sequence/dog_causal/dog_causal_5.png","null","",""
"","","","","","image-button-response","38","569161","0.0-10.0-1.0-1.4","61A13B482CA74777A9B903EA74B0E610","61A13B482CA74777A9B903EA74B0E610","7eeb310e-4482-4f57-b9ce-aceb4b671f77","a0a8f18c-a66e-4ba7-a170-23efbdc67501","{""participantId"":""61A13B482CA74777A9B903EA74B0E610"",""assignmentId"":""7eeb310e-4482-4f57-b9ce-aceb4b671f77"",""projectId"":""a0a8f18c-a66e-4ba7-a170-23efbdc67501""}","https://test12345.live/?participantId=61A13B482CA74777A9B903EA74B0E610&assignmentId=7eeb310e-4482-4f57-b9ce-aceb4b671f77&projectId=a0a8f18c-a66e-4ba7-a170-23efbdc67501","61A13B482CA74777A9B903EA74B0E610-2024-11-24-18-45-07","","1817","","images/causal_sequence/dog_causal/dog_causal_5.png","0","",""
"","","","","","image-button-response","39","570969","0.0-10.0-1.0-2.4","61A13B482CA74777A9B903EA74B0E610","61A13B482CA74777A9B903EA74B0E610","7eeb310e-4482-4f57-b9ce-aceb4b671f77","a0a8f18c-a66e-4ba7-a170-23efbdc67501","{""participantId"":""61A13B482CA74777A9B903EA74B0E610"",""assignmentId"":""7eeb310e-4482-4f57-b9ce-aceb4b671f77"",""projectId"":""a0a8f18c-a66e-4ba7-a170-23efbdc67501""}","https://test12345.live/?participantId=61A13B482CA74777A9B903EA74B0E610&assignmentId=7eeb310e-4482-4f57-b9ce-aceb4b671f77&projectId=a0a8f18c-a66e-4ba7-a170-23efbdc67501","61A13B482CA74777A9B903EA74B0E610-2024-11-24-18-45-07","","null","","[]","null","",""
"","","","","","image-button-response","40","575485","0.0-10.0-1.0-0.5","61A13B482CA74777A9B903EA74B0E610","61A13B482CA74777A9B903EA74B0E610","7eeb310e-4482-4f57-b9ce-aceb4b671f77","a0a8f18c-a66e-4ba7-a170-23efbdc67501","{""participantId"":""61A13B482CA74777A9B903EA74B0E610"",""assignmentId"":""7eeb310e-4482-4f57-b9ce-aceb4b671f77"",""projectId"":""a0a8f18c-a66e-4ba7-a170-23efbdc67501""}","https://test12345.live/?participantId=61A13B482CA74777A9B903EA74B0E610&assignmentId=7eeb310e-4482-4f57-b9ce-aceb4b671f77&projectId=a0a8f18c-a66e-4ba7-a170-23efbdc67501","61A13B482CA74777A9B903EA74B0E610-2024-11-24-18-45-07","","null","","images/causal_sequence/dog_causal/dog_causal_6.png","null","",""
"","","","","","image-button-response","41","577026","0.0-10.0-1.0-1.5","61A13B482CA74777A9B903EA74B0E610","61A13B482CA74777A9B903EA74B0E610","7eeb310e-4482-4f57-b9ce-aceb4b671f77","a0a8f18c-a66e-4ba7-a170-23efbdc67501","{""participantId"":""61A13B482CA74777A9B903EA74B0E610"",""assignmentId"":""7eeb310e-4482-4f57-b9ce-aceb4b671f77"",""projectId"":""a0a8f18c-a66e-4ba7-a170-23efbdc67501""}","https://test12345.live/?participantId=61A13B482CA74777A9B903EA74B0E610&assignmentId=7eeb310e-4482-4f57-b9ce-aceb4b671f77&projectId=a0a8f18c-a66e-4ba7-a170-23efbdc67501","61A13B482CA74777A9B903EA74B0E610-2024-11-24-18-45-07","","1537","","images/causal_sequence/dog_causal/dog_causal_6.png","0","",""
"","","","","","image-button-response","42","578831","0.0-10.0-1.0-2.5","61A13B482CA74777A9B903EA74B0E610","61A13B482CA74777A9B903EA74B0E610","7eeb310e-4482-4f57-b9ce-aceb4b671f77","a0a8f18c-a66e-4ba7-a170-23efbdc67501","{""participantId"":""61A13B482CA74777A9B903EA74B0E610"",""assignmentId"":""7eeb310e-4482-4f57-b9ce-aceb4b671f77"",""projectId"":""a0a8f18c-a66e-4ba7-a170-23efbdc67501""}","https://test12345.live/?participantId=61A13B482CA74777A9B903EA74B0E610&assignmentId=7eeb310e-4482-4f57-b9ce-aceb4b671f77&projectId=a0a8f18c-a66e-4ba7-a170-23efbdc67501","61A13B482CA74777A9B903EA74B0E610-2024-11-24-18-45-07","","null","","[]","null","",""
"","","","","","image-button-response","43","583335","0.0-10.0-1.0-0.6","61A13B482CA74777A9B903EA74B0E610","61A13B482CA74777A9B903EA74B0E610","7eeb310e-4482-4f57-b9ce-aceb4b671f77","a0a8f18c-a66e-4ba7-a170-23efbdc67501","{""participantId"":""61A13B482CA74777A9B903EA74B0E610"",""assignmentId"":""7eeb310e-4482-4f57-b9ce-aceb4b671f77"",""projectId"":""a0a8f18c-a66e-4ba7-a170-23efbdc67501""}","https://test12345.live/?participantId=61A13B482CA74777A9B903EA74B0E610&assignmentId=7eeb310e-4482-4f57-b9ce-aceb4b671f77&projectId=a0a8f18c-a66e-4ba7-a170-23efbdc67501","61A13B482CA74777A9B903EA74B0E610-2024-11-24-18-45-07","","null","","images/causal_sequence/dog_causal/dog_causal_7.png","null","",""
"","","","","","image-button-response","44","585131","0.0-10.0-1.0-1.6","61A13B482CA74777A9B903EA74B0E610","61A13B482CA74777A9B903EA74B0E610","7eeb310e-4482-4f57-b9ce-aceb4b671f77","a0a8f18c-a66e-4ba7-a170-23efbdc67501","{""participantId"":""61A13B482CA74777A9B903EA74B0E610"",""assignmentId"":""7eeb310e-4482-4f57-b9ce-aceb4b671f77"",""projectId"":""a0a8f18c-a66e-4ba7-a170-23efbdc67501""}","https://test12345.live/?participantId=61A13B482CA74777A9B903EA74B0E610&assignmentId=7eeb310e-4482-4f57-b9ce-aceb4b671f77&projectId=a0a8f18c-a66e-4ba7-a170-23efbdc67501","61A13B482CA74777A9B903EA74B0E610-2024-11-24-18-45-07","","1794","","images/causal_sequence/dog_causal/dog_causal_7.png","0","",""
"","","","","","image-button-response","45","586933","0.0-10.0-1.0-2.6","61A13B482CA74777A9B903EA74B0E610","61A13B482CA74777A9B903EA74B0E610","7eeb310e-4482-4f57-b9ce-aceb4b671f77","a0a8f18c-a66e-4ba7-a170-23efbdc67501","{""participantId"":""61A13B482CA74777A9B903EA74B0E610"",""assignmentId"":""7eeb310e-4482-4f57-b9ce-aceb4b671f77"",""projectId"":""a0a8f18c-a66e-4ba7-a170-23efbdc67501""}","https://test12345.live/?participantId=61A13B482CA74777A9B903EA74B0E610&assignmentId=7eeb310e-4482-4f57-b9ce-aceb4b671f77&projectId=a0a8f18c-a66e-4ba7-a170-23efbdc67501","61A13B482CA74777A9B903EA74B0E610-2024-11-24-18-45-07","","null","","[]","null","",""
"","","","","","image-button-response","46","591439","0.0-10.0-1.0-0.7","61A13B482CA74777A9B903EA74B0E610","61A13B482CA74777A9B903EA74B0E610","7eeb310e-4482-4f57-b9ce-aceb4b671f77","a0a8f18c-a66e-4ba7-a170-23efbdc67501","{""participantId"":""61A13B482CA74777A9B903EA74B0E610"",""assignmentId"":""7eeb310e-4482-4f57-b9ce-aceb4b671f77"",""projectId"":""a0a8f18c-a66e-4ba7-a170-23efbdc67501""}","https://test12345.live/?participantId=61A13B482CA74777A9B903EA74B0E610&assignmentId=7eeb310e-4482-4f57-b9ce-aceb4b671f77&projectId=a0a8f18c-a66e-4ba7-a170-23efbdc67501","61A13B482CA74777A9B903EA74B0E610-2024-11-24-18-45-07","","null","","images/causal_sequence/dog_causal/dog_causal_8.png","null","",""
"","","","","","image-button-response","47","593681","0.0-10.0-1.0-1.7","61A13B482CA74777A9B903EA74B0E610","61A13B482CA74777A9B903EA74B0E610","7eeb310e-4482-4f57-b9ce-aceb4b671f77","a0a8f18c-a66e-4ba7-a170-23efbdc67501","{""participantId"":""61A13B482CA74777A9B903EA74B0E610"",""assignmentId"":""7eeb310e-4482-4f57-b9ce-aceb4b671f77"",""projectId"":""a0a8f18c-a66e-4ba7-a170-23efbdc67501""}","https://test12345.live/?participantId=61A13B482CA74777A9B903EA74B0E610&assignmentId=7eeb310e-4482-4f57-b9ce-aceb4b671f77&projectId=a0a8f18c-a66e-4ba7-a170-23efbdc67501","61A13B482CA74777A9B903EA74B0E610-2024-11-24-18-45-07","","2240","","images/causal_sequence/dog_causal/dog_causal_8.png","0","",""
"","","","","","image-button-response","48","595489","0.0-10.0-1.0-2.7","61A13B482CA74777A9B903EA74B0E610","61A13B482CA74777A9B903EA74B0E610","7eeb310e-4482-4f57-b9ce-aceb4b671f77","a0a8f18c-a66e-4ba7-a170-23efbdc67501","{""participantId"":""61A13B482CA74777A9B903EA74B0E610"",""assignmentId"":""7eeb310e-4482-4f57-b9ce-aceb4b671f77"",""projectId"":""a0a8f18c-a66e-4ba7-a170-23efbdc67501""}","https://test12345.live/?participantId=61A13B482CA74777A9B903EA74B0E610&assignmentId=7eeb310e-4482-4f57-b9ce-aceb4b671f77&projectId=a0a8f18c-a66e-4ba7-a170-23efbdc67501","61A13B482CA74777A9B903EA74B0E610-2024-11-24-18-45-07","","null","","[]","null","",""
"","","","","","image-button-response","49","600005","0.0-10.0-1.0-0.8","61A13B482CA74777A9B903EA74B0E610","61A13B482CA74777A9B903EA74B0E610","7eeb310e-4482-4f57-b9ce-aceb4b671f77","a0a8f18c-a66e-4ba7-a170-23efbdc67501","{""participantId"":""61A13B482CA74777A9B903EA74B0E610"",""assignmentId"":""7eeb310e-4482-4f57-b9ce-aceb4b671f77"",""projectId"":""a0a8f18c-a66e-4ba7-a170-23efbdc67501""}","https://test12345.live/?participantId=61A13B482CA74777A9B903EA74B0E610&assignmentId=7eeb310e-4482-4f57-b9ce-aceb4b671f77&projectId=a0a8f18c-a66e-4ba7-a170-23efbdc67501","61A13B482CA74777A9B903EA74B0E610-2024-11-24-18-45-07","","null","","images/causal_sequence/dog_causal/dog_causal_9.png","null","",""
"","","","","","image-button-response","50","601581","0.0-10.0-1.0-1.8","61A13B482CA74777A9B903EA74B0E610","61A13B482CA74777A9B903EA74B0E610","7eeb310e-4482-4f57-b9ce-aceb4b671f77","a0a8f18c-a66e-4ba7-a170-23efbdc67501","{""participantId"":""61A13B482CA74777A9B903EA74B0E610"",""assignmentId"":""7eeb310e-4482-4f57-b9ce-aceb4b671f77"",""projectId"":""a0a8f18c-a66e-4ba7-a170-23efbdc67501""}","https://test12345.live/?participantId=61A13B482CA74777A9B903EA74B0E610&assignmentId=7eeb310e-4482-4f57-b9ce-aceb4b671f77&projectId=a0a8f18c-a66e-4ba7-a170-23efbdc67501","61A13B482CA74777A9B903EA74B0E610-2024-11-24-18-45-07","","1574","","images/causal_sequence/dog_causal/dog_causal_9.png","0","",""
"","","","","","image-button-response","51","603385","0.0-10.0-1.0-2.8","61A13B482CA74777A9B903EA74B0E610","61A13B482CA74777A9B903EA74B0E610","7eeb310e-4482-4f57-b9ce-aceb4b671f77","a0a8f18c-a66e-4ba7-a170-23efbdc67501","{""participantId"":""61A13B482CA74777A9B903EA74B0E610"",""assignmentId"":""7eeb310e-4482-4f57-b9ce-aceb4b671f77"",""projectId"":""a0a8f18c-a66e-4ba7-a170-23efbdc67501""}","https://test12345.live/?participantId=61A13B482CA74777A9B903EA74B0E610&assignmentId=7eeb310e-4482-4f57-b9ce-aceb4b671f77&projectId=a0a8f18c-a66e-4ba7-a170-23efbdc67501","61A13B482CA74777A9B903EA74B0E610-2024-11-24-18-45-07","","null","","[]","null","",""
"","","","","","image-button-response","52","607903","0.0-10.0-1.0-0.9","61A13B482CA74777A9B903EA74B0E610","61A13B482CA74777A9B903EA74B0E610","7eeb310e-4482-4f57-b9ce-aceb4b671f77","a0a8f18c-a66e-4ba7-a170-23efbdc67501","{""participantId"":""61A13B482CA74777A9B903EA74B0E610"",""assignmentId"":""7eeb310e-4482-4f57-b9ce-aceb4b671f77"",""projectId"":""a0a8f18c-a66e-4ba7-a170-23efbdc67501""}","https://test12345.live/?participantId=61A13B482CA74777A9B903EA74B0E610&assignmentId=7eeb310e-4482-4f57-b9ce-aceb4b671f77&projectId=a0a8f18c-a66e-4ba7-a170-23efbdc67501","61A13B482CA74777A9B903EA74B0E610-2024-11-24-18-45-07","","null","","images/causal_sequence/dog_causal/dog_causal_ten.png","null","",""
"","","","","","image-button-response","53","609107","0.0-10.0-1.0-1.9","61A13B482CA74777A9B903EA74B0E610","61A13B482CA74777A9B903EA74B0E610","7eeb310e-4482-4f57-b9ce-aceb4b671f77","a0a8f18c-a66e-4ba7-a170-23efbdc67501","{""participantId"":""61A13B482CA74777A9B903EA74B0E610"",""assignmentId"":""7eeb310e-4482-4f57-b9ce-aceb4b671f77"",""projectId"":""a0a8f18c-a66e-4ba7-a170-23efbdc67501""}","https://test12345.live/?participantId=61A13B482CA74777A9B903EA74B0E610&assignmentId=7eeb310e-4482-4f57-b9ce-aceb4b671f77&projectId=a0a8f18c-a66e-4ba7-a170-23efbdc67501","61A13B482CA74777A9B903EA74B0E610-2024-11-24-18-45-07","","1201","","images/causal_sequence/dog_causal/dog_causal_ten.png","0","",""
"","","","","","image-button-response","54","610920","0.0-10.0-1.0-2.9","61A13B482CA74777A9B903EA74B0E610","61A13B482CA74777A9B903EA74B0E610","7eeb310e-4482-4f57-b9ce-aceb4b671f77","a0a8f18c-a66e-4ba7-a170-23efbdc67501","{""participantId"":""61A13B482CA74777A9B903EA74B0E610"",""assignmentId"":""7eeb310e-4482-4f57-b9ce-aceb4b671f77"",""projectId"":""a0a8f18c-a66e-4ba7-a170-23efbdc67501""}","https://test12345.live/?participantId=61A13B482CA74777A9B903EA74B0E610&assignmentId=7eeb310e-4482-4f57-b9ce-aceb4b671f77&projectId=a0a8f18c-a66e-4ba7-a170-23efbdc67501","61A13B482CA74777A9B903EA74B0E610-2024-11-24-18-45-07","","null","","[]","null","",""
"","","","","","html-audio-response","55","632615","0.0-11.0","61A13B482CA74777A9B903EA74B0E610","61A13B482CA74777A9B903EA74B0E610","7eeb310e-4482-4f57-b9ce-aceb4b671f77","a0a8f18c-a66e-4ba7-a170-23efbdc67501","{""participantId"":""61A13B482CA74777A9B903EA74B0E610"",""assignmentId"":""7eeb310e-4482-4f57-b9ce-aceb4b671f77"",""projectId"":""a0a8f18c-a66e-4ba7-a170-23efbdc67501""}","https://test12345.live/?participantId=61A13B482CA74777A9B903EA74B0E610&assignmentId=7eeb310e-4482-4f57-b9ce-aceb4b671f77&projectId=a0a8f18c-a66e-4ba7-a170-23efbdc67501","61A13B482CA74777A9B903EA74B0E610-2024-11-24-18-45-07","","20294","","[""<span style=\""color: red; font-size: 24px\""> NOW RECORDING</span><p>Please say out loud all the images you saw, as many as you can remember. The images can be said in any order.</p>""]","","2","dog_causal"
"","","","","","image-button-response","56","638646","0.0-12.0-0.0","61A13B482CA74777A9B903EA74B0E610","61A13B482CA74777A9B903EA74B0E610","7eeb310e-4482-4f57-b9ce-aceb4b671f77","a0a8f18c-a66e-4ba7-a170-23efbdc67501","{""participantId"":""61A13B482CA74777A9B903EA74B0E610"",""assignmentId"":""7eeb310e-4482-4f57-b9ce-aceb4b671f77"",""projectId"":""a0a8f18c-a66e-4ba7-a170-23efbdc67501""}","https://test12345.live/?participantId=61A13B482CA74777A9B903EA74B0E610&assignmentId=7eeb310e-4482-4f57-b9ce-aceb4b671f77&projectId=a0a8f18c-a66e-4ba7-a170-23efbdc67501","61A13B482CA74777A9B903EA74B0E610-2024-11-24-18-45-07","","null","","images/schematic_sequence/flight_scheme/flight_scheme_0.png","null","",""
"","","","","","image-button-response","57","643158","0.0-12.0-1.0-0.0","61A13B482CA74777A9B903EA74B0E610","61A13B482CA74777A9B903EA74B0E610","7eeb310e-4482-4f57-b9ce-aceb4b671f77","a0a8f18c-a66e-4ba7-a170-23efbdc67501","{""participantId"":""61A13B482CA74777A9B903EA74B0E610"",""assignmentId"":""7eeb310e-4482-4f57-b9ce-aceb4b671f77"",""projectId"":""a0a8f18c-a66e-4ba7-a170-23efbdc67501""}","https://test12345.live/?participantId=61A13B482CA74777A9B903EA74B0E610&assignmentId=7eeb310e-4482-4f57-b9ce-aceb4b671f77&projectId=a0a8f18c-a66e-4ba7-a170-23efbdc67501","61A13B482CA74777A9B903EA74B0E610-2024-11-24-18-45-07","","null","","images/schematic_sequence/flight_scheme/flight_scheme_3.png","null","",""
"","","","","","image-button-response","58","645794","0.0-12.0-1.0-1.0","61A13B482CA74777A9B903EA74B0E610","61A13B482CA74777A9B903EA74B0E610","7eeb310e-4482-4f57-b9ce-aceb4b671f77","a0a8f18c-a66e-4ba7-a170-23efbdc67501","{""participantId"":""61A13B482CA74777A9B903EA74B0E610"",""assignmentId"":""7eeb310e-4482-4f57-b9ce-aceb4b671f77"",""projectId"":""a0a8f18c-a66e-4ba7-a170-23efbdc67501""}","https://test12345.live/?participantId=61A13B482CA74777A9B903EA74B0E610&assignmentId=7eeb310e-4482-4f57-b9ce-aceb4b671f77&projectId=a0a8f18c-a66e-4ba7-a170-23efbdc67501","61A13B482CA74777A9B903EA74B0E610-2024-11-24-18-45-07","","2635","","images/schematic_sequence/flight_scheme/flight_scheme_3.png","0","",""
"","","","","","image-button-response","59","647606","0.0-12.0-1.0-2.0","61A13B482CA74777A9B903EA74B0E610","61A13B482CA74777A9B903EA74B0E610","7eeb310e-4482-4f57-b9ce-aceb4b671f77","a0a8f18c-a66e-4ba7-a170-23efbdc67501","{""participantId"":""61A13B482CA74777A9B903EA74B0E610"",""assignmentId"":""7eeb310e-4482-4f57-b9ce-aceb4b671f77"",""projectId"":""a0a8f18c-a66e-4ba7-a170-23efbdc67501""}","https://test12345.live/?participantId=61A13B482CA74777A9B903EA74B0E610&assignmentId=7eeb310e-4482-4f57-b9ce-aceb4b671f77&projectId=a0a8f18c-a66e-4ba7-a170-23efbdc67501","61A13B482CA74777A9B903EA74B0E610-2024-11-24-18-45-07","","null","","[]","null","",""
"","","","","","image-button-response","60","652121","0.0-12.0-1.0-0.1","61A13B482CA74777A9B903EA74B0E610","61A13B482CA74777A9B903EA74B0E610","7eeb310e-4482-4f57-b9ce-aceb4b671f77","a0a8f18c-a66e-4ba7-a170-23efbdc67501","{""participantId"":""61A13B482CA74777A9B903EA74B0E610"",""assignmentId"":""7eeb310e-4482-4f57-b9ce-aceb4b671f77"",""projectId"":""a0a8f18c-a66e-4ba7-a170-23efbdc67501""}","https://test12345.live/?participantId=61A13B482CA74777A9B903EA74B0E610&assignmentId=7eeb310e-4482-4f57-b9ce-aceb4b671f77&projectId=a0a8f18c-a66e-4ba7-a170-23efbdc67501","61A13B482CA74777A9B903EA74B0E610-2024-11-24-18-45-07","","null","","images/schematic_sequence/flight_scheme/flight_scheme_4.png","null","",""
"","","","","","image-button-response","61","654268","0.0-12.0-1.0-1.1","61A13B482CA74777A9B903EA74B0E610","61A13B482CA74777A9B903EA74B0E610","7eeb310e-4482-4f57-b9ce-aceb4b671f77","a0a8f18c-a66e-4ba7-a170-23efbdc67501","{""participantId"":""61A13B482CA74777A9B903EA74B0E610"",""assignmentId"":""7eeb310e-4482-4f57-b9ce-aceb4b671f77"",""projectId"":""a0a8f18c-a66e-4ba7-a170-23efbdc67501""}","https://test12345.live/?participantId=61A13B482CA74777A9B903EA74B0E610&assignmentId=7eeb310e-4482-4f57-b9ce-aceb4b671f77&projectId=a0a8f18c-a66e-4ba7-a170-23efbdc67501","61A13B482CA74777A9B903EA74B0E610-2024-11-24-18-45-07","","2145","","images/schematic_sequence/flight_scheme/flight_scheme_4.png","0","",""
"","","","","","image-button-response","62","656070","0.0-12.0-1.0-2.1","61A13B482CA74777A9B903EA74B0E610","61A13B482CA74777A9B903EA74B0E610","7eeb310e-4482-4f57-b9ce-aceb4b671f77","a0a8f18c-a66e-4ba7-a170-23efbdc67501","{""participantId"":""61A13B482CA74777A9B903EA74B0E610"",""assignmentId"":""7eeb310e-4482-4f57-b9ce-aceb4b671f77"",""projectId"":""a0a8f18c-a66e-4ba7-a170-23efbdc67501""}","https://test12345.live/?participantId=61A13B482CA74777A9B903EA74B0E610&assignmentId=7eeb310e-4482-4f57-b9ce-aceb4b671f77&projectId=a0a8f18c-a66e-4ba7-a170-23efbdc67501","61A13B482CA74777A9B903EA74B0E610-2024-11-24-18-45-07","","null","","[]","null","",""
"","","","","","image-button-response","63","660576","0.0-12.0-1.0-0.2","61A13B482CA74777A9B903EA74B0E610","61A13B482CA74777A9B903EA74B0E610","7eeb310e-4482-4f57-b9ce-aceb4b671f77","a0a8f18c-a66e-4ba7-a170-23efbdc67501","{""participantId"":""61A13B482CA74777A9B903EA74B0E610"",""assignmentId"":""7eeb310e-4482-4f57-b9ce-aceb4b671f77"",""projectId"":""a0a8f18c-a66e-4ba7-a170-23efbdc67501""}","https://test12345.live/?participantId=61A13B482CA74777A9B903EA74B0E610&assignmentId=7eeb310e-4482-4f57-b9ce-aceb4b671f77&projectId=a0a8f18c-a66e-4ba7-a170-23efbdc67501","61A13B482CA74777A9B903EA74B0E610-2024-11-24-18-45-07","","null","","images/schematic_sequence/flight_scheme/flight_scheme_2.png","null","",""
"","","","","","image-button-response","64","662840","0.0-12.0-1.0-1.2","61A13B482CA74777A9B903EA74B0E610","61A13B482CA74777A9B903EA74B0E610","7eeb310e-4482-4f57-b9ce-aceb4b671f77","a0a8f18c-a66e-4ba7-a170-23efbdc67501","{""participantId"":""61A13B482CA74777A9B903EA74B0E610"",""assignmentId"":""7eeb310e-4482-4f57-b9ce-aceb4b671f77"",""projectId"":""a0a8f18c-a66e-4ba7-a170-23efbdc67501""}","https://test12345.live/?participantId=61A13B482CA74777A9B903EA74B0E610&assignmentId=7eeb310e-4482-4f57-b9ce-aceb4b671f77&projectId=a0a8f18c-a66e-4ba7-a170-23efbdc67501","61A13B482CA74777A9B903EA74B0E610-2024-11-24-18-45-07","","2262","","images/schematic_sequence/flight_scheme/flight_scheme_2.png","1","",""
"","","","","","image-button-response","65","664645","0.0-12.0-1.0-2.2","61A13B482CA74777A9B903EA74B0E610","61A13B482CA74777A9B903EA74B0E610","7eeb310e-4482-4f57-b9ce-aceb4b671f77","a0a8f18c-a66e-4ba7-a170-23efbdc67501","{""participantId"":""61A13B482CA74777A9B903EA74B0E610"",""assignmentId"":""7eeb310e-4482-4f57-b9ce-aceb4b671f77"",""projectId"":""a0a8f18c-a66e-4ba7-a170-23efbdc67501""}","https://test12345.live/?participantId=61A13B482CA74777A9B903EA74B0E610&assignmentId=7eeb310e-4482-4f57-b9ce-aceb4b671f77&projectId=a0a8f18c-a66e-4ba7-a170-23efbdc67501","61A13B482CA74777A9B903EA74B0E610-2024-11-24-18-45-07","","null","","[]","null","",""
"","","","","","image-button-response","66","669149","0.0-12.0-1.0-0.3","61A13B482CA74777A9B903EA74B0E610","61A13B482CA74777A9B903EA74B0E610","7eeb310e-4482-4f57-b9ce-aceb4b671f77","a0a8f18c-a66e-4ba7-a170-23efbdc67501","{""participantId"":""61A13B482CA74777A9B903EA74B0E610"",""assignmentId"":""7eeb310e-4482-4f57-b9ce-aceb4b671f77"",""projectId"":""a0a8f18c-a66e-4ba7-a170-23efbdc67501""}","https://test12345.live/?participantId=61A13B482CA74777A9B903EA74B0E610&assignmentId=7eeb310e-4482-4f57-b9ce-aceb4b671f77&projectId=a0a8f18c-a66e-4ba7-a170-23efbdc67501","61A13B482CA74777A9B903EA74B0E610-2024-11-24-18-45-07","","null","","images/schematic_sequence/flight_scheme/flight_scheme_9.png","null","",""
"","","","","","image-button-response","67","671925","0.0-12.0-1.0-1.3","61A13B482CA74777A9B903EA74B0E610","61A13B482CA74777A9B903EA74B0E610","7eeb310e-4482-4f57-b9ce-aceb4b671f77","a0a8f18c-a66e-4ba7-a170-23efbdc67501","{""participantId"":""61A13B482CA74777A9B903EA74B0E610"",""assignmentId"":""7eeb310e-4482-4f57-b9ce-aceb4b671f77"",""projectId"":""a0a8f18c-a66e-4ba7-a170-23efbdc67501""}","https://test12345.live/?participantId=61A13B482CA74777A9B903EA74B0E610&assignmentId=7eeb310e-4482-4f57-b9ce-aceb4b671f77&projectId=a0a8f18c-a66e-4ba7-a170-23efbdc67501","61A13B482CA74777A9B903EA74B0E610-2024-11-24-18-45-07","","2775","","images/schematic_sequence/flight_scheme/flight_scheme_9.png","1","",""
"","","","","","image-button-response","68","673739","0.0-12.0-1.0-2.3","61A13B482CA74777A9B903EA74B0E610","61A13B482CA74777A9B903EA74B0E610","7eeb310e-4482-4f57-b9ce-aceb4b671f77","a0a8f18c-a66e-4ba7-a170-23efbdc67501","{""participantId"":""61A13B482CA74777A9B903EA74B0E610"",""assignmentId"":""7eeb310e-4482-4f57-b9ce-aceb4b671f77"",""projectId"":""a0a8f18c-a66e-4ba7-a170-23efbdc67501""}","https://test12345.live/?participantId=61A13B482CA74777A9B903EA74B0E610&assignmentId=7eeb310e-4482-4f57-b9ce-aceb4b671f77&projectId=a0a8f18c-a66e-4ba7-a170-23efbdc67501","61A13B482CA74777A9B903EA74B0E610-2024-11-24-18-45-07","","null","","[]","null","",""
"","","","","","image-button-response","69","678251","0.0-12.0-1.0-0.4","61A13B482CA74777A9B903EA74B0E610","61A13B482CA74777A9B903EA74B0E610","7eeb310e-4482-4f57-b9ce-aceb4b671f77","a0a8f18c-a66e-4ba7-a170-23efbdc67501","{""participantId"":""61A13B482CA74777A9B903EA74B0E610"",""assignmentId"":""7eeb310e-4482-4f57-b9ce-aceb4b671f77"",""projectId"":""a0a8f18c-a66e-4ba7-a170-23efbdc67501""}","https://test12345.live/?participantId=61A13B482CA74777A9B903EA74B0E610&assignmentId=7eeb310e-4482-4f57-b9ce-aceb4b671f77&projectId=a0a8f18c-a66e-4ba7-a170-23efbdc67501","61A13B482CA74777A9B903EA74B0E610-2024-11-24-18-45-07","","null","","images/schematic_sequence/flight_scheme/flight_scheme_6.png","null","",""
"","","","","","image-button-response","70","679808","0.0-12.0-1.0-1.4","61A13B482CA74777A9B903EA74B0E610","61A13B482CA74777A9B903EA74B0E610","7eeb310e-4482-4f57-b9ce-aceb4b671f77","a0a8f18c-a66e-4ba7-a170-23efbdc67501","{""participantId"":""61A13B482CA74777A9B903EA74B0E610"",""assignmentId"":""7eeb310e-4482-4f57-b9ce-aceb4b671f77"",""projectId"":""a0a8f18c-a66e-4ba7-a170-23efbdc67501""}","https://test12345.live/?participantId=61A13B482CA74777A9B903EA74B0E610&assignmentId=7eeb310e-4482-4f57-b9ce-aceb4b671f77&projectId=a0a8f18c-a66e-4ba7-a170-23efbdc67501","61A13B482CA74777A9B903EA74B0E610-2024-11-24-18-45-07","","1554","","images/schematic_sequence/flight_scheme/flight_scheme_6.png","1","",""
"","","","","","image-button-response","71","681619","0.0-12.0-1.0-2.4","61A13B482CA74777A9B903EA74B0E610","61A13B482CA74777A9B903EA74B0E610","7eeb310e-4482-4f57-b9ce-aceb4b671f77","a0a8f18c-a66e-4ba7-a170-23efbdc67501","{""participantId"":""61A13B482CA74777A9B903EA74B0E610"",""assignmentId"":""7eeb310e-4482-4f57-b9ce-aceb4b671f77"",""projectId"":""a0a8f18c-a66e-4ba7-a170-23efbdc67501""}","https://test12345.live/?participantId=61A13B482CA74777A9B903EA74B0E610&assignmentId=7eeb310e-4482-4f57-b9ce-aceb4b671f77&projectId=a0a8f18c-a66e-4ba7-a170-23efbdc67501","61A13B482CA74777A9B903EA74B0E610-2024-11-24-18-45-07","","null","","[]","null","",""
"","","","","","image-button-response","72","686129","0.0-12.0-1.0-0.5","61A13B482CA74777A9B903EA74B0E610","61A13B482CA74777A9B903EA74B0E610","7eeb310e-4482-4f57-b9ce-aceb4b671f77","a0a8f18c-a66e-4ba7-a170-23efbdc67501","{""participantId"":""61A13B482CA74777A9B903EA74B0E610"",""assignmentId"":""7eeb310e-4482-4f57-b9ce-aceb4b671f77"",""projectId"":""a0a8f18c-a66e-4ba7-a170-23efbdc67501""}","https://test12345.live/?participantId=61A13B482CA74777A9B903EA74B0E610&assignmentId=7eeb310e-4482-4f57-b9ce-aceb4b671f77&projectId=a0a8f18c-a66e-4ba7-a170-23efbdc67501","61A13B482CA74777A9B903EA74B0E610-2024-11-24-18-45-07","","null","","images/schematic_sequence/flight_scheme/flight_scheme_5.png","null","",""
"","","","","","image-button-response","73","688365","0.0-12.0-1.0-1.5","61A13B482CA74777A9B903EA74B0E610","61A13B482CA74777A9B903EA74B0E610","7eeb310e-4482-4f57-b9ce-aceb4b671f77","a0a8f18c-a66e-4ba7-a170-23efbdc67501","{""participantId"":""61A13B482CA74777A9B903EA74B0E610"",""assignmentId"":""7eeb310e-4482-4f57-b9ce-aceb4b671f77"",""projectId"":""a0a8f18c-a66e-4ba7-a170-23efbdc67501""}","https://test12345.live/?participantId=61A13B482CA74777A9B903EA74B0E610&assignmentId=7eeb310e-4482-4f57-b9ce-aceb4b671f77&projectId=a0a8f18c-a66e-4ba7-a170-23efbdc67501","61A13B482CA74777A9B903EA74B0E610-2024-11-24-18-45-07","","2234","","images/schematic_sequence/flight_scheme/flight_scheme_5.png","0","",""
"","","","","","image-button-response","74","690175","0.0-12.0-1.0-2.5","61A13B482CA74777A9B903EA74B0E610","61A13B482CA74777A9B903EA74B0E610","7eeb310e-4482-4f57-b9ce-aceb4b671f77","a0a8f18c-a66e-4ba7-a170-23efbdc67501","{""participantId"":""61A13B482CA74777A9B903EA74B0E610"",""assignmentId"":""7eeb310e-4482-4f57-b9ce-aceb4b671f77"",""projectId"":""a0a8f18c-a66e-4ba7-a170-23efbdc67501""}","https://test12345.live/?participantId=61A13B482CA74777A9B903EA74B0E610&assignmentId=7eeb310e-4482-4f57-b9ce-aceb4b671f77&projectId=a0a8f18c-a66e-4ba7-a170-23efbdc67501","61A13B482CA74777A9B903EA74B0E610-2024-11-24-18-45-07","","null","","[]","null","",""
"","","","","","image-button-response","75","694691","0.0-12.0-1.0-0.6","61A13B482CA74777A9B903EA74B0E610","61A13B482CA74777A9B903EA74B0E610","7eeb310e-4482-4f57-b9ce-aceb4b671f77","a0a8f18c-a66e-4ba7-a170-23efbdc67501","{""participantId"":""61A13B482CA74777A9B903EA74B0E610"",""assignmentId"":""7eeb310e-4482-4f57-b9ce-aceb4b671f77"",""projectId"":""a0a8f18c-a66e-4ba7-a170-23efbdc67501""}","https://test12345.live/?participantId=61A13B482CA74777A9B903EA74B0E610&assignmentId=7eeb310e-4482-4f57-b9ce-aceb4b671f77&projectId=a0a8f18c-a66e-4ba7-a170-23efbdc67501","61A13B482CA74777A9B903EA74B0E610-2024-11-24-18-45-07","","null","","images/schematic_sequence/flight_scheme/flight_scheme_ten.png","null","",""
"","","","","","image-button-response","76","697631","0.0-12.0-1.0-1.6","61A13B482CA74777A9B903EA74B0E610","61A13B482CA74777A9B903EA74B0E610","7eeb310e-4482-4f57-b9ce-aceb4b671f77","a0a8f18c-a66e-4ba7-a170-23efbdc67501","{""participantId"":""61A13B482CA74777A9B903EA74B0E610"",""assignmentId"":""7eeb310e-4482-4f57-b9ce-aceb4b671f77"",""projectId"":""a0a8f18c-a66e-4ba7-a170-23efbdc67501""}","https://test12345.live/?participantId=61A13B482CA74777A9B903EA74B0E610&assignmentId=7eeb310e-4482-4f57-b9ce-aceb4b671f77&projectId=a0a8f18c-a66e-4ba7-a170-23efbdc67501","61A13B482CA74777A9B903EA74B0E610-2024-11-24-18-45-07","","2938","","images/schematic_sequence/flight_scheme/flight_scheme_ten.png","0","",""
"","","","","","image-button-response","77","699435","0.0-12.0-1.0-2.6","61A13B482CA74777A9B903EA74B0E610","61A13B482CA74777A9B903EA74B0E610","7eeb310e-4482-4f57-b9ce-aceb4b671f77","a0a8f18c-a66e-4ba7-a170-23efbdc67501","{""participantId"":""61A13B482CA74777A9B903EA74B0E610"",""assignmentId"":""7eeb310e-4482-4f57-b9ce-aceb4b671f77"",""projectId"":""a0a8f18c-a66e-4ba7-a170-23efbdc67501""}","https://test12345.live/?participantId=61A13B482CA74777A9B903EA74B0E610&assignmentId=7eeb310e-4482-4f57-b9ce-aceb4b671f77&projectId=a0a8f18c-a66e-4ba7-a170-23efbdc67501","61A13B482CA74777A9B903EA74B0E610-2024-11-24-18-45-07","","null","","[]","null","",""
"","","","","","image-button-response","78","703941","0.0-12.0-1.0-0.7","61A13B482CA74777A9B903EA74B0E610","61A13B482CA74777A9B903EA74B0E610","7eeb310e-4482-4f57-b9ce-aceb4b671f77","a0a8f18c-a66e-4ba7-a170-23efbdc67501","{""participantId"":""61A13B482CA74777A9B903EA74B0E610"",""assignmentId"":""7eeb310e-4482-4f57-b9ce-aceb4b671f77"",""projectId"":""a0a8f18c-a66e-4ba7-a170-23efbdc67501""}","https://test12345.live/?participantId=61A13B482CA74777A9B903EA74B0E610&assignmentId=7eeb310e-4482-4f57-b9ce-aceb4b671f77&projectId=a0a8f18c-a66e-4ba7-a170-23efbdc67501","61A13B482CA74777A9B903EA74B0E610-2024-11-24-18-45-07","","null","","images/schematic_sequence/flight_scheme/flight_scheme_7.png","null","",""
"","","","","","image-button-response","79","705804","0.0-12.0-1.0-1.7","61A13B482CA74777A9B903EA74B0E610","61A13B482CA74777A9B903EA74B0E610","7eeb310e-4482-4f57-b9ce-aceb4b671f77","a0a8f18c-a66e-4ba7-a170-23efbdc67501","{""participantId"":""61A13B482CA74777A9B903EA74B0E610"",""assignmentId"":""7eeb310e-4482-4f57-b9ce-aceb4b671f77"",""projectId"":""a0a8f18c-a66e-4ba7-a170-23efbdc67501""}","https://test12345.live/?participantId=61A13B482CA74777A9B903EA74B0E610&assignmentId=7eeb310e-4482-4f57-b9ce-aceb4b671f77&projectId=a0a8f18c-a66e-4ba7-a170-23efbdc67501","61A13B482CA74777A9B903EA74B0E610-2024-11-24-18-45-07","","1861","","images/schematic_sequence/flight_scheme/flight_scheme_7.png","1","",""
"","","","","","image-button-response","80","707619","0.0-12.0-1.0-2.7","61A13B482CA74777A9B903EA74B0E610","61A13B482CA74777A9B903EA74B0E610","7eeb310e-4482-4f57-b9ce-aceb4b671f77","a0a8f18c-a66e-4ba7-a170-23efbdc67501","{""participantId"":""61A13B482CA74777A9B903EA74B0E610"",""assignmentId"":""7eeb310e-4482-4f57-b9ce-aceb4b671f77"",""projectId"":""a0a8f18c-a66e-4ba7-a170-23efbdc67501""}","https://test12345.live/?participantId=61A13B482CA74777A9B903EA74B0E610&assignmentId=7eeb310e-4482-4f57-b9ce-aceb4b671f77&projectId=a0a8f18c-a66e-4ba7-a170-23efbdc67501","61A13B482CA74777A9B903EA74B0E610-2024-11-24-18-45-07","","null","","[]","null","",""
"","","","","","image-button-response","81","712124","0.0-12.0-1.0-0.8","61A13B482CA74777A9B903EA74B0E610","61A13B482CA74777A9B903EA74B0E610","7eeb310e-4482-4f57-b9ce-aceb4b671f77","a0a8f18c-a66e-4ba7-a170-23efbdc67501","{""participantId"":""61A13B482CA74777A9B903EA74B0E610"",""assignmentId"":""7eeb310e-4482-4f57-b9ce-aceb4b671f77"",""projectId"":""a0a8f18c-a66e-4ba7-a170-23efbdc67501""}","https://test12345.live/?participantId=61A13B482CA74777A9B903EA74B0E610&assignmentId=7eeb310e-4482-4f57-b9ce-aceb4b671f77&projectId=a0a8f18c-a66e-4ba7-a170-23efbdc67501","61A13B482CA74777A9B903EA74B0E610-2024-11-24-18-45-07","","null","","images/schematic_sequence/flight_scheme/flight_scheme_1.png","null","",""
"","","","","","image-button-response","82","715611","0.0-12.0-1.0-1.8","61A13B482CA74777A9B903EA74B0E610","61A13B482CA74777A9B903EA74B0E610","7eeb310e-4482-4f57-b9ce-aceb4b671f77","a0a8f18c-a66e-4ba7-a170-23efbdc67501","{""participantId"":""61A13B482CA74777A9B903EA74B0E610"",""assignmentId"":""7eeb310e-4482-4f57-b9ce-aceb4b671f77"",""projectId"":""a0a8f18c-a66e-4ba7-a170-23efbdc67501""}","https://test12345.live/?participantId=61A13B482CA74777A9B903EA74B0E610&assignmentId=7eeb310e-4482-4f57-b9ce-aceb4b671f77&projectId=a0a8f18c-a66e-4ba7-a170-23efbdc67501","61A13B482CA74777A9B903EA74B0E610-2024-11-24-18-45-07","","3485","","images/schematic_sequence/flight_scheme/flight_scheme_1.png","0","",""
"","","","","","image-button-response","83","717421","0.0-12.0-1.0-2.8","61A13B482CA74777A9B903EA74B0E610","61A13B482CA74777A9B903EA74B0E610","7eeb310e-4482-4f57-b9ce-aceb4b671f77","a0a8f18c-a66e-4ba7-a170-23efbdc67501","{""participantId"":""61A13B482CA74777A9B903EA74B0E610"",""assignmentId"":""7eeb310e-4482-4f57-b9ce-aceb4b671f77"",""projectId"":""a0a8f18c-a66e-4ba7-a170-23efbdc67501""}","https://test12345.live/?participantId=61A13B482CA74777A9B903EA74B0E610&assignmentId=7eeb310e-4482-4f57-b9ce-aceb4b671f77&projectId=a0a8f18c-a66e-4ba7-a170-23efbdc67501","61A13B482CA74777A9B903EA74B0E610-2024-11-24-18-45-07","","null","","[]","null","",""
"","","","","","image-button-response","84","721939","0.0-12.0-1.0-0.9","61A13B482CA74777A9B903EA74B0E610","61A13B482CA74777A9B903EA74B0E610","7eeb310e-4482-4f57-b9ce-aceb4b671f77","a0a8f18c-a66e-4ba7-a170-23efbdc67501","{""participantId"":""61A13B482CA74777A9B903EA74B0E610"",""assignmentId"":""7eeb310e-4482-4f57-b9ce-aceb4b671f77"",""projectId"":""a0a8f18c-a66e-4ba7-a170-23efbdc67501""}","https://test12345.live/?participantId=61A13B482CA74777A9B903EA74B0E610&assignmentId=7eeb310e-4482-4f57-b9ce-aceb4b671f77&projectId=a0a8f18c-a66e-4ba7-a170-23efbdc67501","61A13B482CA74777A9B903EA74B0E610-2024-11-24-18-45-07","","null","","images/schematic_sequence/flight_scheme/flight_scheme_8.png","null","",""
"","","","","","image-button-response","85","723814","0.0-12.0-1.0-1.9","61A13B482CA74777A9B903EA74B0E610","61A13B482CA74777A9B903EA74B0E610","7eeb310e-4482-4f57-b9ce-aceb4b671f77","a0a8f18c-a66e-4ba7-a170-23efbdc67501","{""participantId"":""61A13B482CA74777A9B903EA74B0E610"",""assignmentId"":""7eeb310e-4482-4f57-b9ce-aceb4b671f77"",""projectId"":""a0a8f18c-a66e-4ba7-a170-23efbdc67501""}","https://test12345.live/?participantId=61A13B482CA74777A9B903EA74B0E610&assignmentId=7eeb310e-4482-4f57-b9ce-aceb4b671f77&projectId=a0a8f18c-a66e-4ba7-a170-23efbdc67501","61A13B482CA74777A9B903EA74B0E610-2024-11-24-18-45-07","","1873","","images/schematic_sequence/flight_scheme/flight_scheme_8.png","1","",""
"","","","","","image-button-response","86","725629","0.0-12.0-1.0-2.9","61A13B482CA74777A9B903EA74B0E610","61A13B482CA74777A9B903EA74B0E610","7eeb310e-4482-4f57-b9ce-aceb4b671f77","a0a8f18c-a66e-4ba7-a170-23efbdc67501","{""participantId"":""61A13B482CA74777A9B903EA74B0E610"",""assignmentId"":""7eeb310e-4482-4f57-b9ce-aceb4b671f77"",""projectId"":""a0a8f18c-a66e-4ba7-a170-23efbdc67501""}","https://test12345.live/?participantId=61A13B482CA74777A9B903EA74B0E610&assignmentId=7eeb310e-4482-4f57-b9ce-aceb4b671f77&projectId=a0a8f18c-a66e-4ba7-a170-23efbdc67501","61A13B482CA74777A9B903EA74B0E610-2024-11-24-18-45-07","","null","","[]","null","",""
"","","","","","html-audio-response","87","745296","0.0-13.0","61A13B482CA74777A9B903EA74B0E610","61A13B482CA74777A9B903EA74B0E610","7eeb310e-4482-4f57-b9ce-aceb4b671f77","a0a8f18c-a66e-4ba7-a170-23efbdc67501","{""participantId"":""61A13B482CA74777A9B903EA74B0E610"",""assignmentId"":""7eeb310e-4482-4f57-b9ce-aceb4b671f77"",""projectId"":""a0a8f18c-a66e-4ba7-a170-23efbdc67501""}","https://test12345.live/?participantId=61A13B482CA74777A9B903EA74B0E610&assignmentId=7eeb310e-4482-4f57-b9ce-aceb4b671f77&projectId=a0a8f18c-a66e-4ba7-a170-23efbdc67501","61A13B482CA74777A9B903EA74B0E610-2024-11-24-18-45-07","","17854","","[""<span style=\""color: red; font-size: 24px\""> NOW RECORDING</span><p>Please say out loud all the images you saw, as many as you can remember. The images can be said in any order.</p>""]","","2","flight_scheme"
"","","","","","image-button-response","88","751329","0.0-14.0-0.0","61A13B482CA74777A9B903EA74B0E610","61A13B482CA74777A9B903EA74B0E610","7eeb310e-4482-4f57-b9ce-aceb4b671f77","a0a8f18c-a66e-4ba7-a170-23efbdc67501","{""participantId"":""61A13B482CA74777A9B903EA74B0E610"",""assignmentId"":""7eeb310e-4482-4f57-b9ce-aceb4b671f77"",""projectId"":""a0a8f18c-a66e-4ba7-a170-23efbdc67501""}","https://test12345.live/?participantId=61A13B482CA74777A9B903EA74B0E610&assignmentId=7eeb310e-4482-4f57-b9ce-aceb4b671f77&projectId=a0a8f18c-a66e-4ba7-a170-23efbdc67501","61A13B482CA74777A9B903EA74B0E610-2024-11-24-18-45-07","","null","","images/causal_sequence/museum_causal/museum_causal_0.png","null","",""
"","","","","","image-button-response","89","755835","0.0-14.0-1.0-0.0","61A13B482CA74777A9B903EA74B0E610","61A13B482CA74777A9B903EA74B0E610","7eeb310e-4482-4f57-b9ce-aceb4b671f77","a0a8f18c-a66e-4ba7-a170-23efbdc67501","{""participantId"":""61A13B482CA74777A9B903EA74B0E610"",""assignmentId"":""7eeb310e-4482-4f57-b9ce-aceb4b671f77"",""projectId"":""a0a8f18c-a66e-4ba7-a170-23efbdc67501""}","https://test12345.live/?participantId=61A13B482CA74777A9B903EA74B0E610&assignmentId=7eeb310e-4482-4f57-b9ce-aceb4b671f77&projectId=a0a8f18c-a66e-4ba7-a170-23efbdc67501","61A13B482CA74777A9B903EA74B0E610-2024-11-24-18-45-07","","null","","images/causal_sequence/museum_causal/museum_causal_1.png","null","",""
"","","","","","image-button-response","90","758126","0.0-14.0-1.0-1.0","61A13B482CA74777A9B903EA74B0E610","61A13B482CA74777A9B903EA74B0E610","7eeb310e-4482-4f57-b9ce-aceb4b671f77","a0a8f18c-a66e-4ba7-a170-23efbdc67501","{""participantId"":""61A13B482CA74777A9B903EA74B0E610"",""assignmentId"":""7eeb310e-4482-4f57-b9ce-aceb4b671f77"",""projectId"":""a0a8f18c-a66e-4ba7-a170-23efbdc67501""}","https://test12345.live/?participantId=61A13B482CA74777A9B903EA74B0E610&assignmentId=7eeb310e-4482-4f57-b9ce-aceb4b671f77&projectId=a0a8f18c-a66e-4ba7-a170-23efbdc67501","61A13B482CA74777A9B903EA74B0E610-2024-11-24-18-45-07","","2287","","images/causal_sequence/museum_causal/museum_causal_1.png","0","",""
"","","","","","image-button-response","91","759929","0.0-14.0-1.0-2.0","61A13B482CA74777A9B903EA74B0E610","61A13B482CA74777A9B903EA74B0E610","7eeb310e-4482-4f57-b9ce-aceb4b671f77","a0a8f18c-a66e-4ba7-a170-23efbdc67501","{""participantId"":""61A13B482CA74777A9B903EA74B0E610"",""assignmentId"":""7eeb310e-4482-4f57-b9ce-aceb4b671f77"",""projectId"":""a0a8f18c-a66e-4ba7-a170-23efbdc67501""}","https://test12345.live/?participantId=61A13B482CA74777A9B903EA74B0E610&assignmentId=7eeb310e-4482-4f57-b9ce-aceb4b671f77&projectId=a0a8f18c-a66e-4ba7-a170-23efbdc67501","61A13B482CA74777A9B903EA74B0E610-2024-11-24-18-45-07","","null","","[]","null","",""
"","","","","","image-button-response","92","764438","0.0-14.0-1.0-0.1","61A13B482CA74777A9B903EA74B0E610","61A13B482CA74777A9B903EA74B0E610","7eeb310e-4482-4f57-b9ce-aceb4b671f77","a0a8f18c-a66e-4ba7-a170-23efbdc67501","{""participantId"":""61A13B482CA74777A9B903EA74B0E610"",""assignmentId"":""7eeb310e-4482-4f57-b9ce-aceb4b671f77"",""projectId"":""a0a8f18c-a66e-4ba7-a170-23efbdc67501""}","https://test12345.live/?participantId=61A13B482CA74777A9B903EA74B0E610&assignmentId=7eeb310e-4482-4f57-b9ce-aceb4b671f77&projectId=a0a8f18c-a66e-4ba7-a170-23efbdc67501","61A13B482CA74777A9B903EA74B0E610-2024-11-24-18-45-07","","null","","images/causal_sequence/museum_causal/museum_causal_2.png","null","",""
"","","","","","image-button-response","93","766175","0.0-14.0-1.0-1.1","61A13B482CA74777A9B903EA74B0E610","61A13B482CA74777A9B903EA74B0E610","7eeb310e-4482-4f57-b9ce-aceb4b671f77","a0a8f18c-a66e-4ba7-a170-23efbdc67501","{""participantId"":""61A13B482CA74777A9B903EA74B0E610"",""assignmentId"":""7eeb310e-4482-4f57-b9ce-aceb4b671f77"",""projectId"":""a0a8f18c-a66e-4ba7-a170-23efbdc67501""}","https://test12345.live/?participantId=61A13B482CA74777A9B903EA74B0E610&assignmentId=7eeb310e-4482-4f57-b9ce-aceb4b671f77&projectId=a0a8f18c-a66e-4ba7-a170-23efbdc67501","61A13B482CA74777A9B903EA74B0E610-2024-11-24-18-45-07","","1735","","images/causal_sequence/museum_causal/museum_causal_2.png","1","",""
"","","","","","image-button-response","94","767985","0.0-14.0-1.0-2.1","61A13B482CA74777A9B903EA74B0E610","61A13B482CA74777A9B903EA74B0E610","7eeb310e-4482-4f57-b9ce-aceb4b671f77","a0a8f18c-a66e-4ba7-a170-23efbdc67501","{""participantId"":""61A13B482CA74777A9B903EA74B0E610"",""assignmentId"":""7eeb310e-4482-4f57-b9ce-aceb4b671f77"",""projectId"":""a0a8f18c-a66e-4ba7-a170-23efbdc67501""}","https://test12345.live/?participantId=61A13B482CA74777A9B903EA74B0E610&assignmentId=7eeb310e-4482-4f57-b9ce-aceb4b671f77&projectId=a0a8f18c-a66e-4ba7-a170-23efbdc67501","61A13B482CA74777A9B903EA74B0E610-2024-11-24-18-45-07","","null","","[]","null","",""
"","","","","","image-button-response","95","772495","0.0-14.0-1.0-0.2","61A13B482CA74777A9B903EA74B0E610","61A13B482CA74777A9B903EA74B0E610","7eeb310e-4482-4f57-b9ce-aceb4b671f77","a0a8f18c-a66e-4ba7-a170-23efbdc67501","{""participantId"":""61A13B482CA74777A9B903EA74B0E610"",""assignmentId"":""7eeb310e-4482-4f57-b9ce-aceb4b671f77"",""projectId"":""a0a8f18c-a66e-4ba7-a170-23efbdc67501""}","https://test12345.live/?participantId=61A13B482CA74777A9B903EA74B0E610&assignmentId=7eeb310e-4482-4f57-b9ce-aceb4b671f77&projectId=a0a8f18c-a66e-4ba7-a170-23efbdc67501","61A13B482CA74777A9B903EA74B0E610-2024-11-24-18-45-07","","null","","images/causal_sequence/museum_causal/museum_causal_3.png","null","",""
"","","","","","image-button-response","96","775013","0.0-14.0-1.0-1.2","61A13B482CA74777A9B903EA74B0E610","61A13B482CA74777A9B903EA74B0E610","7eeb310e-4482-4f57-b9ce-aceb4b671f77","a0a8f18c-a66e-4ba7-a170-23efbdc67501","{""participantId"":""61A13B482CA74777A9B903EA74B0E610"",""assignmentId"":""7eeb310e-4482-4f57-b9ce-aceb4b671f77"",""projectId"":""a0a8f18c-a66e-4ba7-a170-23efbdc67501""}","https://test12345.live/?participantId=61A13B482CA74777A9B903EA74B0E610&assignmentId=7eeb310e-4482-4f57-b9ce-aceb4b671f77&projectId=a0a8f18c-a66e-4ba7-a170-23efbdc67501","61A13B482CA74777A9B903EA74B0E610-2024-11-24-18-45-07","","2514","","images/causal_sequence/museum_causal/museum_causal_3.png","0","",""
"","","","","","image-button-response","97","776821","0.0-14.0-1.0-2.2","61A13B482CA74777A9B903EA74B0E610","61A13B482CA74777A9B903EA74B0E610","7eeb310e-4482-4f57-b9ce-aceb4b671f77","a0a8f18c-a66e-4ba7-a170-23efbdc67501","{""participantId"":""61A13B482CA74777A9B903EA74B0E610"",""assignmentId"":""7eeb310e-4482-4f57-b9ce-aceb4b671f77"",""projectId"":""a0a8f18c-a66e-4ba7-a170-23efbdc67501""}","https://test12345.live/?participantId=61A13B482CA74777A9B903EA74B0E610&assignmentId=7eeb310e-4482-4f57-b9ce-aceb4b671f77&projectId=a0a8f18c-a66e-4ba7-a170-23efbdc67501","61A13B482CA74777A9B903EA74B0E610-2024-11-24-18-45-07","","null","","[]","null","",""
"","","","","","image-button-response","98","781325","0.0-14.0-1.0-0.3","61A13B482CA74777A9B903EA74B0E610","61A13B482CA74777A9B903EA74B0E610","7eeb310e-4482-4f57-b9ce-aceb4b671f77","a0a8f18c-a66e-4ba7-a170-23efbdc67501","{""participantId"":""61A13B482CA74777A9B903EA74B0E610"",""assignmentId"":""7eeb310e-4482-4f57-b9ce-aceb4b671f77"",""projectId"":""a0a8f18c-a66e-4ba7-a170-23efbdc67501""}","https://test12345.live/?participantId=61A13B482CA74777A9B903EA74B0E610&assignmentId=7eeb310e-4482-4f57-b9ce-aceb4b671f77&projectId=a0a8f18c-a66e-4ba7-a170-23efbdc67501","61A13B482CA74777A9B903EA74B0E610-2024-11-24-18-45-07","","null","","images/causal_sequence/museum_causal/museum_causal_4.png","null","",""
"","","","","","image-button-response","99","783181","0.0-14.0-1.0-1.3","61A13B482CA74777A9B903EA74B0E610","61A13B482CA74777A9B903EA74B0E610","7eeb310e-4482-4f57-b9ce-aceb4b671f77","a0a8f18c-a66e-4ba7-a170-23efbdc67501","{""participantId"":""61A13B482CA74777A9B903EA74B0E610"",""assignmentId"":""7eeb310e-4482-4f57-b9ce-aceb4b671f77"",""projectId"":""a0a8f18c-a66e-4ba7-a170-23efbdc67501""}","https://test12345.live/?participantId=61A13B482CA74777A9B903EA74B0E610&assignmentId=7eeb310e-4482-4f57-b9ce-aceb4b671f77&projectId=a0a8f18c-a66e-4ba7-a170-23efbdc67501","61A13B482CA74777A9B903EA74B0E610-2024-11-24-18-45-07","","1853","","images/causal_sequence/museum_causal/museum_causal_4.png","1","",""
"","","","","","image-button-response","100","784993","0.0-14.0-1.0-2.3","61A13B482CA74777A9B903EA74B0E610","61A13B482CA74777A9B903EA74B0E610","7eeb310e-4482-4f57-b9ce-aceb4b671f77","a0a8f18c-a66e-4ba7-a170-23efbdc67501","{""participantId"":""61A13B482CA74777A9B903EA74B0E610"",""assignmentId"":""7eeb310e-4482-4f57-b9ce-aceb4b671f77"",""projectId"":""a0a8f18c-a66e-4ba7-a170-23efbdc67501""}","https://test12345.live/?participantId=61A13B482CA74777A9B903EA74B0E610&assignmentId=7eeb310e-4482-4f57-b9ce-aceb4b671f77&projectId=a0a8f18c-a66e-4ba7-a170-23efbdc67501","61A13B482CA74777A9B903EA74B0E610-2024-11-24-18-45-07","","null","","[]","null","",""
"","","","","","image-button-response","101","789511","0.0-14.0-1.0-0.4","61A13B482CA74777A9B903EA74B0E610","61A13B482CA74777A9B903EA74B0E610","7eeb310e-4482-4f57-b9ce-aceb4b671f77","a0a8f18c-a66e-4ba7-a170-23efbdc67501","{""participantId"":""61A13B482CA74777A9B903EA74B0E610"",""assignmentId"":""7eeb310e-4482-4f57-b9ce-aceb4b671f77"",""projectId"":""a0a8f18c-a66e-4ba7-a170-23efbdc67501""}","https://test12345.live/?participantId=61A13B482CA74777A9B903EA74B0E610&assignmentId=7eeb310e-4482-4f57-b9ce-aceb4b671f77&projectId=a0a8f18c-a66e-4ba7-a170-23efbdc67501","61A13B482CA74777A9B903EA74B0E610-2024-11-24-18-45-07","","null","","images/causal_sequence/museum_causal/museum_causal_5.png","null","",""
"","","","","","image-button-response","102","791391","0.0-14.0-1.0-1.4","61A13B482CA74777A9B903EA74B0E610","61A13B482CA74777A9B903EA74B0E610","7eeb310e-4482-4f57-b9ce-aceb4b671f77","a0a8f18c-a66e-4ba7-a170-23efbdc67501","{""participantId"":""61A13B482CA74777A9B903EA74B0E610"",""assignmentId"":""7eeb310e-4482-4f57-b9ce-aceb4b671f77"",""projectId"":""a0a8f18c-a66e-4ba7-a170-23efbdc67501""}","https://test12345.live/?participantId=61A13B482CA74777A9B903EA74B0E610&assignmentId=7eeb310e-4482-4f57-b9ce-aceb4b671f77&projectId=a0a8f18c-a66e-4ba7-a170-23efbdc67501","61A13B482CA74777A9B903EA74B0E610-2024-11-24-18-45-07","","1878","","images/causal_sequence/museum_causal/museum_causal_5.png","0","",""
"","","","","","image-button-response","103","793200","0.0-14.0-1.0-2.4","61A13B482CA74777A9B903EA74B0E610","61A13B482CA74777A9B903EA74B0E610","7eeb310e-4482-4f57-b9ce-aceb4b671f77","a0a8f18c-a66e-4ba7-a170-23efbdc67501","{""participantId"":""61A13B482CA74777A9B903EA74B0E610"",""assignmentId"":""7eeb310e-4482-4f57-b9ce-aceb4b671f77"",""projectId"":""a0a8f18c-a66e-4ba7-a170-23efbdc67501""}","https://test12345.live/?participantId=61A13B482CA74777A9B903EA74B0E610&assignmentId=7eeb310e-4482-4f57-b9ce-aceb4b671f77&projectId=a0a8f18c-a66e-4ba7-a170-23efbdc67501","61A13B482CA74777A9B903EA74B0E610-2024-11-24-18-45-07","","null","","[]","null","",""
"","","","","","image-button-response","104","797709","0.0-14.0-1.0-0.5","61A13B482CA74777A9B903EA74B0E610","61A13B482CA74777A9B903EA74B0E610","7eeb310e-4482-4f57-b9ce-aceb4b671f77","a0a8f18c-a66e-4ba7-a170-23efbdc67501","{""participantId"":""61A13B482CA74777A9B903EA74B0E610"",""assignmentId"":""7eeb310e-4482-4f57-b9ce-aceb4b671f77"",""projectId"":""a0a8f18c-a66e-4ba7-a170-23efbdc67501""}","https://test12345.live/?participantId=61A13B482CA74777A9B903EA74B0E610&assignmentId=7eeb310e-4482-4f57-b9ce-aceb4b671f77&projectId=a0a8f18c-a66e-4ba7-a170-23efbdc67501","61A13B482CA74777A9B903EA74B0E610-2024-11-24-18-45-07","","null","","images/causal_sequence/museum_causal/museum_causal_6.png","null","",""
"","","","","","image-button-response","105","800097","0.0-14.0-1.0-1.5","61A13B482CA74777A9B903EA74B0E610","61A13B482CA74777A9B903EA74B0E610","7eeb310e-4482-4f57-b9ce-aceb4b671f77","a0a8f18c-a66e-4ba7-a170-23efbdc67501","{""participantId"":""61A13B482CA74777A9B903EA74B0E610"",""assignmentId"":""7eeb310e-4482-4f57-b9ce-aceb4b671f77"",""projectId"":""a0a8f18c-a66e-4ba7-a170-23efbdc67501""}","https://test12345.live/?participantId=61A13B482CA74777A9B903EA74B0E610&assignmentId=7eeb310e-4482-4f57-b9ce-aceb4b671f77&projectId=a0a8f18c-a66e-4ba7-a170-23efbdc67501","61A13B482CA74777A9B903EA74B0E610-2024-11-24-18-45-07","","2386","","images/causal_sequence/museum_causal/museum_causal_6.png","0","",""
"","","","","","image-button-response","106","801905","0.0-14.0-1.0-2.5","61A13B482CA74777A9B903EA74B0E610","61A13B482CA74777A9B903EA74B0E610","7eeb310e-4482-4f57-b9ce-aceb4b671f77","a0a8f18c-a66e-4ba7-a170-23efbdc67501","{""participantId"":""61A13B482CA74777A9B903EA74B0E610"",""assignmentId"":""7eeb310e-4482-4f57-b9ce-aceb4b671f77"",""projectId"":""a0a8f18c-a66e-4ba7-a170-23efbdc67501""}","https://test12345.live/?participantId=61A13B482CA74777A9B903EA74B0E610&assignmentId=7eeb310e-4482-4f57-b9ce-aceb4b671f77&projectId=a0a8f18c-a66e-4ba7-a170-23efbdc67501","61A13B482CA74777A9B903EA74B0E610-2024-11-24-18-45-07","","null","","[]","null","",""
"","","","","","image-button-response","107","806418","0.0-14.0-1.0-0.6","61A13B482CA74777A9B903EA74B0E610","61A13B482CA74777A9B903EA74B0E610","7eeb310e-4482-4f57-b9ce-aceb4b671f77","a0a8f18c-a66e-4ba7-a170-23efbdc67501","{""participantId"":""61A13B482CA74777A9B903EA74B0E610"",""assignmentId"":""7eeb310e-4482-4f57-b9ce-aceb4b671f77"",""projectId"":""a0a8f18c-a66e-4ba7-a170-23efbdc67501""}","https://test12345.live/?participantId=61A13B482CA74777A9B903EA74B0E610&assignmentId=7eeb310e-4482-4f57-b9ce-aceb4b671f77&projectId=a0a8f18c-a66e-4ba7-a170-23efbdc67501","61A13B482CA74777A9B903EA74B0E610-2024-11-24-18-45-07","","null","","images/causal_sequence/museum_causal/museum_causal_7.png","null","",""
"","","","","","image-button-response","108","808896","0.0-14.0-1.0-1.6","61A13B482CA74777A9B903EA74B0E610","61A13B482CA74777A9B903EA74B0E610","7eeb310e-4482-4f57-b9ce-aceb4b671f77","a0a8f18c-a66e-4ba7-a170-23efbdc67501","{""participantId"":""61A13B482CA74777A9B903EA74B0E610"",""assignmentId"":""7eeb310e-4482-4f57-b9ce-aceb4b671f77"",""projectId"":""a0a8f18c-a66e-4ba7-a170-23efbdc67501""}","https://test12345.live/?participantId=61A13B482CA74777A9B903EA74B0E610&assignmentId=7eeb310e-4482-4f57-b9ce-aceb4b671f77&projectId=a0a8f18c-a66e-4ba7-a170-23efbdc67501","61A13B482CA74777A9B903EA74B0E610-2024-11-24-18-45-07","","2476","","images/causal_sequence/museum_causal/museum_causal_7.png","1","",""
"","","","","","image-button-response","109","810715","0.0-14.0-1.0-2.6","61A13B482CA74777A9B903EA74B0E610","61A13B482CA74777A9B903EA74B0E610","7eeb310e-4482-4f57-b9ce-aceb4b671f77","a0a8f18c-a66e-4ba7-a170-23efbdc67501","{""participantId"":""61A13B482CA74777A9B903EA74B0E610"",""assignmentId"":""7eeb310e-4482-4f57-b9ce-aceb4b671f77"",""projectId"":""a0a8f18c-a66e-4ba7-a170-23efbdc67501""}","https://test12345.live/?participantId=61A13B482CA74777A9B903EA74B0E610&assignmentId=7eeb310e-4482-4f57-b9ce-aceb4b671f77&projectId=a0a8f18c-a66e-4ba7-a170-23efbdc67501","61A13B482CA74777A9B903EA74B0E610-2024-11-24-18-45-07","","null","","[]","null","",""
"","","","","","image-button-response","110","815229","0.0-14.0-1.0-0.7","61A13B482CA74777A9B903EA74B0E610","61A13B482CA74777A9B903EA74B0E610","7eeb310e-4482-4f57-b9ce-aceb4b671f77","a0a8f18c-a66e-4ba7-a170-23efbdc67501","{""participantId"":""61A13B482CA74777A9B903EA74B0E610"",""assignmentId"":""7eeb310e-4482-4f57-b9ce-aceb4b671f77"",""projectId"":""a0a8f18c-a66e-4ba7-a170-23efbdc67501""}","https://test12345.live/?participantId=61A13B482CA74777A9B903EA74B0E610&assignmentId=7eeb310e-4482-4f57-b9ce-aceb4b671f77&projectId=a0a8f18c-a66e-4ba7-a170-23efbdc67501","61A13B482CA74777A9B903EA74B0E610-2024-11-24-18-45-07","","null","","images/causal_sequence/museum_causal/museum_causal_8.png","null","",""
"","","","","","image-button-response","111","819244","0.0-14.0-1.0-1.7","61A13B482CA74777A9B903EA74B0E610","61A13B482CA74777A9B903EA74B0E610","7eeb310e-4482-4f57-b9ce-aceb4b671f77","a0a8f18c-a66e-4ba7-a170-23efbdc67501","{""participantId"":""61A13B482CA74777A9B903EA74B0E610"",""assignmentId"":""7eeb310e-4482-4f57-b9ce-aceb4b671f77"",""projectId"":""a0a8f18c-a66e-4ba7-a170-23efbdc67501""}","https://test12345.live/?participantId=61A13B482CA74777A9B903EA74B0E610&assignmentId=7eeb310e-4482-4f57-b9ce-aceb4b671f77&projectId=a0a8f18c-a66e-4ba7-a170-23efbdc67501","61A13B482CA74777A9B903EA74B0E610-2024-11-24-18-45-07","","null","","images/causal_sequence/museum_causal/museum_causal_8.png","null","",""
"","","","","","image-button-response","112","821049","0.0-14.0-1.0-2.7","61A13B482CA74777A9B903EA74B0E610","61A13B482CA74777A9B903EA74B0E610","7eeb310e-4482-4f57-b9ce-aceb4b671f77","a0a8f18c-a66e-4ba7-a170-23efbdc67501","{""participantId"":""61A13B482CA74777A9B903EA74B0E610"",""assignmentId"":""7eeb310e-4482-4f57-b9ce-aceb4b671f77"",""projectId"":""a0a8f18c-a66e-4ba7-a170-23efbdc67501""}","https://test12345.live/?participantId=61A13B482CA74777A9B903EA74B0E610&assignmentId=7eeb310e-4482-4f57-b9ce-aceb4b671f77&projectId=a0a8f18c-a66e-4ba7-a170-23efbdc67501","61A13B482CA74777A9B903EA74B0E610-2024-11-24-18-45-07","","null","","[]","null","",""
"","","","","","image-button-response","113","825553","0.0-14.0-1.0-0.8","61A13B482CA74777A9B903EA74B0E610","61A13B482CA74777A9B903EA74B0E610","7eeb310e-4482-4f57-b9ce-aceb4b671f77","a0a8f18c-a66e-4ba7-a170-23efbdc67501","{""participantId"":""61A13B482CA74777A9B903EA74B0E610"",""assignmentId"":""7eeb310e-4482-4f57-b9ce-aceb4b671f77"",""projectId"":""a0a8f18c-a66e-4ba7-a170-23efbdc67501""}","https://test12345.live/?participantId=61A13B482CA74777A9B903EA74B0E610&assignmentId=7eeb310e-4482-4f57-b9ce-aceb4b671f77&projectId=a0a8f18c-a66e-4ba7-a170-23efbdc67501","61A13B482CA74777A9B903EA74B0E610-2024-11-24-18-45-07","","null","","images/causal_sequence/museum_causal/museum_causal_9.png","null","",""
"","","","","","image-button-response","114","826993","0.0-14.0-1.0-1.8","61A13B482CA74777A9B903EA74B0E610","61A13B482CA74777A9B903EA74B0E610","7eeb310e-4482-4f57-b9ce-aceb4b671f77","a0a8f18c-a66e-4ba7-a170-23efbdc67501","{""participantId"":""61A13B482CA74777A9B903EA74B0E610"",""assignmentId"":""7eeb310e-4482-4f57-b9ce-aceb4b671f77"",""projectId"":""a0a8f18c-a66e-4ba7-a170-23efbdc67501""}","https://test12345.live/?participantId=61A13B482CA74777A9B903EA74B0E610&assignmentId=7eeb310e-4482-4f57-b9ce-aceb4b671f77&projectId=a0a8f18c-a66e-4ba7-a170-23efbdc67501","61A13B482CA74777A9B903EA74B0E610-2024-11-24-18-45-07","","1438","","images/causal_sequence/museum_causal/museum_causal_9.png","1","",""
"","","","","","image-button-response","115","828809","0.0-14.0-1.0-2.8","61A13B482CA74777A9B903EA74B0E610","61A13B482CA74777A9B903EA74B0E610","7eeb310e-4482-4f57-b9ce-aceb4b671f77","a0a8f18c-a66e-4ba7-a170-23efbdc67501","{""participantId"":""61A13B482CA74777A9B903EA74B0E610"",""assignmentId"":""7eeb310e-4482-4f57-b9ce-aceb4b671f77"",""projectId"":""a0a8f18c-a66e-4ba7-a170-23efbdc67501""}","https://test12345.live/?participantId=61A13B482CA74777A9B903EA74B0E610&assignmentId=7eeb310e-4482-4f57-b9ce-aceb4b671f77&projectId=a0a8f18c-a66e-4ba7-a170-23efbdc67501","61A13B482CA74777A9B903EA74B0E610-2024-11-24-18-45-07","","null","","[]","null","",""
"","","","","","image-button-response","116","833314","0.0-14.0-1.0-0.9","61A13B482CA74777A9B903EA74B0E610","61A13B482CA74777A9B903EA74B0E610","7eeb310e-4482-4f57-b9ce-aceb4b671f77","a0a8f18c-a66e-4ba7-a170-23efbdc67501","{""participantId"":""61A13B482CA74777A9B903EA74B0E610"",""assignmentId"":""7eeb310e-4482-4f57-b9ce-aceb4b671f77"",""projectId"":""a0a8f18c-a66e-4ba7-a170-23efbdc67501""}","https://test12345.live/?participantId=61A13B482CA74777A9B903EA74B0E610&assignmentId=7eeb310e-4482-4f57-b9ce-aceb4b671f77&projectId=a0a8f18c-a66e-4ba7-a170-23efbdc67501","61A13B482CA74777A9B903EA74B0E610-2024-11-24-18-45-07","","null","","images/causal_sequence/museum_causal/museum_causal_ten.png","null","",""
"","","","","","image-button-response","117","834791","0.0-14.0-1.0-1.9","61A13B482CA74777A9B903EA74B0E610","61A13B482CA74777A9B903EA74B0E610","7eeb310e-4482-4f57-b9ce-aceb4b671f77","a0a8f18c-a66e-4ba7-a170-23efbdc67501","{""participantId"":""61A13B482CA74777A9B903EA74B0E610"",""assignmentId"":""7eeb310e-4482-4f57-b9ce-aceb4b671f77"",""projectId"":""a0a8f18c-a66e-4ba7-a170-23efbdc67501""}","https://test12345.live/?participantId=61A13B482CA74777A9B903EA74B0E610&assignmentId=7eeb310e-4482-4f57-b9ce-aceb4b671f77&projectId=a0a8f18c-a66e-4ba7-a170-23efbdc67501","61A13B482CA74777A9B903EA74B0E610-2024-11-24-18-45-07","","1474","","images/causal_sequence/museum_causal/museum_causal_ten.png","0","",""
"","","","","","image-button-response","118","836600","0.0-14.0-1.0-2.9","61A13B482CA74777A9B903EA74B0E610","61A13B482CA74777A9B903EA74B0E610","7eeb310e-4482-4f57-b9ce-aceb4b671f77","a0a8f18c-a66e-4ba7-a170-23efbdc67501","{""participantId"":""61A13B482CA74777A9B903EA74B0E610"",""assignmentId"":""7eeb310e-4482-4f57-b9ce-aceb4b671f77"",""projectId"":""a0a8f18c-a66e-4ba7-a170-23efbdc67501""}","https://test12345.live/?participantId=61A13B482CA74777A9B903EA74B0E610&assignmentId=7eeb310e-4482-4f57-b9ce-aceb4b671f77&projectId=a0a8f18c-a66e-4ba7-a170-23efbdc67501","61A13B482CA74777A9B903EA74B0E610-2024-11-24-18-45-07","","null","","[]","null","",""
"","","","","","html-audio-response","119","864861","0.0-15.0","61A13B482CA74777A9B903EA74B0E610","61A13B482CA74777A9B903EA74B0E610","7eeb310e-4482-4f57-b9ce-aceb4b671f77","a0a8f18c-a66e-4ba7-a170-23efbdc67501","{""participantId"":""61A13B482CA74777A9B903EA74B0E610"",""assignmentId"":""7eeb310e-4482-4f57-b9ce-aceb4b671f77"",""projectId"":""a0a8f18c-a66e-4ba7-a170-23efbdc67501""}","https://test12345.live/?participantId=61A13B482CA74777A9B903EA74B0E610&assignmentId=7eeb310e-4482-4f57-b9ce-aceb4b671f77&projectId=a0a8f18c-a66e-4ba7-a170-23efbdc67501","61A13B482CA74777A9B903EA74B0E610-2024-11-24-18-45-07","","26329","","[""<span style=\""color: red; font-size: 24px\""> NOW RECORDING</span><p>Please say out loud all the images you saw, as many as you can remember. The images can be said in any order.</p>""]","","2","museum_causal"
"","","","","","image-button-response","120","870880","0.0-16.0-0.0","61A13B482CA74777A9B903EA74B0E610","61A13B482CA74777A9B903EA74B0E610","7eeb310e-4482-4f57-b9ce-aceb4b671f77","a0a8f18c-a66e-4ba7-a170-23efbdc67501","{""participantId"":""61A13B482CA74777A9B903EA74B0E610"",""assignmentId"":""7eeb310e-4482-4f57-b9ce-aceb4b671f77"",""projectId"":""a0a8f18c-a66e-4ba7-a170-23efbdc67501""}","https://test12345.live/?participantId=61A13B482CA74777A9B903EA74B0E610&assignmentId=7eeb310e-4482-4f57-b9ce-aceb4b671f77&projectId=a0a8f18c-a66e-4ba7-a170-23efbdc67501","61A13B482CA74777A9B903EA74B0E610-2024-11-24-18-45-07","","null","","images/causal_sequence/saving_a_cat_causal/saving_a_cat_causal_0.png","null","",""
"","","","","","image-button-response","121","875385","0.0-16.0-1.0-0.0","61A13B482CA74777A9B903EA74B0E610","61A13B482CA74777A9B903EA74B0E610","7eeb310e-4482-4f57-b9ce-aceb4b671f77","a0a8f18c-a66e-4ba7-a170-23efbdc67501","{""participantId"":""61A13B482CA74777A9B903EA74B0E610"",""assignmentId"":""7eeb310e-4482-4f57-b9ce-aceb4b671f77"",""projectId"":""a0a8f18c-a66e-4ba7-a170-23efbdc67501""}","https://test12345.live/?participantId=61A13B482CA74777A9B903EA74B0E610&assignmentId=7eeb310e-4482-4f57-b9ce-aceb4b671f77&projectId=a0a8f18c-a66e-4ba7-a170-23efbdc67501","61A13B482CA74777A9B903EA74B0E610-2024-11-24-18-45-07","","null","","images/causal_sequence/saving_a_cat_causal/saving_a_cat_causal_9.png","null","",""
"","","","","","image-button-response","122","879031","0.0-16.0-1.0-1.0","61A13B482CA74777A9B903EA74B0E610","61A13B482CA74777A9B903EA74B0E610","7eeb310e-4482-4f57-b9ce-aceb4b671f77","a0a8f18c-a66e-4ba7-a170-23efbdc67501","{""participantId"":""61A13B482CA74777A9B903EA74B0E610"",""assignmentId"":""7eeb310e-4482-4f57-b9ce-aceb4b671f77"",""projectId"":""a0a8f18c-a66e-4ba7-a170-23efbdc67501""}","https://test12345.live/?participantId=61A13B482CA74777A9B903EA74B0E610&assignmentId=7eeb310e-4482-4f57-b9ce-aceb4b671f77&projectId=a0a8f18c-a66e-4ba7-a170-23efbdc67501","61A13B482CA74777A9B903EA74B0E610-2024-11-24-18-45-07","","3642","","images/causal_sequence/saving_a_cat_causal/saving_a_cat_causal_9.png","0","",""
"","","","","","image-button-response","123","880845","0.0-16.0-1.0-2.0","61A13B482CA74777A9B903EA74B0E610","61A13B482CA74777A9B903EA74B0E610","7eeb310e-4482-4f57-b9ce-aceb4b671f77","a0a8f18c-a66e-4ba7-a170-23efbdc67501","{""participantId"":""61A13B482CA74777A9B903EA74B0E610"",""assignmentId"":""7eeb310e-4482-4f57-b9ce-aceb4b671f77"",""projectId"":""a0a8f18c-a66e-4ba7-a170-23efbdc67501""}","https://test12345.live/?participantId=61A13B482CA74777A9B903EA74B0E610&assignmentId=7eeb310e-4482-4f57-b9ce-aceb4b671f77&projectId=a0a8f18c-a66e-4ba7-a170-23efbdc67501","61A13B482CA74777A9B903EA74B0E610-2024-11-24-18-45-07","","null","","[]","null","",""
"","","","","","image-button-response","124","885360","0.0-16.0-1.0-0.1","61A13B482CA74777A9B903EA74B0E610","61A13B482CA74777A9B903EA74B0E610","7eeb310e-4482-4f57-b9ce-aceb4b671f77","a0a8f18c-a66e-4ba7-a170-23efbdc67501","{""participantId"":""61A13B482CA74777A9B903EA74B0E610"",""assignmentId"":""7eeb310e-4482-4f57-b9ce-aceb4b671f77"",""projectId"":""a0a8f18c-a66e-4ba7-a170-23efbdc67501""}","https://test12345.live/?participantId=61A13B482CA74777A9B903EA74B0E610&assignmentId=7eeb310e-4482-4f57-b9ce-aceb4b671f77&projectId=a0a8f18c-a66e-4ba7-a170-23efbdc67501","61A13B482CA74777A9B903EA74B0E610-2024-11-24-18-45-07","","null","","images/causal_sequence/saving_a_cat_causal/saving_a_cat_causal_4.png","null","",""
"","","","","","image-button-response","125","886946","0.0-16.0-1.0-1.1","61A13B482CA74777A9B903EA74B0E610","61A13B482CA74777A9B903EA74B0E610","7eeb310e-4482-4f57-b9ce-aceb4b671f77","a0a8f18c-a66e-4ba7-a170-23efbdc67501","{""participantId"":""61A13B482CA74777A9B903EA74B0E610"",""assignmentId"":""7eeb310e-4482-4f57-b9ce-aceb4b671f77"",""projectId"":""a0a8f18c-a66e-4ba7-a170-23efbdc67501""}","https://test12345.live/?participantId=61A13B482CA74777A9B903EA74B0E610&assignmentId=7eeb310e-4482-4f57-b9ce-aceb4b671f77&projectId=a0a8f18c-a66e-4ba7-a170-23efbdc67501","61A13B482CA74777A9B903EA74B0E610-2024-11-24-18-45-07","","1583","","images/causal_sequence/saving_a_cat_causal/saving_a_cat_causal_4.png","0","",""
"","","","","","image-button-response","126","888750","0.0-16.0-1.0-2.1","61A13B482CA74777A9B903EA74B0E610","61A13B482CA74777A9B903EA74B0E610","7eeb310e-4482-4f57-b9ce-aceb4b671f77","a0a8f18c-a66e-4ba7-a170-23efbdc67501","{""participantId"":""61A13B482CA74777A9B903EA74B0E610"",""assignmentId"":""7eeb310e-4482-4f57-b9ce-aceb4b671f77"",""projectId"":""a0a8f18c-a66e-4ba7-a170-23efbdc67501""}","https://test12345.live/?participantId=61A13B482CA74777A9B903EA74B0E610&assignmentId=7eeb310e-4482-4f57-b9ce-aceb4b671f77&projectId=a0a8f18c-a66e-4ba7-a170-23efbdc67501","61A13B482CA74777A9B903EA74B0E610-2024-11-24-18-45-07","","null","","[]","null","",""
"","","","","","image-button-response","127","893253","0.0-16.0-1.0-0.2","61A13B482CA74777A9B903EA74B0E610","61A13B482CA74777A9B903EA74B0E610","7eeb310e-4482-4f57-b9ce-aceb4b671f77","a0a8f18c-a66e-4ba7-a170-23efbdc67501","{""participantId"":""61A13B482CA74777A9B903EA74B0E610"",""assignmentId"":""7eeb310e-4482-4f57-b9ce-aceb4b671f77"",""projectId"":""a0a8f18c-a66e-4ba7-a170-23efbdc67501""}","https://test12345.live/?participantId=61A13B482CA74777A9B903EA74B0E610&assignmentId=7eeb310e-4482-4f57-b9ce-aceb4b671f77&projectId=a0a8f18c-a66e-4ba7-a170-23efbdc67501","61A13B482CA74777A9B903EA74B0E610-2024-11-24-18-45-07","","null","","images/causal_sequence/saving_a_cat_causal/saving_a_cat_causal_1.png","null","",""
"","","","","","image-button-response","128","894641","0.0-16.0-1.0-1.2","61A13B482CA74777A9B903EA74B0E610","61A13B482CA74777A9B903EA74B0E610","7eeb310e-4482-4f57-b9ce-aceb4b671f77","a0a8f18c-a66e-4ba7-a170-23efbdc67501","{""participantId"":""61A13B482CA74777A9B903EA74B0E610"",""assignmentId"":""7eeb310e-4482-4f57-b9ce-aceb4b671f77"",""projectId"":""a0a8f18c-a66e-4ba7-a170-23efbdc67501""}","https://test12345.live/?participantId=61A13B482CA74777A9B903EA74B0E610&assignmentId=7eeb310e-4482-4f57-b9ce-aceb4b671f77&projectId=a0a8f18c-a66e-4ba7-a170-23efbdc67501","61A13B482CA74777A9B903EA74B0E610-2024-11-24-18-45-07","","1385","","images/causal_sequence/saving_a_cat_causal/saving_a_cat_causal_1.png","0","",""
"","","","","","image-button-response","129","896451","0.0-16.0-1.0-2.2","61A13B482CA74777A9B903EA74B0E610","61A13B482CA74777A9B903EA74B0E610","7eeb310e-4482-4f57-b9ce-aceb4b671f77","a0a8f18c-a66e-4ba7-a170-23efbdc67501","{""participantId"":""61A13B482CA74777A9B903EA74B0E610"",""assignmentId"":""7eeb310e-4482-4f57-b9ce-aceb4b671f77"",""projectId"":""a0a8f18c-a66e-4ba7-a170-23efbdc67501""}","https://test12345.live/?participantId=61A13B482CA74777A9B903EA74B0E610&assignmentId=7eeb310e-4482-4f57-b9ce-aceb4b671f77&projectId=a0a8f18c-a66e-4ba7-a170-23efbdc67501","61A13B482CA74777A9B903EA74B0E610-2024-11-24-18-45-07","","null","","[]","null","",""
"","","","","","image-button-response","130","900962","0.0-16.0-1.0-0.3","61A13B482CA74777A9B903EA74B0E610","61A13B482CA74777A9B903EA74B0E610","7eeb310e-4482-4f57-b9ce-aceb4b671f77","a0a8f18c-a66e-4ba7-a170-23efbdc67501","{""participantId"":""61A13B482CA74777A9B903EA74B0E610"",""assignmentId"":""7eeb310e-4482-4f57-b9ce-aceb4b671f77"",""projectId"":""a0a8f18c-a66e-4ba7-a170-23efbdc67501""}","https://test12345.live/?participantId=61A13B482CA74777A9B903EA74B0E610&assignmentId=7eeb310e-4482-4f57-b9ce-aceb4b671f77&projectId=a0a8f18c-a66e-4ba7-a170-23efbdc67501","61A13B482CA74777A9B903EA74B0E610-2024-11-24-18-45-07","","null","","images/causal_sequence/saving_a_cat_causal/saving_a_cat_causal_7.png","null","",""
"","","","","","image-button-response","131","903199","0.0-16.0-1.0-1.3","61A13B482CA74777A9B903EA74B0E610","61A13B482CA74777A9B903EA74B0E610","7eeb310e-4482-4f57-b9ce-aceb4b671f77","a0a8f18c-a66e-4ba7-a170-23efbdc67501","{""participantId"":""61A13B482CA74777A9B903EA74B0E610"",""assignmentId"":""7eeb310e-4482-4f57-b9ce-aceb4b671f77"",""projectId"":""a0a8f18c-a66e-4ba7-a170-23efbdc67501""}","https://test12345.live/?participantId=61A13B482CA74777A9B903EA74B0E610&assignmentId=7eeb310e-4482-4f57-b9ce-aceb4b671f77&projectId=a0a8f18c-a66e-4ba7-a170-23efbdc67501","61A13B482CA74777A9B903EA74B0E610-2024-11-24-18-45-07","","2235","","images/causal_sequence/saving_a_cat_causal/saving_a_cat_causal_7.png","0","",""
"","","","","","image-button-response","132","905005","0.0-16.0-1.0-2.3","61A13B482CA74777A9B903EA74B0E610","61A13B482CA74777A9B903EA74B0E610","7eeb310e-4482-4f57-b9ce-aceb4b671f77","a0a8f18c-a66e-4ba7-a170-23efbdc67501","{""participantId"":""61A13B482CA74777A9B903EA74B0E610"",""assignmentId"":""7eeb310e-4482-4f57-b9ce-aceb4b671f77"",""projectId"":""a0a8f18c-a66e-4ba7-a170-23efbdc67501""}","https://test12345.live/?participantId=61A13B482CA74777A9B903EA74B0E610&assignmentId=7eeb310e-4482-4f57-b9ce-aceb4b671f77&projectId=a0a8f18c-a66e-4ba7-a170-23efbdc67501","61A13B482CA74777A9B903EA74B0E610-2024-11-24-18-45-07","","null","","[]","null","",""
"","","","","","image-button-response","133","909515","0.0-16.0-1.0-0.4","61A13B482CA74777A9B903EA74B0E610","61A13B482CA74777A9B903EA74B0E610","7eeb310e-4482-4f57-b9ce-aceb4b671f77","a0a8f18c-a66e-4ba7-a170-23efbdc67501","{""participantId"":""61A13B482CA74777A9B903EA74B0E610"",""assignmentId"":""7eeb310e-4482-4f57-b9ce-aceb4b671f77"",""projectId"":""a0a8f18c-a66e-4ba7-a170-23efbdc67501""}","https://test12345.live/?participantId=61A13B482CA74777A9B903EA74B0E610&assignmentId=7eeb310e-4482-4f57-b9ce-aceb4b671f77&projectId=a0a8f18c-a66e-4ba7-a170-23efbdc67501","61A13B482CA74777A9B903EA74B0E610-2024-11-24-18-45-07","","null","","images/causal_sequence/saving_a_cat_causal/saving_a_cat_causal_6.png","null","",""
"","","","","","image-button-response","134","910781","0.0-16.0-1.0-1.4","61A13B482CA74777A9B903EA74B0E610","61A13B482CA74777A9B903EA74B0E610","7eeb310e-4482-4f57-b9ce-aceb4b671f77","a0a8f18c-a66e-4ba7-a170-23efbdc67501","{""participantId"":""61A13B482CA74777A9B903EA74B0E610"",""assignmentId"":""7eeb310e-4482-4f57-b9ce-aceb4b671f77"",""projectId"":""a0a8f18c-a66e-4ba7-a170-23efbdc67501""}","https://test12345.live/?participantId=61A13B482CA74777A9B903EA74B0E610&assignmentId=7eeb310e-4482-4f57-b9ce-aceb4b671f77&projectId=a0a8f18c-a66e-4ba7-a170-23efbdc67501","61A13B482CA74777A9B903EA74B0E610-2024-11-24-18-45-07","","1263","","images/causal_sequence/saving_a_cat_causal/saving_a_cat_causal_6.png","0","",""
"","","","","","image-button-response","135","912584","0.0-16.0-1.0-2.4","61A13B482CA74777A9B903EA74B0E610","61A13B482CA74777A9B903EA74B0E610","7eeb310e-4482-4f57-b9ce-aceb4b671f77","a0a8f18c-a66e-4ba7-a170-23efbdc67501","{""participantId"":""61A13B482CA74777A9B903EA74B0E610"",""assignmentId"":""7eeb310e-4482-4f57-b9ce-aceb4b671f77"",""projectId"":""a0a8f18c-a66e-4ba7-a170-23efbdc67501""}","https://test12345.live/?participantId=61A13B482CA74777A9B903EA74B0E610&assignmentId=7eeb310e-4482-4f57-b9ce-aceb4b671f77&projectId=a0a8f18c-a66e-4ba7-a170-23efbdc67501","61A13B482CA74777A9B903EA74B0E610-2024-11-24-18-45-07","","null","","[]","null","",""
"","","","","","image-button-response","136","917094","0.0-16.0-1.0-0.5","61A13B482CA74777A9B903EA74B0E610","61A13B482CA74777A9B903EA74B0E610","7eeb310e-4482-4f57-b9ce-aceb4b671f77","a0a8f18c-a66e-4ba7-a170-23efbdc67501","{""participantId"":""61A13B482CA74777A9B903EA74B0E610"",""assignmentId"":""7eeb310e-4482-4f57-b9ce-aceb4b671f77"",""projectId"":""a0a8f18c-a66e-4ba7-a170-23efbdc67501""}","https://test12345.live/?participantId=61A13B482CA74777A9B903EA74B0E610&assignmentId=7eeb310e-4482-4f57-b9ce-aceb4b671f77&projectId=a0a8f18c-a66e-4ba7-a170-23efbdc67501","61A13B482CA74777A9B903EA74B0E610-2024-11-24-18-45-07","","null","","images/causal_sequence/saving_a_cat_causal/saving_a_cat_causal_8.png","null","",""
"","","","","","image-button-response","137","918192","0.0-16.0-1.0-1.5","61A13B482CA74777A9B903EA74B0E610","61A13B482CA74777A9B903EA74B0E610","7eeb310e-4482-4f57-b9ce-aceb4b671f77","a0a8f18c-a66e-4ba7-a170-23efbdc67501","{""participantId"":""61A13B482CA74777A9B903EA74B0E610"",""assignmentId"":""7eeb310e-4482-4f57-b9ce-aceb4b671f77"",""projectId"":""a0a8f18c-a66e-4ba7-a170-23efbdc67501""}","https://test12345.live/?participantId=61A13B482CA74777A9B903EA74B0E610&assignmentId=7eeb310e-4482-4f57-b9ce-aceb4b671f77&projectId=a0a8f18c-a66e-4ba7-a170-23efbdc67501","61A13B482CA74777A9B903EA74B0E610-2024-11-24-18-45-07","","1095","","images/causal_sequence/saving_a_cat_causal/saving_a_cat_causal_8.png","0","",""
"","","","","","image-button-response","138","920004","0.0-16.0-1.0-2.5","61A13B482CA74777A9B903EA74B0E610","61A13B482CA74777A9B903EA74B0E610","7eeb310e-4482-4f57-b9ce-aceb4b671f77","a0a8f18c-a66e-4ba7-a170-23efbdc67501","{""participantId"":""61A13B482CA74777A9B903EA74B0E610"",""assignmentId"":""7eeb310e-4482-4f57-b9ce-aceb4b671f77"",""projectId"":""a0a8f18c-a66e-4ba7-a170-23efbdc67501""}","https://test12345.live/?participantId=61A13B482CA74777A9B903EA74B0E610&assignmentId=7eeb310e-4482-4f57-b9ce-aceb4b671f77&projectId=a0a8f18c-a66e-4ba7-a170-23efbdc67501","61A13B482CA74777A9B903EA74B0E610-2024-11-24-18-45-07","","null","","[]","null","",""
"","","","","","image-button-response","139","924515","0.0-16.0-1.0-0.6","61A13B482CA74777A9B903EA74B0E610","61A13B482CA74777A9B903EA74B0E610","7eeb310e-4482-4f57-b9ce-aceb4b671f77","a0a8f18c-a66e-4ba7-a170-23efbdc67501","{""participantId"":""61A13B482CA74777A9B903EA74B0E610"",""assignmentId"":""7eeb310e-4482-4f57-b9ce-aceb4b671f77"",""projectId"":""a0a8f18c-a66e-4ba7-a170-23efbdc67501""}","https://test12345.live/?participantId=61A13B482CA74777A9B903EA74B0E610&assignmentId=7eeb310e-4482-4f57-b9ce-aceb4b671f77&projectId=a0a8f18c-a66e-4ba7-a170-23efbdc67501","61A13B482CA74777A9B903EA74B0E610-2024-11-24-18-45-07","","null","","images/causal_sequence/saving_a_cat_causal/saving_a_cat_causal_ten.png","null","",""
"","","","","","image-button-response","140","928347","0.0-16.0-1.0-1.6","61A13B482CA74777A9B903EA74B0E610","61A13B482CA74777A9B903EA74B0E610","7eeb310e-4482-4f57-b9ce-aceb4b671f77","a0a8f18c-a66e-4ba7-a170-23efbdc67501","{""participantId"":""61A13B482CA74777A9B903EA74B0E610"",""assignmentId"":""7eeb310e-4482-4f57-b9ce-aceb4b671f77"",""projectId"":""a0a8f18c-a66e-4ba7-a170-23efbdc67501""}","https://test12345.live/?participantId=61A13B482CA74777A9B903EA74B0E610&assignmentId=7eeb310e-4482-4f57-b9ce-aceb4b671f77&projectId=a0a8f18c-a66e-4ba7-a170-23efbdc67501","61A13B482CA74777A9B903EA74B0E610-2024-11-24-18-45-07","","3830","","images/causal_sequence/saving_a_cat_causal/saving_a_cat_causal_ten.png","0","",""
"","","","","","image-button-response","141","930159","0.0-16.0-1.0-2.6","61A13B482CA74777A9B903EA74B0E610","61A13B482CA74777A9B903EA74B0E610","7eeb310e-4482-4f57-b9ce-aceb4b671f77","a0a8f18c-a66e-4ba7-a170-23efbdc67501","{""participantId"":""61A13B482CA74777A9B903EA74B0E610"",""assignmentId"":""7eeb310e-4482-4f57-b9ce-aceb4b671f77"",""projectId"":""a0a8f18c-a66e-4ba7-a170-23efbdc67501""}","https://test12345.live/?participantId=61A13B482CA74777A9B903EA74B0E610&assignmentId=7eeb310e-4482-4f57-b9ce-aceb4b671f77&projectId=a0a8f18c-a66e-4ba7-a170-23efbdc67501","61A13B482CA74777A9B903EA74B0E610-2024-11-24-18-45-07","","null","","[]","null","",""
"","","","","","image-button-response","142","934676","0.0-16.0-1.0-0.7","61A13B482CA74777A9B903EA74B0E610","61A13B482CA74777A9B903EA74B0E610","7eeb310e-4482-4f57-b9ce-aceb4b671f77","a0a8f18c-a66e-4ba7-a170-23efbdc67501","{""participantId"":""61A13B482CA74777A9B903EA74B0E610"",""assignmentId"":""7eeb310e-4482-4f57-b9ce-aceb4b671f77"",""projectId"":""a0a8f18c-a66e-4ba7-a170-23efbdc67501""}","https://test12345.live/?participantId=61A13B482CA74777A9B903EA74B0E610&assignmentId=7eeb310e-4482-4f57-b9ce-aceb4b671f77&projectId=a0a8f18c-a66e-4ba7-a170-23efbdc67501","61A13B482CA74777A9B903EA74B0E610-2024-11-24-18-45-07","","null","","images/causal_sequence/saving_a_cat_causal/saving_a_cat_causal_2.png","null","",""
"","","","","","image-button-response","143","937076","0.0-16.0-1.0-1.7","61A13B482CA74777A9B903EA74B0E610","61A13B482CA74777A9B903EA74B0E610","7eeb310e-4482-4f57-b9ce-aceb4b671f77","a0a8f18c-a66e-4ba7-a170-23efbdc67501","{""participantId"":""61A13B482CA74777A9B903EA74B0E610"",""assignmentId"":""7eeb310e-4482-4f57-b9ce-aceb4b671f77"",""projectId"":""a0a8f18c-a66e-4ba7-a170-23efbdc67501""}","https://test12345.live/?participantId=61A13B482CA74777A9B903EA74B0E610&assignmentId=7eeb310e-4482-4f57-b9ce-aceb4b671f77&projectId=a0a8f18c-a66e-4ba7-a170-23efbdc67501","61A13B482CA74777A9B903EA74B0E610-2024-11-24-18-45-07","","2397","","images/causal_sequence/saving_a_cat_causal/saving_a_cat_causal_2.png","0","",""
"","","","","","image-button-response","144","938895","0.0-16.0-1.0-2.7","61A13B482CA74777A9B903EA74B0E610","61A13B482CA74777A9B903EA74B0E610","7eeb310e-4482-4f57-b9ce-aceb4b671f77","a0a8f18c-a66e-4ba7-a170-23efbdc67501","{""participantId"":""61A13B482CA74777A9B903EA74B0E610"",""assignmentId"":""7eeb310e-4482-4f57-b9ce-aceb4b671f77"",""projectId"":""a0a8f18c-a66e-4ba7-a170-23efbdc67501""}","https://test12345.live/?participantId=61A13B482CA74777A9B903EA74B0E610&assignmentId=7eeb310e-4482-4f57-b9ce-aceb4b671f77&projectId=a0a8f18c-a66e-4ba7-a170-23efbdc67501","61A13B482CA74777A9B903EA74B0E610-2024-11-24-18-45-07","","null","","[]","null","",""
