"success","timeout","failed_images","failed_audio","failed_video","trial_type","trial_index","time_elapsed","internal_node_id","subject","subject_id","study_id","session_id","urlvar","current_url","audio_id","view_history","rt","device_id","stimulus","response","estimated_stimulus_onset","seq_name"
"true","false","[]","[]","[]","preload","0","27","0.0-0.0","68D0A2A67F394ED5BA5B0D8E65F1B9EA","68D0A2A67F394ED5BA5B0D8E65F1B9EA","67963a18-c395-4a2d-8064-8531d7b15777","a0a8f18c-a66e-4ba7-a170-23efbdc67501","{""participantId"":""68D0A2A67F394ED5BA5B0D8E65F1B9EA"",""assignmentId"":""67963a18-c395-4a2d-8064-8531d7b15777"",""projectId"":""a0a8f18c-a66e-4ba7-a170-23efbdc67501""}","https://test12345.live/?participantId=68D0A2A67F394ED5BA5B0D8E65F1B9EA&assignmentId=67963a18-c395-4a2d-8064-8531d7b15777&projectId=a0a8f18c-a66e-4ba7-a170-23efbdc67501","68D0A2A67F394ED5BA5B0D8E65F1B9EA-2024-11-24-18-42-23","","","","","","",""
"","","","","","instructions","1","8799","0.0-1.0","68D0A2A67F394ED5BA5B0D8E65F1B9EA","68D0A2A67F394ED5BA5B0D8E65F1B9EA","67963a18-c395-4a2d-8064-8531d7b15777","a0a8f18c-a66e-4ba7-a170-23efbdc67501","{""participantId"":""68D0A2A67F394ED5BA5B0D8E65F1B9EA"",""assignmentId"":""67963a18-c395-4a2d-8064-8531d7b15777"",""projectId"":""a0a8f18c-a66e-4ba7-a170-23efbdc67501""}","https://test12345.live/?participantId=68D0A2A67F394ED5BA5B0D8E65F1B9EA&assignmentId=67963a18-c395-4a2d-8064-8531d7b15777&projectId=a0a8f18c-a66e-4ba7-a170-23efbdc67501","68D0A2A67F394ED5BA5B0D8E65F1B9EA-2024-11-24-18-42-23","[{""page_index"":0,""viewing_time"":8769}]","8770","","","","",""
"","","","","","instructions","2","10801","0.0-2.0","68D0A2A67F394ED5BA5B0D8E65F1B9EA","68D0A2A67F394ED5BA5B0D8E65F1B9EA","67963a18-c395-4a2d-8064-8531d7b15777","a0a8f18c-a66e-4ba7-a170-23efbdc67501","{""participantId"":""68D0A2A67F394ED5BA5B0D8E65F1B9EA"",""assignmentId"":""67963a18-c395-4a2d-8064-8531d7b15777"",""projectId"":""a0a8f18c-a66e-4ba7-a170-23efbdc67501""}","https://test12345.live/?participantId=68D0A2A67F394ED5BA5B0D8E65F1B9EA&assignmentId=67963a18-c395-4a2d-8064-8531d7b15777&projectId=a0a8f18c-a66e-4ba7-a170-23efbdc67501","68D0A2A67F394ED5BA5B0D8E65F1B9EA-2024-11-24-18-42-23","[{""page_index"":0,""viewing_time"":2000}]","2001","","","","",""
"true","","","","","fullscreen","3","13170","0.0-3.0","68D0A2A67F394ED5BA5B0D8E65F1B9EA","68D0A2A67F394ED5BA5B0D8E65F1B9EA","67963a18-c395-4a2d-8064-8531d7b15777","a0a8f18c-a66e-4ba7-a170-23efbdc67501","{""participantId"":""68D0A2A67F394ED5BA5B0D8E65F1B9EA"",""assignmentId"":""67963a18-c395-4a2d-8064-8531d7b15777"",""projectId"":""a0a8f18c-a66e-4ba7-a170-23efbdc67501""}","https://test12345.live/?participantId=68D0A2A67F394ED5BA5B0D8E65F1B9EA&assignmentId=67963a18-c395-4a2d-8064-8531d7b15777&projectId=a0a8f18c-a66e-4ba7-a170-23efbdc67501","68D0A2A67F394ED5BA5B0D8E65F1B9EA-2024-11-24-18-42-23","","1365","","","","",""
"","","","","","initialize-microphone","4","19989","0.0-4.0-0.0","68D0A2A67F394ED5BA5B0D8E65F1B9EA","68D0A2A67F394ED5BA5B0D8E65F1B9EA","67963a18-c395-4a2d-8064-8531d7b15777","a0a8f18c-a66e-4ba7-a170-23efbdc67501","{""participantId"":""68D0A2A67F394ED5BA5B0D8E65F1B9EA"",""assignmentId"":""67963a18-c395-4a2d-8064-8531d7b15777"",""projectId"":""a0a8f18c-a66e-4ba7-a170-23efbdc67501""}","https://test12345.live/?participantId=68D0A2A67F394ED5BA5B0D8E65F1B9EA&assignmentId=67963a18-c395-4a2d-8064-8531d7b15777&projectId=a0a8f18c-a66e-4ba7-a170-23efbdc67501","68D0A2A67F394ED5BA5B0D8E65F1B9EA-2024-11-24-18-42-23","","","5976a29615cb4faebb4e4240ece9cbc97425e98e360fad8e342188b84c671507","","","",""
"","","","","","html-audio-response","5","30950","0.0-4.0-1.0","68D0A2A67F394ED5BA5B0D8E65F1B9EA","68D0A2A67F394ED5BA5B0D8E65F1B9EA","67963a18-c395-4a2d-8064-8531d7b15777","a0a8f18c-a66e-4ba7-a170-23efbdc67501","{""participantId"":""68D0A2A67F394ED5BA5B0D8E65F1B9EA"",""assignmentId"":""67963a18-c395-4a2d-8064-8531d7b15777"",""projectId"":""a0a8f18c-a66e-4ba7-a170-23efbdc67501""}","https://test12345.live/?participantId=68D0A2A67F394ED5BA5B0D8E65F1B9EA&assignmentId=67963a18-c395-4a2d-8064-8531d7b15777&projectId=a0a8f18c-a66e-4ba7-a170-23efbdc67501","68D0A2A67F394ED5BA5B0D8E65F1B9EA-2024-11-24-18-42-23","","4070","","<span style=""color: red; font-size: 24px""> NOW RECORDING</span>
        <p>Please test Microphone</p>","","12",""
"","","","","","html-button-response","6","33232","0.0-4.0-2.0","68D0A2A67F394ED5BA5B0D8E65F1B9EA","68D0A2A67F394ED5BA5B0D8E65F1B9EA","67963a18-c395-4a2d-8064-8531d7b15777","a0a8f18c-a66e-4ba7-a170-23efbdc67501","{""participantId"":""68D0A2A67F394ED5BA5B0D8E65F1B9EA"",""assignmentId"":""67963a18-c395-4a2d-8064-8531d7b15777"",""projectId"":""a0a8f18c-a66e-4ba7-a170-23efbdc67501""}","https://test12345.live/?participantId=68D0A2A67F394ED5BA5B0D8E65F1B9EA&assignmentId=67963a18-c395-4a2d-8064-8531d7b15777&projectId=a0a8f18c-a66e-4ba7-a170-23efbdc67501","68D0A2A67F394ED5BA5B0D8E65F1B9EA-2024-11-24-18-42-23","","2276","","<p style=""font-size:48px; color:red;"">Is Microphone OK?</p>","1","",""
"","","","","","instructions","7","44289","0.0-5.0","68D0A2A67F394ED5BA5B0D8E65F1B9EA","68D0A2A67F394ED5BA5B0D8E65F1B9EA","67963a18-c395-4a2d-8064-8531d7b15777","a0a8f18c-a66e-4ba7-a170-23efbdc67501","{""participantId"":""68D0A2A67F394ED5BA5B0D8E65F1B9EA"",""assignmentId"":""67963a18-c395-4a2d-8064-8531d7b15777"",""projectId"":""a0a8f18c-a66e-4ba7-a170-23efbdc67501""}","https://test12345.live/?participantId=68D0A2A67F394ED5BA5B0D8E65F1B9EA&assignmentId=67963a18-c395-4a2d-8064-8531d7b15777&projectId=a0a8f18c-a66e-4ba7-a170-23efbdc67501","68D0A2A67F394ED5BA5B0D8E65F1B9EA-2024-11-24-18-42-23","[{""page_index"":0,""viewing_time"":4913},{""page_index"":1,""viewing_time"":6137}]","11052","","","","",""
"","","","","","image-button-response","8","50309","0.0-6.0-0.0","68D0A2A67F394ED5BA5B0D8E65F1B9EA","68D0A2A67F394ED5BA5B0D8E65F1B9EA","67963a18-c395-4a2d-8064-8531d7b15777","a0a8f18c-a66e-4ba7-a170-23efbdc67501","{""participantId"":""68D0A2A67F394ED5BA5B0D8E65F1B9EA"",""assignmentId"":""67963a18-c395-4a2d-8064-8531d7b15777"",""projectId"":""a0a8f18c-a66e-4ba7-a170-23efbdc67501""}","https://test12345.live/?participantId=68D0A2A67F394ED5BA5B0D8E65F1B9EA&assignmentId=67963a18-c395-4a2d-8064-8531d7b15777&projectId=a0a8f18c-a66e-4ba7-a170-23efbdc67501","68D0A2A67F394ED5BA5B0D8E65F1B9EA-2024-11-24-18-42-23","","null","","images/instructions/movie_0.png","null","",""
"","","","","","image-button-response","9","54822","0.0-6.0-1.0-0.0","68D0A2A67F394ED5BA5B0D8E65F1B9EA","68D0A2A67F394ED5BA5B0D8E65F1B9EA","67963a18-c395-4a2d-8064-8531d7b15777","a0a8f18c-a66e-4ba7-a170-23efbdc67501","{""participantId"":""68D0A2A67F394ED5BA5B0D8E65F1B9EA"",""assignmentId"":""67963a18-c395-4a2d-8064-8531d7b15777"",""projectId"":""a0a8f18c-a66e-4ba7-a170-23efbdc67501""}","https://test12345.live/?participantId=68D0A2A67F394ED5BA5B0D8E65F1B9EA&assignmentId=67963a18-c395-4a2d-8064-8531d7b15777&projectId=a0a8f18c-a66e-4ba7-a170-23efbdc67501","68D0A2A67F394ED5BA5B0D8E65F1B9EA-2024-11-24-18-42-23","","null","","images/instructions/movie_1.png","null","",""
"","","","","","image-button-response","10","57139","0.0-6.0-1.0-1.0","68D0A2A67F394ED5BA5B0D8E65F1B9EA","68D0A2A67F394ED5BA5B0D8E65F1B9EA","67963a18-c395-4a2d-8064-8531d7b15777","a0a8f18c-a66e-4ba7-a170-23efbdc67501","{""participantId"":""68D0A2A67F394ED5BA5B0D8E65F1B9EA"",""assignmentId"":""67963a18-c395-4a2d-8064-8531d7b15777"",""projectId"":""a0a8f18c-a66e-4ba7-a170-23efbdc67501""}","https://test12345.live/?participantId=68D0A2A67F394ED5BA5B0D8E65F1B9EA&assignmentId=67963a18-c395-4a2d-8064-8531d7b15777&projectId=a0a8f18c-a66e-4ba7-a170-23efbdc67501","68D0A2A67F394ED5BA5B0D8E65F1B9EA-2024-11-24-18-42-23","","2309","","images/instructions/movie_1.png","0","",""
"","","","","","image-button-response","11","58943","0.0-6.0-1.0-2.0","68D0A2A67F394ED5BA5B0D8E65F1B9EA","68D0A2A67F394ED5BA5B0D8E65F1B9EA","67963a18-c395-4a2d-8064-8531d7b15777","a0a8f18c-a66e-4ba7-a170-23efbdc67501","{""participantId"":""68D0A2A67F394ED5BA5B0D8E65F1B9EA"",""assignmentId"":""67963a18-c395-4a2d-8064-8531d7b15777"",""projectId"":""a0a8f18c-a66e-4ba7-a170-23efbdc67501""}","https://test12345.live/?participantId=68D0A2A67F394ED5BA5B0D8E65F1B9EA&assignmentId=67963a18-c395-4a2d-8064-8531d7b15777&projectId=a0a8f18c-a66e-4ba7-a170-23efbdc67501","68D0A2A67F394ED5BA5B0D8E65F1B9EA-2024-11-24-18-42-23","","null","","[]","null","",""
"","","","","","image-button-response","12","63456","0.0-6.0-1.0-0.1","68D0A2A67F394ED5BA5B0D8E65F1B9EA","68D0A2A67F394ED5BA5B0D8E65F1B9EA","67963a18-c395-4a2d-8064-8531d7b15777","a0a8f18c-a66e-4ba7-a170-23efbdc67501","{""participantId"":""68D0A2A67F394ED5BA5B0D8E65F1B9EA"",""assignmentId"":""67963a18-c395-4a2d-8064-8531d7b15777"",""projectId"":""a0a8f18c-a66e-4ba7-a170-23efbdc67501""}","https://test12345.live/?participantId=68D0A2A67F394ED5BA5B0D8E65F1B9EA&assignmentId=67963a18-c395-4a2d-8064-8531d7b15777&projectId=a0a8f18c-a66e-4ba7-a170-23efbdc67501","68D0A2A67F394ED5BA5B0D8E65F1B9EA-2024-11-24-18-42-23","","null","","images/instructions/movie_2.png","null","",""
"","","","","","image-button-response","13","64501","0.0-6.0-1.0-1.1","68D0A2A67F394ED5BA5B0D8E65F1B9EA","68D0A2A67F394ED5BA5B0D8E65F1B9EA","67963a18-c395-4a2d-8064-8531d7b15777","a0a8f18c-a66e-4ba7-a170-23efbdc67501","{""participantId"":""68D0A2A67F394ED5BA5B0D8E65F1B9EA"",""assignmentId"":""67963a18-c395-4a2d-8064-8531d7b15777"",""projectId"":""a0a8f18c-a66e-4ba7-a170-23efbdc67501""}","https://test12345.live/?participantId=68D0A2A67F394ED5BA5B0D8E65F1B9EA&assignmentId=67963a18-c395-4a2d-8064-8531d7b15777&projectId=a0a8f18c-a66e-4ba7-a170-23efbdc67501","68D0A2A67F394ED5BA5B0D8E65F1B9EA-2024-11-24-18-42-23","","1037","","images/instructions/movie_2.png","0","",""
"","","","","","image-button-response","14","66305","0.0-6.0-1.0-2.1","68D0A2A67F394ED5BA5B0D8E65F1B9EA","68D0A2A67F394ED5BA5B0D8E65F1B9EA","67963a18-c395-4a2d-8064-8531d7b15777","a0a8f18c-a66e-4ba7-a170-23efbdc67501","{""participantId"":""68D0A2A67F394ED5BA5B0D8E65F1B9EA"",""assignmentId"":""67963a18-c395-4a2d-8064-8531d7b15777"",""projectId"":""a0a8f18c-a66e-4ba7-a170-23efbdc67501""}","https://test12345.live/?participantId=68D0A2A67F394ED5BA5B0D8E65F1B9EA&assignmentId=67963a18-c395-4a2d-8064-8531d7b15777&projectId=a0a8f18c-a66e-4ba7-a170-23efbdc67501","68D0A2A67F394ED5BA5B0D8E65F1B9EA-2024-11-24-18-42-23","","null","","[]","null","",""
"","","","","","image-button-response","15","70812","0.0-6.0-1.0-0.2","68D0A2A67F394ED5BA5B0D8E65F1B9EA","68D0A2A67F394ED5BA5B0D8E65F1B9EA","67963a18-c395-4a2d-8064-8531d7b15777","a0a8f18c-a66e-4ba7-a170-23efbdc67501","{""participantId"":""68D0A2A67F394ED5BA5B0D8E65F1B9EA"",""assignmentId"":""67963a18-c395-4a2d-8064-8531d7b15777"",""projectId"":""a0a8f18c-a66e-4ba7-a170-23efbdc67501""}","https://test12345.live/?participantId=68D0A2A67F394ED5BA5B0D8E65F1B9EA&assignmentId=67963a18-c395-4a2d-8064-8531d7b15777&projectId=a0a8f18c-a66e-4ba7-a170-23efbdc67501","68D0A2A67F394ED5BA5B0D8E65F1B9EA-2024-11-24-18-42-23","","null","","images/instructions/movie_3.png","null","",""
"","","","","","image-button-response","16","71691","0.0-6.0-1.0-1.2","68D0A2A67F394ED5BA5B0D8E65F1B9EA","68D0A2A67F394ED5BA5B0D8E65F1B9EA","67963a18-c395-4a2d-8064-8531d7b15777","a0a8f18c-a66e-4ba7-a170-23efbdc67501","{""participantId"":""68D0A2A67F394ED5BA5B0D8E65F1B9EA"",""assignmentId"":""67963a18-c395-4a2d-8064-8531d7b15777"",""projectId"":""a0a8f18c-a66e-4ba7-a170-23efbdc67501""}","https://test12345.live/?participantId=68D0A2A67F394ED5BA5B0D8E65F1B9EA&assignmentId=67963a18-c395-4a2d-8064-8531d7b15777&projectId=a0a8f18c-a66e-4ba7-a170-23efbdc67501","68D0A2A67F394ED5BA5B0D8E65F1B9EA-2024-11-24-18-42-23","","871","","images/instructions/movie_3.png","0","",""
"","","","","","image-button-response","17","73495","0.0-6.0-1.0-2.2","68D0A2A67F394ED5BA5B0D8E65F1B9EA","68D0A2A67F394ED5BA5B0D8E65F1B9EA","67963a18-c395-4a2d-8064-8531d7b15777","a0a8f18c-a66e-4ba7-a170-23efbdc67501","{""participantId"":""68D0A2A67F394ED5BA5B0D8E65F1B9EA"",""assignmentId"":""67963a18-c395-4a2d-8064-8531d7b15777"",""projectId"":""a0a8f18c-a66e-4ba7-a170-23efbdc67501""}","https://test12345.live/?participantId=68D0A2A67F394ED5BA5B0D8E65F1B9EA&assignmentId=67963a18-c395-4a2d-8064-8531d7b15777&projectId=a0a8f18c-a66e-4ba7-a170-23efbdc67501","68D0A2A67F394ED5BA5B0D8E65F1B9EA-2024-11-24-18-42-23","","null","","[]","null","",""
"","","","","","image-button-response","18","78003","0.0-6.0-1.0-0.3","68D0A2A67F394ED5BA5B0D8E65F1B9EA","68D0A2A67F394ED5BA5B0D8E65F1B9EA","67963a18-c395-4a2d-8064-8531d7b15777","a0a8f18c-a66e-4ba7-a170-23efbdc67501","{""participantId"":""68D0A2A67F394ED5BA5B0D8E65F1B9EA"",""assignmentId"":""67963a18-c395-4a2d-8064-8531d7b15777"",""projectId"":""a0a8f18c-a66e-4ba7-a170-23efbdc67501""}","https://test12345.live/?participantId=68D0A2A67F394ED5BA5B0D8E65F1B9EA&assignmentId=67963a18-c395-4a2d-8064-8531d7b15777&projectId=a0a8f18c-a66e-4ba7-a170-23efbdc67501","68D0A2A67F394ED5BA5B0D8E65F1B9EA-2024-11-24-18-42-23","","null","","images/instructions/movie_4.png","null","",""
"","","","","","image-button-response","19","78772","0.0-6.0-1.0-1.3","68D0A2A67F394ED5BA5B0D8E65F1B9EA","68D0A2A67F394ED5BA5B0D8E65F1B9EA","67963a18-c395-4a2d-8064-8531d7b15777","a0a8f18c-a66e-4ba7-a170-23efbdc67501","{""participantId"":""68D0A2A67F394ED5BA5B0D8E65F1B9EA"",""assignmentId"":""67963a18-c395-4a2d-8064-8531d7b15777"",""projectId"":""a0a8f18c-a66e-4ba7-a170-23efbdc67501""}","https://test12345.live/?participantId=68D0A2A67F394ED5BA5B0D8E65F1B9EA&assignmentId=67963a18-c395-4a2d-8064-8531d7b15777&projectId=a0a8f18c-a66e-4ba7-a170-23efbdc67501","68D0A2A67F394ED5BA5B0D8E65F1B9EA-2024-11-24-18-42-23","","763","","images/instructions/movie_4.png","0","",""
"","","","","","image-button-response","20","80576","0.0-6.0-1.0-2.3","68D0A2A67F394ED5BA5B0D8E65F1B9EA","68D0A2A67F394ED5BA5B0D8E65F1B9EA","67963a18-c395-4a2d-8064-8531d7b15777","a0a8f18c-a66e-4ba7-a170-23efbdc67501","{""participantId"":""68D0A2A67F394ED5BA5B0D8E65F1B9EA"",""assignmentId"":""67963a18-c395-4a2d-8064-8531d7b15777"",""projectId"":""a0a8f18c-a66e-4ba7-a170-23efbdc67501""}","https://test12345.live/?participantId=68D0A2A67F394ED5BA5B0D8E65F1B9EA&assignmentId=67963a18-c395-4a2d-8064-8531d7b15777&projectId=a0a8f18c-a66e-4ba7-a170-23efbdc67501","68D0A2A67F394ED5BA5B0D8E65F1B9EA-2024-11-24-18-42-23","","null","","[]","null","",""
"","","","","","instructions","21","85246","0.0-7.0","68D0A2A67F394ED5BA5B0D8E65F1B9EA","68D0A2A67F394ED5BA5B0D8E65F1B9EA","67963a18-c395-4a2d-8064-8531d7b15777","a0a8f18c-a66e-4ba7-a170-23efbdc67501","{""participantId"":""68D0A2A67F394ED5BA5B0D8E65F1B9EA"",""assignmentId"":""67963a18-c395-4a2d-8064-8531d7b15777"",""projectId"":""a0a8f18c-a66e-4ba7-a170-23efbdc67501""}","https://test12345.live/?participantId=68D0A2A67F394ED5BA5B0D8E65F1B9EA&assignmentId=67963a18-c395-4a2d-8064-8531d7b15777&projectId=a0a8f18c-a66e-4ba7-a170-23efbdc67501","68D0A2A67F394ED5BA5B0D8E65F1B9EA-2024-11-24-18-42-23","[{""page_index"":0,""viewing_time"":2278},{""page_index"":1,""viewing_time"":2388}]","4668","","","","",""
"","","","","","html-audio-response","22","95050","0.0-8.0","68D0A2A67F394ED5BA5B0D8E65F1B9EA","68D0A2A67F394ED5BA5B0D8E65F1B9EA","67963a18-c395-4a2d-8064-8531d7b15777","a0a8f18c-a66e-4ba7-a170-23efbdc67501","{""participantId"":""68D0A2A67F394ED5BA5B0D8E65F1B9EA"",""assignmentId"":""67963a18-c395-4a2d-8064-8531d7b15777"",""projectId"":""a0a8f18c-a66e-4ba7-a170-23efbdc67501""}","https://test12345.live/?participantId=68D0A2A67F394ED5BA5B0D8E65F1B9EA&assignmentId=67963a18-c395-4a2d-8064-8531d7b15777&projectId=a0a8f18c-a66e-4ba7-a170-23efbdc67501","68D0A2A67F394ED5BA5B0D8E65F1B9EA-2024-11-24-18-42-23","","8410","","[""<span style=\""color: red; font-size: 24px\""> NOW RECORDING</span><p>Please say out loud all the images you saw, as many as you can remember. The images can be said in any order.</p>""]","","11",""
"","","","","","instructions","23","96153","0.0-9.0","68D0A2A67F394ED5BA5B0D8E65F1B9EA","68D0A2A67F394ED5BA5B0D8E65F1B9EA","67963a18-c395-4a2d-8064-8531d7b15777","a0a8f18c-a66e-4ba7-a170-23efbdc67501","{""participantId"":""68D0A2A67F394ED5BA5B0D8E65F1B9EA"",""assignmentId"":""67963a18-c395-4a2d-8064-8531d7b15777"",""projectId"":""a0a8f18c-a66e-4ba7-a170-23efbdc67501""}","https://test12345.live/?participantId=68D0A2A67F394ED5BA5B0D8E65F1B9EA&assignmentId=67963a18-c395-4a2d-8064-8531d7b15777&projectId=a0a8f18c-a66e-4ba7-a170-23efbdc67501","68D0A2A67F394ED5BA5B0D8E65F1B9EA-2024-11-24-18-42-23","[{""page_index"":0,""viewing_time"":1089}]","1090","","","","",""
"","","","","","image-button-response","24","102158","0.0-10.0-0.0","68D0A2A67F394ED5BA5B0D8E65F1B9EA","68D0A2A67F394ED5BA5B0D8E65F1B9EA","67963a18-c395-4a2d-8064-8531d7b15777","a0a8f18c-a66e-4ba7-a170-23efbdc67501","{""participantId"":""68D0A2A67F394ED5BA5B0D8E65F1B9EA"",""assignmentId"":""67963a18-c395-4a2d-8064-8531d7b15777"",""projectId"":""a0a8f18c-a66e-4ba7-a170-23efbdc67501""}","https://test12345.live/?participantId=68D0A2A67F394ED5BA5B0D8E65F1B9EA&assignmentId=67963a18-c395-4a2d-8064-8531d7b15777&projectId=a0a8f18c-a66e-4ba7-a170-23efbdc67501","68D0A2A67F394ED5BA5B0D8E65F1B9EA-2024-11-24-18-42-23","","null","","images/schematic_sequence/restaurant_scheme/restaurant_scheme_0.png","null","",""
"","","","","","image-button-response","25","106677","0.0-10.0-1.0-0.0","68D0A2A67F394ED5BA5B0D8E65F1B9EA","68D0A2A67F394ED5BA5B0D8E65F1B9EA","67963a18-c395-4a2d-8064-8531d7b15777","a0a8f18c-a66e-4ba7-a170-23efbdc67501","{""participantId"":""68D0A2A67F394ED5BA5B0D8E65F1B9EA"",""assignmentId"":""67963a18-c395-4a2d-8064-8531d7b15777"",""projectId"":""a0a8f18c-a66e-4ba7-a170-23efbdc67501""}","https://test12345.live/?participantId=68D0A2A67F394ED5BA5B0D8E65F1B9EA&assignmentId=67963a18-c395-4a2d-8064-8531d7b15777&projectId=a0a8f18c-a66e-4ba7-a170-23efbdc67501","68D0A2A67F394ED5BA5B0D8E65F1B9EA-2024-11-24-18-42-23","","null","","images/schematic_sequence/restaurant_scheme/restaurant_scheme_8.png","null","",""
"","","","","","image-button-response","26","108526","0.0-10.0-1.0-1.0","68D0A2A67F394ED5BA5B0D8E65F1B9EA","68D0A2A67F394ED5BA5B0D8E65F1B9EA","67963a18-c395-4a2d-8064-8531d7b15777","a0a8f18c-a66e-4ba7-a170-23efbdc67501","{""participantId"":""68D0A2A67F394ED5BA5B0D8E65F1B9EA"",""assignmentId"":""67963a18-c395-4a2d-8064-8531d7b15777"",""projectId"":""a0a8f18c-a66e-4ba7-a170-23efbdc67501""}","https://test12345.live/?participantId=68D0A2A67F394ED5BA5B0D8E65F1B9EA&assignmentId=67963a18-c395-4a2d-8064-8531d7b15777&projectId=a0a8f18c-a66e-4ba7-a170-23efbdc67501","68D0A2A67F394ED5BA5B0D8E65F1B9EA-2024-11-24-18-42-23","","1842","","images/schematic_sequence/restaurant_scheme/restaurant_scheme_8.png","1","",""
"","","","","","image-button-response","27","110330","0.0-10.0-1.0-2.0","68D0A2A67F394ED5BA5B0D8E65F1B9EA","68D0A2A67F394ED5BA5B0D8E65F1B9EA","67963a18-c395-4a2d-8064-8531d7b15777","a0a8f18c-a66e-4ba7-a170-23efbdc67501","{""participantId"":""68D0A2A67F394ED5BA5B0D8E65F1B9EA"",""assignmentId"":""67963a18-c395-4a2d-8064-8531d7b15777"",""projectId"":""a0a8f18c-a66e-4ba7-a170-23efbdc67501""}","https://test12345.live/?participantId=68D0A2A67F394ED5BA5B0D8E65F1B9EA&assignmentId=67963a18-c395-4a2d-8064-8531d7b15777&projectId=a0a8f18c-a66e-4ba7-a170-23efbdc67501","68D0A2A67F394ED5BA5B0D8E65F1B9EA-2024-11-24-18-42-23","","null","","[]","null","",""
"","","","","","image-button-response","28","114838","0.0-10.0-1.0-0.1","68D0A2A67F394ED5BA5B0D8E65F1B9EA","68D0A2A67F394ED5BA5B0D8E65F1B9EA","67963a18-c395-4a2d-8064-8531d7b15777","a0a8f18c-a66e-4ba7-a170-23efbdc67501","{""participantId"":""68D0A2A67F394ED5BA5B0D8E65F1B9EA"",""assignmentId"":""67963a18-c395-4a2d-8064-8531d7b15777"",""projectId"":""a0a8f18c-a66e-4ba7-a170-23efbdc67501""}","https://test12345.live/?participantId=68D0A2A67F394ED5BA5B0D8E65F1B9EA&assignmentId=67963a18-c395-4a2d-8064-8531d7b15777&projectId=a0a8f18c-a66e-4ba7-a170-23efbdc67501","68D0A2A67F394ED5BA5B0D8E65F1B9EA-2024-11-24-18-42-23","","null","","images/schematic_sequence/restaurant_scheme/restaurant_scheme_1.png","null","",""
"","","","","","image-button-response","29","116827","0.0-10.0-1.0-1.1","68D0A2A67F394ED5BA5B0D8E65F1B9EA","68D0A2A67F394ED5BA5B0D8E65F1B9EA","67963a18-c395-4a2d-8064-8531d7b15777","a0a8f18c-a66e-4ba7-a170-23efbdc67501","{""participantId"":""68D0A2A67F394ED5BA5B0D8E65F1B9EA"",""assignmentId"":""67963a18-c395-4a2d-8064-8531d7b15777"",""projectId"":""a0a8f18c-a66e-4ba7-a170-23efbdc67501""}","https://test12345.live/?participantId=68D0A2A67F394ED5BA5B0D8E65F1B9EA&assignmentId=67963a18-c395-4a2d-8064-8531d7b15777&projectId=a0a8f18c-a66e-4ba7-a170-23efbdc67501","68D0A2A67F394ED5BA5B0D8E65F1B9EA-2024-11-24-18-42-23","","1980","","images/schematic_sequence/restaurant_scheme/restaurant_scheme_1.png","0","",""
"","","","","","image-button-response","30","118633","0.0-10.0-1.0-2.1","68D0A2A67F394ED5BA5B0D8E65F1B9EA","68D0A2A67F394ED5BA5B0D8E65F1B9EA","67963a18-c395-4a2d-8064-8531d7b15777","a0a8f18c-a66e-4ba7-a170-23efbdc67501","{""participantId"":""68D0A2A67F394ED5BA5B0D8E65F1B9EA"",""assignmentId"":""67963a18-c395-4a2d-8064-8531d7b15777"",""projectId"":""a0a8f18c-a66e-4ba7-a170-23efbdc67501""}","https://test12345.live/?participantId=68D0A2A67F394ED5BA5B0D8E65F1B9EA&assignmentId=67963a18-c395-4a2d-8064-8531d7b15777&projectId=a0a8f18c-a66e-4ba7-a170-23efbdc67501","68D0A2A67F394ED5BA5B0D8E65F1B9EA-2024-11-24-18-42-23","","null","","[]","null","",""
"","","","","","image-button-response","31","123142","0.0-10.0-1.0-0.2","68D0A2A67F394ED5BA5B0D8E65F1B9EA","68D0A2A67F394ED5BA5B0D8E65F1B9EA","67963a18-c395-4a2d-8064-8531d7b15777","a0a8f18c-a66e-4ba7-a170-23efbdc67501","{""participantId"":""68D0A2A67F394ED5BA5B0D8E65F1B9EA"",""assignmentId"":""67963a18-c395-4a2d-8064-8531d7b15777"",""projectId"":""a0a8f18c-a66e-4ba7-a170-23efbdc67501""}","https://test12345.live/?participantId=68D0A2A67F394ED5BA5B0D8E65F1B9EA&assignmentId=67963a18-c395-4a2d-8064-8531d7b15777&projectId=a0a8f18c-a66e-4ba7-a170-23efbdc67501","68D0A2A67F394ED5BA5B0D8E65F1B9EA-2024-11-24-18-42-23","","null","","images/schematic_sequence/restaurant_scheme/restaurant_scheme_ten.png","null","",""
"","","","","","image-button-response","32","124354","0.0-10.0-1.0-1.2","68D0A2A67F394ED5BA5B0D8E65F1B9EA","68D0A2A67F394ED5BA5B0D8E65F1B9EA","67963a18-c395-4a2d-8064-8531d7b15777","a0a8f18c-a66e-4ba7-a170-23efbdc67501","{""participantId"":""68D0A2A67F394ED5BA5B0D8E65F1B9EA"",""assignmentId"":""67963a18-c395-4a2d-8064-8531d7b15777"",""projectId"":""a0a8f18c-a66e-4ba7-a170-23efbdc67501""}","https://test12345.live/?participantId=68D0A2A67F394ED5BA5B0D8E65F1B9EA&assignmentId=67963a18-c395-4a2d-8064-8531d7b15777&projectId=a0a8f18c-a66e-4ba7-a170-23efbdc67501","68D0A2A67F394ED5BA5B0D8E65F1B9EA-2024-11-24-18-42-23","","1205","","images/schematic_sequence/restaurant_scheme/restaurant_scheme_ten.png","0","",""
"","","","","","image-button-response","33","126158","0.0-10.0-1.0-2.2","68D0A2A67F394ED5BA5B0D8E65F1B9EA","68D0A2A67F394ED5BA5B0D8E65F1B9EA","67963a18-c395-4a2d-8064-8531d7b15777","a0a8f18c-a66e-4ba7-a170-23efbdc67501","{""participantId"":""68D0A2A67F394ED5BA5B0D8E65F1B9EA"",""assignmentId"":""67963a18-c395-4a2d-8064-8531d7b15777"",""projectId"":""a0a8f18c-a66e-4ba7-a170-23efbdc67501""}","https://test12345.live/?participantId=68D0A2A67F394ED5BA5B0D8E65F1B9EA&assignmentId=67963a18-c395-4a2d-8064-8531d7b15777&projectId=a0a8f18c-a66e-4ba7-a170-23efbdc67501","68D0A2A67F394ED5BA5B0D8E65F1B9EA-2024-11-24-18-42-23","","null","","[]","null","",""
"","","","","","image-button-response","34","130666","0.0-10.0-1.0-0.3","68D0A2A67F394ED5BA5B0D8E65F1B9EA","68D0A2A67F394ED5BA5B0D8E65F1B9EA","67963a18-c395-4a2d-8064-8531d7b15777","a0a8f18c-a66e-4ba7-a170-23efbdc67501","{""participantId"":""68D0A2A67F394ED5BA5B0D8E65F1B9EA"",""assignmentId"":""67963a18-c395-4a2d-8064-8531d7b15777"",""projectId"":""a0a8f18c-a66e-4ba7-a170-23efbdc67501""}","https://test12345.live/?participantId=68D0A2A67F394ED5BA5B0D8E65F1B9EA&assignmentId=67963a18-c395-4a2d-8064-8531d7b15777&projectId=a0a8f18c-a66e-4ba7-a170-23efbdc67501","68D0A2A67F394ED5BA5B0D8E65F1B9EA-2024-11-24-18-42-23","","null","","images/schematic_sequence/restaurant_scheme/restaurant_scheme_3.png","null","",""
"","","","","","image-button-response","35","132000","0.0-10.0-1.0-1.3","68D0A2A67F394ED5BA5B0D8E65F1B9EA","68D0A2A67F394ED5BA5B0D8E65F1B9EA","67963a18-c395-4a2d-8064-8531d7b15777","a0a8f18c-a66e-4ba7-a170-23efbdc67501","{""participantId"":""68D0A2A67F394ED5BA5B0D8E65F1B9EA"",""assignmentId"":""67963a18-c395-4a2d-8064-8531d7b15777"",""projectId"":""a0a8f18c-a66e-4ba7-a170-23efbdc67501""}","https://test12345.live/?participantId=68D0A2A67F394ED5BA5B0D8E65F1B9EA&assignmentId=67963a18-c395-4a2d-8064-8531d7b15777&projectId=a0a8f18c-a66e-4ba7-a170-23efbdc67501","68D0A2A67F394ED5BA5B0D8E65F1B9EA-2024-11-24-18-42-23","","1326","","images/schematic_sequence/restaurant_scheme/restaurant_scheme_3.png","1","",""
"","","","","","image-button-response","36","133804","0.0-10.0-1.0-2.3","68D0A2A67F394ED5BA5B0D8E65F1B9EA","68D0A2A67F394ED5BA5B0D8E65F1B9EA","67963a18-c395-4a2d-8064-8531d7b15777","a0a8f18c-a66e-4ba7-a170-23efbdc67501","{""participantId"":""68D0A2A67F394ED5BA5B0D8E65F1B9EA"",""assignmentId"":""67963a18-c395-4a2d-8064-8531d7b15777"",""projectId"":""a0a8f18c-a66e-4ba7-a170-23efbdc67501""}","https://test12345.live/?participantId=68D0A2A67F394ED5BA5B0D8E65F1B9EA&assignmentId=67963a18-c395-4a2d-8064-8531d7b15777&projectId=a0a8f18c-a66e-4ba7-a170-23efbdc67501","68D0A2A67F394ED5BA5B0D8E65F1B9EA-2024-11-24-18-42-23","","null","","[]","null","",""
"","","","","","image-button-response","37","138312","0.0-10.0-1.0-0.4","68D0A2A67F394ED5BA5B0D8E65F1B9EA","68D0A2A67F394ED5BA5B0D8E65F1B9EA","67963a18-c395-4a2d-8064-8531d7b15777","a0a8f18c-a66e-4ba7-a170-23efbdc67501","{""participantId"":""68D0A2A67F394ED5BA5B0D8E65F1B9EA"",""assignmentId"":""67963a18-c395-4a2d-8064-8531d7b15777"",""projectId"":""a0a8f18c-a66e-4ba7-a170-23efbdc67501""}","https://test12345.live/?participantId=68D0A2A67F394ED5BA5B0D8E65F1B9EA&assignmentId=67963a18-c395-4a2d-8064-8531d7b15777&projectId=a0a8f18c-a66e-4ba7-a170-23efbdc67501","68D0A2A67F394ED5BA5B0D8E65F1B9EA-2024-11-24-18-42-23","","null","","images/schematic_sequence/restaurant_scheme/restaurant_scheme_4.png","null","",""
"","","","","","image-button-response","38","139599","0.0-10.0-1.0-1.4","68D0A2A67F394ED5BA5B0D8E65F1B9EA","68D0A2A67F394ED5BA5B0D8E65F1B9EA","67963a18-c395-4a2d-8064-8531d7b15777","a0a8f18c-a66e-4ba7-a170-23efbdc67501","{""participantId"":""68D0A2A67F394ED5BA5B0D8E65F1B9EA"",""assignmentId"":""67963a18-c395-4a2d-8064-8531d7b15777"",""projectId"":""a0a8f18c-a66e-4ba7-a170-23efbdc67501""}","https://test12345.live/?participantId=68D0A2A67F394ED5BA5B0D8E65F1B9EA&assignmentId=67963a18-c395-4a2d-8064-8531d7b15777&projectId=a0a8f18c-a66e-4ba7-a170-23efbdc67501","68D0A2A67F394ED5BA5B0D8E65F1B9EA-2024-11-24-18-42-23","","1278","","images/schematic_sequence/restaurant_scheme/restaurant_scheme_4.png","0","",""
"","","","","","image-button-response","39","141402","0.0-10.0-1.0-2.4","68D0A2A67F394ED5BA5B0D8E65F1B9EA","68D0A2A67F394ED5BA5B0D8E65F1B9EA","67963a18-c395-4a2d-8064-8531d7b15777","a0a8f18c-a66e-4ba7-a170-23efbdc67501","{""participantId"":""68D0A2A67F394ED5BA5B0D8E65F1B9EA"",""assignmentId"":""67963a18-c395-4a2d-8064-8531d7b15777"",""projectId"":""a0a8f18c-a66e-4ba7-a170-23efbdc67501""}","https://test12345.live/?participantId=68D0A2A67F394ED5BA5B0D8E65F1B9EA&assignmentId=67963a18-c395-4a2d-8064-8531d7b15777&projectId=a0a8f18c-a66e-4ba7-a170-23efbdc67501","68D0A2A67F394ED5BA5B0D8E65F1B9EA-2024-11-24-18-42-23","","null","","[]","null","",""
"","","","","","image-button-response","40","145911","0.0-10.0-1.0-0.5","68D0A2A67F394ED5BA5B0D8E65F1B9EA","68D0A2A67F394ED5BA5B0D8E65F1B9EA","67963a18-c395-4a2d-8064-8531d7b15777","a0a8f18c-a66e-4ba7-a170-23efbdc67501","{""participantId"":""68D0A2A67F394ED5BA5B0D8E65F1B9EA"",""assignmentId"":""67963a18-c395-4a2d-8064-8531d7b15777"",""projectId"":""a0a8f18c-a66e-4ba7-a170-23efbdc67501""}","https://test12345.live/?participantId=68D0A2A67F394ED5BA5B0D8E65F1B9EA&assignmentId=67963a18-c395-4a2d-8064-8531d7b15777&projectId=a0a8f18c-a66e-4ba7-a170-23efbdc67501","68D0A2A67F394ED5BA5B0D8E65F1B9EA-2024-11-24-18-42-23","","null","","images/schematic_sequence/restaurant_scheme/restaurant_scheme_5.png","null","",""
"","","","","","image-button-response","41","147304","0.0-10.0-1.0-1.5","68D0A2A67F394ED5BA5B0D8E65F1B9EA","68D0A2A67F394ED5BA5B0D8E65F1B9EA","67963a18-c395-4a2d-8064-8531d7b15777","a0a8f18c-a66e-4ba7-a170-23efbdc67501","{""participantId"":""68D0A2A67F394ED5BA5B0D8E65F1B9EA"",""assignmentId"":""67963a18-c395-4a2d-8064-8531d7b15777"",""projectId"":""a0a8f18c-a66e-4ba7-a170-23efbdc67501""}","https://test12345.live/?participantId=68D0A2A67F394ED5BA5B0D8E65F1B9EA&assignmentId=67963a18-c395-4a2d-8064-8531d7b15777&projectId=a0a8f18c-a66e-4ba7-a170-23efbdc67501","68D0A2A67F394ED5BA5B0D8E65F1B9EA-2024-11-24-18-42-23","","1386","","images/schematic_sequence/restaurant_scheme/restaurant_scheme_5.png","0","",""
"","","","","","image-button-response","42","149107","0.0-10.0-1.0-2.5","68D0A2A67F394ED5BA5B0D8E65F1B9EA","68D0A2A67F394ED5BA5B0D8E65F1B9EA","67963a18-c395-4a2d-8064-8531d7b15777","a0a8f18c-a66e-4ba7-a170-23efbdc67501","{""participantId"":""68D0A2A67F394ED5BA5B0D8E65F1B9EA"",""assignmentId"":""67963a18-c395-4a2d-8064-8531d7b15777"",""projectId"":""a0a8f18c-a66e-4ba7-a170-23efbdc67501""}","https://test12345.live/?participantId=68D0A2A67F394ED5BA5B0D8E65F1B9EA&assignmentId=67963a18-c395-4a2d-8064-8531d7b15777&projectId=a0a8f18c-a66e-4ba7-a170-23efbdc67501","68D0A2A67F394ED5BA5B0D8E65F1B9EA-2024-11-24-18-42-23","","null","","[]","null","",""
"","","","","","image-button-response","43","153615","0.0-10.0-1.0-0.6","68D0A2A67F394ED5BA5B0D8E65F1B9EA","68D0A2A67F394ED5BA5B0D8E65F1B9EA","67963a18-c395-4a2d-8064-8531d7b15777","a0a8f18c-a66e-4ba7-a170-23efbdc67501","{""participantId"":""68D0A2A67F394ED5BA5B0D8E65F1B9EA"",""assignmentId"":""67963a18-c395-4a2d-8064-8531d7b15777"",""projectId"":""a0a8f18c-a66e-4ba7-a170-23efbdc67501""}","https://test12345.live/?participantId=68D0A2A67F394ED5BA5B0D8E65F1B9EA&assignmentId=67963a18-c395-4a2d-8064-8531d7b15777&projectId=a0a8f18c-a66e-4ba7-a170-23efbdc67501","68D0A2A67F394ED5BA5B0D8E65F1B9EA-2024-11-24-18-42-23","","null","","images/schematic_sequence/restaurant_scheme/restaurant_scheme_6.png","null","",""
"","","","","","image-button-response","44","155136","0.0-10.0-1.0-1.6","68D0A2A67F394ED5BA5B0D8E65F1B9EA","68D0A2A67F394ED5BA5B0D8E65F1B9EA","67963a18-c395-4a2d-8064-8531d7b15777","a0a8f18c-a66e-4ba7-a170-23efbdc67501","{""participantId"":""68D0A2A67F394ED5BA5B0D8E65F1B9EA"",""assignmentId"":""67963a18-c395-4a2d-8064-8531d7b15777"",""projectId"":""a0a8f18c-a66e-4ba7-a170-23efbdc67501""}","https://test12345.live/?participantId=68D0A2A67F394ED5BA5B0D8E65F1B9EA&assignmentId=67963a18-c395-4a2d-8064-8531d7b15777&projectId=a0a8f18c-a66e-4ba7-a170-23efbdc67501","68D0A2A67F394ED5BA5B0D8E65F1B9EA-2024-11-24-18-42-23","","1513","","images/schematic_sequence/restaurant_scheme/restaurant_scheme_6.png","0","",""
"","","","","","image-button-response","45","156940","0.0-10.0-1.0-2.6","68D0A2A67F394ED5BA5B0D8E65F1B9EA","68D0A2A67F394ED5BA5B0D8E65F1B9EA","67963a18-c395-4a2d-8064-8531d7b15777","a0a8f18c-a66e-4ba7-a170-23efbdc67501","{""participantId"":""68D0A2A67F394ED5BA5B0D8E65F1B9EA"",""assignmentId"":""67963a18-c395-4a2d-8064-8531d7b15777"",""projectId"":""a0a8f18c-a66e-4ba7-a170-23efbdc67501""}","https://test12345.live/?participantId=68D0A2A67F394ED5BA5B0D8E65F1B9EA&assignmentId=67963a18-c395-4a2d-8064-8531d7b15777&projectId=a0a8f18c-a66e-4ba7-a170-23efbdc67501","68D0A2A67F394ED5BA5B0D8E65F1B9EA-2024-11-24-18-42-23","","null","","[]","null","",""
"","","","","","image-button-response","46","161448","0.0-10.0-1.0-0.7","68D0A2A67F394ED5BA5B0D8E65F1B9EA","68D0A2A67F394ED5BA5B0D8E65F1B9EA","67963a18-c395-4a2d-8064-8531d7b15777","a0a8f18c-a66e-4ba7-a170-23efbdc67501","{""participantId"":""68D0A2A67F394ED5BA5B0D8E65F1B9EA"",""assignmentId"":""67963a18-c395-4a2d-8064-8531d7b15777"",""projectId"":""a0a8f18c-a66e-4ba7-a170-23efbdc67501""}","https://test12345.live/?participantId=68D0A2A67F394ED5BA5B0D8E65F1B9EA&assignmentId=67963a18-c395-4a2d-8064-8531d7b15777&projectId=a0a8f18c-a66e-4ba7-a170-23efbdc67501","68D0A2A67F394ED5BA5B0D8E65F1B9EA-2024-11-24-18-42-23","","null","","images/schematic_sequence/restaurant_scheme/restaurant_scheme_9.png","null","",""
"","","","","","image-button-response","47","163483","0.0-10.0-1.0-1.7","68D0A2A67F394ED5BA5B0D8E65F1B9EA","68D0A2A67F394ED5BA5B0D8E65F1B9EA","67963a18-c395-4a2d-8064-8531d7b15777","a0a8f18c-a66e-4ba7-a170-23efbdc67501","{""participantId"":""68D0A2A67F394ED5BA5B0D8E65F1B9EA"",""assignmentId"":""67963a18-c395-4a2d-8064-8531d7b15777"",""projectId"":""a0a8f18c-a66e-4ba7-a170-23efbdc67501""}","https://test12345.live/?participantId=68D0A2A67F394ED5BA5B0D8E65F1B9EA&assignmentId=67963a18-c395-4a2d-8064-8531d7b15777&projectId=a0a8f18c-a66e-4ba7-a170-23efbdc67501","68D0A2A67F394ED5BA5B0D8E65F1B9EA-2024-11-24-18-42-23","","2028","","images/schematic_sequence/restaurant_scheme/restaurant_scheme_9.png","0","",""
"","","","","","image-button-response","48","165287","0.0-10.0-1.0-2.7","68D0A2A67F394ED5BA5B0D8E65F1B9EA","68D0A2A67F394ED5BA5B0D8E65F1B9EA","67963a18-c395-4a2d-8064-8531d7b15777","a0a8f18c-a66e-4ba7-a170-23efbdc67501","{""participantId"":""68D0A2A67F394ED5BA5B0D8E65F1B9EA"",""assignmentId"":""67963a18-c395-4a2d-8064-8531d7b15777"",""projectId"":""a0a8f18c-a66e-4ba7-a170-23efbdc67501""}","https://test12345.live/?participantId=68D0A2A67F394ED5BA5B0D8E65F1B9EA&assignmentId=67963a18-c395-4a2d-8064-8531d7b15777&projectId=a0a8f18c-a66e-4ba7-a170-23efbdc67501","68D0A2A67F394ED5BA5B0D8E65F1B9EA-2024-11-24-18-42-23","","null","","[]","null","",""
"","","","","","image-button-response","49","169795","0.0-10.0-1.0-0.8","68D0A2A67F394ED5BA5B0D8E65F1B9EA","68D0A2A67F394ED5BA5B0D8E65F1B9EA","67963a18-c395-4a2d-8064-8531d7b15777","a0a8f18c-a66e-4ba7-a170-23efbdc67501","{""participantId"":""68D0A2A67F394ED5BA5B0D8E65F1B9EA"",""assignmentId"":""67963a18-c395-4a2d-8064-8531d7b15777"",""projectId"":""a0a8f18c-a66e-4ba7-a170-23efbdc67501""}","https://test12345.live/?participantId=68D0A2A67F394ED5BA5B0D8E65F1B9EA&assignmentId=67963a18-c395-4a2d-8064-8531d7b15777&projectId=a0a8f18c-a66e-4ba7-a170-23efbdc67501","68D0A2A67F394ED5BA5B0D8E65F1B9EA-2024-11-24-18-42-23","","null","","images/schematic_sequence/restaurant_scheme/restaurant_scheme_7.png","null","",""
"","","","","","image-button-response","50","171249","0.0-10.0-1.0-1.8","68D0A2A67F394ED5BA5B0D8E65F1B9EA","68D0A2A67F394ED5BA5B0D8E65F1B9EA","67963a18-c395-4a2d-8064-8531d7b15777","a0a8f18c-a66e-4ba7-a170-23efbdc67501","{""participantId"":""68D0A2A67F394ED5BA5B0D8E65F1B9EA"",""assignmentId"":""67963a18-c395-4a2d-8064-8531d7b15777"",""projectId"":""a0a8f18c-a66e-4ba7-a170-23efbdc67501""}","https://test12345.live/?participantId=68D0A2A67F394ED5BA5B0D8E65F1B9EA&assignmentId=67963a18-c395-4a2d-8064-8531d7b15777&projectId=a0a8f18c-a66e-4ba7-a170-23efbdc67501","68D0A2A67F394ED5BA5B0D8E65F1B9EA-2024-11-24-18-42-23","","1446","","images/schematic_sequence/restaurant_scheme/restaurant_scheme_7.png","1","",""
"","","","","","image-button-response","51","173053","0.0-10.0-1.0-2.8","68D0A2A67F394ED5BA5B0D8E65F1B9EA","68D0A2A67F394ED5BA5B0D8E65F1B9EA","67963a18-c395-4a2d-8064-8531d7b15777","a0a8f18c-a66e-4ba7-a170-23efbdc67501","{""participantId"":""68D0A2A67F394ED5BA5B0D8E65F1B9EA"",""assignmentId"":""67963a18-c395-4a2d-8064-8531d7b15777"",""projectId"":""a0a8f18c-a66e-4ba7-a170-23efbdc67501""}","https://test12345.live/?participantId=68D0A2A67F394ED5BA5B0D8E65F1B9EA&assignmentId=67963a18-c395-4a2d-8064-8531d7b15777&projectId=a0a8f18c-a66e-4ba7-a170-23efbdc67501","68D0A2A67F394ED5BA5B0D8E65F1B9EA-2024-11-24-18-42-23","","null","","[]","null","",""
"","","","","","image-button-response","52","177561","0.0-10.0-1.0-0.9","68D0A2A67F394ED5BA5B0D8E65F1B9EA","68D0A2A67F394ED5BA5B0D8E65F1B9EA","67963a18-c395-4a2d-8064-8531d7b15777","a0a8f18c-a66e-4ba7-a170-23efbdc67501","{""participantId"":""68D0A2A67F394ED5BA5B0D8E65F1B9EA"",""assignmentId"":""67963a18-c395-4a2d-8064-8531d7b15777"",""projectId"":""a0a8f18c-a66e-4ba7-a170-23efbdc67501""}","https://test12345.live/?participantId=68D0A2A67F394ED5BA5B0D8E65F1B9EA&assignmentId=67963a18-c395-4a2d-8064-8531d7b15777&projectId=a0a8f18c-a66e-4ba7-a170-23efbdc67501","68D0A2A67F394ED5BA5B0D8E65F1B9EA-2024-11-24-18-42-23","","null","","images/schematic_sequence/restaurant_scheme/restaurant_scheme_2.png","null","",""
"","","","","","image-button-response","53","178296","0.0-10.0-1.0-1.9","68D0A2A67F394ED5BA5B0D8E65F1B9EA","68D0A2A67F394ED5BA5B0D8E65F1B9EA","67963a18-c395-4a2d-8064-8531d7b15777","a0a8f18c-a66e-4ba7-a170-23efbdc67501","{""participantId"":""68D0A2A67F394ED5BA5B0D8E65F1B9EA"",""assignmentId"":""67963a18-c395-4a2d-8064-8531d7b15777"",""projectId"":""a0a8f18c-a66e-4ba7-a170-23efbdc67501""}","https://test12345.live/?participantId=68D0A2A67F394ED5BA5B0D8E65F1B9EA&assignmentId=67963a18-c395-4a2d-8064-8531d7b15777&projectId=a0a8f18c-a66e-4ba7-a170-23efbdc67501","68D0A2A67F394ED5BA5B0D8E65F1B9EA-2024-11-24-18-42-23","","728","","images/schematic_sequence/restaurant_scheme/restaurant_scheme_2.png","1","",""
"","","","","","image-button-response","54","180100","0.0-10.0-1.0-2.9","68D0A2A67F394ED5BA5B0D8E65F1B9EA","68D0A2A67F394ED5BA5B0D8E65F1B9EA","67963a18-c395-4a2d-8064-8531d7b15777","a0a8f18c-a66e-4ba7-a170-23efbdc67501","{""participantId"":""68D0A2A67F394ED5BA5B0D8E65F1B9EA"",""assignmentId"":""67963a18-c395-4a2d-8064-8531d7b15777"",""projectId"":""a0a8f18c-a66e-4ba7-a170-23efbdc67501""}","https://test12345.live/?participantId=68D0A2A67F394ED5BA5B0D8E65F1B9EA&assignmentId=67963a18-c395-4a2d-8064-8531d7b15777&projectId=a0a8f18c-a66e-4ba7-a170-23efbdc67501","68D0A2A67F394ED5BA5B0D8E65F1B9EA-2024-11-24-18-42-23","","null","","[]","null","",""
"","","","","","html-audio-response","55","207367","0.0-11.0","68D0A2A67F394ED5BA5B0D8E65F1B9EA","68D0A2A67F394ED5BA5B0D8E65F1B9EA","67963a18-c395-4a2d-8064-8531d7b15777","a0a8f18c-a66e-4ba7-a170-23efbdc67501","{""participantId"":""68D0A2A67F394ED5BA5B0D8E65F1B9EA"",""assignmentId"":""67963a18-c395-4a2d-8064-8531d7b15777"",""projectId"":""a0a8f18c-a66e-4ba7-a170-23efbdc67501""}","https://test12345.live/?participantId=68D0A2A67F394ED5BA5B0D8E65F1B9EA&assignmentId=67963a18-c395-4a2d-8064-8531d7b15777&projectId=a0a8f18c-a66e-4ba7-a170-23efbdc67501","68D0A2A67F394ED5BA5B0D8E65F1B9EA-2024-11-24-18-42-23","","26314","","[""<span style=\""color: red; font-size: 24px\""> NOW RECORDING</span><p>Please say out loud all the images you saw, as many as you can remember. The images can be said in any order.</p>""]","","15","restaurant_scheme"
"","","","","","image-button-response","56","213387","0.0-12.0-0.0","68D0A2A67F394ED5BA5B0D8E65F1B9EA","68D0A2A67F394ED5BA5B0D8E65F1B9EA","67963a18-c395-4a2d-8064-8531d7b15777","a0a8f18c-a66e-4ba7-a170-23efbdc67501","{""participantId"":""68D0A2A67F394ED5BA5B0D8E65F1B9EA"",""assignmentId"":""67963a18-c395-4a2d-8064-8531d7b15777"",""projectId"":""a0a8f18c-a66e-4ba7-a170-23efbdc67501""}","https://test12345.live/?participantId=68D0A2A67F394ED5BA5B0D8E65F1B9EA&assignmentId=67963a18-c395-4a2d-8064-8531d7b15777&projectId=a0a8f18c-a66e-4ba7-a170-23efbdc67501","68D0A2A67F394ED5BA5B0D8E65F1B9EA-2024-11-24-18-42-23","","null","","images/semantic_sequence/physical_activity_semantic/physical_activity_semantic_0.png","null","",""
"","","","","","image-button-response","57","217894","0.0-12.0-1.0-0.0","68D0A2A67F394ED5BA5B0D8E65F1B9EA","68D0A2A67F394ED5BA5B0D8E65F1B9EA","67963a18-c395-4a2d-8064-8531d7b15777","a0a8f18c-a66e-4ba7-a170-23efbdc67501","{""participantId"":""68D0A2A67F394ED5BA5B0D8E65F1B9EA"",""assignmentId"":""67963a18-c395-4a2d-8064-8531d7b15777"",""projectId"":""a0a8f18c-a66e-4ba7-a170-23efbdc67501""}","https://test12345.live/?participantId=68D0A2A67F394ED5BA5B0D8E65F1B9EA&assignmentId=67963a18-c395-4a2d-8064-8531d7b15777&projectId=a0a8f18c-a66e-4ba7-a170-23efbdc67501","68D0A2A67F394ED5BA5B0D8E65F1B9EA-2024-11-24-18-42-23","","null","","images/semantic_sequence/physical_activity_semantic/physical_activity_semantic_1.png","null","",""
"","","","","","image-button-response","58","219712","0.0-12.0-1.0-1.0","68D0A2A67F394ED5BA5B0D8E65F1B9EA","68D0A2A67F394ED5BA5B0D8E65F1B9EA","67963a18-c395-4a2d-8064-8531d7b15777","a0a8f18c-a66e-4ba7-a170-23efbdc67501","{""participantId"":""68D0A2A67F394ED5BA5B0D8E65F1B9EA"",""assignmentId"":""67963a18-c395-4a2d-8064-8531d7b15777"",""projectId"":""a0a8f18c-a66e-4ba7-a170-23efbdc67501""}","https://test12345.live/?participantId=68D0A2A67F394ED5BA5B0D8E65F1B9EA&assignmentId=67963a18-c395-4a2d-8064-8531d7b15777&projectId=a0a8f18c-a66e-4ba7-a170-23efbdc67501","68D0A2A67F394ED5BA5B0D8E65F1B9EA-2024-11-24-18-42-23","","1809","","images/semantic_sequence/physical_activity_semantic/physical_activity_semantic_1.png","0","",""
"","","","","","image-button-response","59","221516","0.0-12.0-1.0-2.0","68D0A2A67F394ED5BA5B0D8E65F1B9EA","68D0A2A67F394ED5BA5B0D8E65F1B9EA","67963a18-c395-4a2d-8064-8531d7b15777","a0a8f18c-a66e-4ba7-a170-23efbdc67501","{""participantId"":""68D0A2A67F394ED5BA5B0D8E65F1B9EA"",""assignmentId"":""67963a18-c395-4a2d-8064-8531d7b15777"",""projectId"":""a0a8f18c-a66e-4ba7-a170-23efbdc67501""}","https://test12345.live/?participantId=68D0A2A67F394ED5BA5B0D8E65F1B9EA&assignmentId=67963a18-c395-4a2d-8064-8531d7b15777&projectId=a0a8f18c-a66e-4ba7-a170-23efbdc67501","68D0A2A67F394ED5BA5B0D8E65F1B9EA-2024-11-24-18-42-23","","null","","[]","null","",""
"","","","","","image-button-response","60","226024","0.0-12.0-1.0-0.1","68D0A2A67F394ED5BA5B0D8E65F1B9EA","68D0A2A67F394ED5BA5B0D8E65F1B9EA","67963a18-c395-4a2d-8064-8531d7b15777","a0a8f18c-a66e-4ba7-a170-23efbdc67501","{""participantId"":""68D0A2A67F394ED5BA5B0D8E65F1B9EA"",""assignmentId"":""67963a18-c395-4a2d-8064-8531d7b15777"",""projectId"":""a0a8f18c-a66e-4ba7-a170-23efbdc67501""}","https://test12345.live/?participantId=68D0A2A67F394ED5BA5B0D8E65F1B9EA&assignmentId=67963a18-c395-4a2d-8064-8531d7b15777&projectId=a0a8f18c-a66e-4ba7-a170-23efbdc67501","68D0A2A67F394ED5BA5B0D8E65F1B9EA-2024-11-24-18-42-23","","null","","images/semantic_sequence/physical_activity_semantic/physical_activity_semantic_2.png","null","",""
"","","","","","image-button-response","61","226963","0.0-12.0-1.0-1.1","68D0A2A67F394ED5BA5B0D8E65F1B9EA","68D0A2A67F394ED5BA5B0D8E65F1B9EA","67963a18-c395-4a2d-8064-8531d7b15777","a0a8f18c-a66e-4ba7-a170-23efbdc67501","{""participantId"":""68D0A2A67F394ED5BA5B0D8E65F1B9EA"",""assignmentId"":""67963a18-c395-4a2d-8064-8531d7b15777"",""projectId"":""a0a8f18c-a66e-4ba7-a170-23efbdc67501""}","https://test12345.live/?participantId=68D0A2A67F394ED5BA5B0D8E65F1B9EA&assignmentId=67963a18-c395-4a2d-8064-8531d7b15777&projectId=a0a8f18c-a66e-4ba7-a170-23efbdc67501","68D0A2A67F394ED5BA5B0D8E65F1B9EA-2024-11-24-18-42-23","","931","","images/semantic_sequence/physical_activity_semantic/physical_activity_semantic_2.png","0","",""
"","","","","","image-button-response","62","228767","0.0-12.0-1.0-2.1","68D0A2A67F394ED5BA5B0D8E65F1B9EA","68D0A2A67F394ED5BA5B0D8E65F1B9EA","67963a18-c395-4a2d-8064-8531d7b15777","a0a8f18c-a66e-4ba7-a170-23efbdc67501","{""participantId"":""68D0A2A67F394ED5BA5B0D8E65F1B9EA"",""assignmentId"":""67963a18-c395-4a2d-8064-8531d7b15777"",""projectId"":""a0a8f18c-a66e-4ba7-a170-23efbdc67501""}","https://test12345.live/?participantId=68D0A2A67F394ED5BA5B0D8E65F1B9EA&assignmentId=67963a18-c395-4a2d-8064-8531d7b15777&projectId=a0a8f18c-a66e-4ba7-a170-23efbdc67501","68D0A2A67F394ED5BA5B0D8E65F1B9EA-2024-11-24-18-42-23","","null","","[]","null","",""
"","","","","","image-button-response","63","233275","0.0-12.0-1.0-0.2","68D0A2A67F394ED5BA5B0D8E65F1B9EA","68D0A2A67F394ED5BA5B0D8E65F1B9EA","67963a18-c395-4a2d-8064-8531d7b15777","a0a8f18c-a66e-4ba7-a170-23efbdc67501","{""participantId"":""68D0A2A67F394ED5BA5B0D8E65F1B9EA"",""assignmentId"":""67963a18-c395-4a2d-8064-8531d7b15777"",""projectId"":""a0a8f18c-a66e-4ba7-a170-23efbdc67501""}","https://test12345.live/?participantId=68D0A2A67F394ED5BA5B0D8E65F1B9EA&assignmentId=67963a18-c395-4a2d-8064-8531d7b15777&projectId=a0a8f18c-a66e-4ba7-a170-23efbdc67501","68D0A2A67F394ED5BA5B0D8E65F1B9EA-2024-11-24-18-42-23","","null","","images/semantic_sequence/physical_activity_semantic/physical_activity_semantic_3.png","null","",""
"","","","","","image-button-response","64","234350","0.0-12.0-1.0-1.2","68D0A2A67F394ED5BA5B0D8E65F1B9EA","68D0A2A67F394ED5BA5B0D8E65F1B9EA","67963a18-c395-4a2d-8064-8531d7b15777","a0a8f18c-a66e-4ba7-a170-23efbdc67501","{""participantId"":""68D0A2A67F394ED5BA5B0D8E65F1B9EA"",""assignmentId"":""67963a18-c395-4a2d-8064-8531d7b15777"",""projectId"":""a0a8f18c-a66e-4ba7-a170-23efbdc67501""}","https://test12345.live/?participantId=68D0A2A67F394ED5BA5B0D8E65F1B9EA&assignmentId=67963a18-c395-4a2d-8064-8531d7b15777&projectId=a0a8f18c-a66e-4ba7-a170-23efbdc67501","68D0A2A67F394ED5BA5B0D8E65F1B9EA-2024-11-24-18-42-23","","1064","","images/semantic_sequence/physical_activity_semantic/physical_activity_semantic_3.png","0","",""
"","","","","","image-button-response","65","236154","0.0-12.0-1.0-2.2","68D0A2A67F394ED5BA5B0D8E65F1B9EA","68D0A2A67F394ED5BA5B0D8E65F1B9EA","67963a18-c395-4a2d-8064-8531d7b15777","a0a8f18c-a66e-4ba7-a170-23efbdc67501","{""participantId"":""68D0A2A67F394ED5BA5B0D8E65F1B9EA"",""assignmentId"":""67963a18-c395-4a2d-8064-8531d7b15777"",""projectId"":""a0a8f18c-a66e-4ba7-a170-23efbdc67501""}","https://test12345.live/?participantId=68D0A2A67F394ED5BA5B0D8E65F1B9EA&assignmentId=67963a18-c395-4a2d-8064-8531d7b15777&projectId=a0a8f18c-a66e-4ba7-a170-23efbdc67501","68D0A2A67F394ED5BA5B0D8E65F1B9EA-2024-11-24-18-42-23","","null","","[]","null","",""
"","","","","","image-button-response","66","240661","0.0-12.0-1.0-0.3","68D0A2A67F394ED5BA5B0D8E65F1B9EA","68D0A2A67F394ED5BA5B0D8E65F1B9EA","67963a18-c395-4a2d-8064-8531d7b15777","a0a8f18c-a66e-4ba7-a170-23efbdc67501","{""participantId"":""68D0A2A67F394ED5BA5B0D8E65F1B9EA"",""assignmentId"":""67963a18-c395-4a2d-8064-8531d7b15777"",""projectId"":""a0a8f18c-a66e-4ba7-a170-23efbdc67501""}","https://test12345.live/?participantId=68D0A2A67F394ED5BA5B0D8E65F1B9EA&assignmentId=67963a18-c395-4a2d-8064-8531d7b15777&projectId=a0a8f18c-a66e-4ba7-a170-23efbdc67501","68D0A2A67F394ED5BA5B0D8E65F1B9EA-2024-11-24-18-42-23","","null","","images/semantic_sequence/physical_activity_semantic/physical_activity_semantic_4.png","null","",""
"","","","","","image-button-response","67","242091","0.0-12.0-1.0-1.3","68D0A2A67F394ED5BA5B0D8E65F1B9EA","68D0A2A67F394ED5BA5B0D8E65F1B9EA","67963a18-c395-4a2d-8064-8531d7b15777","a0a8f18c-a66e-4ba7-a170-23efbdc67501","{""participantId"":""68D0A2A67F394ED5BA5B0D8E65F1B9EA"",""assignmentId"":""67963a18-c395-4a2d-8064-8531d7b15777"",""projectId"":""a0a8f18c-a66e-4ba7-a170-23efbdc67501""}","https://test12345.live/?participantId=68D0A2A67F394ED5BA5B0D8E65F1B9EA&assignmentId=67963a18-c395-4a2d-8064-8531d7b15777&projectId=a0a8f18c-a66e-4ba7-a170-23efbdc67501","68D0A2A67F394ED5BA5B0D8E65F1B9EA-2024-11-24-18-42-23","","1423","","images/semantic_sequence/physical_activity_semantic/physical_activity_semantic_4.png","0","",""
"","","","","","image-button-response","68","243895","0.0-12.0-1.0-2.3","68D0A2A67F394ED5BA5B0D8E65F1B9EA","68D0A2A67F394ED5BA5B0D8E65F1B9EA","67963a18-c395-4a2d-8064-8531d7b15777","a0a8f18c-a66e-4ba7-a170-23efbdc67501","{""participantId"":""68D0A2A67F394ED5BA5B0D8E65F1B9EA"",""assignmentId"":""67963a18-c395-4a2d-8064-8531d7b15777"",""projectId"":""a0a8f18c-a66e-4ba7-a170-23efbdc67501""}","https://test12345.live/?participantId=68D0A2A67F394ED5BA5B0D8E65F1B9EA&assignmentId=67963a18-c395-4a2d-8064-8531d7b15777&projectId=a0a8f18c-a66e-4ba7-a170-23efbdc67501","68D0A2A67F394ED5BA5B0D8E65F1B9EA-2024-11-24-18-42-23","","null","","[]","null","",""
"","","","","","image-button-response","69","248402","0.0-12.0-1.0-0.4","68D0A2A67F394ED5BA5B0D8E65F1B9EA","68D0A2A67F394ED5BA5B0D8E65F1B9EA","67963a18-c395-4a2d-8064-8531d7b15777","a0a8f18c-a66e-4ba7-a170-23efbdc67501","{""participantId"":""68D0A2A67F394ED5BA5B0D8E65F1B9EA"",""assignmentId"":""67963a18-c395-4a2d-8064-8531d7b15777"",""projectId"":""a0a8f18c-a66e-4ba7-a170-23efbdc67501""}","https://test12345.live/?participantId=68D0A2A67F394ED5BA5B0D8E65F1B9EA&assignmentId=67963a18-c395-4a2d-8064-8531d7b15777&projectId=a0a8f18c-a66e-4ba7-a170-23efbdc67501","68D0A2A67F394ED5BA5B0D8E65F1B9EA-2024-11-24-18-42-23","","null","","images/semantic_sequence/physical_activity_semantic/physical_activity_semantic_5.png","null","",""
"","","","","","image-button-response","70","249992","0.0-12.0-1.0-1.4","68D0A2A67F394ED5BA5B0D8E65F1B9EA","68D0A2A67F394ED5BA5B0D8E65F1B9EA","67963a18-c395-4a2d-8064-8531d7b15777","a0a8f18c-a66e-4ba7-a170-23efbdc67501","{""participantId"":""68D0A2A67F394ED5BA5B0D8E65F1B9EA"",""assignmentId"":""67963a18-c395-4a2d-8064-8531d7b15777"",""projectId"":""a0a8f18c-a66e-4ba7-a170-23efbdc67501""}","https://test12345.live/?participantId=68D0A2A67F394ED5BA5B0D8E65F1B9EA&assignmentId=67963a18-c395-4a2d-8064-8531d7b15777&projectId=a0a8f18c-a66e-4ba7-a170-23efbdc67501","68D0A2A67F394ED5BA5B0D8E65F1B9EA-2024-11-24-18-42-23","","1582","","images/semantic_sequence/physical_activity_semantic/physical_activity_semantic_5.png","0","",""
"","","","","","image-button-response","71","251795","0.0-12.0-1.0-2.4","68D0A2A67F394ED5BA5B0D8E65F1B9EA","68D0A2A67F394ED5BA5B0D8E65F1B9EA","67963a18-c395-4a2d-8064-8531d7b15777","a0a8f18c-a66e-4ba7-a170-23efbdc67501","{""participantId"":""68D0A2A67F394ED5BA5B0D8E65F1B9EA"",""assignmentId"":""67963a18-c395-4a2d-8064-8531d7b15777"",""projectId"":""a0a8f18c-a66e-4ba7-a170-23efbdc67501""}","https://test12345.live/?participantId=68D0A2A67F394ED5BA5B0D8E65F1B9EA&assignmentId=67963a18-c395-4a2d-8064-8531d7b15777&projectId=a0a8f18c-a66e-4ba7-a170-23efbdc67501","68D0A2A67F394ED5BA5B0D8E65F1B9EA-2024-11-24-18-42-23","","null","","[]","null","",""
"","","","","","image-button-response","72","256304","0.0-12.0-1.0-0.5","68D0A2A67F394ED5BA5B0D8E65F1B9EA","68D0A2A67F394ED5BA5B0D8E65F1B9EA","67963a18-c395-4a2d-8064-8531d7b15777","a0a8f18c-a66e-4ba7-a170-23efbdc67501","{""participantId"":""68D0A2A67F394ED5BA5B0D8E65F1B9EA"",""assignmentId"":""67963a18-c395-4a2d-8064-8531d7b15777"",""projectId"":""a0a8f18c-a66e-4ba7-a170-23efbdc67501""}","https://test12345.live/?participantId=68D0A2A67F394ED5BA5B0D8E65F1B9EA&assignmentId=67963a18-c395-4a2d-8064-8531d7b15777&projectId=a0a8f18c-a66e-4ba7-a170-23efbdc67501","68D0A2A67F394ED5BA5B0D8E65F1B9EA-2024-11-24-18-42-23","","null","","images/semantic_sequence/physical_activity_semantic/physical_activity_semantic_6.png","null","",""
"","","","","","image-button-response","73","257462","0.0-12.0-1.0-1.5","68D0A2A67F394ED5BA5B0D8E65F1B9EA","68D0A2A67F394ED5BA5B0D8E65F1B9EA","67963a18-c395-4a2d-8064-8531d7b15777","a0a8f18c-a66e-4ba7-a170-23efbdc67501","{""participantId"":""68D0A2A67F394ED5BA5B0D8E65F1B9EA"",""assignmentId"":""67963a18-c395-4a2d-8064-8531d7b15777"",""projectId"":""a0a8f18c-a66e-4ba7-a170-23efbdc67501""}","https://test12345.live/?participantId=68D0A2A67F394ED5BA5B0D8E65F1B9EA&assignmentId=67963a18-c395-4a2d-8064-8531d7b15777&projectId=a0a8f18c-a66e-4ba7-a170-23efbdc67501","68D0A2A67F394ED5BA5B0D8E65F1B9EA-2024-11-24-18-42-23","","1147","","images/semantic_sequence/physical_activity_semantic/physical_activity_semantic_6.png","0","",""
"","","","","","image-button-response","74","259266","0.0-12.0-1.0-2.5","68D0A2A67F394ED5BA5B0D8E65F1B9EA","68D0A2A67F394ED5BA5B0D8E65F1B9EA","67963a18-c395-4a2d-8064-8531d7b15777","a0a8f18c-a66e-4ba7-a170-23efbdc67501","{""participantId"":""68D0A2A67F394ED5BA5B0D8E65F1B9EA"",""assignmentId"":""67963a18-c395-4a2d-8064-8531d7b15777"",""projectId"":""a0a8f18c-a66e-4ba7-a170-23efbdc67501""}","https://test12345.live/?participantId=68D0A2A67F394ED5BA5B0D8E65F1B9EA&assignmentId=67963a18-c395-4a2d-8064-8531d7b15777&projectId=a0a8f18c-a66e-4ba7-a170-23efbdc67501","68D0A2A67F394ED5BA5B0D8E65F1B9EA-2024-11-24-18-42-23","","null","","[]","null","",""
"","","","","","image-button-response","75","263774","0.0-12.0-1.0-0.6","68D0A2A67F394ED5BA5B0D8E65F1B9EA","68D0A2A67F394ED5BA5B0D8E65F1B9EA","67963a18-c395-4a2d-8064-8531d7b15777","a0a8f18c-a66e-4ba7-a170-23efbdc67501","{""participantId"":""68D0A2A67F394ED5BA5B0D8E65F1B9EA"",""assignmentId"":""67963a18-c395-4a2d-8064-8531d7b15777"",""projectId"":""a0a8f18c-a66e-4ba7-a170-23efbdc67501""}","https://test12345.live/?participantId=68D0A2A67F394ED5BA5B0D8E65F1B9EA&assignmentId=67963a18-c395-4a2d-8064-8531d7b15777&projectId=a0a8f18c-a66e-4ba7-a170-23efbdc67501","68D0A2A67F394ED5BA5B0D8E65F1B9EA-2024-11-24-18-42-23","","null","","images/semantic_sequence/physical_activity_semantic/physical_activity_semantic_7.png","null","",""
"","","","","","image-button-response","76","264810","0.0-12.0-1.0-1.6","68D0A2A67F394ED5BA5B0D8E65F1B9EA","68D0A2A67F394ED5BA5B0D8E65F1B9EA","67963a18-c395-4a2d-8064-8531d7b15777","a0a8f18c-a66e-4ba7-a170-23efbdc67501","{""participantId"":""68D0A2A67F394ED5BA5B0D8E65F1B9EA"",""assignmentId"":""67963a18-c395-4a2d-8064-8531d7b15777"",""projectId"":""a0a8f18c-a66e-4ba7-a170-23efbdc67501""}","https://test12345.live/?participantId=68D0A2A67F394ED5BA5B0D8E65F1B9EA&assignmentId=67963a18-c395-4a2d-8064-8531d7b15777&projectId=a0a8f18c-a66e-4ba7-a170-23efbdc67501","68D0A2A67F394ED5BA5B0D8E65F1B9EA-2024-11-24-18-42-23","","1028","","images/semantic_sequence/physical_activity_semantic/physical_activity_semantic_7.png","0","",""
"","","","","","image-button-response","77","266614","0.0-12.0-1.0-2.6","68D0A2A67F394ED5BA5B0D8E65F1B9EA","68D0A2A67F394ED5BA5B0D8E65F1B9EA","67963a18-c395-4a2d-8064-8531d7b15777","a0a8f18c-a66e-4ba7-a170-23efbdc67501","{""participantId"":""68D0A2A67F394ED5BA5B0D8E65F1B9EA"",""assignmentId"":""67963a18-c395-4a2d-8064-8531d7b15777"",""projectId"":""a0a8f18c-a66e-4ba7-a170-23efbdc67501""}","https://test12345.live/?participantId=68D0A2A67F394ED5BA5B0D8E65F1B9EA&assignmentId=67963a18-c395-4a2d-8064-8531d7b15777&projectId=a0a8f18c-a66e-4ba7-a170-23efbdc67501","68D0A2A67F394ED5BA5B0D8E65F1B9EA-2024-11-24-18-42-23","","null","","[]","null","",""
"","","","","","image-button-response","78","271122","0.0-12.0-1.0-0.7","68D0A2A67F394ED5BA5B0D8E65F1B9EA","68D0A2A67F394ED5BA5B0D8E65F1B9EA","67963a18-c395-4a2d-8064-8531d7b15777","a0a8f18c-a66e-4ba7-a170-23efbdc67501","{""participantId"":""68D0A2A67F394ED5BA5B0D8E65F1B9EA"",""assignmentId"":""67963a18-c395-4a2d-8064-8531d7b15777"",""projectId"":""a0a8f18c-a66e-4ba7-a170-23efbdc67501""}","https://test12345.live/?participantId=68D0A2A67F394ED5BA5B0D8E65F1B9EA&assignmentId=67963a18-c395-4a2d-8064-8531d7b15777&projectId=a0a8f18c-a66e-4ba7-a170-23efbdc67501","68D0A2A67F394ED5BA5B0D8E65F1B9EA-2024-11-24-18-42-23","","null","","images/semantic_sequence/physical_activity_semantic/physical_activity_semantic_8.png","null","",""
"","","","","","image-button-response","79","272004","0.0-12.0-1.0-1.7","68D0A2A67F394ED5BA5B0D8E65F1B9EA","68D0A2A67F394ED5BA5B0D8E65F1B9EA","67963a18-c395-4a2d-8064-8531d7b15777","a0a8f18c-a66e-4ba7-a170-23efbdc67501","{""participantId"":""68D0A2A67F394ED5BA5B0D8E65F1B9EA"",""assignmentId"":""67963a18-c395-4a2d-8064-8531d7b15777"",""projectId"":""a0a8f18c-a66e-4ba7-a170-23efbdc67501""}","https://test12345.live/?participantId=68D0A2A67F394ED5BA5B0D8E65F1B9EA&assignmentId=67963a18-c395-4a2d-8064-8531d7b15777&projectId=a0a8f18c-a66e-4ba7-a170-23efbdc67501","68D0A2A67F394ED5BA5B0D8E65F1B9EA-2024-11-24-18-42-23","","875","","images/semantic_sequence/physical_activity_semantic/physical_activity_semantic_8.png","0","",""
"","","","","","image-button-response","80","273807","0.0-12.0-1.0-2.7","68D0A2A67F394ED5BA5B0D8E65F1B9EA","68D0A2A67F394ED5BA5B0D8E65F1B9EA","67963a18-c395-4a2d-8064-8531d7b15777","a0a8f18c-a66e-4ba7-a170-23efbdc67501","{""participantId"":""68D0A2A67F394ED5BA5B0D8E65F1B9EA"",""assignmentId"":""67963a18-c395-4a2d-8064-8531d7b15777"",""projectId"":""a0a8f18c-a66e-4ba7-a170-23efbdc67501""}","https://test12345.live/?participantId=68D0A2A67F394ED5BA5B0D8E65F1B9EA&assignmentId=67963a18-c395-4a2d-8064-8531d7b15777&projectId=a0a8f18c-a66e-4ba7-a170-23efbdc67501","68D0A2A67F394ED5BA5B0D8E65F1B9EA-2024-11-24-18-42-23","","null","","[]","null","",""
"","","","","","image-button-response","81","278316","0.0-12.0-1.0-0.8","68D0A2A67F394ED5BA5B0D8E65F1B9EA","68D0A2A67F394ED5BA5B0D8E65F1B9EA","67963a18-c395-4a2d-8064-8531d7b15777","a0a8f18c-a66e-4ba7-a170-23efbdc67501","{""participantId"":""68D0A2A67F394ED5BA5B0D8E65F1B9EA"",""assignmentId"":""67963a18-c395-4a2d-8064-8531d7b15777"",""projectId"":""a0a8f18c-a66e-4ba7-a170-23efbdc67501""}","https://test12345.live/?participantId=68D0A2A67F394ED5BA5B0D8E65F1B9EA&assignmentId=67963a18-c395-4a2d-8064-8531d7b15777&projectId=a0a8f18c-a66e-4ba7-a170-23efbdc67501","68D0A2A67F394ED5BA5B0D8E65F1B9EA-2024-11-24-18-42-23","","null","","images/semantic_sequence/physical_activity_semantic/physical_activity_semantic_9.png","null","",""
"","","","","","image-button-response","82","279112","0.0-12.0-1.0-1.8","68D0A2A67F394ED5BA5B0D8E65F1B9EA","68D0A2A67F394ED5BA5B0D8E65F1B9EA","67963a18-c395-4a2d-8064-8531d7b15777","a0a8f18c-a66e-4ba7-a170-23efbdc67501","{""participantId"":""68D0A2A67F394ED5BA5B0D8E65F1B9EA"",""assignmentId"":""67963a18-c395-4a2d-8064-8531d7b15777"",""projectId"":""a0a8f18c-a66e-4ba7-a170-23efbdc67501""}","https://test12345.live/?participantId=68D0A2A67F394ED5BA5B0D8E65F1B9EA&assignmentId=67963a18-c395-4a2d-8064-8531d7b15777&projectId=a0a8f18c-a66e-4ba7-a170-23efbdc67501","68D0A2A67F394ED5BA5B0D8E65F1B9EA-2024-11-24-18-42-23","","787","","images/semantic_sequence/physical_activity_semantic/physical_activity_semantic_9.png","0","",""
"","","","","","image-button-response","83","280917","0.0-12.0-1.0-2.8","68D0A2A67F394ED5BA5B0D8E65F1B9EA","68D0A2A67F394ED5BA5B0D8E65F1B9EA","67963a18-c395-4a2d-8064-8531d7b15777","a0a8f18c-a66e-4ba7-a170-23efbdc67501","{""participantId"":""68D0A2A67F394ED5BA5B0D8E65F1B9EA"",""assignmentId"":""67963a18-c395-4a2d-8064-8531d7b15777"",""projectId"":""a0a8f18c-a66e-4ba7-a170-23efbdc67501""}","https://test12345.live/?participantId=68D0A2A67F394ED5BA5B0D8E65F1B9EA&assignmentId=67963a18-c395-4a2d-8064-8531d7b15777&projectId=a0a8f18c-a66e-4ba7-a170-23efbdc67501","68D0A2A67F394ED5BA5B0D8E65F1B9EA-2024-11-24-18-42-23","","null","","[]","null","",""
"","","","","","image-button-response","84","285425","0.0-12.0-1.0-0.9","68D0A2A67F394ED5BA5B0D8E65F1B9EA","68D0A2A67F394ED5BA5B0D8E65F1B9EA","67963a18-c395-4a2d-8064-8531d7b15777","a0a8f18c-a66e-4ba7-a170-23efbdc67501","{""participantId"":""68D0A2A67F394ED5BA5B0D8E65F1B9EA"",""assignmentId"":""67963a18-c395-4a2d-8064-8531d7b15777"",""projectId"":""a0a8f18c-a66e-4ba7-a170-23efbdc67501""}","https://test12345.live/?participantId=68D0A2A67F394ED5BA5B0D8E65F1B9EA&assignmentId=67963a18-c395-4a2d-8064-8531d7b15777&projectId=a0a8f18c-a66e-4ba7-a170-23efbdc67501","68D0A2A67F394ED5BA5B0D8E65F1B9EA-2024-11-24-18-42-23","","null","","images/semantic_sequence/physical_activity_semantic/physical_activity_semantic_ten.png","null","",""
"","","","","","image-button-response","85","286524","0.0-12.0-1.0-1.9","68D0A2A67F394ED5BA5B0D8E65F1B9EA","68D0A2A67F394ED5BA5B0D8E65F1B9EA","67963a18-c395-4a2d-8064-8531d7b15777","a0a8f18c-a66e-4ba7-a170-23efbdc67501","{""participantId"":""68D0A2A67F394ED5BA5B0D8E65F1B9EA"",""assignmentId"":""67963a18-c395-4a2d-8064-8531d7b15777"",""projectId"":""a0a8f18c-a66e-4ba7-a170-23efbdc67501""}","https://test12345.live/?participantId=68D0A2A67F394ED5BA5B0D8E65F1B9EA&assignmentId=67963a18-c395-4a2d-8064-8531d7b15777&projectId=a0a8f18c-a66e-4ba7-a170-23efbdc67501","68D0A2A67F394ED5BA5B0D8E65F1B9EA-2024-11-24-18-42-23","","1091","","images/semantic_sequence/physical_activity_semantic/physical_activity_semantic_ten.png","0","",""
"","","","","","image-button-response","86","288328","0.0-12.0-1.0-2.9","68D0A2A67F394ED5BA5B0D8E65F1B9EA","68D0A2A67F394ED5BA5B0D8E65F1B9EA","67963a18-c395-4a2d-8064-8531d7b15777","a0a8f18c-a66e-4ba7-a170-23efbdc67501","{""participantId"":""68D0A2A67F394ED5BA5B0D8E65F1B9EA"",""assignmentId"":""67963a18-c395-4a2d-8064-8531d7b15777"",""projectId"":""a0a8f18c-a66e-4ba7-a170-23efbdc67501""}","https://test12345.live/?participantId=68D0A2A67F394ED5BA5B0D8E65F1B9EA&assignmentId=67963a18-c395-4a2d-8064-8531d7b15777&projectId=a0a8f18c-a66e-4ba7-a170-23efbdc67501","68D0A2A67F394ED5BA5B0D8E65F1B9EA-2024-11-24-18-42-23","","null","","[]","null","",""
"","","","","","html-audio-response","87","309853","0.0-13.0","68D0A2A67F394ED5BA5B0D8E65F1B9EA","68D0A2A67F394ED5BA5B0D8E65F1B9EA","67963a18-c395-4a2d-8064-8531d7b15777","a0a8f18c-a66e-4ba7-a170-23efbdc67501","{""participantId"":""68D0A2A67F394ED5BA5B0D8E65F1B9EA"",""assignmentId"":""67963a18-c395-4a2d-8064-8531d7b15777"",""projectId"":""a0a8f18c-a66e-4ba7-a170-23efbdc67501""}","https://test12345.live/?participantId=68D0A2A67F394ED5BA5B0D8E65F1B9EA&assignmentId=67963a18-c395-4a2d-8064-8531d7b15777&projectId=a0a8f18c-a66e-4ba7-a170-23efbdc67501","68D0A2A67F394ED5BA5B0D8E65F1B9EA-2024-11-24-18-42-23","","20198","","[""<span style=\""color: red; font-size: 24px\""> NOW RECORDING</span><p>Please say out loud all the images you saw, as many as you can remember. The images can be said in any order.</p>""]","","4","physical_activity_semantic"
"","","","","","image-button-response","88","315890","0.0-14.0-0.0","68D0A2A67F394ED5BA5B0D8E65F1B9EA","68D0A2A67F394ED5BA5B0D8E65F1B9EA","67963a18-c395-4a2d-8064-8531d7b15777","a0a8f18c-a66e-4ba7-a170-23efbdc67501","{""participantId"":""68D0A2A67F394ED5BA5B0D8E65F1B9EA"",""assignmentId"":""67963a18-c395-4a2d-8064-8531d7b15777"",""projectId"":""a0a8f18c-a66e-4ba7-a170-23efbdc67501""}","https://test12345.live/?participantId=68D0A2A67F394ED5BA5B0D8E65F1B9EA&assignmentId=67963a18-c395-4a2d-8064-8531d7b15777&projectId=a0a8f18c-a66e-4ba7-a170-23efbdc67501","68D0A2A67F394ED5BA5B0D8E65F1B9EA-2024-11-24-18-42-23","","null","","images/causal_sequence/saving_a_cat_causal/saving_a_cat_causal_0.png","null","",""
"","","","","","image-button-response","89","320398","0.0-14.0-1.0-0.0","68D0A2A67F394ED5BA5B0D8E65F1B9EA","68D0A2A67F394ED5BA5B0D8E65F1B9EA","67963a18-c395-4a2d-8064-8531d7b15777","a0a8f18c-a66e-4ba7-a170-23efbdc67501","{""participantId"":""68D0A2A67F394ED5BA5B0D8E65F1B9EA"",""assignmentId"":""67963a18-c395-4a2d-8064-8531d7b15777"",""projectId"":""a0a8f18c-a66e-4ba7-a170-23efbdc67501""}","https://test12345.live/?participantId=68D0A2A67F394ED5BA5B0D8E65F1B9EA&assignmentId=67963a18-c395-4a2d-8064-8531d7b15777&projectId=a0a8f18c-a66e-4ba7-a170-23efbdc67501","68D0A2A67F394ED5BA5B0D8E65F1B9EA-2024-11-24-18-42-23","","null","","images/causal_sequence/saving_a_cat_causal/saving_a_cat_causal_1.png","null","",""
"","","","","","image-button-response","90","321429","0.0-14.0-1.0-1.0","68D0A2A67F394ED5BA5B0D8E65F1B9EA","68D0A2A67F394ED5BA5B0D8E65F1B9EA","67963a18-c395-4a2d-8064-8531d7b15777","a0a8f18c-a66e-4ba7-a170-23efbdc67501","{""participantId"":""68D0A2A67F394ED5BA5B0D8E65F1B9EA"",""assignmentId"":""67963a18-c395-4a2d-8064-8531d7b15777"",""projectId"":""a0a8f18c-a66e-4ba7-a170-23efbdc67501""}","https://test12345.live/?participantId=68D0A2A67F394ED5BA5B0D8E65F1B9EA&assignmentId=67963a18-c395-4a2d-8064-8531d7b15777&projectId=a0a8f18c-a66e-4ba7-a170-23efbdc67501","68D0A2A67F394ED5BA5B0D8E65F1B9EA-2024-11-24-18-42-23","","1023","","images/causal_sequence/saving_a_cat_causal/saving_a_cat_causal_1.png","0","",""
"","","","","","image-button-response","91","323233","0.0-14.0-1.0-2.0","68D0A2A67F394ED5BA5B0D8E65F1B9EA","68D0A2A67F394ED5BA5B0D8E65F1B9EA","67963a18-c395-4a2d-8064-8531d7b15777","a0a8f18c-a66e-4ba7-a170-23efbdc67501","{""participantId"":""68D0A2A67F394ED5BA5B0D8E65F1B9EA"",""assignmentId"":""67963a18-c395-4a2d-8064-8531d7b15777"",""projectId"":""a0a8f18c-a66e-4ba7-a170-23efbdc67501""}","https://test12345.live/?participantId=68D0A2A67F394ED5BA5B0D8E65F1B9EA&assignmentId=67963a18-c395-4a2d-8064-8531d7b15777&projectId=a0a8f18c-a66e-4ba7-a170-23efbdc67501","68D0A2A67F394ED5BA5B0D8E65F1B9EA-2024-11-24-18-42-23","","null","","[]","null","",""
"","","","","","image-button-response","92","327741","0.0-14.0-1.0-0.1","68D0A2A67F394ED5BA5B0D8E65F1B9EA","68D0A2A67F394ED5BA5B0D8E65F1B9EA","67963a18-c395-4a2d-8064-8531d7b15777","a0a8f18c-a66e-4ba7-a170-23efbdc67501","{""participantId"":""68D0A2A67F394ED5BA5B0D8E65F1B9EA"",""assignmentId"":""67963a18-c395-4a2d-8064-8531d7b15777"",""projectId"":""a0a8f18c-a66e-4ba7-a170-23efbdc67501""}","https://test12345.live/?participantId=68D0A2A67F394ED5BA5B0D8E65F1B9EA&assignmentId=67963a18-c395-4a2d-8064-8531d7b15777&projectId=a0a8f18c-a66e-4ba7-a170-23efbdc67501","68D0A2A67F394ED5BA5B0D8E65F1B9EA-2024-11-24-18-42-23","","null","","images/causal_sequence/saving_a_cat_causal/saving_a_cat_causal_2.png","null","",""
"","","","","","image-button-response","93","328618","0.0-14.0-1.0-1.1","68D0A2A67F394ED5BA5B0D8E65F1B9EA","68D0A2A67F394ED5BA5B0D8E65F1B9EA","67963a18-c395-4a2d-8064-8531d7b15777","a0a8f18c-a66e-4ba7-a170-23efbdc67501","{""participantId"":""68D0A2A67F394ED5BA5B0D8E65F1B9EA"",""assignmentId"":""67963a18-c395-4a2d-8064-8531d7b15777"",""projectId"":""a0a8f18c-a66e-4ba7-a170-23efbdc67501""}","https://test12345.live/?participantId=68D0A2A67F394ED5BA5B0D8E65F1B9EA&assignmentId=67963a18-c395-4a2d-8064-8531d7b15777&projectId=a0a8f18c-a66e-4ba7-a170-23efbdc67501","68D0A2A67F394ED5BA5B0D8E65F1B9EA-2024-11-24-18-42-23","","868","","images/causal_sequence/saving_a_cat_causal/saving_a_cat_causal_2.png","1","",""
"","","","","","image-button-response","94","330426","0.0-14.0-1.0-2.1","68D0A2A67F394ED5BA5B0D8E65F1B9EA","68D0A2A67F394ED5BA5B0D8E65F1B9EA","67963a18-c395-4a2d-8064-8531d7b15777","a0a8f18c-a66e-4ba7-a170-23efbdc67501","{""participantId"":""68D0A2A67F394ED5BA5B0D8E65F1B9EA"",""assignmentId"":""67963a18-c395-4a2d-8064-8531d7b15777"",""projectId"":""a0a8f18c-a66e-4ba7-a170-23efbdc67501""}","https://test12345.live/?participantId=68D0A2A67F394ED5BA5B0D8E65F1B9EA&assignmentId=67963a18-c395-4a2d-8064-8531d7b15777&projectId=a0a8f18c-a66e-4ba7-a170-23efbdc67501","68D0A2A67F394ED5BA5B0D8E65F1B9EA-2024-11-24-18-42-23","","null","","[]","null","",""
"","","","","","image-button-response","95","334933","0.0-14.0-1.0-0.2","68D0A2A67F394ED5BA5B0D8E65F1B9EA","68D0A2A67F394ED5BA5B0D8E65F1B9EA","67963a18-c395-4a2d-8064-8531d7b15777","a0a8f18c-a66e-4ba7-a170-23efbdc67501","{""participantId"":""68D0A2A67F394ED5BA5B0D8E65F1B9EA"",""assignmentId"":""67963a18-c395-4a2d-8064-8531d7b15777"",""projectId"":""a0a8f18c-a66e-4ba7-a170-23efbdc67501""}","https://test12345.live/?participantId=68D0A2A67F394ED5BA5B0D8E65F1B9EA&assignmentId=67963a18-c395-4a2d-8064-8531d7b15777&projectId=a0a8f18c-a66e-4ba7-a170-23efbdc67501","68D0A2A67F394ED5BA5B0D8E65F1B9EA-2024-11-24-18-42-23","","null","","images/causal_sequence/saving_a_cat_causal/saving_a_cat_causal_3.png","null","",""
"","","","","","image-button-response","96","336244","0.0-14.0-1.0-1.2","68D0A2A67F394ED5BA5B0D8E65F1B9EA","68D0A2A67F394ED5BA5B0D8E65F1B9EA","67963a18-c395-4a2d-8064-8531d7b15777","a0a8f18c-a66e-4ba7-a170-23efbdc67501","{""participantId"":""68D0A2A67F394ED5BA5B0D8E65F1B9EA"",""assignmentId"":""67963a18-c395-4a2d-8064-8531d7b15777"",""projectId"":""a0a8f18c-a66e-4ba7-a170-23efbdc67501""}","https://test12345.live/?participantId=68D0A2A67F394ED5BA5B0D8E65F1B9EA&assignmentId=67963a18-c395-4a2d-8064-8531d7b15777&projectId=a0a8f18c-a66e-4ba7-a170-23efbdc67501","68D0A2A67F394ED5BA5B0D8E65F1B9EA-2024-11-24-18-42-23","","1305","","images/causal_sequence/saving_a_cat_causal/saving_a_cat_causal_3.png","1","",""
"","","","","","image-button-response","97","338048","0.0-14.0-1.0-2.2","68D0A2A67F394ED5BA5B0D8E65F1B9EA","68D0A2A67F394ED5BA5B0D8E65F1B9EA","67963a18-c395-4a2d-8064-8531d7b15777","a0a8f18c-a66e-4ba7-a170-23efbdc67501","{""participantId"":""68D0A2A67F394ED5BA5B0D8E65F1B9EA"",""assignmentId"":""67963a18-c395-4a2d-8064-8531d7b15777"",""projectId"":""a0a8f18c-a66e-4ba7-a170-23efbdc67501""}","https://test12345.live/?participantId=68D0A2A67F394ED5BA5B0D8E65F1B9EA&assignmentId=67963a18-c395-4a2d-8064-8531d7b15777&projectId=a0a8f18c-a66e-4ba7-a170-23efbdc67501","68D0A2A67F394ED5BA5B0D8E65F1B9EA-2024-11-24-18-42-23","","null","","[]","null","",""
"","","","","","image-button-response","98","342556","0.0-14.0-1.0-0.3","68D0A2A67F394ED5BA5B0D8E65F1B9EA","68D0A2A67F394ED5BA5B0D8E65F1B9EA","67963a18-c395-4a2d-8064-8531d7b15777","a0a8f18c-a66e-4ba7-a170-23efbdc67501","{""participantId"":""68D0A2A67F394ED5BA5B0D8E65F1B9EA"",""assignmentId"":""67963a18-c395-4a2d-8064-8531d7b15777"",""projectId"":""a0a8f18c-a66e-4ba7-a170-23efbdc67501""}","https://test12345.live/?participantId=68D0A2A67F394ED5BA5B0D8E65F1B9EA&assignmentId=67963a18-c395-4a2d-8064-8531d7b15777&projectId=a0a8f18c-a66e-4ba7-a170-23efbdc67501","68D0A2A67F394ED5BA5B0D8E65F1B9EA-2024-11-24-18-42-23","","null","","images/causal_sequence/saving_a_cat_causal/saving_a_cat_causal_4.png","null","",""
"","","","","","image-button-response","99","344126","0.0-14.0-1.0-1.3","68D0A2A67F394ED5BA5B0D8E65F1B9EA","68D0A2A67F394ED5BA5B0D8E65F1B9EA","67963a18-c395-4a2d-8064-8531d7b15777","a0a8f18c-a66e-4ba7-a170-23efbdc67501","{""participantId"":""68D0A2A67F394ED5BA5B0D8E65F1B9EA"",""assignmentId"":""67963a18-c395-4a2d-8064-8531d7b15777"",""projectId"":""a0a8f18c-a66e-4ba7-a170-23efbdc67501""}","https://test12345.live/?participantId=68D0A2A67F394ED5BA5B0D8E65F1B9EA&assignmentId=67963a18-c395-4a2d-8064-8531d7b15777&projectId=a0a8f18c-a66e-4ba7-a170-23efbdc67501","68D0A2A67F394ED5BA5B0D8E65F1B9EA-2024-11-24-18-42-23","","1561","","images/causal_sequence/saving_a_cat_causal/saving_a_cat_causal_4.png","0","",""
"","","","","","image-button-response","100","345930","0.0-14.0-1.0-2.3","68D0A2A67F394ED5BA5B0D8E65F1B9EA","68D0A2A67F394ED5BA5B0D8E65F1B9EA","67963a18-c395-4a2d-8064-8531d7b15777","a0a8f18c-a66e-4ba7-a170-23efbdc67501","{""participantId"":""68D0A2A67F394ED5BA5B0D8E65F1B9EA"",""assignmentId"":""67963a18-c395-4a2d-8064-8531d7b15777"",""projectId"":""a0a8f18c-a66e-4ba7-a170-23efbdc67501""}","https://test12345.live/?participantId=68D0A2A67F394ED5BA5B0D8E65F1B9EA&assignmentId=67963a18-c395-4a2d-8064-8531d7b15777&projectId=a0a8f18c-a66e-4ba7-a170-23efbdc67501","68D0A2A67F394ED5BA5B0D8E65F1B9EA-2024-11-24-18-42-23","","null","","[]","null","",""
"","","","","","image-button-response","101","350437","0.0-14.0-1.0-0.4","68D0A2A67F394ED5BA5B0D8E65F1B9EA","68D0A2A67F394ED5BA5B0D8E65F1B9EA","67963a18-c395-4a2d-8064-8531d7b15777","a0a8f18c-a66e-4ba7-a170-23efbdc67501","{""participantId"":""68D0A2A67F394ED5BA5B0D8E65F1B9EA"",""assignmentId"":""67963a18-c395-4a2d-8064-8531d7b15777"",""projectId"":""a0a8f18c-a66e-4ba7-a170-23efbdc67501""}","https://test12345.live/?participantId=68D0A2A67F394ED5BA5B0D8E65F1B9EA&assignmentId=67963a18-c395-4a2d-8064-8531d7b15777&projectId=a0a8f18c-a66e-4ba7-a170-23efbdc67501","68D0A2A67F394ED5BA5B0D8E65F1B9EA-2024-11-24-18-42-23","","null","","images/causal_sequence/saving_a_cat_causal/saving_a_cat_causal_5.png","null","",""
"","","","","","image-button-response","102","351985","0.0-14.0-1.0-1.4","68D0A2A67F394ED5BA5B0D8E65F1B9EA","68D0A2A67F394ED5BA5B0D8E65F1B9EA","67963a18-c395-4a2d-8064-8531d7b15777","a0a8f18c-a66e-4ba7-a170-23efbdc67501","{""participantId"":""68D0A2A67F394ED5BA5B0D8E65F1B9EA"",""assignmentId"":""67963a18-c395-4a2d-8064-8531d7b15777"",""projectId"":""a0a8f18c-a66e-4ba7-a170-23efbdc67501""}","https://test12345.live/?participantId=68D0A2A67F394ED5BA5B0D8E65F1B9EA&assignmentId=67963a18-c395-4a2d-8064-8531d7b15777&projectId=a0a8f18c-a66e-4ba7-a170-23efbdc67501","68D0A2A67F394ED5BA5B0D8E65F1B9EA-2024-11-24-18-42-23","","1541","","images/causal_sequence/saving_a_cat_causal/saving_a_cat_causal_5.png","0","",""
"","","","","","image-button-response","103","353790","0.0-14.0-1.0-2.4","68D0A2A67F394ED5BA5B0D8E65F1B9EA","68D0A2A67F394ED5BA5B0D8E65F1B9EA","67963a18-c395-4a2d-8064-8531d7b15777","a0a8f18c-a66e-4ba7-a170-23efbdc67501","{""participantId"":""68D0A2A67F394ED5BA5B0D8E65F1B9EA"",""assignmentId"":""67963a18-c395-4a2d-8064-8531d7b15777"",""projectId"":""a0a8f18c-a66e-4ba7-a170-23efbdc67501""}","https://test12345.live/?participantId=68D0A2A67F394ED5BA5B0D8E65F1B9EA&assignmentId=67963a18-c395-4a2d-8064-8531d7b15777&projectId=a0a8f18c-a66e-4ba7-a170-23efbdc67501","68D0A2A67F394ED5BA5B0D8E65F1B9EA-2024-11-24-18-42-23","","null","","[]","null","",""
"","","","","","image-button-response","104","358297","0.0-14.0-1.0-0.5","68D0A2A67F394ED5BA5B0D8E65F1B9EA","68D0A2A67F394ED5BA5B0D8E65F1B9EA","67963a18-c395-4a2d-8064-8531d7b15777","a0a8f18c-a66e-4ba7-a170-23efbdc67501","{""participantId"":""68D0A2A67F394ED5BA5B0D8E65F1B9EA"",""assignmentId"":""67963a18-c395-4a2d-8064-8531d7b15777"",""projectId"":""a0a8f18c-a66e-4ba7-a170-23efbdc67501""}","https://test12345.live/?participantId=68D0A2A67F394ED5BA5B0D8E65F1B9EA&assignmentId=67963a18-c395-4a2d-8064-8531d7b15777&projectId=a0a8f18c-a66e-4ba7-a170-23efbdc67501","68D0A2A67F394ED5BA5B0D8E65F1B9EA-2024-11-24-18-42-23","","null","","images/causal_sequence/saving_a_cat_causal/saving_a_cat_causal_6.png","null","",""
"","","","","","image-button-response","105","359204","0.0-14.0-1.0-1.5","68D0A2A67F394ED5BA5B0D8E65F1B9EA","68D0A2A67F394ED5BA5B0D8E65F1B9EA","67963a18-c395-4a2d-8064-8531d7b15777","a0a8f18c-a66e-4ba7-a170-23efbdc67501","{""participantId"":""68D0A2A67F394ED5BA5B0D8E65F1B9EA"",""assignmentId"":""67963a18-c395-4a2d-8064-8531d7b15777"",""projectId"":""a0a8f18c-a66e-4ba7-a170-23efbdc67501""}","https://test12345.live/?participantId=68D0A2A67F394ED5BA5B0D8E65F1B9EA&assignmentId=67963a18-c395-4a2d-8064-8531d7b15777&projectId=a0a8f18c-a66e-4ba7-a170-23efbdc67501","68D0A2A67F394ED5BA5B0D8E65F1B9EA-2024-11-24-18-42-23","","900","","images/causal_sequence/saving_a_cat_causal/saving_a_cat_causal_6.png","0","",""
"","","","","","image-button-response","106","361010","0.0-14.0-1.0-2.5","68D0A2A67F394ED5BA5B0D8E65F1B9EA","68D0A2A67F394ED5BA5B0D8E65F1B9EA","67963a18-c395-4a2d-8064-8531d7b15777","a0a8f18c-a66e-4ba7-a170-23efbdc67501","{""participantId"":""68D0A2A67F394ED5BA5B0D8E65F1B9EA"",""assignmentId"":""67963a18-c395-4a2d-8064-8531d7b15777"",""projectId"":""a0a8f18c-a66e-4ba7-a170-23efbdc67501""}","https://test12345.live/?participantId=68D0A2A67F394ED5BA5B0D8E65F1B9EA&assignmentId=67963a18-c395-4a2d-8064-8531d7b15777&projectId=a0a8f18c-a66e-4ba7-a170-23efbdc67501","68D0A2A67F394ED5BA5B0D8E65F1B9EA-2024-11-24-18-42-23","","null","","[]","null","",""
"","","","","","image-button-response","107","365524","0.0-14.0-1.0-0.6","68D0A2A67F394ED5BA5B0D8E65F1B9EA","68D0A2A67F394ED5BA5B0D8E65F1B9EA","67963a18-c395-4a2d-8064-8531d7b15777","a0a8f18c-a66e-4ba7-a170-23efbdc67501","{""participantId"":""68D0A2A67F394ED5BA5B0D8E65F1B9EA"",""assignmentId"":""67963a18-c395-4a2d-8064-8531d7b15777"",""projectId"":""a0a8f18c-a66e-4ba7-a170-23efbdc67501""}","https://test12345.live/?participantId=68D0A2A67F394ED5BA5B0D8E65F1B9EA&assignmentId=67963a18-c395-4a2d-8064-8531d7b15777&projectId=a0a8f18c-a66e-4ba7-a170-23efbdc67501","68D0A2A67F394ED5BA5B0D8E65F1B9EA-2024-11-24-18-42-23","","null","","images/causal_sequence/saving_a_cat_causal/saving_a_cat_causal_7.png","null","",""
"","","","","","image-button-response","108","366456","0.0-14.0-1.0-1.6","68D0A2A67F394ED5BA5B0D8E65F1B9EA","68D0A2A67F394ED5BA5B0D8E65F1B9EA","67963a18-c395-4a2d-8064-8531d7b15777","a0a8f18c-a66e-4ba7-a170-23efbdc67501","{""participantId"":""68D0A2A67F394ED5BA5B0D8E65F1B9EA"",""assignmentId"":""67963a18-c395-4a2d-8064-8531d7b15777"",""projectId"":""a0a8f18c-a66e-4ba7-a170-23efbdc67501""}","https://test12345.live/?participantId=68D0A2A67F394ED5BA5B0D8E65F1B9EA&assignmentId=67963a18-c395-4a2d-8064-8531d7b15777&projectId=a0a8f18c-a66e-4ba7-a170-23efbdc67501","68D0A2A67F394ED5BA5B0D8E65F1B9EA-2024-11-24-18-42-23","","925","","images/causal_sequence/saving_a_cat_causal/saving_a_cat_causal_7.png","0","",""
"","","","","","image-button-response","109","368259","0.0-14.0-1.0-2.6","68D0A2A67F394ED5BA5B0D8E65F1B9EA","68D0A2A67F394ED5BA5B0D8E65F1B9EA","67963a18-c395-4a2d-8064-8531d7b15777","a0a8f18c-a66e-4ba7-a170-23efbdc67501","{""participantId"":""68D0A2A67F394ED5BA5B0D8E65F1B9EA"",""assignmentId"":""67963a18-c395-4a2d-8064-8531d7b15777"",""projectId"":""a0a8f18c-a66e-4ba7-a170-23efbdc67501""}","https://test12345.live/?participantId=68D0A2A67F394ED5BA5B0D8E65F1B9EA&assignmentId=67963a18-c395-4a2d-8064-8531d7b15777&projectId=a0a8f18c-a66e-4ba7-a170-23efbdc67501","68D0A2A67F394ED5BA5B0D8E65F1B9EA-2024-11-24-18-42-23","","null","","[]","null","",""
"","","","","","image-button-response","110","372766","0.0-14.0-1.0-0.7","68D0A2A67F394ED5BA5B0D8E65F1B9EA","68D0A2A67F394ED5BA5B0D8E65F1B9EA","67963a18-c395-4a2d-8064-8531d7b15777","a0a8f18c-a66e-4ba7-a170-23efbdc67501","{""participantId"":""68D0A2A67F394ED5BA5B0D8E65F1B9EA"",""assignmentId"":""67963a18-c395-4a2d-8064-8531d7b15777"",""projectId"":""a0a8f18c-a66e-4ba7-a170-23efbdc67501""}","https://test12345.live/?participantId=68D0A2A67F394ED5BA5B0D8E65F1B9EA&assignmentId=67963a18-c395-4a2d-8064-8531d7b15777&projectId=a0a8f18c-a66e-4ba7-a170-23efbdc67501","68D0A2A67F394ED5BA5B0D8E65F1B9EA-2024-11-24-18-42-23","","null","","images/causal_sequence/saving_a_cat_causal/saving_a_cat_causal_8.png","null","",""
"","","","","","image-button-response","111","373636","0.0-14.0-1.0-1.7","68D0A2A67F394ED5BA5B0D8E65F1B9EA","68D0A2A67F394ED5BA5B0D8E65F1B9EA","67963a18-c395-4a2d-8064-8531d7b15777","a0a8f18c-a66e-4ba7-a170-23efbdc67501","{""participantId"":""68D0A2A67F394ED5BA5B0D8E65F1B9EA"",""assignmentId"":""67963a18-c395-4a2d-8064-8531d7b15777"",""projectId"":""a0a8f18c-a66e-4ba7-a170-23efbdc67501""}","https://test12345.live/?participantId=68D0A2A67F394ED5BA5B0D8E65F1B9EA&assignmentId=67963a18-c395-4a2d-8064-8531d7b15777&projectId=a0a8f18c-a66e-4ba7-a170-23efbdc67501","68D0A2A67F394ED5BA5B0D8E65F1B9EA-2024-11-24-18-42-23","","862","","images/causal_sequence/saving_a_cat_causal/saving_a_cat_causal_8.png","0","",""
"","","","","","image-button-response","112","375441","0.0-14.0-1.0-2.7","68D0A2A67F394ED5BA5B0D8E65F1B9EA","68D0A2A67F394ED5BA5B0D8E65F1B9EA","67963a18-c395-4a2d-8064-8531d7b15777","a0a8f18c-a66e-4ba7-a170-23efbdc67501","{""participantId"":""68D0A2A67F394ED5BA5B0D8E65F1B9EA"",""assignmentId"":""67963a18-c395-4a2d-8064-8531d7b15777"",""projectId"":""a0a8f18c-a66e-4ba7-a170-23efbdc67501""}","https://test12345.live/?participantId=68D0A2A67F394ED5BA5B0D8E65F1B9EA&assignmentId=67963a18-c395-4a2d-8064-8531d7b15777&projectId=a0a8f18c-a66e-4ba7-a170-23efbdc67501","68D0A2A67F394ED5BA5B0D8E65F1B9EA-2024-11-24-18-42-23","","null","","[]","null","",""
"","","","","","image-button-response","113","379947","0.0-14.0-1.0-0.8","68D0A2A67F394ED5BA5B0D8E65F1B9EA","68D0A2A67F394ED5BA5B0D8E65F1B9EA","67963a18-c395-4a2d-8064-8531d7b15777","a0a8f18c-a66e-4ba7-a170-23efbdc67501","{""participantId"":""68D0A2A67F394ED5BA5B0D8E65F1B9EA"",""assignmentId"":""67963a18-c395-4a2d-8064-8531d7b15777"",""projectId"":""a0a8f18c-a66e-4ba7-a170-23efbdc67501""}","https://test12345.live/?participantId=68D0A2A67F394ED5BA5B0D8E65F1B9EA&assignmentId=67963a18-c395-4a2d-8064-8531d7b15777&projectId=a0a8f18c-a66e-4ba7-a170-23efbdc67501","68D0A2A67F394ED5BA5B0D8E65F1B9EA-2024-11-24-18-42-23","","null","","images/causal_sequence/saving_a_cat_causal/saving_a_cat_causal_9.png","null","",""
"","","","","","image-button-response","114","380798","0.0-14.0-1.0-1.8","68D0A2A67F394ED5BA5B0D8E65F1B9EA","68D0A2A67F394ED5BA5B0D8E65F1B9EA","67963a18-c395-4a2d-8064-8531d7b15777","a0a8f18c-a66e-4ba7-a170-23efbdc67501","{""participantId"":""68D0A2A67F394ED5BA5B0D8E65F1B9EA"",""assignmentId"":""67963a18-c395-4a2d-8064-8531d7b15777"",""projectId"":""a0a8f18c-a66e-4ba7-a170-23efbdc67501""}","https://test12345.live/?participantId=68D0A2A67F394ED5BA5B0D8E65F1B9EA&assignmentId=67963a18-c395-4a2d-8064-8531d7b15777&projectId=a0a8f18c-a66e-4ba7-a170-23efbdc67501","68D0A2A67F394ED5BA5B0D8E65F1B9EA-2024-11-24-18-42-23","","845","","images/causal_sequence/saving_a_cat_causal/saving_a_cat_causal_9.png","0","",""
"","","","","","image-button-response","115","382601","0.0-14.0-1.0-2.8","68D0A2A67F394ED5BA5B0D8E65F1B9EA","68D0A2A67F394ED5BA5B0D8E65F1B9EA","67963a18-c395-4a2d-8064-8531d7b15777","a0a8f18c-a66e-4ba7-a170-23efbdc67501","{""participantId"":""68D0A2A67F394ED5BA5B0D8E65F1B9EA"",""assignmentId"":""67963a18-c395-4a2d-8064-8531d7b15777"",""projectId"":""a0a8f18c-a66e-4ba7-a170-23efbdc67501""}","https://test12345.live/?participantId=68D0A2A67F394ED5BA5B0D8E65F1B9EA&assignmentId=67963a18-c395-4a2d-8064-8531d7b15777&projectId=a0a8f18c-a66e-4ba7-a170-23efbdc67501","68D0A2A67F394ED5BA5B0D8E65F1B9EA-2024-11-24-18-42-23","","null","","[]","null","",""
"","","","","","image-button-response","116","387110","0.0-14.0-1.0-0.9","68D0A2A67F394ED5BA5B0D8E65F1B9EA","68D0A2A67F394ED5BA5B0D8E65F1B9EA","67963a18-c395-4a2d-8064-8531d7b15777","a0a8f18c-a66e-4ba7-a170-23efbdc67501","{""participantId"":""68D0A2A67F394ED5BA5B0D8E65F1B9EA"",""assignmentId"":""67963a18-c395-4a2d-8064-8531d7b15777"",""projectId"":""a0a8f18c-a66e-4ba7-a170-23efbdc67501""}","https://test12345.live/?participantId=68D0A2A67F394ED5BA5B0D8E65F1B9EA&assignmentId=67963a18-c395-4a2d-8064-8531d7b15777&projectId=a0a8f18c-a66e-4ba7-a170-23efbdc67501","68D0A2A67F394ED5BA5B0D8E65F1B9EA-2024-11-24-18-42-23","","null","","images/causal_sequence/saving_a_cat_causal/saving_a_cat_causal_ten.png","null","",""
"","","","","","image-button-response","117","387873","0.0-14.0-1.0-1.9","68D0A2A67F394ED5BA5B0D8E65F1B9EA","68D0A2A67F394ED5BA5B0D8E65F1B9EA","67963a18-c395-4a2d-8064-8531d7b15777","a0a8f18c-a66e-4ba7-a170-23efbdc67501","{""participantId"":""68D0A2A67F394ED5BA5B0D8E65F1B9EA"",""assignmentId"":""67963a18-c395-4a2d-8064-8531d7b15777"",""projectId"":""a0a8f18c-a66e-4ba7-a170-23efbdc67501""}","https://test12345.live/?participantId=68D0A2A67F394ED5BA5B0D8E65F1B9EA&assignmentId=67963a18-c395-4a2d-8064-8531d7b15777&projectId=a0a8f18c-a66e-4ba7-a170-23efbdc67501","68D0A2A67F394ED5BA5B0D8E65F1B9EA-2024-11-24-18-42-23","","757","","images/causal_sequence/saving_a_cat_causal/saving_a_cat_causal_ten.png","0","",""
"","","","","","image-button-response","118","389678","0.0-14.0-1.0-2.9","68D0A2A67F394ED5BA5B0D8E65F1B9EA","68D0A2A67F394ED5BA5B0D8E65F1B9EA","67963a18-c395-4a2d-8064-8531d7b15777","a0a8f18c-a66e-4ba7-a170-23efbdc67501","{""participantId"":""68D0A2A67F394ED5BA5B0D8E65F1B9EA"",""assignmentId"":""67963a18-c395-4a2d-8064-8531d7b15777"",""projectId"":""a0a8f18c-a66e-4ba7-a170-23efbdc67501""}","https://test12345.live/?participantId=68D0A2A67F394ED5BA5B0D8E65F1B9EA&assignmentId=67963a18-c395-4a2d-8064-8531d7b15777&projectId=a0a8f18c-a66e-4ba7-a170-23efbdc67501","68D0A2A67F394ED5BA5B0D8E65F1B9EA-2024-11-24-18-42-23","","null","","[]","null","",""
"","","","","","html-audio-response","119","424009","0.0-15.0","68D0A2A67F394ED5BA5B0D8E65F1B9EA","68D0A2A67F394ED5BA5B0D8E65F1B9EA","67963a18-c395-4a2d-8064-8531d7b15777","a0a8f18c-a66e-4ba7-a170-23efbdc67501","{""participantId"":""68D0A2A67F394ED5BA5B0D8E65F1B9EA"",""assignmentId"":""67963a18-c395-4a2d-8064-8531d7b15777"",""projectId"":""a0a8f18c-a66e-4ba7-a170-23efbdc67501""}","https://test12345.live/?participantId=68D0A2A67F394ED5BA5B0D8E65F1B9EA&assignmentId=67963a18-c395-4a2d-8064-8531d7b15777&projectId=a0a8f18c-a66e-4ba7-a170-23efbdc67501","68D0A2A67F394ED5BA5B0D8E65F1B9EA-2024-11-24-18-42-23","","33041","","[""<span style=\""color: red; font-size: 24px\""> NOW RECORDING</span><p>Please say out loud all the images you saw, as many as you can remember. The images can be said in any order.</p>""]","","14","saving_a_cat_causal"
"","","","","","image-button-response","120","430029","0.0-16.0-0.0","68D0A2A67F394ED5BA5B0D8E65F1B9EA","68D0A2A67F394ED5BA5B0D8E65F1B9EA","67963a18-c395-4a2d-8064-8531d7b15777","a0a8f18c-a66e-4ba7-a170-23efbdc67501","{""participantId"":""68D0A2A67F394ED5BA5B0D8E65F1B9EA"",""assignmentId"":""67963a18-c395-4a2d-8064-8531d7b15777"",""projectId"":""a0a8f18c-a66e-4ba7-a170-23efbdc67501""}","https://test12345.live/?participantId=68D0A2A67F394ED5BA5B0D8E65F1B9EA&assignmentId=67963a18-c395-4a2d-8064-8531d7b15777&projectId=a0a8f18c-a66e-4ba7-a170-23efbdc67501","68D0A2A67F394ED5BA5B0D8E65F1B9EA-2024-11-24-18-42-23","","null","","images/schematic_sequence/flight_scheme/flight_scheme_0.png","null","",""
"","","","","","image-button-response","121","434536","0.0-16.0-1.0-0.0","68D0A2A67F394ED5BA5B0D8E65F1B9EA","68D0A2A67F394ED5BA5B0D8E65F1B9EA","67963a18-c395-4a2d-8064-8531d7b15777","a0a8f18c-a66e-4ba7-a170-23efbdc67501","{""participantId"":""68D0A2A67F394ED5BA5B0D8E65F1B9EA"",""assignmentId"":""67963a18-c395-4a2d-8064-8531d7b15777"",""projectId"":""a0a8f18c-a66e-4ba7-a170-23efbdc67501""}","https://test12345.live/?participantId=68D0A2A67F394ED5BA5B0D8E65F1B9EA&assignmentId=67963a18-c395-4a2d-8064-8531d7b15777&projectId=a0a8f18c-a66e-4ba7-a170-23efbdc67501","68D0A2A67F394ED5BA5B0D8E65F1B9EA-2024-11-24-18-42-23","","null","","images/schematic_sequence/flight_scheme/flight_scheme_1.png","null","",""
"","","","","","image-button-response","122","438432","0.0-16.0-1.0-1.0","68D0A2A67F394ED5BA5B0D8E65F1B9EA","68D0A2A67F394ED5BA5B0D8E65F1B9EA","67963a18-c395-4a2d-8064-8531d7b15777","a0a8f18c-a66e-4ba7-a170-23efbdc67501","{""participantId"":""68D0A2A67F394ED5BA5B0D8E65F1B9EA"",""assignmentId"":""67963a18-c395-4a2d-8064-8531d7b15777"",""projectId"":""a0a8f18c-a66e-4ba7-a170-23efbdc67501""}","https://test12345.live/?participantId=68D0A2A67F394ED5BA5B0D8E65F1B9EA&assignmentId=67963a18-c395-4a2d-8064-8531d7b15777&projectId=a0a8f18c-a66e-4ba7-a170-23efbdc67501","68D0A2A67F394ED5BA5B0D8E65F1B9EA-2024-11-24-18-42-23","","3888","","images/schematic_sequence/flight_scheme/flight_scheme_1.png","1","",""
"","","","","","image-button-response","123","440236","0.0-16.0-1.0-2.0","68D0A2A67F394ED5BA5B0D8E65F1B9EA","68D0A2A67F394ED5BA5B0D8E65F1B9EA","67963a18-c395-4a2d-8064-8531d7b15777","a0a8f18c-a66e-4ba7-a170-23efbdc67501","{""participantId"":""68D0A2A67F394ED5BA5B0D8E65F1B9EA"",""assignmentId"":""67963a18-c395-4a2d-8064-8531d7b15777"",""projectId"":""a0a8f18c-a66e-4ba7-a170-23efbdc67501""}","https://test12345.live/?participantId=68D0A2A67F394ED5BA5B0D8E65F1B9EA&assignmentId=67963a18-c395-4a2d-8064-8531d7b15777&projectId=a0a8f18c-a66e-4ba7-a170-23efbdc67501","68D0A2A67F394ED5BA5B0D8E65F1B9EA-2024-11-24-18-42-23","","null","","[]","null","",""
"","","","","","image-button-response","124","444743","0.0-16.0-1.0-0.1","68D0A2A67F394ED5BA5B0D8E65F1B9EA","68D0A2A67F394ED5BA5B0D8E65F1B9EA","67963a18-c395-4a2d-8064-8531d7b15777","a0a8f18c-a66e-4ba7-a170-23efbdc67501","{""participantId"":""68D0A2A67F394ED5BA5B0D8E65F1B9EA"",""assignmentId"":""67963a18-c395-4a2d-8064-8531d7b15777"",""projectId"":""a0a8f18c-a66e-4ba7-a170-23efbdc67501""}","https://test12345.live/?participantId=68D0A2A67F394ED5BA5B0D8E65F1B9EA&assignmentId=67963a18-c395-4a2d-8064-8531d7b15777&projectId=a0a8f18c-a66e-4ba7-a170-23efbdc67501","68D0A2A67F394ED5BA5B0D8E65F1B9EA-2024-11-24-18-42-23","","null","","images/schematic_sequence/flight_scheme/flight_scheme_2.png","null","",""
"","","","","","image-button-response","125","445828","0.0-16.0-1.0-1.1","68D0A2A67F394ED5BA5B0D8E65F1B9EA","68D0A2A67F394ED5BA5B0D8E65F1B9EA","67963a18-c395-4a2d-8064-8531d7b15777","a0a8f18c-a66e-4ba7-a170-23efbdc67501","{""participantId"":""68D0A2A67F394ED5BA5B0D8E65F1B9EA"",""assignmentId"":""67963a18-c395-4a2d-8064-8531d7b15777"",""projectId"":""a0a8f18c-a66e-4ba7-a170-23efbdc67501""}","https://test12345.live/?participantId=68D0A2A67F394ED5BA5B0D8E65F1B9EA&assignmentId=67963a18-c395-4a2d-8064-8531d7b15777&projectId=a0a8f18c-a66e-4ba7-a170-23efbdc67501","68D0A2A67F394ED5BA5B0D8E65F1B9EA-2024-11-24-18-42-23","","1078","","images/schematic_sequence/flight_scheme/flight_scheme_2.png","1","",""
"","","","","","image-button-response","126","447632","0.0-16.0-1.0-2.1","68D0A2A67F394ED5BA5B0D8E65F1B9EA","68D0A2A67F394ED5BA5B0D8E65F1B9EA","67963a18-c395-4a2d-8064-8531d7b15777","a0a8f18c-a66e-4ba7-a170-23efbdc67501","{""participantId"":""68D0A2A67F394ED5BA5B0D8E65F1B9EA"",""assignmentId"":""67963a18-c395-4a2d-8064-8531d7b15777"",""projectId"":""a0a8f18c-a66e-4ba7-a170-23efbdc67501""}","https://test12345.live/?participantId=68D0A2A67F394ED5BA5B0D8E65F1B9EA&assignmentId=67963a18-c395-4a2d-8064-8531d7b15777&projectId=a0a8f18c-a66e-4ba7-a170-23efbdc67501","68D0A2A67F394ED5BA5B0D8E65F1B9EA-2024-11-24-18-42-23","","null","","[]","null","",""
"","","","","","image-button-response","127","452140","0.0-16.0-1.0-0.2","68D0A2A67F394ED5BA5B0D8E65F1B9EA","68D0A2A67F394ED5BA5B0D8E65F1B9EA","67963a18-c395-4a2d-8064-8531d7b15777","a0a8f18c-a66e-4ba7-a170-23efbdc67501","{""participantId"":""68D0A2A67F394ED5BA5B0D8E65F1B9EA"",""assignmentId"":""67963a18-c395-4a2d-8064-8531d7b15777"",""projectId"":""a0a8f18c-a66e-4ba7-a170-23efbdc67501""}","https://test12345.live/?participantId=68D0A2A67F394ED5BA5B0D8E65F1B9EA&assignmentId=67963a18-c395-4a2d-8064-8531d7b15777&projectId=a0a8f18c-a66e-4ba7-a170-23efbdc67501","68D0A2A67F394ED5BA5B0D8E65F1B9EA-2024-11-24-18-42-23","","null","","images/schematic_sequence/flight_scheme/flight_scheme_3.png","null","",""
"","","","","","image-button-response","128","453470","0.0-16.0-1.0-1.2","68D0A2A67F394ED5BA5B0D8E65F1B9EA","68D0A2A67F394ED5BA5B0D8E65F1B9EA","67963a18-c395-4a2d-8064-8531d7b15777","a0a8f18c-a66e-4ba7-a170-23efbdc67501","{""participantId"":""68D0A2A67F394ED5BA5B0D8E65F1B9EA"",""assignmentId"":""67963a18-c395-4a2d-8064-8531d7b15777"",""projectId"":""a0a8f18c-a66e-4ba7-a170-23efbdc67501""}","https://test12345.live/?participantId=68D0A2A67F394ED5BA5B0D8E65F1B9EA&assignmentId=67963a18-c395-4a2d-8064-8531d7b15777&projectId=a0a8f18c-a66e-4ba7-a170-23efbdc67501","68D0A2A67F394ED5BA5B0D8E65F1B9EA-2024-11-24-18-42-23","","1322","","images/schematic_sequence/flight_scheme/flight_scheme_3.png","0","",""
"","","","","","image-button-response","129","455273","0.0-16.0-1.0-2.2","68D0A2A67F394ED5BA5B0D8E65F1B9EA","68D0A2A67F394ED5BA5B0D8E65F1B9EA","67963a18-c395-4a2d-8064-8531d7b15777","a0a8f18c-a66e-4ba7-a170-23efbdc67501","{""participantId"":""68D0A2A67F394ED5BA5B0D8E65F1B9EA"",""assignmentId"":""67963a18-c395-4a2d-8064-8531d7b15777"",""projectId"":""a0a8f18c-a66e-4ba7-a170-23efbdc67501""}","https://test12345.live/?participantId=68D0A2A67F394ED5BA5B0D8E65F1B9EA&assignmentId=67963a18-c395-4a2d-8064-8531d7b15777&projectId=a0a8f18c-a66e-4ba7-a170-23efbdc67501","68D0A2A67F394ED5BA5B0D8E65F1B9EA-2024-11-24-18-42-23","","null","","[]","null","",""
"","","","","","image-button-response","130","459779","0.0-16.0-1.0-0.3","68D0A2A67F394ED5BA5B0D8E65F1B9EA","68D0A2A67F394ED5BA5B0D8E65F1B9EA","67963a18-c395-4a2d-8064-8531d7b15777","a0a8f18c-a66e-4ba7-a170-23efbdc67501","{""participantId"":""68D0A2A67F394ED5BA5B0D8E65F1B9EA"",""assignmentId"":""67963a18-c395-4a2d-8064-8531d7b15777"",""projectId"":""a0a8f18c-a66e-4ba7-a170-23efbdc67501""}","https://test12345.live/?participantId=68D0A2A67F394ED5BA5B0D8E65F1B9EA&assignmentId=67963a18-c395-4a2d-8064-8531d7b15777&projectId=a0a8f18c-a66e-4ba7-a170-23efbdc67501","68D0A2A67F394ED5BA5B0D8E65F1B9EA-2024-11-24-18-42-23","","null","","images/schematic_sequence/flight_scheme/flight_scheme_4.png","null","",""
"","","","","","image-button-response","131","460718","0.0-16.0-1.0-1.3","68D0A2A67F394ED5BA5B0D8E65F1B9EA","68D0A2A67F394ED5BA5B0D8E65F1B9EA","67963a18-c395-4a2d-8064-8531d7b15777","a0a8f18c-a66e-4ba7-a170-23efbdc67501","{""participantId"":""68D0A2A67F394ED5BA5B0D8E65F1B9EA"",""assignmentId"":""67963a18-c395-4a2d-8064-8531d7b15777"",""projectId"":""a0a8f18c-a66e-4ba7-a170-23efbdc67501""}","https://test12345.live/?participantId=68D0A2A67F394ED5BA5B0D8E65F1B9EA&assignmentId=67963a18-c395-4a2d-8064-8531d7b15777&projectId=a0a8f18c-a66e-4ba7-a170-23efbdc67501","68D0A2A67F394ED5BA5B0D8E65F1B9EA-2024-11-24-18-42-23","","931","","images/schematic_sequence/flight_scheme/flight_scheme_4.png","0","",""
"","","","","","image-button-response","132","462523","0.0-16.0-1.0-2.3","68D0A2A67F394ED5BA5B0D8E65F1B9EA","68D0A2A67F394ED5BA5B0D8E65F1B9EA","67963a18-c395-4a2d-8064-8531d7b15777","a0a8f18c-a66e-4ba7-a170-23efbdc67501","{""participantId"":""68D0A2A67F394ED5BA5B0D8E65F1B9EA"",""assignmentId"":""67963a18-c395-4a2d-8064-8531d7b15777"",""projectId"":""a0a8f18c-a66e-4ba7-a170-23efbdc67501""}","https://test12345.live/?participantId=68D0A2A67F394ED5BA5B0D8E65F1B9EA&assignmentId=67963a18-c395-4a2d-8064-8531d7b15777&projectId=a0a8f18c-a66e-4ba7-a170-23efbdc67501","68D0A2A67F394ED5BA5B0D8E65F1B9EA-2024-11-24-18-42-23","","null","","[]","null","",""
"","","","","","image-button-response","133","467030","0.0-16.0-1.0-0.4","68D0A2A67F394ED5BA5B0D8E65F1B9EA","68D0A2A67F394ED5BA5B0D8E65F1B9EA","67963a18-c395-4a2d-8064-8531d7b15777","a0a8f18c-a66e-4ba7-a170-23efbdc67501","{""participantId"":""68D0A2A67F394ED5BA5B0D8E65F1B9EA"",""assignmentId"":""67963a18-c395-4a2d-8064-8531d7b15777"",""projectId"":""a0a8f18c-a66e-4ba7-a170-23efbdc67501""}","https://test12345.live/?participantId=68D0A2A67F394ED5BA5B0D8E65F1B9EA&assignmentId=67963a18-c395-4a2d-8064-8531d7b15777&projectId=a0a8f18c-a66e-4ba7-a170-23efbdc67501","68D0A2A67F394ED5BA5B0D8E65F1B9EA-2024-11-24-18-42-23","","null","","images/schematic_sequence/flight_scheme/flight_scheme_5.png","null","",""
"","","","","","image-button-response","134","468205","0.0-16.0-1.0-1.4","68D0A2A67F394ED5BA5B0D8E65F1B9EA","68D0A2A67F394ED5BA5B0D8E65F1B9EA","67963a18-c395-4a2d-8064-8531d7b15777","a0a8f18c-a66e-4ba7-a170-23efbdc67501","{""participantId"":""68D0A2A67F394ED5BA5B0D8E65F1B9EA"",""assignmentId"":""67963a18-c395-4a2d-8064-8531d7b15777"",""projectId"":""a0a8f18c-a66e-4ba7-a170-23efbdc67501""}","https://test12345.live/?participantId=68D0A2A67F394ED5BA5B0D8E65F1B9EA&assignmentId=67963a18-c395-4a2d-8064-8531d7b15777&projectId=a0a8f18c-a66e-4ba7-a170-23efbdc67501","68D0A2A67F394ED5BA5B0D8E65F1B9EA-2024-11-24-18-42-23","","1168","","images/schematic_sequence/flight_scheme/flight_scheme_5.png","0","",""
"","","","","","image-button-response","135","470008","0.0-16.0-1.0-2.4","68D0A2A67F394ED5BA5B0D8E65F1B9EA","68D0A2A67F394ED5BA5B0D8E65F1B9EA","67963a18-c395-4a2d-8064-8531d7b15777","a0a8f18c-a66e-4ba7-a170-23efbdc67501","{""participantId"":""68D0A2A67F394ED5BA5B0D8E65F1B9EA"",""assignmentId"":""67963a18-c395-4a2d-8064-8531d7b15777"",""projectId"":""a0a8f18c-a66e-4ba7-a170-23efbdc67501""}","https://test12345.live/?participantId=68D0A2A67F394ED5BA5B0D8E65F1B9EA&assignmentId=67963a18-c395-4a2d-8064-8531d7b15777&projectId=a0a8f18c-a66e-4ba7-a170-23efbdc67501","68D0A2A67F394ED5BA5B0D8E65F1B9EA-2024-11-24-18-42-23","","null","","[]","null","",""
"","","","","","image-button-response","136","474517","0.0-16.0-1.0-0.5","68D0A2A67F394ED5BA5B0D8E65F1B9EA","68D0A2A67F394ED5BA5B0D8E65F1B9EA","67963a18-c395-4a2d-8064-8531d7b15777","a0a8f18c-a66e-4ba7-a170-23efbdc67501","{""participantId"":""68D0A2A67F394ED5BA5B0D8E65F1B9EA"",""assignmentId"":""67963a18-c395-4a2d-8064-8531d7b15777"",""projectId"":""a0a8f18c-a66e-4ba7-a170-23efbdc67501""}","https://test12345.live/?participantId=68D0A2A67F394ED5BA5B0D8E65F1B9EA&assignmentId=67963a18-c395-4a2d-8064-8531d7b15777&projectId=a0a8f18c-a66e-4ba7-a170-23efbdc67501","68D0A2A67F394ED5BA5B0D8E65F1B9EA-2024-11-24-18-42-23","","null","","images/schematic_sequence/flight_scheme/flight_scheme_6.png","null","",""
"","","","","","image-button-response","137","475305","0.0-16.0-1.0-1.5","68D0A2A67F394ED5BA5B0D8E65F1B9EA","68D0A2A67F394ED5BA5B0D8E65F1B9EA","67963a18-c395-4a2d-8064-8531d7b15777","a0a8f18c-a66e-4ba7-a170-23efbdc67501","{""participantId"":""68D0A2A67F394ED5BA5B0D8E65F1B9EA"",""assignmentId"":""67963a18-c395-4a2d-8064-8531d7b15777"",""projectId"":""a0a8f18c-a66e-4ba7-a170-23efbdc67501""}","https://test12345.live/?participantId=68D0A2A67F394ED5BA5B0D8E65F1B9EA&assignmentId=67963a18-c395-4a2d-8064-8531d7b15777&projectId=a0a8f18c-a66e-4ba7-a170-23efbdc67501","68D0A2A67F394ED5BA5B0D8E65F1B9EA-2024-11-24-18-42-23","","781","","images/schematic_sequence/flight_scheme/flight_scheme_6.png","1","",""
"","","","","","image-button-response","138","477109","0.0-16.0-1.0-2.5","68D0A2A67F394ED5BA5B0D8E65F1B9EA","68D0A2A67F394ED5BA5B0D8E65F1B9EA","67963a18-c395-4a2d-8064-8531d7b15777","a0a8f18c-a66e-4ba7-a170-23efbdc67501","{""participantId"":""68D0A2A67F394ED5BA5B0D8E65F1B9EA"",""assignmentId"":""67963a18-c395-4a2d-8064-8531d7b15777"",""projectId"":""a0a8f18c-a66e-4ba7-a170-23efbdc67501""}","https://test12345.live/?participantId=68D0A2A67F394ED5BA5B0D8E65F1B9EA&assignmentId=67963a18-c395-4a2d-8064-8531d7b15777&projectId=a0a8f18c-a66e-4ba7-a170-23efbdc67501","68D0A2A67F394ED5BA5B0D8E65F1B9EA-2024-11-24-18-42-23","","null","","[]","null","",""
"","","","","","image-button-response","139","481618","0.0-16.0-1.0-0.6","68D0A2A67F394ED5BA5B0D8E65F1B9EA","68D0A2A67F394ED5BA5B0D8E65F1B9EA","67963a18-c395-4a2d-8064-8531d7b15777","a0a8f18c-a66e-4ba7-a170-23efbdc67501","{""participantId"":""68D0A2A67F394ED5BA5B0D8E65F1B9EA"",""assignmentId"":""67963a18-c395-4a2d-8064-8531d7b15777"",""projectId"":""a0a8f18c-a66e-4ba7-a170-23efbdc67501""}","https://test12345.live/?participantId=68D0A2A67F394ED5BA5B0D8E65F1B9EA&assignmentId=67963a18-c395-4a2d-8064-8531d7b15777&projectId=a0a8f18c-a66e-4ba7-a170-23efbdc67501","68D0A2A67F394ED5BA5B0D8E65F1B9EA-2024-11-24-18-42-23","","null","","images/schematic_sequence/flight_scheme/flight_scheme_7.png","null","",""
"","","","","","image-button-response","140","482487","0.0-16.0-1.0-1.6","68D0A2A67F394ED5BA5B0D8E65F1B9EA","68D0A2A67F394ED5BA5B0D8E65F1B9EA","67963a18-c395-4a2d-8064-8531d7b15777","a0a8f18c-a66e-4ba7-a170-23efbdc67501","{""participantId"":""68D0A2A67F394ED5BA5B0D8E65F1B9EA"",""assignmentId"":""67963a18-c395-4a2d-8064-8531d7b15777"",""projectId"":""a0a8f18c-a66e-4ba7-a170-23efbdc67501""}","https://test12345.live/?participantId=68D0A2A67F394ED5BA5B0D8E65F1B9EA&assignmentId=67963a18-c395-4a2d-8064-8531d7b15777&projectId=a0a8f18c-a66e-4ba7-a170-23efbdc67501","68D0A2A67F394ED5BA5B0D8E65F1B9EA-2024-11-24-18-42-23","","859","","images/schematic_sequence/flight_scheme/flight_scheme_7.png","1","",""
"","","","","","image-button-response","141","484291","0.0-16.0-1.0-2.6","68D0A2A67F394ED5BA5B0D8E65F1B9EA","68D0A2A67F394ED5BA5B0D8E65F1B9EA","67963a18-c395-4a2d-8064-8531d7b15777","a0a8f18c-a66e-4ba7-a170-23efbdc67501","{""participantId"":""68D0A2A67F394ED5BA5B0D8E65F1B9EA"",""assignmentId"":""67963a18-c395-4a2d-8064-8531d7b15777"",""projectId"":""a0a8f18c-a66e-4ba7-a170-23efbdc67501""}","https://test12345.live/?participantId=68D0A2A67F394ED5BA5B0D8E65F1B9EA&assignmentId=67963a18-c395-4a2d-8064-8531d7b15777&projectId=a0a8f18c-a66e-4ba7-a170-23efbdc67501","68D0A2A67F394ED5BA5B0D8E65F1B9EA-2024-11-24-18-42-23","","null","","[]","null","",""
"","","","","","image-button-response","142","488799","0.0-16.0-1.0-0.7","68D0A2A67F394ED5BA5B0D8E65F1B9EA","68D0A2A67F394ED5BA5B0D8E65F1B9EA","67963a18-c395-4a2d-8064-8531d7b15777","a0a8f18c-a66e-4ba7-a170-23efbdc67501","{""participantId"":""68D0A2A67F394ED5BA5B0D8E65F1B9EA"",""assignmentId"":""67963a18-c395-4a2d-8064-8531d7b15777"",""projectId"":""a0a8f18c-a66e-4ba7-a170-23efbdc67501""}","https://test12345.live/?participantId=68D0A2A67F394ED5BA5B0D8E65F1B9EA&assignmentId=67963a18-c395-4a2d-8064-8531d7b15777&projectId=a0a8f18c-a66e-4ba7-a170-23efbdc67501","68D0A2A67F394ED5BA5B0D8E65F1B9EA-2024-11-24-18-42-23","","null","","images/schematic_sequence/flight_scheme/flight_scheme_8.png","null","",""
