"success","timeout","failed_images","failed_audio","failed_video","trial_type","trial_index","time_elapsed","internal_node_id","subject","subject_id","study_id","session_id","urlvar","current_url","audio_id","view_history","rt","device_id","stimulus","response","estimated_stimulus_onset","seq_name"
"true","false","[]","[]","[]","preload","0","74","0.0-0.0","766753950A0E4C74AFBD977A1824EA32","766753950A0E4C74AFBD977A1824EA32","4b3d5ede-d7f0-4591-952b-b659cdfdc84a","a0a8f18c-a66e-4ba7-a170-23efbdc67501","{""participantId"":""766753950A0E4C74AFBD977A1824EA32"",""assignmentId"":""4b3d5ede-d7f0-4591-952b-b659cdfdc84a"",""projectId"":""a0a8f18c-a66e-4ba7-a170-23efbdc67501""}","https://test12345.live/?participantId=766753950A0E4C74AFBD977A1824EA32&assignmentId=4b3d5ede-d7f0-4591-952b-b659cdfdc84a&projectId=a0a8f18c-a66e-4ba7-a170-23efbdc67501","766753950A0E4C74AFBD977A1824EA32-2024-11-24-19-02-07","","","","","","",""
"","","","","","instructions","1","11357","0.0-1.0","766753950A0E4C74AFBD977A1824EA32","766753950A0E4C74AFBD977A1824EA32","4b3d5ede-d7f0-4591-952b-b659cdfdc84a","a0a8f18c-a66e-4ba7-a170-23efbdc67501","{""participantId"":""766753950A0E4C74AFBD977A1824EA32"",""assignmentId"":""4b3d5ede-d7f0-4591-952b-b659cdfdc84a"",""projectId"":""a0a8f18c-a66e-4ba7-a170-23efbdc67501""}","https://test12345.live/?participantId=766753950A0E4C74AFBD977A1824EA32&assignmentId=4b3d5ede-d7f0-4591-952b-b659cdfdc84a&projectId=a0a8f18c-a66e-4ba7-a170-23efbdc67501","766753950A0E4C74AFBD977A1824EA32-2024-11-24-19-02-07","[{""page_index"":0,""viewing_time"":11283}]","11283","","","","",""
"","","","","","instructions","2","55084","0.0-2.0","766753950A0E4C74AFBD977A1824EA32","766753950A0E4C74AFBD977A1824EA32","4b3d5ede-d7f0-4591-952b-b659cdfdc84a","a0a8f18c-a66e-4ba7-a170-23efbdc67501","{""participantId"":""766753950A0E4C74AFBD977A1824EA32"",""assignmentId"":""4b3d5ede-d7f0-4591-952b-b659cdfdc84a"",""projectId"":""a0a8f18c-a66e-4ba7-a170-23efbdc67501""}","https://test12345.live/?participantId=766753950A0E4C74AFBD977A1824EA32&assignmentId=4b3d5ede-d7f0-4591-952b-b659cdfdc84a&projectId=a0a8f18c-a66e-4ba7-a170-23efbdc67501","766753950A0E4C74AFBD977A1824EA32-2024-11-24-19-02-07","[{""page_index"":0,""viewing_time"":43727}]","43727","","","","",""
"true","","","","","fullscreen","3","58559","0.0-3.0","766753950A0E4C74AFBD977A1824EA32","766753950A0E4C74AFBD977A1824EA32","4b3d5ede-d7f0-4591-952b-b659cdfdc84a","a0a8f18c-a66e-4ba7-a170-23efbdc67501","{""participantId"":""766753950A0E4C74AFBD977A1824EA32"",""assignmentId"":""4b3d5ede-d7f0-4591-952b-b659cdfdc84a"",""projectId"":""a0a8f18c-a66e-4ba7-a170-23efbdc67501""}","https://test12345.live/?participantId=766753950A0E4C74AFBD977A1824EA32&assignmentId=4b3d5ede-d7f0-4591-952b-b659cdfdc84a&projectId=a0a8f18c-a66e-4ba7-a170-23efbdc67501","766753950A0E4C74AFBD977A1824EA32-2024-11-24-19-02-07","","2465","","","","",""
"","","","","","initialize-microphone","4","68050","0.0-4.0-0.0","766753950A0E4C74AFBD977A1824EA32","766753950A0E4C74AFBD977A1824EA32","4b3d5ede-d7f0-4591-952b-b659cdfdc84a","a0a8f18c-a66e-4ba7-a170-23efbdc67501","{""participantId"":""766753950A0E4C74AFBD977A1824EA32"",""assignmentId"":""4b3d5ede-d7f0-4591-952b-b659cdfdc84a"",""projectId"":""a0a8f18c-a66e-4ba7-a170-23efbdc67501""}","https://test12345.live/?participantId=766753950A0E4C74AFBD977A1824EA32&assignmentId=4b3d5ede-d7f0-4591-952b-b659cdfdc84a&projectId=a0a8f18c-a66e-4ba7-a170-23efbdc67501","766753950A0E4C74AFBD977A1824EA32-2024-11-24-19-02-07","","","2ee610b7136af38022bf6a5c154284b17fada3deddc9bc11d147f33f1dc0c6ca","","","",""
"","","","","","html-audio-response","5","91234","0.0-4.0-1.0","766753950A0E4C74AFBD977A1824EA32","766753950A0E4C74AFBD977A1824EA32","4b3d5ede-d7f0-4591-952b-b659cdfdc84a","a0a8f18c-a66e-4ba7-a170-23efbdc67501","{""participantId"":""766753950A0E4C74AFBD977A1824EA32"",""assignmentId"":""4b3d5ede-d7f0-4591-952b-b659cdfdc84a"",""projectId"":""a0a8f18c-a66e-4ba7-a170-23efbdc67501""}","https://test12345.live/?participantId=766753950A0E4C74AFBD977A1824EA32&assignmentId=4b3d5ede-d7f0-4591-952b-b659cdfdc84a&projectId=a0a8f18c-a66e-4ba7-a170-23efbdc67501","766753950A0E4C74AFBD977A1824EA32-2024-11-24-19-02-07","","8303","","<span style=""color: red; font-size: 24px""> NOW RECORDING</span>
        <p>Please test Microphone</p>","","2",""
"","","","","","html-button-response","6","93155","0.0-4.0-2.0","766753950A0E4C74AFBD977A1824EA32","766753950A0E4C74AFBD977A1824EA32","4b3d5ede-d7f0-4591-952b-b659cdfdc84a","a0a8f18c-a66e-4ba7-a170-23efbdc67501","{""participantId"":""766753950A0E4C74AFBD977A1824EA32"",""assignmentId"":""4b3d5ede-d7f0-4591-952b-b659cdfdc84a"",""projectId"":""a0a8f18c-a66e-4ba7-a170-23efbdc67501""}","https://test12345.live/?participantId=766753950A0E4C74AFBD977A1824EA32&assignmentId=4b3d5ede-d7f0-4591-952b-b659cdfdc84a&projectId=a0a8f18c-a66e-4ba7-a170-23efbdc67501","766753950A0E4C74AFBD977A1824EA32-2024-11-24-19-02-07","","1921","","<p style=""font-size:48px; color:red;"">Is Microphone OK?</p>","1","",""
"","","","","","instructions","7","179892","0.0-5.0","766753950A0E4C74AFBD977A1824EA32","766753950A0E4C74AFBD977A1824EA32","4b3d5ede-d7f0-4591-952b-b659cdfdc84a","a0a8f18c-a66e-4ba7-a170-23efbdc67501","{""participantId"":""766753950A0E4C74AFBD977A1824EA32"",""assignmentId"":""4b3d5ede-d7f0-4591-952b-b659cdfdc84a"",""projectId"":""a0a8f18c-a66e-4ba7-a170-23efbdc67501""}","https://test12345.live/?participantId=766753950A0E4C74AFBD977A1824EA32&assignmentId=4b3d5ede-d7f0-4591-952b-b659cdfdc84a&projectId=a0a8f18c-a66e-4ba7-a170-23efbdc67501","766753950A0E4C74AFBD977A1824EA32-2024-11-24-19-02-07","[{""page_index"":0,""viewing_time"":77821},{""page_index"":1,""viewing_time"":8915}]","86736","","","","",""
"","","","","","image-button-response","8","185893","0.0-6.0-0.0","766753950A0E4C74AFBD977A1824EA32","766753950A0E4C74AFBD977A1824EA32","4b3d5ede-d7f0-4591-952b-b659cdfdc84a","a0a8f18c-a66e-4ba7-a170-23efbdc67501","{""participantId"":""766753950A0E4C74AFBD977A1824EA32"",""assignmentId"":""4b3d5ede-d7f0-4591-952b-b659cdfdc84a"",""projectId"":""a0a8f18c-a66e-4ba7-a170-23efbdc67501""}","https://test12345.live/?participantId=766753950A0E4C74AFBD977A1824EA32&assignmentId=4b3d5ede-d7f0-4591-952b-b659cdfdc84a&projectId=a0a8f18c-a66e-4ba7-a170-23efbdc67501","766753950A0E4C74AFBD977A1824EA32-2024-11-24-19-02-07","","null","","images/instructions/movie_0.png","null","",""
"","","","","","image-button-response","9","190394","0.0-6.0-1.0-0.0","766753950A0E4C74AFBD977A1824EA32","766753950A0E4C74AFBD977A1824EA32","4b3d5ede-d7f0-4591-952b-b659cdfdc84a","a0a8f18c-a66e-4ba7-a170-23efbdc67501","{""participantId"":""766753950A0E4C74AFBD977A1824EA32"",""assignmentId"":""4b3d5ede-d7f0-4591-952b-b659cdfdc84a"",""projectId"":""a0a8f18c-a66e-4ba7-a170-23efbdc67501""}","https://test12345.live/?participantId=766753950A0E4C74AFBD977A1824EA32&assignmentId=4b3d5ede-d7f0-4591-952b-b659cdfdc84a&projectId=a0a8f18c-a66e-4ba7-a170-23efbdc67501","766753950A0E4C74AFBD977A1824EA32-2024-11-24-19-02-07","","null","","images/instructions/movie_1.png","null","",""
"","","","","","image-button-response","10","193138","0.0-6.0-1.0-1.0","766753950A0E4C74AFBD977A1824EA32","766753950A0E4C74AFBD977A1824EA32","4b3d5ede-d7f0-4591-952b-b659cdfdc84a","a0a8f18c-a66e-4ba7-a170-23efbdc67501","{""participantId"":""766753950A0E4C74AFBD977A1824EA32"",""assignmentId"":""4b3d5ede-d7f0-4591-952b-b659cdfdc84a"",""projectId"":""a0a8f18c-a66e-4ba7-a170-23efbdc67501""}","https://test12345.live/?participantId=766753950A0E4C74AFBD977A1824EA32&assignmentId=4b3d5ede-d7f0-4591-952b-b659cdfdc84a&projectId=a0a8f18c-a66e-4ba7-a170-23efbdc67501","766753950A0E4C74AFBD977A1824EA32-2024-11-24-19-02-07","","2744","","images/instructions/movie_1.png","0","",""
"","","","","","image-button-response","11","194947","0.0-6.0-1.0-2.0","766753950A0E4C74AFBD977A1824EA32","766753950A0E4C74AFBD977A1824EA32","4b3d5ede-d7f0-4591-952b-b659cdfdc84a","a0a8f18c-a66e-4ba7-a170-23efbdc67501","{""participantId"":""766753950A0E4C74AFBD977A1824EA32"",""assignmentId"":""4b3d5ede-d7f0-4591-952b-b659cdfdc84a"",""projectId"":""a0a8f18c-a66e-4ba7-a170-23efbdc67501""}","https://test12345.live/?participantId=766753950A0E4C74AFBD977A1824EA32&assignmentId=4b3d5ede-d7f0-4591-952b-b659cdfdc84a&projectId=a0a8f18c-a66e-4ba7-a170-23efbdc67501","766753950A0E4C74AFBD977A1824EA32-2024-11-24-19-02-07","","null","","[]","null","",""
"","","","","","image-button-response","12","199460","0.0-6.0-1.0-0.1","766753950A0E4C74AFBD977A1824EA32","766753950A0E4C74AFBD977A1824EA32","4b3d5ede-d7f0-4591-952b-b659cdfdc84a","a0a8f18c-a66e-4ba7-a170-23efbdc67501","{""participantId"":""766753950A0E4C74AFBD977A1824EA32"",""assignmentId"":""4b3d5ede-d7f0-4591-952b-b659cdfdc84a"",""projectId"":""a0a8f18c-a66e-4ba7-a170-23efbdc67501""}","https://test12345.live/?participantId=766753950A0E4C74AFBD977A1824EA32&assignmentId=4b3d5ede-d7f0-4591-952b-b659cdfdc84a&projectId=a0a8f18c-a66e-4ba7-a170-23efbdc67501","766753950A0E4C74AFBD977A1824EA32-2024-11-24-19-02-07","","null","","images/instructions/movie_2.png","null","",""
"","","","","","image-button-response","13","203119","0.0-6.0-1.0-1.1","766753950A0E4C74AFBD977A1824EA32","766753950A0E4C74AFBD977A1824EA32","4b3d5ede-d7f0-4591-952b-b659cdfdc84a","a0a8f18c-a66e-4ba7-a170-23efbdc67501","{""participantId"":""766753950A0E4C74AFBD977A1824EA32"",""assignmentId"":""4b3d5ede-d7f0-4591-952b-b659cdfdc84a"",""projectId"":""a0a8f18c-a66e-4ba7-a170-23efbdc67501""}","https://test12345.live/?participantId=766753950A0E4C74AFBD977A1824EA32&assignmentId=4b3d5ede-d7f0-4591-952b-b659cdfdc84a&projectId=a0a8f18c-a66e-4ba7-a170-23efbdc67501","766753950A0E4C74AFBD977A1824EA32-2024-11-24-19-02-07","","3659","","images/instructions/movie_2.png","1","",""
"","","","","","image-button-response","14","204931","0.0-6.0-1.0-2.1","766753950A0E4C74AFBD977A1824EA32","766753950A0E4C74AFBD977A1824EA32","4b3d5ede-d7f0-4591-952b-b659cdfdc84a","a0a8f18c-a66e-4ba7-a170-23efbdc67501","{""participantId"":""766753950A0E4C74AFBD977A1824EA32"",""assignmentId"":""4b3d5ede-d7f0-4591-952b-b659cdfdc84a"",""projectId"":""a0a8f18c-a66e-4ba7-a170-23efbdc67501""}","https://test12345.live/?participantId=766753950A0E4C74AFBD977A1824EA32&assignmentId=4b3d5ede-d7f0-4591-952b-b659cdfdc84a&projectId=a0a8f18c-a66e-4ba7-a170-23efbdc67501","766753950A0E4C74AFBD977A1824EA32-2024-11-24-19-02-07","","null","","[]","null","",""
"","","","","","image-button-response","15","209434","0.0-6.0-1.0-0.2","766753950A0E4C74AFBD977A1824EA32","766753950A0E4C74AFBD977A1824EA32","4b3d5ede-d7f0-4591-952b-b659cdfdc84a","a0a8f18c-a66e-4ba7-a170-23efbdc67501","{""participantId"":""766753950A0E4C74AFBD977A1824EA32"",""assignmentId"":""4b3d5ede-d7f0-4591-952b-b659cdfdc84a"",""projectId"":""a0a8f18c-a66e-4ba7-a170-23efbdc67501""}","https://test12345.live/?participantId=766753950A0E4C74AFBD977A1824EA32&assignmentId=4b3d5ede-d7f0-4591-952b-b659cdfdc84a&projectId=a0a8f18c-a66e-4ba7-a170-23efbdc67501","766753950A0E4C74AFBD977A1824EA32-2024-11-24-19-02-07","","null","","images/instructions/movie_3.png","null","",""
"","","","","","image-button-response","16","210374","0.0-6.0-1.0-1.2","766753950A0E4C74AFBD977A1824EA32","766753950A0E4C74AFBD977A1824EA32","4b3d5ede-d7f0-4591-952b-b659cdfdc84a","a0a8f18c-a66e-4ba7-a170-23efbdc67501","{""participantId"":""766753950A0E4C74AFBD977A1824EA32"",""assignmentId"":""4b3d5ede-d7f0-4591-952b-b659cdfdc84a"",""projectId"":""a0a8f18c-a66e-4ba7-a170-23efbdc67501""}","https://test12345.live/?participantId=766753950A0E4C74AFBD977A1824EA32&assignmentId=4b3d5ede-d7f0-4591-952b-b659cdfdc84a&projectId=a0a8f18c-a66e-4ba7-a170-23efbdc67501","766753950A0E4C74AFBD977A1824EA32-2024-11-24-19-02-07","","940","","images/instructions/movie_3.png","0","",""
"","","","","","image-button-response","17","212183","0.0-6.0-1.0-2.2","766753950A0E4C74AFBD977A1824EA32","766753950A0E4C74AFBD977A1824EA32","4b3d5ede-d7f0-4591-952b-b659cdfdc84a","a0a8f18c-a66e-4ba7-a170-23efbdc67501","{""participantId"":""766753950A0E4C74AFBD977A1824EA32"",""assignmentId"":""4b3d5ede-d7f0-4591-952b-b659cdfdc84a"",""projectId"":""a0a8f18c-a66e-4ba7-a170-23efbdc67501""}","https://test12345.live/?participantId=766753950A0E4C74AFBD977A1824EA32&assignmentId=4b3d5ede-d7f0-4591-952b-b659cdfdc84a&projectId=a0a8f18c-a66e-4ba7-a170-23efbdc67501","766753950A0E4C74AFBD977A1824EA32-2024-11-24-19-02-07","","null","","[]","null","",""
"","","","","","image-button-response","18","216687","0.0-6.0-1.0-0.3","766753950A0E4C74AFBD977A1824EA32","766753950A0E4C74AFBD977A1824EA32","4b3d5ede-d7f0-4591-952b-b659cdfdc84a","a0a8f18c-a66e-4ba7-a170-23efbdc67501","{""participantId"":""766753950A0E4C74AFBD977A1824EA32"",""assignmentId"":""4b3d5ede-d7f0-4591-952b-b659cdfdc84a"",""projectId"":""a0a8f18c-a66e-4ba7-a170-23efbdc67501""}","https://test12345.live/?participantId=766753950A0E4C74AFBD977A1824EA32&assignmentId=4b3d5ede-d7f0-4591-952b-b659cdfdc84a&projectId=a0a8f18c-a66e-4ba7-a170-23efbdc67501","766753950A0E4C74AFBD977A1824EA32-2024-11-24-19-02-07","","null","","images/instructions/movie_4.png","null","",""
"","","","","","image-button-response","19","218016","0.0-6.0-1.0-1.3","766753950A0E4C74AFBD977A1824EA32","766753950A0E4C74AFBD977A1824EA32","4b3d5ede-d7f0-4591-952b-b659cdfdc84a","a0a8f18c-a66e-4ba7-a170-23efbdc67501","{""participantId"":""766753950A0E4C74AFBD977A1824EA32"",""assignmentId"":""4b3d5ede-d7f0-4591-952b-b659cdfdc84a"",""projectId"":""a0a8f18c-a66e-4ba7-a170-23efbdc67501""}","https://test12345.live/?participantId=766753950A0E4C74AFBD977A1824EA32&assignmentId=4b3d5ede-d7f0-4591-952b-b659cdfdc84a&projectId=a0a8f18c-a66e-4ba7-a170-23efbdc67501","766753950A0E4C74AFBD977A1824EA32-2024-11-24-19-02-07","","1329","","images/instructions/movie_4.png","0","",""
"","","","","","image-button-response","20","219817","0.0-6.0-1.0-2.3","766753950A0E4C74AFBD977A1824EA32","766753950A0E4C74AFBD977A1824EA32","4b3d5ede-d7f0-4591-952b-b659cdfdc84a","a0a8f18c-a66e-4ba7-a170-23efbdc67501","{""participantId"":""766753950A0E4C74AFBD977A1824EA32"",""assignmentId"":""4b3d5ede-d7f0-4591-952b-b659cdfdc84a"",""projectId"":""a0a8f18c-a66e-4ba7-a170-23efbdc67501""}","https://test12345.live/?participantId=766753950A0E4C74AFBD977A1824EA32&assignmentId=4b3d5ede-d7f0-4591-952b-b659cdfdc84a&projectId=a0a8f18c-a66e-4ba7-a170-23efbdc67501","766753950A0E4C74AFBD977A1824EA32-2024-11-24-19-02-07","","null","","[]","null","",""
"","","","","","instructions","21","226082","0.0-7.0","766753950A0E4C74AFBD977A1824EA32","766753950A0E4C74AFBD977A1824EA32","4b3d5ede-d7f0-4591-952b-b659cdfdc84a","a0a8f18c-a66e-4ba7-a170-23efbdc67501","{""participantId"":""766753950A0E4C74AFBD977A1824EA32"",""assignmentId"":""4b3d5ede-d7f0-4591-952b-b659cdfdc84a"",""projectId"":""a0a8f18c-a66e-4ba7-a170-23efbdc67501""}","https://test12345.live/?participantId=766753950A0E4C74AFBD977A1824EA32&assignmentId=4b3d5ede-d7f0-4591-952b-b659cdfdc84a&projectId=a0a8f18c-a66e-4ba7-a170-23efbdc67501","766753950A0E4C74AFBD977A1824EA32-2024-11-24-19-02-07","[{""page_index"":0,""viewing_time"":5070},{""page_index"":1,""viewing_time"":1195}]","6265","","","","",""
"","","","","","html-audio-response","22","247006","0.0-8.0","766753950A0E4C74AFBD977A1824EA32","766753950A0E4C74AFBD977A1824EA32","4b3d5ede-d7f0-4591-952b-b659cdfdc84a","a0a8f18c-a66e-4ba7-a170-23efbdc67501","{""participantId"":""766753950A0E4C74AFBD977A1824EA32"",""assignmentId"":""4b3d5ede-d7f0-4591-952b-b659cdfdc84a"",""projectId"":""a0a8f18c-a66e-4ba7-a170-23efbdc67501""}","https://test12345.live/?participantId=766753950A0E4C74AFBD977A1824EA32&assignmentId=4b3d5ede-d7f0-4591-952b-b659cdfdc84a&projectId=a0a8f18c-a66e-4ba7-a170-23efbdc67501","766753950A0E4C74AFBD977A1824EA32-2024-11-24-19-02-07","","9303","","[""<span style=\""color: red; font-size: 24px\""> NOW RECORDING</span><p>Please say out loud all the images you saw, as many as you can remember. The images can be said in any order.</p>""]","","1",""
"","","","","","instructions","23","248563","0.0-9.0","766753950A0E4C74AFBD977A1824EA32","766753950A0E4C74AFBD977A1824EA32","4b3d5ede-d7f0-4591-952b-b659cdfdc84a","a0a8f18c-a66e-4ba7-a170-23efbdc67501","{""participantId"":""766753950A0E4C74AFBD977A1824EA32"",""assignmentId"":""4b3d5ede-d7f0-4591-952b-b659cdfdc84a"",""projectId"":""a0a8f18c-a66e-4ba7-a170-23efbdc67501""}","https://test12345.live/?participantId=766753950A0E4C74AFBD977A1824EA32&assignmentId=4b3d5ede-d7f0-4591-952b-b659cdfdc84a&projectId=a0a8f18c-a66e-4ba7-a170-23efbdc67501","766753950A0E4C74AFBD977A1824EA32-2024-11-24-19-02-07","[{""page_index"":0,""viewing_time"":1556}]","1556","","","","",""
"","","","","","image-button-response","24","254577","0.0-10.0-0.0","766753950A0E4C74AFBD977A1824EA32","766753950A0E4C74AFBD977A1824EA32","4b3d5ede-d7f0-4591-952b-b659cdfdc84a","a0a8f18c-a66e-4ba7-a170-23efbdc67501","{""participantId"":""766753950A0E4C74AFBD977A1824EA32"",""assignmentId"":""4b3d5ede-d7f0-4591-952b-b659cdfdc84a"",""projectId"":""a0a8f18c-a66e-4ba7-a170-23efbdc67501""}","https://test12345.live/?participantId=766753950A0E4C74AFBD977A1824EA32&assignmentId=4b3d5ede-d7f0-4591-952b-b659cdfdc84a&projectId=a0a8f18c-a66e-4ba7-a170-23efbdc67501","766753950A0E4C74AFBD977A1824EA32-2024-11-24-19-02-07","","null","","images/semantic_sequence/physical_activity_semantic/physical_activity_semantic_0.png","null","",""
"","","","","","image-button-response","25","259081","0.0-10.0-1.0-0.0","766753950A0E4C74AFBD977A1824EA32","766753950A0E4C74AFBD977A1824EA32","4b3d5ede-d7f0-4591-952b-b659cdfdc84a","a0a8f18c-a66e-4ba7-a170-23efbdc67501","{""participantId"":""766753950A0E4C74AFBD977A1824EA32"",""assignmentId"":""4b3d5ede-d7f0-4591-952b-b659cdfdc84a"",""projectId"":""a0a8f18c-a66e-4ba7-a170-23efbdc67501""}","https://test12345.live/?participantId=766753950A0E4C74AFBD977A1824EA32&assignmentId=4b3d5ede-d7f0-4591-952b-b659cdfdc84a&projectId=a0a8f18c-a66e-4ba7-a170-23efbdc67501","766753950A0E4C74AFBD977A1824EA32-2024-11-24-19-02-07","","null","","images/semantic_sequence/physical_activity_semantic/physical_activity_semantic_1.png","null","",""
"","","","","","image-button-response","26","261182","0.0-10.0-1.0-1.0","766753950A0E4C74AFBD977A1824EA32","766753950A0E4C74AFBD977A1824EA32","4b3d5ede-d7f0-4591-952b-b659cdfdc84a","a0a8f18c-a66e-4ba7-a170-23efbdc67501","{""participantId"":""766753950A0E4C74AFBD977A1824EA32"",""assignmentId"":""4b3d5ede-d7f0-4591-952b-b659cdfdc84a"",""projectId"":""a0a8f18c-a66e-4ba7-a170-23efbdc67501""}","https://test12345.live/?participantId=766753950A0E4C74AFBD977A1824EA32&assignmentId=4b3d5ede-d7f0-4591-952b-b659cdfdc84a&projectId=a0a8f18c-a66e-4ba7-a170-23efbdc67501","766753950A0E4C74AFBD977A1824EA32-2024-11-24-19-02-07","","2100","","images/semantic_sequence/physical_activity_semantic/physical_activity_semantic_1.png","0","",""
"","","","","","image-button-response","27","262990","0.0-10.0-1.0-2.0","766753950A0E4C74AFBD977A1824EA32","766753950A0E4C74AFBD977A1824EA32","4b3d5ede-d7f0-4591-952b-b659cdfdc84a","a0a8f18c-a66e-4ba7-a170-23efbdc67501","{""participantId"":""766753950A0E4C74AFBD977A1824EA32"",""assignmentId"":""4b3d5ede-d7f0-4591-952b-b659cdfdc84a"",""projectId"":""a0a8f18c-a66e-4ba7-a170-23efbdc67501""}","https://test12345.live/?participantId=766753950A0E4C74AFBD977A1824EA32&assignmentId=4b3d5ede-d7f0-4591-952b-b659cdfdc84a&projectId=a0a8f18c-a66e-4ba7-a170-23efbdc67501","766753950A0E4C74AFBD977A1824EA32-2024-11-24-19-02-07","","null","","[]","null","",""
"","","","","","image-button-response","28","267495","0.0-10.0-1.0-0.1","766753950A0E4C74AFBD977A1824EA32","766753950A0E4C74AFBD977A1824EA32","4b3d5ede-d7f0-4591-952b-b659cdfdc84a","a0a8f18c-a66e-4ba7-a170-23efbdc67501","{""participantId"":""766753950A0E4C74AFBD977A1824EA32"",""assignmentId"":""4b3d5ede-d7f0-4591-952b-b659cdfdc84a"",""projectId"":""a0a8f18c-a66e-4ba7-a170-23efbdc67501""}","https://test12345.live/?participantId=766753950A0E4C74AFBD977A1824EA32&assignmentId=4b3d5ede-d7f0-4591-952b-b659cdfdc84a&projectId=a0a8f18c-a66e-4ba7-a170-23efbdc67501","766753950A0E4C74AFBD977A1824EA32-2024-11-24-19-02-07","","null","","images/semantic_sequence/physical_activity_semantic/physical_activity_semantic_2.png","null","",""
"","","","","","image-button-response","29","268618","0.0-10.0-1.0-1.1","766753950A0E4C74AFBD977A1824EA32","766753950A0E4C74AFBD977A1824EA32","4b3d5ede-d7f0-4591-952b-b659cdfdc84a","a0a8f18c-a66e-4ba7-a170-23efbdc67501","{""participantId"":""766753950A0E4C74AFBD977A1824EA32"",""assignmentId"":""4b3d5ede-d7f0-4591-952b-b659cdfdc84a"",""projectId"":""a0a8f18c-a66e-4ba7-a170-23efbdc67501""}","https://test12345.live/?participantId=766753950A0E4C74AFBD977A1824EA32&assignmentId=4b3d5ede-d7f0-4591-952b-b659cdfdc84a&projectId=a0a8f18c-a66e-4ba7-a170-23efbdc67501","766753950A0E4C74AFBD977A1824EA32-2024-11-24-19-02-07","","1123","","images/semantic_sequence/physical_activity_semantic/physical_activity_semantic_2.png","0","",""
"","","","","","image-button-response","30","270424","0.0-10.0-1.0-2.1","766753950A0E4C74AFBD977A1824EA32","766753950A0E4C74AFBD977A1824EA32","4b3d5ede-d7f0-4591-952b-b659cdfdc84a","a0a8f18c-a66e-4ba7-a170-23efbdc67501","{""participantId"":""766753950A0E4C74AFBD977A1824EA32"",""assignmentId"":""4b3d5ede-d7f0-4591-952b-b659cdfdc84a"",""projectId"":""a0a8f18c-a66e-4ba7-a170-23efbdc67501""}","https://test12345.live/?participantId=766753950A0E4C74AFBD977A1824EA32&assignmentId=4b3d5ede-d7f0-4591-952b-b659cdfdc84a&projectId=a0a8f18c-a66e-4ba7-a170-23efbdc67501","766753950A0E4C74AFBD977A1824EA32-2024-11-24-19-02-07","","null","","[]","null","",""
"","","","","","image-button-response","31","274925","0.0-10.0-1.0-0.2","766753950A0E4C74AFBD977A1824EA32","766753950A0E4C74AFBD977A1824EA32","4b3d5ede-d7f0-4591-952b-b659cdfdc84a","a0a8f18c-a66e-4ba7-a170-23efbdc67501","{""participantId"":""766753950A0E4C74AFBD977A1824EA32"",""assignmentId"":""4b3d5ede-d7f0-4591-952b-b659cdfdc84a"",""projectId"":""a0a8f18c-a66e-4ba7-a170-23efbdc67501""}","https://test12345.live/?participantId=766753950A0E4C74AFBD977A1824EA32&assignmentId=4b3d5ede-d7f0-4591-952b-b659cdfdc84a&projectId=a0a8f18c-a66e-4ba7-a170-23efbdc67501","766753950A0E4C74AFBD977A1824EA32-2024-11-24-19-02-07","","null","","images/semantic_sequence/physical_activity_semantic/physical_activity_semantic_3.png","null","",""
"","","","","","image-button-response","32","275553","0.0-10.0-1.0-1.2","766753950A0E4C74AFBD977A1824EA32","766753950A0E4C74AFBD977A1824EA32","4b3d5ede-d7f0-4591-952b-b659cdfdc84a","a0a8f18c-a66e-4ba7-a170-23efbdc67501","{""participantId"":""766753950A0E4C74AFBD977A1824EA32"",""assignmentId"":""4b3d5ede-d7f0-4591-952b-b659cdfdc84a"",""projectId"":""a0a8f18c-a66e-4ba7-a170-23efbdc67501""}","https://test12345.live/?participantId=766753950A0E4C74AFBD977A1824EA32&assignmentId=4b3d5ede-d7f0-4591-952b-b659cdfdc84a&projectId=a0a8f18c-a66e-4ba7-a170-23efbdc67501","766753950A0E4C74AFBD977A1824EA32-2024-11-24-19-02-07","","628","","images/semantic_sequence/physical_activity_semantic/physical_activity_semantic_3.png","0","",""
"","","","","","image-button-response","33","277359","0.0-10.0-1.0-2.2","766753950A0E4C74AFBD977A1824EA32","766753950A0E4C74AFBD977A1824EA32","4b3d5ede-d7f0-4591-952b-b659cdfdc84a","a0a8f18c-a66e-4ba7-a170-23efbdc67501","{""participantId"":""766753950A0E4C74AFBD977A1824EA32"",""assignmentId"":""4b3d5ede-d7f0-4591-952b-b659cdfdc84a"",""projectId"":""a0a8f18c-a66e-4ba7-a170-23efbdc67501""}","https://test12345.live/?participantId=766753950A0E4C74AFBD977A1824EA32&assignmentId=4b3d5ede-d7f0-4591-952b-b659cdfdc84a&projectId=a0a8f18c-a66e-4ba7-a170-23efbdc67501","766753950A0E4C74AFBD977A1824EA32-2024-11-24-19-02-07","","null","","[]","null","",""
"","","","","","image-button-response","34","281872","0.0-10.0-1.0-0.3","766753950A0E4C74AFBD977A1824EA32","766753950A0E4C74AFBD977A1824EA32","4b3d5ede-d7f0-4591-952b-b659cdfdc84a","a0a8f18c-a66e-4ba7-a170-23efbdc67501","{""participantId"":""766753950A0E4C74AFBD977A1824EA32"",""assignmentId"":""4b3d5ede-d7f0-4591-952b-b659cdfdc84a"",""projectId"":""a0a8f18c-a66e-4ba7-a170-23efbdc67501""}","https://test12345.live/?participantId=766753950A0E4C74AFBD977A1824EA32&assignmentId=4b3d5ede-d7f0-4591-952b-b659cdfdc84a&projectId=a0a8f18c-a66e-4ba7-a170-23efbdc67501","766753950A0E4C74AFBD977A1824EA32-2024-11-24-19-02-07","","null","","images/semantic_sequence/physical_activity_semantic/physical_activity_semantic_4.png","null","",""
"","","","","","image-button-response","35","283063","0.0-10.0-1.0-1.3","766753950A0E4C74AFBD977A1824EA32","766753950A0E4C74AFBD977A1824EA32","4b3d5ede-d7f0-4591-952b-b659cdfdc84a","a0a8f18c-a66e-4ba7-a170-23efbdc67501","{""participantId"":""766753950A0E4C74AFBD977A1824EA32"",""assignmentId"":""4b3d5ede-d7f0-4591-952b-b659cdfdc84a"",""projectId"":""a0a8f18c-a66e-4ba7-a170-23efbdc67501""}","https://test12345.live/?participantId=766753950A0E4C74AFBD977A1824EA32&assignmentId=4b3d5ede-d7f0-4591-952b-b659cdfdc84a&projectId=a0a8f18c-a66e-4ba7-a170-23efbdc67501","766753950A0E4C74AFBD977A1824EA32-2024-11-24-19-02-07","","1191","","images/semantic_sequence/physical_activity_semantic/physical_activity_semantic_4.png","0","",""
"","","","","","image-button-response","36","284879","0.0-10.0-1.0-2.3","766753950A0E4C74AFBD977A1824EA32","766753950A0E4C74AFBD977A1824EA32","4b3d5ede-d7f0-4591-952b-b659cdfdc84a","a0a8f18c-a66e-4ba7-a170-23efbdc67501","{""participantId"":""766753950A0E4C74AFBD977A1824EA32"",""assignmentId"":""4b3d5ede-d7f0-4591-952b-b659cdfdc84a"",""projectId"":""a0a8f18c-a66e-4ba7-a170-23efbdc67501""}","https://test12345.live/?participantId=766753950A0E4C74AFBD977A1824EA32&assignmentId=4b3d5ede-d7f0-4591-952b-b659cdfdc84a&projectId=a0a8f18c-a66e-4ba7-a170-23efbdc67501","766753950A0E4C74AFBD977A1824EA32-2024-11-24-19-02-07","","null","","[]","null","",""
"","","","","","image-button-response","37","289387","0.0-10.0-1.0-0.4","766753950A0E4C74AFBD977A1824EA32","766753950A0E4C74AFBD977A1824EA32","4b3d5ede-d7f0-4591-952b-b659cdfdc84a","a0a8f18c-a66e-4ba7-a170-23efbdc67501","{""participantId"":""766753950A0E4C74AFBD977A1824EA32"",""assignmentId"":""4b3d5ede-d7f0-4591-952b-b659cdfdc84a"",""projectId"":""a0a8f18c-a66e-4ba7-a170-23efbdc67501""}","https://test12345.live/?participantId=766753950A0E4C74AFBD977A1824EA32&assignmentId=4b3d5ede-d7f0-4591-952b-b659cdfdc84a&projectId=a0a8f18c-a66e-4ba7-a170-23efbdc67501","766753950A0E4C74AFBD977A1824EA32-2024-11-24-19-02-07","","null","","images/semantic_sequence/physical_activity_semantic/physical_activity_semantic_5.png","null","",""
"","","","","","image-button-response","38","290996","0.0-10.0-1.0-1.4","766753950A0E4C74AFBD977A1824EA32","766753950A0E4C74AFBD977A1824EA32","4b3d5ede-d7f0-4591-952b-b659cdfdc84a","a0a8f18c-a66e-4ba7-a170-23efbdc67501","{""participantId"":""766753950A0E4C74AFBD977A1824EA32"",""assignmentId"":""4b3d5ede-d7f0-4591-952b-b659cdfdc84a"",""projectId"":""a0a8f18c-a66e-4ba7-a170-23efbdc67501""}","https://test12345.live/?participantId=766753950A0E4C74AFBD977A1824EA32&assignmentId=4b3d5ede-d7f0-4591-952b-b659cdfdc84a&projectId=a0a8f18c-a66e-4ba7-a170-23efbdc67501","766753950A0E4C74AFBD977A1824EA32-2024-11-24-19-02-07","","1608","","images/semantic_sequence/physical_activity_semantic/physical_activity_semantic_5.png","0","",""
"","","","","","image-button-response","39","292804","0.0-10.0-1.0-2.4","766753950A0E4C74AFBD977A1824EA32","766753950A0E4C74AFBD977A1824EA32","4b3d5ede-d7f0-4591-952b-b659cdfdc84a","a0a8f18c-a66e-4ba7-a170-23efbdc67501","{""participantId"":""766753950A0E4C74AFBD977A1824EA32"",""assignmentId"":""4b3d5ede-d7f0-4591-952b-b659cdfdc84a"",""projectId"":""a0a8f18c-a66e-4ba7-a170-23efbdc67501""}","https://test12345.live/?participantId=766753950A0E4C74AFBD977A1824EA32&assignmentId=4b3d5ede-d7f0-4591-952b-b659cdfdc84a&projectId=a0a8f18c-a66e-4ba7-a170-23efbdc67501","766753950A0E4C74AFBD977A1824EA32-2024-11-24-19-02-07","","null","","[]","null","",""
"","","","","","image-button-response","40","297306","0.0-10.0-1.0-0.5","766753950A0E4C74AFBD977A1824EA32","766753950A0E4C74AFBD977A1824EA32","4b3d5ede-d7f0-4591-952b-b659cdfdc84a","a0a8f18c-a66e-4ba7-a170-23efbdc67501","{""participantId"":""766753950A0E4C74AFBD977A1824EA32"",""assignmentId"":""4b3d5ede-d7f0-4591-952b-b659cdfdc84a"",""projectId"":""a0a8f18c-a66e-4ba7-a170-23efbdc67501""}","https://test12345.live/?participantId=766753950A0E4C74AFBD977A1824EA32&assignmentId=4b3d5ede-d7f0-4591-952b-b659cdfdc84a&projectId=a0a8f18c-a66e-4ba7-a170-23efbdc67501","766753950A0E4C74AFBD977A1824EA32-2024-11-24-19-02-07","","null","","images/semantic_sequence/physical_activity_semantic/physical_activity_semantic_6.png","null","",""
"","","","","","image-button-response","41","298107","0.0-10.0-1.0-1.5","766753950A0E4C74AFBD977A1824EA32","766753950A0E4C74AFBD977A1824EA32","4b3d5ede-d7f0-4591-952b-b659cdfdc84a","a0a8f18c-a66e-4ba7-a170-23efbdc67501","{""participantId"":""766753950A0E4C74AFBD977A1824EA32"",""assignmentId"":""4b3d5ede-d7f0-4591-952b-b659cdfdc84a"",""projectId"":""a0a8f18c-a66e-4ba7-a170-23efbdc67501""}","https://test12345.live/?participantId=766753950A0E4C74AFBD977A1824EA32&assignmentId=4b3d5ede-d7f0-4591-952b-b659cdfdc84a&projectId=a0a8f18c-a66e-4ba7-a170-23efbdc67501","766753950A0E4C74AFBD977A1824EA32-2024-11-24-19-02-07","","801","","images/semantic_sequence/physical_activity_semantic/physical_activity_semantic_6.png","0","",""
"","","","","","image-button-response","42","299921","0.0-10.0-1.0-2.5","766753950A0E4C74AFBD977A1824EA32","766753950A0E4C74AFBD977A1824EA32","4b3d5ede-d7f0-4591-952b-b659cdfdc84a","a0a8f18c-a66e-4ba7-a170-23efbdc67501","{""participantId"":""766753950A0E4C74AFBD977A1824EA32"",""assignmentId"":""4b3d5ede-d7f0-4591-952b-b659cdfdc84a"",""projectId"":""a0a8f18c-a66e-4ba7-a170-23efbdc67501""}","https://test12345.live/?participantId=766753950A0E4C74AFBD977A1824EA32&assignmentId=4b3d5ede-d7f0-4591-952b-b659cdfdc84a&projectId=a0a8f18c-a66e-4ba7-a170-23efbdc67501","766753950A0E4C74AFBD977A1824EA32-2024-11-24-19-02-07","","null","","[]","null","",""
"","","","","","image-button-response","43","304422","0.0-10.0-1.0-0.6","766753950A0E4C74AFBD977A1824EA32","766753950A0E4C74AFBD977A1824EA32","4b3d5ede-d7f0-4591-952b-b659cdfdc84a","a0a8f18c-a66e-4ba7-a170-23efbdc67501","{""participantId"":""766753950A0E4C74AFBD977A1824EA32"",""assignmentId"":""4b3d5ede-d7f0-4591-952b-b659cdfdc84a"",""projectId"":""a0a8f18c-a66e-4ba7-a170-23efbdc67501""}","https://test12345.live/?participantId=766753950A0E4C74AFBD977A1824EA32&assignmentId=4b3d5ede-d7f0-4591-952b-b659cdfdc84a&projectId=a0a8f18c-a66e-4ba7-a170-23efbdc67501","766753950A0E4C74AFBD977A1824EA32-2024-11-24-19-02-07","","null","","images/semantic_sequence/physical_activity_semantic/physical_activity_semantic_7.png","null","",""
"","","","","","image-button-response","44","305521","0.0-10.0-1.0-1.6","766753950A0E4C74AFBD977A1824EA32","766753950A0E4C74AFBD977A1824EA32","4b3d5ede-d7f0-4591-952b-b659cdfdc84a","a0a8f18c-a66e-4ba7-a170-23efbdc67501","{""participantId"":""766753950A0E4C74AFBD977A1824EA32"",""assignmentId"":""4b3d5ede-d7f0-4591-952b-b659cdfdc84a"",""projectId"":""a0a8f18c-a66e-4ba7-a170-23efbdc67501""}","https://test12345.live/?participantId=766753950A0E4C74AFBD977A1824EA32&assignmentId=4b3d5ede-d7f0-4591-952b-b659cdfdc84a&projectId=a0a8f18c-a66e-4ba7-a170-23efbdc67501","766753950A0E4C74AFBD977A1824EA32-2024-11-24-19-02-07","","1098","","images/semantic_sequence/physical_activity_semantic/physical_activity_semantic_7.png","0","",""
"","","","","","image-button-response","45","307332","0.0-10.0-1.0-2.6","766753950A0E4C74AFBD977A1824EA32","766753950A0E4C74AFBD977A1824EA32","4b3d5ede-d7f0-4591-952b-b659cdfdc84a","a0a8f18c-a66e-4ba7-a170-23efbdc67501","{""participantId"":""766753950A0E4C74AFBD977A1824EA32"",""assignmentId"":""4b3d5ede-d7f0-4591-952b-b659cdfdc84a"",""projectId"":""a0a8f18c-a66e-4ba7-a170-23efbdc67501""}","https://test12345.live/?participantId=766753950A0E4C74AFBD977A1824EA32&assignmentId=4b3d5ede-d7f0-4591-952b-b659cdfdc84a&projectId=a0a8f18c-a66e-4ba7-a170-23efbdc67501","766753950A0E4C74AFBD977A1824EA32-2024-11-24-19-02-07","","null","","[]","null","",""
"","","","","","image-button-response","46","311833","0.0-10.0-1.0-0.7","766753950A0E4C74AFBD977A1824EA32","766753950A0E4C74AFBD977A1824EA32","4b3d5ede-d7f0-4591-952b-b659cdfdc84a","a0a8f18c-a66e-4ba7-a170-23efbdc67501","{""participantId"":""766753950A0E4C74AFBD977A1824EA32"",""assignmentId"":""4b3d5ede-d7f0-4591-952b-b659cdfdc84a"",""projectId"":""a0a8f18c-a66e-4ba7-a170-23efbdc67501""}","https://test12345.live/?participantId=766753950A0E4C74AFBD977A1824EA32&assignmentId=4b3d5ede-d7f0-4591-952b-b659cdfdc84a&projectId=a0a8f18c-a66e-4ba7-a170-23efbdc67501","766753950A0E4C74AFBD977A1824EA32-2024-11-24-19-02-07","","null","","images/semantic_sequence/physical_activity_semantic/physical_activity_semantic_8.png","null","",""
"","","","","","image-button-response","47","312739","0.0-10.0-1.0-1.7","766753950A0E4C74AFBD977A1824EA32","766753950A0E4C74AFBD977A1824EA32","4b3d5ede-d7f0-4591-952b-b659cdfdc84a","a0a8f18c-a66e-4ba7-a170-23efbdc67501","{""participantId"":""766753950A0E4C74AFBD977A1824EA32"",""assignmentId"":""4b3d5ede-d7f0-4591-952b-b659cdfdc84a"",""projectId"":""a0a8f18c-a66e-4ba7-a170-23efbdc67501""}","https://test12345.live/?participantId=766753950A0E4C74AFBD977A1824EA32&assignmentId=4b3d5ede-d7f0-4591-952b-b659cdfdc84a&projectId=a0a8f18c-a66e-4ba7-a170-23efbdc67501","766753950A0E4C74AFBD977A1824EA32-2024-11-24-19-02-07","","906","","images/semantic_sequence/physical_activity_semantic/physical_activity_semantic_8.png","0","",""
"","","","","","image-button-response","48","314544","0.0-10.0-1.0-2.7","766753950A0E4C74AFBD977A1824EA32","766753950A0E4C74AFBD977A1824EA32","4b3d5ede-d7f0-4591-952b-b659cdfdc84a","a0a8f18c-a66e-4ba7-a170-23efbdc67501","{""participantId"":""766753950A0E4C74AFBD977A1824EA32"",""assignmentId"":""4b3d5ede-d7f0-4591-952b-b659cdfdc84a"",""projectId"":""a0a8f18c-a66e-4ba7-a170-23efbdc67501""}","https://test12345.live/?participantId=766753950A0E4C74AFBD977A1824EA32&assignmentId=4b3d5ede-d7f0-4591-952b-b659cdfdc84a&projectId=a0a8f18c-a66e-4ba7-a170-23efbdc67501","766753950A0E4C74AFBD977A1824EA32-2024-11-24-19-02-07","","null","","[]","null","",""
"","","","","","image-button-response","49","319049","0.0-10.0-1.0-0.8","766753950A0E4C74AFBD977A1824EA32","766753950A0E4C74AFBD977A1824EA32","4b3d5ede-d7f0-4591-952b-b659cdfdc84a","a0a8f18c-a66e-4ba7-a170-23efbdc67501","{""participantId"":""766753950A0E4C74AFBD977A1824EA32"",""assignmentId"":""4b3d5ede-d7f0-4591-952b-b659cdfdc84a"",""projectId"":""a0a8f18c-a66e-4ba7-a170-23efbdc67501""}","https://test12345.live/?participantId=766753950A0E4C74AFBD977A1824EA32&assignmentId=4b3d5ede-d7f0-4591-952b-b659cdfdc84a&projectId=a0a8f18c-a66e-4ba7-a170-23efbdc67501","766753950A0E4C74AFBD977A1824EA32-2024-11-24-19-02-07","","null","","images/semantic_sequence/physical_activity_semantic/physical_activity_semantic_9.png","null","",""
"","","","","","image-button-response","50","320373","0.0-10.0-1.0-1.8","766753950A0E4C74AFBD977A1824EA32","766753950A0E4C74AFBD977A1824EA32","4b3d5ede-d7f0-4591-952b-b659cdfdc84a","a0a8f18c-a66e-4ba7-a170-23efbdc67501","{""participantId"":""766753950A0E4C74AFBD977A1824EA32"",""assignmentId"":""4b3d5ede-d7f0-4591-952b-b659cdfdc84a"",""projectId"":""a0a8f18c-a66e-4ba7-a170-23efbdc67501""}","https://test12345.live/?participantId=766753950A0E4C74AFBD977A1824EA32&assignmentId=4b3d5ede-d7f0-4591-952b-b659cdfdc84a&projectId=a0a8f18c-a66e-4ba7-a170-23efbdc67501","766753950A0E4C74AFBD977A1824EA32-2024-11-24-19-02-07","","1323","","images/semantic_sequence/physical_activity_semantic/physical_activity_semantic_9.png","0","",""
"","","","","","image-button-response","51","322184","0.0-10.0-1.0-2.8","766753950A0E4C74AFBD977A1824EA32","766753950A0E4C74AFBD977A1824EA32","4b3d5ede-d7f0-4591-952b-b659cdfdc84a","a0a8f18c-a66e-4ba7-a170-23efbdc67501","{""participantId"":""766753950A0E4C74AFBD977A1824EA32"",""assignmentId"":""4b3d5ede-d7f0-4591-952b-b659cdfdc84a"",""projectId"":""a0a8f18c-a66e-4ba7-a170-23efbdc67501""}","https://test12345.live/?participantId=766753950A0E4C74AFBD977A1824EA32&assignmentId=4b3d5ede-d7f0-4591-952b-b659cdfdc84a&projectId=a0a8f18c-a66e-4ba7-a170-23efbdc67501","766753950A0E4C74AFBD977A1824EA32-2024-11-24-19-02-07","","null","","[]","null","",""
"","","","","","image-button-response","52","326695","0.0-10.0-1.0-0.9","766753950A0E4C74AFBD977A1824EA32","766753950A0E4C74AFBD977A1824EA32","4b3d5ede-d7f0-4591-952b-b659cdfdc84a","a0a8f18c-a66e-4ba7-a170-23efbdc67501","{""participantId"":""766753950A0E4C74AFBD977A1824EA32"",""assignmentId"":""4b3d5ede-d7f0-4591-952b-b659cdfdc84a"",""projectId"":""a0a8f18c-a66e-4ba7-a170-23efbdc67501""}","https://test12345.live/?participantId=766753950A0E4C74AFBD977A1824EA32&assignmentId=4b3d5ede-d7f0-4591-952b-b659cdfdc84a&projectId=a0a8f18c-a66e-4ba7-a170-23efbdc67501","766753950A0E4C74AFBD977A1824EA32-2024-11-24-19-02-07","","null","","images/semantic_sequence/physical_activity_semantic/physical_activity_semantic_ten.png","null","",""
"","","","","","image-button-response","53","328401","0.0-10.0-1.0-1.9","766753950A0E4C74AFBD977A1824EA32","766753950A0E4C74AFBD977A1824EA32","4b3d5ede-d7f0-4591-952b-b659cdfdc84a","a0a8f18c-a66e-4ba7-a170-23efbdc67501","{""participantId"":""766753950A0E4C74AFBD977A1824EA32"",""assignmentId"":""4b3d5ede-d7f0-4591-952b-b659cdfdc84a"",""projectId"":""a0a8f18c-a66e-4ba7-a170-23efbdc67501""}","https://test12345.live/?participantId=766753950A0E4C74AFBD977A1824EA32&assignmentId=4b3d5ede-d7f0-4591-952b-b659cdfdc84a&projectId=a0a8f18c-a66e-4ba7-a170-23efbdc67501","766753950A0E4C74AFBD977A1824EA32-2024-11-24-19-02-07","","1705","","images/semantic_sequence/physical_activity_semantic/physical_activity_semantic_ten.png","0","",""
"","","","","","image-button-response","54","330209","0.0-10.0-1.0-2.9","766753950A0E4C74AFBD977A1824EA32","766753950A0E4C74AFBD977A1824EA32","4b3d5ede-d7f0-4591-952b-b659cdfdc84a","a0a8f18c-a66e-4ba7-a170-23efbdc67501","{""participantId"":""766753950A0E4C74AFBD977A1824EA32"",""assignmentId"":""4b3d5ede-d7f0-4591-952b-b659cdfdc84a"",""projectId"":""a0a8f18c-a66e-4ba7-a170-23efbdc67501""}","https://test12345.live/?participantId=766753950A0E4C74AFBD977A1824EA32&assignmentId=4b3d5ede-d7f0-4591-952b-b659cdfdc84a&projectId=a0a8f18c-a66e-4ba7-a170-23efbdc67501","766753950A0E4C74AFBD977A1824EA32-2024-11-24-19-02-07","","null","","[]","null","",""
"","","","","","html-audio-response","55","422739","0.0-11.0","766753950A0E4C74AFBD977A1824EA32","766753950A0E4C74AFBD977A1824EA32","4b3d5ede-d7f0-4591-952b-b659cdfdc84a","a0a8f18c-a66e-4ba7-a170-23efbdc67501","{""participantId"":""766753950A0E4C74AFBD977A1824EA32"",""assignmentId"":""4b3d5ede-d7f0-4591-952b-b659cdfdc84a"",""projectId"":""a0a8f18c-a66e-4ba7-a170-23efbdc67501""}","https://test12345.live/?participantId=766753950A0E4C74AFBD977A1824EA32&assignmentId=4b3d5ede-d7f0-4591-952b-b659cdfdc84a&projectId=a0a8f18c-a66e-4ba7-a170-23efbdc67501","766753950A0E4C74AFBD977A1824EA32-2024-11-24-19-02-07","","17862","","[""<span style=\""color: red; font-size: 24px\""> NOW RECORDING</span><p>Please say out loud all the images you saw, as many as you can remember. The images can be said in any order.</p>""]","","4","physical_activity_semantic"
"","","","","","image-button-response","56","428752","0.0-12.0-0.0","766753950A0E4C74AFBD977A1824EA32","766753950A0E4C74AFBD977A1824EA32","4b3d5ede-d7f0-4591-952b-b659cdfdc84a","a0a8f18c-a66e-4ba7-a170-23efbdc67501","{""participantId"":""766753950A0E4C74AFBD977A1824EA32"",""assignmentId"":""4b3d5ede-d7f0-4591-952b-b659cdfdc84a"",""projectId"":""a0a8f18c-a66e-4ba7-a170-23efbdc67501""}","https://test12345.live/?participantId=766753950A0E4C74AFBD977A1824EA32&assignmentId=4b3d5ede-d7f0-4591-952b-b659cdfdc84a&projectId=a0a8f18c-a66e-4ba7-a170-23efbdc67501","766753950A0E4C74AFBD977A1824EA32-2024-11-24-19-02-07","","null","","images/causal_sequence/dog_causal/dog_causal_0.png","null","",""
"","","","","","image-button-response","57","433259","0.0-12.0-1.0-0.0","766753950A0E4C74AFBD977A1824EA32","766753950A0E4C74AFBD977A1824EA32","4b3d5ede-d7f0-4591-952b-b659cdfdc84a","a0a8f18c-a66e-4ba7-a170-23efbdc67501","{""participantId"":""766753950A0E4C74AFBD977A1824EA32"",""assignmentId"":""4b3d5ede-d7f0-4591-952b-b659cdfdc84a"",""projectId"":""a0a8f18c-a66e-4ba7-a170-23efbdc67501""}","https://test12345.live/?participantId=766753950A0E4C74AFBD977A1824EA32&assignmentId=4b3d5ede-d7f0-4591-952b-b659cdfdc84a&projectId=a0a8f18c-a66e-4ba7-a170-23efbdc67501","766753950A0E4C74AFBD977A1824EA32-2024-11-24-19-02-07","","null","","images/causal_sequence/dog_causal/dog_causal_1.png","null","",""
"","","","","","image-button-response","58","436519","0.0-12.0-1.0-1.0","766753950A0E4C74AFBD977A1824EA32","766753950A0E4C74AFBD977A1824EA32","4b3d5ede-d7f0-4591-952b-b659cdfdc84a","a0a8f18c-a66e-4ba7-a170-23efbdc67501","{""participantId"":""766753950A0E4C74AFBD977A1824EA32"",""assignmentId"":""4b3d5ede-d7f0-4591-952b-b659cdfdc84a"",""projectId"":""a0a8f18c-a66e-4ba7-a170-23efbdc67501""}","https://test12345.live/?participantId=766753950A0E4C74AFBD977A1824EA32&assignmentId=4b3d5ede-d7f0-4591-952b-b659cdfdc84a&projectId=a0a8f18c-a66e-4ba7-a170-23efbdc67501","766753950A0E4C74AFBD977A1824EA32-2024-11-24-19-02-07","","3259","","images/causal_sequence/dog_causal/dog_causal_1.png","0","",""
"","","","","","image-button-response","59","438333","0.0-12.0-1.0-2.0","766753950A0E4C74AFBD977A1824EA32","766753950A0E4C74AFBD977A1824EA32","4b3d5ede-d7f0-4591-952b-b659cdfdc84a","a0a8f18c-a66e-4ba7-a170-23efbdc67501","{""participantId"":""766753950A0E4C74AFBD977A1824EA32"",""assignmentId"":""4b3d5ede-d7f0-4591-952b-b659cdfdc84a"",""projectId"":""a0a8f18c-a66e-4ba7-a170-23efbdc67501""}","https://test12345.live/?participantId=766753950A0E4C74AFBD977A1824EA32&assignmentId=4b3d5ede-d7f0-4591-952b-b659cdfdc84a&projectId=a0a8f18c-a66e-4ba7-a170-23efbdc67501","766753950A0E4C74AFBD977A1824EA32-2024-11-24-19-02-07","","null","","[]","null","",""
"","","","","","image-button-response","60","442844","0.0-12.0-1.0-0.1","766753950A0E4C74AFBD977A1824EA32","766753950A0E4C74AFBD977A1824EA32","4b3d5ede-d7f0-4591-952b-b659cdfdc84a","a0a8f18c-a66e-4ba7-a170-23efbdc67501","{""participantId"":""766753950A0E4C74AFBD977A1824EA32"",""assignmentId"":""4b3d5ede-d7f0-4591-952b-b659cdfdc84a"",""projectId"":""a0a8f18c-a66e-4ba7-a170-23efbdc67501""}","https://test12345.live/?participantId=766753950A0E4C74AFBD977A1824EA32&assignmentId=4b3d5ede-d7f0-4591-952b-b659cdfdc84a&projectId=a0a8f18c-a66e-4ba7-a170-23efbdc67501","766753950A0E4C74AFBD977A1824EA32-2024-11-24-19-02-07","","null","","images/causal_sequence/dog_causal/dog_causal_2.png","null","",""
"","","","","","image-button-response","61","444508","0.0-12.0-1.0-1.1","766753950A0E4C74AFBD977A1824EA32","766753950A0E4C74AFBD977A1824EA32","4b3d5ede-d7f0-4591-952b-b659cdfdc84a","a0a8f18c-a66e-4ba7-a170-23efbdc67501","{""participantId"":""766753950A0E4C74AFBD977A1824EA32"",""assignmentId"":""4b3d5ede-d7f0-4591-952b-b659cdfdc84a"",""projectId"":""a0a8f18c-a66e-4ba7-a170-23efbdc67501""}","https://test12345.live/?participantId=766753950A0E4C74AFBD977A1824EA32&assignmentId=4b3d5ede-d7f0-4591-952b-b659cdfdc84a&projectId=a0a8f18c-a66e-4ba7-a170-23efbdc67501","766753950A0E4C74AFBD977A1824EA32-2024-11-24-19-02-07","","1664","","images/causal_sequence/dog_causal/dog_causal_2.png","0","",""
"","","","","","image-button-response","62","446323","0.0-12.0-1.0-2.1","766753950A0E4C74AFBD977A1824EA32","766753950A0E4C74AFBD977A1824EA32","4b3d5ede-d7f0-4591-952b-b659cdfdc84a","a0a8f18c-a66e-4ba7-a170-23efbdc67501","{""participantId"":""766753950A0E4C74AFBD977A1824EA32"",""assignmentId"":""4b3d5ede-d7f0-4591-952b-b659cdfdc84a"",""projectId"":""a0a8f18c-a66e-4ba7-a170-23efbdc67501""}","https://test12345.live/?participantId=766753950A0E4C74AFBD977A1824EA32&assignmentId=4b3d5ede-d7f0-4591-952b-b659cdfdc84a&projectId=a0a8f18c-a66e-4ba7-a170-23efbdc67501","766753950A0E4C74AFBD977A1824EA32-2024-11-24-19-02-07","","null","","[]","null","",""
"","","","","","image-button-response","63","450828","0.0-12.0-1.0-0.2","766753950A0E4C74AFBD977A1824EA32","766753950A0E4C74AFBD977A1824EA32","4b3d5ede-d7f0-4591-952b-b659cdfdc84a","a0a8f18c-a66e-4ba7-a170-23efbdc67501","{""participantId"":""766753950A0E4C74AFBD977A1824EA32"",""assignmentId"":""4b3d5ede-d7f0-4591-952b-b659cdfdc84a"",""projectId"":""a0a8f18c-a66e-4ba7-a170-23efbdc67501""}","https://test12345.live/?participantId=766753950A0E4C74AFBD977A1824EA32&assignmentId=4b3d5ede-d7f0-4591-952b-b659cdfdc84a&projectId=a0a8f18c-a66e-4ba7-a170-23efbdc67501","766753950A0E4C74AFBD977A1824EA32-2024-11-24-19-02-07","","null","","images/causal_sequence/dog_causal/dog_causal_3.png","null","",""
"","","","","","image-button-response","64","452118","0.0-12.0-1.0-1.2","766753950A0E4C74AFBD977A1824EA32","766753950A0E4C74AFBD977A1824EA32","4b3d5ede-d7f0-4591-952b-b659cdfdc84a","a0a8f18c-a66e-4ba7-a170-23efbdc67501","{""participantId"":""766753950A0E4C74AFBD977A1824EA32"",""assignmentId"":""4b3d5ede-d7f0-4591-952b-b659cdfdc84a"",""projectId"":""a0a8f18c-a66e-4ba7-a170-23efbdc67501""}","https://test12345.live/?participantId=766753950A0E4C74AFBD977A1824EA32&assignmentId=4b3d5ede-d7f0-4591-952b-b659cdfdc84a&projectId=a0a8f18c-a66e-4ba7-a170-23efbdc67501","766753950A0E4C74AFBD977A1824EA32-2024-11-24-19-02-07","","1290","","images/causal_sequence/dog_causal/dog_causal_3.png","0","",""
"","","","","","image-button-response","65","453920","0.0-12.0-1.0-2.2","766753950A0E4C74AFBD977A1824EA32","766753950A0E4C74AFBD977A1824EA32","4b3d5ede-d7f0-4591-952b-b659cdfdc84a","a0a8f18c-a66e-4ba7-a170-23efbdc67501","{""participantId"":""766753950A0E4C74AFBD977A1824EA32"",""assignmentId"":""4b3d5ede-d7f0-4591-952b-b659cdfdc84a"",""projectId"":""a0a8f18c-a66e-4ba7-a170-23efbdc67501""}","https://test12345.live/?participantId=766753950A0E4C74AFBD977A1824EA32&assignmentId=4b3d5ede-d7f0-4591-952b-b659cdfdc84a&projectId=a0a8f18c-a66e-4ba7-a170-23efbdc67501","766753950A0E4C74AFBD977A1824EA32-2024-11-24-19-02-07","","null","","[]","null","",""
"","","","","","image-button-response","66","458422","0.0-12.0-1.0-0.3","766753950A0E4C74AFBD977A1824EA32","766753950A0E4C74AFBD977A1824EA32","4b3d5ede-d7f0-4591-952b-b659cdfdc84a","a0a8f18c-a66e-4ba7-a170-23efbdc67501","{""participantId"":""766753950A0E4C74AFBD977A1824EA32"",""assignmentId"":""4b3d5ede-d7f0-4591-952b-b659cdfdc84a"",""projectId"":""a0a8f18c-a66e-4ba7-a170-23efbdc67501""}","https://test12345.live/?participantId=766753950A0E4C74AFBD977A1824EA32&assignmentId=4b3d5ede-d7f0-4591-952b-b659cdfdc84a&projectId=a0a8f18c-a66e-4ba7-a170-23efbdc67501","766753950A0E4C74AFBD977A1824EA32-2024-11-24-19-02-07","","null","","images/causal_sequence/dog_causal/dog_causal_4.png","null","",""
"","","","","","image-button-response","67","460301","0.0-12.0-1.0-1.3","766753950A0E4C74AFBD977A1824EA32","766753950A0E4C74AFBD977A1824EA32","4b3d5ede-d7f0-4591-952b-b659cdfdc84a","a0a8f18c-a66e-4ba7-a170-23efbdc67501","{""participantId"":""766753950A0E4C74AFBD977A1824EA32"",""assignmentId"":""4b3d5ede-d7f0-4591-952b-b659cdfdc84a"",""projectId"":""a0a8f18c-a66e-4ba7-a170-23efbdc67501""}","https://test12345.live/?participantId=766753950A0E4C74AFBD977A1824EA32&assignmentId=4b3d5ede-d7f0-4591-952b-b659cdfdc84a&projectId=a0a8f18c-a66e-4ba7-a170-23efbdc67501","766753950A0E4C74AFBD977A1824EA32-2024-11-24-19-02-07","","1879","","images/causal_sequence/dog_causal/dog_causal_4.png","0","",""
"","","","","","image-button-response","68","462112","0.0-12.0-1.0-2.3","766753950A0E4C74AFBD977A1824EA32","766753950A0E4C74AFBD977A1824EA32","4b3d5ede-d7f0-4591-952b-b659cdfdc84a","a0a8f18c-a66e-4ba7-a170-23efbdc67501","{""participantId"":""766753950A0E4C74AFBD977A1824EA32"",""assignmentId"":""4b3d5ede-d7f0-4591-952b-b659cdfdc84a"",""projectId"":""a0a8f18c-a66e-4ba7-a170-23efbdc67501""}","https://test12345.live/?participantId=766753950A0E4C74AFBD977A1824EA32&assignmentId=4b3d5ede-d7f0-4591-952b-b659cdfdc84a&projectId=a0a8f18c-a66e-4ba7-a170-23efbdc67501","766753950A0E4C74AFBD977A1824EA32-2024-11-24-19-02-07","","null","","[]","null","",""
"","","","","","image-button-response","69","466626","0.0-12.0-1.0-0.4","766753950A0E4C74AFBD977A1824EA32","766753950A0E4C74AFBD977A1824EA32","4b3d5ede-d7f0-4591-952b-b659cdfdc84a","a0a8f18c-a66e-4ba7-a170-23efbdc67501","{""participantId"":""766753950A0E4C74AFBD977A1824EA32"",""assignmentId"":""4b3d5ede-d7f0-4591-952b-b659cdfdc84a"",""projectId"":""a0a8f18c-a66e-4ba7-a170-23efbdc67501""}","https://test12345.live/?participantId=766753950A0E4C74AFBD977A1824EA32&assignmentId=4b3d5ede-d7f0-4591-952b-b659cdfdc84a&projectId=a0a8f18c-a66e-4ba7-a170-23efbdc67501","766753950A0E4C74AFBD977A1824EA32-2024-11-24-19-02-07","","null","","images/causal_sequence/dog_causal/dog_causal_5.png","null","",""
"","","","","","image-button-response","70","469061","0.0-12.0-1.0-1.4","766753950A0E4C74AFBD977A1824EA32","766753950A0E4C74AFBD977A1824EA32","4b3d5ede-d7f0-4591-952b-b659cdfdc84a","a0a8f18c-a66e-4ba7-a170-23efbdc67501","{""participantId"":""766753950A0E4C74AFBD977A1824EA32"",""assignmentId"":""4b3d5ede-d7f0-4591-952b-b659cdfdc84a"",""projectId"":""a0a8f18c-a66e-4ba7-a170-23efbdc67501""}","https://test12345.live/?participantId=766753950A0E4C74AFBD977A1824EA32&assignmentId=4b3d5ede-d7f0-4591-952b-b659cdfdc84a&projectId=a0a8f18c-a66e-4ba7-a170-23efbdc67501","766753950A0E4C74AFBD977A1824EA32-2024-11-24-19-02-07","","2435","","images/causal_sequence/dog_causal/dog_causal_5.png","0","",""
"","","","","","image-button-response","71","470876","0.0-12.0-1.0-2.4","766753950A0E4C74AFBD977A1824EA32","766753950A0E4C74AFBD977A1824EA32","4b3d5ede-d7f0-4591-952b-b659cdfdc84a","a0a8f18c-a66e-4ba7-a170-23efbdc67501","{""participantId"":""766753950A0E4C74AFBD977A1824EA32"",""assignmentId"":""4b3d5ede-d7f0-4591-952b-b659cdfdc84a"",""projectId"":""a0a8f18c-a66e-4ba7-a170-23efbdc67501""}","https://test12345.live/?participantId=766753950A0E4C74AFBD977A1824EA32&assignmentId=4b3d5ede-d7f0-4591-952b-b659cdfdc84a&projectId=a0a8f18c-a66e-4ba7-a170-23efbdc67501","766753950A0E4C74AFBD977A1824EA32-2024-11-24-19-02-07","","null","","[]","null","",""
"","","","","","image-button-response","72","475379","0.0-12.0-1.0-0.5","766753950A0E4C74AFBD977A1824EA32","766753950A0E4C74AFBD977A1824EA32","4b3d5ede-d7f0-4591-952b-b659cdfdc84a","a0a8f18c-a66e-4ba7-a170-23efbdc67501","{""participantId"":""766753950A0E4C74AFBD977A1824EA32"",""assignmentId"":""4b3d5ede-d7f0-4591-952b-b659cdfdc84a"",""projectId"":""a0a8f18c-a66e-4ba7-a170-23efbdc67501""}","https://test12345.live/?participantId=766753950A0E4C74AFBD977A1824EA32&assignmentId=4b3d5ede-d7f0-4591-952b-b659cdfdc84a&projectId=a0a8f18c-a66e-4ba7-a170-23efbdc67501","766753950A0E4C74AFBD977A1824EA32-2024-11-24-19-02-07","","null","","images/causal_sequence/dog_causal/dog_causal_6.png","null","",""
"","","","","","image-button-response","73","477678","0.0-12.0-1.0-1.5","766753950A0E4C74AFBD977A1824EA32","766753950A0E4C74AFBD977A1824EA32","4b3d5ede-d7f0-4591-952b-b659cdfdc84a","a0a8f18c-a66e-4ba7-a170-23efbdc67501","{""participantId"":""766753950A0E4C74AFBD977A1824EA32"",""assignmentId"":""4b3d5ede-d7f0-4591-952b-b659cdfdc84a"",""projectId"":""a0a8f18c-a66e-4ba7-a170-23efbdc67501""}","https://test12345.live/?participantId=766753950A0E4C74AFBD977A1824EA32&assignmentId=4b3d5ede-d7f0-4591-952b-b659cdfdc84a&projectId=a0a8f18c-a66e-4ba7-a170-23efbdc67501","766753950A0E4C74AFBD977A1824EA32-2024-11-24-19-02-07","","2299","","images/causal_sequence/dog_causal/dog_causal_6.png","0","",""
"","","","","","image-button-response","74","479479","0.0-12.0-1.0-2.5","766753950A0E4C74AFBD977A1824EA32","766753950A0E4C74AFBD977A1824EA32","4b3d5ede-d7f0-4591-952b-b659cdfdc84a","a0a8f18c-a66e-4ba7-a170-23efbdc67501","{""participantId"":""766753950A0E4C74AFBD977A1824EA32"",""assignmentId"":""4b3d5ede-d7f0-4591-952b-b659cdfdc84a"",""projectId"":""a0a8f18c-a66e-4ba7-a170-23efbdc67501""}","https://test12345.live/?participantId=766753950A0E4C74AFBD977A1824EA32&assignmentId=4b3d5ede-d7f0-4591-952b-b659cdfdc84a&projectId=a0a8f18c-a66e-4ba7-a170-23efbdc67501","766753950A0E4C74AFBD977A1824EA32-2024-11-24-19-02-07","","null","","[]","null","",""
"","","","","","image-button-response","75","483981","0.0-12.0-1.0-0.6","766753950A0E4C74AFBD977A1824EA32","766753950A0E4C74AFBD977A1824EA32","4b3d5ede-d7f0-4591-952b-b659cdfdc84a","a0a8f18c-a66e-4ba7-a170-23efbdc67501","{""participantId"":""766753950A0E4C74AFBD977A1824EA32"",""assignmentId"":""4b3d5ede-d7f0-4591-952b-b659cdfdc84a"",""projectId"":""a0a8f18c-a66e-4ba7-a170-23efbdc67501""}","https://test12345.live/?participantId=766753950A0E4C74AFBD977A1824EA32&assignmentId=4b3d5ede-d7f0-4591-952b-b659cdfdc84a&projectId=a0a8f18c-a66e-4ba7-a170-23efbdc67501","766753950A0E4C74AFBD977A1824EA32-2024-11-24-19-02-07","","null","","images/causal_sequence/dog_causal/dog_causal_7.png","null","",""
"","","","","","image-button-response","76","485084","0.0-12.0-1.0-1.6","766753950A0E4C74AFBD977A1824EA32","766753950A0E4C74AFBD977A1824EA32","4b3d5ede-d7f0-4591-952b-b659cdfdc84a","a0a8f18c-a66e-4ba7-a170-23efbdc67501","{""participantId"":""766753950A0E4C74AFBD977A1824EA32"",""assignmentId"":""4b3d5ede-d7f0-4591-952b-b659cdfdc84a"",""projectId"":""a0a8f18c-a66e-4ba7-a170-23efbdc67501""}","https://test12345.live/?participantId=766753950A0E4C74AFBD977A1824EA32&assignmentId=4b3d5ede-d7f0-4591-952b-b659cdfdc84a&projectId=a0a8f18c-a66e-4ba7-a170-23efbdc67501","766753950A0E4C74AFBD977A1824EA32-2024-11-24-19-02-07","","1102","","images/causal_sequence/dog_causal/dog_causal_7.png","0","",""
"","","","","","image-button-response","77","486890","0.0-12.0-1.0-2.6","766753950A0E4C74AFBD977A1824EA32","766753950A0E4C74AFBD977A1824EA32","4b3d5ede-d7f0-4591-952b-b659cdfdc84a","a0a8f18c-a66e-4ba7-a170-23efbdc67501","{""participantId"":""766753950A0E4C74AFBD977A1824EA32"",""assignmentId"":""4b3d5ede-d7f0-4591-952b-b659cdfdc84a"",""projectId"":""a0a8f18c-a66e-4ba7-a170-23efbdc67501""}","https://test12345.live/?participantId=766753950A0E4C74AFBD977A1824EA32&assignmentId=4b3d5ede-d7f0-4591-952b-b659cdfdc84a&projectId=a0a8f18c-a66e-4ba7-a170-23efbdc67501","766753950A0E4C74AFBD977A1824EA32-2024-11-24-19-02-07","","null","","[]","null","",""
"","","","","","image-button-response","78","491392","0.0-12.0-1.0-0.7","766753950A0E4C74AFBD977A1824EA32","766753950A0E4C74AFBD977A1824EA32","4b3d5ede-d7f0-4591-952b-b659cdfdc84a","a0a8f18c-a66e-4ba7-a170-23efbdc67501","{""participantId"":""766753950A0E4C74AFBD977A1824EA32"",""assignmentId"":""4b3d5ede-d7f0-4591-952b-b659cdfdc84a"",""projectId"":""a0a8f18c-a66e-4ba7-a170-23efbdc67501""}","https://test12345.live/?participantId=766753950A0E4C74AFBD977A1824EA32&assignmentId=4b3d5ede-d7f0-4591-952b-b659cdfdc84a&projectId=a0a8f18c-a66e-4ba7-a170-23efbdc67501","766753950A0E4C74AFBD977A1824EA32-2024-11-24-19-02-07","","null","","images/causal_sequence/dog_causal/dog_causal_8.png","null","",""
"","","","","","image-button-response","79","493105","0.0-12.0-1.0-1.7","766753950A0E4C74AFBD977A1824EA32","766753950A0E4C74AFBD977A1824EA32","4b3d5ede-d7f0-4591-952b-b659cdfdc84a","a0a8f18c-a66e-4ba7-a170-23efbdc67501","{""participantId"":""766753950A0E4C74AFBD977A1824EA32"",""assignmentId"":""4b3d5ede-d7f0-4591-952b-b659cdfdc84a"",""projectId"":""a0a8f18c-a66e-4ba7-a170-23efbdc67501""}","https://test12345.live/?participantId=766753950A0E4C74AFBD977A1824EA32&assignmentId=4b3d5ede-d7f0-4591-952b-b659cdfdc84a&projectId=a0a8f18c-a66e-4ba7-a170-23efbdc67501","766753950A0E4C74AFBD977A1824EA32-2024-11-24-19-02-07","","1713","","images/causal_sequence/dog_causal/dog_causal_8.png","0","",""
"","","","","","image-button-response","80","494919","0.0-12.0-1.0-2.7","766753950A0E4C74AFBD977A1824EA32","766753950A0E4C74AFBD977A1824EA32","4b3d5ede-d7f0-4591-952b-b659cdfdc84a","a0a8f18c-a66e-4ba7-a170-23efbdc67501","{""participantId"":""766753950A0E4C74AFBD977A1824EA32"",""assignmentId"":""4b3d5ede-d7f0-4591-952b-b659cdfdc84a"",""projectId"":""a0a8f18c-a66e-4ba7-a170-23efbdc67501""}","https://test12345.live/?participantId=766753950A0E4C74AFBD977A1824EA32&assignmentId=4b3d5ede-d7f0-4591-952b-b659cdfdc84a&projectId=a0a8f18c-a66e-4ba7-a170-23efbdc67501","766753950A0E4C74AFBD977A1824EA32-2024-11-24-19-02-07","","null","","[]","null","",""
"","","","","","image-button-response","81","499431","0.0-12.0-1.0-0.8","766753950A0E4C74AFBD977A1824EA32","766753950A0E4C74AFBD977A1824EA32","4b3d5ede-d7f0-4591-952b-b659cdfdc84a","a0a8f18c-a66e-4ba7-a170-23efbdc67501","{""participantId"":""766753950A0E4C74AFBD977A1824EA32"",""assignmentId"":""4b3d5ede-d7f0-4591-952b-b659cdfdc84a"",""projectId"":""a0a8f18c-a66e-4ba7-a170-23efbdc67501""}","https://test12345.live/?participantId=766753950A0E4C74AFBD977A1824EA32&assignmentId=4b3d5ede-d7f0-4591-952b-b659cdfdc84a&projectId=a0a8f18c-a66e-4ba7-a170-23efbdc67501","766753950A0E4C74AFBD977A1824EA32-2024-11-24-19-02-07","","null","","images/causal_sequence/dog_causal/dog_causal_9.png","null","",""
"","","","","","image-button-response","82","500371","0.0-12.0-1.0-1.8","766753950A0E4C74AFBD977A1824EA32","766753950A0E4C74AFBD977A1824EA32","4b3d5ede-d7f0-4591-952b-b659cdfdc84a","a0a8f18c-a66e-4ba7-a170-23efbdc67501","{""participantId"":""766753950A0E4C74AFBD977A1824EA32"",""assignmentId"":""4b3d5ede-d7f0-4591-952b-b659cdfdc84a"",""projectId"":""a0a8f18c-a66e-4ba7-a170-23efbdc67501""}","https://test12345.live/?participantId=766753950A0E4C74AFBD977A1824EA32&assignmentId=4b3d5ede-d7f0-4591-952b-b659cdfdc84a&projectId=a0a8f18c-a66e-4ba7-a170-23efbdc67501","766753950A0E4C74AFBD977A1824EA32-2024-11-24-19-02-07","","940","","images/causal_sequence/dog_causal/dog_causal_9.png","0","",""
"","","","","","image-button-response","83","502180","0.0-12.0-1.0-2.8","766753950A0E4C74AFBD977A1824EA32","766753950A0E4C74AFBD977A1824EA32","4b3d5ede-d7f0-4591-952b-b659cdfdc84a","a0a8f18c-a66e-4ba7-a170-23efbdc67501","{""participantId"":""766753950A0E4C74AFBD977A1824EA32"",""assignmentId"":""4b3d5ede-d7f0-4591-952b-b659cdfdc84a"",""projectId"":""a0a8f18c-a66e-4ba7-a170-23efbdc67501""}","https://test12345.live/?participantId=766753950A0E4C74AFBD977A1824EA32&assignmentId=4b3d5ede-d7f0-4591-952b-b659cdfdc84a&projectId=a0a8f18c-a66e-4ba7-a170-23efbdc67501","766753950A0E4C74AFBD977A1824EA32-2024-11-24-19-02-07","","null","","[]","null","",""
"","","","","","image-button-response","84","506682","0.0-12.0-1.0-0.9","766753950A0E4C74AFBD977A1824EA32","766753950A0E4C74AFBD977A1824EA32","4b3d5ede-d7f0-4591-952b-b659cdfdc84a","a0a8f18c-a66e-4ba7-a170-23efbdc67501","{""participantId"":""766753950A0E4C74AFBD977A1824EA32"",""assignmentId"":""4b3d5ede-d7f0-4591-952b-b659cdfdc84a"",""projectId"":""a0a8f18c-a66e-4ba7-a170-23efbdc67501""}","https://test12345.live/?participantId=766753950A0E4C74AFBD977A1824EA32&assignmentId=4b3d5ede-d7f0-4591-952b-b659cdfdc84a&projectId=a0a8f18c-a66e-4ba7-a170-23efbdc67501","766753950A0E4C74AFBD977A1824EA32-2024-11-24-19-02-07","","null","","images/causal_sequence/dog_causal/dog_causal_ten.png","null","",""
"","","","","","image-button-response","85","507590","0.0-12.0-1.0-1.9","766753950A0E4C74AFBD977A1824EA32","766753950A0E4C74AFBD977A1824EA32","4b3d5ede-d7f0-4591-952b-b659cdfdc84a","a0a8f18c-a66e-4ba7-a170-23efbdc67501","{""participantId"":""766753950A0E4C74AFBD977A1824EA32"",""assignmentId"":""4b3d5ede-d7f0-4591-952b-b659cdfdc84a"",""projectId"":""a0a8f18c-a66e-4ba7-a170-23efbdc67501""}","https://test12345.live/?participantId=766753950A0E4C74AFBD977A1824EA32&assignmentId=4b3d5ede-d7f0-4591-952b-b659cdfdc84a&projectId=a0a8f18c-a66e-4ba7-a170-23efbdc67501","766753950A0E4C74AFBD977A1824EA32-2024-11-24-19-02-07","","908","","images/causal_sequence/dog_causal/dog_causal_ten.png","0","",""
"","","","","","image-button-response","86","509400","0.0-12.0-1.0-2.9","766753950A0E4C74AFBD977A1824EA32","766753950A0E4C74AFBD977A1824EA32","4b3d5ede-d7f0-4591-952b-b659cdfdc84a","a0a8f18c-a66e-4ba7-a170-23efbdc67501","{""participantId"":""766753950A0E4C74AFBD977A1824EA32"",""assignmentId"":""4b3d5ede-d7f0-4591-952b-b659cdfdc84a"",""projectId"":""a0a8f18c-a66e-4ba7-a170-23efbdc67501""}","https://test12345.live/?participantId=766753950A0E4C74AFBD977A1824EA32&assignmentId=4b3d5ede-d7f0-4591-952b-b659cdfdc84a&projectId=a0a8f18c-a66e-4ba7-a170-23efbdc67501","766753950A0E4C74AFBD977A1824EA32-2024-11-24-19-02-07","","null","","[]","null","",""
"","","","","","html-audio-response","87","564665","0.0-13.0","766753950A0E4C74AFBD977A1824EA32","766753950A0E4C74AFBD977A1824EA32","4b3d5ede-d7f0-4591-952b-b659cdfdc84a","a0a8f18c-a66e-4ba7-a170-23efbdc67501","{""participantId"":""766753950A0E4C74AFBD977A1824EA32"",""assignmentId"":""4b3d5ede-d7f0-4591-952b-b659cdfdc84a"",""projectId"":""a0a8f18c-a66e-4ba7-a170-23efbdc67501""}","https://test12345.live/?participantId=766753950A0E4C74AFBD977A1824EA32&assignmentId=4b3d5ede-d7f0-4591-952b-b659cdfdc84a&projectId=a0a8f18c-a66e-4ba7-a170-23efbdc67501","766753950A0E4C74AFBD977A1824EA32-2024-11-24-19-02-07","","26052","","[""<span style=\""color: red; font-size: 24px\""> NOW RECORDING</span><p>Please say out loud all the images you saw, as many as you can remember. The images can be said in any order.</p>""]","","0","dog_causal"
"","","","","","image-button-response","88","570677","0.0-14.0-0.0","766753950A0E4C74AFBD977A1824EA32","766753950A0E4C74AFBD977A1824EA32","4b3d5ede-d7f0-4591-952b-b659cdfdc84a","a0a8f18c-a66e-4ba7-a170-23efbdc67501","{""participantId"":""766753950A0E4C74AFBD977A1824EA32"",""assignmentId"":""4b3d5ede-d7f0-4591-952b-b659cdfdc84a"",""projectId"":""a0a8f18c-a66e-4ba7-a170-23efbdc67501""}","https://test12345.live/?participantId=766753950A0E4C74AFBD977A1824EA32&assignmentId=4b3d5ede-d7f0-4591-952b-b659cdfdc84a&projectId=a0a8f18c-a66e-4ba7-a170-23efbdc67501","766753950A0E4C74AFBD977A1824EA32-2024-11-24-19-02-07","","null","","images/schematic_sequence/flight_scheme/flight_scheme_0.png","null","",""
"","","","","","image-button-response","89","575180","0.0-14.0-1.0-0.0","766753950A0E4C74AFBD977A1824EA32","766753950A0E4C74AFBD977A1824EA32","4b3d5ede-d7f0-4591-952b-b659cdfdc84a","a0a8f18c-a66e-4ba7-a170-23efbdc67501","{""participantId"":""766753950A0E4C74AFBD977A1824EA32"",""assignmentId"":""4b3d5ede-d7f0-4591-952b-b659cdfdc84a"",""projectId"":""a0a8f18c-a66e-4ba7-a170-23efbdc67501""}","https://test12345.live/?participantId=766753950A0E4C74AFBD977A1824EA32&assignmentId=4b3d5ede-d7f0-4591-952b-b659cdfdc84a&projectId=a0a8f18c-a66e-4ba7-a170-23efbdc67501","766753950A0E4C74AFBD977A1824EA32-2024-11-24-19-02-07","","null","","images/schematic_sequence/flight_scheme/flight_scheme_3.png","null","",""
"","","","","","image-button-response","90","577094","0.0-14.0-1.0-1.0","766753950A0E4C74AFBD977A1824EA32","766753950A0E4C74AFBD977A1824EA32","4b3d5ede-d7f0-4591-952b-b659cdfdc84a","a0a8f18c-a66e-4ba7-a170-23efbdc67501","{""participantId"":""766753950A0E4C74AFBD977A1824EA32"",""assignmentId"":""4b3d5ede-d7f0-4591-952b-b659cdfdc84a"",""projectId"":""a0a8f18c-a66e-4ba7-a170-23efbdc67501""}","https://test12345.live/?participantId=766753950A0E4C74AFBD977A1824EA32&assignmentId=4b3d5ede-d7f0-4591-952b-b659cdfdc84a&projectId=a0a8f18c-a66e-4ba7-a170-23efbdc67501","766753950A0E4C74AFBD977A1824EA32-2024-11-24-19-02-07","","1914","","images/schematic_sequence/flight_scheme/flight_scheme_3.png","0","",""
"","","","","","image-button-response","91","578909","0.0-14.0-1.0-2.0","766753950A0E4C74AFBD977A1824EA32","766753950A0E4C74AFBD977A1824EA32","4b3d5ede-d7f0-4591-952b-b659cdfdc84a","a0a8f18c-a66e-4ba7-a170-23efbdc67501","{""participantId"":""766753950A0E4C74AFBD977A1824EA32"",""assignmentId"":""4b3d5ede-d7f0-4591-952b-b659cdfdc84a"",""projectId"":""a0a8f18c-a66e-4ba7-a170-23efbdc67501""}","https://test12345.live/?participantId=766753950A0E4C74AFBD977A1824EA32&assignmentId=4b3d5ede-d7f0-4591-952b-b659cdfdc84a&projectId=a0a8f18c-a66e-4ba7-a170-23efbdc67501","766753950A0E4C74AFBD977A1824EA32-2024-11-24-19-02-07","","null","","[]","null","",""
"","","","","","image-button-response","92","583414","0.0-14.0-1.0-0.1","766753950A0E4C74AFBD977A1824EA32","766753950A0E4C74AFBD977A1824EA32","4b3d5ede-d7f0-4591-952b-b659cdfdc84a","a0a8f18c-a66e-4ba7-a170-23efbdc67501","{""participantId"":""766753950A0E4C74AFBD977A1824EA32"",""assignmentId"":""4b3d5ede-d7f0-4591-952b-b659cdfdc84a"",""projectId"":""a0a8f18c-a66e-4ba7-a170-23efbdc67501""}","https://test12345.live/?participantId=766753950A0E4C74AFBD977A1824EA32&assignmentId=4b3d5ede-d7f0-4591-952b-b659cdfdc84a&projectId=a0a8f18c-a66e-4ba7-a170-23efbdc67501","766753950A0E4C74AFBD977A1824EA32-2024-11-24-19-02-07","","null","","images/schematic_sequence/flight_scheme/flight_scheme_9.png","null","",""
"","","","","","image-button-response","93","585783","0.0-14.0-1.0-1.1","766753950A0E4C74AFBD977A1824EA32","766753950A0E4C74AFBD977A1824EA32","4b3d5ede-d7f0-4591-952b-b659cdfdc84a","a0a8f18c-a66e-4ba7-a170-23efbdc67501","{""participantId"":""766753950A0E4C74AFBD977A1824EA32"",""assignmentId"":""4b3d5ede-d7f0-4591-952b-b659cdfdc84a"",""projectId"":""a0a8f18c-a66e-4ba7-a170-23efbdc67501""}","https://test12345.live/?participantId=766753950A0E4C74AFBD977A1824EA32&assignmentId=4b3d5ede-d7f0-4591-952b-b659cdfdc84a&projectId=a0a8f18c-a66e-4ba7-a170-23efbdc67501","766753950A0E4C74AFBD977A1824EA32-2024-11-24-19-02-07","","2369","","images/schematic_sequence/flight_scheme/flight_scheme_9.png","0","",""
"","","","","","image-button-response","94","587589","0.0-14.0-1.0-2.1","766753950A0E4C74AFBD977A1824EA32","766753950A0E4C74AFBD977A1824EA32","4b3d5ede-d7f0-4591-952b-b659cdfdc84a","a0a8f18c-a66e-4ba7-a170-23efbdc67501","{""participantId"":""766753950A0E4C74AFBD977A1824EA32"",""assignmentId"":""4b3d5ede-d7f0-4591-952b-b659cdfdc84a"",""projectId"":""a0a8f18c-a66e-4ba7-a170-23efbdc67501""}","https://test12345.live/?participantId=766753950A0E4C74AFBD977A1824EA32&assignmentId=4b3d5ede-d7f0-4591-952b-b659cdfdc84a&projectId=a0a8f18c-a66e-4ba7-a170-23efbdc67501","766753950A0E4C74AFBD977A1824EA32-2024-11-24-19-02-07","","null","","[]","null","",""
"","","","","","image-button-response","95","592096","0.0-14.0-1.0-0.2","766753950A0E4C74AFBD977A1824EA32","766753950A0E4C74AFBD977A1824EA32","4b3d5ede-d7f0-4591-952b-b659cdfdc84a","a0a8f18c-a66e-4ba7-a170-23efbdc67501","{""participantId"":""766753950A0E4C74AFBD977A1824EA32"",""assignmentId"":""4b3d5ede-d7f0-4591-952b-b659cdfdc84a"",""projectId"":""a0a8f18c-a66e-4ba7-a170-23efbdc67501""}","https://test12345.live/?participantId=766753950A0E4C74AFBD977A1824EA32&assignmentId=4b3d5ede-d7f0-4591-952b-b659cdfdc84a&projectId=a0a8f18c-a66e-4ba7-a170-23efbdc67501","766753950A0E4C74AFBD977A1824EA32-2024-11-24-19-02-07","","null","","images/schematic_sequence/flight_scheme/flight_scheme_1.png","null","",""
"","","","","","image-button-response","96","595159","0.0-14.0-1.0-1.2","766753950A0E4C74AFBD977A1824EA32","766753950A0E4C74AFBD977A1824EA32","4b3d5ede-d7f0-4591-952b-b659cdfdc84a","a0a8f18c-a66e-4ba7-a170-23efbdc67501","{""participantId"":""766753950A0E4C74AFBD977A1824EA32"",""assignmentId"":""4b3d5ede-d7f0-4591-952b-b659cdfdc84a"",""projectId"":""a0a8f18c-a66e-4ba7-a170-23efbdc67501""}","https://test12345.live/?participantId=766753950A0E4C74AFBD977A1824EA32&assignmentId=4b3d5ede-d7f0-4591-952b-b659cdfdc84a&projectId=a0a8f18c-a66e-4ba7-a170-23efbdc67501","766753950A0E4C74AFBD977A1824EA32-2024-11-24-19-02-07","","3063","","images/schematic_sequence/flight_scheme/flight_scheme_1.png","0","",""
"","","","","","image-button-response","97","596972","0.0-14.0-1.0-2.2","766753950A0E4C74AFBD977A1824EA32","766753950A0E4C74AFBD977A1824EA32","4b3d5ede-d7f0-4591-952b-b659cdfdc84a","a0a8f18c-a66e-4ba7-a170-23efbdc67501","{""participantId"":""766753950A0E4C74AFBD977A1824EA32"",""assignmentId"":""4b3d5ede-d7f0-4591-952b-b659cdfdc84a"",""projectId"":""a0a8f18c-a66e-4ba7-a170-23efbdc67501""}","https://test12345.live/?participantId=766753950A0E4C74AFBD977A1824EA32&assignmentId=4b3d5ede-d7f0-4591-952b-b659cdfdc84a&projectId=a0a8f18c-a66e-4ba7-a170-23efbdc67501","766753950A0E4C74AFBD977A1824EA32-2024-11-24-19-02-07","","null","","[]","null","",""
"","","","","","image-button-response","98","601488","0.0-14.0-1.0-0.3","766753950A0E4C74AFBD977A1824EA32","766753950A0E4C74AFBD977A1824EA32","4b3d5ede-d7f0-4591-952b-b659cdfdc84a","a0a8f18c-a66e-4ba7-a170-23efbdc67501","{""participantId"":""766753950A0E4C74AFBD977A1824EA32"",""assignmentId"":""4b3d5ede-d7f0-4591-952b-b659cdfdc84a"",""projectId"":""a0a8f18c-a66e-4ba7-a170-23efbdc67501""}","https://test12345.live/?participantId=766753950A0E4C74AFBD977A1824EA32&assignmentId=4b3d5ede-d7f0-4591-952b-b659cdfdc84a&projectId=a0a8f18c-a66e-4ba7-a170-23efbdc67501","766753950A0E4C74AFBD977A1824EA32-2024-11-24-19-02-07","","null","","images/schematic_sequence/flight_scheme/flight_scheme_5.png","null","",""
"","","","","","image-button-response","99","604712","0.0-14.0-1.0-1.3","766753950A0E4C74AFBD977A1824EA32","766753950A0E4C74AFBD977A1824EA32","4b3d5ede-d7f0-4591-952b-b659cdfdc84a","a0a8f18c-a66e-4ba7-a170-23efbdc67501","{""participantId"":""766753950A0E4C74AFBD977A1824EA32"",""assignmentId"":""4b3d5ede-d7f0-4591-952b-b659cdfdc84a"",""projectId"":""a0a8f18c-a66e-4ba7-a170-23efbdc67501""}","https://test12345.live/?participantId=766753950A0E4C74AFBD977A1824EA32&assignmentId=4b3d5ede-d7f0-4591-952b-b659cdfdc84a&projectId=a0a8f18c-a66e-4ba7-a170-23efbdc67501","766753950A0E4C74AFBD977A1824EA32-2024-11-24-19-02-07","","3223","","images/schematic_sequence/flight_scheme/flight_scheme_5.png","0","",""
"","","","","","image-button-response","100","606519","0.0-14.0-1.0-2.3","766753950A0E4C74AFBD977A1824EA32","766753950A0E4C74AFBD977A1824EA32","4b3d5ede-d7f0-4591-952b-b659cdfdc84a","a0a8f18c-a66e-4ba7-a170-23efbdc67501","{""participantId"":""766753950A0E4C74AFBD977A1824EA32"",""assignmentId"":""4b3d5ede-d7f0-4591-952b-b659cdfdc84a"",""projectId"":""a0a8f18c-a66e-4ba7-a170-23efbdc67501""}","https://test12345.live/?participantId=766753950A0E4C74AFBD977A1824EA32&assignmentId=4b3d5ede-d7f0-4591-952b-b659cdfdc84a&projectId=a0a8f18c-a66e-4ba7-a170-23efbdc67501","766753950A0E4C74AFBD977A1824EA32-2024-11-24-19-02-07","","null","","[]","null","",""
"","","","","","image-button-response","101","611034","0.0-14.0-1.0-0.4","766753950A0E4C74AFBD977A1824EA32","766753950A0E4C74AFBD977A1824EA32","4b3d5ede-d7f0-4591-952b-b659cdfdc84a","a0a8f18c-a66e-4ba7-a170-23efbdc67501","{""participantId"":""766753950A0E4C74AFBD977A1824EA32"",""assignmentId"":""4b3d5ede-d7f0-4591-952b-b659cdfdc84a"",""projectId"":""a0a8f18c-a66e-4ba7-a170-23efbdc67501""}","https://test12345.live/?participantId=766753950A0E4C74AFBD977A1824EA32&assignmentId=4b3d5ede-d7f0-4591-952b-b659cdfdc84a&projectId=a0a8f18c-a66e-4ba7-a170-23efbdc67501","766753950A0E4C74AFBD977A1824EA32-2024-11-24-19-02-07","","null","","images/schematic_sequence/flight_scheme/flight_scheme_8.png","null","",""
"","","","","","image-button-response","102","612499","0.0-14.0-1.0-1.4","766753950A0E4C74AFBD977A1824EA32","766753950A0E4C74AFBD977A1824EA32","4b3d5ede-d7f0-4591-952b-b659cdfdc84a","a0a8f18c-a66e-4ba7-a170-23efbdc67501","{""participantId"":""766753950A0E4C74AFBD977A1824EA32"",""assignmentId"":""4b3d5ede-d7f0-4591-952b-b659cdfdc84a"",""projectId"":""a0a8f18c-a66e-4ba7-a170-23efbdc67501""}","https://test12345.live/?participantId=766753950A0E4C74AFBD977A1824EA32&assignmentId=4b3d5ede-d7f0-4591-952b-b659cdfdc84a&projectId=a0a8f18c-a66e-4ba7-a170-23efbdc67501","766753950A0E4C74AFBD977A1824EA32-2024-11-24-19-02-07","","1465","","images/schematic_sequence/flight_scheme/flight_scheme_8.png","1","",""
"","","","","","image-button-response","103","614307","0.0-14.0-1.0-2.4","766753950A0E4C74AFBD977A1824EA32","766753950A0E4C74AFBD977A1824EA32","4b3d5ede-d7f0-4591-952b-b659cdfdc84a","a0a8f18c-a66e-4ba7-a170-23efbdc67501","{""participantId"":""766753950A0E4C74AFBD977A1824EA32"",""assignmentId"":""4b3d5ede-d7f0-4591-952b-b659cdfdc84a"",""projectId"":""a0a8f18c-a66e-4ba7-a170-23efbdc67501""}","https://test12345.live/?participantId=766753950A0E4C74AFBD977A1824EA32&assignmentId=4b3d5ede-d7f0-4591-952b-b659cdfdc84a&projectId=a0a8f18c-a66e-4ba7-a170-23efbdc67501","766753950A0E4C74AFBD977A1824EA32-2024-11-24-19-02-07","","null","","[]","null","",""
"","","","","","image-button-response","104","618816","0.0-14.0-1.0-0.5","766753950A0E4C74AFBD977A1824EA32","766753950A0E4C74AFBD977A1824EA32","4b3d5ede-d7f0-4591-952b-b659cdfdc84a","a0a8f18c-a66e-4ba7-a170-23efbdc67501","{""participantId"":""766753950A0E4C74AFBD977A1824EA32"",""assignmentId"":""4b3d5ede-d7f0-4591-952b-b659cdfdc84a"",""projectId"":""a0a8f18c-a66e-4ba7-a170-23efbdc67501""}","https://test12345.live/?participantId=766753950A0E4C74AFBD977A1824EA32&assignmentId=4b3d5ede-d7f0-4591-952b-b659cdfdc84a&projectId=a0a8f18c-a66e-4ba7-a170-23efbdc67501","766753950A0E4C74AFBD977A1824EA32-2024-11-24-19-02-07","","null","","images/schematic_sequence/flight_scheme/flight_scheme_ten.png","null","",""
"","","","","","image-button-response","105","619699","0.0-14.0-1.0-1.5","766753950A0E4C74AFBD977A1824EA32","766753950A0E4C74AFBD977A1824EA32","4b3d5ede-d7f0-4591-952b-b659cdfdc84a","a0a8f18c-a66e-4ba7-a170-23efbdc67501","{""participantId"":""766753950A0E4C74AFBD977A1824EA32"",""assignmentId"":""4b3d5ede-d7f0-4591-952b-b659cdfdc84a"",""projectId"":""a0a8f18c-a66e-4ba7-a170-23efbdc67501""}","https://test12345.live/?participantId=766753950A0E4C74AFBD977A1824EA32&assignmentId=4b3d5ede-d7f0-4591-952b-b659cdfdc84a&projectId=a0a8f18c-a66e-4ba7-a170-23efbdc67501","766753950A0E4C74AFBD977A1824EA32-2024-11-24-19-02-07","","882","","images/schematic_sequence/flight_scheme/flight_scheme_ten.png","0","",""
"","","","","","image-button-response","106","621509","0.0-14.0-1.0-2.5","766753950A0E4C74AFBD977A1824EA32","766753950A0E4C74AFBD977A1824EA32","4b3d5ede-d7f0-4591-952b-b659cdfdc84a","a0a8f18c-a66e-4ba7-a170-23efbdc67501","{""participantId"":""766753950A0E4C74AFBD977A1824EA32"",""assignmentId"":""4b3d5ede-d7f0-4591-952b-b659cdfdc84a"",""projectId"":""a0a8f18c-a66e-4ba7-a170-23efbdc67501""}","https://test12345.live/?participantId=766753950A0E4C74AFBD977A1824EA32&assignmentId=4b3d5ede-d7f0-4591-952b-b659cdfdc84a&projectId=a0a8f18c-a66e-4ba7-a170-23efbdc67501","766753950A0E4C74AFBD977A1824EA32-2024-11-24-19-02-07","","null","","[]","null","",""
"","","","","","image-button-response","107","626015","0.0-14.0-1.0-0.6","766753950A0E4C74AFBD977A1824EA32","766753950A0E4C74AFBD977A1824EA32","4b3d5ede-d7f0-4591-952b-b659cdfdc84a","a0a8f18c-a66e-4ba7-a170-23efbdc67501","{""participantId"":""766753950A0E4C74AFBD977A1824EA32"",""assignmentId"":""4b3d5ede-d7f0-4591-952b-b659cdfdc84a"",""projectId"":""a0a8f18c-a66e-4ba7-a170-23efbdc67501""}","https://test12345.live/?participantId=766753950A0E4C74AFBD977A1824EA32&assignmentId=4b3d5ede-d7f0-4591-952b-b659cdfdc84a&projectId=a0a8f18c-a66e-4ba7-a170-23efbdc67501","766753950A0E4C74AFBD977A1824EA32-2024-11-24-19-02-07","","null","","images/schematic_sequence/flight_scheme/flight_scheme_2.png","null","",""
"","","","","","image-button-response","108","628006","0.0-14.0-1.0-1.6","766753950A0E4C74AFBD977A1824EA32","766753950A0E4C74AFBD977A1824EA32","4b3d5ede-d7f0-4591-952b-b659cdfdc84a","a0a8f18c-a66e-4ba7-a170-23efbdc67501","{""participantId"":""766753950A0E4C74AFBD977A1824EA32"",""assignmentId"":""4b3d5ede-d7f0-4591-952b-b659cdfdc84a"",""projectId"":""a0a8f18c-a66e-4ba7-a170-23efbdc67501""}","https://test12345.live/?participantId=766753950A0E4C74AFBD977A1824EA32&assignmentId=4b3d5ede-d7f0-4591-952b-b659cdfdc84a&projectId=a0a8f18c-a66e-4ba7-a170-23efbdc67501","766753950A0E4C74AFBD977A1824EA32-2024-11-24-19-02-07","","1990","","images/schematic_sequence/flight_scheme/flight_scheme_2.png","1","",""
"","","","","","image-button-response","109","629822","0.0-14.0-1.0-2.6","766753950A0E4C74AFBD977A1824EA32","766753950A0E4C74AFBD977A1824EA32","4b3d5ede-d7f0-4591-952b-b659cdfdc84a","a0a8f18c-a66e-4ba7-a170-23efbdc67501","{""participantId"":""766753950A0E4C74AFBD977A1824EA32"",""assignmentId"":""4b3d5ede-d7f0-4591-952b-b659cdfdc84a"",""projectId"":""a0a8f18c-a66e-4ba7-a170-23efbdc67501""}","https://test12345.live/?participantId=766753950A0E4C74AFBD977A1824EA32&assignmentId=4b3d5ede-d7f0-4591-952b-b659cdfdc84a&projectId=a0a8f18c-a66e-4ba7-a170-23efbdc67501","766753950A0E4C74AFBD977A1824EA32-2024-11-24-19-02-07","","null","","[]","null","",""
"","","","","","image-button-response","110","634325","0.0-14.0-1.0-0.7","766753950A0E4C74AFBD977A1824EA32","766753950A0E4C74AFBD977A1824EA32","4b3d5ede-d7f0-4591-952b-b659cdfdc84a","a0a8f18c-a66e-4ba7-a170-23efbdc67501","{""participantId"":""766753950A0E4C74AFBD977A1824EA32"",""assignmentId"":""4b3d5ede-d7f0-4591-952b-b659cdfdc84a"",""projectId"":""a0a8f18c-a66e-4ba7-a170-23efbdc67501""}","https://test12345.live/?participantId=766753950A0E4C74AFBD977A1824EA32&assignmentId=4b3d5ede-d7f0-4591-952b-b659cdfdc84a&projectId=a0a8f18c-a66e-4ba7-a170-23efbdc67501","766753950A0E4C74AFBD977A1824EA32-2024-11-24-19-02-07","","null","","images/schematic_sequence/flight_scheme/flight_scheme_6.png","null","",""
"","","","","","image-button-response","111","636792","0.0-14.0-1.0-1.7","766753950A0E4C74AFBD977A1824EA32","766753950A0E4C74AFBD977A1824EA32","4b3d5ede-d7f0-4591-952b-b659cdfdc84a","a0a8f18c-a66e-4ba7-a170-23efbdc67501","{""participantId"":""766753950A0E4C74AFBD977A1824EA32"",""assignmentId"":""4b3d5ede-d7f0-4591-952b-b659cdfdc84a"",""projectId"":""a0a8f18c-a66e-4ba7-a170-23efbdc67501""}","https://test12345.live/?participantId=766753950A0E4C74AFBD977A1824EA32&assignmentId=4b3d5ede-d7f0-4591-952b-b659cdfdc84a&projectId=a0a8f18c-a66e-4ba7-a170-23efbdc67501","766753950A0E4C74AFBD977A1824EA32-2024-11-24-19-02-07","","2467","","images/schematic_sequence/flight_scheme/flight_scheme_6.png","1","",""
"","","","","","image-button-response","112","638594","0.0-14.0-1.0-2.7","766753950A0E4C74AFBD977A1824EA32","766753950A0E4C74AFBD977A1824EA32","4b3d5ede-d7f0-4591-952b-b659cdfdc84a","a0a8f18c-a66e-4ba7-a170-23efbdc67501","{""participantId"":""766753950A0E4C74AFBD977A1824EA32"",""assignmentId"":""4b3d5ede-d7f0-4591-952b-b659cdfdc84a"",""projectId"":""a0a8f18c-a66e-4ba7-a170-23efbdc67501""}","https://test12345.live/?participantId=766753950A0E4C74AFBD977A1824EA32&assignmentId=4b3d5ede-d7f0-4591-952b-b659cdfdc84a&projectId=a0a8f18c-a66e-4ba7-a170-23efbdc67501","766753950A0E4C74AFBD977A1824EA32-2024-11-24-19-02-07","","null","","[]","null","",""
"","","","","","image-button-response","113","643098","0.0-14.0-1.0-0.8","766753950A0E4C74AFBD977A1824EA32","766753950A0E4C74AFBD977A1824EA32","4b3d5ede-d7f0-4591-952b-b659cdfdc84a","a0a8f18c-a66e-4ba7-a170-23efbdc67501","{""participantId"":""766753950A0E4C74AFBD977A1824EA32"",""assignmentId"":""4b3d5ede-d7f0-4591-952b-b659cdfdc84a"",""projectId"":""a0a8f18c-a66e-4ba7-a170-23efbdc67501""}","https://test12345.live/?participantId=766753950A0E4C74AFBD977A1824EA32&assignmentId=4b3d5ede-d7f0-4591-952b-b659cdfdc84a&projectId=a0a8f18c-a66e-4ba7-a170-23efbdc67501","766753950A0E4C74AFBD977A1824EA32-2024-11-24-19-02-07","","null","","images/schematic_sequence/flight_scheme/flight_scheme_4.png","null","",""
"","","","","","image-button-response","114","644436","0.0-14.0-1.0-1.8","766753950A0E4C74AFBD977A1824EA32","766753950A0E4C74AFBD977A1824EA32","4b3d5ede-d7f0-4591-952b-b659cdfdc84a","a0a8f18c-a66e-4ba7-a170-23efbdc67501","{""participantId"":""766753950A0E4C74AFBD977A1824EA32"",""assignmentId"":""4b3d5ede-d7f0-4591-952b-b659cdfdc84a"",""projectId"":""a0a8f18c-a66e-4ba7-a170-23efbdc67501""}","https://test12345.live/?participantId=766753950A0E4C74AFBD977A1824EA32&assignmentId=4b3d5ede-d7f0-4591-952b-b659cdfdc84a&projectId=a0a8f18c-a66e-4ba7-a170-23efbdc67501","766753950A0E4C74AFBD977A1824EA32-2024-11-24-19-02-07","","1337","","images/schematic_sequence/flight_scheme/flight_scheme_4.png","0","",""
"","","","","","image-button-response","115","646250","0.0-14.0-1.0-2.8","766753950A0E4C74AFBD977A1824EA32","766753950A0E4C74AFBD977A1824EA32","4b3d5ede-d7f0-4591-952b-b659cdfdc84a","a0a8f18c-a66e-4ba7-a170-23efbdc67501","{""participantId"":""766753950A0E4C74AFBD977A1824EA32"",""assignmentId"":""4b3d5ede-d7f0-4591-952b-b659cdfdc84a"",""projectId"":""a0a8f18c-a66e-4ba7-a170-23efbdc67501""}","https://test12345.live/?participantId=766753950A0E4C74AFBD977A1824EA32&assignmentId=4b3d5ede-d7f0-4591-952b-b659cdfdc84a&projectId=a0a8f18c-a66e-4ba7-a170-23efbdc67501","766753950A0E4C74AFBD977A1824EA32-2024-11-24-19-02-07","","null","","[]","null","",""
"","","","","","image-button-response","116","650755","0.0-14.0-1.0-0.9","766753950A0E4C74AFBD977A1824EA32","766753950A0E4C74AFBD977A1824EA32","4b3d5ede-d7f0-4591-952b-b659cdfdc84a","a0a8f18c-a66e-4ba7-a170-23efbdc67501","{""participantId"":""766753950A0E4C74AFBD977A1824EA32"",""assignmentId"":""4b3d5ede-d7f0-4591-952b-b659cdfdc84a"",""projectId"":""a0a8f18c-a66e-4ba7-a170-23efbdc67501""}","https://test12345.live/?participantId=766753950A0E4C74AFBD977A1824EA32&assignmentId=4b3d5ede-d7f0-4591-952b-b659cdfdc84a&projectId=a0a8f18c-a66e-4ba7-a170-23efbdc67501","766753950A0E4C74AFBD977A1824EA32-2024-11-24-19-02-07","","null","","images/schematic_sequence/flight_scheme/flight_scheme_7.png","null","",""
"","","","","","image-button-response","117","652937","0.0-14.0-1.0-1.9","766753950A0E4C74AFBD977A1824EA32","766753950A0E4C74AFBD977A1824EA32","4b3d5ede-d7f0-4591-952b-b659cdfdc84a","a0a8f18c-a66e-4ba7-a170-23efbdc67501","{""participantId"":""766753950A0E4C74AFBD977A1824EA32"",""assignmentId"":""4b3d5ede-d7f0-4591-952b-b659cdfdc84a"",""projectId"":""a0a8f18c-a66e-4ba7-a170-23efbdc67501""}","https://test12345.live/?participantId=766753950A0E4C74AFBD977A1824EA32&assignmentId=4b3d5ede-d7f0-4591-952b-b659cdfdc84a&projectId=a0a8f18c-a66e-4ba7-a170-23efbdc67501","766753950A0E4C74AFBD977A1824EA32-2024-11-24-19-02-07","","2181","","images/schematic_sequence/flight_scheme/flight_scheme_7.png","1","",""
"","","","","","image-button-response","118","654747","0.0-14.0-1.0-2.9","766753950A0E4C74AFBD977A1824EA32","766753950A0E4C74AFBD977A1824EA32","4b3d5ede-d7f0-4591-952b-b659cdfdc84a","a0a8f18c-a66e-4ba7-a170-23efbdc67501","{""participantId"":""766753950A0E4C74AFBD977A1824EA32"",""assignmentId"":""4b3d5ede-d7f0-4591-952b-b659cdfdc84a"",""projectId"":""a0a8f18c-a66e-4ba7-a170-23efbdc67501""}","https://test12345.live/?participantId=766753950A0E4C74AFBD977A1824EA32&assignmentId=4b3d5ede-d7f0-4591-952b-b659cdfdc84a&projectId=a0a8f18c-a66e-4ba7-a170-23efbdc67501","766753950A0E4C74AFBD977A1824EA32-2024-11-24-19-02-07","","null","","[]","null","",""
"","","","","","html-audio-response","119","684061","0.0-15.0","766753950A0E4C74AFBD977A1824EA32","766753950A0E4C74AFBD977A1824EA32","4b3d5ede-d7f0-4591-952b-b659cdfdc84a","a0a8f18c-a66e-4ba7-a170-23efbdc67501","{""participantId"":""766753950A0E4C74AFBD977A1824EA32"",""assignmentId"":""4b3d5ede-d7f0-4591-952b-b659cdfdc84a"",""projectId"":""a0a8f18c-a66e-4ba7-a170-23efbdc67501""}","https://test12345.live/?participantId=766753950A0E4C74AFBD977A1824EA32&assignmentId=4b3d5ede-d7f0-4591-952b-b659cdfdc84a&projectId=a0a8f18c-a66e-4ba7-a170-23efbdc67501","766753950A0E4C74AFBD977A1824EA32-2024-11-24-19-02-07","","26710","","[""<span style=\""color: red; font-size: 24px\""> NOW RECORDING</span><p>Please say out loud all the images you saw, as many as you can remember. The images can be said in any order.</p>""]","","1","flight_scheme"
"","","","","","image-button-response","120","690074","0.0-16.0-0.0","766753950A0E4C74AFBD977A1824EA32","766753950A0E4C74AFBD977A1824EA32","4b3d5ede-d7f0-4591-952b-b659cdfdc84a","a0a8f18c-a66e-4ba7-a170-23efbdc67501","{""participantId"":""766753950A0E4C74AFBD977A1824EA32"",""assignmentId"":""4b3d5ede-d7f0-4591-952b-b659cdfdc84a"",""projectId"":""a0a8f18c-a66e-4ba7-a170-23efbdc67501""}","https://test12345.live/?participantId=766753950A0E4C74AFBD977A1824EA32&assignmentId=4b3d5ede-d7f0-4591-952b-b659cdfdc84a&projectId=a0a8f18c-a66e-4ba7-a170-23efbdc67501","766753950A0E4C74AFBD977A1824EA32-2024-11-24-19-02-07","","null","","images/causal_sequence/saving_a_cat_causal/saving_a_cat_causal_0.png","null","",""
"","","","","","image-button-response","121","694578","0.0-16.0-1.0-0.0","766753950A0E4C74AFBD977A1824EA32","766753950A0E4C74AFBD977A1824EA32","4b3d5ede-d7f0-4591-952b-b659cdfdc84a","a0a8f18c-a66e-4ba7-a170-23efbdc67501","{""participantId"":""766753950A0E4C74AFBD977A1824EA32"",""assignmentId"":""4b3d5ede-d7f0-4591-952b-b659cdfdc84a"",""projectId"":""a0a8f18c-a66e-4ba7-a170-23efbdc67501""}","https://test12345.live/?participantId=766753950A0E4C74AFBD977A1824EA32&assignmentId=4b3d5ede-d7f0-4591-952b-b659cdfdc84a&projectId=a0a8f18c-a66e-4ba7-a170-23efbdc67501","766753950A0E4C74AFBD977A1824EA32-2024-11-24-19-02-07","","null","","images/causal_sequence/saving_a_cat_causal/saving_a_cat_causal_1.png","null","",""
"","","","","","image-button-response","122","696458","0.0-16.0-1.0-1.0","766753950A0E4C74AFBD977A1824EA32","766753950A0E4C74AFBD977A1824EA32","4b3d5ede-d7f0-4591-952b-b659cdfdc84a","a0a8f18c-a66e-4ba7-a170-23efbdc67501","{""participantId"":""766753950A0E4C74AFBD977A1824EA32"",""assignmentId"":""4b3d5ede-d7f0-4591-952b-b659cdfdc84a"",""projectId"":""a0a8f18c-a66e-4ba7-a170-23efbdc67501""}","https://test12345.live/?participantId=766753950A0E4C74AFBD977A1824EA32&assignmentId=4b3d5ede-d7f0-4591-952b-b659cdfdc84a&projectId=a0a8f18c-a66e-4ba7-a170-23efbdc67501","766753950A0E4C74AFBD977A1824EA32-2024-11-24-19-02-07","","1879","","images/causal_sequence/saving_a_cat_causal/saving_a_cat_causal_1.png","0","",""
"","","","","","image-button-response","123","698271","0.0-16.0-1.0-2.0","766753950A0E4C74AFBD977A1824EA32","766753950A0E4C74AFBD977A1824EA32","4b3d5ede-d7f0-4591-952b-b659cdfdc84a","a0a8f18c-a66e-4ba7-a170-23efbdc67501","{""participantId"":""766753950A0E4C74AFBD977A1824EA32"",""assignmentId"":""4b3d5ede-d7f0-4591-952b-b659cdfdc84a"",""projectId"":""a0a8f18c-a66e-4ba7-a170-23efbdc67501""}","https://test12345.live/?participantId=766753950A0E4C74AFBD977A1824EA32&assignmentId=4b3d5ede-d7f0-4591-952b-b659cdfdc84a&projectId=a0a8f18c-a66e-4ba7-a170-23efbdc67501","766753950A0E4C74AFBD977A1824EA32-2024-11-24-19-02-07","","null","","[]","null","",""
"","","","","","image-button-response","124","702786","0.0-16.0-1.0-0.1","766753950A0E4C74AFBD977A1824EA32","766753950A0E4C74AFBD977A1824EA32","4b3d5ede-d7f0-4591-952b-b659cdfdc84a","a0a8f18c-a66e-4ba7-a170-23efbdc67501","{""participantId"":""766753950A0E4C74AFBD977A1824EA32"",""assignmentId"":""4b3d5ede-d7f0-4591-952b-b659cdfdc84a"",""projectId"":""a0a8f18c-a66e-4ba7-a170-23efbdc67501""}","https://test12345.live/?participantId=766753950A0E4C74AFBD977A1824EA32&assignmentId=4b3d5ede-d7f0-4591-952b-b659cdfdc84a&projectId=a0a8f18c-a66e-4ba7-a170-23efbdc67501","766753950A0E4C74AFBD977A1824EA32-2024-11-24-19-02-07","","null","","images/causal_sequence/saving_a_cat_causal/saving_a_cat_causal_2.png","null","",""
"","","","","","image-button-response","125","704646","0.0-16.0-1.0-1.1","766753950A0E4C74AFBD977A1824EA32","766753950A0E4C74AFBD977A1824EA32","4b3d5ede-d7f0-4591-952b-b659cdfdc84a","a0a8f18c-a66e-4ba7-a170-23efbdc67501","{""participantId"":""766753950A0E4C74AFBD977A1824EA32"",""assignmentId"":""4b3d5ede-d7f0-4591-952b-b659cdfdc84a"",""projectId"":""a0a8f18c-a66e-4ba7-a170-23efbdc67501""}","https://test12345.live/?participantId=766753950A0E4C74AFBD977A1824EA32&assignmentId=4b3d5ede-d7f0-4591-952b-b659cdfdc84a&projectId=a0a8f18c-a66e-4ba7-a170-23efbdc67501","766753950A0E4C74AFBD977A1824EA32-2024-11-24-19-02-07","","1859","","images/causal_sequence/saving_a_cat_causal/saving_a_cat_causal_2.png","1","",""
"","","","","","image-button-response","126","706454","0.0-16.0-1.0-2.1","766753950A0E4C74AFBD977A1824EA32","766753950A0E4C74AFBD977A1824EA32","4b3d5ede-d7f0-4591-952b-b659cdfdc84a","a0a8f18c-a66e-4ba7-a170-23efbdc67501","{""participantId"":""766753950A0E4C74AFBD977A1824EA32"",""assignmentId"":""4b3d5ede-d7f0-4591-952b-b659cdfdc84a"",""projectId"":""a0a8f18c-a66e-4ba7-a170-23efbdc67501""}","https://test12345.live/?participantId=766753950A0E4C74AFBD977A1824EA32&assignmentId=4b3d5ede-d7f0-4591-952b-b659cdfdc84a&projectId=a0a8f18c-a66e-4ba7-a170-23efbdc67501","766753950A0E4C74AFBD977A1824EA32-2024-11-24-19-02-07","","null","","[]","null","",""
"","","","","","image-button-response","127","710961","0.0-16.0-1.0-0.2","766753950A0E4C74AFBD977A1824EA32","766753950A0E4C74AFBD977A1824EA32","4b3d5ede-d7f0-4591-952b-b659cdfdc84a","a0a8f18c-a66e-4ba7-a170-23efbdc67501","{""participantId"":""766753950A0E4C74AFBD977A1824EA32"",""assignmentId"":""4b3d5ede-d7f0-4591-952b-b659cdfdc84a"",""projectId"":""a0a8f18c-a66e-4ba7-a170-23efbdc67501""}","https://test12345.live/?participantId=766753950A0E4C74AFBD977A1824EA32&assignmentId=4b3d5ede-d7f0-4591-952b-b659cdfdc84a&projectId=a0a8f18c-a66e-4ba7-a170-23efbdc67501","766753950A0E4C74AFBD977A1824EA32-2024-11-24-19-02-07","","null","","images/causal_sequence/saving_a_cat_causal/saving_a_cat_causal_3.png","null","",""
"","","","","","image-button-response","128","712829","0.0-16.0-1.0-1.2","766753950A0E4C74AFBD977A1824EA32","766753950A0E4C74AFBD977A1824EA32","4b3d5ede-d7f0-4591-952b-b659cdfdc84a","a0a8f18c-a66e-4ba7-a170-23efbdc67501","{""participantId"":""766753950A0E4C74AFBD977A1824EA32"",""assignmentId"":""4b3d5ede-d7f0-4591-952b-b659cdfdc84a"",""projectId"":""a0a8f18c-a66e-4ba7-a170-23efbdc67501""}","https://test12345.live/?participantId=766753950A0E4C74AFBD977A1824EA32&assignmentId=4b3d5ede-d7f0-4591-952b-b659cdfdc84a&projectId=a0a8f18c-a66e-4ba7-a170-23efbdc67501","766753950A0E4C74AFBD977A1824EA32-2024-11-24-19-02-07","","1867","","images/causal_sequence/saving_a_cat_causal/saving_a_cat_causal_3.png","1","",""
"","","","","","image-button-response","129","714643","0.0-16.0-1.0-2.2","766753950A0E4C74AFBD977A1824EA32","766753950A0E4C74AFBD977A1824EA32","4b3d5ede-d7f0-4591-952b-b659cdfdc84a","a0a8f18c-a66e-4ba7-a170-23efbdc67501","{""participantId"":""766753950A0E4C74AFBD977A1824EA32"",""assignmentId"":""4b3d5ede-d7f0-4591-952b-b659cdfdc84a"",""projectId"":""a0a8f18c-a66e-4ba7-a170-23efbdc67501""}","https://test12345.live/?participantId=766753950A0E4C74AFBD977A1824EA32&assignmentId=4b3d5ede-d7f0-4591-952b-b659cdfdc84a&projectId=a0a8f18c-a66e-4ba7-a170-23efbdc67501","766753950A0E4C74AFBD977A1824EA32-2024-11-24-19-02-07","","null","","[]","null","",""
"","","","","","image-button-response","130","719147","0.0-16.0-1.0-0.3","766753950A0E4C74AFBD977A1824EA32","766753950A0E4C74AFBD977A1824EA32","4b3d5ede-d7f0-4591-952b-b659cdfdc84a","a0a8f18c-a66e-4ba7-a170-23efbdc67501","{""participantId"":""766753950A0E4C74AFBD977A1824EA32"",""assignmentId"":""4b3d5ede-d7f0-4591-952b-b659cdfdc84a"",""projectId"":""a0a8f18c-a66e-4ba7-a170-23efbdc67501""}","https://test12345.live/?participantId=766753950A0E4C74AFBD977A1824EA32&assignmentId=4b3d5ede-d7f0-4591-952b-b659cdfdc84a&projectId=a0a8f18c-a66e-4ba7-a170-23efbdc67501","766753950A0E4C74AFBD977A1824EA32-2024-11-24-19-02-07","","null","","images/causal_sequence/saving_a_cat_causal/saving_a_cat_causal_4.png","null","",""
"","","","","","image-button-response","131","722510","0.0-16.0-1.0-1.3","766753950A0E4C74AFBD977A1824EA32","766753950A0E4C74AFBD977A1824EA32","4b3d5ede-d7f0-4591-952b-b659cdfdc84a","a0a8f18c-a66e-4ba7-a170-23efbdc67501","{""participantId"":""766753950A0E4C74AFBD977A1824EA32"",""assignmentId"":""4b3d5ede-d7f0-4591-952b-b659cdfdc84a"",""projectId"":""a0a8f18c-a66e-4ba7-a170-23efbdc67501""}","https://test12345.live/?participantId=766753950A0E4C74AFBD977A1824EA32&assignmentId=4b3d5ede-d7f0-4591-952b-b659cdfdc84a&projectId=a0a8f18c-a66e-4ba7-a170-23efbdc67501","766753950A0E4C74AFBD977A1824EA32-2024-11-24-19-02-07","","3362","","images/causal_sequence/saving_a_cat_causal/saving_a_cat_causal_4.png","0","",""
"","","","","","image-button-response","132","724323","0.0-16.0-1.0-2.3","766753950A0E4C74AFBD977A1824EA32","766753950A0E4C74AFBD977A1824EA32","4b3d5ede-d7f0-4591-952b-b659cdfdc84a","a0a8f18c-a66e-4ba7-a170-23efbdc67501","{""participantId"":""766753950A0E4C74AFBD977A1824EA32"",""assignmentId"":""4b3d5ede-d7f0-4591-952b-b659cdfdc84a"",""projectId"":""a0a8f18c-a66e-4ba7-a170-23efbdc67501""}","https://test12345.live/?participantId=766753950A0E4C74AFBD977A1824EA32&assignmentId=4b3d5ede-d7f0-4591-952b-b659cdfdc84a&projectId=a0a8f18c-a66e-4ba7-a170-23efbdc67501","766753950A0E4C74AFBD977A1824EA32-2024-11-24-19-02-07","","null","","[]","null","",""
"","","","","","image-button-response","133","728839","0.0-16.0-1.0-0.4","766753950A0E4C74AFBD977A1824EA32","766753950A0E4C74AFBD977A1824EA32","4b3d5ede-d7f0-4591-952b-b659cdfdc84a","a0a8f18c-a66e-4ba7-a170-23efbdc67501","{""participantId"":""766753950A0E4C74AFBD977A1824EA32"",""assignmentId"":""4b3d5ede-d7f0-4591-952b-b659cdfdc84a"",""projectId"":""a0a8f18c-a66e-4ba7-a170-23efbdc67501""}","https://test12345.live/?participantId=766753950A0E4C74AFBD977A1824EA32&assignmentId=4b3d5ede-d7f0-4591-952b-b659cdfdc84a&projectId=a0a8f18c-a66e-4ba7-a170-23efbdc67501","766753950A0E4C74AFBD977A1824EA32-2024-11-24-19-02-07","","null","","images/causal_sequence/saving_a_cat_causal/saving_a_cat_causal_5.png","null","",""
"","","","","","image-button-response","134","731022","0.0-16.0-1.0-1.4","766753950A0E4C74AFBD977A1824EA32","766753950A0E4C74AFBD977A1824EA32","4b3d5ede-d7f0-4591-952b-b659cdfdc84a","a0a8f18c-a66e-4ba7-a170-23efbdc67501","{""participantId"":""766753950A0E4C74AFBD977A1824EA32"",""assignmentId"":""4b3d5ede-d7f0-4591-952b-b659cdfdc84a"",""projectId"":""a0a8f18c-a66e-4ba7-a170-23efbdc67501""}","https://test12345.live/?participantId=766753950A0E4C74AFBD977A1824EA32&assignmentId=4b3d5ede-d7f0-4591-952b-b659cdfdc84a&projectId=a0a8f18c-a66e-4ba7-a170-23efbdc67501","766753950A0E4C74AFBD977A1824EA32-2024-11-24-19-02-07","","2182","","images/causal_sequence/saving_a_cat_causal/saving_a_cat_causal_5.png","0","",""
"","","","","","image-button-response","135","732828","0.0-16.0-1.0-2.4","766753950A0E4C74AFBD977A1824EA32","766753950A0E4C74AFBD977A1824EA32","4b3d5ede-d7f0-4591-952b-b659cdfdc84a","a0a8f18c-a66e-4ba7-a170-23efbdc67501","{""participantId"":""766753950A0E4C74AFBD977A1824EA32"",""assignmentId"":""4b3d5ede-d7f0-4591-952b-b659cdfdc84a"",""projectId"":""a0a8f18c-a66e-4ba7-a170-23efbdc67501""}","https://test12345.live/?participantId=766753950A0E4C74AFBD977A1824EA32&assignmentId=4b3d5ede-d7f0-4591-952b-b659cdfdc84a&projectId=a0a8f18c-a66e-4ba7-a170-23efbdc67501","766753950A0E4C74AFBD977A1824EA32-2024-11-24-19-02-07","","null","","[]","null","",""
"","","","","","image-button-response","136","737332","0.0-16.0-1.0-0.5","766753950A0E4C74AFBD977A1824EA32","766753950A0E4C74AFBD977A1824EA32","4b3d5ede-d7f0-4591-952b-b659cdfdc84a","a0a8f18c-a66e-4ba7-a170-23efbdc67501","{""participantId"":""766753950A0E4C74AFBD977A1824EA32"",""assignmentId"":""4b3d5ede-d7f0-4591-952b-b659cdfdc84a"",""projectId"":""a0a8f18c-a66e-4ba7-a170-23efbdc67501""}","https://test12345.live/?participantId=766753950A0E4C74AFBD977A1824EA32&assignmentId=4b3d5ede-d7f0-4591-952b-b659cdfdc84a&projectId=a0a8f18c-a66e-4ba7-a170-23efbdc67501","766753950A0E4C74AFBD977A1824EA32-2024-11-24-19-02-07","","null","","images/causal_sequence/saving_a_cat_causal/saving_a_cat_causal_6.png","null","",""
"","","","","","image-button-response","137","740367","0.0-16.0-1.0-1.5","766753950A0E4C74AFBD977A1824EA32","766753950A0E4C74AFBD977A1824EA32","4b3d5ede-d7f0-4591-952b-b659cdfdc84a","a0a8f18c-a66e-4ba7-a170-23efbdc67501","{""participantId"":""766753950A0E4C74AFBD977A1824EA32"",""assignmentId"":""4b3d5ede-d7f0-4591-952b-b659cdfdc84a"",""projectId"":""a0a8f18c-a66e-4ba7-a170-23efbdc67501""}","https://test12345.live/?participantId=766753950A0E4C74AFBD977A1824EA32&assignmentId=4b3d5ede-d7f0-4591-952b-b659cdfdc84a&projectId=a0a8f18c-a66e-4ba7-a170-23efbdc67501","766753950A0E4C74AFBD977A1824EA32-2024-11-24-19-02-07","","3034","","images/causal_sequence/saving_a_cat_causal/saving_a_cat_causal_6.png","0","",""
"","","","","","image-button-response","138","742179","0.0-16.0-1.0-2.5","766753950A0E4C74AFBD977A1824EA32","766753950A0E4C74AFBD977A1824EA32","4b3d5ede-d7f0-4591-952b-b659cdfdc84a","a0a8f18c-a66e-4ba7-a170-23efbdc67501","{""participantId"":""766753950A0E4C74AFBD977A1824EA32"",""assignmentId"":""4b3d5ede-d7f0-4591-952b-b659cdfdc84a"",""projectId"":""a0a8f18c-a66e-4ba7-a170-23efbdc67501""}","https://test12345.live/?participantId=766753950A0E4C74AFBD977A1824EA32&assignmentId=4b3d5ede-d7f0-4591-952b-b659cdfdc84a&projectId=a0a8f18c-a66e-4ba7-a170-23efbdc67501","766753950A0E4C74AFBD977A1824EA32-2024-11-24-19-02-07","","null","","[]","null","",""
"","","","","","image-button-response","139","746689","0.0-16.0-1.0-0.6","766753950A0E4C74AFBD977A1824EA32","766753950A0E4C74AFBD977A1824EA32","4b3d5ede-d7f0-4591-952b-b659cdfdc84a","a0a8f18c-a66e-4ba7-a170-23efbdc67501","{""participantId"":""766753950A0E4C74AFBD977A1824EA32"",""assignmentId"":""4b3d5ede-d7f0-4591-952b-b659cdfdc84a"",""projectId"":""a0a8f18c-a66e-4ba7-a170-23efbdc67501""}","https://test12345.live/?participantId=766753950A0E4C74AFBD977A1824EA32&assignmentId=4b3d5ede-d7f0-4591-952b-b659cdfdc84a&projectId=a0a8f18c-a66e-4ba7-a170-23efbdc67501","766753950A0E4C74AFBD977A1824EA32-2024-11-24-19-02-07","","null","","images/causal_sequence/saving_a_cat_causal/saving_a_cat_causal_7.png","null","",""
"","","","","","image-button-response","140","748848","0.0-16.0-1.0-1.6","766753950A0E4C74AFBD977A1824EA32","766753950A0E4C74AFBD977A1824EA32","4b3d5ede-d7f0-4591-952b-b659cdfdc84a","a0a8f18c-a66e-4ba7-a170-23efbdc67501","{""participantId"":""766753950A0E4C74AFBD977A1824EA32"",""assignmentId"":""4b3d5ede-d7f0-4591-952b-b659cdfdc84a"",""projectId"":""a0a8f18c-a66e-4ba7-a170-23efbdc67501""}","https://test12345.live/?participantId=766753950A0E4C74AFBD977A1824EA32&assignmentId=4b3d5ede-d7f0-4591-952b-b659cdfdc84a&projectId=a0a8f18c-a66e-4ba7-a170-23efbdc67501","766753950A0E4C74AFBD977A1824EA32-2024-11-24-19-02-07","","2158","","images/causal_sequence/saving_a_cat_causal/saving_a_cat_causal_7.png","0","",""
"","","","","","image-button-response","141","750660","0.0-16.0-1.0-2.6","766753950A0E4C74AFBD977A1824EA32","766753950A0E4C74AFBD977A1824EA32","4b3d5ede-d7f0-4591-952b-b659cdfdc84a","a0a8f18c-a66e-4ba7-a170-23efbdc67501","{""participantId"":""766753950A0E4C74AFBD977A1824EA32"",""assignmentId"":""4b3d5ede-d7f0-4591-952b-b659cdfdc84a"",""projectId"":""a0a8f18c-a66e-4ba7-a170-23efbdc67501""}","https://test12345.live/?participantId=766753950A0E4C74AFBD977A1824EA32&assignmentId=4b3d5ede-d7f0-4591-952b-b659cdfdc84a&projectId=a0a8f18c-a66e-4ba7-a170-23efbdc67501","766753950A0E4C74AFBD977A1824EA32-2024-11-24-19-02-07","","null","","[]","null","",""
"","","","","","image-button-response","142","755174","0.0-16.0-1.0-0.7","766753950A0E4C74AFBD977A1824EA32","766753950A0E4C74AFBD977A1824EA32","4b3d5ede-d7f0-4591-952b-b659cdfdc84a","a0a8f18c-a66e-4ba7-a170-23efbdc67501","{""participantId"":""766753950A0E4C74AFBD977A1824EA32"",""assignmentId"":""4b3d5ede-d7f0-4591-952b-b659cdfdc84a"",""projectId"":""a0a8f18c-a66e-4ba7-a170-23efbdc67501""}","https://test12345.live/?participantId=766753950A0E4C74AFBD977A1824EA32&assignmentId=4b3d5ede-d7f0-4591-952b-b659cdfdc84a&projectId=a0a8f18c-a66e-4ba7-a170-23efbdc67501","766753950A0E4C74AFBD977A1824EA32-2024-11-24-19-02-07","","null","","images/causal_sequence/saving_a_cat_causal/saving_a_cat_causal_8.png","null","",""
"","","","","","image-button-response","143","757513","0.0-16.0-1.0-1.7","766753950A0E4C74AFBD977A1824EA32","766753950A0E4C74AFBD977A1824EA32","4b3d5ede-d7f0-4591-952b-b659cdfdc84a","a0a8f18c-a66e-4ba7-a170-23efbdc67501","{""participantId"":""766753950A0E4C74AFBD977A1824EA32"",""assignmentId"":""4b3d5ede-d7f0-4591-952b-b659cdfdc84a"",""projectId"":""a0a8f18c-a66e-4ba7-a170-23efbdc67501""}","https://test12345.live/?participantId=766753950A0E4C74AFBD977A1824EA32&assignmentId=4b3d5ede-d7f0-4591-952b-b659cdfdc84a&projectId=a0a8f18c-a66e-4ba7-a170-23efbdc67501","766753950A0E4C74AFBD977A1824EA32-2024-11-24-19-02-07","","2338","","images/causal_sequence/saving_a_cat_causal/saving_a_cat_causal_8.png","0","",""
