"success","timeout","failed_images","failed_audio","failed_video","trial_type","trial_index","time_elapsed","internal_node_id","subject","subject_id","study_id","session_id","urlvar","current_url","audio_id","view_history","rt","device_id","stimulus","response","estimated_stimulus_onset","seq_name"
"true","false","[]","[]","[]","preload","0","3806","0.0-0.0","83A860C3DF5E452FAAA2717D7378A787","83A860C3DF5E452FAAA2717D7378A787","282814d2-ea24-49ee-8895-4f2503cbc675","a0a8f18c-a66e-4ba7-a170-23efbdc67501","{""participantId"":""83A860C3DF5E452FAAA2717D7378A787"",""assignmentId"":""282814d2-ea24-49ee-8895-4f2503cbc675"",""projectId"":""a0a8f18c-a66e-4ba7-a170-23efbdc67501""}","https://test12345.live/?participantId=83A860C3DF5E452FAAA2717D7378A787&assignmentId=282814d2-ea24-49ee-8895-4f2503cbc675&projectId=a0a8f18c-a66e-4ba7-a170-23efbdc67501","83A860C3DF5E452FAAA2717D7378A787-2024-11-24-18-47-37","","","","","","",""
"","","","","","instructions","1","49520","0.0-1.0","83A860C3DF5E452FAAA2717D7378A787","83A860C3DF5E452FAAA2717D7378A787","282814d2-ea24-49ee-8895-4f2503cbc675","a0a8f18c-a66e-4ba7-a170-23efbdc67501","{""participantId"":""83A860C3DF5E452FAAA2717D7378A787"",""assignmentId"":""282814d2-ea24-49ee-8895-4f2503cbc675"",""projectId"":""a0a8f18c-a66e-4ba7-a170-23efbdc67501""}","https://test12345.live/?participantId=83A860C3DF5E452FAAA2717D7378A787&assignmentId=282814d2-ea24-49ee-8895-4f2503cbc675&projectId=a0a8f18c-a66e-4ba7-a170-23efbdc67501","83A860C3DF5E452FAAA2717D7378A787-2024-11-24-18-47-37","[{""page_index"":0,""viewing_time"":45713}]","45713","","","","",""
"","","","","","instructions","2","97788","0.0-2.0","83A860C3DF5E452FAAA2717D7378A787","83A860C3DF5E452FAAA2717D7378A787","282814d2-ea24-49ee-8895-4f2503cbc675","a0a8f18c-a66e-4ba7-a170-23efbdc67501","{""participantId"":""83A860C3DF5E452FAAA2717D7378A787"",""assignmentId"":""282814d2-ea24-49ee-8895-4f2503cbc675"",""projectId"":""a0a8f18c-a66e-4ba7-a170-23efbdc67501""}","https://test12345.live/?participantId=83A860C3DF5E452FAAA2717D7378A787&assignmentId=282814d2-ea24-49ee-8895-4f2503cbc675&projectId=a0a8f18c-a66e-4ba7-a170-23efbdc67501","83A860C3DF5E452FAAA2717D7378A787-2024-11-24-18-47-37","[{""page_index"":0,""viewing_time"":48268}]","48268","","","","",""
"true","","","","","fullscreen","3","105603","0.0-3.0","83A860C3DF5E452FAAA2717D7378A787","83A860C3DF5E452FAAA2717D7378A787","282814d2-ea24-49ee-8895-4f2503cbc675","a0a8f18c-a66e-4ba7-a170-23efbdc67501","{""participantId"":""83A860C3DF5E452FAAA2717D7378A787"",""assignmentId"":""282814d2-ea24-49ee-8895-4f2503cbc675"",""projectId"":""a0a8f18c-a66e-4ba7-a170-23efbdc67501""}","https://test12345.live/?participantId=83A860C3DF5E452FAAA2717D7378A787&assignmentId=282814d2-ea24-49ee-8895-4f2503cbc675&projectId=a0a8f18c-a66e-4ba7-a170-23efbdc67501","83A860C3DF5E452FAAA2717D7378A787-2024-11-24-18-47-37","","6806","","","","",""
"","","","","","initialize-microphone","4","116446","0.0-4.0-0.0","83A860C3DF5E452FAAA2717D7378A787","83A860C3DF5E452FAAA2717D7378A787","282814d2-ea24-49ee-8895-4f2503cbc675","a0a8f18c-a66e-4ba7-a170-23efbdc67501","{""participantId"":""83A860C3DF5E452FAAA2717D7378A787"",""assignmentId"":""282814d2-ea24-49ee-8895-4f2503cbc675"",""projectId"":""a0a8f18c-a66e-4ba7-a170-23efbdc67501""}","https://test12345.live/?participantId=83A860C3DF5E452FAAA2717D7378A787&assignmentId=282814d2-ea24-49ee-8895-4f2503cbc675&projectId=a0a8f18c-a66e-4ba7-a170-23efbdc67501","83A860C3DF5E452FAAA2717D7378A787-2024-11-24-18-47-37","","","35fb9e82c0c4bb790e02c75bd810e0f9bd01d4f96e0c681504c12da7a4e0ed39","","","",""
"","","","","","html-audio-response","5","149711","0.0-4.0-1.0","83A860C3DF5E452FAAA2717D7378A787","83A860C3DF5E452FAAA2717D7378A787","282814d2-ea24-49ee-8895-4f2503cbc675","a0a8f18c-a66e-4ba7-a170-23efbdc67501","{""participantId"":""83A860C3DF5E452FAAA2717D7378A787"",""assignmentId"":""282814d2-ea24-49ee-8895-4f2503cbc675"",""projectId"":""a0a8f18c-a66e-4ba7-a170-23efbdc67501""}","https://test12345.live/?participantId=83A860C3DF5E452FAAA2717D7378A787&assignmentId=282814d2-ea24-49ee-8895-4f2503cbc675&projectId=a0a8f18c-a66e-4ba7-a170-23efbdc67501","83A860C3DF5E452FAAA2717D7378A787-2024-11-24-18-47-37","","14365","","<span style=""color: red; font-size: 24px""> NOW RECORDING</span>
        <p>Please test Microphone</p>","","7",""
"","","","","","html-button-response","6","151145","0.0-4.0-2.0","83A860C3DF5E452FAAA2717D7378A787","83A860C3DF5E452FAAA2717D7378A787","282814d2-ea24-49ee-8895-4f2503cbc675","a0a8f18c-a66e-4ba7-a170-23efbdc67501","{""participantId"":""83A860C3DF5E452FAAA2717D7378A787"",""assignmentId"":""282814d2-ea24-49ee-8895-4f2503cbc675"",""projectId"":""a0a8f18c-a66e-4ba7-a170-23efbdc67501""}","https://test12345.live/?participantId=83A860C3DF5E452FAAA2717D7378A787&assignmentId=282814d2-ea24-49ee-8895-4f2503cbc675&projectId=a0a8f18c-a66e-4ba7-a170-23efbdc67501","83A860C3DF5E452FAAA2717D7378A787-2024-11-24-18-47-37","","1433","","<p style=""font-size:48px; color:red;"">Is Microphone OK?</p>","1","",""
"","","","","","instructions","7","161399","0.0-5.0","83A860C3DF5E452FAAA2717D7378A787","83A860C3DF5E452FAAA2717D7378A787","282814d2-ea24-49ee-8895-4f2503cbc675","a0a8f18c-a66e-4ba7-a170-23efbdc67501","{""participantId"":""83A860C3DF5E452FAAA2717D7378A787"",""assignmentId"":""282814d2-ea24-49ee-8895-4f2503cbc675"",""projectId"":""a0a8f18c-a66e-4ba7-a170-23efbdc67501""}","https://test12345.live/?participantId=83A860C3DF5E452FAAA2717D7378A787&assignmentId=282814d2-ea24-49ee-8895-4f2503cbc675&projectId=a0a8f18c-a66e-4ba7-a170-23efbdc67501","83A860C3DF5E452FAAA2717D7378A787-2024-11-24-18-47-37","[{""page_index"":0,""viewing_time"":3425},{""page_index"":1,""viewing_time"":6827}]","10253","","","","",""
"","","","","","image-button-response","8","167412","0.0-6.0-0.0","83A860C3DF5E452FAAA2717D7378A787","83A860C3DF5E452FAAA2717D7378A787","282814d2-ea24-49ee-8895-4f2503cbc675","a0a8f18c-a66e-4ba7-a170-23efbdc67501","{""participantId"":""83A860C3DF5E452FAAA2717D7378A787"",""assignmentId"":""282814d2-ea24-49ee-8895-4f2503cbc675"",""projectId"":""a0a8f18c-a66e-4ba7-a170-23efbdc67501""}","https://test12345.live/?participantId=83A860C3DF5E452FAAA2717D7378A787&assignmentId=282814d2-ea24-49ee-8895-4f2503cbc675&projectId=a0a8f18c-a66e-4ba7-a170-23efbdc67501","83A860C3DF5E452FAAA2717D7378A787-2024-11-24-18-47-37","","null","","images/instructions/movie_0.png","null","",""
"","","","","","image-button-response","9","171923","0.0-6.0-1.0-0.0","83A860C3DF5E452FAAA2717D7378A787","83A860C3DF5E452FAAA2717D7378A787","282814d2-ea24-49ee-8895-4f2503cbc675","a0a8f18c-a66e-4ba7-a170-23efbdc67501","{""participantId"":""83A860C3DF5E452FAAA2717D7378A787"",""assignmentId"":""282814d2-ea24-49ee-8895-4f2503cbc675"",""projectId"":""a0a8f18c-a66e-4ba7-a170-23efbdc67501""}","https://test12345.live/?participantId=83A860C3DF5E452FAAA2717D7378A787&assignmentId=282814d2-ea24-49ee-8895-4f2503cbc675&projectId=a0a8f18c-a66e-4ba7-a170-23efbdc67501","83A860C3DF5E452FAAA2717D7378A787-2024-11-24-18-47-37","","null","","images/instructions/movie_1.png","null","",""
"","","","","","image-button-response","10","174424","0.0-6.0-1.0-1.0","83A860C3DF5E452FAAA2717D7378A787","83A860C3DF5E452FAAA2717D7378A787","282814d2-ea24-49ee-8895-4f2503cbc675","a0a8f18c-a66e-4ba7-a170-23efbdc67501","{""participantId"":""83A860C3DF5E452FAAA2717D7378A787"",""assignmentId"":""282814d2-ea24-49ee-8895-4f2503cbc675"",""projectId"":""a0a8f18c-a66e-4ba7-a170-23efbdc67501""}","https://test12345.live/?participantId=83A860C3DF5E452FAAA2717D7378A787&assignmentId=282814d2-ea24-49ee-8895-4f2503cbc675&projectId=a0a8f18c-a66e-4ba7-a170-23efbdc67501","83A860C3DF5E452FAAA2717D7378A787-2024-11-24-18-47-37","","2499","","images/instructions/movie_1.png","0","",""
"","","","","","image-button-response","11","176232","0.0-6.0-1.0-2.0","83A860C3DF5E452FAAA2717D7378A787","83A860C3DF5E452FAAA2717D7378A787","282814d2-ea24-49ee-8895-4f2503cbc675","a0a8f18c-a66e-4ba7-a170-23efbdc67501","{""participantId"":""83A860C3DF5E452FAAA2717D7378A787"",""assignmentId"":""282814d2-ea24-49ee-8895-4f2503cbc675"",""projectId"":""a0a8f18c-a66e-4ba7-a170-23efbdc67501""}","https://test12345.live/?participantId=83A860C3DF5E452FAAA2717D7378A787&assignmentId=282814d2-ea24-49ee-8895-4f2503cbc675&projectId=a0a8f18c-a66e-4ba7-a170-23efbdc67501","83A860C3DF5E452FAAA2717D7378A787-2024-11-24-18-47-37","","null","","[]","null","",""
"","","","","","image-button-response","12","180744","0.0-6.0-1.0-0.1","83A860C3DF5E452FAAA2717D7378A787","83A860C3DF5E452FAAA2717D7378A787","282814d2-ea24-49ee-8895-4f2503cbc675","a0a8f18c-a66e-4ba7-a170-23efbdc67501","{""participantId"":""83A860C3DF5E452FAAA2717D7378A787"",""assignmentId"":""282814d2-ea24-49ee-8895-4f2503cbc675"",""projectId"":""a0a8f18c-a66e-4ba7-a170-23efbdc67501""}","https://test12345.live/?participantId=83A860C3DF5E452FAAA2717D7378A787&assignmentId=282814d2-ea24-49ee-8895-4f2503cbc675&projectId=a0a8f18c-a66e-4ba7-a170-23efbdc67501","83A860C3DF5E452FAAA2717D7378A787-2024-11-24-18-47-37","","null","","images/instructions/movie_2.png","null","",""
"","","","","","image-button-response","13","182859","0.0-6.0-1.0-1.1","83A860C3DF5E452FAAA2717D7378A787","83A860C3DF5E452FAAA2717D7378A787","282814d2-ea24-49ee-8895-4f2503cbc675","a0a8f18c-a66e-4ba7-a170-23efbdc67501","{""participantId"":""83A860C3DF5E452FAAA2717D7378A787"",""assignmentId"":""282814d2-ea24-49ee-8895-4f2503cbc675"",""projectId"":""a0a8f18c-a66e-4ba7-a170-23efbdc67501""}","https://test12345.live/?participantId=83A860C3DF5E452FAAA2717D7378A787&assignmentId=282814d2-ea24-49ee-8895-4f2503cbc675&projectId=a0a8f18c-a66e-4ba7-a170-23efbdc67501","83A860C3DF5E452FAAA2717D7378A787-2024-11-24-18-47-37","","2113","","images/instructions/movie_2.png","0","",""
"","","","","","image-button-response","14","184666","0.0-6.0-1.0-2.1","83A860C3DF5E452FAAA2717D7378A787","83A860C3DF5E452FAAA2717D7378A787","282814d2-ea24-49ee-8895-4f2503cbc675","a0a8f18c-a66e-4ba7-a170-23efbdc67501","{""participantId"":""83A860C3DF5E452FAAA2717D7378A787"",""assignmentId"":""282814d2-ea24-49ee-8895-4f2503cbc675"",""projectId"":""a0a8f18c-a66e-4ba7-a170-23efbdc67501""}","https://test12345.live/?participantId=83A860C3DF5E452FAAA2717D7378A787&assignmentId=282814d2-ea24-49ee-8895-4f2503cbc675&projectId=a0a8f18c-a66e-4ba7-a170-23efbdc67501","83A860C3DF5E452FAAA2717D7378A787-2024-11-24-18-47-37","","null","","[]","null","",""
"","","","","","image-button-response","15","189171","0.0-6.0-1.0-0.2","83A860C3DF5E452FAAA2717D7378A787","83A860C3DF5E452FAAA2717D7378A787","282814d2-ea24-49ee-8895-4f2503cbc675","a0a8f18c-a66e-4ba7-a170-23efbdc67501","{""participantId"":""83A860C3DF5E452FAAA2717D7378A787"",""assignmentId"":""282814d2-ea24-49ee-8895-4f2503cbc675"",""projectId"":""a0a8f18c-a66e-4ba7-a170-23efbdc67501""}","https://test12345.live/?participantId=83A860C3DF5E452FAAA2717D7378A787&assignmentId=282814d2-ea24-49ee-8895-4f2503cbc675&projectId=a0a8f18c-a66e-4ba7-a170-23efbdc67501","83A860C3DF5E452FAAA2717D7378A787-2024-11-24-18-47-37","","null","","images/instructions/movie_3.png","null","",""
"","","","","","image-button-response","16","190036","0.0-6.0-1.0-1.2","83A860C3DF5E452FAAA2717D7378A787","83A860C3DF5E452FAAA2717D7378A787","282814d2-ea24-49ee-8895-4f2503cbc675","a0a8f18c-a66e-4ba7-a170-23efbdc67501","{""participantId"":""83A860C3DF5E452FAAA2717D7378A787"",""assignmentId"":""282814d2-ea24-49ee-8895-4f2503cbc675"",""projectId"":""a0a8f18c-a66e-4ba7-a170-23efbdc67501""}","https://test12345.live/?participantId=83A860C3DF5E452FAAA2717D7378A787&assignmentId=282814d2-ea24-49ee-8895-4f2503cbc675&projectId=a0a8f18c-a66e-4ba7-a170-23efbdc67501","83A860C3DF5E452FAAA2717D7378A787-2024-11-24-18-47-37","","863","","images/instructions/movie_3.png","0","",""
"","","","","","image-button-response","17","191841","0.0-6.0-1.0-2.2","83A860C3DF5E452FAAA2717D7378A787","83A860C3DF5E452FAAA2717D7378A787","282814d2-ea24-49ee-8895-4f2503cbc675","a0a8f18c-a66e-4ba7-a170-23efbdc67501","{""participantId"":""83A860C3DF5E452FAAA2717D7378A787"",""assignmentId"":""282814d2-ea24-49ee-8895-4f2503cbc675"",""projectId"":""a0a8f18c-a66e-4ba7-a170-23efbdc67501""}","https://test12345.live/?participantId=83A860C3DF5E452FAAA2717D7378A787&assignmentId=282814d2-ea24-49ee-8895-4f2503cbc675&projectId=a0a8f18c-a66e-4ba7-a170-23efbdc67501","83A860C3DF5E452FAAA2717D7378A787-2024-11-24-18-47-37","","null","","[]","null","",""
"","","","","","image-button-response","18","196345","0.0-6.0-1.0-0.3","83A860C3DF5E452FAAA2717D7378A787","83A860C3DF5E452FAAA2717D7378A787","282814d2-ea24-49ee-8895-4f2503cbc675","a0a8f18c-a66e-4ba7-a170-23efbdc67501","{""participantId"":""83A860C3DF5E452FAAA2717D7378A787"",""assignmentId"":""282814d2-ea24-49ee-8895-4f2503cbc675"",""projectId"":""a0a8f18c-a66e-4ba7-a170-23efbdc67501""}","https://test12345.live/?participantId=83A860C3DF5E452FAAA2717D7378A787&assignmentId=282814d2-ea24-49ee-8895-4f2503cbc675&projectId=a0a8f18c-a66e-4ba7-a170-23efbdc67501","83A860C3DF5E452FAAA2717D7378A787-2024-11-24-18-47-37","","null","","images/instructions/movie_4.png","null","",""
"","","","","","image-button-response","19","197894","0.0-6.0-1.0-1.3","83A860C3DF5E452FAAA2717D7378A787","83A860C3DF5E452FAAA2717D7378A787","282814d2-ea24-49ee-8895-4f2503cbc675","a0a8f18c-a66e-4ba7-a170-23efbdc67501","{""participantId"":""83A860C3DF5E452FAAA2717D7378A787"",""assignmentId"":""282814d2-ea24-49ee-8895-4f2503cbc675"",""projectId"":""a0a8f18c-a66e-4ba7-a170-23efbdc67501""}","https://test12345.live/?participantId=83A860C3DF5E452FAAA2717D7378A787&assignmentId=282814d2-ea24-49ee-8895-4f2503cbc675&projectId=a0a8f18c-a66e-4ba7-a170-23efbdc67501","83A860C3DF5E452FAAA2717D7378A787-2024-11-24-18-47-37","","1548","","images/instructions/movie_4.png","0","",""
"","","","","","image-button-response","20","199708","0.0-6.0-1.0-2.3","83A860C3DF5E452FAAA2717D7378A787","83A860C3DF5E452FAAA2717D7378A787","282814d2-ea24-49ee-8895-4f2503cbc675","a0a8f18c-a66e-4ba7-a170-23efbdc67501","{""participantId"":""83A860C3DF5E452FAAA2717D7378A787"",""assignmentId"":""282814d2-ea24-49ee-8895-4f2503cbc675"",""projectId"":""a0a8f18c-a66e-4ba7-a170-23efbdc67501""}","https://test12345.live/?participantId=83A860C3DF5E452FAAA2717D7378A787&assignmentId=282814d2-ea24-49ee-8895-4f2503cbc675&projectId=a0a8f18c-a66e-4ba7-a170-23efbdc67501","83A860C3DF5E452FAAA2717D7378A787-2024-11-24-18-47-37","","null","","[]","null","",""
"","","","","","instructions","21","205613","0.0-7.0","83A860C3DF5E452FAAA2717D7378A787","83A860C3DF5E452FAAA2717D7378A787","282814d2-ea24-49ee-8895-4f2503cbc675","a0a8f18c-a66e-4ba7-a170-23efbdc67501","{""participantId"":""83A860C3DF5E452FAAA2717D7378A787"",""assignmentId"":""282814d2-ea24-49ee-8895-4f2503cbc675"",""projectId"":""a0a8f18c-a66e-4ba7-a170-23efbdc67501""}","https://test12345.live/?participantId=83A860C3DF5E452FAAA2717D7378A787&assignmentId=282814d2-ea24-49ee-8895-4f2503cbc675&projectId=a0a8f18c-a66e-4ba7-a170-23efbdc67501","83A860C3DF5E452FAAA2717D7378A787-2024-11-24-18-47-37","[{""page_index"":0,""viewing_time"":5139},{""page_index"":1,""viewing_time"":765}]","5905","","","","",""
"","","","","","html-audio-response","22","250417","0.0-8.0","83A860C3DF5E452FAAA2717D7378A787","83A860C3DF5E452FAAA2717D7378A787","282814d2-ea24-49ee-8895-4f2503cbc675","a0a8f18c-a66e-4ba7-a170-23efbdc67501","{""participantId"":""83A860C3DF5E452FAAA2717D7378A787"",""assignmentId"":""282814d2-ea24-49ee-8895-4f2503cbc675"",""projectId"":""a0a8f18c-a66e-4ba7-a170-23efbdc67501""}","https://test12345.live/?participantId=83A860C3DF5E452FAAA2717D7378A787&assignmentId=282814d2-ea24-49ee-8895-4f2503cbc675&projectId=a0a8f18c-a66e-4ba7-a170-23efbdc67501","83A860C3DF5E452FAAA2717D7378A787-2024-11-24-18-47-37","","5006","","[""<span style=\""color: red; font-size: 24px\""> NOW RECORDING</span><p>Please say out loud all the images you saw, as many as you can remember. The images can be said in any order.</p>""]","","2",""
"","","","","","instructions","23","251410","0.0-9.0","83A860C3DF5E452FAAA2717D7378A787","83A860C3DF5E452FAAA2717D7378A787","282814d2-ea24-49ee-8895-4f2503cbc675","a0a8f18c-a66e-4ba7-a170-23efbdc67501","{""participantId"":""83A860C3DF5E452FAAA2717D7378A787"",""assignmentId"":""282814d2-ea24-49ee-8895-4f2503cbc675"",""projectId"":""a0a8f18c-a66e-4ba7-a170-23efbdc67501""}","https://test12345.live/?participantId=83A860C3DF5E452FAAA2717D7378A787&assignmentId=282814d2-ea24-49ee-8895-4f2503cbc675&projectId=a0a8f18c-a66e-4ba7-a170-23efbdc67501","83A860C3DF5E452FAAA2717D7378A787-2024-11-24-18-47-37","[{""page_index"":0,""viewing_time"":990}]","991","","","","",""
"","","","","","image-button-response","24","257422","0.0-10.0-0.0","83A860C3DF5E452FAAA2717D7378A787","83A860C3DF5E452FAAA2717D7378A787","282814d2-ea24-49ee-8895-4f2503cbc675","a0a8f18c-a66e-4ba7-a170-23efbdc67501","{""participantId"":""83A860C3DF5E452FAAA2717D7378A787"",""assignmentId"":""282814d2-ea24-49ee-8895-4f2503cbc675"",""projectId"":""a0a8f18c-a66e-4ba7-a170-23efbdc67501""}","https://test12345.live/?participantId=83A860C3DF5E452FAAA2717D7378A787&assignmentId=282814d2-ea24-49ee-8895-4f2503cbc675&projectId=a0a8f18c-a66e-4ba7-a170-23efbdc67501","83A860C3DF5E452FAAA2717D7378A787-2024-11-24-18-47-37","","null","","images/causal_sequence/museum_causal/museum_causal_0.png","null","",""
"","","","","","image-button-response","25","261933","0.0-10.0-1.0-0.0","83A860C3DF5E452FAAA2717D7378A787","83A860C3DF5E452FAAA2717D7378A787","282814d2-ea24-49ee-8895-4f2503cbc675","a0a8f18c-a66e-4ba7-a170-23efbdc67501","{""participantId"":""83A860C3DF5E452FAAA2717D7378A787"",""assignmentId"":""282814d2-ea24-49ee-8895-4f2503cbc675"",""projectId"":""a0a8f18c-a66e-4ba7-a170-23efbdc67501""}","https://test12345.live/?participantId=83A860C3DF5E452FAAA2717D7378A787&assignmentId=282814d2-ea24-49ee-8895-4f2503cbc675&projectId=a0a8f18c-a66e-4ba7-a170-23efbdc67501","83A860C3DF5E452FAAA2717D7378A787-2024-11-24-18-47-37","","null","","images/causal_sequence/museum_causal/museum_causal_1.png","null","",""
"","","","","","image-button-response","26","264022","0.0-10.0-1.0-1.0","83A860C3DF5E452FAAA2717D7378A787","83A860C3DF5E452FAAA2717D7378A787","282814d2-ea24-49ee-8895-4f2503cbc675","a0a8f18c-a66e-4ba7-a170-23efbdc67501","{""participantId"":""83A860C3DF5E452FAAA2717D7378A787"",""assignmentId"":""282814d2-ea24-49ee-8895-4f2503cbc675"",""projectId"":""a0a8f18c-a66e-4ba7-a170-23efbdc67501""}","https://test12345.live/?participantId=83A860C3DF5E452FAAA2717D7378A787&assignmentId=282814d2-ea24-49ee-8895-4f2503cbc675&projectId=a0a8f18c-a66e-4ba7-a170-23efbdc67501","83A860C3DF5E452FAAA2717D7378A787-2024-11-24-18-47-37","","2088","","images/causal_sequence/museum_causal/museum_causal_1.png","0","",""
"","","","","","image-button-response","27","265836","0.0-10.0-1.0-2.0","83A860C3DF5E452FAAA2717D7378A787","83A860C3DF5E452FAAA2717D7378A787","282814d2-ea24-49ee-8895-4f2503cbc675","a0a8f18c-a66e-4ba7-a170-23efbdc67501","{""participantId"":""83A860C3DF5E452FAAA2717D7378A787"",""assignmentId"":""282814d2-ea24-49ee-8895-4f2503cbc675"",""projectId"":""a0a8f18c-a66e-4ba7-a170-23efbdc67501""}","https://test12345.live/?participantId=83A860C3DF5E452FAAA2717D7378A787&assignmentId=282814d2-ea24-49ee-8895-4f2503cbc675&projectId=a0a8f18c-a66e-4ba7-a170-23efbdc67501","83A860C3DF5E452FAAA2717D7378A787-2024-11-24-18-47-37","","null","","[]","null","",""
"","","","","","image-button-response","28","270342","0.0-10.0-1.0-0.1","83A860C3DF5E452FAAA2717D7378A787","83A860C3DF5E452FAAA2717D7378A787","282814d2-ea24-49ee-8895-4f2503cbc675","a0a8f18c-a66e-4ba7-a170-23efbdc67501","{""participantId"":""83A860C3DF5E452FAAA2717D7378A787"",""assignmentId"":""282814d2-ea24-49ee-8895-4f2503cbc675"",""projectId"":""a0a8f18c-a66e-4ba7-a170-23efbdc67501""}","https://test12345.live/?participantId=83A860C3DF5E452FAAA2717D7378A787&assignmentId=282814d2-ea24-49ee-8895-4f2503cbc675&projectId=a0a8f18c-a66e-4ba7-a170-23efbdc67501","83A860C3DF5E452FAAA2717D7378A787-2024-11-24-18-47-37","","null","","images/causal_sequence/museum_causal/museum_causal_2.png","null","",""
"","","","","","image-button-response","29","271052","0.0-10.0-1.0-1.1","83A860C3DF5E452FAAA2717D7378A787","83A860C3DF5E452FAAA2717D7378A787","282814d2-ea24-49ee-8895-4f2503cbc675","a0a8f18c-a66e-4ba7-a170-23efbdc67501","{""participantId"":""83A860C3DF5E452FAAA2717D7378A787"",""assignmentId"":""282814d2-ea24-49ee-8895-4f2503cbc675"",""projectId"":""a0a8f18c-a66e-4ba7-a170-23efbdc67501""}","https://test12345.live/?participantId=83A860C3DF5E452FAAA2717D7378A787&assignmentId=282814d2-ea24-49ee-8895-4f2503cbc675&projectId=a0a8f18c-a66e-4ba7-a170-23efbdc67501","83A860C3DF5E452FAAA2717D7378A787-2024-11-24-18-47-37","","709","","images/causal_sequence/museum_causal/museum_causal_2.png","0","",""
"","","","","","image-button-response","30","272867","0.0-10.0-1.0-2.1","83A860C3DF5E452FAAA2717D7378A787","83A860C3DF5E452FAAA2717D7378A787","282814d2-ea24-49ee-8895-4f2503cbc675","a0a8f18c-a66e-4ba7-a170-23efbdc67501","{""participantId"":""83A860C3DF5E452FAAA2717D7378A787"",""assignmentId"":""282814d2-ea24-49ee-8895-4f2503cbc675"",""projectId"":""a0a8f18c-a66e-4ba7-a170-23efbdc67501""}","https://test12345.live/?participantId=83A860C3DF5E452FAAA2717D7378A787&assignmentId=282814d2-ea24-49ee-8895-4f2503cbc675&projectId=a0a8f18c-a66e-4ba7-a170-23efbdc67501","83A860C3DF5E452FAAA2717D7378A787-2024-11-24-18-47-37","","null","","[]","null","",""
"","","","","","image-button-response","31","277368","0.0-10.0-1.0-0.2","83A860C3DF5E452FAAA2717D7378A787","83A860C3DF5E452FAAA2717D7378A787","282814d2-ea24-49ee-8895-4f2503cbc675","a0a8f18c-a66e-4ba7-a170-23efbdc67501","{""participantId"":""83A860C3DF5E452FAAA2717D7378A787"",""assignmentId"":""282814d2-ea24-49ee-8895-4f2503cbc675"",""projectId"":""a0a8f18c-a66e-4ba7-a170-23efbdc67501""}","https://test12345.live/?participantId=83A860C3DF5E452FAAA2717D7378A787&assignmentId=282814d2-ea24-49ee-8895-4f2503cbc675&projectId=a0a8f18c-a66e-4ba7-a170-23efbdc67501","83A860C3DF5E452FAAA2717D7378A787-2024-11-24-18-47-37","","null","","images/causal_sequence/museum_causal/museum_causal_3.png","null","",""
"","","","","","image-button-response","32","277968","0.0-10.0-1.0-1.2","83A860C3DF5E452FAAA2717D7378A787","83A860C3DF5E452FAAA2717D7378A787","282814d2-ea24-49ee-8895-4f2503cbc675","a0a8f18c-a66e-4ba7-a170-23efbdc67501","{""participantId"":""83A860C3DF5E452FAAA2717D7378A787"",""assignmentId"":""282814d2-ea24-49ee-8895-4f2503cbc675"",""projectId"":""a0a8f18c-a66e-4ba7-a170-23efbdc67501""}","https://test12345.live/?participantId=83A860C3DF5E452FAAA2717D7378A787&assignmentId=282814d2-ea24-49ee-8895-4f2503cbc675&projectId=a0a8f18c-a66e-4ba7-a170-23efbdc67501","83A860C3DF5E452FAAA2717D7378A787-2024-11-24-18-47-37","","599","","images/causal_sequence/museum_causal/museum_causal_3.png","0","",""
"","","","","","image-button-response","33","279773","0.0-10.0-1.0-2.2","83A860C3DF5E452FAAA2717D7378A787","83A860C3DF5E452FAAA2717D7378A787","282814d2-ea24-49ee-8895-4f2503cbc675","a0a8f18c-a66e-4ba7-a170-23efbdc67501","{""participantId"":""83A860C3DF5E452FAAA2717D7378A787"",""assignmentId"":""282814d2-ea24-49ee-8895-4f2503cbc675"",""projectId"":""a0a8f18c-a66e-4ba7-a170-23efbdc67501""}","https://test12345.live/?participantId=83A860C3DF5E452FAAA2717D7378A787&assignmentId=282814d2-ea24-49ee-8895-4f2503cbc675&projectId=a0a8f18c-a66e-4ba7-a170-23efbdc67501","83A860C3DF5E452FAAA2717D7378A787-2024-11-24-18-47-37","","null","","[]","null","",""
"","","","","","image-button-response","34","284280","0.0-10.0-1.0-0.3","83A860C3DF5E452FAAA2717D7378A787","83A860C3DF5E452FAAA2717D7378A787","282814d2-ea24-49ee-8895-4f2503cbc675","a0a8f18c-a66e-4ba7-a170-23efbdc67501","{""participantId"":""83A860C3DF5E452FAAA2717D7378A787"",""assignmentId"":""282814d2-ea24-49ee-8895-4f2503cbc675"",""projectId"":""a0a8f18c-a66e-4ba7-a170-23efbdc67501""}","https://test12345.live/?participantId=83A860C3DF5E452FAAA2717D7378A787&assignmentId=282814d2-ea24-49ee-8895-4f2503cbc675&projectId=a0a8f18c-a66e-4ba7-a170-23efbdc67501","83A860C3DF5E452FAAA2717D7378A787-2024-11-24-18-47-37","","null","","images/causal_sequence/museum_causal/museum_causal_4.png","null","",""
"","","","","","image-button-response","35","287022","0.0-10.0-1.0-1.3","83A860C3DF5E452FAAA2717D7378A787","83A860C3DF5E452FAAA2717D7378A787","282814d2-ea24-49ee-8895-4f2503cbc675","a0a8f18c-a66e-4ba7-a170-23efbdc67501","{""participantId"":""83A860C3DF5E452FAAA2717D7378A787"",""assignmentId"":""282814d2-ea24-49ee-8895-4f2503cbc675"",""projectId"":""a0a8f18c-a66e-4ba7-a170-23efbdc67501""}","https://test12345.live/?participantId=83A860C3DF5E452FAAA2717D7378A787&assignmentId=282814d2-ea24-49ee-8895-4f2503cbc675&projectId=a0a8f18c-a66e-4ba7-a170-23efbdc67501","83A860C3DF5E452FAAA2717D7378A787-2024-11-24-18-47-37","","2741","","images/causal_sequence/museum_causal/museum_causal_4.png","1","",""
"","","","","","image-button-response","36","288835","0.0-10.0-1.0-2.3","83A860C3DF5E452FAAA2717D7378A787","83A860C3DF5E452FAAA2717D7378A787","282814d2-ea24-49ee-8895-4f2503cbc675","a0a8f18c-a66e-4ba7-a170-23efbdc67501","{""participantId"":""83A860C3DF5E452FAAA2717D7378A787"",""assignmentId"":""282814d2-ea24-49ee-8895-4f2503cbc675"",""projectId"":""a0a8f18c-a66e-4ba7-a170-23efbdc67501""}","https://test12345.live/?participantId=83A860C3DF5E452FAAA2717D7378A787&assignmentId=282814d2-ea24-49ee-8895-4f2503cbc675&projectId=a0a8f18c-a66e-4ba7-a170-23efbdc67501","83A860C3DF5E452FAAA2717D7378A787-2024-11-24-18-47-37","","null","","[]","null","",""
"","","","","","image-button-response","37","293336","0.0-10.0-1.0-0.4","83A860C3DF5E452FAAA2717D7378A787","83A860C3DF5E452FAAA2717D7378A787","282814d2-ea24-49ee-8895-4f2503cbc675","a0a8f18c-a66e-4ba7-a170-23efbdc67501","{""participantId"":""83A860C3DF5E452FAAA2717D7378A787"",""assignmentId"":""282814d2-ea24-49ee-8895-4f2503cbc675"",""projectId"":""a0a8f18c-a66e-4ba7-a170-23efbdc67501""}","https://test12345.live/?participantId=83A860C3DF5E452FAAA2717D7378A787&assignmentId=282814d2-ea24-49ee-8895-4f2503cbc675&projectId=a0a8f18c-a66e-4ba7-a170-23efbdc67501","83A860C3DF5E452FAAA2717D7378A787-2024-11-24-18-47-37","","null","","images/causal_sequence/museum_causal/museum_causal_5.png","null","",""
"","","","","","image-button-response","38","293973","0.0-10.0-1.0-1.4","83A860C3DF5E452FAAA2717D7378A787","83A860C3DF5E452FAAA2717D7378A787","282814d2-ea24-49ee-8895-4f2503cbc675","a0a8f18c-a66e-4ba7-a170-23efbdc67501","{""participantId"":""83A860C3DF5E452FAAA2717D7378A787"",""assignmentId"":""282814d2-ea24-49ee-8895-4f2503cbc675"",""projectId"":""a0a8f18c-a66e-4ba7-a170-23efbdc67501""}","https://test12345.live/?participantId=83A860C3DF5E452FAAA2717D7378A787&assignmentId=282814d2-ea24-49ee-8895-4f2503cbc675&projectId=a0a8f18c-a66e-4ba7-a170-23efbdc67501","83A860C3DF5E452FAAA2717D7378A787-2024-11-24-18-47-37","","636","","images/causal_sequence/museum_causal/museum_causal_5.png","0","",""
"","","","","","image-button-response","39","295785","0.0-10.0-1.0-2.4","83A860C3DF5E452FAAA2717D7378A787","83A860C3DF5E452FAAA2717D7378A787","282814d2-ea24-49ee-8895-4f2503cbc675","a0a8f18c-a66e-4ba7-a170-23efbdc67501","{""participantId"":""83A860C3DF5E452FAAA2717D7378A787"",""assignmentId"":""282814d2-ea24-49ee-8895-4f2503cbc675"",""projectId"":""a0a8f18c-a66e-4ba7-a170-23efbdc67501""}","https://test12345.live/?participantId=83A860C3DF5E452FAAA2717D7378A787&assignmentId=282814d2-ea24-49ee-8895-4f2503cbc675&projectId=a0a8f18c-a66e-4ba7-a170-23efbdc67501","83A860C3DF5E452FAAA2717D7378A787-2024-11-24-18-47-37","","null","","[]","null","",""
"","","","","","image-button-response","40","300289","0.0-10.0-1.0-0.5","83A860C3DF5E452FAAA2717D7378A787","83A860C3DF5E452FAAA2717D7378A787","282814d2-ea24-49ee-8895-4f2503cbc675","a0a8f18c-a66e-4ba7-a170-23efbdc67501","{""participantId"":""83A860C3DF5E452FAAA2717D7378A787"",""assignmentId"":""282814d2-ea24-49ee-8895-4f2503cbc675"",""projectId"":""a0a8f18c-a66e-4ba7-a170-23efbdc67501""}","https://test12345.live/?participantId=83A860C3DF5E452FAAA2717D7378A787&assignmentId=282814d2-ea24-49ee-8895-4f2503cbc675&projectId=a0a8f18c-a66e-4ba7-a170-23efbdc67501","83A860C3DF5E452FAAA2717D7378A787-2024-11-24-18-47-37","","null","","images/causal_sequence/museum_causal/museum_causal_6.png","null","",""
"","","","","","image-button-response","41","300872","0.0-10.0-1.0-1.5","83A860C3DF5E452FAAA2717D7378A787","83A860C3DF5E452FAAA2717D7378A787","282814d2-ea24-49ee-8895-4f2503cbc675","a0a8f18c-a66e-4ba7-a170-23efbdc67501","{""participantId"":""83A860C3DF5E452FAAA2717D7378A787"",""assignmentId"":""282814d2-ea24-49ee-8895-4f2503cbc675"",""projectId"":""a0a8f18c-a66e-4ba7-a170-23efbdc67501""}","https://test12345.live/?participantId=83A860C3DF5E452FAAA2717D7378A787&assignmentId=282814d2-ea24-49ee-8895-4f2503cbc675&projectId=a0a8f18c-a66e-4ba7-a170-23efbdc67501","83A860C3DF5E452FAAA2717D7378A787-2024-11-24-18-47-37","","581","","images/causal_sequence/museum_causal/museum_causal_6.png","0","",""
"","","","","","image-button-response","42","302678","0.0-10.0-1.0-2.5","83A860C3DF5E452FAAA2717D7378A787","83A860C3DF5E452FAAA2717D7378A787","282814d2-ea24-49ee-8895-4f2503cbc675","a0a8f18c-a66e-4ba7-a170-23efbdc67501","{""participantId"":""83A860C3DF5E452FAAA2717D7378A787"",""assignmentId"":""282814d2-ea24-49ee-8895-4f2503cbc675"",""projectId"":""a0a8f18c-a66e-4ba7-a170-23efbdc67501""}","https://test12345.live/?participantId=83A860C3DF5E452FAAA2717D7378A787&assignmentId=282814d2-ea24-49ee-8895-4f2503cbc675&projectId=a0a8f18c-a66e-4ba7-a170-23efbdc67501","83A860C3DF5E452FAAA2717D7378A787-2024-11-24-18-47-37","","null","","[]","null","",""
"","","","","","image-button-response","43","307182","0.0-10.0-1.0-0.6","83A860C3DF5E452FAAA2717D7378A787","83A860C3DF5E452FAAA2717D7378A787","282814d2-ea24-49ee-8895-4f2503cbc675","a0a8f18c-a66e-4ba7-a170-23efbdc67501","{""participantId"":""83A860C3DF5E452FAAA2717D7378A787"",""assignmentId"":""282814d2-ea24-49ee-8895-4f2503cbc675"",""projectId"":""a0a8f18c-a66e-4ba7-a170-23efbdc67501""}","https://test12345.live/?participantId=83A860C3DF5E452FAAA2717D7378A787&assignmentId=282814d2-ea24-49ee-8895-4f2503cbc675&projectId=a0a8f18c-a66e-4ba7-a170-23efbdc67501","83A860C3DF5E452FAAA2717D7378A787-2024-11-24-18-47-37","","null","","images/causal_sequence/museum_causal/museum_causal_7.png","null","",""
"","","","","","image-button-response","44","308859","0.0-10.0-1.0-1.6","83A860C3DF5E452FAAA2717D7378A787","83A860C3DF5E452FAAA2717D7378A787","282814d2-ea24-49ee-8895-4f2503cbc675","a0a8f18c-a66e-4ba7-a170-23efbdc67501","{""participantId"":""83A860C3DF5E452FAAA2717D7378A787"",""assignmentId"":""282814d2-ea24-49ee-8895-4f2503cbc675"",""projectId"":""a0a8f18c-a66e-4ba7-a170-23efbdc67501""}","https://test12345.live/?participantId=83A860C3DF5E452FAAA2717D7378A787&assignmentId=282814d2-ea24-49ee-8895-4f2503cbc675&projectId=a0a8f18c-a66e-4ba7-a170-23efbdc67501","83A860C3DF5E452FAAA2717D7378A787-2024-11-24-18-47-37","","1676","","images/causal_sequence/museum_causal/museum_causal_7.png","1","",""
"","","","","","image-button-response","45","310674","0.0-10.0-1.0-2.6","83A860C3DF5E452FAAA2717D7378A787","83A860C3DF5E452FAAA2717D7378A787","282814d2-ea24-49ee-8895-4f2503cbc675","a0a8f18c-a66e-4ba7-a170-23efbdc67501","{""participantId"":""83A860C3DF5E452FAAA2717D7378A787"",""assignmentId"":""282814d2-ea24-49ee-8895-4f2503cbc675"",""projectId"":""a0a8f18c-a66e-4ba7-a170-23efbdc67501""}","https://test12345.live/?participantId=83A860C3DF5E452FAAA2717D7378A787&assignmentId=282814d2-ea24-49ee-8895-4f2503cbc675&projectId=a0a8f18c-a66e-4ba7-a170-23efbdc67501","83A860C3DF5E452FAAA2717D7378A787-2024-11-24-18-47-37","","null","","[]","null","",""
"","","","","","image-button-response","46","315183","0.0-10.0-1.0-0.7","83A860C3DF5E452FAAA2717D7378A787","83A860C3DF5E452FAAA2717D7378A787","282814d2-ea24-49ee-8895-4f2503cbc675","a0a8f18c-a66e-4ba7-a170-23efbdc67501","{""participantId"":""83A860C3DF5E452FAAA2717D7378A787"",""assignmentId"":""282814d2-ea24-49ee-8895-4f2503cbc675"",""projectId"":""a0a8f18c-a66e-4ba7-a170-23efbdc67501""}","https://test12345.live/?participantId=83A860C3DF5E452FAAA2717D7378A787&assignmentId=282814d2-ea24-49ee-8895-4f2503cbc675&projectId=a0a8f18c-a66e-4ba7-a170-23efbdc67501","83A860C3DF5E452FAAA2717D7378A787-2024-11-24-18-47-37","","null","","images/causal_sequence/museum_causal/museum_causal_8.png","null","",""
"","","","","","image-button-response","47","315800","0.0-10.0-1.0-1.7","83A860C3DF5E452FAAA2717D7378A787","83A860C3DF5E452FAAA2717D7378A787","282814d2-ea24-49ee-8895-4f2503cbc675","a0a8f18c-a66e-4ba7-a170-23efbdc67501","{""participantId"":""83A860C3DF5E452FAAA2717D7378A787"",""assignmentId"":""282814d2-ea24-49ee-8895-4f2503cbc675"",""projectId"":""a0a8f18c-a66e-4ba7-a170-23efbdc67501""}","https://test12345.live/?participantId=83A860C3DF5E452FAAA2717D7378A787&assignmentId=282814d2-ea24-49ee-8895-4f2503cbc675&projectId=a0a8f18c-a66e-4ba7-a170-23efbdc67501","83A860C3DF5E452FAAA2717D7378A787-2024-11-24-18-47-37","","616","","images/causal_sequence/museum_causal/museum_causal_8.png","0","",""
"","","","","","image-button-response","48","317614","0.0-10.0-1.0-2.7","83A860C3DF5E452FAAA2717D7378A787","83A860C3DF5E452FAAA2717D7378A787","282814d2-ea24-49ee-8895-4f2503cbc675","a0a8f18c-a66e-4ba7-a170-23efbdc67501","{""participantId"":""83A860C3DF5E452FAAA2717D7378A787"",""assignmentId"":""282814d2-ea24-49ee-8895-4f2503cbc675"",""projectId"":""a0a8f18c-a66e-4ba7-a170-23efbdc67501""}","https://test12345.live/?participantId=83A860C3DF5E452FAAA2717D7378A787&assignmentId=282814d2-ea24-49ee-8895-4f2503cbc675&projectId=a0a8f18c-a66e-4ba7-a170-23efbdc67501","83A860C3DF5E452FAAA2717D7378A787-2024-11-24-18-47-37","","null","","[]","null","",""
"","","","","","image-button-response","49","322117","0.0-10.0-1.0-0.8","83A860C3DF5E452FAAA2717D7378A787","83A860C3DF5E452FAAA2717D7378A787","282814d2-ea24-49ee-8895-4f2503cbc675","a0a8f18c-a66e-4ba7-a170-23efbdc67501","{""participantId"":""83A860C3DF5E452FAAA2717D7378A787"",""assignmentId"":""282814d2-ea24-49ee-8895-4f2503cbc675"",""projectId"":""a0a8f18c-a66e-4ba7-a170-23efbdc67501""}","https://test12345.live/?participantId=83A860C3DF5E452FAAA2717D7378A787&assignmentId=282814d2-ea24-49ee-8895-4f2503cbc675&projectId=a0a8f18c-a66e-4ba7-a170-23efbdc67501","83A860C3DF5E452FAAA2717D7378A787-2024-11-24-18-47-37","","null","","images/causal_sequence/museum_causal/museum_causal_9.png","null","",""
"","","","","","image-button-response","50","322636","0.0-10.0-1.0-1.8","83A860C3DF5E452FAAA2717D7378A787","83A860C3DF5E452FAAA2717D7378A787","282814d2-ea24-49ee-8895-4f2503cbc675","a0a8f18c-a66e-4ba7-a170-23efbdc67501","{""participantId"":""83A860C3DF5E452FAAA2717D7378A787"",""assignmentId"":""282814d2-ea24-49ee-8895-4f2503cbc675"",""projectId"":""a0a8f18c-a66e-4ba7-a170-23efbdc67501""}","https://test12345.live/?participantId=83A860C3DF5E452FAAA2717D7378A787&assignmentId=282814d2-ea24-49ee-8895-4f2503cbc675&projectId=a0a8f18c-a66e-4ba7-a170-23efbdc67501","83A860C3DF5E452FAAA2717D7378A787-2024-11-24-18-47-37","","518","","images/causal_sequence/museum_causal/museum_causal_9.png","1","",""
"","","","","","image-button-response","51","324439","0.0-10.0-1.0-2.8","83A860C3DF5E452FAAA2717D7378A787","83A860C3DF5E452FAAA2717D7378A787","282814d2-ea24-49ee-8895-4f2503cbc675","a0a8f18c-a66e-4ba7-a170-23efbdc67501","{""participantId"":""83A860C3DF5E452FAAA2717D7378A787"",""assignmentId"":""282814d2-ea24-49ee-8895-4f2503cbc675"",""projectId"":""a0a8f18c-a66e-4ba7-a170-23efbdc67501""}","https://test12345.live/?participantId=83A860C3DF5E452FAAA2717D7378A787&assignmentId=282814d2-ea24-49ee-8895-4f2503cbc675&projectId=a0a8f18c-a66e-4ba7-a170-23efbdc67501","83A860C3DF5E452FAAA2717D7378A787-2024-11-24-18-47-37","","null","","[]","null","",""
"","","","","","image-button-response","52","328944","0.0-10.0-1.0-0.9","83A860C3DF5E452FAAA2717D7378A787","83A860C3DF5E452FAAA2717D7378A787","282814d2-ea24-49ee-8895-4f2503cbc675","a0a8f18c-a66e-4ba7-a170-23efbdc67501","{""participantId"":""83A860C3DF5E452FAAA2717D7378A787"",""assignmentId"":""282814d2-ea24-49ee-8895-4f2503cbc675"",""projectId"":""a0a8f18c-a66e-4ba7-a170-23efbdc67501""}","https://test12345.live/?participantId=83A860C3DF5E452FAAA2717D7378A787&assignmentId=282814d2-ea24-49ee-8895-4f2503cbc675&projectId=a0a8f18c-a66e-4ba7-a170-23efbdc67501","83A860C3DF5E452FAAA2717D7378A787-2024-11-24-18-47-37","","null","","images/causal_sequence/museum_causal/museum_causal_ten.png","null","",""
"","","","","","image-button-response","53","329497","0.0-10.0-1.0-1.9","83A860C3DF5E452FAAA2717D7378A787","83A860C3DF5E452FAAA2717D7378A787","282814d2-ea24-49ee-8895-4f2503cbc675","a0a8f18c-a66e-4ba7-a170-23efbdc67501","{""participantId"":""83A860C3DF5E452FAAA2717D7378A787"",""assignmentId"":""282814d2-ea24-49ee-8895-4f2503cbc675"",""projectId"":""a0a8f18c-a66e-4ba7-a170-23efbdc67501""}","https://test12345.live/?participantId=83A860C3DF5E452FAAA2717D7378A787&assignmentId=282814d2-ea24-49ee-8895-4f2503cbc675&projectId=a0a8f18c-a66e-4ba7-a170-23efbdc67501","83A860C3DF5E452FAAA2717D7378A787-2024-11-24-18-47-37","","552","","images/causal_sequence/museum_causal/museum_causal_ten.png","0","",""
"","","","","","image-button-response","54","331310","0.0-10.0-1.0-2.9","83A860C3DF5E452FAAA2717D7378A787","83A860C3DF5E452FAAA2717D7378A787","282814d2-ea24-49ee-8895-4f2503cbc675","a0a8f18c-a66e-4ba7-a170-23efbdc67501","{""participantId"":""83A860C3DF5E452FAAA2717D7378A787"",""assignmentId"":""282814d2-ea24-49ee-8895-4f2503cbc675"",""projectId"":""a0a8f18c-a66e-4ba7-a170-23efbdc67501""}","https://test12345.live/?participantId=83A860C3DF5E452FAAA2717D7378A787&assignmentId=282814d2-ea24-49ee-8895-4f2503cbc675&projectId=a0a8f18c-a66e-4ba7-a170-23efbdc67501","83A860C3DF5E452FAAA2717D7378A787-2024-11-24-18-47-37","","null","","[]","null","",""
"","","","","","html-audio-response","55","381149","0.0-11.0","83A860C3DF5E452FAAA2717D7378A787","83A860C3DF5E452FAAA2717D7378A787","282814d2-ea24-49ee-8895-4f2503cbc675","a0a8f18c-a66e-4ba7-a170-23efbdc67501","{""participantId"":""83A860C3DF5E452FAAA2717D7378A787"",""assignmentId"":""282814d2-ea24-49ee-8895-4f2503cbc675"",""projectId"":""a0a8f18c-a66e-4ba7-a170-23efbdc67501""}","https://test12345.live/?participantId=83A860C3DF5E452FAAA2717D7378A787&assignmentId=282814d2-ea24-49ee-8895-4f2503cbc675&projectId=a0a8f18c-a66e-4ba7-a170-23efbdc67501","83A860C3DF5E452FAAA2717D7378A787-2024-11-24-18-47-37","","20299","","[""<span style=\""color: red; font-size: 24px\""> NOW RECORDING</span><p>Please say out loud all the images you saw, as many as you can remember. The images can be said in any order.</p>""]","","1","museum_causal"
"","","","","","image-button-response","56","387166","0.0-12.0-0.0","83A860C3DF5E452FAAA2717D7378A787","83A860C3DF5E452FAAA2717D7378A787","282814d2-ea24-49ee-8895-4f2503cbc675","a0a8f18c-a66e-4ba7-a170-23efbdc67501","{""participantId"":""83A860C3DF5E452FAAA2717D7378A787"",""assignmentId"":""282814d2-ea24-49ee-8895-4f2503cbc675"",""projectId"":""a0a8f18c-a66e-4ba7-a170-23efbdc67501""}","https://test12345.live/?participantId=83A860C3DF5E452FAAA2717D7378A787&assignmentId=282814d2-ea24-49ee-8895-4f2503cbc675&projectId=a0a8f18c-a66e-4ba7-a170-23efbdc67501","83A860C3DF5E452FAAA2717D7378A787-2024-11-24-18-47-37","","null","","images/schematic_sequence/flight_scheme/flight_scheme_0.png","null","",""
"","","","","","image-button-response","57","391675","0.0-12.0-1.0-0.0","83A860C3DF5E452FAAA2717D7378A787","83A860C3DF5E452FAAA2717D7378A787","282814d2-ea24-49ee-8895-4f2503cbc675","a0a8f18c-a66e-4ba7-a170-23efbdc67501","{""participantId"":""83A860C3DF5E452FAAA2717D7378A787"",""assignmentId"":""282814d2-ea24-49ee-8895-4f2503cbc675"",""projectId"":""a0a8f18c-a66e-4ba7-a170-23efbdc67501""}","https://test12345.live/?participantId=83A860C3DF5E452FAAA2717D7378A787&assignmentId=282814d2-ea24-49ee-8895-4f2503cbc675&projectId=a0a8f18c-a66e-4ba7-a170-23efbdc67501","83A860C3DF5E452FAAA2717D7378A787-2024-11-24-18-47-37","","null","","images/schematic_sequence/flight_scheme/flight_scheme_1.png","null","",""
"","","","","","image-button-response","58","392487","0.0-12.0-1.0-1.0","83A860C3DF5E452FAAA2717D7378A787","83A860C3DF5E452FAAA2717D7378A787","282814d2-ea24-49ee-8895-4f2503cbc675","a0a8f18c-a66e-4ba7-a170-23efbdc67501","{""participantId"":""83A860C3DF5E452FAAA2717D7378A787"",""assignmentId"":""282814d2-ea24-49ee-8895-4f2503cbc675"",""projectId"":""a0a8f18c-a66e-4ba7-a170-23efbdc67501""}","https://test12345.live/?participantId=83A860C3DF5E452FAAA2717D7378A787&assignmentId=282814d2-ea24-49ee-8895-4f2503cbc675&projectId=a0a8f18c-a66e-4ba7-a170-23efbdc67501","83A860C3DF5E452FAAA2717D7378A787-2024-11-24-18-47-37","","811","","images/schematic_sequence/flight_scheme/flight_scheme_1.png","0","",""
"","","","","","image-button-response","59","394291","0.0-12.0-1.0-2.0","83A860C3DF5E452FAAA2717D7378A787","83A860C3DF5E452FAAA2717D7378A787","282814d2-ea24-49ee-8895-4f2503cbc675","a0a8f18c-a66e-4ba7-a170-23efbdc67501","{""participantId"":""83A860C3DF5E452FAAA2717D7378A787"",""assignmentId"":""282814d2-ea24-49ee-8895-4f2503cbc675"",""projectId"":""a0a8f18c-a66e-4ba7-a170-23efbdc67501""}","https://test12345.live/?participantId=83A860C3DF5E452FAAA2717D7378A787&assignmentId=282814d2-ea24-49ee-8895-4f2503cbc675&projectId=a0a8f18c-a66e-4ba7-a170-23efbdc67501","83A860C3DF5E452FAAA2717D7378A787-2024-11-24-18-47-37","","null","","[]","null","",""
"","","","","","image-button-response","60","398795","0.0-12.0-1.0-0.1","83A860C3DF5E452FAAA2717D7378A787","83A860C3DF5E452FAAA2717D7378A787","282814d2-ea24-49ee-8895-4f2503cbc675","a0a8f18c-a66e-4ba7-a170-23efbdc67501","{""participantId"":""83A860C3DF5E452FAAA2717D7378A787"",""assignmentId"":""282814d2-ea24-49ee-8895-4f2503cbc675"",""projectId"":""a0a8f18c-a66e-4ba7-a170-23efbdc67501""}","https://test12345.live/?participantId=83A860C3DF5E452FAAA2717D7378A787&assignmentId=282814d2-ea24-49ee-8895-4f2503cbc675&projectId=a0a8f18c-a66e-4ba7-a170-23efbdc67501","83A860C3DF5E452FAAA2717D7378A787-2024-11-24-18-47-37","","null","","images/schematic_sequence/flight_scheme/flight_scheme_6.png","null","",""
"","","","","","image-button-response","61","399461","0.0-12.0-1.0-1.1","83A860C3DF5E452FAAA2717D7378A787","83A860C3DF5E452FAAA2717D7378A787","282814d2-ea24-49ee-8895-4f2503cbc675","a0a8f18c-a66e-4ba7-a170-23efbdc67501","{""participantId"":""83A860C3DF5E452FAAA2717D7378A787"",""assignmentId"":""282814d2-ea24-49ee-8895-4f2503cbc675"",""projectId"":""a0a8f18c-a66e-4ba7-a170-23efbdc67501""}","https://test12345.live/?participantId=83A860C3DF5E452FAAA2717D7378A787&assignmentId=282814d2-ea24-49ee-8895-4f2503cbc675&projectId=a0a8f18c-a66e-4ba7-a170-23efbdc67501","83A860C3DF5E452FAAA2717D7378A787-2024-11-24-18-47-37","","665","","images/schematic_sequence/flight_scheme/flight_scheme_6.png","1","",""
"","","","","","image-button-response","62","401273","0.0-12.0-1.0-2.1","83A860C3DF5E452FAAA2717D7378A787","83A860C3DF5E452FAAA2717D7378A787","282814d2-ea24-49ee-8895-4f2503cbc675","a0a8f18c-a66e-4ba7-a170-23efbdc67501","{""participantId"":""83A860C3DF5E452FAAA2717D7378A787"",""assignmentId"":""282814d2-ea24-49ee-8895-4f2503cbc675"",""projectId"":""a0a8f18c-a66e-4ba7-a170-23efbdc67501""}","https://test12345.live/?participantId=83A860C3DF5E452FAAA2717D7378A787&assignmentId=282814d2-ea24-49ee-8895-4f2503cbc675&projectId=a0a8f18c-a66e-4ba7-a170-23efbdc67501","83A860C3DF5E452FAAA2717D7378A787-2024-11-24-18-47-37","","null","","[]","null","",""
"","","","","","image-button-response","63","405776","0.0-12.0-1.0-0.2","83A860C3DF5E452FAAA2717D7378A787","83A860C3DF5E452FAAA2717D7378A787","282814d2-ea24-49ee-8895-4f2503cbc675","a0a8f18c-a66e-4ba7-a170-23efbdc67501","{""participantId"":""83A860C3DF5E452FAAA2717D7378A787"",""assignmentId"":""282814d2-ea24-49ee-8895-4f2503cbc675"",""projectId"":""a0a8f18c-a66e-4ba7-a170-23efbdc67501""}","https://test12345.live/?participantId=83A860C3DF5E452FAAA2717D7378A787&assignmentId=282814d2-ea24-49ee-8895-4f2503cbc675&projectId=a0a8f18c-a66e-4ba7-a170-23efbdc67501","83A860C3DF5E452FAAA2717D7378A787-2024-11-24-18-47-37","","null","","images/schematic_sequence/flight_scheme/flight_scheme_2.png","null","",""
"","","","","","image-button-response","64","406648","0.0-12.0-1.0-1.2","83A860C3DF5E452FAAA2717D7378A787","83A860C3DF5E452FAAA2717D7378A787","282814d2-ea24-49ee-8895-4f2503cbc675","a0a8f18c-a66e-4ba7-a170-23efbdc67501","{""participantId"":""83A860C3DF5E452FAAA2717D7378A787"",""assignmentId"":""282814d2-ea24-49ee-8895-4f2503cbc675"",""projectId"":""a0a8f18c-a66e-4ba7-a170-23efbdc67501""}","https://test12345.live/?participantId=83A860C3DF5E452FAAA2717D7378A787&assignmentId=282814d2-ea24-49ee-8895-4f2503cbc675&projectId=a0a8f18c-a66e-4ba7-a170-23efbdc67501","83A860C3DF5E452FAAA2717D7378A787-2024-11-24-18-47-37","","870","","images/schematic_sequence/flight_scheme/flight_scheme_2.png","1","",""
"","","","","","image-button-response","65","408451","0.0-12.0-1.0-2.2","83A860C3DF5E452FAAA2717D7378A787","83A860C3DF5E452FAAA2717D7378A787","282814d2-ea24-49ee-8895-4f2503cbc675","a0a8f18c-a66e-4ba7-a170-23efbdc67501","{""participantId"":""83A860C3DF5E452FAAA2717D7378A787"",""assignmentId"":""282814d2-ea24-49ee-8895-4f2503cbc675"",""projectId"":""a0a8f18c-a66e-4ba7-a170-23efbdc67501""}","https://test12345.live/?participantId=83A860C3DF5E452FAAA2717D7378A787&assignmentId=282814d2-ea24-49ee-8895-4f2503cbc675&projectId=a0a8f18c-a66e-4ba7-a170-23efbdc67501","83A860C3DF5E452FAAA2717D7378A787-2024-11-24-18-47-37","","null","","[]","null","",""
"","","","","","image-button-response","66","412958","0.0-12.0-1.0-0.3","83A860C3DF5E452FAAA2717D7378A787","83A860C3DF5E452FAAA2717D7378A787","282814d2-ea24-49ee-8895-4f2503cbc675","a0a8f18c-a66e-4ba7-a170-23efbdc67501","{""participantId"":""83A860C3DF5E452FAAA2717D7378A787"",""assignmentId"":""282814d2-ea24-49ee-8895-4f2503cbc675"",""projectId"":""a0a8f18c-a66e-4ba7-a170-23efbdc67501""}","https://test12345.live/?participantId=83A860C3DF5E452FAAA2717D7378A787&assignmentId=282814d2-ea24-49ee-8895-4f2503cbc675&projectId=a0a8f18c-a66e-4ba7-a170-23efbdc67501","83A860C3DF5E452FAAA2717D7378A787-2024-11-24-18-47-37","","null","","images/schematic_sequence/flight_scheme/flight_scheme_5.png","null","",""
"","","","","","image-button-response","67","413444","0.0-12.0-1.0-1.3","83A860C3DF5E452FAAA2717D7378A787","83A860C3DF5E452FAAA2717D7378A787","282814d2-ea24-49ee-8895-4f2503cbc675","a0a8f18c-a66e-4ba7-a170-23efbdc67501","{""participantId"":""83A860C3DF5E452FAAA2717D7378A787"",""assignmentId"":""282814d2-ea24-49ee-8895-4f2503cbc675"",""projectId"":""a0a8f18c-a66e-4ba7-a170-23efbdc67501""}","https://test12345.live/?participantId=83A860C3DF5E452FAAA2717D7378A787&assignmentId=282814d2-ea24-49ee-8895-4f2503cbc675&projectId=a0a8f18c-a66e-4ba7-a170-23efbdc67501","83A860C3DF5E452FAAA2717D7378A787-2024-11-24-18-47-37","","485","","images/schematic_sequence/flight_scheme/flight_scheme_5.png","0","",""
"","","","","","image-button-response","68","415258","0.0-12.0-1.0-2.3","83A860C3DF5E452FAAA2717D7378A787","83A860C3DF5E452FAAA2717D7378A787","282814d2-ea24-49ee-8895-4f2503cbc675","a0a8f18c-a66e-4ba7-a170-23efbdc67501","{""participantId"":""83A860C3DF5E452FAAA2717D7378A787"",""assignmentId"":""282814d2-ea24-49ee-8895-4f2503cbc675"",""projectId"":""a0a8f18c-a66e-4ba7-a170-23efbdc67501""}","https://test12345.live/?participantId=83A860C3DF5E452FAAA2717D7378A787&assignmentId=282814d2-ea24-49ee-8895-4f2503cbc675&projectId=a0a8f18c-a66e-4ba7-a170-23efbdc67501","83A860C3DF5E452FAAA2717D7378A787-2024-11-24-18-47-37","","null","","[]","null","",""
"","","","","","image-button-response","69","419771","0.0-12.0-1.0-0.4","83A860C3DF5E452FAAA2717D7378A787","83A860C3DF5E452FAAA2717D7378A787","282814d2-ea24-49ee-8895-4f2503cbc675","a0a8f18c-a66e-4ba7-a170-23efbdc67501","{""participantId"":""83A860C3DF5E452FAAA2717D7378A787"",""assignmentId"":""282814d2-ea24-49ee-8895-4f2503cbc675"",""projectId"":""a0a8f18c-a66e-4ba7-a170-23efbdc67501""}","https://test12345.live/?participantId=83A860C3DF5E452FAAA2717D7378A787&assignmentId=282814d2-ea24-49ee-8895-4f2503cbc675&projectId=a0a8f18c-a66e-4ba7-a170-23efbdc67501","83A860C3DF5E452FAAA2717D7378A787-2024-11-24-18-47-37","","null","","images/schematic_sequence/flight_scheme/flight_scheme_9.png","null","",""
"","","","","","image-button-response","70","420984","0.0-12.0-1.0-1.4","83A860C3DF5E452FAAA2717D7378A787","83A860C3DF5E452FAAA2717D7378A787","282814d2-ea24-49ee-8895-4f2503cbc675","a0a8f18c-a66e-4ba7-a170-23efbdc67501","{""participantId"":""83A860C3DF5E452FAAA2717D7378A787"",""assignmentId"":""282814d2-ea24-49ee-8895-4f2503cbc675"",""projectId"":""a0a8f18c-a66e-4ba7-a170-23efbdc67501""}","https://test12345.live/?participantId=83A860C3DF5E452FAAA2717D7378A787&assignmentId=282814d2-ea24-49ee-8895-4f2503cbc675&projectId=a0a8f18c-a66e-4ba7-a170-23efbdc67501","83A860C3DF5E452FAAA2717D7378A787-2024-11-24-18-47-37","","1212","","images/schematic_sequence/flight_scheme/flight_scheme_9.png","0","",""
"","","","","","image-button-response","71","422786","0.0-12.0-1.0-2.4","83A860C3DF5E452FAAA2717D7378A787","83A860C3DF5E452FAAA2717D7378A787","282814d2-ea24-49ee-8895-4f2503cbc675","a0a8f18c-a66e-4ba7-a170-23efbdc67501","{""participantId"":""83A860C3DF5E452FAAA2717D7378A787"",""assignmentId"":""282814d2-ea24-49ee-8895-4f2503cbc675"",""projectId"":""a0a8f18c-a66e-4ba7-a170-23efbdc67501""}","https://test12345.live/?participantId=83A860C3DF5E452FAAA2717D7378A787&assignmentId=282814d2-ea24-49ee-8895-4f2503cbc675&projectId=a0a8f18c-a66e-4ba7-a170-23efbdc67501","83A860C3DF5E452FAAA2717D7378A787-2024-11-24-18-47-37","","null","","[]","null","",""
"","","","","","image-button-response","72","427295","0.0-12.0-1.0-0.5","83A860C3DF5E452FAAA2717D7378A787","83A860C3DF5E452FAAA2717D7378A787","282814d2-ea24-49ee-8895-4f2503cbc675","a0a8f18c-a66e-4ba7-a170-23efbdc67501","{""participantId"":""83A860C3DF5E452FAAA2717D7378A787"",""assignmentId"":""282814d2-ea24-49ee-8895-4f2503cbc675"",""projectId"":""a0a8f18c-a66e-4ba7-a170-23efbdc67501""}","https://test12345.live/?participantId=83A860C3DF5E452FAAA2717D7378A787&assignmentId=282814d2-ea24-49ee-8895-4f2503cbc675&projectId=a0a8f18c-a66e-4ba7-a170-23efbdc67501","83A860C3DF5E452FAAA2717D7378A787-2024-11-24-18-47-37","","null","","images/schematic_sequence/flight_scheme/flight_scheme_4.png","null","",""
"","","","","","image-button-response","73","428321","0.0-12.0-1.0-1.5","83A860C3DF5E452FAAA2717D7378A787","83A860C3DF5E452FAAA2717D7378A787","282814d2-ea24-49ee-8895-4f2503cbc675","a0a8f18c-a66e-4ba7-a170-23efbdc67501","{""participantId"":""83A860C3DF5E452FAAA2717D7378A787"",""assignmentId"":""282814d2-ea24-49ee-8895-4f2503cbc675"",""projectId"":""a0a8f18c-a66e-4ba7-a170-23efbdc67501""}","https://test12345.live/?participantId=83A860C3DF5E452FAAA2717D7378A787&assignmentId=282814d2-ea24-49ee-8895-4f2503cbc675&projectId=a0a8f18c-a66e-4ba7-a170-23efbdc67501","83A860C3DF5E452FAAA2717D7378A787-2024-11-24-18-47-37","","1025","","images/schematic_sequence/flight_scheme/flight_scheme_4.png","0","",""
"","","","","","image-button-response","74","430131","0.0-12.0-1.0-2.5","83A860C3DF5E452FAAA2717D7378A787","83A860C3DF5E452FAAA2717D7378A787","282814d2-ea24-49ee-8895-4f2503cbc675","a0a8f18c-a66e-4ba7-a170-23efbdc67501","{""participantId"":""83A860C3DF5E452FAAA2717D7378A787"",""assignmentId"":""282814d2-ea24-49ee-8895-4f2503cbc675"",""projectId"":""a0a8f18c-a66e-4ba7-a170-23efbdc67501""}","https://test12345.live/?participantId=83A860C3DF5E452FAAA2717D7378A787&assignmentId=282814d2-ea24-49ee-8895-4f2503cbc675&projectId=a0a8f18c-a66e-4ba7-a170-23efbdc67501","83A860C3DF5E452FAAA2717D7378A787-2024-11-24-18-47-37","","null","","[]","null","",""
"","","","","","image-button-response","75","434635","0.0-12.0-1.0-0.6","83A860C3DF5E452FAAA2717D7378A787","83A860C3DF5E452FAAA2717D7378A787","282814d2-ea24-49ee-8895-4f2503cbc675","a0a8f18c-a66e-4ba7-a170-23efbdc67501","{""participantId"":""83A860C3DF5E452FAAA2717D7378A787"",""assignmentId"":""282814d2-ea24-49ee-8895-4f2503cbc675"",""projectId"":""a0a8f18c-a66e-4ba7-a170-23efbdc67501""}","https://test12345.live/?participantId=83A860C3DF5E452FAAA2717D7378A787&assignmentId=282814d2-ea24-49ee-8895-4f2503cbc675&projectId=a0a8f18c-a66e-4ba7-a170-23efbdc67501","83A860C3DF5E452FAAA2717D7378A787-2024-11-24-18-47-37","","null","","images/schematic_sequence/flight_scheme/flight_scheme_ten.png","null","",""
"","","","","","image-button-response","76","435547","0.0-12.0-1.0-1.6","83A860C3DF5E452FAAA2717D7378A787","83A860C3DF5E452FAAA2717D7378A787","282814d2-ea24-49ee-8895-4f2503cbc675","a0a8f18c-a66e-4ba7-a170-23efbdc67501","{""participantId"":""83A860C3DF5E452FAAA2717D7378A787"",""assignmentId"":""282814d2-ea24-49ee-8895-4f2503cbc675"",""projectId"":""a0a8f18c-a66e-4ba7-a170-23efbdc67501""}","https://test12345.live/?participantId=83A860C3DF5E452FAAA2717D7378A787&assignmentId=282814d2-ea24-49ee-8895-4f2503cbc675&projectId=a0a8f18c-a66e-4ba7-a170-23efbdc67501","83A860C3DF5E452FAAA2717D7378A787-2024-11-24-18-47-37","","910","","images/schematic_sequence/flight_scheme/flight_scheme_ten.png","0","",""
"","","","","","image-button-response","77","437352","0.0-12.0-1.0-2.6","83A860C3DF5E452FAAA2717D7378A787","83A860C3DF5E452FAAA2717D7378A787","282814d2-ea24-49ee-8895-4f2503cbc675","a0a8f18c-a66e-4ba7-a170-23efbdc67501","{""participantId"":""83A860C3DF5E452FAAA2717D7378A787"",""assignmentId"":""282814d2-ea24-49ee-8895-4f2503cbc675"",""projectId"":""a0a8f18c-a66e-4ba7-a170-23efbdc67501""}","https://test12345.live/?participantId=83A860C3DF5E452FAAA2717D7378A787&assignmentId=282814d2-ea24-49ee-8895-4f2503cbc675&projectId=a0a8f18c-a66e-4ba7-a170-23efbdc67501","83A860C3DF5E452FAAA2717D7378A787-2024-11-24-18-47-37","","null","","[]","null","",""
"","","","","","image-button-response","78","441857","0.0-12.0-1.0-0.7","83A860C3DF5E452FAAA2717D7378A787","83A860C3DF5E452FAAA2717D7378A787","282814d2-ea24-49ee-8895-4f2503cbc675","a0a8f18c-a66e-4ba7-a170-23efbdc67501","{""participantId"":""83A860C3DF5E452FAAA2717D7378A787"",""assignmentId"":""282814d2-ea24-49ee-8895-4f2503cbc675"",""projectId"":""a0a8f18c-a66e-4ba7-a170-23efbdc67501""}","https://test12345.live/?participantId=83A860C3DF5E452FAAA2717D7378A787&assignmentId=282814d2-ea24-49ee-8895-4f2503cbc675&projectId=a0a8f18c-a66e-4ba7-a170-23efbdc67501","83A860C3DF5E452FAAA2717D7378A787-2024-11-24-18-47-37","","null","","images/schematic_sequence/flight_scheme/flight_scheme_3.png","null","",""
"","","","","","image-button-response","79","442265","0.0-12.0-1.0-1.7","83A860C3DF5E452FAAA2717D7378A787","83A860C3DF5E452FAAA2717D7378A787","282814d2-ea24-49ee-8895-4f2503cbc675","a0a8f18c-a66e-4ba7-a170-23efbdc67501","{""participantId"":""83A860C3DF5E452FAAA2717D7378A787"",""assignmentId"":""282814d2-ea24-49ee-8895-4f2503cbc675"",""projectId"":""a0a8f18c-a66e-4ba7-a170-23efbdc67501""}","https://test12345.live/?participantId=83A860C3DF5E452FAAA2717D7378A787&assignmentId=282814d2-ea24-49ee-8895-4f2503cbc675&projectId=a0a8f18c-a66e-4ba7-a170-23efbdc67501","83A860C3DF5E452FAAA2717D7378A787-2024-11-24-18-47-37","","407","","images/schematic_sequence/flight_scheme/flight_scheme_3.png","0","",""
"","","","","","image-button-response","80","444069","0.0-12.0-1.0-2.7","83A860C3DF5E452FAAA2717D7378A787","83A860C3DF5E452FAAA2717D7378A787","282814d2-ea24-49ee-8895-4f2503cbc675","a0a8f18c-a66e-4ba7-a170-23efbdc67501","{""participantId"":""83A860C3DF5E452FAAA2717D7378A787"",""assignmentId"":""282814d2-ea24-49ee-8895-4f2503cbc675"",""projectId"":""a0a8f18c-a66e-4ba7-a170-23efbdc67501""}","https://test12345.live/?participantId=83A860C3DF5E452FAAA2717D7378A787&assignmentId=282814d2-ea24-49ee-8895-4f2503cbc675&projectId=a0a8f18c-a66e-4ba7-a170-23efbdc67501","83A860C3DF5E452FAAA2717D7378A787-2024-11-24-18-47-37","","null","","[]","null","",""
"","","","","","image-button-response","81","448578","0.0-12.0-1.0-0.8","83A860C3DF5E452FAAA2717D7378A787","83A860C3DF5E452FAAA2717D7378A787","282814d2-ea24-49ee-8895-4f2503cbc675","a0a8f18c-a66e-4ba7-a170-23efbdc67501","{""participantId"":""83A860C3DF5E452FAAA2717D7378A787"",""assignmentId"":""282814d2-ea24-49ee-8895-4f2503cbc675"",""projectId"":""a0a8f18c-a66e-4ba7-a170-23efbdc67501""}","https://test12345.live/?participantId=83A860C3DF5E452FAAA2717D7378A787&assignmentId=282814d2-ea24-49ee-8895-4f2503cbc675&projectId=a0a8f18c-a66e-4ba7-a170-23efbdc67501","83A860C3DF5E452FAAA2717D7378A787-2024-11-24-18-47-37","","null","","images/schematic_sequence/flight_scheme/flight_scheme_8.png","null","",""
"","","","","","image-button-response","82","449100","0.0-12.0-1.0-1.8","83A860C3DF5E452FAAA2717D7378A787","83A860C3DF5E452FAAA2717D7378A787","282814d2-ea24-49ee-8895-4f2503cbc675","a0a8f18c-a66e-4ba7-a170-23efbdc67501","{""participantId"":""83A860C3DF5E452FAAA2717D7378A787"",""assignmentId"":""282814d2-ea24-49ee-8895-4f2503cbc675"",""projectId"":""a0a8f18c-a66e-4ba7-a170-23efbdc67501""}","https://test12345.live/?participantId=83A860C3DF5E452FAAA2717D7378A787&assignmentId=282814d2-ea24-49ee-8895-4f2503cbc675&projectId=a0a8f18c-a66e-4ba7-a170-23efbdc67501","83A860C3DF5E452FAAA2717D7378A787-2024-11-24-18-47-37","","521","","images/schematic_sequence/flight_scheme/flight_scheme_8.png","0","",""
"","","","","","image-button-response","83","450908","0.0-12.0-1.0-2.8","83A860C3DF5E452FAAA2717D7378A787","83A860C3DF5E452FAAA2717D7378A787","282814d2-ea24-49ee-8895-4f2503cbc675","a0a8f18c-a66e-4ba7-a170-23efbdc67501","{""participantId"":""83A860C3DF5E452FAAA2717D7378A787"",""assignmentId"":""282814d2-ea24-49ee-8895-4f2503cbc675"",""projectId"":""a0a8f18c-a66e-4ba7-a170-23efbdc67501""}","https://test12345.live/?participantId=83A860C3DF5E452FAAA2717D7378A787&assignmentId=282814d2-ea24-49ee-8895-4f2503cbc675&projectId=a0a8f18c-a66e-4ba7-a170-23efbdc67501","83A860C3DF5E452FAAA2717D7378A787-2024-11-24-18-47-37","","null","","[]","null","",""
"","","","","","image-button-response","84","455413","0.0-12.0-1.0-0.9","83A860C3DF5E452FAAA2717D7378A787","83A860C3DF5E452FAAA2717D7378A787","282814d2-ea24-49ee-8895-4f2503cbc675","a0a8f18c-a66e-4ba7-a170-23efbdc67501","{""participantId"":""83A860C3DF5E452FAAA2717D7378A787"",""assignmentId"":""282814d2-ea24-49ee-8895-4f2503cbc675"",""projectId"":""a0a8f18c-a66e-4ba7-a170-23efbdc67501""}","https://test12345.live/?participantId=83A860C3DF5E452FAAA2717D7378A787&assignmentId=282814d2-ea24-49ee-8895-4f2503cbc675&projectId=a0a8f18c-a66e-4ba7-a170-23efbdc67501","83A860C3DF5E452FAAA2717D7378A787-2024-11-24-18-47-37","","null","","images/schematic_sequence/flight_scheme/flight_scheme_7.png","null","",""
"","","","","","image-button-response","85","456816","0.0-12.0-1.0-1.9","83A860C3DF5E452FAAA2717D7378A787","83A860C3DF5E452FAAA2717D7378A787","282814d2-ea24-49ee-8895-4f2503cbc675","a0a8f18c-a66e-4ba7-a170-23efbdc67501","{""participantId"":""83A860C3DF5E452FAAA2717D7378A787"",""assignmentId"":""282814d2-ea24-49ee-8895-4f2503cbc675"",""projectId"":""a0a8f18c-a66e-4ba7-a170-23efbdc67501""}","https://test12345.live/?participantId=83A860C3DF5E452FAAA2717D7378A787&assignmentId=282814d2-ea24-49ee-8895-4f2503cbc675&projectId=a0a8f18c-a66e-4ba7-a170-23efbdc67501","83A860C3DF5E452FAAA2717D7378A787-2024-11-24-18-47-37","","1402","","images/schematic_sequence/flight_scheme/flight_scheme_7.png","1","",""
"","","","","","image-button-response","86","458625","0.0-12.0-1.0-2.9","83A860C3DF5E452FAAA2717D7378A787","83A860C3DF5E452FAAA2717D7378A787","282814d2-ea24-49ee-8895-4f2503cbc675","a0a8f18c-a66e-4ba7-a170-23efbdc67501","{""participantId"":""83A860C3DF5E452FAAA2717D7378A787"",""assignmentId"":""282814d2-ea24-49ee-8895-4f2503cbc675"",""projectId"":""a0a8f18c-a66e-4ba7-a170-23efbdc67501""}","https://test12345.live/?participantId=83A860C3DF5E452FAAA2717D7378A787&assignmentId=282814d2-ea24-49ee-8895-4f2503cbc675&projectId=a0a8f18c-a66e-4ba7-a170-23efbdc67501","83A860C3DF5E452FAAA2717D7378A787-2024-11-24-18-47-37","","null","","[]","null","",""
"","","","","","html-audio-response","87","508773","0.0-13.0","83A860C3DF5E452FAAA2717D7378A787","83A860C3DF5E452FAAA2717D7378A787","282814d2-ea24-49ee-8895-4f2503cbc675","a0a8f18c-a66e-4ba7-a170-23efbdc67501","{""participantId"":""83A860C3DF5E452FAAA2717D7378A787"",""assignmentId"":""282814d2-ea24-49ee-8895-4f2503cbc675"",""projectId"":""a0a8f18c-a66e-4ba7-a170-23efbdc67501""}","https://test12345.live/?participantId=83A860C3DF5E452FAAA2717D7378A787&assignmentId=282814d2-ea24-49ee-8895-4f2503cbc675&projectId=a0a8f18c-a66e-4ba7-a170-23efbdc67501","83A860C3DF5E452FAAA2717D7378A787-2024-11-24-18-47-37","","19196","","[""<span style=\""color: red; font-size: 24px\""> NOW RECORDING</span><p>Please say out loud all the images you saw, as many as you can remember. The images can be said in any order.</p>""]","","1","flight_scheme"
"","","","","","image-button-response","88","514785","0.0-14.0-0.0","83A860C3DF5E452FAAA2717D7378A787","83A860C3DF5E452FAAA2717D7378A787","282814d2-ea24-49ee-8895-4f2503cbc675","a0a8f18c-a66e-4ba7-a170-23efbdc67501","{""participantId"":""83A860C3DF5E452FAAA2717D7378A787"",""assignmentId"":""282814d2-ea24-49ee-8895-4f2503cbc675"",""projectId"":""a0a8f18c-a66e-4ba7-a170-23efbdc67501""}","https://test12345.live/?participantId=83A860C3DF5E452FAAA2717D7378A787&assignmentId=282814d2-ea24-49ee-8895-4f2503cbc675&projectId=a0a8f18c-a66e-4ba7-a170-23efbdc67501","83A860C3DF5E452FAAA2717D7378A787-2024-11-24-18-47-37","","null","","images/semantic_sequence/physical_activity_semantic/physical_activity_semantic_0.png","null","",""
"","","","","","image-button-response","89","519292","0.0-14.0-1.0-0.0","83A860C3DF5E452FAAA2717D7378A787","83A860C3DF5E452FAAA2717D7378A787","282814d2-ea24-49ee-8895-4f2503cbc675","a0a8f18c-a66e-4ba7-a170-23efbdc67501","{""participantId"":""83A860C3DF5E452FAAA2717D7378A787"",""assignmentId"":""282814d2-ea24-49ee-8895-4f2503cbc675"",""projectId"":""a0a8f18c-a66e-4ba7-a170-23efbdc67501""}","https://test12345.live/?participantId=83A860C3DF5E452FAAA2717D7378A787&assignmentId=282814d2-ea24-49ee-8895-4f2503cbc675&projectId=a0a8f18c-a66e-4ba7-a170-23efbdc67501","83A860C3DF5E452FAAA2717D7378A787-2024-11-24-18-47-37","","null","","images/semantic_sequence/physical_activity_semantic/physical_activity_semantic_1.png","null","",""
"","","","","","image-button-response","90","520124","0.0-14.0-1.0-1.0","83A860C3DF5E452FAAA2717D7378A787","83A860C3DF5E452FAAA2717D7378A787","282814d2-ea24-49ee-8895-4f2503cbc675","a0a8f18c-a66e-4ba7-a170-23efbdc67501","{""participantId"":""83A860C3DF5E452FAAA2717D7378A787"",""assignmentId"":""282814d2-ea24-49ee-8895-4f2503cbc675"",""projectId"":""a0a8f18c-a66e-4ba7-a170-23efbdc67501""}","https://test12345.live/?participantId=83A860C3DF5E452FAAA2717D7378A787&assignmentId=282814d2-ea24-49ee-8895-4f2503cbc675&projectId=a0a8f18c-a66e-4ba7-a170-23efbdc67501","83A860C3DF5E452FAAA2717D7378A787-2024-11-24-18-47-37","","831","","images/semantic_sequence/physical_activity_semantic/physical_activity_semantic_1.png","0","",""
"","","","","","image-button-response","91","521940","0.0-14.0-1.0-2.0","83A860C3DF5E452FAAA2717D7378A787","83A860C3DF5E452FAAA2717D7378A787","282814d2-ea24-49ee-8895-4f2503cbc675","a0a8f18c-a66e-4ba7-a170-23efbdc67501","{""participantId"":""83A860C3DF5E452FAAA2717D7378A787"",""assignmentId"":""282814d2-ea24-49ee-8895-4f2503cbc675"",""projectId"":""a0a8f18c-a66e-4ba7-a170-23efbdc67501""}","https://test12345.live/?participantId=83A860C3DF5E452FAAA2717D7378A787&assignmentId=282814d2-ea24-49ee-8895-4f2503cbc675&projectId=a0a8f18c-a66e-4ba7-a170-23efbdc67501","83A860C3DF5E452FAAA2717D7378A787-2024-11-24-18-47-37","","null","","[]","null","",""
"","","","","","image-button-response","92","526449","0.0-14.0-1.0-0.1","83A860C3DF5E452FAAA2717D7378A787","83A860C3DF5E452FAAA2717D7378A787","282814d2-ea24-49ee-8895-4f2503cbc675","a0a8f18c-a66e-4ba7-a170-23efbdc67501","{""participantId"":""83A860C3DF5E452FAAA2717D7378A787"",""assignmentId"":""282814d2-ea24-49ee-8895-4f2503cbc675"",""projectId"":""a0a8f18c-a66e-4ba7-a170-23efbdc67501""}","https://test12345.live/?participantId=83A860C3DF5E452FAAA2717D7378A787&assignmentId=282814d2-ea24-49ee-8895-4f2503cbc675&projectId=a0a8f18c-a66e-4ba7-a170-23efbdc67501","83A860C3DF5E452FAAA2717D7378A787-2024-11-24-18-47-37","","null","","images/semantic_sequence/physical_activity_semantic/physical_activity_semantic_2.png","null","",""
"","","","","","image-button-response","93","527375","0.0-14.0-1.0-1.1","83A860C3DF5E452FAAA2717D7378A787","83A860C3DF5E452FAAA2717D7378A787","282814d2-ea24-49ee-8895-4f2503cbc675","a0a8f18c-a66e-4ba7-a170-23efbdc67501","{""participantId"":""83A860C3DF5E452FAAA2717D7378A787"",""assignmentId"":""282814d2-ea24-49ee-8895-4f2503cbc675"",""projectId"":""a0a8f18c-a66e-4ba7-a170-23efbdc67501""}","https://test12345.live/?participantId=83A860C3DF5E452FAAA2717D7378A787&assignmentId=282814d2-ea24-49ee-8895-4f2503cbc675&projectId=a0a8f18c-a66e-4ba7-a170-23efbdc67501","83A860C3DF5E452FAAA2717D7378A787-2024-11-24-18-47-37","","924","","images/semantic_sequence/physical_activity_semantic/physical_activity_semantic_2.png","0","",""
"","","","","","image-button-response","94","529192","0.0-14.0-1.0-2.1","83A860C3DF5E452FAAA2717D7378A787","83A860C3DF5E452FAAA2717D7378A787","282814d2-ea24-49ee-8895-4f2503cbc675","a0a8f18c-a66e-4ba7-a170-23efbdc67501","{""participantId"":""83A860C3DF5E452FAAA2717D7378A787"",""assignmentId"":""282814d2-ea24-49ee-8895-4f2503cbc675"",""projectId"":""a0a8f18c-a66e-4ba7-a170-23efbdc67501""}","https://test12345.live/?participantId=83A860C3DF5E452FAAA2717D7378A787&assignmentId=282814d2-ea24-49ee-8895-4f2503cbc675&projectId=a0a8f18c-a66e-4ba7-a170-23efbdc67501","83A860C3DF5E452FAAA2717D7378A787-2024-11-24-18-47-37","","null","","[]","null","",""
"","","","","","image-button-response","95","533708","0.0-14.0-1.0-0.2","83A860C3DF5E452FAAA2717D7378A787","83A860C3DF5E452FAAA2717D7378A787","282814d2-ea24-49ee-8895-4f2503cbc675","a0a8f18c-a66e-4ba7-a170-23efbdc67501","{""participantId"":""83A860C3DF5E452FAAA2717D7378A787"",""assignmentId"":""282814d2-ea24-49ee-8895-4f2503cbc675"",""projectId"":""a0a8f18c-a66e-4ba7-a170-23efbdc67501""}","https://test12345.live/?participantId=83A860C3DF5E452FAAA2717D7378A787&assignmentId=282814d2-ea24-49ee-8895-4f2503cbc675&projectId=a0a8f18c-a66e-4ba7-a170-23efbdc67501","83A860C3DF5E452FAAA2717D7378A787-2024-11-24-18-47-37","","null","","images/semantic_sequence/physical_activity_semantic/physical_activity_semantic_3.png","null","",""
"","","","","","image-button-response","96","534598","0.0-14.0-1.0-1.2","83A860C3DF5E452FAAA2717D7378A787","83A860C3DF5E452FAAA2717D7378A787","282814d2-ea24-49ee-8895-4f2503cbc675","a0a8f18c-a66e-4ba7-a170-23efbdc67501","{""participantId"":""83A860C3DF5E452FAAA2717D7378A787"",""assignmentId"":""282814d2-ea24-49ee-8895-4f2503cbc675"",""projectId"":""a0a8f18c-a66e-4ba7-a170-23efbdc67501""}","https://test12345.live/?participantId=83A860C3DF5E452FAAA2717D7378A787&assignmentId=282814d2-ea24-49ee-8895-4f2503cbc675&projectId=a0a8f18c-a66e-4ba7-a170-23efbdc67501","83A860C3DF5E452FAAA2717D7378A787-2024-11-24-18-47-37","","888","","images/semantic_sequence/physical_activity_semantic/physical_activity_semantic_3.png","0","",""
"","","","","","image-button-response","97","536399","0.0-14.0-1.0-2.2","83A860C3DF5E452FAAA2717D7378A787","83A860C3DF5E452FAAA2717D7378A787","282814d2-ea24-49ee-8895-4f2503cbc675","a0a8f18c-a66e-4ba7-a170-23efbdc67501","{""participantId"":""83A860C3DF5E452FAAA2717D7378A787"",""assignmentId"":""282814d2-ea24-49ee-8895-4f2503cbc675"",""projectId"":""a0a8f18c-a66e-4ba7-a170-23efbdc67501""}","https://test12345.live/?participantId=83A860C3DF5E452FAAA2717D7378A787&assignmentId=282814d2-ea24-49ee-8895-4f2503cbc675&projectId=a0a8f18c-a66e-4ba7-a170-23efbdc67501","83A860C3DF5E452FAAA2717D7378A787-2024-11-24-18-47-37","","null","","[]","null","",""
"","","","","","image-button-response","98","540905","0.0-14.0-1.0-0.3","83A860C3DF5E452FAAA2717D7378A787","83A860C3DF5E452FAAA2717D7378A787","282814d2-ea24-49ee-8895-4f2503cbc675","a0a8f18c-a66e-4ba7-a170-23efbdc67501","{""participantId"":""83A860C3DF5E452FAAA2717D7378A787"",""assignmentId"":""282814d2-ea24-49ee-8895-4f2503cbc675"",""projectId"":""a0a8f18c-a66e-4ba7-a170-23efbdc67501""}","https://test12345.live/?participantId=83A860C3DF5E452FAAA2717D7378A787&assignmentId=282814d2-ea24-49ee-8895-4f2503cbc675&projectId=a0a8f18c-a66e-4ba7-a170-23efbdc67501","83A860C3DF5E452FAAA2717D7378A787-2024-11-24-18-47-37","","null","","images/semantic_sequence/physical_activity_semantic/physical_activity_semantic_4.png","null","",""
"","","","","","image-button-response","99","541387","0.0-14.0-1.0-1.3","83A860C3DF5E452FAAA2717D7378A787","83A860C3DF5E452FAAA2717D7378A787","282814d2-ea24-49ee-8895-4f2503cbc675","a0a8f18c-a66e-4ba7-a170-23efbdc67501","{""participantId"":""83A860C3DF5E452FAAA2717D7378A787"",""assignmentId"":""282814d2-ea24-49ee-8895-4f2503cbc675"",""projectId"":""a0a8f18c-a66e-4ba7-a170-23efbdc67501""}","https://test12345.live/?participantId=83A860C3DF5E452FAAA2717D7378A787&assignmentId=282814d2-ea24-49ee-8895-4f2503cbc675&projectId=a0a8f18c-a66e-4ba7-a170-23efbdc67501","83A860C3DF5E452FAAA2717D7378A787-2024-11-24-18-47-37","","481","","images/semantic_sequence/physical_activity_semantic/physical_activity_semantic_4.png","0","",""
"","","","","","image-button-response","100","543191","0.0-14.0-1.0-2.3","83A860C3DF5E452FAAA2717D7378A787","83A860C3DF5E452FAAA2717D7378A787","282814d2-ea24-49ee-8895-4f2503cbc675","a0a8f18c-a66e-4ba7-a170-23efbdc67501","{""participantId"":""83A860C3DF5E452FAAA2717D7378A787"",""assignmentId"":""282814d2-ea24-49ee-8895-4f2503cbc675"",""projectId"":""a0a8f18c-a66e-4ba7-a170-23efbdc67501""}","https://test12345.live/?participantId=83A860C3DF5E452FAAA2717D7378A787&assignmentId=282814d2-ea24-49ee-8895-4f2503cbc675&projectId=a0a8f18c-a66e-4ba7-a170-23efbdc67501","83A860C3DF5E452FAAA2717D7378A787-2024-11-24-18-47-37","","null","","[]","null","",""
"","","","","","image-button-response","101","547700","0.0-14.0-1.0-0.4","83A860C3DF5E452FAAA2717D7378A787","83A860C3DF5E452FAAA2717D7378A787","282814d2-ea24-49ee-8895-4f2503cbc675","a0a8f18c-a66e-4ba7-a170-23efbdc67501","{""participantId"":""83A860C3DF5E452FAAA2717D7378A787"",""assignmentId"":""282814d2-ea24-49ee-8895-4f2503cbc675"",""projectId"":""a0a8f18c-a66e-4ba7-a170-23efbdc67501""}","https://test12345.live/?participantId=83A860C3DF5E452FAAA2717D7378A787&assignmentId=282814d2-ea24-49ee-8895-4f2503cbc675&projectId=a0a8f18c-a66e-4ba7-a170-23efbdc67501","83A860C3DF5E452FAAA2717D7378A787-2024-11-24-18-47-37","","null","","images/semantic_sequence/physical_activity_semantic/physical_activity_semantic_5.png","null","",""
"","","","","","image-button-response","102","549758","0.0-14.0-1.0-1.4","83A860C3DF5E452FAAA2717D7378A787","83A860C3DF5E452FAAA2717D7378A787","282814d2-ea24-49ee-8895-4f2503cbc675","a0a8f18c-a66e-4ba7-a170-23efbdc67501","{""participantId"":""83A860C3DF5E452FAAA2717D7378A787"",""assignmentId"":""282814d2-ea24-49ee-8895-4f2503cbc675"",""projectId"":""a0a8f18c-a66e-4ba7-a170-23efbdc67501""}","https://test12345.live/?participantId=83A860C3DF5E452FAAA2717D7378A787&assignmentId=282814d2-ea24-49ee-8895-4f2503cbc675&projectId=a0a8f18c-a66e-4ba7-a170-23efbdc67501","83A860C3DF5E452FAAA2717D7378A787-2024-11-24-18-47-37","","2055","","images/semantic_sequence/physical_activity_semantic/physical_activity_semantic_5.png","0","",""
"","","","","","image-button-response","103","551559","0.0-14.0-1.0-2.4","83A860C3DF5E452FAAA2717D7378A787","83A860C3DF5E452FAAA2717D7378A787","282814d2-ea24-49ee-8895-4f2503cbc675","a0a8f18c-a66e-4ba7-a170-23efbdc67501","{""participantId"":""83A860C3DF5E452FAAA2717D7378A787"",""assignmentId"":""282814d2-ea24-49ee-8895-4f2503cbc675"",""projectId"":""a0a8f18c-a66e-4ba7-a170-23efbdc67501""}","https://test12345.live/?participantId=83A860C3DF5E452FAAA2717D7378A787&assignmentId=282814d2-ea24-49ee-8895-4f2503cbc675&projectId=a0a8f18c-a66e-4ba7-a170-23efbdc67501","83A860C3DF5E452FAAA2717D7378A787-2024-11-24-18-47-37","","null","","[]","null","",""
"","","","","","image-button-response","104","556069","0.0-14.0-1.0-0.5","83A860C3DF5E452FAAA2717D7378A787","83A860C3DF5E452FAAA2717D7378A787","282814d2-ea24-49ee-8895-4f2503cbc675","a0a8f18c-a66e-4ba7-a170-23efbdc67501","{""participantId"":""83A860C3DF5E452FAAA2717D7378A787"",""assignmentId"":""282814d2-ea24-49ee-8895-4f2503cbc675"",""projectId"":""a0a8f18c-a66e-4ba7-a170-23efbdc67501""}","https://test12345.live/?participantId=83A860C3DF5E452FAAA2717D7378A787&assignmentId=282814d2-ea24-49ee-8895-4f2503cbc675&projectId=a0a8f18c-a66e-4ba7-a170-23efbdc67501","83A860C3DF5E452FAAA2717D7378A787-2024-11-24-18-47-37","","null","","images/semantic_sequence/physical_activity_semantic/physical_activity_semantic_6.png","null","",""
"","","","","","image-button-response","105","557760","0.0-14.0-1.0-1.5","83A860C3DF5E452FAAA2717D7378A787","83A860C3DF5E452FAAA2717D7378A787","282814d2-ea24-49ee-8895-4f2503cbc675","a0a8f18c-a66e-4ba7-a170-23efbdc67501","{""participantId"":""83A860C3DF5E452FAAA2717D7378A787"",""assignmentId"":""282814d2-ea24-49ee-8895-4f2503cbc675"",""projectId"":""a0a8f18c-a66e-4ba7-a170-23efbdc67501""}","https://test12345.live/?participantId=83A860C3DF5E452FAAA2717D7378A787&assignmentId=282814d2-ea24-49ee-8895-4f2503cbc675&projectId=a0a8f18c-a66e-4ba7-a170-23efbdc67501","83A860C3DF5E452FAAA2717D7378A787-2024-11-24-18-47-37","","1690","","images/semantic_sequence/physical_activity_semantic/physical_activity_semantic_6.png","0","",""
"","","","","","image-button-response","106","559571","0.0-14.0-1.0-2.5","83A860C3DF5E452FAAA2717D7378A787","83A860C3DF5E452FAAA2717D7378A787","282814d2-ea24-49ee-8895-4f2503cbc675","a0a8f18c-a66e-4ba7-a170-23efbdc67501","{""participantId"":""83A860C3DF5E452FAAA2717D7378A787"",""assignmentId"":""282814d2-ea24-49ee-8895-4f2503cbc675"",""projectId"":""a0a8f18c-a66e-4ba7-a170-23efbdc67501""}","https://test12345.live/?participantId=83A860C3DF5E452FAAA2717D7378A787&assignmentId=282814d2-ea24-49ee-8895-4f2503cbc675&projectId=a0a8f18c-a66e-4ba7-a170-23efbdc67501","83A860C3DF5E452FAAA2717D7378A787-2024-11-24-18-47-37","","null","","[]","null","",""
"","","","","","image-button-response","107","564086","0.0-14.0-1.0-0.6","83A860C3DF5E452FAAA2717D7378A787","83A860C3DF5E452FAAA2717D7378A787","282814d2-ea24-49ee-8895-4f2503cbc675","a0a8f18c-a66e-4ba7-a170-23efbdc67501","{""participantId"":""83A860C3DF5E452FAAA2717D7378A787"",""assignmentId"":""282814d2-ea24-49ee-8895-4f2503cbc675"",""projectId"":""a0a8f18c-a66e-4ba7-a170-23efbdc67501""}","https://test12345.live/?participantId=83A860C3DF5E452FAAA2717D7378A787&assignmentId=282814d2-ea24-49ee-8895-4f2503cbc675&projectId=a0a8f18c-a66e-4ba7-a170-23efbdc67501","83A860C3DF5E452FAAA2717D7378A787-2024-11-24-18-47-37","","null","","images/semantic_sequence/physical_activity_semantic/physical_activity_semantic_7.png","null","",""
"","","","","","image-button-response","108","568097","0.0-14.0-1.0-1.6","83A860C3DF5E452FAAA2717D7378A787","83A860C3DF5E452FAAA2717D7378A787","282814d2-ea24-49ee-8895-4f2503cbc675","a0a8f18c-a66e-4ba7-a170-23efbdc67501","{""participantId"":""83A860C3DF5E452FAAA2717D7378A787"",""assignmentId"":""282814d2-ea24-49ee-8895-4f2503cbc675"",""projectId"":""a0a8f18c-a66e-4ba7-a170-23efbdc67501""}","https://test12345.live/?participantId=83A860C3DF5E452FAAA2717D7378A787&assignmentId=282814d2-ea24-49ee-8895-4f2503cbc675&projectId=a0a8f18c-a66e-4ba7-a170-23efbdc67501","83A860C3DF5E452FAAA2717D7378A787-2024-11-24-18-47-37","","null","","images/semantic_sequence/physical_activity_semantic/physical_activity_semantic_7.png","null","",""
"","","","","","image-button-response","109","569906","0.0-14.0-1.0-2.6","83A860C3DF5E452FAAA2717D7378A787","83A860C3DF5E452FAAA2717D7378A787","282814d2-ea24-49ee-8895-4f2503cbc675","a0a8f18c-a66e-4ba7-a170-23efbdc67501","{""participantId"":""83A860C3DF5E452FAAA2717D7378A787"",""assignmentId"":""282814d2-ea24-49ee-8895-4f2503cbc675"",""projectId"":""a0a8f18c-a66e-4ba7-a170-23efbdc67501""}","https://test12345.live/?participantId=83A860C3DF5E452FAAA2717D7378A787&assignmentId=282814d2-ea24-49ee-8895-4f2503cbc675&projectId=a0a8f18c-a66e-4ba7-a170-23efbdc67501","83A860C3DF5E452FAAA2717D7378A787-2024-11-24-18-47-37","","null","","[]","null","",""
"","","","","","image-button-response","110","574409","0.0-14.0-1.0-0.7","83A860C3DF5E452FAAA2717D7378A787","83A860C3DF5E452FAAA2717D7378A787","282814d2-ea24-49ee-8895-4f2503cbc675","a0a8f18c-a66e-4ba7-a170-23efbdc67501","{""participantId"":""83A860C3DF5E452FAAA2717D7378A787"",""assignmentId"":""282814d2-ea24-49ee-8895-4f2503cbc675"",""projectId"":""a0a8f18c-a66e-4ba7-a170-23efbdc67501""}","https://test12345.live/?participantId=83A860C3DF5E452FAAA2717D7378A787&assignmentId=282814d2-ea24-49ee-8895-4f2503cbc675&projectId=a0a8f18c-a66e-4ba7-a170-23efbdc67501","83A860C3DF5E452FAAA2717D7378A787-2024-11-24-18-47-37","","null","","images/semantic_sequence/physical_activity_semantic/physical_activity_semantic_8.png","null","",""
"","","","","","image-button-response","111","574968","0.0-14.0-1.0-1.7","83A860C3DF5E452FAAA2717D7378A787","83A860C3DF5E452FAAA2717D7378A787","282814d2-ea24-49ee-8895-4f2503cbc675","a0a8f18c-a66e-4ba7-a170-23efbdc67501","{""participantId"":""83A860C3DF5E452FAAA2717D7378A787"",""assignmentId"":""282814d2-ea24-49ee-8895-4f2503cbc675"",""projectId"":""a0a8f18c-a66e-4ba7-a170-23efbdc67501""}","https://test12345.live/?participantId=83A860C3DF5E452FAAA2717D7378A787&assignmentId=282814d2-ea24-49ee-8895-4f2503cbc675&projectId=a0a8f18c-a66e-4ba7-a170-23efbdc67501","83A860C3DF5E452FAAA2717D7378A787-2024-11-24-18-47-37","","558","","images/semantic_sequence/physical_activity_semantic/physical_activity_semantic_8.png","0","",""
"","","","","","image-button-response","112","576777","0.0-14.0-1.0-2.7","83A860C3DF5E452FAAA2717D7378A787","83A860C3DF5E452FAAA2717D7378A787","282814d2-ea24-49ee-8895-4f2503cbc675","a0a8f18c-a66e-4ba7-a170-23efbdc67501","{""participantId"":""83A860C3DF5E452FAAA2717D7378A787"",""assignmentId"":""282814d2-ea24-49ee-8895-4f2503cbc675"",""projectId"":""a0a8f18c-a66e-4ba7-a170-23efbdc67501""}","https://test12345.live/?participantId=83A860C3DF5E452FAAA2717D7378A787&assignmentId=282814d2-ea24-49ee-8895-4f2503cbc675&projectId=a0a8f18c-a66e-4ba7-a170-23efbdc67501","83A860C3DF5E452FAAA2717D7378A787-2024-11-24-18-47-37","","null","","[]","null","",""
"","","","","","image-button-response","113","581285","0.0-14.0-1.0-0.8","83A860C3DF5E452FAAA2717D7378A787","83A860C3DF5E452FAAA2717D7378A787","282814d2-ea24-49ee-8895-4f2503cbc675","a0a8f18c-a66e-4ba7-a170-23efbdc67501","{""participantId"":""83A860C3DF5E452FAAA2717D7378A787"",""assignmentId"":""282814d2-ea24-49ee-8895-4f2503cbc675"",""projectId"":""a0a8f18c-a66e-4ba7-a170-23efbdc67501""}","https://test12345.live/?participantId=83A860C3DF5E452FAAA2717D7378A787&assignmentId=282814d2-ea24-49ee-8895-4f2503cbc675&projectId=a0a8f18c-a66e-4ba7-a170-23efbdc67501","83A860C3DF5E452FAAA2717D7378A787-2024-11-24-18-47-37","","null","","images/semantic_sequence/physical_activity_semantic/physical_activity_semantic_9.png","null","",""
"","","","","","image-button-response","114","583117","0.0-14.0-1.0-1.8","83A860C3DF5E452FAAA2717D7378A787","83A860C3DF5E452FAAA2717D7378A787","282814d2-ea24-49ee-8895-4f2503cbc675","a0a8f18c-a66e-4ba7-a170-23efbdc67501","{""participantId"":""83A860C3DF5E452FAAA2717D7378A787"",""assignmentId"":""282814d2-ea24-49ee-8895-4f2503cbc675"",""projectId"":""a0a8f18c-a66e-4ba7-a170-23efbdc67501""}","https://test12345.live/?participantId=83A860C3DF5E452FAAA2717D7378A787&assignmentId=282814d2-ea24-49ee-8895-4f2503cbc675&projectId=a0a8f18c-a66e-4ba7-a170-23efbdc67501","83A860C3DF5E452FAAA2717D7378A787-2024-11-24-18-47-37","","1831","","images/semantic_sequence/physical_activity_semantic/physical_activity_semantic_9.png","0","",""
"","","","","","image-button-response","115","584929","0.0-14.0-1.0-2.8","83A860C3DF5E452FAAA2717D7378A787","83A860C3DF5E452FAAA2717D7378A787","282814d2-ea24-49ee-8895-4f2503cbc675","a0a8f18c-a66e-4ba7-a170-23efbdc67501","{""participantId"":""83A860C3DF5E452FAAA2717D7378A787"",""assignmentId"":""282814d2-ea24-49ee-8895-4f2503cbc675"",""projectId"":""a0a8f18c-a66e-4ba7-a170-23efbdc67501""}","https://test12345.live/?participantId=83A860C3DF5E452FAAA2717D7378A787&assignmentId=282814d2-ea24-49ee-8895-4f2503cbc675&projectId=a0a8f18c-a66e-4ba7-a170-23efbdc67501","83A860C3DF5E452FAAA2717D7378A787-2024-11-24-18-47-37","","null","","[]","null","",""
"","","","","","image-button-response","116","589432","0.0-14.0-1.0-0.9","83A860C3DF5E452FAAA2717D7378A787","83A860C3DF5E452FAAA2717D7378A787","282814d2-ea24-49ee-8895-4f2503cbc675","a0a8f18c-a66e-4ba7-a170-23efbdc67501","{""participantId"":""83A860C3DF5E452FAAA2717D7378A787"",""assignmentId"":""282814d2-ea24-49ee-8895-4f2503cbc675"",""projectId"":""a0a8f18c-a66e-4ba7-a170-23efbdc67501""}","https://test12345.live/?participantId=83A860C3DF5E452FAAA2717D7378A787&assignmentId=282814d2-ea24-49ee-8895-4f2503cbc675&projectId=a0a8f18c-a66e-4ba7-a170-23efbdc67501","83A860C3DF5E452FAAA2717D7378A787-2024-11-24-18-47-37","","null","","images/semantic_sequence/physical_activity_semantic/physical_activity_semantic_ten.png","null","",""
"","","","","","image-button-response","117","592174","0.0-14.0-1.0-1.9","83A860C3DF5E452FAAA2717D7378A787","83A860C3DF5E452FAAA2717D7378A787","282814d2-ea24-49ee-8895-4f2503cbc675","a0a8f18c-a66e-4ba7-a170-23efbdc67501","{""participantId"":""83A860C3DF5E452FAAA2717D7378A787"",""assignmentId"":""282814d2-ea24-49ee-8895-4f2503cbc675"",""projectId"":""a0a8f18c-a66e-4ba7-a170-23efbdc67501""}","https://test12345.live/?participantId=83A860C3DF5E452FAAA2717D7378A787&assignmentId=282814d2-ea24-49ee-8895-4f2503cbc675&projectId=a0a8f18c-a66e-4ba7-a170-23efbdc67501","83A860C3DF5E452FAAA2717D7378A787-2024-11-24-18-47-37","","2741","","images/semantic_sequence/physical_activity_semantic/physical_activity_semantic_ten.png","0","",""
"","","","","","image-button-response","118","593977","0.0-14.0-1.0-2.9","83A860C3DF5E452FAAA2717D7378A787","83A860C3DF5E452FAAA2717D7378A787","282814d2-ea24-49ee-8895-4f2503cbc675","a0a8f18c-a66e-4ba7-a170-23efbdc67501","{""participantId"":""83A860C3DF5E452FAAA2717D7378A787"",""assignmentId"":""282814d2-ea24-49ee-8895-4f2503cbc675"",""projectId"":""a0a8f18c-a66e-4ba7-a170-23efbdc67501""}","https://test12345.live/?participantId=83A860C3DF5E452FAAA2717D7378A787&assignmentId=282814d2-ea24-49ee-8895-4f2503cbc675&projectId=a0a8f18c-a66e-4ba7-a170-23efbdc67501","83A860C3DF5E452FAAA2717D7378A787-2024-11-24-18-47-37","","null","","[]","null","",""
"","","","","","html-audio-response","119","625658","0.0-15.0","83A860C3DF5E452FAAA2717D7378A787","83A860C3DF5E452FAAA2717D7378A787","282814d2-ea24-49ee-8895-4f2503cbc675","a0a8f18c-a66e-4ba7-a170-23efbdc67501","{""participantId"":""83A860C3DF5E452FAAA2717D7378A787"",""assignmentId"":""282814d2-ea24-49ee-8895-4f2503cbc675"",""projectId"":""a0a8f18c-a66e-4ba7-a170-23efbdc67501""}","https://test12345.live/?participantId=83A860C3DF5E452FAAA2717D7378A787&assignmentId=282814d2-ea24-49ee-8895-4f2503cbc675&projectId=a0a8f18c-a66e-4ba7-a170-23efbdc67501","83A860C3DF5E452FAAA2717D7378A787-2024-11-24-18-47-37","","10880","","[""<span style=\""color: red; font-size: 24px\""> NOW RECORDING</span><p>Please say out loud all the images you saw, as many as you can remember. The images can be said in any order.</p>""]","","1","physical_activity_semantic"
"","","","","","image-button-response","120","631667","0.0-16.0-0.0","83A860C3DF5E452FAAA2717D7378A787","83A860C3DF5E452FAAA2717D7378A787","282814d2-ea24-49ee-8895-4f2503cbc675","a0a8f18c-a66e-4ba7-a170-23efbdc67501","{""participantId"":""83A860C3DF5E452FAAA2717D7378A787"",""assignmentId"":""282814d2-ea24-49ee-8895-4f2503cbc675"",""projectId"":""a0a8f18c-a66e-4ba7-a170-23efbdc67501""}","https://test12345.live/?participantId=83A860C3DF5E452FAAA2717D7378A787&assignmentId=282814d2-ea24-49ee-8895-4f2503cbc675&projectId=a0a8f18c-a66e-4ba7-a170-23efbdc67501","83A860C3DF5E452FAAA2717D7378A787-2024-11-24-18-47-37","","null","","images/causal_sequence/saving_a_cat_causal/saving_a_cat_causal_0.png","null","",""
"","","","","","image-button-response","121","636173","0.0-16.0-1.0-0.0","83A860C3DF5E452FAAA2717D7378A787","83A860C3DF5E452FAAA2717D7378A787","282814d2-ea24-49ee-8895-4f2503cbc675","a0a8f18c-a66e-4ba7-a170-23efbdc67501","{""participantId"":""83A860C3DF5E452FAAA2717D7378A787"",""assignmentId"":""282814d2-ea24-49ee-8895-4f2503cbc675"",""projectId"":""a0a8f18c-a66e-4ba7-a170-23efbdc67501""}","https://test12345.live/?participantId=83A860C3DF5E452FAAA2717D7378A787&assignmentId=282814d2-ea24-49ee-8895-4f2503cbc675&projectId=a0a8f18c-a66e-4ba7-a170-23efbdc67501","83A860C3DF5E452FAAA2717D7378A787-2024-11-24-18-47-37","","null","","images/causal_sequence/saving_a_cat_causal/saving_a_cat_causal_1.png","null","",""
"","","","","","image-button-response","122","638426","0.0-16.0-1.0-1.0","83A860C3DF5E452FAAA2717D7378A787","83A860C3DF5E452FAAA2717D7378A787","282814d2-ea24-49ee-8895-4f2503cbc675","a0a8f18c-a66e-4ba7-a170-23efbdc67501","{""participantId"":""83A860C3DF5E452FAAA2717D7378A787"",""assignmentId"":""282814d2-ea24-49ee-8895-4f2503cbc675"",""projectId"":""a0a8f18c-a66e-4ba7-a170-23efbdc67501""}","https://test12345.live/?participantId=83A860C3DF5E452FAAA2717D7378A787&assignmentId=282814d2-ea24-49ee-8895-4f2503cbc675&projectId=a0a8f18c-a66e-4ba7-a170-23efbdc67501","83A860C3DF5E452FAAA2717D7378A787-2024-11-24-18-47-37","","2251","","images/causal_sequence/saving_a_cat_causal/saving_a_cat_causal_1.png","0","",""
"","","","","","image-button-response","123","640235","0.0-16.0-1.0-2.0","83A860C3DF5E452FAAA2717D7378A787","83A860C3DF5E452FAAA2717D7378A787","282814d2-ea24-49ee-8895-4f2503cbc675","a0a8f18c-a66e-4ba7-a170-23efbdc67501","{""participantId"":""83A860C3DF5E452FAAA2717D7378A787"",""assignmentId"":""282814d2-ea24-49ee-8895-4f2503cbc675"",""projectId"":""a0a8f18c-a66e-4ba7-a170-23efbdc67501""}","https://test12345.live/?participantId=83A860C3DF5E452FAAA2717D7378A787&assignmentId=282814d2-ea24-49ee-8895-4f2503cbc675&projectId=a0a8f18c-a66e-4ba7-a170-23efbdc67501","83A860C3DF5E452FAAA2717D7378A787-2024-11-24-18-47-37","","null","","[]","null","",""
"","","","","","image-button-response","124","644749","0.0-16.0-1.0-0.1","83A860C3DF5E452FAAA2717D7378A787","83A860C3DF5E452FAAA2717D7378A787","282814d2-ea24-49ee-8895-4f2503cbc675","a0a8f18c-a66e-4ba7-a170-23efbdc67501","{""participantId"":""83A860C3DF5E452FAAA2717D7378A787"",""assignmentId"":""282814d2-ea24-49ee-8895-4f2503cbc675"",""projectId"":""a0a8f18c-a66e-4ba7-a170-23efbdc67501""}","https://test12345.live/?participantId=83A860C3DF5E452FAAA2717D7378A787&assignmentId=282814d2-ea24-49ee-8895-4f2503cbc675&projectId=a0a8f18c-a66e-4ba7-a170-23efbdc67501","83A860C3DF5E452FAAA2717D7378A787-2024-11-24-18-47-37","","null","","images/causal_sequence/saving_a_cat_causal/saving_a_cat_causal_2.png","null","",""
"","","","","","image-button-response","125","647119","0.0-16.0-1.0-1.1","83A860C3DF5E452FAAA2717D7378A787","83A860C3DF5E452FAAA2717D7378A787","282814d2-ea24-49ee-8895-4f2503cbc675","a0a8f18c-a66e-4ba7-a170-23efbdc67501","{""participantId"":""83A860C3DF5E452FAAA2717D7378A787"",""assignmentId"":""282814d2-ea24-49ee-8895-4f2503cbc675"",""projectId"":""a0a8f18c-a66e-4ba7-a170-23efbdc67501""}","https://test12345.live/?participantId=83A860C3DF5E452FAAA2717D7378A787&assignmentId=282814d2-ea24-49ee-8895-4f2503cbc675&projectId=a0a8f18c-a66e-4ba7-a170-23efbdc67501","83A860C3DF5E452FAAA2717D7378A787-2024-11-24-18-47-37","","2370","","images/causal_sequence/saving_a_cat_causal/saving_a_cat_causal_2.png","1","",""
"","","","","","image-button-response","126","648922","0.0-16.0-1.0-2.1","83A860C3DF5E452FAAA2717D7378A787","83A860C3DF5E452FAAA2717D7378A787","282814d2-ea24-49ee-8895-4f2503cbc675","a0a8f18c-a66e-4ba7-a170-23efbdc67501","{""participantId"":""83A860C3DF5E452FAAA2717D7378A787"",""assignmentId"":""282814d2-ea24-49ee-8895-4f2503cbc675"",""projectId"":""a0a8f18c-a66e-4ba7-a170-23efbdc67501""}","https://test12345.live/?participantId=83A860C3DF5E452FAAA2717D7378A787&assignmentId=282814d2-ea24-49ee-8895-4f2503cbc675&projectId=a0a8f18c-a66e-4ba7-a170-23efbdc67501","83A860C3DF5E452FAAA2717D7378A787-2024-11-24-18-47-37","","null","","[]","null","",""
"","","","","","image-button-response","127","653426","0.0-16.0-1.0-0.2","83A860C3DF5E452FAAA2717D7378A787","83A860C3DF5E452FAAA2717D7378A787","282814d2-ea24-49ee-8895-4f2503cbc675","a0a8f18c-a66e-4ba7-a170-23efbdc67501","{""participantId"":""83A860C3DF5E452FAAA2717D7378A787"",""assignmentId"":""282814d2-ea24-49ee-8895-4f2503cbc675"",""projectId"":""a0a8f18c-a66e-4ba7-a170-23efbdc67501""}","https://test12345.live/?participantId=83A860C3DF5E452FAAA2717D7378A787&assignmentId=282814d2-ea24-49ee-8895-4f2503cbc675&projectId=a0a8f18c-a66e-4ba7-a170-23efbdc67501","83A860C3DF5E452FAAA2717D7378A787-2024-11-24-18-47-37","","null","","images/causal_sequence/saving_a_cat_causal/saving_a_cat_causal_3.png","null","",""
"","","","","","image-button-response","128","656147","0.0-16.0-1.0-1.2","83A860C3DF5E452FAAA2717D7378A787","83A860C3DF5E452FAAA2717D7378A787","282814d2-ea24-49ee-8895-4f2503cbc675","a0a8f18c-a66e-4ba7-a170-23efbdc67501","{""participantId"":""83A860C3DF5E452FAAA2717D7378A787"",""assignmentId"":""282814d2-ea24-49ee-8895-4f2503cbc675"",""projectId"":""a0a8f18c-a66e-4ba7-a170-23efbdc67501""}","https://test12345.live/?participantId=83A860C3DF5E452FAAA2717D7378A787&assignmentId=282814d2-ea24-49ee-8895-4f2503cbc675&projectId=a0a8f18c-a66e-4ba7-a170-23efbdc67501","83A860C3DF5E452FAAA2717D7378A787-2024-11-24-18-47-37","","2719","","images/causal_sequence/saving_a_cat_causal/saving_a_cat_causal_3.png","1","",""
"","","","","","image-button-response","129","657949","0.0-16.0-1.0-2.2","83A860C3DF5E452FAAA2717D7378A787","83A860C3DF5E452FAAA2717D7378A787","282814d2-ea24-49ee-8895-4f2503cbc675","a0a8f18c-a66e-4ba7-a170-23efbdc67501","{""participantId"":""83A860C3DF5E452FAAA2717D7378A787"",""assignmentId"":""282814d2-ea24-49ee-8895-4f2503cbc675"",""projectId"":""a0a8f18c-a66e-4ba7-a170-23efbdc67501""}","https://test12345.live/?participantId=83A860C3DF5E452FAAA2717D7378A787&assignmentId=282814d2-ea24-49ee-8895-4f2503cbc675&projectId=a0a8f18c-a66e-4ba7-a170-23efbdc67501","83A860C3DF5E452FAAA2717D7378A787-2024-11-24-18-47-37","","null","","[]","null","",""
"","","","","","image-button-response","130","662457","0.0-16.0-1.0-0.3","83A860C3DF5E452FAAA2717D7378A787","83A860C3DF5E452FAAA2717D7378A787","282814d2-ea24-49ee-8895-4f2503cbc675","a0a8f18c-a66e-4ba7-a170-23efbdc67501","{""participantId"":""83A860C3DF5E452FAAA2717D7378A787"",""assignmentId"":""282814d2-ea24-49ee-8895-4f2503cbc675"",""projectId"":""a0a8f18c-a66e-4ba7-a170-23efbdc67501""}","https://test12345.live/?participantId=83A860C3DF5E452FAAA2717D7378A787&assignmentId=282814d2-ea24-49ee-8895-4f2503cbc675&projectId=a0a8f18c-a66e-4ba7-a170-23efbdc67501","83A860C3DF5E452FAAA2717D7378A787-2024-11-24-18-47-37","","null","","images/causal_sequence/saving_a_cat_causal/saving_a_cat_causal_4.png","null","",""
"","","","","","image-button-response","131","663909","0.0-16.0-1.0-1.3","83A860C3DF5E452FAAA2717D7378A787","83A860C3DF5E452FAAA2717D7378A787","282814d2-ea24-49ee-8895-4f2503cbc675","a0a8f18c-a66e-4ba7-a170-23efbdc67501","{""participantId"":""83A860C3DF5E452FAAA2717D7378A787"",""assignmentId"":""282814d2-ea24-49ee-8895-4f2503cbc675"",""projectId"":""a0a8f18c-a66e-4ba7-a170-23efbdc67501""}","https://test12345.live/?participantId=83A860C3DF5E452FAAA2717D7378A787&assignmentId=282814d2-ea24-49ee-8895-4f2503cbc675&projectId=a0a8f18c-a66e-4ba7-a170-23efbdc67501","83A860C3DF5E452FAAA2717D7378A787-2024-11-24-18-47-37","","1452","","images/causal_sequence/saving_a_cat_causal/saving_a_cat_causal_4.png","0","",""
"","","","","","image-button-response","132","665716","0.0-16.0-1.0-2.3","83A860C3DF5E452FAAA2717D7378A787","83A860C3DF5E452FAAA2717D7378A787","282814d2-ea24-49ee-8895-4f2503cbc675","a0a8f18c-a66e-4ba7-a170-23efbdc67501","{""participantId"":""83A860C3DF5E452FAAA2717D7378A787"",""assignmentId"":""282814d2-ea24-49ee-8895-4f2503cbc675"",""projectId"":""a0a8f18c-a66e-4ba7-a170-23efbdc67501""}","https://test12345.live/?participantId=83A860C3DF5E452FAAA2717D7378A787&assignmentId=282814d2-ea24-49ee-8895-4f2503cbc675&projectId=a0a8f18c-a66e-4ba7-a170-23efbdc67501","83A860C3DF5E452FAAA2717D7378A787-2024-11-24-18-47-37","","null","","[]","null","",""
"","","","","","image-button-response","133","670220","0.0-16.0-1.0-0.4","83A860C3DF5E452FAAA2717D7378A787","83A860C3DF5E452FAAA2717D7378A787","282814d2-ea24-49ee-8895-4f2503cbc675","a0a8f18c-a66e-4ba7-a170-23efbdc67501","{""participantId"":""83A860C3DF5E452FAAA2717D7378A787"",""assignmentId"":""282814d2-ea24-49ee-8895-4f2503cbc675"",""projectId"":""a0a8f18c-a66e-4ba7-a170-23efbdc67501""}","https://test12345.live/?participantId=83A860C3DF5E452FAAA2717D7378A787&assignmentId=282814d2-ea24-49ee-8895-4f2503cbc675&projectId=a0a8f18c-a66e-4ba7-a170-23efbdc67501","83A860C3DF5E452FAAA2717D7378A787-2024-11-24-18-47-37","","null","","images/causal_sequence/saving_a_cat_causal/saving_a_cat_causal_5.png","null","",""
"","","","","","image-button-response","134","671678","0.0-16.0-1.0-1.4","83A860C3DF5E452FAAA2717D7378A787","83A860C3DF5E452FAAA2717D7378A787","282814d2-ea24-49ee-8895-4f2503cbc675","a0a8f18c-a66e-4ba7-a170-23efbdc67501","{""participantId"":""83A860C3DF5E452FAAA2717D7378A787"",""assignmentId"":""282814d2-ea24-49ee-8895-4f2503cbc675"",""projectId"":""a0a8f18c-a66e-4ba7-a170-23efbdc67501""}","https://test12345.live/?participantId=83A860C3DF5E452FAAA2717D7378A787&assignmentId=282814d2-ea24-49ee-8895-4f2503cbc675&projectId=a0a8f18c-a66e-4ba7-a170-23efbdc67501","83A860C3DF5E452FAAA2717D7378A787-2024-11-24-18-47-37","","1456","","images/causal_sequence/saving_a_cat_causal/saving_a_cat_causal_5.png","0","",""
"","","","","","image-button-response","135","673491","0.0-16.0-1.0-2.4","83A860C3DF5E452FAAA2717D7378A787","83A860C3DF5E452FAAA2717D7378A787","282814d2-ea24-49ee-8895-4f2503cbc675","a0a8f18c-a66e-4ba7-a170-23efbdc67501","{""participantId"":""83A860C3DF5E452FAAA2717D7378A787"",""assignmentId"":""282814d2-ea24-49ee-8895-4f2503cbc675"",""projectId"":""a0a8f18c-a66e-4ba7-a170-23efbdc67501""}","https://test12345.live/?participantId=83A860C3DF5E452FAAA2717D7378A787&assignmentId=282814d2-ea24-49ee-8895-4f2503cbc675&projectId=a0a8f18c-a66e-4ba7-a170-23efbdc67501","83A860C3DF5E452FAAA2717D7378A787-2024-11-24-18-47-37","","null","","[]","null","",""
"","","","","","image-button-response","136","678004","0.0-16.0-1.0-0.5","83A860C3DF5E452FAAA2717D7378A787","83A860C3DF5E452FAAA2717D7378A787","282814d2-ea24-49ee-8895-4f2503cbc675","a0a8f18c-a66e-4ba7-a170-23efbdc67501","{""participantId"":""83A860C3DF5E452FAAA2717D7378A787"",""assignmentId"":""282814d2-ea24-49ee-8895-4f2503cbc675"",""projectId"":""a0a8f18c-a66e-4ba7-a170-23efbdc67501""}","https://test12345.live/?participantId=83A860C3DF5E452FAAA2717D7378A787&assignmentId=282814d2-ea24-49ee-8895-4f2503cbc675&projectId=a0a8f18c-a66e-4ba7-a170-23efbdc67501","83A860C3DF5E452FAAA2717D7378A787-2024-11-24-18-47-37","","null","","images/causal_sequence/saving_a_cat_causal/saving_a_cat_causal_6.png","null","",""
"","","","","","image-button-response","137","679311","0.0-16.0-1.0-1.5","83A860C3DF5E452FAAA2717D7378A787","83A860C3DF5E452FAAA2717D7378A787","282814d2-ea24-49ee-8895-4f2503cbc675","a0a8f18c-a66e-4ba7-a170-23efbdc67501","{""participantId"":""83A860C3DF5E452FAAA2717D7378A787"",""assignmentId"":""282814d2-ea24-49ee-8895-4f2503cbc675"",""projectId"":""a0a8f18c-a66e-4ba7-a170-23efbdc67501""}","https://test12345.live/?participantId=83A860C3DF5E452FAAA2717D7378A787&assignmentId=282814d2-ea24-49ee-8895-4f2503cbc675&projectId=a0a8f18c-a66e-4ba7-a170-23efbdc67501","83A860C3DF5E452FAAA2717D7378A787-2024-11-24-18-47-37","","1305","","images/causal_sequence/saving_a_cat_causal/saving_a_cat_causal_6.png","0","",""
"","","","","","image-button-response","138","681112","0.0-16.0-1.0-2.5","83A860C3DF5E452FAAA2717D7378A787","83A860C3DF5E452FAAA2717D7378A787","282814d2-ea24-49ee-8895-4f2503cbc675","a0a8f18c-a66e-4ba7-a170-23efbdc67501","{""participantId"":""83A860C3DF5E452FAAA2717D7378A787"",""assignmentId"":""282814d2-ea24-49ee-8895-4f2503cbc675"",""projectId"":""a0a8f18c-a66e-4ba7-a170-23efbdc67501""}","https://test12345.live/?participantId=83A860C3DF5E452FAAA2717D7378A787&assignmentId=282814d2-ea24-49ee-8895-4f2503cbc675&projectId=a0a8f18c-a66e-4ba7-a170-23efbdc67501","83A860C3DF5E452FAAA2717D7378A787-2024-11-24-18-47-37","","null","","[]","null","",""
"","","","","","image-button-response","139","685617","0.0-16.0-1.0-0.6","83A860C3DF5E452FAAA2717D7378A787","83A860C3DF5E452FAAA2717D7378A787","282814d2-ea24-49ee-8895-4f2503cbc675","a0a8f18c-a66e-4ba7-a170-23efbdc67501","{""participantId"":""83A860C3DF5E452FAAA2717D7378A787"",""assignmentId"":""282814d2-ea24-49ee-8895-4f2503cbc675"",""projectId"":""a0a8f18c-a66e-4ba7-a170-23efbdc67501""}","https://test12345.live/?participantId=83A860C3DF5E452FAAA2717D7378A787&assignmentId=282814d2-ea24-49ee-8895-4f2503cbc675&projectId=a0a8f18c-a66e-4ba7-a170-23efbdc67501","83A860C3DF5E452FAAA2717D7378A787-2024-11-24-18-47-37","","null","","images/causal_sequence/saving_a_cat_causal/saving_a_cat_causal_7.png","null","",""
"","","","","","image-button-response","140","686651","0.0-16.0-1.0-1.6","83A860C3DF5E452FAAA2717D7378A787","83A860C3DF5E452FAAA2717D7378A787","282814d2-ea24-49ee-8895-4f2503cbc675","a0a8f18c-a66e-4ba7-a170-23efbdc67501","{""participantId"":""83A860C3DF5E452FAAA2717D7378A787"",""assignmentId"":""282814d2-ea24-49ee-8895-4f2503cbc675"",""projectId"":""a0a8f18c-a66e-4ba7-a170-23efbdc67501""}","https://test12345.live/?participantId=83A860C3DF5E452FAAA2717D7378A787&assignmentId=282814d2-ea24-49ee-8895-4f2503cbc675&projectId=a0a8f18c-a66e-4ba7-a170-23efbdc67501","83A860C3DF5E452FAAA2717D7378A787-2024-11-24-18-47-37","","1033","","images/causal_sequence/saving_a_cat_causal/saving_a_cat_causal_7.png","0","",""
"","","","","","image-button-response","141","688458","0.0-16.0-1.0-2.6","83A860C3DF5E452FAAA2717D7378A787","83A860C3DF5E452FAAA2717D7378A787","282814d2-ea24-49ee-8895-4f2503cbc675","a0a8f18c-a66e-4ba7-a170-23efbdc67501","{""participantId"":""83A860C3DF5E452FAAA2717D7378A787"",""assignmentId"":""282814d2-ea24-49ee-8895-4f2503cbc675"",""projectId"":""a0a8f18c-a66e-4ba7-a170-23efbdc67501""}","https://test12345.live/?participantId=83A860C3DF5E452FAAA2717D7378A787&assignmentId=282814d2-ea24-49ee-8895-4f2503cbc675&projectId=a0a8f18c-a66e-4ba7-a170-23efbdc67501","83A860C3DF5E452FAAA2717D7378A787-2024-11-24-18-47-37","","null","","[]","null","",""
"","","","","","image-button-response","142","692974","0.0-16.0-1.0-0.7","83A860C3DF5E452FAAA2717D7378A787","83A860C3DF5E452FAAA2717D7378A787","282814d2-ea24-49ee-8895-4f2503cbc675","a0a8f18c-a66e-4ba7-a170-23efbdc67501","{""participantId"":""83A860C3DF5E452FAAA2717D7378A787"",""assignmentId"":""282814d2-ea24-49ee-8895-4f2503cbc675"",""projectId"":""a0a8f18c-a66e-4ba7-a170-23efbdc67501""}","https://test12345.live/?participantId=83A860C3DF5E452FAAA2717D7378A787&assignmentId=282814d2-ea24-49ee-8895-4f2503cbc675&projectId=a0a8f18c-a66e-4ba7-a170-23efbdc67501","83A860C3DF5E452FAAA2717D7378A787-2024-11-24-18-47-37","","null","","images/causal_sequence/saving_a_cat_causal/saving_a_cat_causal_8.png","null","",""
"","","","","","image-button-response","143","693489","0.0-16.0-1.0-1.7","83A860C3DF5E452FAAA2717D7378A787","83A860C3DF5E452FAAA2717D7378A787","282814d2-ea24-49ee-8895-4f2503cbc675","a0a8f18c-a66e-4ba7-a170-23efbdc67501","{""participantId"":""83A860C3DF5E452FAAA2717D7378A787"",""assignmentId"":""282814d2-ea24-49ee-8895-4f2503cbc675"",""projectId"":""a0a8f18c-a66e-4ba7-a170-23efbdc67501""}","https://test12345.live/?participantId=83A860C3DF5E452FAAA2717D7378A787&assignmentId=282814d2-ea24-49ee-8895-4f2503cbc675&projectId=a0a8f18c-a66e-4ba7-a170-23efbdc67501","83A860C3DF5E452FAAA2717D7378A787-2024-11-24-18-47-37","","514","","images/causal_sequence/saving_a_cat_causal/saving_a_cat_causal_8.png","0","",""
