"success","timeout","failed_images","failed_audio","failed_video","trial_type","trial_index","time_elapsed","internal_node_id","subject","subject_id","study_id","session_id","urlvar","current_url","audio_id","view_history","rt","device_id","stimulus","response","estimated_stimulus_onset","seq_name"
"true","false","[]","[]","[]","preload","0","1854","0.0-0.0","89C2E23455064455A6E568BB7338F0C2","89C2E23455064455A6E568BB7338F0C2","72fe4f97-31b4-45d2-b59c-6b229ec905ef","a0a8f18c-a66e-4ba7-a170-23efbdc67501","{""participantId"":""89C2E23455064455A6E568BB7338F0C2"",""assignmentId"":""72fe4f97-31b4-45d2-b59c-6b229ec905ef"",""projectId"":""a0a8f18c-a66e-4ba7-a170-23efbdc67501""}","https://test12345.live/?participantId=89C2E23455064455A6E568BB7338F0C2&assignmentId=72fe4f97-31b4-45d2-b59c-6b229ec905ef&projectId=a0a8f18c-a66e-4ba7-a170-23efbdc67501","89C2E23455064455A6E568BB7338F0C2-2024-11-24-18-41-42","","","","","","",""
"","","","","","instructions","1","214922","0.0-1.0","89C2E23455064455A6E568BB7338F0C2","89C2E23455064455A6E568BB7338F0C2","72fe4f97-31b4-45d2-b59c-6b229ec905ef","a0a8f18c-a66e-4ba7-a170-23efbdc67501","{""participantId"":""89C2E23455064455A6E568BB7338F0C2"",""assignmentId"":""72fe4f97-31b4-45d2-b59c-6b229ec905ef"",""projectId"":""a0a8f18c-a66e-4ba7-a170-23efbdc67501""}","https://test12345.live/?participantId=89C2E23455064455A6E568BB7338F0C2&assignmentId=72fe4f97-31b4-45d2-b59c-6b229ec905ef&projectId=a0a8f18c-a66e-4ba7-a170-23efbdc67501","89C2E23455064455A6E568BB7338F0C2-2024-11-24-18-41-42","[{""page_index"":0,""viewing_time"":213065}]","213066","","","","",""
"","","","","","instructions","2","238703","0.0-2.0","89C2E23455064455A6E568BB7338F0C2","89C2E23455064455A6E568BB7338F0C2","72fe4f97-31b4-45d2-b59c-6b229ec905ef","a0a8f18c-a66e-4ba7-a170-23efbdc67501","{""participantId"":""89C2E23455064455A6E568BB7338F0C2"",""assignmentId"":""72fe4f97-31b4-45d2-b59c-6b229ec905ef"",""projectId"":""a0a8f18c-a66e-4ba7-a170-23efbdc67501""}","https://test12345.live/?participantId=89C2E23455064455A6E568BB7338F0C2&assignmentId=72fe4f97-31b4-45d2-b59c-6b229ec905ef&projectId=a0a8f18c-a66e-4ba7-a170-23efbdc67501","89C2E23455064455A6E568BB7338F0C2-2024-11-24-18-41-42","[{""page_index"":0,""viewing_time"":23780}]","23780","","","","",""
"true","","","","","fullscreen","3","242180","0.0-3.0","89C2E23455064455A6E568BB7338F0C2","89C2E23455064455A6E568BB7338F0C2","72fe4f97-31b4-45d2-b59c-6b229ec905ef","a0a8f18c-a66e-4ba7-a170-23efbdc67501","{""participantId"":""89C2E23455064455A6E568BB7338F0C2"",""assignmentId"":""72fe4f97-31b4-45d2-b59c-6b229ec905ef"",""projectId"":""a0a8f18c-a66e-4ba7-a170-23efbdc67501""}","https://test12345.live/?participantId=89C2E23455064455A6E568BB7338F0C2&assignmentId=72fe4f97-31b4-45d2-b59c-6b229ec905ef&projectId=a0a8f18c-a66e-4ba7-a170-23efbdc67501","89C2E23455064455A6E568BB7338F0C2-2024-11-24-18-41-42","","2471","","","","",""
"","","","","","initialize-microphone","4","265886","0.0-4.0-0.0","89C2E23455064455A6E568BB7338F0C2","89C2E23455064455A6E568BB7338F0C2","72fe4f97-31b4-45d2-b59c-6b229ec905ef","a0a8f18c-a66e-4ba7-a170-23efbdc67501","{""participantId"":""89C2E23455064455A6E568BB7338F0C2"",""assignmentId"":""72fe4f97-31b4-45d2-b59c-6b229ec905ef"",""projectId"":""a0a8f18c-a66e-4ba7-a170-23efbdc67501""}","https://test12345.live/?participantId=89C2E23455064455A6E568BB7338F0C2&assignmentId=72fe4f97-31b4-45d2-b59c-6b229ec905ef&projectId=a0a8f18c-a66e-4ba7-a170-23efbdc67501","89C2E23455064455A6E568BB7338F0C2-2024-11-24-18-41-42","","","a4a997ae27dfb9375b5057b10ff1d837823ceacb72b62701122c9586c1ca346b","","","",""
"","","","","","html-audio-response","5","289348","0.0-4.0-1.0","89C2E23455064455A6E568BB7338F0C2","89C2E23455064455A6E568BB7338F0C2","72fe4f97-31b4-45d2-b59c-6b229ec905ef","a0a8f18c-a66e-4ba7-a170-23efbdc67501","{""participantId"":""89C2E23455064455A6E568BB7338F0C2"",""assignmentId"":""72fe4f97-31b4-45d2-b59c-6b229ec905ef"",""projectId"":""a0a8f18c-a66e-4ba7-a170-23efbdc67501""}","https://test12345.live/?participantId=89C2E23455064455A6E568BB7338F0C2&assignmentId=72fe4f97-31b4-45d2-b59c-6b229ec905ef&projectId=a0a8f18c-a66e-4ba7-a170-23efbdc67501","89C2E23455064455A6E568BB7338F0C2-2024-11-24-18-41-42","","5448","","<span style=""color: red; font-size: 24px""> NOW RECORDING</span>
        <p>Please test Microphone</p>","","3",""
"","","","","","html-button-response","6","291058","0.0-4.0-2.0","89C2E23455064455A6E568BB7338F0C2","89C2E23455064455A6E568BB7338F0C2","72fe4f97-31b4-45d2-b59c-6b229ec905ef","a0a8f18c-a66e-4ba7-a170-23efbdc67501","{""participantId"":""89C2E23455064455A6E568BB7338F0C2"",""assignmentId"":""72fe4f97-31b4-45d2-b59c-6b229ec905ef"",""projectId"":""a0a8f18c-a66e-4ba7-a170-23efbdc67501""}","https://test12345.live/?participantId=89C2E23455064455A6E568BB7338F0C2&assignmentId=72fe4f97-31b4-45d2-b59c-6b229ec905ef&projectId=a0a8f18c-a66e-4ba7-a170-23efbdc67501","89C2E23455064455A6E568BB7338F0C2-2024-11-24-18-41-42","","1709","","<p style=""font-size:48px; color:red;"">Is Microphone OK?</p>","1","",""
"","","","","","instructions","7","322982","0.0-5.0","89C2E23455064455A6E568BB7338F0C2","89C2E23455064455A6E568BB7338F0C2","72fe4f97-31b4-45d2-b59c-6b229ec905ef","a0a8f18c-a66e-4ba7-a170-23efbdc67501","{""participantId"":""89C2E23455064455A6E568BB7338F0C2"",""assignmentId"":""72fe4f97-31b4-45d2-b59c-6b229ec905ef"",""projectId"":""a0a8f18c-a66e-4ba7-a170-23efbdc67501""}","https://test12345.live/?participantId=89C2E23455064455A6E568BB7338F0C2&assignmentId=72fe4f97-31b4-45d2-b59c-6b229ec905ef&projectId=a0a8f18c-a66e-4ba7-a170-23efbdc67501","89C2E23455064455A6E568BB7338F0C2-2024-11-24-18-41-42","[{""page_index"":0,""viewing_time"":4998},{""page_index"":1,""viewing_time"":26925}]","31923","","","","",""
"","","","","","image-button-response","8","328985","0.0-6.0-0.0","89C2E23455064455A6E568BB7338F0C2","89C2E23455064455A6E568BB7338F0C2","72fe4f97-31b4-45d2-b59c-6b229ec905ef","a0a8f18c-a66e-4ba7-a170-23efbdc67501","{""participantId"":""89C2E23455064455A6E568BB7338F0C2"",""assignmentId"":""72fe4f97-31b4-45d2-b59c-6b229ec905ef"",""projectId"":""a0a8f18c-a66e-4ba7-a170-23efbdc67501""}","https://test12345.live/?participantId=89C2E23455064455A6E568BB7338F0C2&assignmentId=72fe4f97-31b4-45d2-b59c-6b229ec905ef&projectId=a0a8f18c-a66e-4ba7-a170-23efbdc67501","89C2E23455064455A6E568BB7338F0C2-2024-11-24-18-41-42","","null","","images/instructions/movie_0.png","null","",""
"","","","","","image-button-response","9","333499","0.0-6.0-1.0-0.0","89C2E23455064455A6E568BB7338F0C2","89C2E23455064455A6E568BB7338F0C2","72fe4f97-31b4-45d2-b59c-6b229ec905ef","a0a8f18c-a66e-4ba7-a170-23efbdc67501","{""participantId"":""89C2E23455064455A6E568BB7338F0C2"",""assignmentId"":""72fe4f97-31b4-45d2-b59c-6b229ec905ef"",""projectId"":""a0a8f18c-a66e-4ba7-a170-23efbdc67501""}","https://test12345.live/?participantId=89C2E23455064455A6E568BB7338F0C2&assignmentId=72fe4f97-31b4-45d2-b59c-6b229ec905ef&projectId=a0a8f18c-a66e-4ba7-a170-23efbdc67501","89C2E23455064455A6E568BB7338F0C2-2024-11-24-18-41-42","","null","","images/instructions/movie_1.png","null","",""
"","","","","","image-button-response","10","336148","0.0-6.0-1.0-1.0","89C2E23455064455A6E568BB7338F0C2","89C2E23455064455A6E568BB7338F0C2","72fe4f97-31b4-45d2-b59c-6b229ec905ef","a0a8f18c-a66e-4ba7-a170-23efbdc67501","{""participantId"":""89C2E23455064455A6E568BB7338F0C2"",""assignmentId"":""72fe4f97-31b4-45d2-b59c-6b229ec905ef"",""projectId"":""a0a8f18c-a66e-4ba7-a170-23efbdc67501""}","https://test12345.live/?participantId=89C2E23455064455A6E568BB7338F0C2&assignmentId=72fe4f97-31b4-45d2-b59c-6b229ec905ef&projectId=a0a8f18c-a66e-4ba7-a170-23efbdc67501","89C2E23455064455A6E568BB7338F0C2-2024-11-24-18-41-42","","2647","","images/instructions/movie_1.png","0","",""
"","","","","","image-button-response","11","337961","0.0-6.0-1.0-2.0","89C2E23455064455A6E568BB7338F0C2","89C2E23455064455A6E568BB7338F0C2","72fe4f97-31b4-45d2-b59c-6b229ec905ef","a0a8f18c-a66e-4ba7-a170-23efbdc67501","{""participantId"":""89C2E23455064455A6E568BB7338F0C2"",""assignmentId"":""72fe4f97-31b4-45d2-b59c-6b229ec905ef"",""projectId"":""a0a8f18c-a66e-4ba7-a170-23efbdc67501""}","https://test12345.live/?participantId=89C2E23455064455A6E568BB7338F0C2&assignmentId=72fe4f97-31b4-45d2-b59c-6b229ec905ef&projectId=a0a8f18c-a66e-4ba7-a170-23efbdc67501","89C2E23455064455A6E568BB7338F0C2-2024-11-24-18-41-42","","null","","[]","null","",""
"","","","","","image-button-response","12","342468","0.0-6.0-1.0-0.1","89C2E23455064455A6E568BB7338F0C2","89C2E23455064455A6E568BB7338F0C2","72fe4f97-31b4-45d2-b59c-6b229ec905ef","a0a8f18c-a66e-4ba7-a170-23efbdc67501","{""participantId"":""89C2E23455064455A6E568BB7338F0C2"",""assignmentId"":""72fe4f97-31b4-45d2-b59c-6b229ec905ef"",""projectId"":""a0a8f18c-a66e-4ba7-a170-23efbdc67501""}","https://test12345.live/?participantId=89C2E23455064455A6E568BB7338F0C2&assignmentId=72fe4f97-31b4-45d2-b59c-6b229ec905ef&projectId=a0a8f18c-a66e-4ba7-a170-23efbdc67501","89C2E23455064455A6E568BB7338F0C2-2024-11-24-18-41-42","","null","","images/instructions/movie_2.png","null","",""
"","","","","","image-button-response","13","343757","0.0-6.0-1.0-1.1","89C2E23455064455A6E568BB7338F0C2","89C2E23455064455A6E568BB7338F0C2","72fe4f97-31b4-45d2-b59c-6b229ec905ef","a0a8f18c-a66e-4ba7-a170-23efbdc67501","{""participantId"":""89C2E23455064455A6E568BB7338F0C2"",""assignmentId"":""72fe4f97-31b4-45d2-b59c-6b229ec905ef"",""projectId"":""a0a8f18c-a66e-4ba7-a170-23efbdc67501""}","https://test12345.live/?participantId=89C2E23455064455A6E568BB7338F0C2&assignmentId=72fe4f97-31b4-45d2-b59c-6b229ec905ef&projectId=a0a8f18c-a66e-4ba7-a170-23efbdc67501","89C2E23455064455A6E568BB7338F0C2-2024-11-24-18-41-42","","1287","","images/instructions/movie_2.png","1","",""
"","","","","","image-button-response","14","345572","0.0-6.0-1.0-2.1","89C2E23455064455A6E568BB7338F0C2","89C2E23455064455A6E568BB7338F0C2","72fe4f97-31b4-45d2-b59c-6b229ec905ef","a0a8f18c-a66e-4ba7-a170-23efbdc67501","{""participantId"":""89C2E23455064455A6E568BB7338F0C2"",""assignmentId"":""72fe4f97-31b4-45d2-b59c-6b229ec905ef"",""projectId"":""a0a8f18c-a66e-4ba7-a170-23efbdc67501""}","https://test12345.live/?participantId=89C2E23455064455A6E568BB7338F0C2&assignmentId=72fe4f97-31b4-45d2-b59c-6b229ec905ef&projectId=a0a8f18c-a66e-4ba7-a170-23efbdc67501","89C2E23455064455A6E568BB7338F0C2-2024-11-24-18-41-42","","null","","[]","null","",""
"","","","","","image-button-response","15","350073","0.0-6.0-1.0-0.2","89C2E23455064455A6E568BB7338F0C2","89C2E23455064455A6E568BB7338F0C2","72fe4f97-31b4-45d2-b59c-6b229ec905ef","a0a8f18c-a66e-4ba7-a170-23efbdc67501","{""participantId"":""89C2E23455064455A6E568BB7338F0C2"",""assignmentId"":""72fe4f97-31b4-45d2-b59c-6b229ec905ef"",""projectId"":""a0a8f18c-a66e-4ba7-a170-23efbdc67501""}","https://test12345.live/?participantId=89C2E23455064455A6E568BB7338F0C2&assignmentId=72fe4f97-31b4-45d2-b59c-6b229ec905ef&projectId=a0a8f18c-a66e-4ba7-a170-23efbdc67501","89C2E23455064455A6E568BB7338F0C2-2024-11-24-18-41-42","","null","","images/instructions/movie_3.png","null","",""
"","","","","","image-button-response","16","353456","0.0-6.0-1.0-1.2","89C2E23455064455A6E568BB7338F0C2","89C2E23455064455A6E568BB7338F0C2","72fe4f97-31b4-45d2-b59c-6b229ec905ef","a0a8f18c-a66e-4ba7-a170-23efbdc67501","{""participantId"":""89C2E23455064455A6E568BB7338F0C2"",""assignmentId"":""72fe4f97-31b4-45d2-b59c-6b229ec905ef"",""projectId"":""a0a8f18c-a66e-4ba7-a170-23efbdc67501""}","https://test12345.live/?participantId=89C2E23455064455A6E568BB7338F0C2&assignmentId=72fe4f97-31b4-45d2-b59c-6b229ec905ef&projectId=a0a8f18c-a66e-4ba7-a170-23efbdc67501","89C2E23455064455A6E568BB7338F0C2-2024-11-24-18-41-42","","3382","","images/instructions/movie_3.png","0","",""
"","","","","","image-button-response","17","355265","0.0-6.0-1.0-2.2","89C2E23455064455A6E568BB7338F0C2","89C2E23455064455A6E568BB7338F0C2","72fe4f97-31b4-45d2-b59c-6b229ec905ef","a0a8f18c-a66e-4ba7-a170-23efbdc67501","{""participantId"":""89C2E23455064455A6E568BB7338F0C2"",""assignmentId"":""72fe4f97-31b4-45d2-b59c-6b229ec905ef"",""projectId"":""a0a8f18c-a66e-4ba7-a170-23efbdc67501""}","https://test12345.live/?participantId=89C2E23455064455A6E568BB7338F0C2&assignmentId=72fe4f97-31b4-45d2-b59c-6b229ec905ef&projectId=a0a8f18c-a66e-4ba7-a170-23efbdc67501","89C2E23455064455A6E568BB7338F0C2-2024-11-24-18-41-42","","null","","[]","null","",""
"","","","","","image-button-response","18","359768","0.0-6.0-1.0-0.3","89C2E23455064455A6E568BB7338F0C2","89C2E23455064455A6E568BB7338F0C2","72fe4f97-31b4-45d2-b59c-6b229ec905ef","a0a8f18c-a66e-4ba7-a170-23efbdc67501","{""participantId"":""89C2E23455064455A6E568BB7338F0C2"",""assignmentId"":""72fe4f97-31b4-45d2-b59c-6b229ec905ef"",""projectId"":""a0a8f18c-a66e-4ba7-a170-23efbdc67501""}","https://test12345.live/?participantId=89C2E23455064455A6E568BB7338F0C2&assignmentId=72fe4f97-31b4-45d2-b59c-6b229ec905ef&projectId=a0a8f18c-a66e-4ba7-a170-23efbdc67501","89C2E23455064455A6E568BB7338F0C2-2024-11-24-18-41-42","","null","","images/instructions/movie_4.png","null","",""
"","","","","","image-button-response","19","361937","0.0-6.0-1.0-1.3","89C2E23455064455A6E568BB7338F0C2","89C2E23455064455A6E568BB7338F0C2","72fe4f97-31b4-45d2-b59c-6b229ec905ef","a0a8f18c-a66e-4ba7-a170-23efbdc67501","{""participantId"":""89C2E23455064455A6E568BB7338F0C2"",""assignmentId"":""72fe4f97-31b4-45d2-b59c-6b229ec905ef"",""projectId"":""a0a8f18c-a66e-4ba7-a170-23efbdc67501""}","https://test12345.live/?participantId=89C2E23455064455A6E568BB7338F0C2&assignmentId=72fe4f97-31b4-45d2-b59c-6b229ec905ef&projectId=a0a8f18c-a66e-4ba7-a170-23efbdc67501","89C2E23455064455A6E568BB7338F0C2-2024-11-24-18-41-42","","2166","","images/instructions/movie_4.png","0","",""
"","","","","","image-button-response","20","363752","0.0-6.0-1.0-2.3","89C2E23455064455A6E568BB7338F0C2","89C2E23455064455A6E568BB7338F0C2","72fe4f97-31b4-45d2-b59c-6b229ec905ef","a0a8f18c-a66e-4ba7-a170-23efbdc67501","{""participantId"":""89C2E23455064455A6E568BB7338F0C2"",""assignmentId"":""72fe4f97-31b4-45d2-b59c-6b229ec905ef"",""projectId"":""a0a8f18c-a66e-4ba7-a170-23efbdc67501""}","https://test12345.live/?participantId=89C2E23455064455A6E568BB7338F0C2&assignmentId=72fe4f97-31b4-45d2-b59c-6b229ec905ef&projectId=a0a8f18c-a66e-4ba7-a170-23efbdc67501","89C2E23455064455A6E568BB7338F0C2-2024-11-24-18-41-42","","null","","[]","null","",""
"","","","","","instructions","21","371684","0.0-7.0","89C2E23455064455A6E568BB7338F0C2","89C2E23455064455A6E568BB7338F0C2","72fe4f97-31b4-45d2-b59c-6b229ec905ef","a0a8f18c-a66e-4ba7-a170-23efbdc67501","{""participantId"":""89C2E23455064455A6E568BB7338F0C2"",""assignmentId"":""72fe4f97-31b4-45d2-b59c-6b229ec905ef"",""projectId"":""a0a8f18c-a66e-4ba7-a170-23efbdc67501""}","https://test12345.live/?participantId=89C2E23455064455A6E568BB7338F0C2&assignmentId=72fe4f97-31b4-45d2-b59c-6b229ec905ef&projectId=a0a8f18c-a66e-4ba7-a170-23efbdc67501","89C2E23455064455A6E568BB7338F0C2-2024-11-24-18-41-42","[{""page_index"":0,""viewing_time"":6319},{""page_index"":1,""viewing_time"":1613}]","7932","","","","",""
"","","","","","html-audio-response","22","399633","0.0-8.0","89C2E23455064455A6E568BB7338F0C2","89C2E23455064455A6E568BB7338F0C2","72fe4f97-31b4-45d2-b59c-6b229ec905ef","a0a8f18c-a66e-4ba7-a170-23efbdc67501","{""participantId"":""89C2E23455064455A6E568BB7338F0C2"",""assignmentId"":""72fe4f97-31b4-45d2-b59c-6b229ec905ef"",""projectId"":""a0a8f18c-a66e-4ba7-a170-23efbdc67501""}","https://test12345.live/?participantId=89C2E23455064455A6E568BB7338F0C2&assignmentId=72fe4f97-31b4-45d2-b59c-6b229ec905ef&projectId=a0a8f18c-a66e-4ba7-a170-23efbdc67501","89C2E23455064455A6E568BB7338F0C2-2024-11-24-18-41-42","","12380","","[""<span style=\""color: red; font-size: 24px\""> NOW RECORDING</span><p>Please say out loud all the images you saw, as many as you can remember. The images can be said in any order.</p>""]","","1",""
"","","","","","instructions","23","408084","0.0-9.0","89C2E23455064455A6E568BB7338F0C2","89C2E23455064455A6E568BB7338F0C2","72fe4f97-31b4-45d2-b59c-6b229ec905ef","a0a8f18c-a66e-4ba7-a170-23efbdc67501","{""participantId"":""89C2E23455064455A6E568BB7338F0C2"",""assignmentId"":""72fe4f97-31b4-45d2-b59c-6b229ec905ef"",""projectId"":""a0a8f18c-a66e-4ba7-a170-23efbdc67501""}","https://test12345.live/?participantId=89C2E23455064455A6E568BB7338F0C2&assignmentId=72fe4f97-31b4-45d2-b59c-6b229ec905ef&projectId=a0a8f18c-a66e-4ba7-a170-23efbdc67501","89C2E23455064455A6E568BB7338F0C2-2024-11-24-18-41-42","[{""page_index"":0,""viewing_time"":8447}]","8447","","","","",""
"","","","","","image-button-response","24","414091","0.0-10.0-0.0","89C2E23455064455A6E568BB7338F0C2","89C2E23455064455A6E568BB7338F0C2","72fe4f97-31b4-45d2-b59c-6b229ec905ef","a0a8f18c-a66e-4ba7-a170-23efbdc67501","{""participantId"":""89C2E23455064455A6E568BB7338F0C2"",""assignmentId"":""72fe4f97-31b4-45d2-b59c-6b229ec905ef"",""projectId"":""a0a8f18c-a66e-4ba7-a170-23efbdc67501""}","https://test12345.live/?participantId=89C2E23455064455A6E568BB7338F0C2&assignmentId=72fe4f97-31b4-45d2-b59c-6b229ec905ef&projectId=a0a8f18c-a66e-4ba7-a170-23efbdc67501","89C2E23455064455A6E568BB7338F0C2-2024-11-24-18-41-42","","null","","images/causal_sequence/dog_causal/dog_causal_0.png","null","",""
"","","","","","image-button-response","25","418602","0.0-10.0-1.0-0.0","89C2E23455064455A6E568BB7338F0C2","89C2E23455064455A6E568BB7338F0C2","72fe4f97-31b4-45d2-b59c-6b229ec905ef","a0a8f18c-a66e-4ba7-a170-23efbdc67501","{""participantId"":""89C2E23455064455A6E568BB7338F0C2"",""assignmentId"":""72fe4f97-31b4-45d2-b59c-6b229ec905ef"",""projectId"":""a0a8f18c-a66e-4ba7-a170-23efbdc67501""}","https://test12345.live/?participantId=89C2E23455064455A6E568BB7338F0C2&assignmentId=72fe4f97-31b4-45d2-b59c-6b229ec905ef&projectId=a0a8f18c-a66e-4ba7-a170-23efbdc67501","89C2E23455064455A6E568BB7338F0C2-2024-11-24-18-41-42","","null","","images/causal_sequence/dog_causal/dog_causal_1.png","null","",""
"","","","","","image-button-response","26","420000","0.0-10.0-1.0-1.0","89C2E23455064455A6E568BB7338F0C2","89C2E23455064455A6E568BB7338F0C2","72fe4f97-31b4-45d2-b59c-6b229ec905ef","a0a8f18c-a66e-4ba7-a170-23efbdc67501","{""participantId"":""89C2E23455064455A6E568BB7338F0C2"",""assignmentId"":""72fe4f97-31b4-45d2-b59c-6b229ec905ef"",""projectId"":""a0a8f18c-a66e-4ba7-a170-23efbdc67501""}","https://test12345.live/?participantId=89C2E23455064455A6E568BB7338F0C2&assignmentId=72fe4f97-31b4-45d2-b59c-6b229ec905ef&projectId=a0a8f18c-a66e-4ba7-a170-23efbdc67501","89C2E23455064455A6E568BB7338F0C2-2024-11-24-18-41-42","","1396","","images/causal_sequence/dog_causal/dog_causal_1.png","0","",""
"","","","","","image-button-response","27","421802","0.0-10.0-1.0-2.0","89C2E23455064455A6E568BB7338F0C2","89C2E23455064455A6E568BB7338F0C2","72fe4f97-31b4-45d2-b59c-6b229ec905ef","a0a8f18c-a66e-4ba7-a170-23efbdc67501","{""participantId"":""89C2E23455064455A6E568BB7338F0C2"",""assignmentId"":""72fe4f97-31b4-45d2-b59c-6b229ec905ef"",""projectId"":""a0a8f18c-a66e-4ba7-a170-23efbdc67501""}","https://test12345.live/?participantId=89C2E23455064455A6E568BB7338F0C2&assignmentId=72fe4f97-31b4-45d2-b59c-6b229ec905ef&projectId=a0a8f18c-a66e-4ba7-a170-23efbdc67501","89C2E23455064455A6E568BB7338F0C2-2024-11-24-18-41-42","","null","","[]","null","",""
"","","","","","image-button-response","28","426309","0.0-10.0-1.0-0.1","89C2E23455064455A6E568BB7338F0C2","89C2E23455064455A6E568BB7338F0C2","72fe4f97-31b4-45d2-b59c-6b229ec905ef","a0a8f18c-a66e-4ba7-a170-23efbdc67501","{""participantId"":""89C2E23455064455A6E568BB7338F0C2"",""assignmentId"":""72fe4f97-31b4-45d2-b59c-6b229ec905ef"",""projectId"":""a0a8f18c-a66e-4ba7-a170-23efbdc67501""}","https://test12345.live/?participantId=89C2E23455064455A6E568BB7338F0C2&assignmentId=72fe4f97-31b4-45d2-b59c-6b229ec905ef&projectId=a0a8f18c-a66e-4ba7-a170-23efbdc67501","89C2E23455064455A6E568BB7338F0C2-2024-11-24-18-41-42","","null","","images/causal_sequence/dog_causal/dog_causal_2.png","null","",""
"","","","","","image-button-response","29","427681","0.0-10.0-1.0-1.1","89C2E23455064455A6E568BB7338F0C2","89C2E23455064455A6E568BB7338F0C2","72fe4f97-31b4-45d2-b59c-6b229ec905ef","a0a8f18c-a66e-4ba7-a170-23efbdc67501","{""participantId"":""89C2E23455064455A6E568BB7338F0C2"",""assignmentId"":""72fe4f97-31b4-45d2-b59c-6b229ec905ef"",""projectId"":""a0a8f18c-a66e-4ba7-a170-23efbdc67501""}","https://test12345.live/?participantId=89C2E23455064455A6E568BB7338F0C2&assignmentId=72fe4f97-31b4-45d2-b59c-6b229ec905ef&projectId=a0a8f18c-a66e-4ba7-a170-23efbdc67501","89C2E23455064455A6E568BB7338F0C2-2024-11-24-18-41-42","","1371","","images/causal_sequence/dog_causal/dog_causal_2.png","0","",""
"","","","","","image-button-response","30","429491","0.0-10.0-1.0-2.1","89C2E23455064455A6E568BB7338F0C2","89C2E23455064455A6E568BB7338F0C2","72fe4f97-31b4-45d2-b59c-6b229ec905ef","a0a8f18c-a66e-4ba7-a170-23efbdc67501","{""participantId"":""89C2E23455064455A6E568BB7338F0C2"",""assignmentId"":""72fe4f97-31b4-45d2-b59c-6b229ec905ef"",""projectId"":""a0a8f18c-a66e-4ba7-a170-23efbdc67501""}","https://test12345.live/?participantId=89C2E23455064455A6E568BB7338F0C2&assignmentId=72fe4f97-31b4-45d2-b59c-6b229ec905ef&projectId=a0a8f18c-a66e-4ba7-a170-23efbdc67501","89C2E23455064455A6E568BB7338F0C2-2024-11-24-18-41-42","","null","","[]","null","",""
"","","","","","image-button-response","31","434002","0.0-10.0-1.0-0.2","89C2E23455064455A6E568BB7338F0C2","89C2E23455064455A6E568BB7338F0C2","72fe4f97-31b4-45d2-b59c-6b229ec905ef","a0a8f18c-a66e-4ba7-a170-23efbdc67501","{""participantId"":""89C2E23455064455A6E568BB7338F0C2"",""assignmentId"":""72fe4f97-31b4-45d2-b59c-6b229ec905ef"",""projectId"":""a0a8f18c-a66e-4ba7-a170-23efbdc67501""}","https://test12345.live/?participantId=89C2E23455064455A6E568BB7338F0C2&assignmentId=72fe4f97-31b4-45d2-b59c-6b229ec905ef&projectId=a0a8f18c-a66e-4ba7-a170-23efbdc67501","89C2E23455064455A6E568BB7338F0C2-2024-11-24-18-41-42","","null","","images/causal_sequence/dog_causal/dog_causal_3.png","null","",""
"","","","","","image-button-response","32","437052","0.0-10.0-1.0-1.2","89C2E23455064455A6E568BB7338F0C2","89C2E23455064455A6E568BB7338F0C2","72fe4f97-31b4-45d2-b59c-6b229ec905ef","a0a8f18c-a66e-4ba7-a170-23efbdc67501","{""participantId"":""89C2E23455064455A6E568BB7338F0C2"",""assignmentId"":""72fe4f97-31b4-45d2-b59c-6b229ec905ef"",""projectId"":""a0a8f18c-a66e-4ba7-a170-23efbdc67501""}","https://test12345.live/?participantId=89C2E23455064455A6E568BB7338F0C2&assignmentId=72fe4f97-31b4-45d2-b59c-6b229ec905ef&projectId=a0a8f18c-a66e-4ba7-a170-23efbdc67501","89C2E23455064455A6E568BB7338F0C2-2024-11-24-18-41-42","","3048","","images/causal_sequence/dog_causal/dog_causal_3.png","0","",""
"","","","","","image-button-response","33","438861","0.0-10.0-1.0-2.2","89C2E23455064455A6E568BB7338F0C2","89C2E23455064455A6E568BB7338F0C2","72fe4f97-31b4-45d2-b59c-6b229ec905ef","a0a8f18c-a66e-4ba7-a170-23efbdc67501","{""participantId"":""89C2E23455064455A6E568BB7338F0C2"",""assignmentId"":""72fe4f97-31b4-45d2-b59c-6b229ec905ef"",""projectId"":""a0a8f18c-a66e-4ba7-a170-23efbdc67501""}","https://test12345.live/?participantId=89C2E23455064455A6E568BB7338F0C2&assignmentId=72fe4f97-31b4-45d2-b59c-6b229ec905ef&projectId=a0a8f18c-a66e-4ba7-a170-23efbdc67501","89C2E23455064455A6E568BB7338F0C2-2024-11-24-18-41-42","","null","","[]","null","",""
"","","","","","image-button-response","34","443373","0.0-10.0-1.0-0.3","89C2E23455064455A6E568BB7338F0C2","89C2E23455064455A6E568BB7338F0C2","72fe4f97-31b4-45d2-b59c-6b229ec905ef","a0a8f18c-a66e-4ba7-a170-23efbdc67501","{""participantId"":""89C2E23455064455A6E568BB7338F0C2"",""assignmentId"":""72fe4f97-31b4-45d2-b59c-6b229ec905ef"",""projectId"":""a0a8f18c-a66e-4ba7-a170-23efbdc67501""}","https://test12345.live/?participantId=89C2E23455064455A6E568BB7338F0C2&assignmentId=72fe4f97-31b4-45d2-b59c-6b229ec905ef&projectId=a0a8f18c-a66e-4ba7-a170-23efbdc67501","89C2E23455064455A6E568BB7338F0C2-2024-11-24-18-41-42","","null","","images/causal_sequence/dog_causal/dog_causal_4.png","null","",""
"","","","","","image-button-response","35","445342","0.0-10.0-1.0-1.3","89C2E23455064455A6E568BB7338F0C2","89C2E23455064455A6E568BB7338F0C2","72fe4f97-31b4-45d2-b59c-6b229ec905ef","a0a8f18c-a66e-4ba7-a170-23efbdc67501","{""participantId"":""89C2E23455064455A6E568BB7338F0C2"",""assignmentId"":""72fe4f97-31b4-45d2-b59c-6b229ec905ef"",""projectId"":""a0a8f18c-a66e-4ba7-a170-23efbdc67501""}","https://test12345.live/?participantId=89C2E23455064455A6E568BB7338F0C2&assignmentId=72fe4f97-31b4-45d2-b59c-6b229ec905ef&projectId=a0a8f18c-a66e-4ba7-a170-23efbdc67501","89C2E23455064455A6E568BB7338F0C2-2024-11-24-18-41-42","","1967","","images/causal_sequence/dog_causal/dog_causal_4.png","0","",""
"","","","","","image-button-response","36","447153","0.0-10.0-1.0-2.3","89C2E23455064455A6E568BB7338F0C2","89C2E23455064455A6E568BB7338F0C2","72fe4f97-31b4-45d2-b59c-6b229ec905ef","a0a8f18c-a66e-4ba7-a170-23efbdc67501","{""participantId"":""89C2E23455064455A6E568BB7338F0C2"",""assignmentId"":""72fe4f97-31b4-45d2-b59c-6b229ec905ef"",""projectId"":""a0a8f18c-a66e-4ba7-a170-23efbdc67501""}","https://test12345.live/?participantId=89C2E23455064455A6E568BB7338F0C2&assignmentId=72fe4f97-31b4-45d2-b59c-6b229ec905ef&projectId=a0a8f18c-a66e-4ba7-a170-23efbdc67501","89C2E23455064455A6E568BB7338F0C2-2024-11-24-18-41-42","","null","","[]","null","",""
"","","","","","image-button-response","37","451669","0.0-10.0-1.0-0.4","89C2E23455064455A6E568BB7338F0C2","89C2E23455064455A6E568BB7338F0C2","72fe4f97-31b4-45d2-b59c-6b229ec905ef","a0a8f18c-a66e-4ba7-a170-23efbdc67501","{""participantId"":""89C2E23455064455A6E568BB7338F0C2"",""assignmentId"":""72fe4f97-31b4-45d2-b59c-6b229ec905ef"",""projectId"":""a0a8f18c-a66e-4ba7-a170-23efbdc67501""}","https://test12345.live/?participantId=89C2E23455064455A6E568BB7338F0C2&assignmentId=72fe4f97-31b4-45d2-b59c-6b229ec905ef&projectId=a0a8f18c-a66e-4ba7-a170-23efbdc67501","89C2E23455064455A6E568BB7338F0C2-2024-11-24-18-41-42","","null","","images/causal_sequence/dog_causal/dog_causal_5.png","null","",""
"","","","","","image-button-response","38","452536","0.0-10.0-1.0-1.4","89C2E23455064455A6E568BB7338F0C2","89C2E23455064455A6E568BB7338F0C2","72fe4f97-31b4-45d2-b59c-6b229ec905ef","a0a8f18c-a66e-4ba7-a170-23efbdc67501","{""participantId"":""89C2E23455064455A6E568BB7338F0C2"",""assignmentId"":""72fe4f97-31b4-45d2-b59c-6b229ec905ef"",""projectId"":""a0a8f18c-a66e-4ba7-a170-23efbdc67501""}","https://test12345.live/?participantId=89C2E23455064455A6E568BB7338F0C2&assignmentId=72fe4f97-31b4-45d2-b59c-6b229ec905ef&projectId=a0a8f18c-a66e-4ba7-a170-23efbdc67501","89C2E23455064455A6E568BB7338F0C2-2024-11-24-18-41-42","","866","","images/causal_sequence/dog_causal/dog_causal_5.png","0","",""
"","","","","","image-button-response","39","454341","0.0-10.0-1.0-2.4","89C2E23455064455A6E568BB7338F0C2","89C2E23455064455A6E568BB7338F0C2","72fe4f97-31b4-45d2-b59c-6b229ec905ef","a0a8f18c-a66e-4ba7-a170-23efbdc67501","{""participantId"":""89C2E23455064455A6E568BB7338F0C2"",""assignmentId"":""72fe4f97-31b4-45d2-b59c-6b229ec905ef"",""projectId"":""a0a8f18c-a66e-4ba7-a170-23efbdc67501""}","https://test12345.live/?participantId=89C2E23455064455A6E568BB7338F0C2&assignmentId=72fe4f97-31b4-45d2-b59c-6b229ec905ef&projectId=a0a8f18c-a66e-4ba7-a170-23efbdc67501","89C2E23455064455A6E568BB7338F0C2-2024-11-24-18-41-42","","null","","[]","null","",""
"","","","","","image-button-response","40","458846","0.0-10.0-1.0-0.5","89C2E23455064455A6E568BB7338F0C2","89C2E23455064455A6E568BB7338F0C2","72fe4f97-31b4-45d2-b59c-6b229ec905ef","a0a8f18c-a66e-4ba7-a170-23efbdc67501","{""participantId"":""89C2E23455064455A6E568BB7338F0C2"",""assignmentId"":""72fe4f97-31b4-45d2-b59c-6b229ec905ef"",""projectId"":""a0a8f18c-a66e-4ba7-a170-23efbdc67501""}","https://test12345.live/?participantId=89C2E23455064455A6E568BB7338F0C2&assignmentId=72fe4f97-31b4-45d2-b59c-6b229ec905ef&projectId=a0a8f18c-a66e-4ba7-a170-23efbdc67501","89C2E23455064455A6E568BB7338F0C2-2024-11-24-18-41-42","","null","","images/causal_sequence/dog_causal/dog_causal_6.png","null","",""
"","","","","","image-button-response","41","459773","0.0-10.0-1.0-1.5","89C2E23455064455A6E568BB7338F0C2","89C2E23455064455A6E568BB7338F0C2","72fe4f97-31b4-45d2-b59c-6b229ec905ef","a0a8f18c-a66e-4ba7-a170-23efbdc67501","{""participantId"":""89C2E23455064455A6E568BB7338F0C2"",""assignmentId"":""72fe4f97-31b4-45d2-b59c-6b229ec905ef"",""projectId"":""a0a8f18c-a66e-4ba7-a170-23efbdc67501""}","https://test12345.live/?participantId=89C2E23455064455A6E568BB7338F0C2&assignmentId=72fe4f97-31b4-45d2-b59c-6b229ec905ef&projectId=a0a8f18c-a66e-4ba7-a170-23efbdc67501","89C2E23455064455A6E568BB7338F0C2-2024-11-24-18-41-42","","925","","images/causal_sequence/dog_causal/dog_causal_6.png","0","",""
"","","","","","image-button-response","42","461579","0.0-10.0-1.0-2.5","89C2E23455064455A6E568BB7338F0C2","89C2E23455064455A6E568BB7338F0C2","72fe4f97-31b4-45d2-b59c-6b229ec905ef","a0a8f18c-a66e-4ba7-a170-23efbdc67501","{""participantId"":""89C2E23455064455A6E568BB7338F0C2"",""assignmentId"":""72fe4f97-31b4-45d2-b59c-6b229ec905ef"",""projectId"":""a0a8f18c-a66e-4ba7-a170-23efbdc67501""}","https://test12345.live/?participantId=89C2E23455064455A6E568BB7338F0C2&assignmentId=72fe4f97-31b4-45d2-b59c-6b229ec905ef&projectId=a0a8f18c-a66e-4ba7-a170-23efbdc67501","89C2E23455064455A6E568BB7338F0C2-2024-11-24-18-41-42","","null","","[]","null","",""
"","","","","","image-button-response","43","466087","0.0-10.0-1.0-0.6","89C2E23455064455A6E568BB7338F0C2","89C2E23455064455A6E568BB7338F0C2","72fe4f97-31b4-45d2-b59c-6b229ec905ef","a0a8f18c-a66e-4ba7-a170-23efbdc67501","{""participantId"":""89C2E23455064455A6E568BB7338F0C2"",""assignmentId"":""72fe4f97-31b4-45d2-b59c-6b229ec905ef"",""projectId"":""a0a8f18c-a66e-4ba7-a170-23efbdc67501""}","https://test12345.live/?participantId=89C2E23455064455A6E568BB7338F0C2&assignmentId=72fe4f97-31b4-45d2-b59c-6b229ec905ef&projectId=a0a8f18c-a66e-4ba7-a170-23efbdc67501","89C2E23455064455A6E568BB7338F0C2-2024-11-24-18-41-42","","null","","images/causal_sequence/dog_causal/dog_causal_7.png","null","",""
"","","","","","image-button-response","44","467615","0.0-10.0-1.0-1.6","89C2E23455064455A6E568BB7338F0C2","89C2E23455064455A6E568BB7338F0C2","72fe4f97-31b4-45d2-b59c-6b229ec905ef","a0a8f18c-a66e-4ba7-a170-23efbdc67501","{""participantId"":""89C2E23455064455A6E568BB7338F0C2"",""assignmentId"":""72fe4f97-31b4-45d2-b59c-6b229ec905ef"",""projectId"":""a0a8f18c-a66e-4ba7-a170-23efbdc67501""}","https://test12345.live/?participantId=89C2E23455064455A6E568BB7338F0C2&assignmentId=72fe4f97-31b4-45d2-b59c-6b229ec905ef&projectId=a0a8f18c-a66e-4ba7-a170-23efbdc67501","89C2E23455064455A6E568BB7338F0C2-2024-11-24-18-41-42","","1526","","images/causal_sequence/dog_causal/dog_causal_7.png","0","",""
"","","","","","image-button-response","45","469420","0.0-10.0-1.0-2.6","89C2E23455064455A6E568BB7338F0C2","89C2E23455064455A6E568BB7338F0C2","72fe4f97-31b4-45d2-b59c-6b229ec905ef","a0a8f18c-a66e-4ba7-a170-23efbdc67501","{""participantId"":""89C2E23455064455A6E568BB7338F0C2"",""assignmentId"":""72fe4f97-31b4-45d2-b59c-6b229ec905ef"",""projectId"":""a0a8f18c-a66e-4ba7-a170-23efbdc67501""}","https://test12345.live/?participantId=89C2E23455064455A6E568BB7338F0C2&assignmentId=72fe4f97-31b4-45d2-b59c-6b229ec905ef&projectId=a0a8f18c-a66e-4ba7-a170-23efbdc67501","89C2E23455064455A6E568BB7338F0C2-2024-11-24-18-41-42","","null","","[]","null","",""
"","","","","","image-button-response","46","473929","0.0-10.0-1.0-0.7","89C2E23455064455A6E568BB7338F0C2","89C2E23455064455A6E568BB7338F0C2","72fe4f97-31b4-45d2-b59c-6b229ec905ef","a0a8f18c-a66e-4ba7-a170-23efbdc67501","{""participantId"":""89C2E23455064455A6E568BB7338F0C2"",""assignmentId"":""72fe4f97-31b4-45d2-b59c-6b229ec905ef"",""projectId"":""a0a8f18c-a66e-4ba7-a170-23efbdc67501""}","https://test12345.live/?participantId=89C2E23455064455A6E568BB7338F0C2&assignmentId=72fe4f97-31b4-45d2-b59c-6b229ec905ef&projectId=a0a8f18c-a66e-4ba7-a170-23efbdc67501","89C2E23455064455A6E568BB7338F0C2-2024-11-24-18-41-42","","null","","images/causal_sequence/dog_causal/dog_causal_8.png","null","",""
"","","","","","image-button-response","47","474916","0.0-10.0-1.0-1.7","89C2E23455064455A6E568BB7338F0C2","89C2E23455064455A6E568BB7338F0C2","72fe4f97-31b4-45d2-b59c-6b229ec905ef","a0a8f18c-a66e-4ba7-a170-23efbdc67501","{""participantId"":""89C2E23455064455A6E568BB7338F0C2"",""assignmentId"":""72fe4f97-31b4-45d2-b59c-6b229ec905ef"",""projectId"":""a0a8f18c-a66e-4ba7-a170-23efbdc67501""}","https://test12345.live/?participantId=89C2E23455064455A6E568BB7338F0C2&assignmentId=72fe4f97-31b4-45d2-b59c-6b229ec905ef&projectId=a0a8f18c-a66e-4ba7-a170-23efbdc67501","89C2E23455064455A6E568BB7338F0C2-2024-11-24-18-41-42","","987","","images/causal_sequence/dog_causal/dog_causal_8.png","0","",""
"","","","","","image-button-response","48","476731","0.0-10.0-1.0-2.7","89C2E23455064455A6E568BB7338F0C2","89C2E23455064455A6E568BB7338F0C2","72fe4f97-31b4-45d2-b59c-6b229ec905ef","a0a8f18c-a66e-4ba7-a170-23efbdc67501","{""participantId"":""89C2E23455064455A6E568BB7338F0C2"",""assignmentId"":""72fe4f97-31b4-45d2-b59c-6b229ec905ef"",""projectId"":""a0a8f18c-a66e-4ba7-a170-23efbdc67501""}","https://test12345.live/?participantId=89C2E23455064455A6E568BB7338F0C2&assignmentId=72fe4f97-31b4-45d2-b59c-6b229ec905ef&projectId=a0a8f18c-a66e-4ba7-a170-23efbdc67501","89C2E23455064455A6E568BB7338F0C2-2024-11-24-18-41-42","","null","","[]","null","",""
"","","","","","image-button-response","49","481245","0.0-10.0-1.0-0.8","89C2E23455064455A6E568BB7338F0C2","89C2E23455064455A6E568BB7338F0C2","72fe4f97-31b4-45d2-b59c-6b229ec905ef","a0a8f18c-a66e-4ba7-a170-23efbdc67501","{""participantId"":""89C2E23455064455A6E568BB7338F0C2"",""assignmentId"":""72fe4f97-31b4-45d2-b59c-6b229ec905ef"",""projectId"":""a0a8f18c-a66e-4ba7-a170-23efbdc67501""}","https://test12345.live/?participantId=89C2E23455064455A6E568BB7338F0C2&assignmentId=72fe4f97-31b4-45d2-b59c-6b229ec905ef&projectId=a0a8f18c-a66e-4ba7-a170-23efbdc67501","89C2E23455064455A6E568BB7338F0C2-2024-11-24-18-41-42","","null","","images/causal_sequence/dog_causal/dog_causal_9.png","null","",""
"","","","","","image-button-response","50","482149","0.0-10.0-1.0-1.8","89C2E23455064455A6E568BB7338F0C2","89C2E23455064455A6E568BB7338F0C2","72fe4f97-31b4-45d2-b59c-6b229ec905ef","a0a8f18c-a66e-4ba7-a170-23efbdc67501","{""participantId"":""89C2E23455064455A6E568BB7338F0C2"",""assignmentId"":""72fe4f97-31b4-45d2-b59c-6b229ec905ef"",""projectId"":""a0a8f18c-a66e-4ba7-a170-23efbdc67501""}","https://test12345.live/?participantId=89C2E23455064455A6E568BB7338F0C2&assignmentId=72fe4f97-31b4-45d2-b59c-6b229ec905ef&projectId=a0a8f18c-a66e-4ba7-a170-23efbdc67501","89C2E23455064455A6E568BB7338F0C2-2024-11-24-18-41-42","","902","","images/causal_sequence/dog_causal/dog_causal_9.png","0","",""
"","","","","","image-button-response","51","483951","0.0-10.0-1.0-2.8","89C2E23455064455A6E568BB7338F0C2","89C2E23455064455A6E568BB7338F0C2","72fe4f97-31b4-45d2-b59c-6b229ec905ef","a0a8f18c-a66e-4ba7-a170-23efbdc67501","{""participantId"":""89C2E23455064455A6E568BB7338F0C2"",""assignmentId"":""72fe4f97-31b4-45d2-b59c-6b229ec905ef"",""projectId"":""a0a8f18c-a66e-4ba7-a170-23efbdc67501""}","https://test12345.live/?participantId=89C2E23455064455A6E568BB7338F0C2&assignmentId=72fe4f97-31b4-45d2-b59c-6b229ec905ef&projectId=a0a8f18c-a66e-4ba7-a170-23efbdc67501","89C2E23455064455A6E568BB7338F0C2-2024-11-24-18-41-42","","null","","[]","null","",""
"","","","","","image-button-response","52","488460","0.0-10.0-1.0-0.9","89C2E23455064455A6E568BB7338F0C2","89C2E23455064455A6E568BB7338F0C2","72fe4f97-31b4-45d2-b59c-6b229ec905ef","a0a8f18c-a66e-4ba7-a170-23efbdc67501","{""participantId"":""89C2E23455064455A6E568BB7338F0C2"",""assignmentId"":""72fe4f97-31b4-45d2-b59c-6b229ec905ef"",""projectId"":""a0a8f18c-a66e-4ba7-a170-23efbdc67501""}","https://test12345.live/?participantId=89C2E23455064455A6E568BB7338F0C2&assignmentId=72fe4f97-31b4-45d2-b59c-6b229ec905ef&projectId=a0a8f18c-a66e-4ba7-a170-23efbdc67501","89C2E23455064455A6E568BB7338F0C2-2024-11-24-18-41-42","","null","","images/causal_sequence/dog_causal/dog_causal_ten.png","null","",""
"","","","","","image-button-response","53","489703","0.0-10.0-1.0-1.9","89C2E23455064455A6E568BB7338F0C2","89C2E23455064455A6E568BB7338F0C2","72fe4f97-31b4-45d2-b59c-6b229ec905ef","a0a8f18c-a66e-4ba7-a170-23efbdc67501","{""participantId"":""89C2E23455064455A6E568BB7338F0C2"",""assignmentId"":""72fe4f97-31b4-45d2-b59c-6b229ec905ef"",""projectId"":""a0a8f18c-a66e-4ba7-a170-23efbdc67501""}","https://test12345.live/?participantId=89C2E23455064455A6E568BB7338F0C2&assignmentId=72fe4f97-31b4-45d2-b59c-6b229ec905ef&projectId=a0a8f18c-a66e-4ba7-a170-23efbdc67501","89C2E23455064455A6E568BB7338F0C2-2024-11-24-18-41-42","","1242","","images/causal_sequence/dog_causal/dog_causal_ten.png","0","",""
"","","","","","image-button-response","54","491507","0.0-10.0-1.0-2.9","89C2E23455064455A6E568BB7338F0C2","89C2E23455064455A6E568BB7338F0C2","72fe4f97-31b4-45d2-b59c-6b229ec905ef","a0a8f18c-a66e-4ba7-a170-23efbdc67501","{""participantId"":""89C2E23455064455A6E568BB7338F0C2"",""assignmentId"":""72fe4f97-31b4-45d2-b59c-6b229ec905ef"",""projectId"":""a0a8f18c-a66e-4ba7-a170-23efbdc67501""}","https://test12345.live/?participantId=89C2E23455064455A6E568BB7338F0C2&assignmentId=72fe4f97-31b4-45d2-b59c-6b229ec905ef&projectId=a0a8f18c-a66e-4ba7-a170-23efbdc67501","89C2E23455064455A6E568BB7338F0C2-2024-11-24-18-41-42","","null","","[]","null","",""
"","","","","","html-audio-response","55","565737","0.0-11.0","89C2E23455064455A6E568BB7338F0C2","89C2E23455064455A6E568BB7338F0C2","72fe4f97-31b4-45d2-b59c-6b229ec905ef","a0a8f18c-a66e-4ba7-a170-23efbdc67501","{""participantId"":""89C2E23455064455A6E568BB7338F0C2"",""assignmentId"":""72fe4f97-31b4-45d2-b59c-6b229ec905ef"",""projectId"":""a0a8f18c-a66e-4ba7-a170-23efbdc67501""}","https://test12345.live/?participantId=89C2E23455064455A6E568BB7338F0C2&assignmentId=72fe4f97-31b4-45d2-b59c-6b229ec905ef&projectId=a0a8f18c-a66e-4ba7-a170-23efbdc67501","89C2E23455064455A6E568BB7338F0C2-2024-11-24-18-41-42","","36994","","[""<span style=\""color: red; font-size: 24px\""> NOW RECORDING</span><p>Please say out loud all the images you saw, as many as you can remember. The images can be said in any order.</p>""]","","1","dog_causal"
"","","","","","image-button-response","56","571754","0.0-12.0-0.0","89C2E23455064455A6E568BB7338F0C2","89C2E23455064455A6E568BB7338F0C2","72fe4f97-31b4-45d2-b59c-6b229ec905ef","a0a8f18c-a66e-4ba7-a170-23efbdc67501","{""participantId"":""89C2E23455064455A6E568BB7338F0C2"",""assignmentId"":""72fe4f97-31b4-45d2-b59c-6b229ec905ef"",""projectId"":""a0a8f18c-a66e-4ba7-a170-23efbdc67501""}","https://test12345.live/?participantId=89C2E23455064455A6E568BB7338F0C2&assignmentId=72fe4f97-31b4-45d2-b59c-6b229ec905ef&projectId=a0a8f18c-a66e-4ba7-a170-23efbdc67501","89C2E23455064455A6E568BB7338F0C2-2024-11-24-18-41-42","","null","","images/schematic_sequence/restaurant_scheme/restaurant_scheme_0.png","null","",""
"","","","","","image-button-response","57","576268","0.0-12.0-1.0-0.0","89C2E23455064455A6E568BB7338F0C2","89C2E23455064455A6E568BB7338F0C2","72fe4f97-31b4-45d2-b59c-6b229ec905ef","a0a8f18c-a66e-4ba7-a170-23efbdc67501","{""participantId"":""89C2E23455064455A6E568BB7338F0C2"",""assignmentId"":""72fe4f97-31b4-45d2-b59c-6b229ec905ef"",""projectId"":""a0a8f18c-a66e-4ba7-a170-23efbdc67501""}","https://test12345.live/?participantId=89C2E23455064455A6E568BB7338F0C2&assignmentId=72fe4f97-31b4-45d2-b59c-6b229ec905ef&projectId=a0a8f18c-a66e-4ba7-a170-23efbdc67501","89C2E23455064455A6E568BB7338F0C2-2024-11-24-18-41-42","","null","","images/schematic_sequence/restaurant_scheme/restaurant_scheme_1.png","null","",""
"","","","","","image-button-response","58","578067","0.0-12.0-1.0-1.0","89C2E23455064455A6E568BB7338F0C2","89C2E23455064455A6E568BB7338F0C2","72fe4f97-31b4-45d2-b59c-6b229ec905ef","a0a8f18c-a66e-4ba7-a170-23efbdc67501","{""participantId"":""89C2E23455064455A6E568BB7338F0C2"",""assignmentId"":""72fe4f97-31b4-45d2-b59c-6b229ec905ef"",""projectId"":""a0a8f18c-a66e-4ba7-a170-23efbdc67501""}","https://test12345.live/?participantId=89C2E23455064455A6E568BB7338F0C2&assignmentId=72fe4f97-31b4-45d2-b59c-6b229ec905ef&projectId=a0a8f18c-a66e-4ba7-a170-23efbdc67501","89C2E23455064455A6E568BB7338F0C2-2024-11-24-18-41-42","","1798","","images/schematic_sequence/restaurant_scheme/restaurant_scheme_1.png","0","",""
"","","","","","image-button-response","59","579868","0.0-12.0-1.0-2.0","89C2E23455064455A6E568BB7338F0C2","89C2E23455064455A6E568BB7338F0C2","72fe4f97-31b4-45d2-b59c-6b229ec905ef","a0a8f18c-a66e-4ba7-a170-23efbdc67501","{""participantId"":""89C2E23455064455A6E568BB7338F0C2"",""assignmentId"":""72fe4f97-31b4-45d2-b59c-6b229ec905ef"",""projectId"":""a0a8f18c-a66e-4ba7-a170-23efbdc67501""}","https://test12345.live/?participantId=89C2E23455064455A6E568BB7338F0C2&assignmentId=72fe4f97-31b4-45d2-b59c-6b229ec905ef&projectId=a0a8f18c-a66e-4ba7-a170-23efbdc67501","89C2E23455064455A6E568BB7338F0C2-2024-11-24-18-41-42","","null","","[]","null","",""
"","","","","","image-button-response","60","584379","0.0-12.0-1.0-0.1","89C2E23455064455A6E568BB7338F0C2","89C2E23455064455A6E568BB7338F0C2","72fe4f97-31b4-45d2-b59c-6b229ec905ef","a0a8f18c-a66e-4ba7-a170-23efbdc67501","{""participantId"":""89C2E23455064455A6E568BB7338F0C2"",""assignmentId"":""72fe4f97-31b4-45d2-b59c-6b229ec905ef"",""projectId"":""a0a8f18c-a66e-4ba7-a170-23efbdc67501""}","https://test12345.live/?participantId=89C2E23455064455A6E568BB7338F0C2&assignmentId=72fe4f97-31b4-45d2-b59c-6b229ec905ef&projectId=a0a8f18c-a66e-4ba7-a170-23efbdc67501","89C2E23455064455A6E568BB7338F0C2-2024-11-24-18-41-42","","null","","images/schematic_sequence/restaurant_scheme/restaurant_scheme_2.png","null","",""
"","","","","","image-button-response","61","585040","0.0-12.0-1.0-1.1","89C2E23455064455A6E568BB7338F0C2","89C2E23455064455A6E568BB7338F0C2","72fe4f97-31b4-45d2-b59c-6b229ec905ef","a0a8f18c-a66e-4ba7-a170-23efbdc67501","{""participantId"":""89C2E23455064455A6E568BB7338F0C2"",""assignmentId"":""72fe4f97-31b4-45d2-b59c-6b229ec905ef"",""projectId"":""a0a8f18c-a66e-4ba7-a170-23efbdc67501""}","https://test12345.live/?participantId=89C2E23455064455A6E568BB7338F0C2&assignmentId=72fe4f97-31b4-45d2-b59c-6b229ec905ef&projectId=a0a8f18c-a66e-4ba7-a170-23efbdc67501","89C2E23455064455A6E568BB7338F0C2-2024-11-24-18-41-42","","659","","images/schematic_sequence/restaurant_scheme/restaurant_scheme_2.png","1","",""
"","","","","","image-button-response","62","586851","0.0-12.0-1.0-2.1","89C2E23455064455A6E568BB7338F0C2","89C2E23455064455A6E568BB7338F0C2","72fe4f97-31b4-45d2-b59c-6b229ec905ef","a0a8f18c-a66e-4ba7-a170-23efbdc67501","{""participantId"":""89C2E23455064455A6E568BB7338F0C2"",""assignmentId"":""72fe4f97-31b4-45d2-b59c-6b229ec905ef"",""projectId"":""a0a8f18c-a66e-4ba7-a170-23efbdc67501""}","https://test12345.live/?participantId=89C2E23455064455A6E568BB7338F0C2&assignmentId=72fe4f97-31b4-45d2-b59c-6b229ec905ef&projectId=a0a8f18c-a66e-4ba7-a170-23efbdc67501","89C2E23455064455A6E568BB7338F0C2-2024-11-24-18-41-42","","null","","[]","null","",""
"","","","","","image-button-response","63","591367","0.0-12.0-1.0-0.2","89C2E23455064455A6E568BB7338F0C2","89C2E23455064455A6E568BB7338F0C2","72fe4f97-31b4-45d2-b59c-6b229ec905ef","a0a8f18c-a66e-4ba7-a170-23efbdc67501","{""participantId"":""89C2E23455064455A6E568BB7338F0C2"",""assignmentId"":""72fe4f97-31b4-45d2-b59c-6b229ec905ef"",""projectId"":""a0a8f18c-a66e-4ba7-a170-23efbdc67501""}","https://test12345.live/?participantId=89C2E23455064455A6E568BB7338F0C2&assignmentId=72fe4f97-31b4-45d2-b59c-6b229ec905ef&projectId=a0a8f18c-a66e-4ba7-a170-23efbdc67501","89C2E23455064455A6E568BB7338F0C2-2024-11-24-18-41-42","","null","","images/schematic_sequence/restaurant_scheme/restaurant_scheme_3.png","null","",""
"","","","","","image-button-response","64","592204","0.0-12.0-1.0-1.2","89C2E23455064455A6E568BB7338F0C2","89C2E23455064455A6E568BB7338F0C2","72fe4f97-31b4-45d2-b59c-6b229ec905ef","a0a8f18c-a66e-4ba7-a170-23efbdc67501","{""participantId"":""89C2E23455064455A6E568BB7338F0C2"",""assignmentId"":""72fe4f97-31b4-45d2-b59c-6b229ec905ef"",""projectId"":""a0a8f18c-a66e-4ba7-a170-23efbdc67501""}","https://test12345.live/?participantId=89C2E23455064455A6E568BB7338F0C2&assignmentId=72fe4f97-31b4-45d2-b59c-6b229ec905ef&projectId=a0a8f18c-a66e-4ba7-a170-23efbdc67501","89C2E23455064455A6E568BB7338F0C2-2024-11-24-18-41-42","","836","","images/schematic_sequence/restaurant_scheme/restaurant_scheme_3.png","1","",""
"","","","","","image-button-response","65","594007","0.0-12.0-1.0-2.2","89C2E23455064455A6E568BB7338F0C2","89C2E23455064455A6E568BB7338F0C2","72fe4f97-31b4-45d2-b59c-6b229ec905ef","a0a8f18c-a66e-4ba7-a170-23efbdc67501","{""participantId"":""89C2E23455064455A6E568BB7338F0C2"",""assignmentId"":""72fe4f97-31b4-45d2-b59c-6b229ec905ef"",""projectId"":""a0a8f18c-a66e-4ba7-a170-23efbdc67501""}","https://test12345.live/?participantId=89C2E23455064455A6E568BB7338F0C2&assignmentId=72fe4f97-31b4-45d2-b59c-6b229ec905ef&projectId=a0a8f18c-a66e-4ba7-a170-23efbdc67501","89C2E23455064455A6E568BB7338F0C2-2024-11-24-18-41-42","","null","","[]","null","",""
"","","","","","image-button-response","66","598516","0.0-12.0-1.0-0.3","89C2E23455064455A6E568BB7338F0C2","89C2E23455064455A6E568BB7338F0C2","72fe4f97-31b4-45d2-b59c-6b229ec905ef","a0a8f18c-a66e-4ba7-a170-23efbdc67501","{""participantId"":""89C2E23455064455A6E568BB7338F0C2"",""assignmentId"":""72fe4f97-31b4-45d2-b59c-6b229ec905ef"",""projectId"":""a0a8f18c-a66e-4ba7-a170-23efbdc67501""}","https://test12345.live/?participantId=89C2E23455064455A6E568BB7338F0C2&assignmentId=72fe4f97-31b4-45d2-b59c-6b229ec905ef&projectId=a0a8f18c-a66e-4ba7-a170-23efbdc67501","89C2E23455064455A6E568BB7338F0C2-2024-11-24-18-41-42","","null","","images/schematic_sequence/restaurant_scheme/restaurant_scheme_4.png","null","",""
"","","","","","image-button-response","67","599170","0.0-12.0-1.0-1.3","89C2E23455064455A6E568BB7338F0C2","89C2E23455064455A6E568BB7338F0C2","72fe4f97-31b4-45d2-b59c-6b229ec905ef","a0a8f18c-a66e-4ba7-a170-23efbdc67501","{""participantId"":""89C2E23455064455A6E568BB7338F0C2"",""assignmentId"":""72fe4f97-31b4-45d2-b59c-6b229ec905ef"",""projectId"":""a0a8f18c-a66e-4ba7-a170-23efbdc67501""}","https://test12345.live/?participantId=89C2E23455064455A6E568BB7338F0C2&assignmentId=72fe4f97-31b4-45d2-b59c-6b229ec905ef&projectId=a0a8f18c-a66e-4ba7-a170-23efbdc67501","89C2E23455064455A6E568BB7338F0C2-2024-11-24-18-41-42","","652","","images/schematic_sequence/restaurant_scheme/restaurant_scheme_4.png","0","",""
"","","","","","image-button-response","68","600984","0.0-12.0-1.0-2.3","89C2E23455064455A6E568BB7338F0C2","89C2E23455064455A6E568BB7338F0C2","72fe4f97-31b4-45d2-b59c-6b229ec905ef","a0a8f18c-a66e-4ba7-a170-23efbdc67501","{""participantId"":""89C2E23455064455A6E568BB7338F0C2"",""assignmentId"":""72fe4f97-31b4-45d2-b59c-6b229ec905ef"",""projectId"":""a0a8f18c-a66e-4ba7-a170-23efbdc67501""}","https://test12345.live/?participantId=89C2E23455064455A6E568BB7338F0C2&assignmentId=72fe4f97-31b4-45d2-b59c-6b229ec905ef&projectId=a0a8f18c-a66e-4ba7-a170-23efbdc67501","89C2E23455064455A6E568BB7338F0C2-2024-11-24-18-41-42","","null","","[]","null","",""
"","","","","","image-button-response","69","605487","0.0-12.0-1.0-0.4","89C2E23455064455A6E568BB7338F0C2","89C2E23455064455A6E568BB7338F0C2","72fe4f97-31b4-45d2-b59c-6b229ec905ef","a0a8f18c-a66e-4ba7-a170-23efbdc67501","{""participantId"":""89C2E23455064455A6E568BB7338F0C2"",""assignmentId"":""72fe4f97-31b4-45d2-b59c-6b229ec905ef"",""projectId"":""a0a8f18c-a66e-4ba7-a170-23efbdc67501""}","https://test12345.live/?participantId=89C2E23455064455A6E568BB7338F0C2&assignmentId=72fe4f97-31b4-45d2-b59c-6b229ec905ef&projectId=a0a8f18c-a66e-4ba7-a170-23efbdc67501","89C2E23455064455A6E568BB7338F0C2-2024-11-24-18-41-42","","null","","images/schematic_sequence/restaurant_scheme/restaurant_scheme_5.png","null","",""
"","","","","","image-button-response","70","607052","0.0-12.0-1.0-1.4","89C2E23455064455A6E568BB7338F0C2","89C2E23455064455A6E568BB7338F0C2","72fe4f97-31b4-45d2-b59c-6b229ec905ef","a0a8f18c-a66e-4ba7-a170-23efbdc67501","{""participantId"":""89C2E23455064455A6E568BB7338F0C2"",""assignmentId"":""72fe4f97-31b4-45d2-b59c-6b229ec905ef"",""projectId"":""a0a8f18c-a66e-4ba7-a170-23efbdc67501""}","https://test12345.live/?participantId=89C2E23455064455A6E568BB7338F0C2&assignmentId=72fe4f97-31b4-45d2-b59c-6b229ec905ef&projectId=a0a8f18c-a66e-4ba7-a170-23efbdc67501","89C2E23455064455A6E568BB7338F0C2-2024-11-24-18-41-42","","1563","","images/schematic_sequence/restaurant_scheme/restaurant_scheme_5.png","0","",""
"","","","","","image-button-response","71","608869","0.0-12.0-1.0-2.4","89C2E23455064455A6E568BB7338F0C2","89C2E23455064455A6E568BB7338F0C2","72fe4f97-31b4-45d2-b59c-6b229ec905ef","a0a8f18c-a66e-4ba7-a170-23efbdc67501","{""participantId"":""89C2E23455064455A6E568BB7338F0C2"",""assignmentId"":""72fe4f97-31b4-45d2-b59c-6b229ec905ef"",""projectId"":""a0a8f18c-a66e-4ba7-a170-23efbdc67501""}","https://test12345.live/?participantId=89C2E23455064455A6E568BB7338F0C2&assignmentId=72fe4f97-31b4-45d2-b59c-6b229ec905ef&projectId=a0a8f18c-a66e-4ba7-a170-23efbdc67501","89C2E23455064455A6E568BB7338F0C2-2024-11-24-18-41-42","","null","","[]","null","",""
"","","","","","image-button-response","72","613385","0.0-12.0-1.0-0.5","89C2E23455064455A6E568BB7338F0C2","89C2E23455064455A6E568BB7338F0C2","72fe4f97-31b4-45d2-b59c-6b229ec905ef","a0a8f18c-a66e-4ba7-a170-23efbdc67501","{""participantId"":""89C2E23455064455A6E568BB7338F0C2"",""assignmentId"":""72fe4f97-31b4-45d2-b59c-6b229ec905ef"",""projectId"":""a0a8f18c-a66e-4ba7-a170-23efbdc67501""}","https://test12345.live/?participantId=89C2E23455064455A6E568BB7338F0C2&assignmentId=72fe4f97-31b4-45d2-b59c-6b229ec905ef&projectId=a0a8f18c-a66e-4ba7-a170-23efbdc67501","89C2E23455064455A6E568BB7338F0C2-2024-11-24-18-41-42","","null","","images/schematic_sequence/restaurant_scheme/restaurant_scheme_6.png","null","",""
"","","","","","image-button-response","73","614268","0.0-12.0-1.0-1.5","89C2E23455064455A6E568BB7338F0C2","89C2E23455064455A6E568BB7338F0C2","72fe4f97-31b4-45d2-b59c-6b229ec905ef","a0a8f18c-a66e-4ba7-a170-23efbdc67501","{""participantId"":""89C2E23455064455A6E568BB7338F0C2"",""assignmentId"":""72fe4f97-31b4-45d2-b59c-6b229ec905ef"",""projectId"":""a0a8f18c-a66e-4ba7-a170-23efbdc67501""}","https://test12345.live/?participantId=89C2E23455064455A6E568BB7338F0C2&assignmentId=72fe4f97-31b4-45d2-b59c-6b229ec905ef&projectId=a0a8f18c-a66e-4ba7-a170-23efbdc67501","89C2E23455064455A6E568BB7338F0C2-2024-11-24-18-41-42","","881","","images/schematic_sequence/restaurant_scheme/restaurant_scheme_6.png","1","",""
"","","","","","image-button-response","74","616083","0.0-12.0-1.0-2.5","89C2E23455064455A6E568BB7338F0C2","89C2E23455064455A6E568BB7338F0C2","72fe4f97-31b4-45d2-b59c-6b229ec905ef","a0a8f18c-a66e-4ba7-a170-23efbdc67501","{""participantId"":""89C2E23455064455A6E568BB7338F0C2"",""assignmentId"":""72fe4f97-31b4-45d2-b59c-6b229ec905ef"",""projectId"":""a0a8f18c-a66e-4ba7-a170-23efbdc67501""}","https://test12345.live/?participantId=89C2E23455064455A6E568BB7338F0C2&assignmentId=72fe4f97-31b4-45d2-b59c-6b229ec905ef&projectId=a0a8f18c-a66e-4ba7-a170-23efbdc67501","89C2E23455064455A6E568BB7338F0C2-2024-11-24-18-41-42","","null","","[]","null","",""
"","","","","","image-button-response","75","620584","0.0-12.0-1.0-0.6","89C2E23455064455A6E568BB7338F0C2","89C2E23455064455A6E568BB7338F0C2","72fe4f97-31b4-45d2-b59c-6b229ec905ef","a0a8f18c-a66e-4ba7-a170-23efbdc67501","{""participantId"":""89C2E23455064455A6E568BB7338F0C2"",""assignmentId"":""72fe4f97-31b4-45d2-b59c-6b229ec905ef"",""projectId"":""a0a8f18c-a66e-4ba7-a170-23efbdc67501""}","https://test12345.live/?participantId=89C2E23455064455A6E568BB7338F0C2&assignmentId=72fe4f97-31b4-45d2-b59c-6b229ec905ef&projectId=a0a8f18c-a66e-4ba7-a170-23efbdc67501","89C2E23455064455A6E568BB7338F0C2-2024-11-24-18-41-42","","null","","images/schematic_sequence/restaurant_scheme/restaurant_scheme_7.png","null","",""
"","","","","","image-button-response","76","621286","0.0-12.0-1.0-1.6","89C2E23455064455A6E568BB7338F0C2","89C2E23455064455A6E568BB7338F0C2","72fe4f97-31b4-45d2-b59c-6b229ec905ef","a0a8f18c-a66e-4ba7-a170-23efbdc67501","{""participantId"":""89C2E23455064455A6E568BB7338F0C2"",""assignmentId"":""72fe4f97-31b4-45d2-b59c-6b229ec905ef"",""projectId"":""a0a8f18c-a66e-4ba7-a170-23efbdc67501""}","https://test12345.live/?participantId=89C2E23455064455A6E568BB7338F0C2&assignmentId=72fe4f97-31b4-45d2-b59c-6b229ec905ef&projectId=a0a8f18c-a66e-4ba7-a170-23efbdc67501","89C2E23455064455A6E568BB7338F0C2-2024-11-24-18-41-42","","700","","images/schematic_sequence/restaurant_scheme/restaurant_scheme_7.png","1","",""
"","","","","","image-button-response","77","623099","0.0-12.0-1.0-2.6","89C2E23455064455A6E568BB7338F0C2","89C2E23455064455A6E568BB7338F0C2","72fe4f97-31b4-45d2-b59c-6b229ec905ef","a0a8f18c-a66e-4ba7-a170-23efbdc67501","{""participantId"":""89C2E23455064455A6E568BB7338F0C2"",""assignmentId"":""72fe4f97-31b4-45d2-b59c-6b229ec905ef"",""projectId"":""a0a8f18c-a66e-4ba7-a170-23efbdc67501""}","https://test12345.live/?participantId=89C2E23455064455A6E568BB7338F0C2&assignmentId=72fe4f97-31b4-45d2-b59c-6b229ec905ef&projectId=a0a8f18c-a66e-4ba7-a170-23efbdc67501","89C2E23455064455A6E568BB7338F0C2-2024-11-24-18-41-42","","null","","[]","null","",""
"","","","","","image-button-response","78","627601","0.0-12.0-1.0-0.7","89C2E23455064455A6E568BB7338F0C2","89C2E23455064455A6E568BB7338F0C2","72fe4f97-31b4-45d2-b59c-6b229ec905ef","a0a8f18c-a66e-4ba7-a170-23efbdc67501","{""participantId"":""89C2E23455064455A6E568BB7338F0C2"",""assignmentId"":""72fe4f97-31b4-45d2-b59c-6b229ec905ef"",""projectId"":""a0a8f18c-a66e-4ba7-a170-23efbdc67501""}","https://test12345.live/?participantId=89C2E23455064455A6E568BB7338F0C2&assignmentId=72fe4f97-31b4-45d2-b59c-6b229ec905ef&projectId=a0a8f18c-a66e-4ba7-a170-23efbdc67501","89C2E23455064455A6E568BB7338F0C2-2024-11-24-18-41-42","","null","","images/schematic_sequence/restaurant_scheme/restaurant_scheme_8.png","null","",""
"","","","","","image-button-response","79","628296","0.0-12.0-1.0-1.7","89C2E23455064455A6E568BB7338F0C2","89C2E23455064455A6E568BB7338F0C2","72fe4f97-31b4-45d2-b59c-6b229ec905ef","a0a8f18c-a66e-4ba7-a170-23efbdc67501","{""participantId"":""89C2E23455064455A6E568BB7338F0C2"",""assignmentId"":""72fe4f97-31b4-45d2-b59c-6b229ec905ef"",""projectId"":""a0a8f18c-a66e-4ba7-a170-23efbdc67501""}","https://test12345.live/?participantId=89C2E23455064455A6E568BB7338F0C2&assignmentId=72fe4f97-31b4-45d2-b59c-6b229ec905ef&projectId=a0a8f18c-a66e-4ba7-a170-23efbdc67501","89C2E23455064455A6E568BB7338F0C2-2024-11-24-18-41-42","","693","","images/schematic_sequence/restaurant_scheme/restaurant_scheme_8.png","0","",""
"","","","","","image-button-response","80","630098","0.0-12.0-1.0-2.7","89C2E23455064455A6E568BB7338F0C2","89C2E23455064455A6E568BB7338F0C2","72fe4f97-31b4-45d2-b59c-6b229ec905ef","a0a8f18c-a66e-4ba7-a170-23efbdc67501","{""participantId"":""89C2E23455064455A6E568BB7338F0C2"",""assignmentId"":""72fe4f97-31b4-45d2-b59c-6b229ec905ef"",""projectId"":""a0a8f18c-a66e-4ba7-a170-23efbdc67501""}","https://test12345.live/?participantId=89C2E23455064455A6E568BB7338F0C2&assignmentId=72fe4f97-31b4-45d2-b59c-6b229ec905ef&projectId=a0a8f18c-a66e-4ba7-a170-23efbdc67501","89C2E23455064455A6E568BB7338F0C2-2024-11-24-18-41-42","","null","","[]","null","",""
"","","","","","image-button-response","81","634607","0.0-12.0-1.0-0.8","89C2E23455064455A6E568BB7338F0C2","89C2E23455064455A6E568BB7338F0C2","72fe4f97-31b4-45d2-b59c-6b229ec905ef","a0a8f18c-a66e-4ba7-a170-23efbdc67501","{""participantId"":""89C2E23455064455A6E568BB7338F0C2"",""assignmentId"":""72fe4f97-31b4-45d2-b59c-6b229ec905ef"",""projectId"":""a0a8f18c-a66e-4ba7-a170-23efbdc67501""}","https://test12345.live/?participantId=89C2E23455064455A6E568BB7338F0C2&assignmentId=72fe4f97-31b4-45d2-b59c-6b229ec905ef&projectId=a0a8f18c-a66e-4ba7-a170-23efbdc67501","89C2E23455064455A6E568BB7338F0C2-2024-11-24-18-41-42","","null","","images/schematic_sequence/restaurant_scheme/restaurant_scheme_9.png","null","",""
"","","","","","image-button-response","82","635875","0.0-12.0-1.0-1.8","89C2E23455064455A6E568BB7338F0C2","89C2E23455064455A6E568BB7338F0C2","72fe4f97-31b4-45d2-b59c-6b229ec905ef","a0a8f18c-a66e-4ba7-a170-23efbdc67501","{""participantId"":""89C2E23455064455A6E568BB7338F0C2"",""assignmentId"":""72fe4f97-31b4-45d2-b59c-6b229ec905ef"",""projectId"":""a0a8f18c-a66e-4ba7-a170-23efbdc67501""}","https://test12345.live/?participantId=89C2E23455064455A6E568BB7338F0C2&assignmentId=72fe4f97-31b4-45d2-b59c-6b229ec905ef&projectId=a0a8f18c-a66e-4ba7-a170-23efbdc67501","89C2E23455064455A6E568BB7338F0C2-2024-11-24-18-41-42","","1266","","images/schematic_sequence/restaurant_scheme/restaurant_scheme_9.png","0","",""
"","","","","","image-button-response","83","637680","0.0-12.0-1.0-2.8","89C2E23455064455A6E568BB7338F0C2","89C2E23455064455A6E568BB7338F0C2","72fe4f97-31b4-45d2-b59c-6b229ec905ef","a0a8f18c-a66e-4ba7-a170-23efbdc67501","{""participantId"":""89C2E23455064455A6E568BB7338F0C2"",""assignmentId"":""72fe4f97-31b4-45d2-b59c-6b229ec905ef"",""projectId"":""a0a8f18c-a66e-4ba7-a170-23efbdc67501""}","https://test12345.live/?participantId=89C2E23455064455A6E568BB7338F0C2&assignmentId=72fe4f97-31b4-45d2-b59c-6b229ec905ef&projectId=a0a8f18c-a66e-4ba7-a170-23efbdc67501","89C2E23455064455A6E568BB7338F0C2-2024-11-24-18-41-42","","null","","[]","null","",""
"","","","","","image-button-response","84","642185","0.0-12.0-1.0-0.9","89C2E23455064455A6E568BB7338F0C2","89C2E23455064455A6E568BB7338F0C2","72fe4f97-31b4-45d2-b59c-6b229ec905ef","a0a8f18c-a66e-4ba7-a170-23efbdc67501","{""participantId"":""89C2E23455064455A6E568BB7338F0C2"",""assignmentId"":""72fe4f97-31b4-45d2-b59c-6b229ec905ef"",""projectId"":""a0a8f18c-a66e-4ba7-a170-23efbdc67501""}","https://test12345.live/?participantId=89C2E23455064455A6E568BB7338F0C2&assignmentId=72fe4f97-31b4-45d2-b59c-6b229ec905ef&projectId=a0a8f18c-a66e-4ba7-a170-23efbdc67501","89C2E23455064455A6E568BB7338F0C2-2024-11-24-18-41-42","","null","","images/schematic_sequence/restaurant_scheme/restaurant_scheme_ten.png","null","",""
"","","","","","image-button-response","85","643775","0.0-12.0-1.0-1.9","89C2E23455064455A6E568BB7338F0C2","89C2E23455064455A6E568BB7338F0C2","72fe4f97-31b4-45d2-b59c-6b229ec905ef","a0a8f18c-a66e-4ba7-a170-23efbdc67501","{""participantId"":""89C2E23455064455A6E568BB7338F0C2"",""assignmentId"":""72fe4f97-31b4-45d2-b59c-6b229ec905ef"",""projectId"":""a0a8f18c-a66e-4ba7-a170-23efbdc67501""}","https://test12345.live/?participantId=89C2E23455064455A6E568BB7338F0C2&assignmentId=72fe4f97-31b4-45d2-b59c-6b229ec905ef&projectId=a0a8f18c-a66e-4ba7-a170-23efbdc67501","89C2E23455064455A6E568BB7338F0C2-2024-11-24-18-41-42","","1588","","images/schematic_sequence/restaurant_scheme/restaurant_scheme_ten.png","0","",""
"","","","","","image-button-response","86","645578","0.0-12.0-1.0-2.9","89C2E23455064455A6E568BB7338F0C2","89C2E23455064455A6E568BB7338F0C2","72fe4f97-31b4-45d2-b59c-6b229ec905ef","a0a8f18c-a66e-4ba7-a170-23efbdc67501","{""participantId"":""89C2E23455064455A6E568BB7338F0C2"",""assignmentId"":""72fe4f97-31b4-45d2-b59c-6b229ec905ef"",""projectId"":""a0a8f18c-a66e-4ba7-a170-23efbdc67501""}","https://test12345.live/?participantId=89C2E23455064455A6E568BB7338F0C2&assignmentId=72fe4f97-31b4-45d2-b59c-6b229ec905ef&projectId=a0a8f18c-a66e-4ba7-a170-23efbdc67501","89C2E23455064455A6E568BB7338F0C2-2024-11-24-18-41-42","","null","","[]","null","",""
"","","","","","html-audio-response","87","699371","0.0-13.0","89C2E23455064455A6E568BB7338F0C2","89C2E23455064455A6E568BB7338F0C2","72fe4f97-31b4-45d2-b59c-6b229ec905ef","a0a8f18c-a66e-4ba7-a170-23efbdc67501","{""participantId"":""89C2E23455064455A6E568BB7338F0C2"",""assignmentId"":""72fe4f97-31b4-45d2-b59c-6b229ec905ef"",""projectId"":""a0a8f18c-a66e-4ba7-a170-23efbdc67501""}","https://test12345.live/?participantId=89C2E23455064455A6E568BB7338F0C2&assignmentId=72fe4f97-31b4-45d2-b59c-6b229ec905ef&projectId=a0a8f18c-a66e-4ba7-a170-23efbdc67501","89C2E23455064455A6E568BB7338F0C2-2024-11-24-18-41-42","","25861","","[""<span style=\""color: red; font-size: 24px\""> NOW RECORDING</span><p>Please say out loud all the images you saw, as many as you can remember. The images can be said in any order.</p>""]","","2","restaurant_scheme"
"","","","","","image-button-response","88","705377","0.0-14.0-0.0","89C2E23455064455A6E568BB7338F0C2","89C2E23455064455A6E568BB7338F0C2","72fe4f97-31b4-45d2-b59c-6b229ec905ef","a0a8f18c-a66e-4ba7-a170-23efbdc67501","{""participantId"":""89C2E23455064455A6E568BB7338F0C2"",""assignmentId"":""72fe4f97-31b4-45d2-b59c-6b229ec905ef"",""projectId"":""a0a8f18c-a66e-4ba7-a170-23efbdc67501""}","https://test12345.live/?participantId=89C2E23455064455A6E568BB7338F0C2&assignmentId=72fe4f97-31b4-45d2-b59c-6b229ec905ef&projectId=a0a8f18c-a66e-4ba7-a170-23efbdc67501","89C2E23455064455A6E568BB7338F0C2-2024-11-24-18-41-42","","null","","images/causal_sequence/saving_a_cat_causal/saving_a_cat_causal_0.png","null","",""
"","","","","","image-button-response","89","709882","0.0-14.0-1.0-0.0","89C2E23455064455A6E568BB7338F0C2","89C2E23455064455A6E568BB7338F0C2","72fe4f97-31b4-45d2-b59c-6b229ec905ef","a0a8f18c-a66e-4ba7-a170-23efbdc67501","{""participantId"":""89C2E23455064455A6E568BB7338F0C2"",""assignmentId"":""72fe4f97-31b4-45d2-b59c-6b229ec905ef"",""projectId"":""a0a8f18c-a66e-4ba7-a170-23efbdc67501""}","https://test12345.live/?participantId=89C2E23455064455A6E568BB7338F0C2&assignmentId=72fe4f97-31b4-45d2-b59c-6b229ec905ef&projectId=a0a8f18c-a66e-4ba7-a170-23efbdc67501","89C2E23455064455A6E568BB7338F0C2-2024-11-24-18-41-42","","null","","images/causal_sequence/saving_a_cat_causal/saving_a_cat_causal_5.png","null","",""
"","","","","","image-button-response","90","711248","0.0-14.0-1.0-1.0","89C2E23455064455A6E568BB7338F0C2","89C2E23455064455A6E568BB7338F0C2","72fe4f97-31b4-45d2-b59c-6b229ec905ef","a0a8f18c-a66e-4ba7-a170-23efbdc67501","{""participantId"":""89C2E23455064455A6E568BB7338F0C2"",""assignmentId"":""72fe4f97-31b4-45d2-b59c-6b229ec905ef"",""projectId"":""a0a8f18c-a66e-4ba7-a170-23efbdc67501""}","https://test12345.live/?participantId=89C2E23455064455A6E568BB7338F0C2&assignmentId=72fe4f97-31b4-45d2-b59c-6b229ec905ef&projectId=a0a8f18c-a66e-4ba7-a170-23efbdc67501","89C2E23455064455A6E568BB7338F0C2-2024-11-24-18-41-42","","1364","","images/causal_sequence/saving_a_cat_causal/saving_a_cat_causal_5.png","0","",""
"","","","","","image-button-response","91","713059","0.0-14.0-1.0-2.0","89C2E23455064455A6E568BB7338F0C2","89C2E23455064455A6E568BB7338F0C2","72fe4f97-31b4-45d2-b59c-6b229ec905ef","a0a8f18c-a66e-4ba7-a170-23efbdc67501","{""participantId"":""89C2E23455064455A6E568BB7338F0C2"",""assignmentId"":""72fe4f97-31b4-45d2-b59c-6b229ec905ef"",""projectId"":""a0a8f18c-a66e-4ba7-a170-23efbdc67501""}","https://test12345.live/?participantId=89C2E23455064455A6E568BB7338F0C2&assignmentId=72fe4f97-31b4-45d2-b59c-6b229ec905ef&projectId=a0a8f18c-a66e-4ba7-a170-23efbdc67501","89C2E23455064455A6E568BB7338F0C2-2024-11-24-18-41-42","","null","","[]","null","",""
"","","","","","image-button-response","92","717571","0.0-14.0-1.0-0.1","89C2E23455064455A6E568BB7338F0C2","89C2E23455064455A6E568BB7338F0C2","72fe4f97-31b4-45d2-b59c-6b229ec905ef","a0a8f18c-a66e-4ba7-a170-23efbdc67501","{""participantId"":""89C2E23455064455A6E568BB7338F0C2"",""assignmentId"":""72fe4f97-31b4-45d2-b59c-6b229ec905ef"",""projectId"":""a0a8f18c-a66e-4ba7-a170-23efbdc67501""}","https://test12345.live/?participantId=89C2E23455064455A6E568BB7338F0C2&assignmentId=72fe4f97-31b4-45d2-b59c-6b229ec905ef&projectId=a0a8f18c-a66e-4ba7-a170-23efbdc67501","89C2E23455064455A6E568BB7338F0C2-2024-11-24-18-41-42","","null","","images/causal_sequence/saving_a_cat_causal/saving_a_cat_causal_3.png","null","",""
"","","","","","image-button-response","93","720512","0.0-14.0-1.0-1.1","89C2E23455064455A6E568BB7338F0C2","89C2E23455064455A6E568BB7338F0C2","72fe4f97-31b4-45d2-b59c-6b229ec905ef","a0a8f18c-a66e-4ba7-a170-23efbdc67501","{""participantId"":""89C2E23455064455A6E568BB7338F0C2"",""assignmentId"":""72fe4f97-31b4-45d2-b59c-6b229ec905ef"",""projectId"":""a0a8f18c-a66e-4ba7-a170-23efbdc67501""}","https://test12345.live/?participantId=89C2E23455064455A6E568BB7338F0C2&assignmentId=72fe4f97-31b4-45d2-b59c-6b229ec905ef&projectId=a0a8f18c-a66e-4ba7-a170-23efbdc67501","89C2E23455064455A6E568BB7338F0C2-2024-11-24-18-41-42","","2940","","images/causal_sequence/saving_a_cat_causal/saving_a_cat_causal_3.png","1","",""
"","","","","","image-button-response","94","722325","0.0-14.0-1.0-2.1","89C2E23455064455A6E568BB7338F0C2","89C2E23455064455A6E568BB7338F0C2","72fe4f97-31b4-45d2-b59c-6b229ec905ef","a0a8f18c-a66e-4ba7-a170-23efbdc67501","{""participantId"":""89C2E23455064455A6E568BB7338F0C2"",""assignmentId"":""72fe4f97-31b4-45d2-b59c-6b229ec905ef"",""projectId"":""a0a8f18c-a66e-4ba7-a170-23efbdc67501""}","https://test12345.live/?participantId=89C2E23455064455A6E568BB7338F0C2&assignmentId=72fe4f97-31b4-45d2-b59c-6b229ec905ef&projectId=a0a8f18c-a66e-4ba7-a170-23efbdc67501","89C2E23455064455A6E568BB7338F0C2-2024-11-24-18-41-42","","null","","[]","null","",""
"","","","","","image-button-response","95","726833","0.0-14.0-1.0-0.2","89C2E23455064455A6E568BB7338F0C2","89C2E23455064455A6E568BB7338F0C2","72fe4f97-31b4-45d2-b59c-6b229ec905ef","a0a8f18c-a66e-4ba7-a170-23efbdc67501","{""participantId"":""89C2E23455064455A6E568BB7338F0C2"",""assignmentId"":""72fe4f97-31b4-45d2-b59c-6b229ec905ef"",""projectId"":""a0a8f18c-a66e-4ba7-a170-23efbdc67501""}","https://test12345.live/?participantId=89C2E23455064455A6E568BB7338F0C2&assignmentId=72fe4f97-31b4-45d2-b59c-6b229ec905ef&projectId=a0a8f18c-a66e-4ba7-a170-23efbdc67501","89C2E23455064455A6E568BB7338F0C2-2024-11-24-18-41-42","","null","","images/causal_sequence/saving_a_cat_causal/saving_a_cat_causal_2.png","null","",""
"","","","","","image-button-response","96","730396","0.0-14.0-1.0-1.2","89C2E23455064455A6E568BB7338F0C2","89C2E23455064455A6E568BB7338F0C2","72fe4f97-31b4-45d2-b59c-6b229ec905ef","a0a8f18c-a66e-4ba7-a170-23efbdc67501","{""participantId"":""89C2E23455064455A6E568BB7338F0C2"",""assignmentId"":""72fe4f97-31b4-45d2-b59c-6b229ec905ef"",""projectId"":""a0a8f18c-a66e-4ba7-a170-23efbdc67501""}","https://test12345.live/?participantId=89C2E23455064455A6E568BB7338F0C2&assignmentId=72fe4f97-31b4-45d2-b59c-6b229ec905ef&projectId=a0a8f18c-a66e-4ba7-a170-23efbdc67501","89C2E23455064455A6E568BB7338F0C2-2024-11-24-18-41-42","","3562","","images/causal_sequence/saving_a_cat_causal/saving_a_cat_causal_2.png","1","",""
"","","","","","image-button-response","97","732201","0.0-14.0-1.0-2.2","89C2E23455064455A6E568BB7338F0C2","89C2E23455064455A6E568BB7338F0C2","72fe4f97-31b4-45d2-b59c-6b229ec905ef","a0a8f18c-a66e-4ba7-a170-23efbdc67501","{""participantId"":""89C2E23455064455A6E568BB7338F0C2"",""assignmentId"":""72fe4f97-31b4-45d2-b59c-6b229ec905ef"",""projectId"":""a0a8f18c-a66e-4ba7-a170-23efbdc67501""}","https://test12345.live/?participantId=89C2E23455064455A6E568BB7338F0C2&assignmentId=72fe4f97-31b4-45d2-b59c-6b229ec905ef&projectId=a0a8f18c-a66e-4ba7-a170-23efbdc67501","89C2E23455064455A6E568BB7338F0C2-2024-11-24-18-41-42","","null","","[]","null","",""
"","","","","","image-button-response","98","736703","0.0-14.0-1.0-0.3","89C2E23455064455A6E568BB7338F0C2","89C2E23455064455A6E568BB7338F0C2","72fe4f97-31b4-45d2-b59c-6b229ec905ef","a0a8f18c-a66e-4ba7-a170-23efbdc67501","{""participantId"":""89C2E23455064455A6E568BB7338F0C2"",""assignmentId"":""72fe4f97-31b4-45d2-b59c-6b229ec905ef"",""projectId"":""a0a8f18c-a66e-4ba7-a170-23efbdc67501""}","https://test12345.live/?participantId=89C2E23455064455A6E568BB7338F0C2&assignmentId=72fe4f97-31b4-45d2-b59c-6b229ec905ef&projectId=a0a8f18c-a66e-4ba7-a170-23efbdc67501","89C2E23455064455A6E568BB7338F0C2-2024-11-24-18-41-42","","null","","images/causal_sequence/saving_a_cat_causal/saving_a_cat_causal_4.png","null","",""
"","","","","","image-button-response","99","737706","0.0-14.0-1.0-1.3","89C2E23455064455A6E568BB7338F0C2","89C2E23455064455A6E568BB7338F0C2","72fe4f97-31b4-45d2-b59c-6b229ec905ef","a0a8f18c-a66e-4ba7-a170-23efbdc67501","{""participantId"":""89C2E23455064455A6E568BB7338F0C2"",""assignmentId"":""72fe4f97-31b4-45d2-b59c-6b229ec905ef"",""projectId"":""a0a8f18c-a66e-4ba7-a170-23efbdc67501""}","https://test12345.live/?participantId=89C2E23455064455A6E568BB7338F0C2&assignmentId=72fe4f97-31b4-45d2-b59c-6b229ec905ef&projectId=a0a8f18c-a66e-4ba7-a170-23efbdc67501","89C2E23455064455A6E568BB7338F0C2-2024-11-24-18-41-42","","1002","","images/causal_sequence/saving_a_cat_causal/saving_a_cat_causal_4.png","0","",""
"","","","","","image-button-response","100","739521","0.0-14.0-1.0-2.3","89C2E23455064455A6E568BB7338F0C2","89C2E23455064455A6E568BB7338F0C2","72fe4f97-31b4-45d2-b59c-6b229ec905ef","a0a8f18c-a66e-4ba7-a170-23efbdc67501","{""participantId"":""89C2E23455064455A6E568BB7338F0C2"",""assignmentId"":""72fe4f97-31b4-45d2-b59c-6b229ec905ef"",""projectId"":""a0a8f18c-a66e-4ba7-a170-23efbdc67501""}","https://test12345.live/?participantId=89C2E23455064455A6E568BB7338F0C2&assignmentId=72fe4f97-31b4-45d2-b59c-6b229ec905ef&projectId=a0a8f18c-a66e-4ba7-a170-23efbdc67501","89C2E23455064455A6E568BB7338F0C2-2024-11-24-18-41-42","","null","","[]","null","",""
"","","","","","image-button-response","101","744023","0.0-14.0-1.0-0.4","89C2E23455064455A6E568BB7338F0C2","89C2E23455064455A6E568BB7338F0C2","72fe4f97-31b4-45d2-b59c-6b229ec905ef","a0a8f18c-a66e-4ba7-a170-23efbdc67501","{""participantId"":""89C2E23455064455A6E568BB7338F0C2"",""assignmentId"":""72fe4f97-31b4-45d2-b59c-6b229ec905ef"",""projectId"":""a0a8f18c-a66e-4ba7-a170-23efbdc67501""}","https://test12345.live/?participantId=89C2E23455064455A6E568BB7338F0C2&assignmentId=72fe4f97-31b4-45d2-b59c-6b229ec905ef&projectId=a0a8f18c-a66e-4ba7-a170-23efbdc67501","89C2E23455064455A6E568BB7338F0C2-2024-11-24-18-41-42","","null","","images/causal_sequence/saving_a_cat_causal/saving_a_cat_causal_ten.png","null","",""
"","","","","","image-button-response","102","744807","0.0-14.0-1.0-1.4","89C2E23455064455A6E568BB7338F0C2","89C2E23455064455A6E568BB7338F0C2","72fe4f97-31b4-45d2-b59c-6b229ec905ef","a0a8f18c-a66e-4ba7-a170-23efbdc67501","{""participantId"":""89C2E23455064455A6E568BB7338F0C2"",""assignmentId"":""72fe4f97-31b4-45d2-b59c-6b229ec905ef"",""projectId"":""a0a8f18c-a66e-4ba7-a170-23efbdc67501""}","https://test12345.live/?participantId=89C2E23455064455A6E568BB7338F0C2&assignmentId=72fe4f97-31b4-45d2-b59c-6b229ec905ef&projectId=a0a8f18c-a66e-4ba7-a170-23efbdc67501","89C2E23455064455A6E568BB7338F0C2-2024-11-24-18-41-42","","783","","images/causal_sequence/saving_a_cat_causal/saving_a_cat_causal_ten.png","0","",""
"","","","","","image-button-response","103","746618","0.0-14.0-1.0-2.4","89C2E23455064455A6E568BB7338F0C2","89C2E23455064455A6E568BB7338F0C2","72fe4f97-31b4-45d2-b59c-6b229ec905ef","a0a8f18c-a66e-4ba7-a170-23efbdc67501","{""participantId"":""89C2E23455064455A6E568BB7338F0C2"",""assignmentId"":""72fe4f97-31b4-45d2-b59c-6b229ec905ef"",""projectId"":""a0a8f18c-a66e-4ba7-a170-23efbdc67501""}","https://test12345.live/?participantId=89C2E23455064455A6E568BB7338F0C2&assignmentId=72fe4f97-31b4-45d2-b59c-6b229ec905ef&projectId=a0a8f18c-a66e-4ba7-a170-23efbdc67501","89C2E23455064455A6E568BB7338F0C2-2024-11-24-18-41-42","","null","","[]","null","",""
"","","","","","image-button-response","104","751129","0.0-14.0-1.0-0.5","89C2E23455064455A6E568BB7338F0C2","89C2E23455064455A6E568BB7338F0C2","72fe4f97-31b4-45d2-b59c-6b229ec905ef","a0a8f18c-a66e-4ba7-a170-23efbdc67501","{""participantId"":""89C2E23455064455A6E568BB7338F0C2"",""assignmentId"":""72fe4f97-31b4-45d2-b59c-6b229ec905ef"",""projectId"":""a0a8f18c-a66e-4ba7-a170-23efbdc67501""}","https://test12345.live/?participantId=89C2E23455064455A6E568BB7338F0C2&assignmentId=72fe4f97-31b4-45d2-b59c-6b229ec905ef&projectId=a0a8f18c-a66e-4ba7-a170-23efbdc67501","89C2E23455064455A6E568BB7338F0C2-2024-11-24-18-41-42","","null","","images/causal_sequence/saving_a_cat_causal/saving_a_cat_causal_7.png","null","",""
"","","","","","image-button-response","105","755141","0.0-14.0-1.0-1.5","89C2E23455064455A6E568BB7338F0C2","89C2E23455064455A6E568BB7338F0C2","72fe4f97-31b4-45d2-b59c-6b229ec905ef","a0a8f18c-a66e-4ba7-a170-23efbdc67501","{""participantId"":""89C2E23455064455A6E568BB7338F0C2"",""assignmentId"":""72fe4f97-31b4-45d2-b59c-6b229ec905ef"",""projectId"":""a0a8f18c-a66e-4ba7-a170-23efbdc67501""}","https://test12345.live/?participantId=89C2E23455064455A6E568BB7338F0C2&assignmentId=72fe4f97-31b4-45d2-b59c-6b229ec905ef&projectId=a0a8f18c-a66e-4ba7-a170-23efbdc67501","89C2E23455064455A6E568BB7338F0C2-2024-11-24-18-41-42","","null","","images/causal_sequence/saving_a_cat_causal/saving_a_cat_causal_7.png","null","",""
"","","","","","image-button-response","106","756948","0.0-14.0-1.0-2.5","89C2E23455064455A6E568BB7338F0C2","89C2E23455064455A6E568BB7338F0C2","72fe4f97-31b4-45d2-b59c-6b229ec905ef","a0a8f18c-a66e-4ba7-a170-23efbdc67501","{""participantId"":""89C2E23455064455A6E568BB7338F0C2"",""assignmentId"":""72fe4f97-31b4-45d2-b59c-6b229ec905ef"",""projectId"":""a0a8f18c-a66e-4ba7-a170-23efbdc67501""}","https://test12345.live/?participantId=89C2E23455064455A6E568BB7338F0C2&assignmentId=72fe4f97-31b4-45d2-b59c-6b229ec905ef&projectId=a0a8f18c-a66e-4ba7-a170-23efbdc67501","89C2E23455064455A6E568BB7338F0C2-2024-11-24-18-41-42","","null","","[]","null","",""
"","","","","","image-button-response","107","761463","0.0-14.0-1.0-0.6","89C2E23455064455A6E568BB7338F0C2","89C2E23455064455A6E568BB7338F0C2","72fe4f97-31b4-45d2-b59c-6b229ec905ef","a0a8f18c-a66e-4ba7-a170-23efbdc67501","{""participantId"":""89C2E23455064455A6E568BB7338F0C2"",""assignmentId"":""72fe4f97-31b4-45d2-b59c-6b229ec905ef"",""projectId"":""a0a8f18c-a66e-4ba7-a170-23efbdc67501""}","https://test12345.live/?participantId=89C2E23455064455A6E568BB7338F0C2&assignmentId=72fe4f97-31b4-45d2-b59c-6b229ec905ef&projectId=a0a8f18c-a66e-4ba7-a170-23efbdc67501","89C2E23455064455A6E568BB7338F0C2-2024-11-24-18-41-42","","null","","images/causal_sequence/saving_a_cat_causal/saving_a_cat_causal_1.png","null","",""
"","","","","","image-button-response","108","762310","0.0-14.0-1.0-1.6","89C2E23455064455A6E568BB7338F0C2","89C2E23455064455A6E568BB7338F0C2","72fe4f97-31b4-45d2-b59c-6b229ec905ef","a0a8f18c-a66e-4ba7-a170-23efbdc67501","{""participantId"":""89C2E23455064455A6E568BB7338F0C2"",""assignmentId"":""72fe4f97-31b4-45d2-b59c-6b229ec905ef"",""projectId"":""a0a8f18c-a66e-4ba7-a170-23efbdc67501""}","https://test12345.live/?participantId=89C2E23455064455A6E568BB7338F0C2&assignmentId=72fe4f97-31b4-45d2-b59c-6b229ec905ef&projectId=a0a8f18c-a66e-4ba7-a170-23efbdc67501","89C2E23455064455A6E568BB7338F0C2-2024-11-24-18-41-42","","845","","images/causal_sequence/saving_a_cat_causal/saving_a_cat_causal_1.png","0","",""
"","","","","","image-button-response","109","764122","0.0-14.0-1.0-2.6","89C2E23455064455A6E568BB7338F0C2","89C2E23455064455A6E568BB7338F0C2","72fe4f97-31b4-45d2-b59c-6b229ec905ef","a0a8f18c-a66e-4ba7-a170-23efbdc67501","{""participantId"":""89C2E23455064455A6E568BB7338F0C2"",""assignmentId"":""72fe4f97-31b4-45d2-b59c-6b229ec905ef"",""projectId"":""a0a8f18c-a66e-4ba7-a170-23efbdc67501""}","https://test12345.live/?participantId=89C2E23455064455A6E568BB7338F0C2&assignmentId=72fe4f97-31b4-45d2-b59c-6b229ec905ef&projectId=a0a8f18c-a66e-4ba7-a170-23efbdc67501","89C2E23455064455A6E568BB7338F0C2-2024-11-24-18-41-42","","null","","[]","null","",""
"","","","","","image-button-response","110","768625","0.0-14.0-1.0-0.7","89C2E23455064455A6E568BB7338F0C2","89C2E23455064455A6E568BB7338F0C2","72fe4f97-31b4-45d2-b59c-6b229ec905ef","a0a8f18c-a66e-4ba7-a170-23efbdc67501","{""participantId"":""89C2E23455064455A6E568BB7338F0C2"",""assignmentId"":""72fe4f97-31b4-45d2-b59c-6b229ec905ef"",""projectId"":""a0a8f18c-a66e-4ba7-a170-23efbdc67501""}","https://test12345.live/?participantId=89C2E23455064455A6E568BB7338F0C2&assignmentId=72fe4f97-31b4-45d2-b59c-6b229ec905ef&projectId=a0a8f18c-a66e-4ba7-a170-23efbdc67501","89C2E23455064455A6E568BB7338F0C2-2024-11-24-18-41-42","","null","","images/causal_sequence/saving_a_cat_causal/saving_a_cat_causal_6.png","null","",""
"","","","","","image-button-response","111","770167","0.0-14.0-1.0-1.7","89C2E23455064455A6E568BB7338F0C2","89C2E23455064455A6E568BB7338F0C2","72fe4f97-31b4-45d2-b59c-6b229ec905ef","a0a8f18c-a66e-4ba7-a170-23efbdc67501","{""participantId"":""89C2E23455064455A6E568BB7338F0C2"",""assignmentId"":""72fe4f97-31b4-45d2-b59c-6b229ec905ef"",""projectId"":""a0a8f18c-a66e-4ba7-a170-23efbdc67501""}","https://test12345.live/?participantId=89C2E23455064455A6E568BB7338F0C2&assignmentId=72fe4f97-31b4-45d2-b59c-6b229ec905ef&projectId=a0a8f18c-a66e-4ba7-a170-23efbdc67501","89C2E23455064455A6E568BB7338F0C2-2024-11-24-18-41-42","","1541","","images/causal_sequence/saving_a_cat_causal/saving_a_cat_causal_6.png","0","",""
"","","","","","image-button-response","112","771979","0.0-14.0-1.0-2.7","89C2E23455064455A6E568BB7338F0C2","89C2E23455064455A6E568BB7338F0C2","72fe4f97-31b4-45d2-b59c-6b229ec905ef","a0a8f18c-a66e-4ba7-a170-23efbdc67501","{""participantId"":""89C2E23455064455A6E568BB7338F0C2"",""assignmentId"":""72fe4f97-31b4-45d2-b59c-6b229ec905ef"",""projectId"":""a0a8f18c-a66e-4ba7-a170-23efbdc67501""}","https://test12345.live/?participantId=89C2E23455064455A6E568BB7338F0C2&assignmentId=72fe4f97-31b4-45d2-b59c-6b229ec905ef&projectId=a0a8f18c-a66e-4ba7-a170-23efbdc67501","89C2E23455064455A6E568BB7338F0C2-2024-11-24-18-41-42","","null","","[]","null","",""
"","","","","","image-button-response","113","776490","0.0-14.0-1.0-0.8","89C2E23455064455A6E568BB7338F0C2","89C2E23455064455A6E568BB7338F0C2","72fe4f97-31b4-45d2-b59c-6b229ec905ef","a0a8f18c-a66e-4ba7-a170-23efbdc67501","{""participantId"":""89C2E23455064455A6E568BB7338F0C2"",""assignmentId"":""72fe4f97-31b4-45d2-b59c-6b229ec905ef"",""projectId"":""a0a8f18c-a66e-4ba7-a170-23efbdc67501""}","https://test12345.live/?participantId=89C2E23455064455A6E568BB7338F0C2&assignmentId=72fe4f97-31b4-45d2-b59c-6b229ec905ef&projectId=a0a8f18c-a66e-4ba7-a170-23efbdc67501","89C2E23455064455A6E568BB7338F0C2-2024-11-24-18-41-42","","null","","images/causal_sequence/saving_a_cat_causal/saving_a_cat_causal_9.png","null","",""
"","","","","","image-button-response","114","777599","0.0-14.0-1.0-1.8","89C2E23455064455A6E568BB7338F0C2","89C2E23455064455A6E568BB7338F0C2","72fe4f97-31b4-45d2-b59c-6b229ec905ef","a0a8f18c-a66e-4ba7-a170-23efbdc67501","{""participantId"":""89C2E23455064455A6E568BB7338F0C2"",""assignmentId"":""72fe4f97-31b4-45d2-b59c-6b229ec905ef"",""projectId"":""a0a8f18c-a66e-4ba7-a170-23efbdc67501""}","https://test12345.live/?participantId=89C2E23455064455A6E568BB7338F0C2&assignmentId=72fe4f97-31b4-45d2-b59c-6b229ec905ef&projectId=a0a8f18c-a66e-4ba7-a170-23efbdc67501","89C2E23455064455A6E568BB7338F0C2-2024-11-24-18-41-42","","1107","","images/causal_sequence/saving_a_cat_causal/saving_a_cat_causal_9.png","0","",""
"","","","","","image-button-response","115","779415","0.0-14.0-1.0-2.8","89C2E23455064455A6E568BB7338F0C2","89C2E23455064455A6E568BB7338F0C2","72fe4f97-31b4-45d2-b59c-6b229ec905ef","a0a8f18c-a66e-4ba7-a170-23efbdc67501","{""participantId"":""89C2E23455064455A6E568BB7338F0C2"",""assignmentId"":""72fe4f97-31b4-45d2-b59c-6b229ec905ef"",""projectId"":""a0a8f18c-a66e-4ba7-a170-23efbdc67501""}","https://test12345.live/?participantId=89C2E23455064455A6E568BB7338F0C2&assignmentId=72fe4f97-31b4-45d2-b59c-6b229ec905ef&projectId=a0a8f18c-a66e-4ba7-a170-23efbdc67501","89C2E23455064455A6E568BB7338F0C2-2024-11-24-18-41-42","","null","","[]","null","",""
"","","","","","image-button-response","116","783923","0.0-14.0-1.0-0.9","89C2E23455064455A6E568BB7338F0C2","89C2E23455064455A6E568BB7338F0C2","72fe4f97-31b4-45d2-b59c-6b229ec905ef","a0a8f18c-a66e-4ba7-a170-23efbdc67501","{""participantId"":""89C2E23455064455A6E568BB7338F0C2"",""assignmentId"":""72fe4f97-31b4-45d2-b59c-6b229ec905ef"",""projectId"":""a0a8f18c-a66e-4ba7-a170-23efbdc67501""}","https://test12345.live/?participantId=89C2E23455064455A6E568BB7338F0C2&assignmentId=72fe4f97-31b4-45d2-b59c-6b229ec905ef&projectId=a0a8f18c-a66e-4ba7-a170-23efbdc67501","89C2E23455064455A6E568BB7338F0C2-2024-11-24-18-41-42","","null","","images/causal_sequence/saving_a_cat_causal/saving_a_cat_causal_8.png","null","",""
"","","","","","image-button-response","117","784760","0.0-14.0-1.0-1.9","89C2E23455064455A6E568BB7338F0C2","89C2E23455064455A6E568BB7338F0C2","72fe4f97-31b4-45d2-b59c-6b229ec905ef","a0a8f18c-a66e-4ba7-a170-23efbdc67501","{""participantId"":""89C2E23455064455A6E568BB7338F0C2"",""assignmentId"":""72fe4f97-31b4-45d2-b59c-6b229ec905ef"",""projectId"":""a0a8f18c-a66e-4ba7-a170-23efbdc67501""}","https://test12345.live/?participantId=89C2E23455064455A6E568BB7338F0C2&assignmentId=72fe4f97-31b4-45d2-b59c-6b229ec905ef&projectId=a0a8f18c-a66e-4ba7-a170-23efbdc67501","89C2E23455064455A6E568BB7338F0C2-2024-11-24-18-41-42","","837","","images/causal_sequence/saving_a_cat_causal/saving_a_cat_causal_8.png","0","",""
"","","","","","image-button-response","118","786576","0.0-14.0-1.0-2.9","89C2E23455064455A6E568BB7338F0C2","89C2E23455064455A6E568BB7338F0C2","72fe4f97-31b4-45d2-b59c-6b229ec905ef","a0a8f18c-a66e-4ba7-a170-23efbdc67501","{""participantId"":""89C2E23455064455A6E568BB7338F0C2"",""assignmentId"":""72fe4f97-31b4-45d2-b59c-6b229ec905ef"",""projectId"":""a0a8f18c-a66e-4ba7-a170-23efbdc67501""}","https://test12345.live/?participantId=89C2E23455064455A6E568BB7338F0C2&assignmentId=72fe4f97-31b4-45d2-b59c-6b229ec905ef&projectId=a0a8f18c-a66e-4ba7-a170-23efbdc67501","89C2E23455064455A6E568BB7338F0C2-2024-11-24-18-41-42","","null","","[]","null","",""
"","","","","","html-audio-response","119","923306","0.0-15.0","89C2E23455064455A6E568BB7338F0C2","89C2E23455064455A6E568BB7338F0C2","72fe4f97-31b4-45d2-b59c-6b229ec905ef","a0a8f18c-a66e-4ba7-a170-23efbdc67501","{""participantId"":""89C2E23455064455A6E568BB7338F0C2"",""assignmentId"":""72fe4f97-31b4-45d2-b59c-6b229ec905ef"",""projectId"":""a0a8f18c-a66e-4ba7-a170-23efbdc67501""}","https://test12345.live/?participantId=89C2E23455064455A6E568BB7338F0C2&assignmentId=72fe4f97-31b4-45d2-b59c-6b229ec905ef&projectId=a0a8f18c-a66e-4ba7-a170-23efbdc67501","89C2E23455064455A6E568BB7338F0C2-2024-11-24-18-41-42","","28280","","[""<span style=\""color: red; font-size: 24px\""> NOW RECORDING</span><p>Please say out loud all the images you saw, as many as you can remember. The images can be said in any order.</p>""]","","1","saving_a_cat_causal"
"","","","","","image-button-response","120","929311","0.0-16.0-0.0","89C2E23455064455A6E568BB7338F0C2","89C2E23455064455A6E568BB7338F0C2","72fe4f97-31b4-45d2-b59c-6b229ec905ef","a0a8f18c-a66e-4ba7-a170-23efbdc67501","{""participantId"":""89C2E23455064455A6E568BB7338F0C2"",""assignmentId"":""72fe4f97-31b4-45d2-b59c-6b229ec905ef"",""projectId"":""a0a8f18c-a66e-4ba7-a170-23efbdc67501""}","https://test12345.live/?participantId=89C2E23455064455A6E568BB7338F0C2&assignmentId=72fe4f97-31b4-45d2-b59c-6b229ec905ef&projectId=a0a8f18c-a66e-4ba7-a170-23efbdc67501","89C2E23455064455A6E568BB7338F0C2-2024-11-24-18-41-42","","null","","images/causal_sequence/museum_causal/museum_causal_0.png","null","",""
"","","","","","image-button-response","121","933820","0.0-16.0-1.0-0.0","89C2E23455064455A6E568BB7338F0C2","89C2E23455064455A6E568BB7338F0C2","72fe4f97-31b4-45d2-b59c-6b229ec905ef","a0a8f18c-a66e-4ba7-a170-23efbdc67501","{""participantId"":""89C2E23455064455A6E568BB7338F0C2"",""assignmentId"":""72fe4f97-31b4-45d2-b59c-6b229ec905ef"",""projectId"":""a0a8f18c-a66e-4ba7-a170-23efbdc67501""}","https://test12345.live/?participantId=89C2E23455064455A6E568BB7338F0C2&assignmentId=72fe4f97-31b4-45d2-b59c-6b229ec905ef&projectId=a0a8f18c-a66e-4ba7-a170-23efbdc67501","89C2E23455064455A6E568BB7338F0C2-2024-11-24-18-41-42","","null","","images/causal_sequence/museum_causal/museum_causal_1.png","null","",""
"","","","","","image-button-response","122","935649","0.0-16.0-1.0-1.0","89C2E23455064455A6E568BB7338F0C2","89C2E23455064455A6E568BB7338F0C2","72fe4f97-31b4-45d2-b59c-6b229ec905ef","a0a8f18c-a66e-4ba7-a170-23efbdc67501","{""participantId"":""89C2E23455064455A6E568BB7338F0C2"",""assignmentId"":""72fe4f97-31b4-45d2-b59c-6b229ec905ef"",""projectId"":""a0a8f18c-a66e-4ba7-a170-23efbdc67501""}","https://test12345.live/?participantId=89C2E23455064455A6E568BB7338F0C2&assignmentId=72fe4f97-31b4-45d2-b59c-6b229ec905ef&projectId=a0a8f18c-a66e-4ba7-a170-23efbdc67501","89C2E23455064455A6E568BB7338F0C2-2024-11-24-18-41-42","","1828","","images/causal_sequence/museum_causal/museum_causal_1.png","0","",""
"","","","","","image-button-response","123","937452","0.0-16.0-1.0-2.0","89C2E23455064455A6E568BB7338F0C2","89C2E23455064455A6E568BB7338F0C2","72fe4f97-31b4-45d2-b59c-6b229ec905ef","a0a8f18c-a66e-4ba7-a170-23efbdc67501","{""participantId"":""89C2E23455064455A6E568BB7338F0C2"",""assignmentId"":""72fe4f97-31b4-45d2-b59c-6b229ec905ef"",""projectId"":""a0a8f18c-a66e-4ba7-a170-23efbdc67501""}","https://test12345.live/?participantId=89C2E23455064455A6E568BB7338F0C2&assignmentId=72fe4f97-31b4-45d2-b59c-6b229ec905ef&projectId=a0a8f18c-a66e-4ba7-a170-23efbdc67501","89C2E23455064455A6E568BB7338F0C2-2024-11-24-18-41-42","","null","","[]","null","",""
"","","","","","image-button-response","124","941968","0.0-16.0-1.0-0.1","89C2E23455064455A6E568BB7338F0C2","89C2E23455064455A6E568BB7338F0C2","72fe4f97-31b4-45d2-b59c-6b229ec905ef","a0a8f18c-a66e-4ba7-a170-23efbdc67501","{""participantId"":""89C2E23455064455A6E568BB7338F0C2"",""assignmentId"":""72fe4f97-31b4-45d2-b59c-6b229ec905ef"",""projectId"":""a0a8f18c-a66e-4ba7-a170-23efbdc67501""}","https://test12345.live/?participantId=89C2E23455064455A6E568BB7338F0C2&assignmentId=72fe4f97-31b4-45d2-b59c-6b229ec905ef&projectId=a0a8f18c-a66e-4ba7-a170-23efbdc67501","89C2E23455064455A6E568BB7338F0C2-2024-11-24-18-41-42","","null","","images/causal_sequence/museum_causal/museum_causal_2.png","null","",""
"","","","","","image-button-response","125","943742","0.0-16.0-1.0-1.1","89C2E23455064455A6E568BB7338F0C2","89C2E23455064455A6E568BB7338F0C2","72fe4f97-31b4-45d2-b59c-6b229ec905ef","a0a8f18c-a66e-4ba7-a170-23efbdc67501","{""participantId"":""89C2E23455064455A6E568BB7338F0C2"",""assignmentId"":""72fe4f97-31b4-45d2-b59c-6b229ec905ef"",""projectId"":""a0a8f18c-a66e-4ba7-a170-23efbdc67501""}","https://test12345.live/?participantId=89C2E23455064455A6E568BB7338F0C2&assignmentId=72fe4f97-31b4-45d2-b59c-6b229ec905ef&projectId=a0a8f18c-a66e-4ba7-a170-23efbdc67501","89C2E23455064455A6E568BB7338F0C2-2024-11-24-18-41-42","","1773","","images/causal_sequence/museum_causal/museum_causal_2.png","0","",""
"","","","","","image-button-response","126","945552","0.0-16.0-1.0-2.1","89C2E23455064455A6E568BB7338F0C2","89C2E23455064455A6E568BB7338F0C2","72fe4f97-31b4-45d2-b59c-6b229ec905ef","a0a8f18c-a66e-4ba7-a170-23efbdc67501","{""participantId"":""89C2E23455064455A6E568BB7338F0C2"",""assignmentId"":""72fe4f97-31b4-45d2-b59c-6b229ec905ef"",""projectId"":""a0a8f18c-a66e-4ba7-a170-23efbdc67501""}","https://test12345.live/?participantId=89C2E23455064455A6E568BB7338F0C2&assignmentId=72fe4f97-31b4-45d2-b59c-6b229ec905ef&projectId=a0a8f18c-a66e-4ba7-a170-23efbdc67501","89C2E23455064455A6E568BB7338F0C2-2024-11-24-18-41-42","","null","","[]","null","",""
"","","","","","image-button-response","127","950066","0.0-16.0-1.0-0.2","89C2E23455064455A6E568BB7338F0C2","89C2E23455064455A6E568BB7338F0C2","72fe4f97-31b4-45d2-b59c-6b229ec905ef","a0a8f18c-a66e-4ba7-a170-23efbdc67501","{""participantId"":""89C2E23455064455A6E568BB7338F0C2"",""assignmentId"":""72fe4f97-31b4-45d2-b59c-6b229ec905ef"",""projectId"":""a0a8f18c-a66e-4ba7-a170-23efbdc67501""}","https://test12345.live/?participantId=89C2E23455064455A6E568BB7338F0C2&assignmentId=72fe4f97-31b4-45d2-b59c-6b229ec905ef&projectId=a0a8f18c-a66e-4ba7-a170-23efbdc67501","89C2E23455064455A6E568BB7338F0C2-2024-11-24-18-41-42","","null","","images/causal_sequence/museum_causal/museum_causal_3.png","null","",""
"","","","","","image-button-response","128","951211","0.0-16.0-1.0-1.2","89C2E23455064455A6E568BB7338F0C2","89C2E23455064455A6E568BB7338F0C2","72fe4f97-31b4-45d2-b59c-6b229ec905ef","a0a8f18c-a66e-4ba7-a170-23efbdc67501","{""participantId"":""89C2E23455064455A6E568BB7338F0C2"",""assignmentId"":""72fe4f97-31b4-45d2-b59c-6b229ec905ef"",""projectId"":""a0a8f18c-a66e-4ba7-a170-23efbdc67501""}","https://test12345.live/?participantId=89C2E23455064455A6E568BB7338F0C2&assignmentId=72fe4f97-31b4-45d2-b59c-6b229ec905ef&projectId=a0a8f18c-a66e-4ba7-a170-23efbdc67501","89C2E23455064455A6E568BB7338F0C2-2024-11-24-18-41-42","","1144","","images/causal_sequence/museum_causal/museum_causal_3.png","0","",""
"","","","","","image-button-response","129","953020","0.0-16.0-1.0-2.2","89C2E23455064455A6E568BB7338F0C2","89C2E23455064455A6E568BB7338F0C2","72fe4f97-31b4-45d2-b59c-6b229ec905ef","a0a8f18c-a66e-4ba7-a170-23efbdc67501","{""participantId"":""89C2E23455064455A6E568BB7338F0C2"",""assignmentId"":""72fe4f97-31b4-45d2-b59c-6b229ec905ef"",""projectId"":""a0a8f18c-a66e-4ba7-a170-23efbdc67501""}","https://test12345.live/?participantId=89C2E23455064455A6E568BB7338F0C2&assignmentId=72fe4f97-31b4-45d2-b59c-6b229ec905ef&projectId=a0a8f18c-a66e-4ba7-a170-23efbdc67501","89C2E23455064455A6E568BB7338F0C2-2024-11-24-18-41-42","","null","","[]","null","",""
"","","","","","image-button-response","130","957523","0.0-16.0-1.0-0.3","89C2E23455064455A6E568BB7338F0C2","89C2E23455064455A6E568BB7338F0C2","72fe4f97-31b4-45d2-b59c-6b229ec905ef","a0a8f18c-a66e-4ba7-a170-23efbdc67501","{""participantId"":""89C2E23455064455A6E568BB7338F0C2"",""assignmentId"":""72fe4f97-31b4-45d2-b59c-6b229ec905ef"",""projectId"":""a0a8f18c-a66e-4ba7-a170-23efbdc67501""}","https://test12345.live/?participantId=89C2E23455064455A6E568BB7338F0C2&assignmentId=72fe4f97-31b4-45d2-b59c-6b229ec905ef&projectId=a0a8f18c-a66e-4ba7-a170-23efbdc67501","89C2E23455064455A6E568BB7338F0C2-2024-11-24-18-41-42","","null","","images/causal_sequence/museum_causal/museum_causal_4.png","null","",""
"","","","","","image-button-response","131","961084","0.0-16.0-1.0-1.3","89C2E23455064455A6E568BB7338F0C2","89C2E23455064455A6E568BB7338F0C2","72fe4f97-31b4-45d2-b59c-6b229ec905ef","a0a8f18c-a66e-4ba7-a170-23efbdc67501","{""participantId"":""89C2E23455064455A6E568BB7338F0C2"",""assignmentId"":""72fe4f97-31b4-45d2-b59c-6b229ec905ef"",""projectId"":""a0a8f18c-a66e-4ba7-a170-23efbdc67501""}","https://test12345.live/?participantId=89C2E23455064455A6E568BB7338F0C2&assignmentId=72fe4f97-31b4-45d2-b59c-6b229ec905ef&projectId=a0a8f18c-a66e-4ba7-a170-23efbdc67501","89C2E23455064455A6E568BB7338F0C2-2024-11-24-18-41-42","","3559","","images/causal_sequence/museum_causal/museum_causal_4.png","1","",""
"","","","","","image-button-response","132","962896","0.0-16.0-1.0-2.3","89C2E23455064455A6E568BB7338F0C2","89C2E23455064455A6E568BB7338F0C2","72fe4f97-31b4-45d2-b59c-6b229ec905ef","a0a8f18c-a66e-4ba7-a170-23efbdc67501","{""participantId"":""89C2E23455064455A6E568BB7338F0C2"",""assignmentId"":""72fe4f97-31b4-45d2-b59c-6b229ec905ef"",""projectId"":""a0a8f18c-a66e-4ba7-a170-23efbdc67501""}","https://test12345.live/?participantId=89C2E23455064455A6E568BB7338F0C2&assignmentId=72fe4f97-31b4-45d2-b59c-6b229ec905ef&projectId=a0a8f18c-a66e-4ba7-a170-23efbdc67501","89C2E23455064455A6E568BB7338F0C2-2024-11-24-18-41-42","","null","","[]","null","",""
"","","","","","image-button-response","133","967399","0.0-16.0-1.0-0.4","89C2E23455064455A6E568BB7338F0C2","89C2E23455064455A6E568BB7338F0C2","72fe4f97-31b4-45d2-b59c-6b229ec905ef","a0a8f18c-a66e-4ba7-a170-23efbdc67501","{""participantId"":""89C2E23455064455A6E568BB7338F0C2"",""assignmentId"":""72fe4f97-31b4-45d2-b59c-6b229ec905ef"",""projectId"":""a0a8f18c-a66e-4ba7-a170-23efbdc67501""}","https://test12345.live/?participantId=89C2E23455064455A6E568BB7338F0C2&assignmentId=72fe4f97-31b4-45d2-b59c-6b229ec905ef&projectId=a0a8f18c-a66e-4ba7-a170-23efbdc67501","89C2E23455064455A6E568BB7338F0C2-2024-11-24-18-41-42","","null","","images/causal_sequence/museum_causal/museum_causal_5.png","null","",""
"","","","","","image-button-response","134","968605","0.0-16.0-1.0-1.4","89C2E23455064455A6E568BB7338F0C2","89C2E23455064455A6E568BB7338F0C2","72fe4f97-31b4-45d2-b59c-6b229ec905ef","a0a8f18c-a66e-4ba7-a170-23efbdc67501","{""participantId"":""89C2E23455064455A6E568BB7338F0C2"",""assignmentId"":""72fe4f97-31b4-45d2-b59c-6b229ec905ef"",""projectId"":""a0a8f18c-a66e-4ba7-a170-23efbdc67501""}","https://test12345.live/?participantId=89C2E23455064455A6E568BB7338F0C2&assignmentId=72fe4f97-31b4-45d2-b59c-6b229ec905ef&projectId=a0a8f18c-a66e-4ba7-a170-23efbdc67501","89C2E23455064455A6E568BB7338F0C2-2024-11-24-18-41-42","","1204","","images/causal_sequence/museum_causal/museum_causal_5.png","0","",""
"","","","","","image-button-response","135","970412","0.0-16.0-1.0-2.4","89C2E23455064455A6E568BB7338F0C2","89C2E23455064455A6E568BB7338F0C2","72fe4f97-31b4-45d2-b59c-6b229ec905ef","a0a8f18c-a66e-4ba7-a170-23efbdc67501","{""participantId"":""89C2E23455064455A6E568BB7338F0C2"",""assignmentId"":""72fe4f97-31b4-45d2-b59c-6b229ec905ef"",""projectId"":""a0a8f18c-a66e-4ba7-a170-23efbdc67501""}","https://test12345.live/?participantId=89C2E23455064455A6E568BB7338F0C2&assignmentId=72fe4f97-31b4-45d2-b59c-6b229ec905ef&projectId=a0a8f18c-a66e-4ba7-a170-23efbdc67501","89C2E23455064455A6E568BB7338F0C2-2024-11-24-18-41-42","","null","","[]","null","",""
"","","","","","image-button-response","136","974924","0.0-16.0-1.0-0.5","89C2E23455064455A6E568BB7338F0C2","89C2E23455064455A6E568BB7338F0C2","72fe4f97-31b4-45d2-b59c-6b229ec905ef","a0a8f18c-a66e-4ba7-a170-23efbdc67501","{""participantId"":""89C2E23455064455A6E568BB7338F0C2"",""assignmentId"":""72fe4f97-31b4-45d2-b59c-6b229ec905ef"",""projectId"":""a0a8f18c-a66e-4ba7-a170-23efbdc67501""}","https://test12345.live/?participantId=89C2E23455064455A6E568BB7338F0C2&assignmentId=72fe4f97-31b4-45d2-b59c-6b229ec905ef&projectId=a0a8f18c-a66e-4ba7-a170-23efbdc67501","89C2E23455064455A6E568BB7338F0C2-2024-11-24-18-41-42","","null","","images/causal_sequence/museum_causal/museum_causal_6.png","null","",""
"","","","","","image-button-response","137","976715","0.0-16.0-1.0-1.5","89C2E23455064455A6E568BB7338F0C2","89C2E23455064455A6E568BB7338F0C2","72fe4f97-31b4-45d2-b59c-6b229ec905ef","a0a8f18c-a66e-4ba7-a170-23efbdc67501","{""participantId"":""89C2E23455064455A6E568BB7338F0C2"",""assignmentId"":""72fe4f97-31b4-45d2-b59c-6b229ec905ef"",""projectId"":""a0a8f18c-a66e-4ba7-a170-23efbdc67501""}","https://test12345.live/?participantId=89C2E23455064455A6E568BB7338F0C2&assignmentId=72fe4f97-31b4-45d2-b59c-6b229ec905ef&projectId=a0a8f18c-a66e-4ba7-a170-23efbdc67501","89C2E23455064455A6E568BB7338F0C2-2024-11-24-18-41-42","","1791","","images/causal_sequence/museum_causal/museum_causal_6.png","0","",""
"","","","","","image-button-response","138","978525","0.0-16.0-1.0-2.5","89C2E23455064455A6E568BB7338F0C2","89C2E23455064455A6E568BB7338F0C2","72fe4f97-31b4-45d2-b59c-6b229ec905ef","a0a8f18c-a66e-4ba7-a170-23efbdc67501","{""participantId"":""89C2E23455064455A6E568BB7338F0C2"",""assignmentId"":""72fe4f97-31b4-45d2-b59c-6b229ec905ef"",""projectId"":""a0a8f18c-a66e-4ba7-a170-23efbdc67501""}","https://test12345.live/?participantId=89C2E23455064455A6E568BB7338F0C2&assignmentId=72fe4f97-31b4-45d2-b59c-6b229ec905ef&projectId=a0a8f18c-a66e-4ba7-a170-23efbdc67501","89C2E23455064455A6E568BB7338F0C2-2024-11-24-18-41-42","","null","","[]","null","",""
"","","","","","image-button-response","139","983034","0.0-16.0-1.0-0.6","89C2E23455064455A6E568BB7338F0C2","89C2E23455064455A6E568BB7338F0C2","72fe4f97-31b4-45d2-b59c-6b229ec905ef","a0a8f18c-a66e-4ba7-a170-23efbdc67501","{""participantId"":""89C2E23455064455A6E568BB7338F0C2"",""assignmentId"":""72fe4f97-31b4-45d2-b59c-6b229ec905ef"",""projectId"":""a0a8f18c-a66e-4ba7-a170-23efbdc67501""}","https://test12345.live/?participantId=89C2E23455064455A6E568BB7338F0C2&assignmentId=72fe4f97-31b4-45d2-b59c-6b229ec905ef&projectId=a0a8f18c-a66e-4ba7-a170-23efbdc67501","89C2E23455064455A6E568BB7338F0C2-2024-11-24-18-41-42","","null","","images/causal_sequence/museum_causal/museum_causal_7.png","null","",""
"","","","","","image-button-response","140","985397","0.0-16.0-1.0-1.6","89C2E23455064455A6E568BB7338F0C2","89C2E23455064455A6E568BB7338F0C2","72fe4f97-31b4-45d2-b59c-6b229ec905ef","a0a8f18c-a66e-4ba7-a170-23efbdc67501","{""participantId"":""89C2E23455064455A6E568BB7338F0C2"",""assignmentId"":""72fe4f97-31b4-45d2-b59c-6b229ec905ef"",""projectId"":""a0a8f18c-a66e-4ba7-a170-23efbdc67501""}","https://test12345.live/?participantId=89C2E23455064455A6E568BB7338F0C2&assignmentId=72fe4f97-31b4-45d2-b59c-6b229ec905ef&projectId=a0a8f18c-a66e-4ba7-a170-23efbdc67501","89C2E23455064455A6E568BB7338F0C2-2024-11-24-18-41-42","","2361","","images/causal_sequence/museum_causal/museum_causal_7.png","1","",""
"","","","","","image-button-response","141","987203","0.0-16.0-1.0-2.6","89C2E23455064455A6E568BB7338F0C2","89C2E23455064455A6E568BB7338F0C2","72fe4f97-31b4-45d2-b59c-6b229ec905ef","a0a8f18c-a66e-4ba7-a170-23efbdc67501","{""participantId"":""89C2E23455064455A6E568BB7338F0C2"",""assignmentId"":""72fe4f97-31b4-45d2-b59c-6b229ec905ef"",""projectId"":""a0a8f18c-a66e-4ba7-a170-23efbdc67501""}","https://test12345.live/?participantId=89C2E23455064455A6E568BB7338F0C2&assignmentId=72fe4f97-31b4-45d2-b59c-6b229ec905ef&projectId=a0a8f18c-a66e-4ba7-a170-23efbdc67501","89C2E23455064455A6E568BB7338F0C2-2024-11-24-18-41-42","","null","","[]","null","",""
"","","","","","image-button-response","142","991705","0.0-16.0-1.0-0.7","89C2E23455064455A6E568BB7338F0C2","89C2E23455064455A6E568BB7338F0C2","72fe4f97-31b4-45d2-b59c-6b229ec905ef","a0a8f18c-a66e-4ba7-a170-23efbdc67501","{""participantId"":""89C2E23455064455A6E568BB7338F0C2"",""assignmentId"":""72fe4f97-31b4-45d2-b59c-6b229ec905ef"",""projectId"":""a0a8f18c-a66e-4ba7-a170-23efbdc67501""}","https://test12345.live/?participantId=89C2E23455064455A6E568BB7338F0C2&assignmentId=72fe4f97-31b4-45d2-b59c-6b229ec905ef&projectId=a0a8f18c-a66e-4ba7-a170-23efbdc67501","89C2E23455064455A6E568BB7338F0C2-2024-11-24-18-41-42","","null","","images/causal_sequence/museum_causal/museum_causal_8.png","null","",""
"","","","","","image-button-response","143","992877","0.0-16.0-1.0-1.7","89C2E23455064455A6E568BB7338F0C2","89C2E23455064455A6E568BB7338F0C2","72fe4f97-31b4-45d2-b59c-6b229ec905ef","a0a8f18c-a66e-4ba7-a170-23efbdc67501","{""participantId"":""89C2E23455064455A6E568BB7338F0C2"",""assignmentId"":""72fe4f97-31b4-45d2-b59c-6b229ec905ef"",""projectId"":""a0a8f18c-a66e-4ba7-a170-23efbdc67501""}","https://test12345.live/?participantId=89C2E23455064455A6E568BB7338F0C2&assignmentId=72fe4f97-31b4-45d2-b59c-6b229ec905ef&projectId=a0a8f18c-a66e-4ba7-a170-23efbdc67501","89C2E23455064455A6E568BB7338F0C2-2024-11-24-18-41-42","","1171","","images/causal_sequence/museum_causal/museum_causal_8.png","0","",""
