"success","timeout","failed_images","failed_audio","failed_video","trial_type","trial_index","time_elapsed","internal_node_id","subject","subject_id","study_id","session_id","urlvar","current_url","audio_id","view_history","rt","device_id","stimulus","response","estimated_stimulus_onset","seq_name"
"true","false","[]","[]","[]","preload","0","14835","0.0-0.0","94114D92C27E43B0A0E98A2D6FE9E0BB","94114D92C27E43B0A0E98A2D6FE9E0BB","c9874006-6b5e-4104-95dd-905cc6b77cdc","a0a8f18c-a66e-4ba7-a170-23efbdc67501","{""participantId"":""94114D92C27E43B0A0E98A2D6FE9E0BB"",""assignmentId"":""c9874006-6b5e-4104-95dd-905cc6b77cdc"",""projectId"":""a0a8f18c-a66e-4ba7-a170-23efbdc67501""}","https://test12345.live/?participantId=94114D92C27E43B0A0E98A2D6FE9E0BB&assignmentId=c9874006-6b5e-4104-95dd-905cc6b77cdc&projectId=a0a8f18c-a66e-4ba7-a170-23efbdc67501","94114D92C27E43B0A0E98A2D6FE9E0BB-2024-11-24-19-05-08","","","","","","",""
"","","","","","instructions","1","38454","0.0-1.0","94114D92C27E43B0A0E98A2D6FE9E0BB","94114D92C27E43B0A0E98A2D6FE9E0BB","c9874006-6b5e-4104-95dd-905cc6b77cdc","a0a8f18c-a66e-4ba7-a170-23efbdc67501","{""participantId"":""94114D92C27E43B0A0E98A2D6FE9E0BB"",""assignmentId"":""c9874006-6b5e-4104-95dd-905cc6b77cdc"",""projectId"":""a0a8f18c-a66e-4ba7-a170-23efbdc67501""}","https://test12345.live/?participantId=94114D92C27E43B0A0E98A2D6FE9E0BB&assignmentId=c9874006-6b5e-4104-95dd-905cc6b77cdc&projectId=a0a8f18c-a66e-4ba7-a170-23efbdc67501","94114D92C27E43B0A0E98A2D6FE9E0BB-2024-11-24-19-05-08","[{""page_index"":0,""viewing_time"":23617}]","23618","","","","",""
"","","","","","instructions","2","123131","0.0-2.0","94114D92C27E43B0A0E98A2D6FE9E0BB","94114D92C27E43B0A0E98A2D6FE9E0BB","c9874006-6b5e-4104-95dd-905cc6b77cdc","a0a8f18c-a66e-4ba7-a170-23efbdc67501","{""participantId"":""94114D92C27E43B0A0E98A2D6FE9E0BB"",""assignmentId"":""c9874006-6b5e-4104-95dd-905cc6b77cdc"",""projectId"":""a0a8f18c-a66e-4ba7-a170-23efbdc67501""}","https://test12345.live/?participantId=94114D92C27E43B0A0E98A2D6FE9E0BB&assignmentId=c9874006-6b5e-4104-95dd-905cc6b77cdc&projectId=a0a8f18c-a66e-4ba7-a170-23efbdc67501","94114D92C27E43B0A0E98A2D6FE9E0BB-2024-11-24-19-05-08","[{""page_index"":0,""viewing_time"":84676}]","84676","","","","",""
"true","","","","","fullscreen","3","126079","0.0-3.0","94114D92C27E43B0A0E98A2D6FE9E0BB","94114D92C27E43B0A0E98A2D6FE9E0BB","c9874006-6b5e-4104-95dd-905cc6b77cdc","a0a8f18c-a66e-4ba7-a170-23efbdc67501","{""participantId"":""94114D92C27E43B0A0E98A2D6FE9E0BB"",""assignmentId"":""c9874006-6b5e-4104-95dd-905cc6b77cdc"",""projectId"":""a0a8f18c-a66e-4ba7-a170-23efbdc67501""}","https://test12345.live/?participantId=94114D92C27E43B0A0E98A2D6FE9E0BB&assignmentId=c9874006-6b5e-4104-95dd-905cc6b77cdc&projectId=a0a8f18c-a66e-4ba7-a170-23efbdc67501","94114D92C27E43B0A0E98A2D6FE9E0BB-2024-11-24-19-05-08","","1941","","","","",""
"","","","","","initialize-microphone","4","149346","0.0-4.0-0.0","94114D92C27E43B0A0E98A2D6FE9E0BB","94114D92C27E43B0A0E98A2D6FE9E0BB","c9874006-6b5e-4104-95dd-905cc6b77cdc","a0a8f18c-a66e-4ba7-a170-23efbdc67501","{""participantId"":""94114D92C27E43B0A0E98A2D6FE9E0BB"",""assignmentId"":""c9874006-6b5e-4104-95dd-905cc6b77cdc"",""projectId"":""a0a8f18c-a66e-4ba7-a170-23efbdc67501""}","https://test12345.live/?participantId=94114D92C27E43B0A0E98A2D6FE9E0BB&assignmentId=c9874006-6b5e-4104-95dd-905cc6b77cdc&projectId=a0a8f18c-a66e-4ba7-a170-23efbdc67501","94114D92C27E43B0A0E98A2D6FE9E0BB-2024-11-24-19-05-08","","","43816da3c338f4ed39e881ef1ddc8564288f85a55ff5da93febe1f75fd8524dc","","","",""
"","","","","","html-audio-response","5","173350","0.0-4.0-1.0","94114D92C27E43B0A0E98A2D6FE9E0BB","94114D92C27E43B0A0E98A2D6FE9E0BB","c9874006-6b5e-4104-95dd-905cc6b77cdc","a0a8f18c-a66e-4ba7-a170-23efbdc67501","{""participantId"":""94114D92C27E43B0A0E98A2D6FE9E0BB"",""assignmentId"":""c9874006-6b5e-4104-95dd-905cc6b77cdc"",""projectId"":""a0a8f18c-a66e-4ba7-a170-23efbdc67501""}","https://test12345.live/?participantId=94114D92C27E43B0A0E98A2D6FE9E0BB&assignmentId=c9874006-6b5e-4104-95dd-905cc6b77cdc&projectId=a0a8f18c-a66e-4ba7-a170-23efbdc67501","94114D92C27E43B0A0E98A2D6FE9E0BB-2024-11-24-19-05-08","","2434","","<span style=""color: red; font-size: 24px""> NOW RECORDING</span>
        <p>Please test Microphone</p>","","14",""
"","","","","","html-button-response","6","175732","0.0-4.0-2.0","94114D92C27E43B0A0E98A2D6FE9E0BB","94114D92C27E43B0A0E98A2D6FE9E0BB","c9874006-6b5e-4104-95dd-905cc6b77cdc","a0a8f18c-a66e-4ba7-a170-23efbdc67501","{""participantId"":""94114D92C27E43B0A0E98A2D6FE9E0BB"",""assignmentId"":""c9874006-6b5e-4104-95dd-905cc6b77cdc"",""projectId"":""a0a8f18c-a66e-4ba7-a170-23efbdc67501""}","https://test12345.live/?participantId=94114D92C27E43B0A0E98A2D6FE9E0BB&assignmentId=c9874006-6b5e-4104-95dd-905cc6b77cdc&projectId=a0a8f18c-a66e-4ba7-a170-23efbdc67501","94114D92C27E43B0A0E98A2D6FE9E0BB-2024-11-24-19-05-08","","2378","","<p style=""font-size:48px; color:red;"">Is Microphone OK?</p>","1","",""
"","","","","","instructions","7","211380","0.0-5.0","94114D92C27E43B0A0E98A2D6FE9E0BB","94114D92C27E43B0A0E98A2D6FE9E0BB","c9874006-6b5e-4104-95dd-905cc6b77cdc","a0a8f18c-a66e-4ba7-a170-23efbdc67501","{""participantId"":""94114D92C27E43B0A0E98A2D6FE9E0BB"",""assignmentId"":""c9874006-6b5e-4104-95dd-905cc6b77cdc"",""projectId"":""a0a8f18c-a66e-4ba7-a170-23efbdc67501""}","https://test12345.live/?participantId=94114D92C27E43B0A0E98A2D6FE9E0BB&assignmentId=c9874006-6b5e-4104-95dd-905cc6b77cdc&projectId=a0a8f18c-a66e-4ba7-a170-23efbdc67501","94114D92C27E43B0A0E98A2D6FE9E0BB-2024-11-24-19-05-08","[{""page_index"":0,""viewing_time"":5282},{""page_index"":1,""viewing_time"":30365}]","35647","","","","",""
"","","","","","image-button-response","8","217395","0.0-6.0-0.0","94114D92C27E43B0A0E98A2D6FE9E0BB","94114D92C27E43B0A0E98A2D6FE9E0BB","c9874006-6b5e-4104-95dd-905cc6b77cdc","a0a8f18c-a66e-4ba7-a170-23efbdc67501","{""participantId"":""94114D92C27E43B0A0E98A2D6FE9E0BB"",""assignmentId"":""c9874006-6b5e-4104-95dd-905cc6b77cdc"",""projectId"":""a0a8f18c-a66e-4ba7-a170-23efbdc67501""}","https://test12345.live/?participantId=94114D92C27E43B0A0E98A2D6FE9E0BB&assignmentId=c9874006-6b5e-4104-95dd-905cc6b77cdc&projectId=a0a8f18c-a66e-4ba7-a170-23efbdc67501","94114D92C27E43B0A0E98A2D6FE9E0BB-2024-11-24-19-05-08","","null","","images/instructions/movie_0.png","null","",""
"","","","","","image-button-response","9","221898","0.0-6.0-1.0-0.0","94114D92C27E43B0A0E98A2D6FE9E0BB","94114D92C27E43B0A0E98A2D6FE9E0BB","c9874006-6b5e-4104-95dd-905cc6b77cdc","a0a8f18c-a66e-4ba7-a170-23efbdc67501","{""participantId"":""94114D92C27E43B0A0E98A2D6FE9E0BB"",""assignmentId"":""c9874006-6b5e-4104-95dd-905cc6b77cdc"",""projectId"":""a0a8f18c-a66e-4ba7-a170-23efbdc67501""}","https://test12345.live/?participantId=94114D92C27E43B0A0E98A2D6FE9E0BB&assignmentId=c9874006-6b5e-4104-95dd-905cc6b77cdc&projectId=a0a8f18c-a66e-4ba7-a170-23efbdc67501","94114D92C27E43B0A0E98A2D6FE9E0BB-2024-11-24-19-05-08","","null","","images/instructions/movie_1.png","null","",""
"","","","","","image-button-response","10","225915","0.0-6.0-1.0-1.0","94114D92C27E43B0A0E98A2D6FE9E0BB","94114D92C27E43B0A0E98A2D6FE9E0BB","c9874006-6b5e-4104-95dd-905cc6b77cdc","a0a8f18c-a66e-4ba7-a170-23efbdc67501","{""participantId"":""94114D92C27E43B0A0E98A2D6FE9E0BB"",""assignmentId"":""c9874006-6b5e-4104-95dd-905cc6b77cdc"",""projectId"":""a0a8f18c-a66e-4ba7-a170-23efbdc67501""}","https://test12345.live/?participantId=94114D92C27E43B0A0E98A2D6FE9E0BB&assignmentId=c9874006-6b5e-4104-95dd-905cc6b77cdc&projectId=a0a8f18c-a66e-4ba7-a170-23efbdc67501","94114D92C27E43B0A0E98A2D6FE9E0BB-2024-11-24-19-05-08","","null","","images/instructions/movie_1.png","null","",""
"","","","","","image-button-response","11","227725","0.0-6.0-1.0-2.0","94114D92C27E43B0A0E98A2D6FE9E0BB","94114D92C27E43B0A0E98A2D6FE9E0BB","c9874006-6b5e-4104-95dd-905cc6b77cdc","a0a8f18c-a66e-4ba7-a170-23efbdc67501","{""participantId"":""94114D92C27E43B0A0E98A2D6FE9E0BB"",""assignmentId"":""c9874006-6b5e-4104-95dd-905cc6b77cdc"",""projectId"":""a0a8f18c-a66e-4ba7-a170-23efbdc67501""}","https://test12345.live/?participantId=94114D92C27E43B0A0E98A2D6FE9E0BB&assignmentId=c9874006-6b5e-4104-95dd-905cc6b77cdc&projectId=a0a8f18c-a66e-4ba7-a170-23efbdc67501","94114D92C27E43B0A0E98A2D6FE9E0BB-2024-11-24-19-05-08","","null","","[]","null","",""
"","","","","","image-button-response","12","232233","0.0-6.0-1.0-0.1","94114D92C27E43B0A0E98A2D6FE9E0BB","94114D92C27E43B0A0E98A2D6FE9E0BB","c9874006-6b5e-4104-95dd-905cc6b77cdc","a0a8f18c-a66e-4ba7-a170-23efbdc67501","{""participantId"":""94114D92C27E43B0A0E98A2D6FE9E0BB"",""assignmentId"":""c9874006-6b5e-4104-95dd-905cc6b77cdc"",""projectId"":""a0a8f18c-a66e-4ba7-a170-23efbdc67501""}","https://test12345.live/?participantId=94114D92C27E43B0A0E98A2D6FE9E0BB&assignmentId=c9874006-6b5e-4104-95dd-905cc6b77cdc&projectId=a0a8f18c-a66e-4ba7-a170-23efbdc67501","94114D92C27E43B0A0E98A2D6FE9E0BB-2024-11-24-19-05-08","","null","","images/instructions/movie_2.png","null","",""
"","","","","","image-button-response","13","236245","0.0-6.0-1.0-1.1","94114D92C27E43B0A0E98A2D6FE9E0BB","94114D92C27E43B0A0E98A2D6FE9E0BB","c9874006-6b5e-4104-95dd-905cc6b77cdc","a0a8f18c-a66e-4ba7-a170-23efbdc67501","{""participantId"":""94114D92C27E43B0A0E98A2D6FE9E0BB"",""assignmentId"":""c9874006-6b5e-4104-95dd-905cc6b77cdc"",""projectId"":""a0a8f18c-a66e-4ba7-a170-23efbdc67501""}","https://test12345.live/?participantId=94114D92C27E43B0A0E98A2D6FE9E0BB&assignmentId=c9874006-6b5e-4104-95dd-905cc6b77cdc&projectId=a0a8f18c-a66e-4ba7-a170-23efbdc67501","94114D92C27E43B0A0E98A2D6FE9E0BB-2024-11-24-19-05-08","","null","","images/instructions/movie_2.png","null","",""
"","","","","","image-button-response","14","238065","0.0-6.0-1.0-2.1","94114D92C27E43B0A0E98A2D6FE9E0BB","94114D92C27E43B0A0E98A2D6FE9E0BB","c9874006-6b5e-4104-95dd-905cc6b77cdc","a0a8f18c-a66e-4ba7-a170-23efbdc67501","{""participantId"":""94114D92C27E43B0A0E98A2D6FE9E0BB"",""assignmentId"":""c9874006-6b5e-4104-95dd-905cc6b77cdc"",""projectId"":""a0a8f18c-a66e-4ba7-a170-23efbdc67501""}","https://test12345.live/?participantId=94114D92C27E43B0A0E98A2D6FE9E0BB&assignmentId=c9874006-6b5e-4104-95dd-905cc6b77cdc&projectId=a0a8f18c-a66e-4ba7-a170-23efbdc67501","94114D92C27E43B0A0E98A2D6FE9E0BB-2024-11-24-19-05-08","","null","","[]","null","",""
"","","","","","image-button-response","15","242582","0.0-6.0-1.0-0.2","94114D92C27E43B0A0E98A2D6FE9E0BB","94114D92C27E43B0A0E98A2D6FE9E0BB","c9874006-6b5e-4104-95dd-905cc6b77cdc","a0a8f18c-a66e-4ba7-a170-23efbdc67501","{""participantId"":""94114D92C27E43B0A0E98A2D6FE9E0BB"",""assignmentId"":""c9874006-6b5e-4104-95dd-905cc6b77cdc"",""projectId"":""a0a8f18c-a66e-4ba7-a170-23efbdc67501""}","https://test12345.live/?participantId=94114D92C27E43B0A0E98A2D6FE9E0BB&assignmentId=c9874006-6b5e-4104-95dd-905cc6b77cdc&projectId=a0a8f18c-a66e-4ba7-a170-23efbdc67501","94114D92C27E43B0A0E98A2D6FE9E0BB-2024-11-24-19-05-08","","null","","images/instructions/movie_3.png","null","",""
"","","","","","image-button-response","16","244416","0.0-6.0-1.0-1.2","94114D92C27E43B0A0E98A2D6FE9E0BB","94114D92C27E43B0A0E98A2D6FE9E0BB","c9874006-6b5e-4104-95dd-905cc6b77cdc","a0a8f18c-a66e-4ba7-a170-23efbdc67501","{""participantId"":""94114D92C27E43B0A0E98A2D6FE9E0BB"",""assignmentId"":""c9874006-6b5e-4104-95dd-905cc6b77cdc"",""projectId"":""a0a8f18c-a66e-4ba7-a170-23efbdc67501""}","https://test12345.live/?participantId=94114D92C27E43B0A0E98A2D6FE9E0BB&assignmentId=c9874006-6b5e-4104-95dd-905cc6b77cdc&projectId=a0a8f18c-a66e-4ba7-a170-23efbdc67501","94114D92C27E43B0A0E98A2D6FE9E0BB-2024-11-24-19-05-08","","1832","","images/instructions/movie_3.png","0","",""
"","","","","","image-button-response","17","246225","0.0-6.0-1.0-2.2","94114D92C27E43B0A0E98A2D6FE9E0BB","94114D92C27E43B0A0E98A2D6FE9E0BB","c9874006-6b5e-4104-95dd-905cc6b77cdc","a0a8f18c-a66e-4ba7-a170-23efbdc67501","{""participantId"":""94114D92C27E43B0A0E98A2D6FE9E0BB"",""assignmentId"":""c9874006-6b5e-4104-95dd-905cc6b77cdc"",""projectId"":""a0a8f18c-a66e-4ba7-a170-23efbdc67501""}","https://test12345.live/?participantId=94114D92C27E43B0A0E98A2D6FE9E0BB&assignmentId=c9874006-6b5e-4104-95dd-905cc6b77cdc&projectId=a0a8f18c-a66e-4ba7-a170-23efbdc67501","94114D92C27E43B0A0E98A2D6FE9E0BB-2024-11-24-19-05-08","","null","","[]","null","",""
"","","","","","image-button-response","18","250735","0.0-6.0-1.0-0.3","94114D92C27E43B0A0E98A2D6FE9E0BB","94114D92C27E43B0A0E98A2D6FE9E0BB","c9874006-6b5e-4104-95dd-905cc6b77cdc","a0a8f18c-a66e-4ba7-a170-23efbdc67501","{""participantId"":""94114D92C27E43B0A0E98A2D6FE9E0BB"",""assignmentId"":""c9874006-6b5e-4104-95dd-905cc6b77cdc"",""projectId"":""a0a8f18c-a66e-4ba7-a170-23efbdc67501""}","https://test12345.live/?participantId=94114D92C27E43B0A0E98A2D6FE9E0BB&assignmentId=c9874006-6b5e-4104-95dd-905cc6b77cdc&projectId=a0a8f18c-a66e-4ba7-a170-23efbdc67501","94114D92C27E43B0A0E98A2D6FE9E0BB-2024-11-24-19-05-08","","null","","images/instructions/movie_4.png","null","",""
"","","","","","image-button-response","19","251805","0.0-6.0-1.0-1.3","94114D92C27E43B0A0E98A2D6FE9E0BB","94114D92C27E43B0A0E98A2D6FE9E0BB","c9874006-6b5e-4104-95dd-905cc6b77cdc","a0a8f18c-a66e-4ba7-a170-23efbdc67501","{""participantId"":""94114D92C27E43B0A0E98A2D6FE9E0BB"",""assignmentId"":""c9874006-6b5e-4104-95dd-905cc6b77cdc"",""projectId"":""a0a8f18c-a66e-4ba7-a170-23efbdc67501""}","https://test12345.live/?participantId=94114D92C27E43B0A0E98A2D6FE9E0BB&assignmentId=c9874006-6b5e-4104-95dd-905cc6b77cdc&projectId=a0a8f18c-a66e-4ba7-a170-23efbdc67501","94114D92C27E43B0A0E98A2D6FE9E0BB-2024-11-24-19-05-08","","1068","","images/instructions/movie_4.png","0","",""
"","","","","","image-button-response","20","253615","0.0-6.0-1.0-2.3","94114D92C27E43B0A0E98A2D6FE9E0BB","94114D92C27E43B0A0E98A2D6FE9E0BB","c9874006-6b5e-4104-95dd-905cc6b77cdc","a0a8f18c-a66e-4ba7-a170-23efbdc67501","{""participantId"":""94114D92C27E43B0A0E98A2D6FE9E0BB"",""assignmentId"":""c9874006-6b5e-4104-95dd-905cc6b77cdc"",""projectId"":""a0a8f18c-a66e-4ba7-a170-23efbdc67501""}","https://test12345.live/?participantId=94114D92C27E43B0A0E98A2D6FE9E0BB&assignmentId=c9874006-6b5e-4104-95dd-905cc6b77cdc&projectId=a0a8f18c-a66e-4ba7-a170-23efbdc67501","94114D92C27E43B0A0E98A2D6FE9E0BB-2024-11-24-19-05-08","","null","","[]","null","",""
"","","","","","instructions","21","262739","0.0-7.0","94114D92C27E43B0A0E98A2D6FE9E0BB","94114D92C27E43B0A0E98A2D6FE9E0BB","c9874006-6b5e-4104-95dd-905cc6b77cdc","a0a8f18c-a66e-4ba7-a170-23efbdc67501","{""participantId"":""94114D92C27E43B0A0E98A2D6FE9E0BB"",""assignmentId"":""c9874006-6b5e-4104-95dd-905cc6b77cdc"",""projectId"":""a0a8f18c-a66e-4ba7-a170-23efbdc67501""}","https://test12345.live/?participantId=94114D92C27E43B0A0E98A2D6FE9E0BB&assignmentId=c9874006-6b5e-4104-95dd-905cc6b77cdc&projectId=a0a8f18c-a66e-4ba7-a170-23efbdc67501","94114D92C27E43B0A0E98A2D6FE9E0BB-2024-11-24-19-05-08","[{""page_index"":0,""viewing_time"":5233},{""page_index"":1,""viewing_time"":2208},{""page_index"":0,""viewing_time"":1167},{""page_index"":1,""viewing_time"":513}]","9123","","","","",""
"","","","","","html-audio-response","22","283798","0.0-8.0","94114D92C27E43B0A0E98A2D6FE9E0BB","94114D92C27E43B0A0E98A2D6FE9E0BB","c9874006-6b5e-4104-95dd-905cc6b77cdc","a0a8f18c-a66e-4ba7-a170-23efbdc67501","{""participantId"":""94114D92C27E43B0A0E98A2D6FE9E0BB"",""assignmentId"":""c9874006-6b5e-4104-95dd-905cc6b77cdc"",""projectId"":""a0a8f18c-a66e-4ba7-a170-23efbdc67501""}","https://test12345.live/?participantId=94114D92C27E43B0A0E98A2D6FE9E0BB&assignmentId=c9874006-6b5e-4104-95dd-905cc6b77cdc&projectId=a0a8f18c-a66e-4ba7-a170-23efbdc67501","94114D92C27E43B0A0E98A2D6FE9E0BB-2024-11-24-19-05-08","","15535","","[""<span style=\""color: red; font-size: 24px\""> NOW RECORDING</span><p>Please say out loud all the images you saw, as many as you can remember. The images can be said in any order.</p>""]","","3",""
"","","","","","instructions","23","285441","0.0-9.0","94114D92C27E43B0A0E98A2D6FE9E0BB","94114D92C27E43B0A0E98A2D6FE9E0BB","c9874006-6b5e-4104-95dd-905cc6b77cdc","a0a8f18c-a66e-4ba7-a170-23efbdc67501","{""participantId"":""94114D92C27E43B0A0E98A2D6FE9E0BB"",""assignmentId"":""c9874006-6b5e-4104-95dd-905cc6b77cdc"",""projectId"":""a0a8f18c-a66e-4ba7-a170-23efbdc67501""}","https://test12345.live/?participantId=94114D92C27E43B0A0E98A2D6FE9E0BB&assignmentId=c9874006-6b5e-4104-95dd-905cc6b77cdc&projectId=a0a8f18c-a66e-4ba7-a170-23efbdc67501","94114D92C27E43B0A0E98A2D6FE9E0BB-2024-11-24-19-05-08","[{""page_index"":0,""viewing_time"":1632}]","1633","","","","",""
"","","","","","image-button-response","24","291445","0.0-10.0-0.0","94114D92C27E43B0A0E98A2D6FE9E0BB","94114D92C27E43B0A0E98A2D6FE9E0BB","c9874006-6b5e-4104-95dd-905cc6b77cdc","a0a8f18c-a66e-4ba7-a170-23efbdc67501","{""participantId"":""94114D92C27E43B0A0E98A2D6FE9E0BB"",""assignmentId"":""c9874006-6b5e-4104-95dd-905cc6b77cdc"",""projectId"":""a0a8f18c-a66e-4ba7-a170-23efbdc67501""}","https://test12345.live/?participantId=94114D92C27E43B0A0E98A2D6FE9E0BB&assignmentId=c9874006-6b5e-4104-95dd-905cc6b77cdc&projectId=a0a8f18c-a66e-4ba7-a170-23efbdc67501","94114D92C27E43B0A0E98A2D6FE9E0BB-2024-11-24-19-05-08","","null","","images/schematic_sequence/restaurant_scheme/restaurant_scheme_0.png","null","",""
"","","","","","image-button-response","25","295955","0.0-10.0-1.0-0.0","94114D92C27E43B0A0E98A2D6FE9E0BB","94114D92C27E43B0A0E98A2D6FE9E0BB","c9874006-6b5e-4104-95dd-905cc6b77cdc","a0a8f18c-a66e-4ba7-a170-23efbdc67501","{""participantId"":""94114D92C27E43B0A0E98A2D6FE9E0BB"",""assignmentId"":""c9874006-6b5e-4104-95dd-905cc6b77cdc"",""projectId"":""a0a8f18c-a66e-4ba7-a170-23efbdc67501""}","https://test12345.live/?participantId=94114D92C27E43B0A0E98A2D6FE9E0BB&assignmentId=c9874006-6b5e-4104-95dd-905cc6b77cdc&projectId=a0a8f18c-a66e-4ba7-a170-23efbdc67501","94114D92C27E43B0A0E98A2D6FE9E0BB-2024-11-24-19-05-08","","null","","images/schematic_sequence/restaurant_scheme/restaurant_scheme_9.png","null","",""
"","","","","","image-button-response","26","298304","0.0-10.0-1.0-1.0","94114D92C27E43B0A0E98A2D6FE9E0BB","94114D92C27E43B0A0E98A2D6FE9E0BB","c9874006-6b5e-4104-95dd-905cc6b77cdc","a0a8f18c-a66e-4ba7-a170-23efbdc67501","{""participantId"":""94114D92C27E43B0A0E98A2D6FE9E0BB"",""assignmentId"":""c9874006-6b5e-4104-95dd-905cc6b77cdc"",""projectId"":""a0a8f18c-a66e-4ba7-a170-23efbdc67501""}","https://test12345.live/?participantId=94114D92C27E43B0A0E98A2D6FE9E0BB&assignmentId=c9874006-6b5e-4104-95dd-905cc6b77cdc&projectId=a0a8f18c-a66e-4ba7-a170-23efbdc67501","94114D92C27E43B0A0E98A2D6FE9E0BB-2024-11-24-19-05-08","","2346","","images/schematic_sequence/restaurant_scheme/restaurant_scheme_9.png","0","",""
"","","","","","image-button-response","27","300125","0.0-10.0-1.0-2.0","94114D92C27E43B0A0E98A2D6FE9E0BB","94114D92C27E43B0A0E98A2D6FE9E0BB","c9874006-6b5e-4104-95dd-905cc6b77cdc","a0a8f18c-a66e-4ba7-a170-23efbdc67501","{""participantId"":""94114D92C27E43B0A0E98A2D6FE9E0BB"",""assignmentId"":""c9874006-6b5e-4104-95dd-905cc6b77cdc"",""projectId"":""a0a8f18c-a66e-4ba7-a170-23efbdc67501""}","https://test12345.live/?participantId=94114D92C27E43B0A0E98A2D6FE9E0BB&assignmentId=c9874006-6b5e-4104-95dd-905cc6b77cdc&projectId=a0a8f18c-a66e-4ba7-a170-23efbdc67501","94114D92C27E43B0A0E98A2D6FE9E0BB-2024-11-24-19-05-08","","null","","[]","null","",""
"","","","","","image-button-response","28","304645","0.0-10.0-1.0-0.1","94114D92C27E43B0A0E98A2D6FE9E0BB","94114D92C27E43B0A0E98A2D6FE9E0BB","c9874006-6b5e-4104-95dd-905cc6b77cdc","a0a8f18c-a66e-4ba7-a170-23efbdc67501","{""participantId"":""94114D92C27E43B0A0E98A2D6FE9E0BB"",""assignmentId"":""c9874006-6b5e-4104-95dd-905cc6b77cdc"",""projectId"":""a0a8f18c-a66e-4ba7-a170-23efbdc67501""}","https://test12345.live/?participantId=94114D92C27E43B0A0E98A2D6FE9E0BB&assignmentId=c9874006-6b5e-4104-95dd-905cc6b77cdc&projectId=a0a8f18c-a66e-4ba7-a170-23efbdc67501","94114D92C27E43B0A0E98A2D6FE9E0BB-2024-11-24-19-05-08","","null","","images/schematic_sequence/restaurant_scheme/restaurant_scheme_2.png","null","",""
"","","","","","image-button-response","29","305620","0.0-10.0-1.0-1.1","94114D92C27E43B0A0E98A2D6FE9E0BB","94114D92C27E43B0A0E98A2D6FE9E0BB","c9874006-6b5e-4104-95dd-905cc6b77cdc","a0a8f18c-a66e-4ba7-a170-23efbdc67501","{""participantId"":""94114D92C27E43B0A0E98A2D6FE9E0BB"",""assignmentId"":""c9874006-6b5e-4104-95dd-905cc6b77cdc"",""projectId"":""a0a8f18c-a66e-4ba7-a170-23efbdc67501""}","https://test12345.live/?participantId=94114D92C27E43B0A0E98A2D6FE9E0BB&assignmentId=c9874006-6b5e-4104-95dd-905cc6b77cdc&projectId=a0a8f18c-a66e-4ba7-a170-23efbdc67501","94114D92C27E43B0A0E98A2D6FE9E0BB-2024-11-24-19-05-08","","974","","images/schematic_sequence/restaurant_scheme/restaurant_scheme_2.png","1","",""
"","","","","","image-button-response","30","307436","0.0-10.0-1.0-2.1","94114D92C27E43B0A0E98A2D6FE9E0BB","94114D92C27E43B0A0E98A2D6FE9E0BB","c9874006-6b5e-4104-95dd-905cc6b77cdc","a0a8f18c-a66e-4ba7-a170-23efbdc67501","{""participantId"":""94114D92C27E43B0A0E98A2D6FE9E0BB"",""assignmentId"":""c9874006-6b5e-4104-95dd-905cc6b77cdc"",""projectId"":""a0a8f18c-a66e-4ba7-a170-23efbdc67501""}","https://test12345.live/?participantId=94114D92C27E43B0A0E98A2D6FE9E0BB&assignmentId=c9874006-6b5e-4104-95dd-905cc6b77cdc&projectId=a0a8f18c-a66e-4ba7-a170-23efbdc67501","94114D92C27E43B0A0E98A2D6FE9E0BB-2024-11-24-19-05-08","","null","","[]","null","",""
"","","","","","image-button-response","31","311952","0.0-10.0-1.0-0.2","94114D92C27E43B0A0E98A2D6FE9E0BB","94114D92C27E43B0A0E98A2D6FE9E0BB","c9874006-6b5e-4104-95dd-905cc6b77cdc","a0a8f18c-a66e-4ba7-a170-23efbdc67501","{""participantId"":""94114D92C27E43B0A0E98A2D6FE9E0BB"",""assignmentId"":""c9874006-6b5e-4104-95dd-905cc6b77cdc"",""projectId"":""a0a8f18c-a66e-4ba7-a170-23efbdc67501""}","https://test12345.live/?participantId=94114D92C27E43B0A0E98A2D6FE9E0BB&assignmentId=c9874006-6b5e-4104-95dd-905cc6b77cdc&projectId=a0a8f18c-a66e-4ba7-a170-23efbdc67501","94114D92C27E43B0A0E98A2D6FE9E0BB-2024-11-24-19-05-08","","null","","images/schematic_sequence/restaurant_scheme/restaurant_scheme_1.png","null","",""
"","","","","","image-button-response","32","313293","0.0-10.0-1.0-1.2","94114D92C27E43B0A0E98A2D6FE9E0BB","94114D92C27E43B0A0E98A2D6FE9E0BB","c9874006-6b5e-4104-95dd-905cc6b77cdc","a0a8f18c-a66e-4ba7-a170-23efbdc67501","{""participantId"":""94114D92C27E43B0A0E98A2D6FE9E0BB"",""assignmentId"":""c9874006-6b5e-4104-95dd-905cc6b77cdc"",""projectId"":""a0a8f18c-a66e-4ba7-a170-23efbdc67501""}","https://test12345.live/?participantId=94114D92C27E43B0A0E98A2D6FE9E0BB&assignmentId=c9874006-6b5e-4104-95dd-905cc6b77cdc&projectId=a0a8f18c-a66e-4ba7-a170-23efbdc67501","94114D92C27E43B0A0E98A2D6FE9E0BB-2024-11-24-19-05-08","","1340","","images/schematic_sequence/restaurant_scheme/restaurant_scheme_1.png","0","",""
"","","","","","image-button-response","33","315106","0.0-10.0-1.0-2.2","94114D92C27E43B0A0E98A2D6FE9E0BB","94114D92C27E43B0A0E98A2D6FE9E0BB","c9874006-6b5e-4104-95dd-905cc6b77cdc","a0a8f18c-a66e-4ba7-a170-23efbdc67501","{""participantId"":""94114D92C27E43B0A0E98A2D6FE9E0BB"",""assignmentId"":""c9874006-6b5e-4104-95dd-905cc6b77cdc"",""projectId"":""a0a8f18c-a66e-4ba7-a170-23efbdc67501""}","https://test12345.live/?participantId=94114D92C27E43B0A0E98A2D6FE9E0BB&assignmentId=c9874006-6b5e-4104-95dd-905cc6b77cdc&projectId=a0a8f18c-a66e-4ba7-a170-23efbdc67501","94114D92C27E43B0A0E98A2D6FE9E0BB-2024-11-24-19-05-08","","null","","[]","null","",""
"","","","","","image-button-response","34","319608","0.0-10.0-1.0-0.3","94114D92C27E43B0A0E98A2D6FE9E0BB","94114D92C27E43B0A0E98A2D6FE9E0BB","c9874006-6b5e-4104-95dd-905cc6b77cdc","a0a8f18c-a66e-4ba7-a170-23efbdc67501","{""participantId"":""94114D92C27E43B0A0E98A2D6FE9E0BB"",""assignmentId"":""c9874006-6b5e-4104-95dd-905cc6b77cdc"",""projectId"":""a0a8f18c-a66e-4ba7-a170-23efbdc67501""}","https://test12345.live/?participantId=94114D92C27E43B0A0E98A2D6FE9E0BB&assignmentId=c9874006-6b5e-4104-95dd-905cc6b77cdc&projectId=a0a8f18c-a66e-4ba7-a170-23efbdc67501","94114D92C27E43B0A0E98A2D6FE9E0BB-2024-11-24-19-05-08","","null","","images/schematic_sequence/restaurant_scheme/restaurant_scheme_6.png","null","",""
"","","","","","image-button-response","35","320702","0.0-10.0-1.0-1.3","94114D92C27E43B0A0E98A2D6FE9E0BB","94114D92C27E43B0A0E98A2D6FE9E0BB","c9874006-6b5e-4104-95dd-905cc6b77cdc","a0a8f18c-a66e-4ba7-a170-23efbdc67501","{""participantId"":""94114D92C27E43B0A0E98A2D6FE9E0BB"",""assignmentId"":""c9874006-6b5e-4104-95dd-905cc6b77cdc"",""projectId"":""a0a8f18c-a66e-4ba7-a170-23efbdc67501""}","https://test12345.live/?participantId=94114D92C27E43B0A0E98A2D6FE9E0BB&assignmentId=c9874006-6b5e-4104-95dd-905cc6b77cdc&projectId=a0a8f18c-a66e-4ba7-a170-23efbdc67501","94114D92C27E43B0A0E98A2D6FE9E0BB-2024-11-24-19-05-08","","1092","","images/schematic_sequence/restaurant_scheme/restaurant_scheme_6.png","1","",""
"","","","","","image-button-response","36","322517","0.0-10.0-1.0-2.3","94114D92C27E43B0A0E98A2D6FE9E0BB","94114D92C27E43B0A0E98A2D6FE9E0BB","c9874006-6b5e-4104-95dd-905cc6b77cdc","a0a8f18c-a66e-4ba7-a170-23efbdc67501","{""participantId"":""94114D92C27E43B0A0E98A2D6FE9E0BB"",""assignmentId"":""c9874006-6b5e-4104-95dd-905cc6b77cdc"",""projectId"":""a0a8f18c-a66e-4ba7-a170-23efbdc67501""}","https://test12345.live/?participantId=94114D92C27E43B0A0E98A2D6FE9E0BB&assignmentId=c9874006-6b5e-4104-95dd-905cc6b77cdc&projectId=a0a8f18c-a66e-4ba7-a170-23efbdc67501","94114D92C27E43B0A0E98A2D6FE9E0BB-2024-11-24-19-05-08","","null","","[]","null","",""
"","","","","","image-button-response","37","327031","0.0-10.0-1.0-0.4","94114D92C27E43B0A0E98A2D6FE9E0BB","94114D92C27E43B0A0E98A2D6FE9E0BB","c9874006-6b5e-4104-95dd-905cc6b77cdc","a0a8f18c-a66e-4ba7-a170-23efbdc67501","{""participantId"":""94114D92C27E43B0A0E98A2D6FE9E0BB"",""assignmentId"":""c9874006-6b5e-4104-95dd-905cc6b77cdc"",""projectId"":""a0a8f18c-a66e-4ba7-a170-23efbdc67501""}","https://test12345.live/?participantId=94114D92C27E43B0A0E98A2D6FE9E0BB&assignmentId=c9874006-6b5e-4104-95dd-905cc6b77cdc&projectId=a0a8f18c-a66e-4ba7-a170-23efbdc67501","94114D92C27E43B0A0E98A2D6FE9E0BB-2024-11-24-19-05-08","","null","","images/schematic_sequence/restaurant_scheme/restaurant_scheme_4.png","null","",""
"","","","","","image-button-response","38","329421","0.0-10.0-1.0-1.4","94114D92C27E43B0A0E98A2D6FE9E0BB","94114D92C27E43B0A0E98A2D6FE9E0BB","c9874006-6b5e-4104-95dd-905cc6b77cdc","a0a8f18c-a66e-4ba7-a170-23efbdc67501","{""participantId"":""94114D92C27E43B0A0E98A2D6FE9E0BB"",""assignmentId"":""c9874006-6b5e-4104-95dd-905cc6b77cdc"",""projectId"":""a0a8f18c-a66e-4ba7-a170-23efbdc67501""}","https://test12345.live/?participantId=94114D92C27E43B0A0E98A2D6FE9E0BB&assignmentId=c9874006-6b5e-4104-95dd-905cc6b77cdc&projectId=a0a8f18c-a66e-4ba7-a170-23efbdc67501","94114D92C27E43B0A0E98A2D6FE9E0BB-2024-11-24-19-05-08","","2389","","images/schematic_sequence/restaurant_scheme/restaurant_scheme_4.png","0","",""
"","","","","","image-button-response","39","331225","0.0-10.0-1.0-2.4","94114D92C27E43B0A0E98A2D6FE9E0BB","94114D92C27E43B0A0E98A2D6FE9E0BB","c9874006-6b5e-4104-95dd-905cc6b77cdc","a0a8f18c-a66e-4ba7-a170-23efbdc67501","{""participantId"":""94114D92C27E43B0A0E98A2D6FE9E0BB"",""assignmentId"":""c9874006-6b5e-4104-95dd-905cc6b77cdc"",""projectId"":""a0a8f18c-a66e-4ba7-a170-23efbdc67501""}","https://test12345.live/?participantId=94114D92C27E43B0A0E98A2D6FE9E0BB&assignmentId=c9874006-6b5e-4104-95dd-905cc6b77cdc&projectId=a0a8f18c-a66e-4ba7-a170-23efbdc67501","94114D92C27E43B0A0E98A2D6FE9E0BB-2024-11-24-19-05-08","","null","","[]","null","",""
"","","","","","image-button-response","40","335745","0.0-10.0-1.0-0.5","94114D92C27E43B0A0E98A2D6FE9E0BB","94114D92C27E43B0A0E98A2D6FE9E0BB","c9874006-6b5e-4104-95dd-905cc6b77cdc","a0a8f18c-a66e-4ba7-a170-23efbdc67501","{""participantId"":""94114D92C27E43B0A0E98A2D6FE9E0BB"",""assignmentId"":""c9874006-6b5e-4104-95dd-905cc6b77cdc"",""projectId"":""a0a8f18c-a66e-4ba7-a170-23efbdc67501""}","https://test12345.live/?participantId=94114D92C27E43B0A0E98A2D6FE9E0BB&assignmentId=c9874006-6b5e-4104-95dd-905cc6b77cdc&projectId=a0a8f18c-a66e-4ba7-a170-23efbdc67501","94114D92C27E43B0A0E98A2D6FE9E0BB-2024-11-24-19-05-08","","null","","images/schematic_sequence/restaurant_scheme/restaurant_scheme_ten.png","null","",""
"","","","","","image-button-response","41","336861","0.0-10.0-1.0-1.5","94114D92C27E43B0A0E98A2D6FE9E0BB","94114D92C27E43B0A0E98A2D6FE9E0BB","c9874006-6b5e-4104-95dd-905cc6b77cdc","a0a8f18c-a66e-4ba7-a170-23efbdc67501","{""participantId"":""94114D92C27E43B0A0E98A2D6FE9E0BB"",""assignmentId"":""c9874006-6b5e-4104-95dd-905cc6b77cdc"",""projectId"":""a0a8f18c-a66e-4ba7-a170-23efbdc67501""}","https://test12345.live/?participantId=94114D92C27E43B0A0E98A2D6FE9E0BB&assignmentId=c9874006-6b5e-4104-95dd-905cc6b77cdc&projectId=a0a8f18c-a66e-4ba7-a170-23efbdc67501","94114D92C27E43B0A0E98A2D6FE9E0BB-2024-11-24-19-05-08","","1115","","images/schematic_sequence/restaurant_scheme/restaurant_scheme_ten.png","0","",""
"","","","","","image-button-response","42","338675","0.0-10.0-1.0-2.5","94114D92C27E43B0A0E98A2D6FE9E0BB","94114D92C27E43B0A0E98A2D6FE9E0BB","c9874006-6b5e-4104-95dd-905cc6b77cdc","a0a8f18c-a66e-4ba7-a170-23efbdc67501","{""participantId"":""94114D92C27E43B0A0E98A2D6FE9E0BB"",""assignmentId"":""c9874006-6b5e-4104-95dd-905cc6b77cdc"",""projectId"":""a0a8f18c-a66e-4ba7-a170-23efbdc67501""}","https://test12345.live/?participantId=94114D92C27E43B0A0E98A2D6FE9E0BB&assignmentId=c9874006-6b5e-4104-95dd-905cc6b77cdc&projectId=a0a8f18c-a66e-4ba7-a170-23efbdc67501","94114D92C27E43B0A0E98A2D6FE9E0BB-2024-11-24-19-05-08","","null","","[]","null","",""
"","","","","","image-button-response","43","343186","0.0-10.0-1.0-0.6","94114D92C27E43B0A0E98A2D6FE9E0BB","94114D92C27E43B0A0E98A2D6FE9E0BB","c9874006-6b5e-4104-95dd-905cc6b77cdc","a0a8f18c-a66e-4ba7-a170-23efbdc67501","{""participantId"":""94114D92C27E43B0A0E98A2D6FE9E0BB"",""assignmentId"":""c9874006-6b5e-4104-95dd-905cc6b77cdc"",""projectId"":""a0a8f18c-a66e-4ba7-a170-23efbdc67501""}","https://test12345.live/?participantId=94114D92C27E43B0A0E98A2D6FE9E0BB&assignmentId=c9874006-6b5e-4104-95dd-905cc6b77cdc&projectId=a0a8f18c-a66e-4ba7-a170-23efbdc67501","94114D92C27E43B0A0E98A2D6FE9E0BB-2024-11-24-19-05-08","","null","","images/schematic_sequence/restaurant_scheme/restaurant_scheme_8.png","null","",""
"","","","","","image-button-response","44","344219","0.0-10.0-1.0-1.6","94114D92C27E43B0A0E98A2D6FE9E0BB","94114D92C27E43B0A0E98A2D6FE9E0BB","c9874006-6b5e-4104-95dd-905cc6b77cdc","a0a8f18c-a66e-4ba7-a170-23efbdc67501","{""participantId"":""94114D92C27E43B0A0E98A2D6FE9E0BB"",""assignmentId"":""c9874006-6b5e-4104-95dd-905cc6b77cdc"",""projectId"":""a0a8f18c-a66e-4ba7-a170-23efbdc67501""}","https://test12345.live/?participantId=94114D92C27E43B0A0E98A2D6FE9E0BB&assignmentId=c9874006-6b5e-4104-95dd-905cc6b77cdc&projectId=a0a8f18c-a66e-4ba7-a170-23efbdc67501","94114D92C27E43B0A0E98A2D6FE9E0BB-2024-11-24-19-05-08","","1031","","images/schematic_sequence/restaurant_scheme/restaurant_scheme_8.png","0","",""
"","","","","","image-button-response","45","346026","0.0-10.0-1.0-2.6","94114D92C27E43B0A0E98A2D6FE9E0BB","94114D92C27E43B0A0E98A2D6FE9E0BB","c9874006-6b5e-4104-95dd-905cc6b77cdc","a0a8f18c-a66e-4ba7-a170-23efbdc67501","{""participantId"":""94114D92C27E43B0A0E98A2D6FE9E0BB"",""assignmentId"":""c9874006-6b5e-4104-95dd-905cc6b77cdc"",""projectId"":""a0a8f18c-a66e-4ba7-a170-23efbdc67501""}","https://test12345.live/?participantId=94114D92C27E43B0A0E98A2D6FE9E0BB&assignmentId=c9874006-6b5e-4104-95dd-905cc6b77cdc&projectId=a0a8f18c-a66e-4ba7-a170-23efbdc67501","94114D92C27E43B0A0E98A2D6FE9E0BB-2024-11-24-19-05-08","","null","","[]","null","",""
"","","","","","image-button-response","46","350536","0.0-10.0-1.0-0.7","94114D92C27E43B0A0E98A2D6FE9E0BB","94114D92C27E43B0A0E98A2D6FE9E0BB","c9874006-6b5e-4104-95dd-905cc6b77cdc","a0a8f18c-a66e-4ba7-a170-23efbdc67501","{""participantId"":""94114D92C27E43B0A0E98A2D6FE9E0BB"",""assignmentId"":""c9874006-6b5e-4104-95dd-905cc6b77cdc"",""projectId"":""a0a8f18c-a66e-4ba7-a170-23efbdc67501""}","https://test12345.live/?participantId=94114D92C27E43B0A0E98A2D6FE9E0BB&assignmentId=c9874006-6b5e-4104-95dd-905cc6b77cdc&projectId=a0a8f18c-a66e-4ba7-a170-23efbdc67501","94114D92C27E43B0A0E98A2D6FE9E0BB-2024-11-24-19-05-08","","null","","images/schematic_sequence/restaurant_scheme/restaurant_scheme_7.png","null","",""
"","","","","","image-button-response","47","351745","0.0-10.0-1.0-1.7","94114D92C27E43B0A0E98A2D6FE9E0BB","94114D92C27E43B0A0E98A2D6FE9E0BB","c9874006-6b5e-4104-95dd-905cc6b77cdc","a0a8f18c-a66e-4ba7-a170-23efbdc67501","{""participantId"":""94114D92C27E43B0A0E98A2D6FE9E0BB"",""assignmentId"":""c9874006-6b5e-4104-95dd-905cc6b77cdc"",""projectId"":""a0a8f18c-a66e-4ba7-a170-23efbdc67501""}","https://test12345.live/?participantId=94114D92C27E43B0A0E98A2D6FE9E0BB&assignmentId=c9874006-6b5e-4104-95dd-905cc6b77cdc&projectId=a0a8f18c-a66e-4ba7-a170-23efbdc67501","94114D92C27E43B0A0E98A2D6FE9E0BB-2024-11-24-19-05-08","","1208","","images/schematic_sequence/restaurant_scheme/restaurant_scheme_7.png","1","",""
"","","","","","image-button-response","48","353556","0.0-10.0-1.0-2.7","94114D92C27E43B0A0E98A2D6FE9E0BB","94114D92C27E43B0A0E98A2D6FE9E0BB","c9874006-6b5e-4104-95dd-905cc6b77cdc","a0a8f18c-a66e-4ba7-a170-23efbdc67501","{""participantId"":""94114D92C27E43B0A0E98A2D6FE9E0BB"",""assignmentId"":""c9874006-6b5e-4104-95dd-905cc6b77cdc"",""projectId"":""a0a8f18c-a66e-4ba7-a170-23efbdc67501""}","https://test12345.live/?participantId=94114D92C27E43B0A0E98A2D6FE9E0BB&assignmentId=c9874006-6b5e-4104-95dd-905cc6b77cdc&projectId=a0a8f18c-a66e-4ba7-a170-23efbdc67501","94114D92C27E43B0A0E98A2D6FE9E0BB-2024-11-24-19-05-08","","null","","[]","null","",""
"","","","","","image-button-response","49","358066","0.0-10.0-1.0-0.8","94114D92C27E43B0A0E98A2D6FE9E0BB","94114D92C27E43B0A0E98A2D6FE9E0BB","c9874006-6b5e-4104-95dd-905cc6b77cdc","a0a8f18c-a66e-4ba7-a170-23efbdc67501","{""participantId"":""94114D92C27E43B0A0E98A2D6FE9E0BB"",""assignmentId"":""c9874006-6b5e-4104-95dd-905cc6b77cdc"",""projectId"":""a0a8f18c-a66e-4ba7-a170-23efbdc67501""}","https://test12345.live/?participantId=94114D92C27E43B0A0E98A2D6FE9E0BB&assignmentId=c9874006-6b5e-4104-95dd-905cc6b77cdc&projectId=a0a8f18c-a66e-4ba7-a170-23efbdc67501","94114D92C27E43B0A0E98A2D6FE9E0BB-2024-11-24-19-05-08","","null","","images/schematic_sequence/restaurant_scheme/restaurant_scheme_5.png","null","",""
"","","","","","image-button-response","50","358792","0.0-10.0-1.0-1.8","94114D92C27E43B0A0E98A2D6FE9E0BB","94114D92C27E43B0A0E98A2D6FE9E0BB","c9874006-6b5e-4104-95dd-905cc6b77cdc","a0a8f18c-a66e-4ba7-a170-23efbdc67501","{""participantId"":""94114D92C27E43B0A0E98A2D6FE9E0BB"",""assignmentId"":""c9874006-6b5e-4104-95dd-905cc6b77cdc"",""projectId"":""a0a8f18c-a66e-4ba7-a170-23efbdc67501""}","https://test12345.live/?participantId=94114D92C27E43B0A0E98A2D6FE9E0BB&assignmentId=c9874006-6b5e-4104-95dd-905cc6b77cdc&projectId=a0a8f18c-a66e-4ba7-a170-23efbdc67501","94114D92C27E43B0A0E98A2D6FE9E0BB-2024-11-24-19-05-08","","725","","images/schematic_sequence/restaurant_scheme/restaurant_scheme_5.png","0","",""
"","","","","","image-button-response","51","360596","0.0-10.0-1.0-2.8","94114D92C27E43B0A0E98A2D6FE9E0BB","94114D92C27E43B0A0E98A2D6FE9E0BB","c9874006-6b5e-4104-95dd-905cc6b77cdc","a0a8f18c-a66e-4ba7-a170-23efbdc67501","{""participantId"":""94114D92C27E43B0A0E98A2D6FE9E0BB"",""assignmentId"":""c9874006-6b5e-4104-95dd-905cc6b77cdc"",""projectId"":""a0a8f18c-a66e-4ba7-a170-23efbdc67501""}","https://test12345.live/?participantId=94114D92C27E43B0A0E98A2D6FE9E0BB&assignmentId=c9874006-6b5e-4104-95dd-905cc6b77cdc&projectId=a0a8f18c-a66e-4ba7-a170-23efbdc67501","94114D92C27E43B0A0E98A2D6FE9E0BB-2024-11-24-19-05-08","","null","","[]","null","",""
"","","","","","image-button-response","52","365102","0.0-10.0-1.0-0.9","94114D92C27E43B0A0E98A2D6FE9E0BB","94114D92C27E43B0A0E98A2D6FE9E0BB","c9874006-6b5e-4104-95dd-905cc6b77cdc","a0a8f18c-a66e-4ba7-a170-23efbdc67501","{""participantId"":""94114D92C27E43B0A0E98A2D6FE9E0BB"",""assignmentId"":""c9874006-6b5e-4104-95dd-905cc6b77cdc"",""projectId"":""a0a8f18c-a66e-4ba7-a170-23efbdc67501""}","https://test12345.live/?participantId=94114D92C27E43B0A0E98A2D6FE9E0BB&assignmentId=c9874006-6b5e-4104-95dd-905cc6b77cdc&projectId=a0a8f18c-a66e-4ba7-a170-23efbdc67501","94114D92C27E43B0A0E98A2D6FE9E0BB-2024-11-24-19-05-08","","null","","images/schematic_sequence/restaurant_scheme/restaurant_scheme_3.png","null","",""
"","","","","","image-button-response","53","366796","0.0-10.0-1.0-1.9","94114D92C27E43B0A0E98A2D6FE9E0BB","94114D92C27E43B0A0E98A2D6FE9E0BB","c9874006-6b5e-4104-95dd-905cc6b77cdc","a0a8f18c-a66e-4ba7-a170-23efbdc67501","{""participantId"":""94114D92C27E43B0A0E98A2D6FE9E0BB"",""assignmentId"":""c9874006-6b5e-4104-95dd-905cc6b77cdc"",""projectId"":""a0a8f18c-a66e-4ba7-a170-23efbdc67501""}","https://test12345.live/?participantId=94114D92C27E43B0A0E98A2D6FE9E0BB&assignmentId=c9874006-6b5e-4104-95dd-905cc6b77cdc&projectId=a0a8f18c-a66e-4ba7-a170-23efbdc67501","94114D92C27E43B0A0E98A2D6FE9E0BB-2024-11-24-19-05-08","","1693","","images/schematic_sequence/restaurant_scheme/restaurant_scheme_3.png","1","",""
"","","","","","image-button-response","54","368616","0.0-10.0-1.0-2.9","94114D92C27E43B0A0E98A2D6FE9E0BB","94114D92C27E43B0A0E98A2D6FE9E0BB","c9874006-6b5e-4104-95dd-905cc6b77cdc","a0a8f18c-a66e-4ba7-a170-23efbdc67501","{""participantId"":""94114D92C27E43B0A0E98A2D6FE9E0BB"",""assignmentId"":""c9874006-6b5e-4104-95dd-905cc6b77cdc"",""projectId"":""a0a8f18c-a66e-4ba7-a170-23efbdc67501""}","https://test12345.live/?participantId=94114D92C27E43B0A0E98A2D6FE9E0BB&assignmentId=c9874006-6b5e-4104-95dd-905cc6b77cdc&projectId=a0a8f18c-a66e-4ba7-a170-23efbdc67501","94114D92C27E43B0A0E98A2D6FE9E0BB-2024-11-24-19-05-08","","null","","[]","null","",""
"","","","","","html-audio-response","55","388090","0.0-11.0","94114D92C27E43B0A0E98A2D6FE9E0BB","94114D92C27E43B0A0E98A2D6FE9E0BB","c9874006-6b5e-4104-95dd-905cc6b77cdc","a0a8f18c-a66e-4ba7-a170-23efbdc67501","{""participantId"":""94114D92C27E43B0A0E98A2D6FE9E0BB"",""assignmentId"":""c9874006-6b5e-4104-95dd-905cc6b77cdc"",""projectId"":""a0a8f18c-a66e-4ba7-a170-23efbdc67501""}","https://test12345.live/?participantId=94114D92C27E43B0A0E98A2D6FE9E0BB&assignmentId=c9874006-6b5e-4104-95dd-905cc6b77cdc&projectId=a0a8f18c-a66e-4ba7-a170-23efbdc67501","94114D92C27E43B0A0E98A2D6FE9E0BB-2024-11-24-19-05-08","","18203","","[""<span style=\""color: red; font-size: 24px\""> NOW RECORDING</span><p>Please say out loud all the images you saw, as many as you can remember. The images can be said in any order.</p>""]","","2","restaurant_scheme"
"","","","","","image-button-response","56","394116","0.0-12.0-0.0","94114D92C27E43B0A0E98A2D6FE9E0BB","94114D92C27E43B0A0E98A2D6FE9E0BB","c9874006-6b5e-4104-95dd-905cc6b77cdc","a0a8f18c-a66e-4ba7-a170-23efbdc67501","{""participantId"":""94114D92C27E43B0A0E98A2D6FE9E0BB"",""assignmentId"":""c9874006-6b5e-4104-95dd-905cc6b77cdc"",""projectId"":""a0a8f18c-a66e-4ba7-a170-23efbdc67501""}","https://test12345.live/?participantId=94114D92C27E43B0A0E98A2D6FE9E0BB&assignmentId=c9874006-6b5e-4104-95dd-905cc6b77cdc&projectId=a0a8f18c-a66e-4ba7-a170-23efbdc67501","94114D92C27E43B0A0E98A2D6FE9E0BB-2024-11-24-19-05-08","","null","","images/schematic_sequence/flight_scheme/flight_scheme_0.png","null","",""
"","","","","","image-button-response","57","398625","0.0-12.0-1.0-0.0","94114D92C27E43B0A0E98A2D6FE9E0BB","94114D92C27E43B0A0E98A2D6FE9E0BB","c9874006-6b5e-4104-95dd-905cc6b77cdc","a0a8f18c-a66e-4ba7-a170-23efbdc67501","{""participantId"":""94114D92C27E43B0A0E98A2D6FE9E0BB"",""assignmentId"":""c9874006-6b5e-4104-95dd-905cc6b77cdc"",""projectId"":""a0a8f18c-a66e-4ba7-a170-23efbdc67501""}","https://test12345.live/?participantId=94114D92C27E43B0A0E98A2D6FE9E0BB&assignmentId=c9874006-6b5e-4104-95dd-905cc6b77cdc&projectId=a0a8f18c-a66e-4ba7-a170-23efbdc67501","94114D92C27E43B0A0E98A2D6FE9E0BB-2024-11-24-19-05-08","","null","","images/schematic_sequence/flight_scheme/flight_scheme_1.png","null","",""
"","","","","","image-button-response","58","399875","0.0-12.0-1.0-1.0","94114D92C27E43B0A0E98A2D6FE9E0BB","94114D92C27E43B0A0E98A2D6FE9E0BB","c9874006-6b5e-4104-95dd-905cc6b77cdc","a0a8f18c-a66e-4ba7-a170-23efbdc67501","{""participantId"":""94114D92C27E43B0A0E98A2D6FE9E0BB"",""assignmentId"":""c9874006-6b5e-4104-95dd-905cc6b77cdc"",""projectId"":""a0a8f18c-a66e-4ba7-a170-23efbdc67501""}","https://test12345.live/?participantId=94114D92C27E43B0A0E98A2D6FE9E0BB&assignmentId=c9874006-6b5e-4104-95dd-905cc6b77cdc&projectId=a0a8f18c-a66e-4ba7-a170-23efbdc67501","94114D92C27E43B0A0E98A2D6FE9E0BB-2024-11-24-19-05-08","","1249","","images/schematic_sequence/flight_scheme/flight_scheme_1.png","0","",""
"","","","","","image-button-response","59","401686","0.0-12.0-1.0-2.0","94114D92C27E43B0A0E98A2D6FE9E0BB","94114D92C27E43B0A0E98A2D6FE9E0BB","c9874006-6b5e-4104-95dd-905cc6b77cdc","a0a8f18c-a66e-4ba7-a170-23efbdc67501","{""participantId"":""94114D92C27E43B0A0E98A2D6FE9E0BB"",""assignmentId"":""c9874006-6b5e-4104-95dd-905cc6b77cdc"",""projectId"":""a0a8f18c-a66e-4ba7-a170-23efbdc67501""}","https://test12345.live/?participantId=94114D92C27E43B0A0E98A2D6FE9E0BB&assignmentId=c9874006-6b5e-4104-95dd-905cc6b77cdc&projectId=a0a8f18c-a66e-4ba7-a170-23efbdc67501","94114D92C27E43B0A0E98A2D6FE9E0BB-2024-11-24-19-05-08","","null","","[]","null","",""
"","","","","","image-button-response","60","406203","0.0-12.0-1.0-0.1","94114D92C27E43B0A0E98A2D6FE9E0BB","94114D92C27E43B0A0E98A2D6FE9E0BB","c9874006-6b5e-4104-95dd-905cc6b77cdc","a0a8f18c-a66e-4ba7-a170-23efbdc67501","{""participantId"":""94114D92C27E43B0A0E98A2D6FE9E0BB"",""assignmentId"":""c9874006-6b5e-4104-95dd-905cc6b77cdc"",""projectId"":""a0a8f18c-a66e-4ba7-a170-23efbdc67501""}","https://test12345.live/?participantId=94114D92C27E43B0A0E98A2D6FE9E0BB&assignmentId=c9874006-6b5e-4104-95dd-905cc6b77cdc&projectId=a0a8f18c-a66e-4ba7-a170-23efbdc67501","94114D92C27E43B0A0E98A2D6FE9E0BB-2024-11-24-19-05-08","","null","","images/schematic_sequence/flight_scheme/flight_scheme_2.png","null","",""
"","","","","","image-button-response","61","407021","0.0-12.0-1.0-1.1","94114D92C27E43B0A0E98A2D6FE9E0BB","94114D92C27E43B0A0E98A2D6FE9E0BB","c9874006-6b5e-4104-95dd-905cc6b77cdc","a0a8f18c-a66e-4ba7-a170-23efbdc67501","{""participantId"":""94114D92C27E43B0A0E98A2D6FE9E0BB"",""assignmentId"":""c9874006-6b5e-4104-95dd-905cc6b77cdc"",""projectId"":""a0a8f18c-a66e-4ba7-a170-23efbdc67501""}","https://test12345.live/?participantId=94114D92C27E43B0A0E98A2D6FE9E0BB&assignmentId=c9874006-6b5e-4104-95dd-905cc6b77cdc&projectId=a0a8f18c-a66e-4ba7-a170-23efbdc67501","94114D92C27E43B0A0E98A2D6FE9E0BB-2024-11-24-19-05-08","","817","","images/schematic_sequence/flight_scheme/flight_scheme_2.png","1","",""
"","","","","","image-button-response","62","408827","0.0-12.0-1.0-2.1","94114D92C27E43B0A0E98A2D6FE9E0BB","94114D92C27E43B0A0E98A2D6FE9E0BB","c9874006-6b5e-4104-95dd-905cc6b77cdc","a0a8f18c-a66e-4ba7-a170-23efbdc67501","{""participantId"":""94114D92C27E43B0A0E98A2D6FE9E0BB"",""assignmentId"":""c9874006-6b5e-4104-95dd-905cc6b77cdc"",""projectId"":""a0a8f18c-a66e-4ba7-a170-23efbdc67501""}","https://test12345.live/?participantId=94114D92C27E43B0A0E98A2D6FE9E0BB&assignmentId=c9874006-6b5e-4104-95dd-905cc6b77cdc&projectId=a0a8f18c-a66e-4ba7-a170-23efbdc67501","94114D92C27E43B0A0E98A2D6FE9E0BB-2024-11-24-19-05-08","","null","","[]","null","",""
"","","","","","image-button-response","63","413335","0.0-12.0-1.0-0.2","94114D92C27E43B0A0E98A2D6FE9E0BB","94114D92C27E43B0A0E98A2D6FE9E0BB","c9874006-6b5e-4104-95dd-905cc6b77cdc","a0a8f18c-a66e-4ba7-a170-23efbdc67501","{""participantId"":""94114D92C27E43B0A0E98A2D6FE9E0BB"",""assignmentId"":""c9874006-6b5e-4104-95dd-905cc6b77cdc"",""projectId"":""a0a8f18c-a66e-4ba7-a170-23efbdc67501""}","https://test12345.live/?participantId=94114D92C27E43B0A0E98A2D6FE9E0BB&assignmentId=c9874006-6b5e-4104-95dd-905cc6b77cdc&projectId=a0a8f18c-a66e-4ba7-a170-23efbdc67501","94114D92C27E43B0A0E98A2D6FE9E0BB-2024-11-24-19-05-08","","null","","images/schematic_sequence/flight_scheme/flight_scheme_3.png","null","",""
"","","","","","image-button-response","64","414494","0.0-12.0-1.0-1.2","94114D92C27E43B0A0E98A2D6FE9E0BB","94114D92C27E43B0A0E98A2D6FE9E0BB","c9874006-6b5e-4104-95dd-905cc6b77cdc","a0a8f18c-a66e-4ba7-a170-23efbdc67501","{""participantId"":""94114D92C27E43B0A0E98A2D6FE9E0BB"",""assignmentId"":""c9874006-6b5e-4104-95dd-905cc6b77cdc"",""projectId"":""a0a8f18c-a66e-4ba7-a170-23efbdc67501""}","https://test12345.live/?participantId=94114D92C27E43B0A0E98A2D6FE9E0BB&assignmentId=c9874006-6b5e-4104-95dd-905cc6b77cdc&projectId=a0a8f18c-a66e-4ba7-a170-23efbdc67501","94114D92C27E43B0A0E98A2D6FE9E0BB-2024-11-24-19-05-08","","1157","","images/schematic_sequence/flight_scheme/flight_scheme_3.png","0","",""
"","","","","","image-button-response","65","416303","0.0-12.0-1.0-2.2","94114D92C27E43B0A0E98A2D6FE9E0BB","94114D92C27E43B0A0E98A2D6FE9E0BB","c9874006-6b5e-4104-95dd-905cc6b77cdc","a0a8f18c-a66e-4ba7-a170-23efbdc67501","{""participantId"":""94114D92C27E43B0A0E98A2D6FE9E0BB"",""assignmentId"":""c9874006-6b5e-4104-95dd-905cc6b77cdc"",""projectId"":""a0a8f18c-a66e-4ba7-a170-23efbdc67501""}","https://test12345.live/?participantId=94114D92C27E43B0A0E98A2D6FE9E0BB&assignmentId=c9874006-6b5e-4104-95dd-905cc6b77cdc&projectId=a0a8f18c-a66e-4ba7-a170-23efbdc67501","94114D92C27E43B0A0E98A2D6FE9E0BB-2024-11-24-19-05-08","","null","","[]","null","",""
"","","","","","image-button-response","66","420813","0.0-12.0-1.0-0.3","94114D92C27E43B0A0E98A2D6FE9E0BB","94114D92C27E43B0A0E98A2D6FE9E0BB","c9874006-6b5e-4104-95dd-905cc6b77cdc","a0a8f18c-a66e-4ba7-a170-23efbdc67501","{""participantId"":""94114D92C27E43B0A0E98A2D6FE9E0BB"",""assignmentId"":""c9874006-6b5e-4104-95dd-905cc6b77cdc"",""projectId"":""a0a8f18c-a66e-4ba7-a170-23efbdc67501""}","https://test12345.live/?participantId=94114D92C27E43B0A0E98A2D6FE9E0BB&assignmentId=c9874006-6b5e-4104-95dd-905cc6b77cdc&projectId=a0a8f18c-a66e-4ba7-a170-23efbdc67501","94114D92C27E43B0A0E98A2D6FE9E0BB-2024-11-24-19-05-08","","null","","images/schematic_sequence/flight_scheme/flight_scheme_4.png","null","",""
"","","","","","image-button-response","67","421393","0.0-12.0-1.0-1.3","94114D92C27E43B0A0E98A2D6FE9E0BB","94114D92C27E43B0A0E98A2D6FE9E0BB","c9874006-6b5e-4104-95dd-905cc6b77cdc","a0a8f18c-a66e-4ba7-a170-23efbdc67501","{""participantId"":""94114D92C27E43B0A0E98A2D6FE9E0BB"",""assignmentId"":""c9874006-6b5e-4104-95dd-905cc6b77cdc"",""projectId"":""a0a8f18c-a66e-4ba7-a170-23efbdc67501""}","https://test12345.live/?participantId=94114D92C27E43B0A0E98A2D6FE9E0BB&assignmentId=c9874006-6b5e-4104-95dd-905cc6b77cdc&projectId=a0a8f18c-a66e-4ba7-a170-23efbdc67501","94114D92C27E43B0A0E98A2D6FE9E0BB-2024-11-24-19-05-08","","577","","images/schematic_sequence/flight_scheme/flight_scheme_4.png","0","",""
"","","","","","image-button-response","68","423211","0.0-12.0-1.0-2.3","94114D92C27E43B0A0E98A2D6FE9E0BB","94114D92C27E43B0A0E98A2D6FE9E0BB","c9874006-6b5e-4104-95dd-905cc6b77cdc","a0a8f18c-a66e-4ba7-a170-23efbdc67501","{""participantId"":""94114D92C27E43B0A0E98A2D6FE9E0BB"",""assignmentId"":""c9874006-6b5e-4104-95dd-905cc6b77cdc"",""projectId"":""a0a8f18c-a66e-4ba7-a170-23efbdc67501""}","https://test12345.live/?participantId=94114D92C27E43B0A0E98A2D6FE9E0BB&assignmentId=c9874006-6b5e-4104-95dd-905cc6b77cdc&projectId=a0a8f18c-a66e-4ba7-a170-23efbdc67501","94114D92C27E43B0A0E98A2D6FE9E0BB-2024-11-24-19-05-08","","null","","[]","null","",""
"","","","","","image-button-response","69","427722","0.0-12.0-1.0-0.4","94114D92C27E43B0A0E98A2D6FE9E0BB","94114D92C27E43B0A0E98A2D6FE9E0BB","c9874006-6b5e-4104-95dd-905cc6b77cdc","a0a8f18c-a66e-4ba7-a170-23efbdc67501","{""participantId"":""94114D92C27E43B0A0E98A2D6FE9E0BB"",""assignmentId"":""c9874006-6b5e-4104-95dd-905cc6b77cdc"",""projectId"":""a0a8f18c-a66e-4ba7-a170-23efbdc67501""}","https://test12345.live/?participantId=94114D92C27E43B0A0E98A2D6FE9E0BB&assignmentId=c9874006-6b5e-4104-95dd-905cc6b77cdc&projectId=a0a8f18c-a66e-4ba7-a170-23efbdc67501","94114D92C27E43B0A0E98A2D6FE9E0BB-2024-11-24-19-05-08","","null","","images/schematic_sequence/flight_scheme/flight_scheme_5.png","null","",""
"","","","","","image-button-response","70","428303","0.0-12.0-1.0-1.4","94114D92C27E43B0A0E98A2D6FE9E0BB","94114D92C27E43B0A0E98A2D6FE9E0BB","c9874006-6b5e-4104-95dd-905cc6b77cdc","a0a8f18c-a66e-4ba7-a170-23efbdc67501","{""participantId"":""94114D92C27E43B0A0E98A2D6FE9E0BB"",""assignmentId"":""c9874006-6b5e-4104-95dd-905cc6b77cdc"",""projectId"":""a0a8f18c-a66e-4ba7-a170-23efbdc67501""}","https://test12345.live/?participantId=94114D92C27E43B0A0E98A2D6FE9E0BB&assignmentId=c9874006-6b5e-4104-95dd-905cc6b77cdc&projectId=a0a8f18c-a66e-4ba7-a170-23efbdc67501","94114D92C27E43B0A0E98A2D6FE9E0BB-2024-11-24-19-05-08","","580","","images/schematic_sequence/flight_scheme/flight_scheme_5.png","0","",""
"","","","","","image-button-response","71","430113","0.0-12.0-1.0-2.4","94114D92C27E43B0A0E98A2D6FE9E0BB","94114D92C27E43B0A0E98A2D6FE9E0BB","c9874006-6b5e-4104-95dd-905cc6b77cdc","a0a8f18c-a66e-4ba7-a170-23efbdc67501","{""participantId"":""94114D92C27E43B0A0E98A2D6FE9E0BB"",""assignmentId"":""c9874006-6b5e-4104-95dd-905cc6b77cdc"",""projectId"":""a0a8f18c-a66e-4ba7-a170-23efbdc67501""}","https://test12345.live/?participantId=94114D92C27E43B0A0E98A2D6FE9E0BB&assignmentId=c9874006-6b5e-4104-95dd-905cc6b77cdc&projectId=a0a8f18c-a66e-4ba7-a170-23efbdc67501","94114D92C27E43B0A0E98A2D6FE9E0BB-2024-11-24-19-05-08","","null","","[]","null","",""
"","","","","","image-button-response","72","434633","0.0-12.0-1.0-0.5","94114D92C27E43B0A0E98A2D6FE9E0BB","94114D92C27E43B0A0E98A2D6FE9E0BB","c9874006-6b5e-4104-95dd-905cc6b77cdc","a0a8f18c-a66e-4ba7-a170-23efbdc67501","{""participantId"":""94114D92C27E43B0A0E98A2D6FE9E0BB"",""assignmentId"":""c9874006-6b5e-4104-95dd-905cc6b77cdc"",""projectId"":""a0a8f18c-a66e-4ba7-a170-23efbdc67501""}","https://test12345.live/?participantId=94114D92C27E43B0A0E98A2D6FE9E0BB&assignmentId=c9874006-6b5e-4104-95dd-905cc6b77cdc&projectId=a0a8f18c-a66e-4ba7-a170-23efbdc67501","94114D92C27E43B0A0E98A2D6FE9E0BB-2024-11-24-19-05-08","","null","","images/schematic_sequence/flight_scheme/flight_scheme_6.png","null","",""
"","","","","","image-button-response","73","435725","0.0-12.0-1.0-1.5","94114D92C27E43B0A0E98A2D6FE9E0BB","94114D92C27E43B0A0E98A2D6FE9E0BB","c9874006-6b5e-4104-95dd-905cc6b77cdc","a0a8f18c-a66e-4ba7-a170-23efbdc67501","{""participantId"":""94114D92C27E43B0A0E98A2D6FE9E0BB"",""assignmentId"":""c9874006-6b5e-4104-95dd-905cc6b77cdc"",""projectId"":""a0a8f18c-a66e-4ba7-a170-23efbdc67501""}","https://test12345.live/?participantId=94114D92C27E43B0A0E98A2D6FE9E0BB&assignmentId=c9874006-6b5e-4104-95dd-905cc6b77cdc&projectId=a0a8f18c-a66e-4ba7-a170-23efbdc67501","94114D92C27E43B0A0E98A2D6FE9E0BB-2024-11-24-19-05-08","","1090","","images/schematic_sequence/flight_scheme/flight_scheme_6.png","0","",""
"","","","","","image-button-response","74","437540","0.0-12.0-1.0-2.5","94114D92C27E43B0A0E98A2D6FE9E0BB","94114D92C27E43B0A0E98A2D6FE9E0BB","c9874006-6b5e-4104-95dd-905cc6b77cdc","a0a8f18c-a66e-4ba7-a170-23efbdc67501","{""participantId"":""94114D92C27E43B0A0E98A2D6FE9E0BB"",""assignmentId"":""c9874006-6b5e-4104-95dd-905cc6b77cdc"",""projectId"":""a0a8f18c-a66e-4ba7-a170-23efbdc67501""}","https://test12345.live/?participantId=94114D92C27E43B0A0E98A2D6FE9E0BB&assignmentId=c9874006-6b5e-4104-95dd-905cc6b77cdc&projectId=a0a8f18c-a66e-4ba7-a170-23efbdc67501","94114D92C27E43B0A0E98A2D6FE9E0BB-2024-11-24-19-05-08","","null","","[]","null","",""
"","","","","","image-button-response","75","442762","0.0-12.0-1.0-0.6","94114D92C27E43B0A0E98A2D6FE9E0BB","94114D92C27E43B0A0E98A2D6FE9E0BB","c9874006-6b5e-4104-95dd-905cc6b77cdc","a0a8f18c-a66e-4ba7-a170-23efbdc67501","{""participantId"":""94114D92C27E43B0A0E98A2D6FE9E0BB"",""assignmentId"":""c9874006-6b5e-4104-95dd-905cc6b77cdc"",""projectId"":""a0a8f18c-a66e-4ba7-a170-23efbdc67501""}","https://test12345.live/?participantId=94114D92C27E43B0A0E98A2D6FE9E0BB&assignmentId=c9874006-6b5e-4104-95dd-905cc6b77cdc&projectId=a0a8f18c-a66e-4ba7-a170-23efbdc67501","94114D92C27E43B0A0E98A2D6FE9E0BB-2024-11-24-19-05-08","","null","","images/schematic_sequence/flight_scheme/flight_scheme_7.png","null","",""
"","","","","","image-button-response","76","447747","0.0-12.0-1.0-1.6","94114D92C27E43B0A0E98A2D6FE9E0BB","94114D92C27E43B0A0E98A2D6FE9E0BB","c9874006-6b5e-4104-95dd-905cc6b77cdc","a0a8f18c-a66e-4ba7-a170-23efbdc67501","{""participantId"":""94114D92C27E43B0A0E98A2D6FE9E0BB"",""assignmentId"":""c9874006-6b5e-4104-95dd-905cc6b77cdc"",""projectId"":""a0a8f18c-a66e-4ba7-a170-23efbdc67501""}","https://test12345.live/?participantId=94114D92C27E43B0A0E98A2D6FE9E0BB&assignmentId=c9874006-6b5e-4104-95dd-905cc6b77cdc&projectId=a0a8f18c-a66e-4ba7-a170-23efbdc67501","94114D92C27E43B0A0E98A2D6FE9E0BB-2024-11-24-19-05-08","","null","","images/schematic_sequence/flight_scheme/flight_scheme_7.png","null","",""
"","","","","","image-button-response","77","449747","0.0-12.0-1.0-2.6","94114D92C27E43B0A0E98A2D6FE9E0BB","94114D92C27E43B0A0E98A2D6FE9E0BB","c9874006-6b5e-4104-95dd-905cc6b77cdc","a0a8f18c-a66e-4ba7-a170-23efbdc67501","{""participantId"":""94114D92C27E43B0A0E98A2D6FE9E0BB"",""assignmentId"":""c9874006-6b5e-4104-95dd-905cc6b77cdc"",""projectId"":""a0a8f18c-a66e-4ba7-a170-23efbdc67501""}","https://test12345.live/?participantId=94114D92C27E43B0A0E98A2D6FE9E0BB&assignmentId=c9874006-6b5e-4104-95dd-905cc6b77cdc&projectId=a0a8f18c-a66e-4ba7-a170-23efbdc67501","94114D92C27E43B0A0E98A2D6FE9E0BB-2024-11-24-19-05-08","","null","","[]","null","",""
"","","","","","image-button-response","78","454746","0.0-12.0-1.0-0.7","94114D92C27E43B0A0E98A2D6FE9E0BB","94114D92C27E43B0A0E98A2D6FE9E0BB","c9874006-6b5e-4104-95dd-905cc6b77cdc","a0a8f18c-a66e-4ba7-a170-23efbdc67501","{""participantId"":""94114D92C27E43B0A0E98A2D6FE9E0BB"",""assignmentId"":""c9874006-6b5e-4104-95dd-905cc6b77cdc"",""projectId"":""a0a8f18c-a66e-4ba7-a170-23efbdc67501""}","https://test12345.live/?participantId=94114D92C27E43B0A0E98A2D6FE9E0BB&assignmentId=c9874006-6b5e-4104-95dd-905cc6b77cdc&projectId=a0a8f18c-a66e-4ba7-a170-23efbdc67501","94114D92C27E43B0A0E98A2D6FE9E0BB-2024-11-24-19-05-08","","null","","images/schematic_sequence/flight_scheme/flight_scheme_8.png","null","",""
"","","","","","image-button-response","79","458753","0.0-12.0-1.0-1.7","94114D92C27E43B0A0E98A2D6FE9E0BB","94114D92C27E43B0A0E98A2D6FE9E0BB","c9874006-6b5e-4104-95dd-905cc6b77cdc","a0a8f18c-a66e-4ba7-a170-23efbdc67501","{""participantId"":""94114D92C27E43B0A0E98A2D6FE9E0BB"",""assignmentId"":""c9874006-6b5e-4104-95dd-905cc6b77cdc"",""projectId"":""a0a8f18c-a66e-4ba7-a170-23efbdc67501""}","https://test12345.live/?participantId=94114D92C27E43B0A0E98A2D6FE9E0BB&assignmentId=c9874006-6b5e-4104-95dd-905cc6b77cdc&projectId=a0a8f18c-a66e-4ba7-a170-23efbdc67501","94114D92C27E43B0A0E98A2D6FE9E0BB-2024-11-24-19-05-08","","null","","images/schematic_sequence/flight_scheme/flight_scheme_8.png","null","",""
"","","","","","image-button-response","80","460570","0.0-12.0-1.0-2.7","94114D92C27E43B0A0E98A2D6FE9E0BB","94114D92C27E43B0A0E98A2D6FE9E0BB","c9874006-6b5e-4104-95dd-905cc6b77cdc","a0a8f18c-a66e-4ba7-a170-23efbdc67501","{""participantId"":""94114D92C27E43B0A0E98A2D6FE9E0BB"",""assignmentId"":""c9874006-6b5e-4104-95dd-905cc6b77cdc"",""projectId"":""a0a8f18c-a66e-4ba7-a170-23efbdc67501""}","https://test12345.live/?participantId=94114D92C27E43B0A0E98A2D6FE9E0BB&assignmentId=c9874006-6b5e-4104-95dd-905cc6b77cdc&projectId=a0a8f18c-a66e-4ba7-a170-23efbdc67501","94114D92C27E43B0A0E98A2D6FE9E0BB-2024-11-24-19-05-08","","null","","[]","null","",""
"","","","","","image-button-response","81","465073","0.0-12.0-1.0-0.8","94114D92C27E43B0A0E98A2D6FE9E0BB","94114D92C27E43B0A0E98A2D6FE9E0BB","c9874006-6b5e-4104-95dd-905cc6b77cdc","a0a8f18c-a66e-4ba7-a170-23efbdc67501","{""participantId"":""94114D92C27E43B0A0E98A2D6FE9E0BB"",""assignmentId"":""c9874006-6b5e-4104-95dd-905cc6b77cdc"",""projectId"":""a0a8f18c-a66e-4ba7-a170-23efbdc67501""}","https://test12345.live/?participantId=94114D92C27E43B0A0E98A2D6FE9E0BB&assignmentId=c9874006-6b5e-4104-95dd-905cc6b77cdc&projectId=a0a8f18c-a66e-4ba7-a170-23efbdc67501","94114D92C27E43B0A0E98A2D6FE9E0BB-2024-11-24-19-05-08","","null","","images/schematic_sequence/flight_scheme/flight_scheme_9.png","null","",""
"","","","","","image-button-response","82","467324","0.0-12.0-1.0-1.8","94114D92C27E43B0A0E98A2D6FE9E0BB","94114D92C27E43B0A0E98A2D6FE9E0BB","c9874006-6b5e-4104-95dd-905cc6b77cdc","a0a8f18c-a66e-4ba7-a170-23efbdc67501","{""participantId"":""94114D92C27E43B0A0E98A2D6FE9E0BB"",""assignmentId"":""c9874006-6b5e-4104-95dd-905cc6b77cdc"",""projectId"":""a0a8f18c-a66e-4ba7-a170-23efbdc67501""}","https://test12345.live/?participantId=94114D92C27E43B0A0E98A2D6FE9E0BB&assignmentId=c9874006-6b5e-4104-95dd-905cc6b77cdc&projectId=a0a8f18c-a66e-4ba7-a170-23efbdc67501","94114D92C27E43B0A0E98A2D6FE9E0BB-2024-11-24-19-05-08","","2247","","images/schematic_sequence/flight_scheme/flight_scheme_9.png","0","",""
"","","","","","image-button-response","83","469146","0.0-12.0-1.0-2.8","94114D92C27E43B0A0E98A2D6FE9E0BB","94114D92C27E43B0A0E98A2D6FE9E0BB","c9874006-6b5e-4104-95dd-905cc6b77cdc","a0a8f18c-a66e-4ba7-a170-23efbdc67501","{""participantId"":""94114D92C27E43B0A0E98A2D6FE9E0BB"",""assignmentId"":""c9874006-6b5e-4104-95dd-905cc6b77cdc"",""projectId"":""a0a8f18c-a66e-4ba7-a170-23efbdc67501""}","https://test12345.live/?participantId=94114D92C27E43B0A0E98A2D6FE9E0BB&assignmentId=c9874006-6b5e-4104-95dd-905cc6b77cdc&projectId=a0a8f18c-a66e-4ba7-a170-23efbdc67501","94114D92C27E43B0A0E98A2D6FE9E0BB-2024-11-24-19-05-08","","null","","[]","null","",""
"","","","","","image-button-response","84","473650","0.0-12.0-1.0-0.9","94114D92C27E43B0A0E98A2D6FE9E0BB","94114D92C27E43B0A0E98A2D6FE9E0BB","c9874006-6b5e-4104-95dd-905cc6b77cdc","a0a8f18c-a66e-4ba7-a170-23efbdc67501","{""participantId"":""94114D92C27E43B0A0E98A2D6FE9E0BB"",""assignmentId"":""c9874006-6b5e-4104-95dd-905cc6b77cdc"",""projectId"":""a0a8f18c-a66e-4ba7-a170-23efbdc67501""}","https://test12345.live/?participantId=94114D92C27E43B0A0E98A2D6FE9E0BB&assignmentId=c9874006-6b5e-4104-95dd-905cc6b77cdc&projectId=a0a8f18c-a66e-4ba7-a170-23efbdc67501","94114D92C27E43B0A0E98A2D6FE9E0BB-2024-11-24-19-05-08","","null","","images/schematic_sequence/flight_scheme/flight_scheme_ten.png","null","",""
"","","","","","image-button-response","85","475102","0.0-12.0-1.0-1.9","94114D92C27E43B0A0E98A2D6FE9E0BB","94114D92C27E43B0A0E98A2D6FE9E0BB","c9874006-6b5e-4104-95dd-905cc6b77cdc","a0a8f18c-a66e-4ba7-a170-23efbdc67501","{""participantId"":""94114D92C27E43B0A0E98A2D6FE9E0BB"",""assignmentId"":""c9874006-6b5e-4104-95dd-905cc6b77cdc"",""projectId"":""a0a8f18c-a66e-4ba7-a170-23efbdc67501""}","https://test12345.live/?participantId=94114D92C27E43B0A0E98A2D6FE9E0BB&assignmentId=c9874006-6b5e-4104-95dd-905cc6b77cdc&projectId=a0a8f18c-a66e-4ba7-a170-23efbdc67501","94114D92C27E43B0A0E98A2D6FE9E0BB-2024-11-24-19-05-08","","1451","","images/schematic_sequence/flight_scheme/flight_scheme_ten.png","0","",""
"","","","","","image-button-response","86","476907","0.0-12.0-1.0-2.9","94114D92C27E43B0A0E98A2D6FE9E0BB","94114D92C27E43B0A0E98A2D6FE9E0BB","c9874006-6b5e-4104-95dd-905cc6b77cdc","a0a8f18c-a66e-4ba7-a170-23efbdc67501","{""participantId"":""94114D92C27E43B0A0E98A2D6FE9E0BB"",""assignmentId"":""c9874006-6b5e-4104-95dd-905cc6b77cdc"",""projectId"":""a0a8f18c-a66e-4ba7-a170-23efbdc67501""}","https://test12345.live/?participantId=94114D92C27E43B0A0E98A2D6FE9E0BB&assignmentId=c9874006-6b5e-4104-95dd-905cc6b77cdc&projectId=a0a8f18c-a66e-4ba7-a170-23efbdc67501","94114D92C27E43B0A0E98A2D6FE9E0BB-2024-11-24-19-05-08","","null","","[]","null","",""
"","","","","","html-audio-response","87","487838","0.0-13.0","94114D92C27E43B0A0E98A2D6FE9E0BB","94114D92C27E43B0A0E98A2D6FE9E0BB","c9874006-6b5e-4104-95dd-905cc6b77cdc","a0a8f18c-a66e-4ba7-a170-23efbdc67501","{""participantId"":""94114D92C27E43B0A0E98A2D6FE9E0BB"",""assignmentId"":""c9874006-6b5e-4104-95dd-905cc6b77cdc"",""projectId"":""a0a8f18c-a66e-4ba7-a170-23efbdc67501""}","https://test12345.live/?participantId=94114D92C27E43B0A0E98A2D6FE9E0BB&assignmentId=c9874006-6b5e-4104-95dd-905cc6b77cdc&projectId=a0a8f18c-a66e-4ba7-a170-23efbdc67501","94114D92C27E43B0A0E98A2D6FE9E0BB-2024-11-24-19-05-08","","9924","","[""<span style=\""color: red; font-size: 24px\""> NOW RECORDING</span><p>Please say out loud all the images you saw, as many as you can remember. The images can be said in any order.</p>""]","","1","flight_scheme"
"","","","","","image-button-response","88","493856","0.0-14.0-0.0","94114D92C27E43B0A0E98A2D6FE9E0BB","94114D92C27E43B0A0E98A2D6FE9E0BB","c9874006-6b5e-4104-95dd-905cc6b77cdc","a0a8f18c-a66e-4ba7-a170-23efbdc67501","{""participantId"":""94114D92C27E43B0A0E98A2D6FE9E0BB"",""assignmentId"":""c9874006-6b5e-4104-95dd-905cc6b77cdc"",""projectId"":""a0a8f18c-a66e-4ba7-a170-23efbdc67501""}","https://test12345.live/?participantId=94114D92C27E43B0A0E98A2D6FE9E0BB&assignmentId=c9874006-6b5e-4104-95dd-905cc6b77cdc&projectId=a0a8f18c-a66e-4ba7-a170-23efbdc67501","94114D92C27E43B0A0E98A2D6FE9E0BB-2024-11-24-19-05-08","","null","","images/causal_sequence/museum_causal/museum_causal_0.png","null","",""
"","","","","","image-button-response","89","498376","0.0-14.0-1.0-0.0","94114D92C27E43B0A0E98A2D6FE9E0BB","94114D92C27E43B0A0E98A2D6FE9E0BB","c9874006-6b5e-4104-95dd-905cc6b77cdc","a0a8f18c-a66e-4ba7-a170-23efbdc67501","{""participantId"":""94114D92C27E43B0A0E98A2D6FE9E0BB"",""assignmentId"":""c9874006-6b5e-4104-95dd-905cc6b77cdc"",""projectId"":""a0a8f18c-a66e-4ba7-a170-23efbdc67501""}","https://test12345.live/?participantId=94114D92C27E43B0A0E98A2D6FE9E0BB&assignmentId=c9874006-6b5e-4104-95dd-905cc6b77cdc&projectId=a0a8f18c-a66e-4ba7-a170-23efbdc67501","94114D92C27E43B0A0E98A2D6FE9E0BB-2024-11-24-19-05-08","","null","","images/causal_sequence/museum_causal/museum_causal_1.png","null","",""
"","","","","","image-button-response","90","499748","0.0-14.0-1.0-1.0","94114D92C27E43B0A0E98A2D6FE9E0BB","94114D92C27E43B0A0E98A2D6FE9E0BB","c9874006-6b5e-4104-95dd-905cc6b77cdc","a0a8f18c-a66e-4ba7-a170-23efbdc67501","{""participantId"":""94114D92C27E43B0A0E98A2D6FE9E0BB"",""assignmentId"":""c9874006-6b5e-4104-95dd-905cc6b77cdc"",""projectId"":""a0a8f18c-a66e-4ba7-a170-23efbdc67501""}","https://test12345.live/?participantId=94114D92C27E43B0A0E98A2D6FE9E0BB&assignmentId=c9874006-6b5e-4104-95dd-905cc6b77cdc&projectId=a0a8f18c-a66e-4ba7-a170-23efbdc67501","94114D92C27E43B0A0E98A2D6FE9E0BB-2024-11-24-19-05-08","","1371","","images/causal_sequence/museum_causal/museum_causal_1.png","0","",""
"","","","","","image-button-response","91","501566","0.0-14.0-1.0-2.0","94114D92C27E43B0A0E98A2D6FE9E0BB","94114D92C27E43B0A0E98A2D6FE9E0BB","c9874006-6b5e-4104-95dd-905cc6b77cdc","a0a8f18c-a66e-4ba7-a170-23efbdc67501","{""participantId"":""94114D92C27E43B0A0E98A2D6FE9E0BB"",""assignmentId"":""c9874006-6b5e-4104-95dd-905cc6b77cdc"",""projectId"":""a0a8f18c-a66e-4ba7-a170-23efbdc67501""}","https://test12345.live/?participantId=94114D92C27E43B0A0E98A2D6FE9E0BB&assignmentId=c9874006-6b5e-4104-95dd-905cc6b77cdc&projectId=a0a8f18c-a66e-4ba7-a170-23efbdc67501","94114D92C27E43B0A0E98A2D6FE9E0BB-2024-11-24-19-05-08","","null","","[]","null","",""
"","","","","","image-button-response","92","506086","0.0-14.0-1.0-0.1","94114D92C27E43B0A0E98A2D6FE9E0BB","94114D92C27E43B0A0E98A2D6FE9E0BB","c9874006-6b5e-4104-95dd-905cc6b77cdc","a0a8f18c-a66e-4ba7-a170-23efbdc67501","{""participantId"":""94114D92C27E43B0A0E98A2D6FE9E0BB"",""assignmentId"":""c9874006-6b5e-4104-95dd-905cc6b77cdc"",""projectId"":""a0a8f18c-a66e-4ba7-a170-23efbdc67501""}","https://test12345.live/?participantId=94114D92C27E43B0A0E98A2D6FE9E0BB&assignmentId=c9874006-6b5e-4104-95dd-905cc6b77cdc&projectId=a0a8f18c-a66e-4ba7-a170-23efbdc67501","94114D92C27E43B0A0E98A2D6FE9E0BB-2024-11-24-19-05-08","","null","","images/causal_sequence/museum_causal/museum_causal_2.png","null","",""
"","","","","","image-button-response","93","509523","0.0-14.0-1.0-1.1","94114D92C27E43B0A0E98A2D6FE9E0BB","94114D92C27E43B0A0E98A2D6FE9E0BB","c9874006-6b5e-4104-95dd-905cc6b77cdc","a0a8f18c-a66e-4ba7-a170-23efbdc67501","{""participantId"":""94114D92C27E43B0A0E98A2D6FE9E0BB"",""assignmentId"":""c9874006-6b5e-4104-95dd-905cc6b77cdc"",""projectId"":""a0a8f18c-a66e-4ba7-a170-23efbdc67501""}","https://test12345.live/?participantId=94114D92C27E43B0A0E98A2D6FE9E0BB&assignmentId=c9874006-6b5e-4104-95dd-905cc6b77cdc&projectId=a0a8f18c-a66e-4ba7-a170-23efbdc67501","94114D92C27E43B0A0E98A2D6FE9E0BB-2024-11-24-19-05-08","","3435","","images/causal_sequence/museum_causal/museum_causal_2.png","0","",""
"","","","","","image-button-response","94","511326","0.0-14.0-1.0-2.1","94114D92C27E43B0A0E98A2D6FE9E0BB","94114D92C27E43B0A0E98A2D6FE9E0BB","c9874006-6b5e-4104-95dd-905cc6b77cdc","a0a8f18c-a66e-4ba7-a170-23efbdc67501","{""participantId"":""94114D92C27E43B0A0E98A2D6FE9E0BB"",""assignmentId"":""c9874006-6b5e-4104-95dd-905cc6b77cdc"",""projectId"":""a0a8f18c-a66e-4ba7-a170-23efbdc67501""}","https://test12345.live/?participantId=94114D92C27E43B0A0E98A2D6FE9E0BB&assignmentId=c9874006-6b5e-4104-95dd-905cc6b77cdc&projectId=a0a8f18c-a66e-4ba7-a170-23efbdc67501","94114D92C27E43B0A0E98A2D6FE9E0BB-2024-11-24-19-05-08","","null","","[]","null","",""
"","","","","","image-button-response","95","515836","0.0-14.0-1.0-0.2","94114D92C27E43B0A0E98A2D6FE9E0BB","94114D92C27E43B0A0E98A2D6FE9E0BB","c9874006-6b5e-4104-95dd-905cc6b77cdc","a0a8f18c-a66e-4ba7-a170-23efbdc67501","{""participantId"":""94114D92C27E43B0A0E98A2D6FE9E0BB"",""assignmentId"":""c9874006-6b5e-4104-95dd-905cc6b77cdc"",""projectId"":""a0a8f18c-a66e-4ba7-a170-23efbdc67501""}","https://test12345.live/?participantId=94114D92C27E43B0A0E98A2D6FE9E0BB&assignmentId=c9874006-6b5e-4104-95dd-905cc6b77cdc&projectId=a0a8f18c-a66e-4ba7-a170-23efbdc67501","94114D92C27E43B0A0E98A2D6FE9E0BB-2024-11-24-19-05-08","","null","","images/causal_sequence/museum_causal/museum_causal_3.png","null","",""
"","","","","","image-button-response","96","516954","0.0-14.0-1.0-1.2","94114D92C27E43B0A0E98A2D6FE9E0BB","94114D92C27E43B0A0E98A2D6FE9E0BB","c9874006-6b5e-4104-95dd-905cc6b77cdc","a0a8f18c-a66e-4ba7-a170-23efbdc67501","{""participantId"":""94114D92C27E43B0A0E98A2D6FE9E0BB"",""assignmentId"":""c9874006-6b5e-4104-95dd-905cc6b77cdc"",""projectId"":""a0a8f18c-a66e-4ba7-a170-23efbdc67501""}","https://test12345.live/?participantId=94114D92C27E43B0A0E98A2D6FE9E0BB&assignmentId=c9874006-6b5e-4104-95dd-905cc6b77cdc&projectId=a0a8f18c-a66e-4ba7-a170-23efbdc67501","94114D92C27E43B0A0E98A2D6FE9E0BB-2024-11-24-19-05-08","","1117","","images/causal_sequence/museum_causal/museum_causal_3.png","0","",""
"","","","","","image-button-response","97","518776","0.0-14.0-1.0-2.2","94114D92C27E43B0A0E98A2D6FE9E0BB","94114D92C27E43B0A0E98A2D6FE9E0BB","c9874006-6b5e-4104-95dd-905cc6b77cdc","a0a8f18c-a66e-4ba7-a170-23efbdc67501","{""participantId"":""94114D92C27E43B0A0E98A2D6FE9E0BB"",""assignmentId"":""c9874006-6b5e-4104-95dd-905cc6b77cdc"",""projectId"":""a0a8f18c-a66e-4ba7-a170-23efbdc67501""}","https://test12345.live/?participantId=94114D92C27E43B0A0E98A2D6FE9E0BB&assignmentId=c9874006-6b5e-4104-95dd-905cc6b77cdc&projectId=a0a8f18c-a66e-4ba7-a170-23efbdc67501","94114D92C27E43B0A0E98A2D6FE9E0BB-2024-11-24-19-05-08","","null","","[]","null","",""
"","","","","","image-button-response","98","523286","0.0-14.0-1.0-0.3","94114D92C27E43B0A0E98A2D6FE9E0BB","94114D92C27E43B0A0E98A2D6FE9E0BB","c9874006-6b5e-4104-95dd-905cc6b77cdc","a0a8f18c-a66e-4ba7-a170-23efbdc67501","{""participantId"":""94114D92C27E43B0A0E98A2D6FE9E0BB"",""assignmentId"":""c9874006-6b5e-4104-95dd-905cc6b77cdc"",""projectId"":""a0a8f18c-a66e-4ba7-a170-23efbdc67501""}","https://test12345.live/?participantId=94114D92C27E43B0A0E98A2D6FE9E0BB&assignmentId=c9874006-6b5e-4104-95dd-905cc6b77cdc&projectId=a0a8f18c-a66e-4ba7-a170-23efbdc67501","94114D92C27E43B0A0E98A2D6FE9E0BB-2024-11-24-19-05-08","","null","","images/causal_sequence/museum_causal/museum_causal_4.png","null","",""
"","","","","","image-button-response","99","523950","0.0-14.0-1.0-1.3","94114D92C27E43B0A0E98A2D6FE9E0BB","94114D92C27E43B0A0E98A2D6FE9E0BB","c9874006-6b5e-4104-95dd-905cc6b77cdc","a0a8f18c-a66e-4ba7-a170-23efbdc67501","{""participantId"":""94114D92C27E43B0A0E98A2D6FE9E0BB"",""assignmentId"":""c9874006-6b5e-4104-95dd-905cc6b77cdc"",""projectId"":""a0a8f18c-a66e-4ba7-a170-23efbdc67501""}","https://test12345.live/?participantId=94114D92C27E43B0A0E98A2D6FE9E0BB&assignmentId=c9874006-6b5e-4104-95dd-905cc6b77cdc&projectId=a0a8f18c-a66e-4ba7-a170-23efbdc67501","94114D92C27E43B0A0E98A2D6FE9E0BB-2024-11-24-19-05-08","","655","","images/causal_sequence/museum_causal/museum_causal_4.png","1","",""
"","","","","","image-button-response","100","525766","0.0-14.0-1.0-2.3","94114D92C27E43B0A0E98A2D6FE9E0BB","94114D92C27E43B0A0E98A2D6FE9E0BB","c9874006-6b5e-4104-95dd-905cc6b77cdc","a0a8f18c-a66e-4ba7-a170-23efbdc67501","{""participantId"":""94114D92C27E43B0A0E98A2D6FE9E0BB"",""assignmentId"":""c9874006-6b5e-4104-95dd-905cc6b77cdc"",""projectId"":""a0a8f18c-a66e-4ba7-a170-23efbdc67501""}","https://test12345.live/?participantId=94114D92C27E43B0A0E98A2D6FE9E0BB&assignmentId=c9874006-6b5e-4104-95dd-905cc6b77cdc&projectId=a0a8f18c-a66e-4ba7-a170-23efbdc67501","94114D92C27E43B0A0E98A2D6FE9E0BB-2024-11-24-19-05-08","","null","","[]","null","",""
"","","","","","image-button-response","101","530286","0.0-14.0-1.0-0.4","94114D92C27E43B0A0E98A2D6FE9E0BB","94114D92C27E43B0A0E98A2D6FE9E0BB","c9874006-6b5e-4104-95dd-905cc6b77cdc","a0a8f18c-a66e-4ba7-a170-23efbdc67501","{""participantId"":""94114D92C27E43B0A0E98A2D6FE9E0BB"",""assignmentId"":""c9874006-6b5e-4104-95dd-905cc6b77cdc"",""projectId"":""a0a8f18c-a66e-4ba7-a170-23efbdc67501""}","https://test12345.live/?participantId=94114D92C27E43B0A0E98A2D6FE9E0BB&assignmentId=c9874006-6b5e-4104-95dd-905cc6b77cdc&projectId=a0a8f18c-a66e-4ba7-a170-23efbdc67501","94114D92C27E43B0A0E98A2D6FE9E0BB-2024-11-24-19-05-08","","null","","images/causal_sequence/museum_causal/museum_causal_5.png","null","",""
"","","","","","image-button-response","102","531580","0.0-14.0-1.0-1.4","94114D92C27E43B0A0E98A2D6FE9E0BB","94114D92C27E43B0A0E98A2D6FE9E0BB","c9874006-6b5e-4104-95dd-905cc6b77cdc","a0a8f18c-a66e-4ba7-a170-23efbdc67501","{""participantId"":""94114D92C27E43B0A0E98A2D6FE9E0BB"",""assignmentId"":""c9874006-6b5e-4104-95dd-905cc6b77cdc"",""projectId"":""a0a8f18c-a66e-4ba7-a170-23efbdc67501""}","https://test12345.live/?participantId=94114D92C27E43B0A0E98A2D6FE9E0BB&assignmentId=c9874006-6b5e-4104-95dd-905cc6b77cdc&projectId=a0a8f18c-a66e-4ba7-a170-23efbdc67501","94114D92C27E43B0A0E98A2D6FE9E0BB-2024-11-24-19-05-08","","1292","","images/causal_sequence/museum_causal/museum_causal_5.png","0","",""
"","","","","","image-button-response","103","533385","0.0-14.0-1.0-2.4","94114D92C27E43B0A0E98A2D6FE9E0BB","94114D92C27E43B0A0E98A2D6FE9E0BB","c9874006-6b5e-4104-95dd-905cc6b77cdc","a0a8f18c-a66e-4ba7-a170-23efbdc67501","{""participantId"":""94114D92C27E43B0A0E98A2D6FE9E0BB"",""assignmentId"":""c9874006-6b5e-4104-95dd-905cc6b77cdc"",""projectId"":""a0a8f18c-a66e-4ba7-a170-23efbdc67501""}","https://test12345.live/?participantId=94114D92C27E43B0A0E98A2D6FE9E0BB&assignmentId=c9874006-6b5e-4104-95dd-905cc6b77cdc&projectId=a0a8f18c-a66e-4ba7-a170-23efbdc67501","94114D92C27E43B0A0E98A2D6FE9E0BB-2024-11-24-19-05-08","","null","","[]","null","",""
"","","","","","image-button-response","104","537905","0.0-14.0-1.0-0.5","94114D92C27E43B0A0E98A2D6FE9E0BB","94114D92C27E43B0A0E98A2D6FE9E0BB","c9874006-6b5e-4104-95dd-905cc6b77cdc","a0a8f18c-a66e-4ba7-a170-23efbdc67501","{""participantId"":""94114D92C27E43B0A0E98A2D6FE9E0BB"",""assignmentId"":""c9874006-6b5e-4104-95dd-905cc6b77cdc"",""projectId"":""a0a8f18c-a66e-4ba7-a170-23efbdc67501""}","https://test12345.live/?participantId=94114D92C27E43B0A0E98A2D6FE9E0BB&assignmentId=c9874006-6b5e-4104-95dd-905cc6b77cdc&projectId=a0a8f18c-a66e-4ba7-a170-23efbdc67501","94114D92C27E43B0A0E98A2D6FE9E0BB-2024-11-24-19-05-08","","null","","images/causal_sequence/museum_causal/museum_causal_6.png","null","",""
"","","","","","image-button-response","105","538633","0.0-14.0-1.0-1.5","94114D92C27E43B0A0E98A2D6FE9E0BB","94114D92C27E43B0A0E98A2D6FE9E0BB","c9874006-6b5e-4104-95dd-905cc6b77cdc","a0a8f18c-a66e-4ba7-a170-23efbdc67501","{""participantId"":""94114D92C27E43B0A0E98A2D6FE9E0BB"",""assignmentId"":""c9874006-6b5e-4104-95dd-905cc6b77cdc"",""projectId"":""a0a8f18c-a66e-4ba7-a170-23efbdc67501""}","https://test12345.live/?participantId=94114D92C27E43B0A0E98A2D6FE9E0BB&assignmentId=c9874006-6b5e-4104-95dd-905cc6b77cdc&projectId=a0a8f18c-a66e-4ba7-a170-23efbdc67501","94114D92C27E43B0A0E98A2D6FE9E0BB-2024-11-24-19-05-08","","727","","images/causal_sequence/museum_causal/museum_causal_6.png","0","",""
"","","","","","image-button-response","106","540441","0.0-14.0-1.0-2.5","94114D92C27E43B0A0E98A2D6FE9E0BB","94114D92C27E43B0A0E98A2D6FE9E0BB","c9874006-6b5e-4104-95dd-905cc6b77cdc","a0a8f18c-a66e-4ba7-a170-23efbdc67501","{""participantId"":""94114D92C27E43B0A0E98A2D6FE9E0BB"",""assignmentId"":""c9874006-6b5e-4104-95dd-905cc6b77cdc"",""projectId"":""a0a8f18c-a66e-4ba7-a170-23efbdc67501""}","https://test12345.live/?participantId=94114D92C27E43B0A0E98A2D6FE9E0BB&assignmentId=c9874006-6b5e-4104-95dd-905cc6b77cdc&projectId=a0a8f18c-a66e-4ba7-a170-23efbdc67501","94114D92C27E43B0A0E98A2D6FE9E0BB-2024-11-24-19-05-08","","null","","[]","null","",""
"","","","","","image-button-response","107","544955","0.0-14.0-1.0-0.6","94114D92C27E43B0A0E98A2D6FE9E0BB","94114D92C27E43B0A0E98A2D6FE9E0BB","c9874006-6b5e-4104-95dd-905cc6b77cdc","a0a8f18c-a66e-4ba7-a170-23efbdc67501","{""participantId"":""94114D92C27E43B0A0E98A2D6FE9E0BB"",""assignmentId"":""c9874006-6b5e-4104-95dd-905cc6b77cdc"",""projectId"":""a0a8f18c-a66e-4ba7-a170-23efbdc67501""}","https://test12345.live/?participantId=94114D92C27E43B0A0E98A2D6FE9E0BB&assignmentId=c9874006-6b5e-4104-95dd-905cc6b77cdc&projectId=a0a8f18c-a66e-4ba7-a170-23efbdc67501","94114D92C27E43B0A0E98A2D6FE9E0BB-2024-11-24-19-05-08","","null","","images/causal_sequence/museum_causal/museum_causal_7.png","null","",""
"","","","","","image-button-response","108","545985","0.0-14.0-1.0-1.6","94114D92C27E43B0A0E98A2D6FE9E0BB","94114D92C27E43B0A0E98A2D6FE9E0BB","c9874006-6b5e-4104-95dd-905cc6b77cdc","a0a8f18c-a66e-4ba7-a170-23efbdc67501","{""participantId"":""94114D92C27E43B0A0E98A2D6FE9E0BB"",""assignmentId"":""c9874006-6b5e-4104-95dd-905cc6b77cdc"",""projectId"":""a0a8f18c-a66e-4ba7-a170-23efbdc67501""}","https://test12345.live/?participantId=94114D92C27E43B0A0E98A2D6FE9E0BB&assignmentId=c9874006-6b5e-4104-95dd-905cc6b77cdc&projectId=a0a8f18c-a66e-4ba7-a170-23efbdc67501","94114D92C27E43B0A0E98A2D6FE9E0BB-2024-11-24-19-05-08","","1028","","images/causal_sequence/museum_causal/museum_causal_7.png","1","",""
"","","","","","image-button-response","109","547805","0.0-14.0-1.0-2.6","94114D92C27E43B0A0E98A2D6FE9E0BB","94114D92C27E43B0A0E98A2D6FE9E0BB","c9874006-6b5e-4104-95dd-905cc6b77cdc","a0a8f18c-a66e-4ba7-a170-23efbdc67501","{""participantId"":""94114D92C27E43B0A0E98A2D6FE9E0BB"",""assignmentId"":""c9874006-6b5e-4104-95dd-905cc6b77cdc"",""projectId"":""a0a8f18c-a66e-4ba7-a170-23efbdc67501""}","https://test12345.live/?participantId=94114D92C27E43B0A0E98A2D6FE9E0BB&assignmentId=c9874006-6b5e-4104-95dd-905cc6b77cdc&projectId=a0a8f18c-a66e-4ba7-a170-23efbdc67501","94114D92C27E43B0A0E98A2D6FE9E0BB-2024-11-24-19-05-08","","null","","[]","null","",""
"","","","","","image-button-response","110","552314","0.0-14.0-1.0-0.7","94114D92C27E43B0A0E98A2D6FE9E0BB","94114D92C27E43B0A0E98A2D6FE9E0BB","c9874006-6b5e-4104-95dd-905cc6b77cdc","a0a8f18c-a66e-4ba7-a170-23efbdc67501","{""participantId"":""94114D92C27E43B0A0E98A2D6FE9E0BB"",""assignmentId"":""c9874006-6b5e-4104-95dd-905cc6b77cdc"",""projectId"":""a0a8f18c-a66e-4ba7-a170-23efbdc67501""}","https://test12345.live/?participantId=94114D92C27E43B0A0E98A2D6FE9E0BB&assignmentId=c9874006-6b5e-4104-95dd-905cc6b77cdc&projectId=a0a8f18c-a66e-4ba7-a170-23efbdc67501","94114D92C27E43B0A0E98A2D6FE9E0BB-2024-11-24-19-05-08","","null","","images/causal_sequence/museum_causal/museum_causal_8.png","null","",""
"","","","","","image-button-response","111","556322","0.0-14.0-1.0-1.7","94114D92C27E43B0A0E98A2D6FE9E0BB","94114D92C27E43B0A0E98A2D6FE9E0BB","c9874006-6b5e-4104-95dd-905cc6b77cdc","a0a8f18c-a66e-4ba7-a170-23efbdc67501","{""participantId"":""94114D92C27E43B0A0E98A2D6FE9E0BB"",""assignmentId"":""c9874006-6b5e-4104-95dd-905cc6b77cdc"",""projectId"":""a0a8f18c-a66e-4ba7-a170-23efbdc67501""}","https://test12345.live/?participantId=94114D92C27E43B0A0E98A2D6FE9E0BB&assignmentId=c9874006-6b5e-4104-95dd-905cc6b77cdc&projectId=a0a8f18c-a66e-4ba7-a170-23efbdc67501","94114D92C27E43B0A0E98A2D6FE9E0BB-2024-11-24-19-05-08","","null","","images/causal_sequence/museum_causal/museum_causal_8.png","null","",""
"","","","","","image-button-response","112","558126","0.0-14.0-1.0-2.7","94114D92C27E43B0A0E98A2D6FE9E0BB","94114D92C27E43B0A0E98A2D6FE9E0BB","c9874006-6b5e-4104-95dd-905cc6b77cdc","a0a8f18c-a66e-4ba7-a170-23efbdc67501","{""participantId"":""94114D92C27E43B0A0E98A2D6FE9E0BB"",""assignmentId"":""c9874006-6b5e-4104-95dd-905cc6b77cdc"",""projectId"":""a0a8f18c-a66e-4ba7-a170-23efbdc67501""}","https://test12345.live/?participantId=94114D92C27E43B0A0E98A2D6FE9E0BB&assignmentId=c9874006-6b5e-4104-95dd-905cc6b77cdc&projectId=a0a8f18c-a66e-4ba7-a170-23efbdc67501","94114D92C27E43B0A0E98A2D6FE9E0BB-2024-11-24-19-05-08","","null","","[]","null","",""
"","","","","","image-button-response","113","562639","0.0-14.0-1.0-0.8","94114D92C27E43B0A0E98A2D6FE9E0BB","94114D92C27E43B0A0E98A2D6FE9E0BB","c9874006-6b5e-4104-95dd-905cc6b77cdc","a0a8f18c-a66e-4ba7-a170-23efbdc67501","{""participantId"":""94114D92C27E43B0A0E98A2D6FE9E0BB"",""assignmentId"":""c9874006-6b5e-4104-95dd-905cc6b77cdc"",""projectId"":""a0a8f18c-a66e-4ba7-a170-23efbdc67501""}","https://test12345.live/?participantId=94114D92C27E43B0A0E98A2D6FE9E0BB&assignmentId=c9874006-6b5e-4104-95dd-905cc6b77cdc&projectId=a0a8f18c-a66e-4ba7-a170-23efbdc67501","94114D92C27E43B0A0E98A2D6FE9E0BB-2024-11-24-19-05-08","","null","","images/causal_sequence/museum_causal/museum_causal_9.png","null","",""
"","","","","","image-button-response","114","564173","0.0-14.0-1.0-1.8","94114D92C27E43B0A0E98A2D6FE9E0BB","94114D92C27E43B0A0E98A2D6FE9E0BB","c9874006-6b5e-4104-95dd-905cc6b77cdc","a0a8f18c-a66e-4ba7-a170-23efbdc67501","{""participantId"":""94114D92C27E43B0A0E98A2D6FE9E0BB"",""assignmentId"":""c9874006-6b5e-4104-95dd-905cc6b77cdc"",""projectId"":""a0a8f18c-a66e-4ba7-a170-23efbdc67501""}","https://test12345.live/?participantId=94114D92C27E43B0A0E98A2D6FE9E0BB&assignmentId=c9874006-6b5e-4104-95dd-905cc6b77cdc&projectId=a0a8f18c-a66e-4ba7-a170-23efbdc67501","94114D92C27E43B0A0E98A2D6FE9E0BB-2024-11-24-19-05-08","","1533","","images/causal_sequence/museum_causal/museum_causal_9.png","1","",""
"","","","","","image-button-response","115","565975","0.0-14.0-1.0-2.8","94114D92C27E43B0A0E98A2D6FE9E0BB","94114D92C27E43B0A0E98A2D6FE9E0BB","c9874006-6b5e-4104-95dd-905cc6b77cdc","a0a8f18c-a66e-4ba7-a170-23efbdc67501","{""participantId"":""94114D92C27E43B0A0E98A2D6FE9E0BB"",""assignmentId"":""c9874006-6b5e-4104-95dd-905cc6b77cdc"",""projectId"":""a0a8f18c-a66e-4ba7-a170-23efbdc67501""}","https://test12345.live/?participantId=94114D92C27E43B0A0E98A2D6FE9E0BB&assignmentId=c9874006-6b5e-4104-95dd-905cc6b77cdc&projectId=a0a8f18c-a66e-4ba7-a170-23efbdc67501","94114D92C27E43B0A0E98A2D6FE9E0BB-2024-11-24-19-05-08","","null","","[]","null","",""
"","","","","","image-button-response","116","570496","0.0-14.0-1.0-0.9","94114D92C27E43B0A0E98A2D6FE9E0BB","94114D92C27E43B0A0E98A2D6FE9E0BB","c9874006-6b5e-4104-95dd-905cc6b77cdc","a0a8f18c-a66e-4ba7-a170-23efbdc67501","{""participantId"":""94114D92C27E43B0A0E98A2D6FE9E0BB"",""assignmentId"":""c9874006-6b5e-4104-95dd-905cc6b77cdc"",""projectId"":""a0a8f18c-a66e-4ba7-a170-23efbdc67501""}","https://test12345.live/?participantId=94114D92C27E43B0A0E98A2D6FE9E0BB&assignmentId=c9874006-6b5e-4104-95dd-905cc6b77cdc&projectId=a0a8f18c-a66e-4ba7-a170-23efbdc67501","94114D92C27E43B0A0E98A2D6FE9E0BB-2024-11-24-19-05-08","","null","","images/causal_sequence/museum_causal/museum_causal_ten.png","null","",""
"","","","","","image-button-response","117","571739","0.0-14.0-1.0-1.9","94114D92C27E43B0A0E98A2D6FE9E0BB","94114D92C27E43B0A0E98A2D6FE9E0BB","c9874006-6b5e-4104-95dd-905cc6b77cdc","a0a8f18c-a66e-4ba7-a170-23efbdc67501","{""participantId"":""94114D92C27E43B0A0E98A2D6FE9E0BB"",""assignmentId"":""c9874006-6b5e-4104-95dd-905cc6b77cdc"",""projectId"":""a0a8f18c-a66e-4ba7-a170-23efbdc67501""}","https://test12345.live/?participantId=94114D92C27E43B0A0E98A2D6FE9E0BB&assignmentId=c9874006-6b5e-4104-95dd-905cc6b77cdc&projectId=a0a8f18c-a66e-4ba7-a170-23efbdc67501","94114D92C27E43B0A0E98A2D6FE9E0BB-2024-11-24-19-05-08","","1239","","images/causal_sequence/museum_causal/museum_causal_ten.png","0","",""
"","","","","","image-button-response","118","573555","0.0-14.0-1.0-2.9","94114D92C27E43B0A0E98A2D6FE9E0BB","94114D92C27E43B0A0E98A2D6FE9E0BB","c9874006-6b5e-4104-95dd-905cc6b77cdc","a0a8f18c-a66e-4ba7-a170-23efbdc67501","{""participantId"":""94114D92C27E43B0A0E98A2D6FE9E0BB"",""assignmentId"":""c9874006-6b5e-4104-95dd-905cc6b77cdc"",""projectId"":""a0a8f18c-a66e-4ba7-a170-23efbdc67501""}","https://test12345.live/?participantId=94114D92C27E43B0A0E98A2D6FE9E0BB&assignmentId=c9874006-6b5e-4104-95dd-905cc6b77cdc&projectId=a0a8f18c-a66e-4ba7-a170-23efbdc67501","94114D92C27E43B0A0E98A2D6FE9E0BB-2024-11-24-19-05-08","","null","","[]","null","",""
"","","","","","html-audio-response","119","602624","0.0-15.0","94114D92C27E43B0A0E98A2D6FE9E0BB","94114D92C27E43B0A0E98A2D6FE9E0BB","c9874006-6b5e-4104-95dd-905cc6b77cdc","a0a8f18c-a66e-4ba7-a170-23efbdc67501","{""participantId"":""94114D92C27E43B0A0E98A2D6FE9E0BB"",""assignmentId"":""c9874006-6b5e-4104-95dd-905cc6b77cdc"",""projectId"":""a0a8f18c-a66e-4ba7-a170-23efbdc67501""}","https://test12345.live/?participantId=94114D92C27E43B0A0E98A2D6FE9E0BB&assignmentId=c9874006-6b5e-4104-95dd-905cc6b77cdc&projectId=a0a8f18c-a66e-4ba7-a170-23efbdc67501","94114D92C27E43B0A0E98A2D6FE9E0BB-2024-11-24-19-05-08","","24431","","[""<span style=\""color: red; font-size: 24px\""> NOW RECORDING</span><p>Please say out loud all the images you saw, as many as you can remember. The images can be said in any order.</p>""]","","1","museum_causal"
"","","","","","image-button-response","120","608636","0.0-16.0-0.0","94114D92C27E43B0A0E98A2D6FE9E0BB","94114D92C27E43B0A0E98A2D6FE9E0BB","c9874006-6b5e-4104-95dd-905cc6b77cdc","a0a8f18c-a66e-4ba7-a170-23efbdc67501","{""participantId"":""94114D92C27E43B0A0E98A2D6FE9E0BB"",""assignmentId"":""c9874006-6b5e-4104-95dd-905cc6b77cdc"",""projectId"":""a0a8f18c-a66e-4ba7-a170-23efbdc67501""}","https://test12345.live/?participantId=94114D92C27E43B0A0E98A2D6FE9E0BB&assignmentId=c9874006-6b5e-4104-95dd-905cc6b77cdc&projectId=a0a8f18c-a66e-4ba7-a170-23efbdc67501","94114D92C27E43B0A0E98A2D6FE9E0BB-2024-11-24-19-05-08","","null","","images/causal_sequence/saving_a_cat_causal/saving_a_cat_causal_0.png","null","",""
"","","","","","image-button-response","121","613139","0.0-16.0-1.0-0.0","94114D92C27E43B0A0E98A2D6FE9E0BB","94114D92C27E43B0A0E98A2D6FE9E0BB","c9874006-6b5e-4104-95dd-905cc6b77cdc","a0a8f18c-a66e-4ba7-a170-23efbdc67501","{""participantId"":""94114D92C27E43B0A0E98A2D6FE9E0BB"",""assignmentId"":""c9874006-6b5e-4104-95dd-905cc6b77cdc"",""projectId"":""a0a8f18c-a66e-4ba7-a170-23efbdc67501""}","https://test12345.live/?participantId=94114D92C27E43B0A0E98A2D6FE9E0BB&assignmentId=c9874006-6b5e-4104-95dd-905cc6b77cdc&projectId=a0a8f18c-a66e-4ba7-a170-23efbdc67501","94114D92C27E43B0A0E98A2D6FE9E0BB-2024-11-24-19-05-08","","null","","images/causal_sequence/saving_a_cat_causal/saving_a_cat_causal_1.png","null","",""
"","","","","","image-button-response","122","615073","0.0-16.0-1.0-1.0","94114D92C27E43B0A0E98A2D6FE9E0BB","94114D92C27E43B0A0E98A2D6FE9E0BB","c9874006-6b5e-4104-95dd-905cc6b77cdc","a0a8f18c-a66e-4ba7-a170-23efbdc67501","{""participantId"":""94114D92C27E43B0A0E98A2D6FE9E0BB"",""assignmentId"":""c9874006-6b5e-4104-95dd-905cc6b77cdc"",""projectId"":""a0a8f18c-a66e-4ba7-a170-23efbdc67501""}","https://test12345.live/?participantId=94114D92C27E43B0A0E98A2D6FE9E0BB&assignmentId=c9874006-6b5e-4104-95dd-905cc6b77cdc&projectId=a0a8f18c-a66e-4ba7-a170-23efbdc67501","94114D92C27E43B0A0E98A2D6FE9E0BB-2024-11-24-19-05-08","","1932","","images/causal_sequence/saving_a_cat_causal/saving_a_cat_causal_1.png","0","",""
"","","","","","image-button-response","123","616884","0.0-16.0-1.0-2.0","94114D92C27E43B0A0E98A2D6FE9E0BB","94114D92C27E43B0A0E98A2D6FE9E0BB","c9874006-6b5e-4104-95dd-905cc6b77cdc","a0a8f18c-a66e-4ba7-a170-23efbdc67501","{""participantId"":""94114D92C27E43B0A0E98A2D6FE9E0BB"",""assignmentId"":""c9874006-6b5e-4104-95dd-905cc6b77cdc"",""projectId"":""a0a8f18c-a66e-4ba7-a170-23efbdc67501""}","https://test12345.live/?participantId=94114D92C27E43B0A0E98A2D6FE9E0BB&assignmentId=c9874006-6b5e-4104-95dd-905cc6b77cdc&projectId=a0a8f18c-a66e-4ba7-a170-23efbdc67501","94114D92C27E43B0A0E98A2D6FE9E0BB-2024-11-24-19-05-08","","null","","[]","null","",""
"","","","","","image-button-response","124","621396","0.0-16.0-1.0-0.1","94114D92C27E43B0A0E98A2D6FE9E0BB","94114D92C27E43B0A0E98A2D6FE9E0BB","c9874006-6b5e-4104-95dd-905cc6b77cdc","a0a8f18c-a66e-4ba7-a170-23efbdc67501","{""participantId"":""94114D92C27E43B0A0E98A2D6FE9E0BB"",""assignmentId"":""c9874006-6b5e-4104-95dd-905cc6b77cdc"",""projectId"":""a0a8f18c-a66e-4ba7-a170-23efbdc67501""}","https://test12345.live/?participantId=94114D92C27E43B0A0E98A2D6FE9E0BB&assignmentId=c9874006-6b5e-4104-95dd-905cc6b77cdc&projectId=a0a8f18c-a66e-4ba7-a170-23efbdc67501","94114D92C27E43B0A0E98A2D6FE9E0BB-2024-11-24-19-05-08","","null","","images/causal_sequence/saving_a_cat_causal/saving_a_cat_causal_2.png","null","",""
"","","","","","image-button-response","125","622454","0.0-16.0-1.0-1.1","94114D92C27E43B0A0E98A2D6FE9E0BB","94114D92C27E43B0A0E98A2D6FE9E0BB","c9874006-6b5e-4104-95dd-905cc6b77cdc","a0a8f18c-a66e-4ba7-a170-23efbdc67501","{""participantId"":""94114D92C27E43B0A0E98A2D6FE9E0BB"",""assignmentId"":""c9874006-6b5e-4104-95dd-905cc6b77cdc"",""projectId"":""a0a8f18c-a66e-4ba7-a170-23efbdc67501""}","https://test12345.live/?participantId=94114D92C27E43B0A0E98A2D6FE9E0BB&assignmentId=c9874006-6b5e-4104-95dd-905cc6b77cdc&projectId=a0a8f18c-a66e-4ba7-a170-23efbdc67501","94114D92C27E43B0A0E98A2D6FE9E0BB-2024-11-24-19-05-08","","1057","","images/causal_sequence/saving_a_cat_causal/saving_a_cat_causal_2.png","1","",""
"","","","","","image-button-response","126","624256","0.0-16.0-1.0-2.1","94114D92C27E43B0A0E98A2D6FE9E0BB","94114D92C27E43B0A0E98A2D6FE9E0BB","c9874006-6b5e-4104-95dd-905cc6b77cdc","a0a8f18c-a66e-4ba7-a170-23efbdc67501","{""participantId"":""94114D92C27E43B0A0E98A2D6FE9E0BB"",""assignmentId"":""c9874006-6b5e-4104-95dd-905cc6b77cdc"",""projectId"":""a0a8f18c-a66e-4ba7-a170-23efbdc67501""}","https://test12345.live/?participantId=94114D92C27E43B0A0E98A2D6FE9E0BB&assignmentId=c9874006-6b5e-4104-95dd-905cc6b77cdc&projectId=a0a8f18c-a66e-4ba7-a170-23efbdc67501","94114D92C27E43B0A0E98A2D6FE9E0BB-2024-11-24-19-05-08","","null","","[]","null","",""
"","","","","","image-button-response","127","628776","0.0-16.0-1.0-0.2","94114D92C27E43B0A0E98A2D6FE9E0BB","94114D92C27E43B0A0E98A2D6FE9E0BB","c9874006-6b5e-4104-95dd-905cc6b77cdc","a0a8f18c-a66e-4ba7-a170-23efbdc67501","{""participantId"":""94114D92C27E43B0A0E98A2D6FE9E0BB"",""assignmentId"":""c9874006-6b5e-4104-95dd-905cc6b77cdc"",""projectId"":""a0a8f18c-a66e-4ba7-a170-23efbdc67501""}","https://test12345.live/?participantId=94114D92C27E43B0A0E98A2D6FE9E0BB&assignmentId=c9874006-6b5e-4104-95dd-905cc6b77cdc&projectId=a0a8f18c-a66e-4ba7-a170-23efbdc67501","94114D92C27E43B0A0E98A2D6FE9E0BB-2024-11-24-19-05-08","","null","","images/causal_sequence/saving_a_cat_causal/saving_a_cat_causal_3.png","null","",""
"","","","","","image-button-response","128","630607","0.0-16.0-1.0-1.2","94114D92C27E43B0A0E98A2D6FE9E0BB","94114D92C27E43B0A0E98A2D6FE9E0BB","c9874006-6b5e-4104-95dd-905cc6b77cdc","a0a8f18c-a66e-4ba7-a170-23efbdc67501","{""participantId"":""94114D92C27E43B0A0E98A2D6FE9E0BB"",""assignmentId"":""c9874006-6b5e-4104-95dd-905cc6b77cdc"",""projectId"":""a0a8f18c-a66e-4ba7-a170-23efbdc67501""}","https://test12345.live/?participantId=94114D92C27E43B0A0E98A2D6FE9E0BB&assignmentId=c9874006-6b5e-4104-95dd-905cc6b77cdc&projectId=a0a8f18c-a66e-4ba7-a170-23efbdc67501","94114D92C27E43B0A0E98A2D6FE9E0BB-2024-11-24-19-05-08","","1830","","images/causal_sequence/saving_a_cat_causal/saving_a_cat_causal_3.png","1","",""
"","","","","","image-button-response","129","632410","0.0-16.0-1.0-2.2","94114D92C27E43B0A0E98A2D6FE9E0BB","94114D92C27E43B0A0E98A2D6FE9E0BB","c9874006-6b5e-4104-95dd-905cc6b77cdc","a0a8f18c-a66e-4ba7-a170-23efbdc67501","{""participantId"":""94114D92C27E43B0A0E98A2D6FE9E0BB"",""assignmentId"":""c9874006-6b5e-4104-95dd-905cc6b77cdc"",""projectId"":""a0a8f18c-a66e-4ba7-a170-23efbdc67501""}","https://test12345.live/?participantId=94114D92C27E43B0A0E98A2D6FE9E0BB&assignmentId=c9874006-6b5e-4104-95dd-905cc6b77cdc&projectId=a0a8f18c-a66e-4ba7-a170-23efbdc67501","94114D92C27E43B0A0E98A2D6FE9E0BB-2024-11-24-19-05-08","","null","","[]","null","",""
"","","","","","image-button-response","130","636924","0.0-16.0-1.0-0.3","94114D92C27E43B0A0E98A2D6FE9E0BB","94114D92C27E43B0A0E98A2D6FE9E0BB","c9874006-6b5e-4104-95dd-905cc6b77cdc","a0a8f18c-a66e-4ba7-a170-23efbdc67501","{""participantId"":""94114D92C27E43B0A0E98A2D6FE9E0BB"",""assignmentId"":""c9874006-6b5e-4104-95dd-905cc6b77cdc"",""projectId"":""a0a8f18c-a66e-4ba7-a170-23efbdc67501""}","https://test12345.live/?participantId=94114D92C27E43B0A0E98A2D6FE9E0BB&assignmentId=c9874006-6b5e-4104-95dd-905cc6b77cdc&projectId=a0a8f18c-a66e-4ba7-a170-23efbdc67501","94114D92C27E43B0A0E98A2D6FE9E0BB-2024-11-24-19-05-08","","null","","images/causal_sequence/saving_a_cat_causal/saving_a_cat_causal_4.png","null","",""
"","","","","","image-button-response","131","640926","0.0-16.0-1.0-1.3","94114D92C27E43B0A0E98A2D6FE9E0BB","94114D92C27E43B0A0E98A2D6FE9E0BB","c9874006-6b5e-4104-95dd-905cc6b77cdc","a0a8f18c-a66e-4ba7-a170-23efbdc67501","{""participantId"":""94114D92C27E43B0A0E98A2D6FE9E0BB"",""assignmentId"":""c9874006-6b5e-4104-95dd-905cc6b77cdc"",""projectId"":""a0a8f18c-a66e-4ba7-a170-23efbdc67501""}","https://test12345.live/?participantId=94114D92C27E43B0A0E98A2D6FE9E0BB&assignmentId=c9874006-6b5e-4104-95dd-905cc6b77cdc&projectId=a0a8f18c-a66e-4ba7-a170-23efbdc67501","94114D92C27E43B0A0E98A2D6FE9E0BB-2024-11-24-19-05-08","","null","","images/causal_sequence/saving_a_cat_causal/saving_a_cat_causal_4.png","null","",""
"","","","","","image-button-response","132","642732","0.0-16.0-1.0-2.3","94114D92C27E43B0A0E98A2D6FE9E0BB","94114D92C27E43B0A0E98A2D6FE9E0BB","c9874006-6b5e-4104-95dd-905cc6b77cdc","a0a8f18c-a66e-4ba7-a170-23efbdc67501","{""participantId"":""94114D92C27E43B0A0E98A2D6FE9E0BB"",""assignmentId"":""c9874006-6b5e-4104-95dd-905cc6b77cdc"",""projectId"":""a0a8f18c-a66e-4ba7-a170-23efbdc67501""}","https://test12345.live/?participantId=94114D92C27E43B0A0E98A2D6FE9E0BB&assignmentId=c9874006-6b5e-4104-95dd-905cc6b77cdc&projectId=a0a8f18c-a66e-4ba7-a170-23efbdc67501","94114D92C27E43B0A0E98A2D6FE9E0BB-2024-11-24-19-05-08","","null","","[]","null","",""
"","","","","","image-button-response","133","647242","0.0-16.0-1.0-0.4","94114D92C27E43B0A0E98A2D6FE9E0BB","94114D92C27E43B0A0E98A2D6FE9E0BB","c9874006-6b5e-4104-95dd-905cc6b77cdc","a0a8f18c-a66e-4ba7-a170-23efbdc67501","{""participantId"":""94114D92C27E43B0A0E98A2D6FE9E0BB"",""assignmentId"":""c9874006-6b5e-4104-95dd-905cc6b77cdc"",""projectId"":""a0a8f18c-a66e-4ba7-a170-23efbdc67501""}","https://test12345.live/?participantId=94114D92C27E43B0A0E98A2D6FE9E0BB&assignmentId=c9874006-6b5e-4104-95dd-905cc6b77cdc&projectId=a0a8f18c-a66e-4ba7-a170-23efbdc67501","94114D92C27E43B0A0E98A2D6FE9E0BB-2024-11-24-19-05-08","","null","","images/causal_sequence/saving_a_cat_causal/saving_a_cat_causal_5.png","null","",""
"","","","","","image-button-response","134","648979","0.0-16.0-1.0-1.4","94114D92C27E43B0A0E98A2D6FE9E0BB","94114D92C27E43B0A0E98A2D6FE9E0BB","c9874006-6b5e-4104-95dd-905cc6b77cdc","a0a8f18c-a66e-4ba7-a170-23efbdc67501","{""participantId"":""94114D92C27E43B0A0E98A2D6FE9E0BB"",""assignmentId"":""c9874006-6b5e-4104-95dd-905cc6b77cdc"",""projectId"":""a0a8f18c-a66e-4ba7-a170-23efbdc67501""}","https://test12345.live/?participantId=94114D92C27E43B0A0E98A2D6FE9E0BB&assignmentId=c9874006-6b5e-4104-95dd-905cc6b77cdc&projectId=a0a8f18c-a66e-4ba7-a170-23efbdc67501","94114D92C27E43B0A0E98A2D6FE9E0BB-2024-11-24-19-05-08","","1736","","images/causal_sequence/saving_a_cat_causal/saving_a_cat_causal_5.png","0","",""
"","","","","","image-button-response","135","650786","0.0-16.0-1.0-2.4","94114D92C27E43B0A0E98A2D6FE9E0BB","94114D92C27E43B0A0E98A2D6FE9E0BB","c9874006-6b5e-4104-95dd-905cc6b77cdc","a0a8f18c-a66e-4ba7-a170-23efbdc67501","{""participantId"":""94114D92C27E43B0A0E98A2D6FE9E0BB"",""assignmentId"":""c9874006-6b5e-4104-95dd-905cc6b77cdc"",""projectId"":""a0a8f18c-a66e-4ba7-a170-23efbdc67501""}","https://test12345.live/?participantId=94114D92C27E43B0A0E98A2D6FE9E0BB&assignmentId=c9874006-6b5e-4104-95dd-905cc6b77cdc&projectId=a0a8f18c-a66e-4ba7-a170-23efbdc67501","94114D92C27E43B0A0E98A2D6FE9E0BB-2024-11-24-19-05-08","","null","","[]","null","",""
"","","","","","image-button-response","136","655296","0.0-16.0-1.0-0.5","94114D92C27E43B0A0E98A2D6FE9E0BB","94114D92C27E43B0A0E98A2D6FE9E0BB","c9874006-6b5e-4104-95dd-905cc6b77cdc","a0a8f18c-a66e-4ba7-a170-23efbdc67501","{""participantId"":""94114D92C27E43B0A0E98A2D6FE9E0BB"",""assignmentId"":""c9874006-6b5e-4104-95dd-905cc6b77cdc"",""projectId"":""a0a8f18c-a66e-4ba7-a170-23efbdc67501""}","https://test12345.live/?participantId=94114D92C27E43B0A0E98A2D6FE9E0BB&assignmentId=c9874006-6b5e-4104-95dd-905cc6b77cdc&projectId=a0a8f18c-a66e-4ba7-a170-23efbdc67501","94114D92C27E43B0A0E98A2D6FE9E0BB-2024-11-24-19-05-08","","null","","images/causal_sequence/saving_a_cat_causal/saving_a_cat_causal_6.png","null","",""
"","","","","","image-button-response","137","656956","0.0-16.0-1.0-1.5","94114D92C27E43B0A0E98A2D6FE9E0BB","94114D92C27E43B0A0E98A2D6FE9E0BB","c9874006-6b5e-4104-95dd-905cc6b77cdc","a0a8f18c-a66e-4ba7-a170-23efbdc67501","{""participantId"":""94114D92C27E43B0A0E98A2D6FE9E0BB"",""assignmentId"":""c9874006-6b5e-4104-95dd-905cc6b77cdc"",""projectId"":""a0a8f18c-a66e-4ba7-a170-23efbdc67501""}","https://test12345.live/?participantId=94114D92C27E43B0A0E98A2D6FE9E0BB&assignmentId=c9874006-6b5e-4104-95dd-905cc6b77cdc&projectId=a0a8f18c-a66e-4ba7-a170-23efbdc67501","94114D92C27E43B0A0E98A2D6FE9E0BB-2024-11-24-19-05-08","","1658","","images/causal_sequence/saving_a_cat_causal/saving_a_cat_causal_6.png","0","",""
"","","","","","image-button-response","138","658765","0.0-16.0-1.0-2.5","94114D92C27E43B0A0E98A2D6FE9E0BB","94114D92C27E43B0A0E98A2D6FE9E0BB","c9874006-6b5e-4104-95dd-905cc6b77cdc","a0a8f18c-a66e-4ba7-a170-23efbdc67501","{""participantId"":""94114D92C27E43B0A0E98A2D6FE9E0BB"",""assignmentId"":""c9874006-6b5e-4104-95dd-905cc6b77cdc"",""projectId"":""a0a8f18c-a66e-4ba7-a170-23efbdc67501""}","https://test12345.live/?participantId=94114D92C27E43B0A0E98A2D6FE9E0BB&assignmentId=c9874006-6b5e-4104-95dd-905cc6b77cdc&projectId=a0a8f18c-a66e-4ba7-a170-23efbdc67501","94114D92C27E43B0A0E98A2D6FE9E0BB-2024-11-24-19-05-08","","null","","[]","null","",""
"","","","","","image-button-response","139","663286","0.0-16.0-1.0-0.6","94114D92C27E43B0A0E98A2D6FE9E0BB","94114D92C27E43B0A0E98A2D6FE9E0BB","c9874006-6b5e-4104-95dd-905cc6b77cdc","a0a8f18c-a66e-4ba7-a170-23efbdc67501","{""participantId"":""94114D92C27E43B0A0E98A2D6FE9E0BB"",""assignmentId"":""c9874006-6b5e-4104-95dd-905cc6b77cdc"",""projectId"":""a0a8f18c-a66e-4ba7-a170-23efbdc67501""}","https://test12345.live/?participantId=94114D92C27E43B0A0E98A2D6FE9E0BB&assignmentId=c9874006-6b5e-4104-95dd-905cc6b77cdc&projectId=a0a8f18c-a66e-4ba7-a170-23efbdc67501","94114D92C27E43B0A0E98A2D6FE9E0BB-2024-11-24-19-05-08","","null","","images/causal_sequence/saving_a_cat_causal/saving_a_cat_causal_7.png","null","",""
"","","","","","image-button-response","140","666717","0.0-16.0-1.0-1.6","94114D92C27E43B0A0E98A2D6FE9E0BB","94114D92C27E43B0A0E98A2D6FE9E0BB","c9874006-6b5e-4104-95dd-905cc6b77cdc","a0a8f18c-a66e-4ba7-a170-23efbdc67501","{""participantId"":""94114D92C27E43B0A0E98A2D6FE9E0BB"",""assignmentId"":""c9874006-6b5e-4104-95dd-905cc6b77cdc"",""projectId"":""a0a8f18c-a66e-4ba7-a170-23efbdc67501""}","https://test12345.live/?participantId=94114D92C27E43B0A0E98A2D6FE9E0BB&assignmentId=c9874006-6b5e-4104-95dd-905cc6b77cdc&projectId=a0a8f18c-a66e-4ba7-a170-23efbdc67501","94114D92C27E43B0A0E98A2D6FE9E0BB-2024-11-24-19-05-08","","3430","","images/causal_sequence/saving_a_cat_causal/saving_a_cat_causal_7.png","0","",""
"","","","","","image-button-response","141","668526","0.0-16.0-1.0-2.6","94114D92C27E43B0A0E98A2D6FE9E0BB","94114D92C27E43B0A0E98A2D6FE9E0BB","c9874006-6b5e-4104-95dd-905cc6b77cdc","a0a8f18c-a66e-4ba7-a170-23efbdc67501","{""participantId"":""94114D92C27E43B0A0E98A2D6FE9E0BB"",""assignmentId"":""c9874006-6b5e-4104-95dd-905cc6b77cdc"",""projectId"":""a0a8f18c-a66e-4ba7-a170-23efbdc67501""}","https://test12345.live/?participantId=94114D92C27E43B0A0E98A2D6FE9E0BB&assignmentId=c9874006-6b5e-4104-95dd-905cc6b77cdc&projectId=a0a8f18c-a66e-4ba7-a170-23efbdc67501","94114D92C27E43B0A0E98A2D6FE9E0BB-2024-11-24-19-05-08","","null","","[]","null","",""
"","","","","","image-button-response","142","673046","0.0-16.0-1.0-0.7","94114D92C27E43B0A0E98A2D6FE9E0BB","94114D92C27E43B0A0E98A2D6FE9E0BB","c9874006-6b5e-4104-95dd-905cc6b77cdc","a0a8f18c-a66e-4ba7-a170-23efbdc67501","{""participantId"":""94114D92C27E43B0A0E98A2D6FE9E0BB"",""assignmentId"":""c9874006-6b5e-4104-95dd-905cc6b77cdc"",""projectId"":""a0a8f18c-a66e-4ba7-a170-23efbdc67501""}","https://test12345.live/?participantId=94114D92C27E43B0A0E98A2D6FE9E0BB&assignmentId=c9874006-6b5e-4104-95dd-905cc6b77cdc&projectId=a0a8f18c-a66e-4ba7-a170-23efbdc67501","94114D92C27E43B0A0E98A2D6FE9E0BB-2024-11-24-19-05-08","","null","","images/causal_sequence/saving_a_cat_causal/saving_a_cat_causal_8.png","null","",""
"","","","","","image-button-response","143","674865","0.0-16.0-1.0-1.7","94114D92C27E43B0A0E98A2D6FE9E0BB","94114D92C27E43B0A0E98A2D6FE9E0BB","c9874006-6b5e-4104-95dd-905cc6b77cdc","a0a8f18c-a66e-4ba7-a170-23efbdc67501","{""participantId"":""94114D92C27E43B0A0E98A2D6FE9E0BB"",""assignmentId"":""c9874006-6b5e-4104-95dd-905cc6b77cdc"",""projectId"":""a0a8f18c-a66e-4ba7-a170-23efbdc67501""}","https://test12345.live/?participantId=94114D92C27E43B0A0E98A2D6FE9E0BB&assignmentId=c9874006-6b5e-4104-95dd-905cc6b77cdc&projectId=a0a8f18c-a66e-4ba7-a170-23efbdc67501","94114D92C27E43B0A0E98A2D6FE9E0BB-2024-11-24-19-05-08","","1817","","images/causal_sequence/saving_a_cat_causal/saving_a_cat_causal_8.png","0","",""
