"success","timeout","failed_images","failed_audio","failed_video","trial_type","trial_index","time_elapsed","internal_node_id","subject","subject_id","study_id","session_id","urlvar","current_url","audio_id","view_history","rt","device_id","stimulus","response","estimated_stimulus_onset","seq_name"
"true","false","[]","[]","[]","preload","0","6920","0.0-0.0","A1C24BE44350472AB86876EF5ECFC881","A1C24BE44350472AB86876EF5ECFC881","78641eb8-bf4a-4c0e-87be-337fe39b2208","a0a8f18c-a66e-4ba7-a170-23efbdc67501","{""participantId"":""A1C24BE44350472AB86876EF5ECFC881"",""assignmentId"":""78641eb8-bf4a-4c0e-87be-337fe39b2208"",""projectId"":""a0a8f18c-a66e-4ba7-a170-23efbdc67501""}","https://test12345.live/?participantId=A1C24BE44350472AB86876EF5ECFC881&assignmentId=78641eb8-bf4a-4c0e-87be-337fe39b2208&projectId=a0a8f18c-a66e-4ba7-a170-23efbdc67501","A1C24BE44350472AB86876EF5ECFC881-2024-11-24-18-38-33","","","","","","",""
"","","","","","instructions","1","124011","0.0-1.0","A1C24BE44350472AB86876EF5ECFC881","A1C24BE44350472AB86876EF5ECFC881","78641eb8-bf4a-4c0e-87be-337fe39b2208","a0a8f18c-a66e-4ba7-a170-23efbdc67501","{""participantId"":""A1C24BE44350472AB86876EF5ECFC881"",""assignmentId"":""78641eb8-bf4a-4c0e-87be-337fe39b2208"",""projectId"":""a0a8f18c-a66e-4ba7-a170-23efbdc67501""}","https://test12345.live/?participantId=A1C24BE44350472AB86876EF5ECFC881&assignmentId=78641eb8-bf4a-4c0e-87be-337fe39b2208&projectId=a0a8f18c-a66e-4ba7-a170-23efbdc67501","A1C24BE44350472AB86876EF5ECFC881-2024-11-24-18-38-33","[{""page_index"":0,""viewing_time"":117086}]","117089","","","","",""
"","","","","","instructions","2","217160","0.0-2.0","A1C24BE44350472AB86876EF5ECFC881","A1C24BE44350472AB86876EF5ECFC881","78641eb8-bf4a-4c0e-87be-337fe39b2208","a0a8f18c-a66e-4ba7-a170-23efbdc67501","{""participantId"":""A1C24BE44350472AB86876EF5ECFC881"",""assignmentId"":""78641eb8-bf4a-4c0e-87be-337fe39b2208"",""projectId"":""a0a8f18c-a66e-4ba7-a170-23efbdc67501""}","https://test12345.live/?participantId=A1C24BE44350472AB86876EF5ECFC881&assignmentId=78641eb8-bf4a-4c0e-87be-337fe39b2208&projectId=a0a8f18c-a66e-4ba7-a170-23efbdc67501","A1C24BE44350472AB86876EF5ECFC881-2024-11-24-18-38-33","[{""page_index"":0,""viewing_time"":93147}]","93147","","","","",""
"true","","","","","fullscreen","3","222941","0.0-3.0","A1C24BE44350472AB86876EF5ECFC881","A1C24BE44350472AB86876EF5ECFC881","78641eb8-bf4a-4c0e-87be-337fe39b2208","a0a8f18c-a66e-4ba7-a170-23efbdc67501","{""participantId"":""A1C24BE44350472AB86876EF5ECFC881"",""assignmentId"":""78641eb8-bf4a-4c0e-87be-337fe39b2208"",""projectId"":""a0a8f18c-a66e-4ba7-a170-23efbdc67501""}","https://test12345.live/?participantId=A1C24BE44350472AB86876EF5ECFC881&assignmentId=78641eb8-bf4a-4c0e-87be-337fe39b2208&projectId=a0a8f18c-a66e-4ba7-a170-23efbdc67501","A1C24BE44350472AB86876EF5ECFC881-2024-11-24-18-38-33","","4771","","","","",""
"","","","","","initialize-microphone","4","299342","0.0-4.0-0.0","A1C24BE44350472AB86876EF5ECFC881","A1C24BE44350472AB86876EF5ECFC881","78641eb8-bf4a-4c0e-87be-337fe39b2208","a0a8f18c-a66e-4ba7-a170-23efbdc67501","{""participantId"":""A1C24BE44350472AB86876EF5ECFC881"",""assignmentId"":""78641eb8-bf4a-4c0e-87be-337fe39b2208"",""projectId"":""a0a8f18c-a66e-4ba7-a170-23efbdc67501""}","https://test12345.live/?participantId=A1C24BE44350472AB86876EF5ECFC881&assignmentId=78641eb8-bf4a-4c0e-87be-337fe39b2208&projectId=a0a8f18c-a66e-4ba7-a170-23efbdc67501","A1C24BE44350472AB86876EF5ECFC881-2024-11-24-18-38-33","","","e7af0b4f53708740fa74548446ab023c3a4e9fad9ac1f8f66976a8dcd593104c","","","",""
"","","","","","html-audio-response","5","326297","0.0-4.0-1.0","A1C24BE44350472AB86876EF5ECFC881","A1C24BE44350472AB86876EF5ECFC881","78641eb8-bf4a-4c0e-87be-337fe39b2208","a0a8f18c-a66e-4ba7-a170-23efbdc67501","{""participantId"":""A1C24BE44350472AB86876EF5ECFC881"",""assignmentId"":""78641eb8-bf4a-4c0e-87be-337fe39b2208"",""projectId"":""a0a8f18c-a66e-4ba7-a170-23efbdc67501""}","https://test12345.live/?participantId=A1C24BE44350472AB86876EF5ECFC881&assignmentId=78641eb8-bf4a-4c0e-87be-337fe39b2208&projectId=a0a8f18c-a66e-4ba7-a170-23efbdc67501","A1C24BE44350472AB86876EF5ECFC881-2024-11-24-18-38-33","","2330","","<span style=""color: red; font-size: 24px""> NOW RECORDING</span>
        <p>Please test Microphone</p>","","6",""
"","","","","","html-button-response","6","327962","0.0-4.0-2.0","A1C24BE44350472AB86876EF5ECFC881","A1C24BE44350472AB86876EF5ECFC881","78641eb8-bf4a-4c0e-87be-337fe39b2208","a0a8f18c-a66e-4ba7-a170-23efbdc67501","{""participantId"":""A1C24BE44350472AB86876EF5ECFC881"",""assignmentId"":""78641eb8-bf4a-4c0e-87be-337fe39b2208"",""projectId"":""a0a8f18c-a66e-4ba7-a170-23efbdc67501""}","https://test12345.live/?participantId=A1C24BE44350472AB86876EF5ECFC881&assignmentId=78641eb8-bf4a-4c0e-87be-337fe39b2208&projectId=a0a8f18c-a66e-4ba7-a170-23efbdc67501","A1C24BE44350472AB86876EF5ECFC881-2024-11-24-18-38-33","","1663","","<p style=""font-size:48px; color:red;"">Is Microphone OK?</p>","1","",""
"","","","","","instructions","7","343875","0.0-5.0","A1C24BE44350472AB86876EF5ECFC881","A1C24BE44350472AB86876EF5ECFC881","78641eb8-bf4a-4c0e-87be-337fe39b2208","a0a8f18c-a66e-4ba7-a170-23efbdc67501","{""participantId"":""A1C24BE44350472AB86876EF5ECFC881"",""assignmentId"":""78641eb8-bf4a-4c0e-87be-337fe39b2208"",""projectId"":""a0a8f18c-a66e-4ba7-a170-23efbdc67501""}","https://test12345.live/?participantId=A1C24BE44350472AB86876EF5ECFC881&assignmentId=78641eb8-bf4a-4c0e-87be-337fe39b2208&projectId=a0a8f18c-a66e-4ba7-a170-23efbdc67501","A1C24BE44350472AB86876EF5ECFC881-2024-11-24-18-38-33","[{""page_index"":0,""viewing_time"":4051},{""page_index"":1,""viewing_time"":11860}]","15912","","","","",""
"","","","","","image-button-response","8","349882","0.0-6.0-0.0","A1C24BE44350472AB86876EF5ECFC881","A1C24BE44350472AB86876EF5ECFC881","78641eb8-bf4a-4c0e-87be-337fe39b2208","a0a8f18c-a66e-4ba7-a170-23efbdc67501","{""participantId"":""A1C24BE44350472AB86876EF5ECFC881"",""assignmentId"":""78641eb8-bf4a-4c0e-87be-337fe39b2208"",""projectId"":""a0a8f18c-a66e-4ba7-a170-23efbdc67501""}","https://test12345.live/?participantId=A1C24BE44350472AB86876EF5ECFC881&assignmentId=78641eb8-bf4a-4c0e-87be-337fe39b2208&projectId=a0a8f18c-a66e-4ba7-a170-23efbdc67501","A1C24BE44350472AB86876EF5ECFC881-2024-11-24-18-38-33","","null","","images/instructions/movie_0.png","null","",""
"","","","","","image-button-response","9","354385","0.0-6.0-1.0-0.0","A1C24BE44350472AB86876EF5ECFC881","A1C24BE44350472AB86876EF5ECFC881","78641eb8-bf4a-4c0e-87be-337fe39b2208","a0a8f18c-a66e-4ba7-a170-23efbdc67501","{""participantId"":""A1C24BE44350472AB86876EF5ECFC881"",""assignmentId"":""78641eb8-bf4a-4c0e-87be-337fe39b2208"",""projectId"":""a0a8f18c-a66e-4ba7-a170-23efbdc67501""}","https://test12345.live/?participantId=A1C24BE44350472AB86876EF5ECFC881&assignmentId=78641eb8-bf4a-4c0e-87be-337fe39b2208&projectId=a0a8f18c-a66e-4ba7-a170-23efbdc67501","A1C24BE44350472AB86876EF5ECFC881-2024-11-24-18-38-33","","null","","images/instructions/movie_1.png","null","",""
"","","","","","image-button-response","10","357751","0.0-6.0-1.0-1.0","A1C24BE44350472AB86876EF5ECFC881","A1C24BE44350472AB86876EF5ECFC881","78641eb8-bf4a-4c0e-87be-337fe39b2208","a0a8f18c-a66e-4ba7-a170-23efbdc67501","{""participantId"":""A1C24BE44350472AB86876EF5ECFC881"",""assignmentId"":""78641eb8-bf4a-4c0e-87be-337fe39b2208"",""projectId"":""a0a8f18c-a66e-4ba7-a170-23efbdc67501""}","https://test12345.live/?participantId=A1C24BE44350472AB86876EF5ECFC881&assignmentId=78641eb8-bf4a-4c0e-87be-337fe39b2208&projectId=a0a8f18c-a66e-4ba7-a170-23efbdc67501","A1C24BE44350472AB86876EF5ECFC881-2024-11-24-18-38-33","","3364","","images/instructions/movie_1.png","0","",""
"","","","","","image-button-response","11","359561","0.0-6.0-1.0-2.0","A1C24BE44350472AB86876EF5ECFC881","A1C24BE44350472AB86876EF5ECFC881","78641eb8-bf4a-4c0e-87be-337fe39b2208","a0a8f18c-a66e-4ba7-a170-23efbdc67501","{""participantId"":""A1C24BE44350472AB86876EF5ECFC881"",""assignmentId"":""78641eb8-bf4a-4c0e-87be-337fe39b2208"",""projectId"":""a0a8f18c-a66e-4ba7-a170-23efbdc67501""}","https://test12345.live/?participantId=A1C24BE44350472AB86876EF5ECFC881&assignmentId=78641eb8-bf4a-4c0e-87be-337fe39b2208&projectId=a0a8f18c-a66e-4ba7-a170-23efbdc67501","A1C24BE44350472AB86876EF5ECFC881-2024-11-24-18-38-33","","null","","[]","null","",""
"","","","","","image-button-response","12","364078","0.0-6.0-1.0-0.1","A1C24BE44350472AB86876EF5ECFC881","A1C24BE44350472AB86876EF5ECFC881","78641eb8-bf4a-4c0e-87be-337fe39b2208","a0a8f18c-a66e-4ba7-a170-23efbdc67501","{""participantId"":""A1C24BE44350472AB86876EF5ECFC881"",""assignmentId"":""78641eb8-bf4a-4c0e-87be-337fe39b2208"",""projectId"":""a0a8f18c-a66e-4ba7-a170-23efbdc67501""}","https://test12345.live/?participantId=A1C24BE44350472AB86876EF5ECFC881&assignmentId=78641eb8-bf4a-4c0e-87be-337fe39b2208&projectId=a0a8f18c-a66e-4ba7-a170-23efbdc67501","A1C24BE44350472AB86876EF5ECFC881-2024-11-24-18-38-33","","null","","images/instructions/movie_2.png","null","",""
"","","","","","image-button-response","13","368092","0.0-6.0-1.0-1.1","A1C24BE44350472AB86876EF5ECFC881","A1C24BE44350472AB86876EF5ECFC881","78641eb8-bf4a-4c0e-87be-337fe39b2208","a0a8f18c-a66e-4ba7-a170-23efbdc67501","{""participantId"":""A1C24BE44350472AB86876EF5ECFC881"",""assignmentId"":""78641eb8-bf4a-4c0e-87be-337fe39b2208"",""projectId"":""a0a8f18c-a66e-4ba7-a170-23efbdc67501""}","https://test12345.live/?participantId=A1C24BE44350472AB86876EF5ECFC881&assignmentId=78641eb8-bf4a-4c0e-87be-337fe39b2208&projectId=a0a8f18c-a66e-4ba7-a170-23efbdc67501","A1C24BE44350472AB86876EF5ECFC881-2024-11-24-18-38-33","","null","","images/instructions/movie_2.png","null","",""
"","","","","","image-button-response","14","369907","0.0-6.0-1.0-2.1","A1C24BE44350472AB86876EF5ECFC881","A1C24BE44350472AB86876EF5ECFC881","78641eb8-bf4a-4c0e-87be-337fe39b2208","a0a8f18c-a66e-4ba7-a170-23efbdc67501","{""participantId"":""A1C24BE44350472AB86876EF5ECFC881"",""assignmentId"":""78641eb8-bf4a-4c0e-87be-337fe39b2208"",""projectId"":""a0a8f18c-a66e-4ba7-a170-23efbdc67501""}","https://test12345.live/?participantId=A1C24BE44350472AB86876EF5ECFC881&assignmentId=78641eb8-bf4a-4c0e-87be-337fe39b2208&projectId=a0a8f18c-a66e-4ba7-a170-23efbdc67501","A1C24BE44350472AB86876EF5ECFC881-2024-11-24-18-38-33","","null","","[]","null","",""
"","","","","","image-button-response","15","374412","0.0-6.0-1.0-0.2","A1C24BE44350472AB86876EF5ECFC881","A1C24BE44350472AB86876EF5ECFC881","78641eb8-bf4a-4c0e-87be-337fe39b2208","a0a8f18c-a66e-4ba7-a170-23efbdc67501","{""participantId"":""A1C24BE44350472AB86876EF5ECFC881"",""assignmentId"":""78641eb8-bf4a-4c0e-87be-337fe39b2208"",""projectId"":""a0a8f18c-a66e-4ba7-a170-23efbdc67501""}","https://test12345.live/?participantId=A1C24BE44350472AB86876EF5ECFC881&assignmentId=78641eb8-bf4a-4c0e-87be-337fe39b2208&projectId=a0a8f18c-a66e-4ba7-a170-23efbdc67501","A1C24BE44350472AB86876EF5ECFC881-2024-11-24-18-38-33","","null","","images/instructions/movie_3.png","null","",""
"","","","","","image-button-response","16","375637","0.0-6.0-1.0-1.2","A1C24BE44350472AB86876EF5ECFC881","A1C24BE44350472AB86876EF5ECFC881","78641eb8-bf4a-4c0e-87be-337fe39b2208","a0a8f18c-a66e-4ba7-a170-23efbdc67501","{""participantId"":""A1C24BE44350472AB86876EF5ECFC881"",""assignmentId"":""78641eb8-bf4a-4c0e-87be-337fe39b2208"",""projectId"":""a0a8f18c-a66e-4ba7-a170-23efbdc67501""}","https://test12345.live/?participantId=A1C24BE44350472AB86876EF5ECFC881&assignmentId=78641eb8-bf4a-4c0e-87be-337fe39b2208&projectId=a0a8f18c-a66e-4ba7-a170-23efbdc67501","A1C24BE44350472AB86876EF5ECFC881-2024-11-24-18-38-33","","1223","","images/instructions/movie_3.png","0","",""
"","","","","","image-button-response","17","377452","0.0-6.0-1.0-2.2","A1C24BE44350472AB86876EF5ECFC881","A1C24BE44350472AB86876EF5ECFC881","78641eb8-bf4a-4c0e-87be-337fe39b2208","a0a8f18c-a66e-4ba7-a170-23efbdc67501","{""participantId"":""A1C24BE44350472AB86876EF5ECFC881"",""assignmentId"":""78641eb8-bf4a-4c0e-87be-337fe39b2208"",""projectId"":""a0a8f18c-a66e-4ba7-a170-23efbdc67501""}","https://test12345.live/?participantId=A1C24BE44350472AB86876EF5ECFC881&assignmentId=78641eb8-bf4a-4c0e-87be-337fe39b2208&projectId=a0a8f18c-a66e-4ba7-a170-23efbdc67501","A1C24BE44350472AB86876EF5ECFC881-2024-11-24-18-38-33","","null","","[]","null","",""
"","","","","","image-button-response","18","381964","0.0-6.0-1.0-0.3","A1C24BE44350472AB86876EF5ECFC881","A1C24BE44350472AB86876EF5ECFC881","78641eb8-bf4a-4c0e-87be-337fe39b2208","a0a8f18c-a66e-4ba7-a170-23efbdc67501","{""participantId"":""A1C24BE44350472AB86876EF5ECFC881"",""assignmentId"":""78641eb8-bf4a-4c0e-87be-337fe39b2208"",""projectId"":""a0a8f18c-a66e-4ba7-a170-23efbdc67501""}","https://test12345.live/?participantId=A1C24BE44350472AB86876EF5ECFC881&assignmentId=78641eb8-bf4a-4c0e-87be-337fe39b2208&projectId=a0a8f18c-a66e-4ba7-a170-23efbdc67501","A1C24BE44350472AB86876EF5ECFC881-2024-11-24-18-38-33","","null","","images/instructions/movie_4.png","null","",""
"","","","","","image-button-response","19","383268","0.0-6.0-1.0-1.3","A1C24BE44350472AB86876EF5ECFC881","A1C24BE44350472AB86876EF5ECFC881","78641eb8-bf4a-4c0e-87be-337fe39b2208","a0a8f18c-a66e-4ba7-a170-23efbdc67501","{""participantId"":""A1C24BE44350472AB86876EF5ECFC881"",""assignmentId"":""78641eb8-bf4a-4c0e-87be-337fe39b2208"",""projectId"":""a0a8f18c-a66e-4ba7-a170-23efbdc67501""}","https://test12345.live/?participantId=A1C24BE44350472AB86876EF5ECFC881&assignmentId=78641eb8-bf4a-4c0e-87be-337fe39b2208&projectId=a0a8f18c-a66e-4ba7-a170-23efbdc67501","A1C24BE44350472AB86876EF5ECFC881-2024-11-24-18-38-33","","1302","","images/instructions/movie_4.png","0","",""
"","","","","","image-button-response","20","385079","0.0-6.0-1.0-2.3","A1C24BE44350472AB86876EF5ECFC881","A1C24BE44350472AB86876EF5ECFC881","78641eb8-bf4a-4c0e-87be-337fe39b2208","a0a8f18c-a66e-4ba7-a170-23efbdc67501","{""participantId"":""A1C24BE44350472AB86876EF5ECFC881"",""assignmentId"":""78641eb8-bf4a-4c0e-87be-337fe39b2208"",""projectId"":""a0a8f18c-a66e-4ba7-a170-23efbdc67501""}","https://test12345.live/?participantId=A1C24BE44350472AB86876EF5ECFC881&assignmentId=78641eb8-bf4a-4c0e-87be-337fe39b2208&projectId=a0a8f18c-a66e-4ba7-a170-23efbdc67501","A1C24BE44350472AB86876EF5ECFC881-2024-11-24-18-38-33","","null","","[]","null","",""
"","","","","","instructions","21","391896","0.0-7.0","A1C24BE44350472AB86876EF5ECFC881","A1C24BE44350472AB86876EF5ECFC881","78641eb8-bf4a-4c0e-87be-337fe39b2208","a0a8f18c-a66e-4ba7-a170-23efbdc67501","{""participantId"":""A1C24BE44350472AB86876EF5ECFC881"",""assignmentId"":""78641eb8-bf4a-4c0e-87be-337fe39b2208"",""projectId"":""a0a8f18c-a66e-4ba7-a170-23efbdc67501""}","https://test12345.live/?participantId=A1C24BE44350472AB86876EF5ECFC881&assignmentId=78641eb8-bf4a-4c0e-87be-337fe39b2208&projectId=a0a8f18c-a66e-4ba7-a170-23efbdc67501","A1C24BE44350472AB86876EF5ECFC881-2024-11-24-18-38-33","[{""page_index"":0,""viewing_time"":5736},{""page_index"":1,""viewing_time"":1079}]","6816","","","","",""
"","","","","","html-audio-response","22","408697","0.0-8.0","A1C24BE44350472AB86876EF5ECFC881","A1C24BE44350472AB86876EF5ECFC881","78641eb8-bf4a-4c0e-87be-337fe39b2208","a0a8f18c-a66e-4ba7-a170-23efbdc67501","{""participantId"":""A1C24BE44350472AB86876EF5ECFC881"",""assignmentId"":""78641eb8-bf4a-4c0e-87be-337fe39b2208"",""projectId"":""a0a8f18c-a66e-4ba7-a170-23efbdc67501""}","https://test12345.live/?participantId=A1C24BE44350472AB86876EF5ECFC881&assignmentId=78641eb8-bf4a-4c0e-87be-337fe39b2208&projectId=a0a8f18c-a66e-4ba7-a170-23efbdc67501","A1C24BE44350472AB86876EF5ECFC881-2024-11-24-18-38-33","","9459","","[""<span style=\""color: red; font-size: 24px\""> NOW RECORDING</span><p>Please say out loud all the images you saw, as many as you can remember. The images can be said in any order.</p>""]","","6",""
"","","","","","instructions","23","409956","0.0-9.0","A1C24BE44350472AB86876EF5ECFC881","A1C24BE44350472AB86876EF5ECFC881","78641eb8-bf4a-4c0e-87be-337fe39b2208","a0a8f18c-a66e-4ba7-a170-23efbdc67501","{""participantId"":""A1C24BE44350472AB86876EF5ECFC881"",""assignmentId"":""78641eb8-bf4a-4c0e-87be-337fe39b2208"",""projectId"":""a0a8f18c-a66e-4ba7-a170-23efbdc67501""}","https://test12345.live/?participantId=A1C24BE44350472AB86876EF5ECFC881&assignmentId=78641eb8-bf4a-4c0e-87be-337fe39b2208&projectId=a0a8f18c-a66e-4ba7-a170-23efbdc67501","A1C24BE44350472AB86876EF5ECFC881-2024-11-24-18-38-33","[{""page_index"":0,""viewing_time"":1249}]","1250","","","","",""
"","","","","","image-button-response","24","415973","0.0-10.0-0.0","A1C24BE44350472AB86876EF5ECFC881","A1C24BE44350472AB86876EF5ECFC881","78641eb8-bf4a-4c0e-87be-337fe39b2208","a0a8f18c-a66e-4ba7-a170-23efbdc67501","{""participantId"":""A1C24BE44350472AB86876EF5ECFC881"",""assignmentId"":""78641eb8-bf4a-4c0e-87be-337fe39b2208"",""projectId"":""a0a8f18c-a66e-4ba7-a170-23efbdc67501""}","https://test12345.live/?participantId=A1C24BE44350472AB86876EF5ECFC881&assignmentId=78641eb8-bf4a-4c0e-87be-337fe39b2208&projectId=a0a8f18c-a66e-4ba7-a170-23efbdc67501","A1C24BE44350472AB86876EF5ECFC881-2024-11-24-18-38-33","","null","","images/semantic_sequence/physical_activity_semantic/physical_activity_semantic_0.png","null","",""
"","","","","","image-button-response","25","420480","0.0-10.0-1.0-0.0","A1C24BE44350472AB86876EF5ECFC881","A1C24BE44350472AB86876EF5ECFC881","78641eb8-bf4a-4c0e-87be-337fe39b2208","a0a8f18c-a66e-4ba7-a170-23efbdc67501","{""participantId"":""A1C24BE44350472AB86876EF5ECFC881"",""assignmentId"":""78641eb8-bf4a-4c0e-87be-337fe39b2208"",""projectId"":""a0a8f18c-a66e-4ba7-a170-23efbdc67501""}","https://test12345.live/?participantId=A1C24BE44350472AB86876EF5ECFC881&assignmentId=78641eb8-bf4a-4c0e-87be-337fe39b2208&projectId=a0a8f18c-a66e-4ba7-a170-23efbdc67501","A1C24BE44350472AB86876EF5ECFC881-2024-11-24-18-38-33","","null","","images/semantic_sequence/physical_activity_semantic/physical_activity_semantic_1.png","null","",""
"","","","","","image-button-response","26","421894","0.0-10.0-1.0-1.0","A1C24BE44350472AB86876EF5ECFC881","A1C24BE44350472AB86876EF5ECFC881","78641eb8-bf4a-4c0e-87be-337fe39b2208","a0a8f18c-a66e-4ba7-a170-23efbdc67501","{""participantId"":""A1C24BE44350472AB86876EF5ECFC881"",""assignmentId"":""78641eb8-bf4a-4c0e-87be-337fe39b2208"",""projectId"":""a0a8f18c-a66e-4ba7-a170-23efbdc67501""}","https://test12345.live/?participantId=A1C24BE44350472AB86876EF5ECFC881&assignmentId=78641eb8-bf4a-4c0e-87be-337fe39b2208&projectId=a0a8f18c-a66e-4ba7-a170-23efbdc67501","A1C24BE44350472AB86876EF5ECFC881-2024-11-24-18-38-33","","1413","","images/semantic_sequence/physical_activity_semantic/physical_activity_semantic_1.png","0","",""
"","","","","","image-button-response","27","423707","0.0-10.0-1.0-2.0","A1C24BE44350472AB86876EF5ECFC881","A1C24BE44350472AB86876EF5ECFC881","78641eb8-bf4a-4c0e-87be-337fe39b2208","a0a8f18c-a66e-4ba7-a170-23efbdc67501","{""participantId"":""A1C24BE44350472AB86876EF5ECFC881"",""assignmentId"":""78641eb8-bf4a-4c0e-87be-337fe39b2208"",""projectId"":""a0a8f18c-a66e-4ba7-a170-23efbdc67501""}","https://test12345.live/?participantId=A1C24BE44350472AB86876EF5ECFC881&assignmentId=78641eb8-bf4a-4c0e-87be-337fe39b2208&projectId=a0a8f18c-a66e-4ba7-a170-23efbdc67501","A1C24BE44350472AB86876EF5ECFC881-2024-11-24-18-38-33","","null","","[]","null","",""
"","","","","","image-button-response","28","428217","0.0-10.0-1.0-0.1","A1C24BE44350472AB86876EF5ECFC881","A1C24BE44350472AB86876EF5ECFC881","78641eb8-bf4a-4c0e-87be-337fe39b2208","a0a8f18c-a66e-4ba7-a170-23efbdc67501","{""participantId"":""A1C24BE44350472AB86876EF5ECFC881"",""assignmentId"":""78641eb8-bf4a-4c0e-87be-337fe39b2208"",""projectId"":""a0a8f18c-a66e-4ba7-a170-23efbdc67501""}","https://test12345.live/?participantId=A1C24BE44350472AB86876EF5ECFC881&assignmentId=78641eb8-bf4a-4c0e-87be-337fe39b2208&projectId=a0a8f18c-a66e-4ba7-a170-23efbdc67501","A1C24BE44350472AB86876EF5ECFC881-2024-11-24-18-38-33","","null","","images/semantic_sequence/physical_activity_semantic/physical_activity_semantic_2.png","null","",""
"","","","","","image-button-response","29","429624","0.0-10.0-1.0-1.1","A1C24BE44350472AB86876EF5ECFC881","A1C24BE44350472AB86876EF5ECFC881","78641eb8-bf4a-4c0e-87be-337fe39b2208","a0a8f18c-a66e-4ba7-a170-23efbdc67501","{""participantId"":""A1C24BE44350472AB86876EF5ECFC881"",""assignmentId"":""78641eb8-bf4a-4c0e-87be-337fe39b2208"",""projectId"":""a0a8f18c-a66e-4ba7-a170-23efbdc67501""}","https://test12345.live/?participantId=A1C24BE44350472AB86876EF5ECFC881&assignmentId=78641eb8-bf4a-4c0e-87be-337fe39b2208&projectId=a0a8f18c-a66e-4ba7-a170-23efbdc67501","A1C24BE44350472AB86876EF5ECFC881-2024-11-24-18-38-33","","1404","","images/semantic_sequence/physical_activity_semantic/physical_activity_semantic_2.png","0","",""
"","","","","","image-button-response","30","431435","0.0-10.0-1.0-2.1","A1C24BE44350472AB86876EF5ECFC881","A1C24BE44350472AB86876EF5ECFC881","78641eb8-bf4a-4c0e-87be-337fe39b2208","a0a8f18c-a66e-4ba7-a170-23efbdc67501","{""participantId"":""A1C24BE44350472AB86876EF5ECFC881"",""assignmentId"":""78641eb8-bf4a-4c0e-87be-337fe39b2208"",""projectId"":""a0a8f18c-a66e-4ba7-a170-23efbdc67501""}","https://test12345.live/?participantId=A1C24BE44350472AB86876EF5ECFC881&assignmentId=78641eb8-bf4a-4c0e-87be-337fe39b2208&projectId=a0a8f18c-a66e-4ba7-a170-23efbdc67501","A1C24BE44350472AB86876EF5ECFC881-2024-11-24-18-38-33","","null","","[]","null","",""
"","","","","","image-button-response","31","435947","0.0-10.0-1.0-0.2","A1C24BE44350472AB86876EF5ECFC881","A1C24BE44350472AB86876EF5ECFC881","78641eb8-bf4a-4c0e-87be-337fe39b2208","a0a8f18c-a66e-4ba7-a170-23efbdc67501","{""participantId"":""A1C24BE44350472AB86876EF5ECFC881"",""assignmentId"":""78641eb8-bf4a-4c0e-87be-337fe39b2208"",""projectId"":""a0a8f18c-a66e-4ba7-a170-23efbdc67501""}","https://test12345.live/?participantId=A1C24BE44350472AB86876EF5ECFC881&assignmentId=78641eb8-bf4a-4c0e-87be-337fe39b2208&projectId=a0a8f18c-a66e-4ba7-a170-23efbdc67501","A1C24BE44350472AB86876EF5ECFC881-2024-11-24-18-38-33","","null","","images/semantic_sequence/physical_activity_semantic/physical_activity_semantic_3.png","null","",""
"","","","","","image-button-response","32","438217","0.0-10.0-1.0-1.2","A1C24BE44350472AB86876EF5ECFC881","A1C24BE44350472AB86876EF5ECFC881","78641eb8-bf4a-4c0e-87be-337fe39b2208","a0a8f18c-a66e-4ba7-a170-23efbdc67501","{""participantId"":""A1C24BE44350472AB86876EF5ECFC881"",""assignmentId"":""78641eb8-bf4a-4c0e-87be-337fe39b2208"",""projectId"":""a0a8f18c-a66e-4ba7-a170-23efbdc67501""}","https://test12345.live/?participantId=A1C24BE44350472AB86876EF5ECFC881&assignmentId=78641eb8-bf4a-4c0e-87be-337fe39b2208&projectId=a0a8f18c-a66e-4ba7-a170-23efbdc67501","A1C24BE44350472AB86876EF5ECFC881-2024-11-24-18-38-33","","2268","","images/semantic_sequence/physical_activity_semantic/physical_activity_semantic_3.png","0","",""
"","","","","","image-button-response","33","440021","0.0-10.0-1.0-2.2","A1C24BE44350472AB86876EF5ECFC881","A1C24BE44350472AB86876EF5ECFC881","78641eb8-bf4a-4c0e-87be-337fe39b2208","a0a8f18c-a66e-4ba7-a170-23efbdc67501","{""participantId"":""A1C24BE44350472AB86876EF5ECFC881"",""assignmentId"":""78641eb8-bf4a-4c0e-87be-337fe39b2208"",""projectId"":""a0a8f18c-a66e-4ba7-a170-23efbdc67501""}","https://test12345.live/?participantId=A1C24BE44350472AB86876EF5ECFC881&assignmentId=78641eb8-bf4a-4c0e-87be-337fe39b2208&projectId=a0a8f18c-a66e-4ba7-a170-23efbdc67501","A1C24BE44350472AB86876EF5ECFC881-2024-11-24-18-38-33","","null","","[]","null","",""
"","","","","","image-button-response","34","444533","0.0-10.0-1.0-0.3","A1C24BE44350472AB86876EF5ECFC881","A1C24BE44350472AB86876EF5ECFC881","78641eb8-bf4a-4c0e-87be-337fe39b2208","a0a8f18c-a66e-4ba7-a170-23efbdc67501","{""participantId"":""A1C24BE44350472AB86876EF5ECFC881"",""assignmentId"":""78641eb8-bf4a-4c0e-87be-337fe39b2208"",""projectId"":""a0a8f18c-a66e-4ba7-a170-23efbdc67501""}","https://test12345.live/?participantId=A1C24BE44350472AB86876EF5ECFC881&assignmentId=78641eb8-bf4a-4c0e-87be-337fe39b2208&projectId=a0a8f18c-a66e-4ba7-a170-23efbdc67501","A1C24BE44350472AB86876EF5ECFC881-2024-11-24-18-38-33","","null","","images/semantic_sequence/physical_activity_semantic/physical_activity_semantic_4.png","null","",""
"","","","","","image-button-response","35","445849","0.0-10.0-1.0-1.3","A1C24BE44350472AB86876EF5ECFC881","A1C24BE44350472AB86876EF5ECFC881","78641eb8-bf4a-4c0e-87be-337fe39b2208","a0a8f18c-a66e-4ba7-a170-23efbdc67501","{""participantId"":""A1C24BE44350472AB86876EF5ECFC881"",""assignmentId"":""78641eb8-bf4a-4c0e-87be-337fe39b2208"",""projectId"":""a0a8f18c-a66e-4ba7-a170-23efbdc67501""}","https://test12345.live/?participantId=A1C24BE44350472AB86876EF5ECFC881&assignmentId=78641eb8-bf4a-4c0e-87be-337fe39b2208&projectId=a0a8f18c-a66e-4ba7-a170-23efbdc67501","A1C24BE44350472AB86876EF5ECFC881-2024-11-24-18-38-33","","1314","","images/semantic_sequence/physical_activity_semantic/physical_activity_semantic_4.png","0","",""
"","","","","","image-button-response","36","447659","0.0-10.0-1.0-2.3","A1C24BE44350472AB86876EF5ECFC881","A1C24BE44350472AB86876EF5ECFC881","78641eb8-bf4a-4c0e-87be-337fe39b2208","a0a8f18c-a66e-4ba7-a170-23efbdc67501","{""participantId"":""A1C24BE44350472AB86876EF5ECFC881"",""assignmentId"":""78641eb8-bf4a-4c0e-87be-337fe39b2208"",""projectId"":""a0a8f18c-a66e-4ba7-a170-23efbdc67501""}","https://test12345.live/?participantId=A1C24BE44350472AB86876EF5ECFC881&assignmentId=78641eb8-bf4a-4c0e-87be-337fe39b2208&projectId=a0a8f18c-a66e-4ba7-a170-23efbdc67501","A1C24BE44350472AB86876EF5ECFC881-2024-11-24-18-38-33","","null","","[]","null","",""
"","","","","","image-button-response","37","452171","0.0-10.0-1.0-0.4","A1C24BE44350472AB86876EF5ECFC881","A1C24BE44350472AB86876EF5ECFC881","78641eb8-bf4a-4c0e-87be-337fe39b2208","a0a8f18c-a66e-4ba7-a170-23efbdc67501","{""participantId"":""A1C24BE44350472AB86876EF5ECFC881"",""assignmentId"":""78641eb8-bf4a-4c0e-87be-337fe39b2208"",""projectId"":""a0a8f18c-a66e-4ba7-a170-23efbdc67501""}","https://test12345.live/?participantId=A1C24BE44350472AB86876EF5ECFC881&assignmentId=78641eb8-bf4a-4c0e-87be-337fe39b2208&projectId=a0a8f18c-a66e-4ba7-a170-23efbdc67501","A1C24BE44350472AB86876EF5ECFC881-2024-11-24-18-38-33","","null","","images/semantic_sequence/physical_activity_semantic/physical_activity_semantic_5.png","null","",""
"","","","","","image-button-response","38","455002","0.0-10.0-1.0-1.4","A1C24BE44350472AB86876EF5ECFC881","A1C24BE44350472AB86876EF5ECFC881","78641eb8-bf4a-4c0e-87be-337fe39b2208","a0a8f18c-a66e-4ba7-a170-23efbdc67501","{""participantId"":""A1C24BE44350472AB86876EF5ECFC881"",""assignmentId"":""78641eb8-bf4a-4c0e-87be-337fe39b2208"",""projectId"":""a0a8f18c-a66e-4ba7-a170-23efbdc67501""}","https://test12345.live/?participantId=A1C24BE44350472AB86876EF5ECFC881&assignmentId=78641eb8-bf4a-4c0e-87be-337fe39b2208&projectId=a0a8f18c-a66e-4ba7-a170-23efbdc67501","A1C24BE44350472AB86876EF5ECFC881-2024-11-24-18-38-33","","2829","","images/semantic_sequence/physical_activity_semantic/physical_activity_semantic_5.png","0","",""
"","","","","","image-button-response","39","456813","0.0-10.0-1.0-2.4","A1C24BE44350472AB86876EF5ECFC881","A1C24BE44350472AB86876EF5ECFC881","78641eb8-bf4a-4c0e-87be-337fe39b2208","a0a8f18c-a66e-4ba7-a170-23efbdc67501","{""participantId"":""A1C24BE44350472AB86876EF5ECFC881"",""assignmentId"":""78641eb8-bf4a-4c0e-87be-337fe39b2208"",""projectId"":""a0a8f18c-a66e-4ba7-a170-23efbdc67501""}","https://test12345.live/?participantId=A1C24BE44350472AB86876EF5ECFC881&assignmentId=78641eb8-bf4a-4c0e-87be-337fe39b2208&projectId=a0a8f18c-a66e-4ba7-a170-23efbdc67501","A1C24BE44350472AB86876EF5ECFC881-2024-11-24-18-38-33","","null","","[]","null","",""
"","","","","","image-button-response","40","461325","0.0-10.0-1.0-0.5","A1C24BE44350472AB86876EF5ECFC881","A1C24BE44350472AB86876EF5ECFC881","78641eb8-bf4a-4c0e-87be-337fe39b2208","a0a8f18c-a66e-4ba7-a170-23efbdc67501","{""participantId"":""A1C24BE44350472AB86876EF5ECFC881"",""assignmentId"":""78641eb8-bf4a-4c0e-87be-337fe39b2208"",""projectId"":""a0a8f18c-a66e-4ba7-a170-23efbdc67501""}","https://test12345.live/?participantId=A1C24BE44350472AB86876EF5ECFC881&assignmentId=78641eb8-bf4a-4c0e-87be-337fe39b2208&projectId=a0a8f18c-a66e-4ba7-a170-23efbdc67501","A1C24BE44350472AB86876EF5ECFC881-2024-11-24-18-38-33","","null","","images/semantic_sequence/physical_activity_semantic/physical_activity_semantic_6.png","null","",""
"","","","","","image-button-response","41","463650","0.0-10.0-1.0-1.5","A1C24BE44350472AB86876EF5ECFC881","A1C24BE44350472AB86876EF5ECFC881","78641eb8-bf4a-4c0e-87be-337fe39b2208","a0a8f18c-a66e-4ba7-a170-23efbdc67501","{""participantId"":""A1C24BE44350472AB86876EF5ECFC881"",""assignmentId"":""78641eb8-bf4a-4c0e-87be-337fe39b2208"",""projectId"":""a0a8f18c-a66e-4ba7-a170-23efbdc67501""}","https://test12345.live/?participantId=A1C24BE44350472AB86876EF5ECFC881&assignmentId=78641eb8-bf4a-4c0e-87be-337fe39b2208&projectId=a0a8f18c-a66e-4ba7-a170-23efbdc67501","A1C24BE44350472AB86876EF5ECFC881-2024-11-24-18-38-33","","2323","","images/semantic_sequence/physical_activity_semantic/physical_activity_semantic_6.png","0","",""
"","","","","","image-button-response","42","465464","0.0-10.0-1.0-2.5","A1C24BE44350472AB86876EF5ECFC881","A1C24BE44350472AB86876EF5ECFC881","78641eb8-bf4a-4c0e-87be-337fe39b2208","a0a8f18c-a66e-4ba7-a170-23efbdc67501","{""participantId"":""A1C24BE44350472AB86876EF5ECFC881"",""assignmentId"":""78641eb8-bf4a-4c0e-87be-337fe39b2208"",""projectId"":""a0a8f18c-a66e-4ba7-a170-23efbdc67501""}","https://test12345.live/?participantId=A1C24BE44350472AB86876EF5ECFC881&assignmentId=78641eb8-bf4a-4c0e-87be-337fe39b2208&projectId=a0a8f18c-a66e-4ba7-a170-23efbdc67501","A1C24BE44350472AB86876EF5ECFC881-2024-11-24-18-38-33","","null","","[]","null","",""
"","","","","","image-button-response","43","469977","0.0-10.0-1.0-0.6","A1C24BE44350472AB86876EF5ECFC881","A1C24BE44350472AB86876EF5ECFC881","78641eb8-bf4a-4c0e-87be-337fe39b2208","a0a8f18c-a66e-4ba7-a170-23efbdc67501","{""participantId"":""A1C24BE44350472AB86876EF5ECFC881"",""assignmentId"":""78641eb8-bf4a-4c0e-87be-337fe39b2208"",""projectId"":""a0a8f18c-a66e-4ba7-a170-23efbdc67501""}","https://test12345.live/?participantId=A1C24BE44350472AB86876EF5ECFC881&assignmentId=78641eb8-bf4a-4c0e-87be-337fe39b2208&projectId=a0a8f18c-a66e-4ba7-a170-23efbdc67501","A1C24BE44350472AB86876EF5ECFC881-2024-11-24-18-38-33","","null","","images/semantic_sequence/physical_activity_semantic/physical_activity_semantic_7.png","null","",""
"","","","","","image-button-response","44","470836","0.0-10.0-1.0-1.6","A1C24BE44350472AB86876EF5ECFC881","A1C24BE44350472AB86876EF5ECFC881","78641eb8-bf4a-4c0e-87be-337fe39b2208","a0a8f18c-a66e-4ba7-a170-23efbdc67501","{""participantId"":""A1C24BE44350472AB86876EF5ECFC881"",""assignmentId"":""78641eb8-bf4a-4c0e-87be-337fe39b2208"",""projectId"":""a0a8f18c-a66e-4ba7-a170-23efbdc67501""}","https://test12345.live/?participantId=A1C24BE44350472AB86876EF5ECFC881&assignmentId=78641eb8-bf4a-4c0e-87be-337fe39b2208&projectId=a0a8f18c-a66e-4ba7-a170-23efbdc67501","A1C24BE44350472AB86876EF5ECFC881-2024-11-24-18-38-33","","857","","images/semantic_sequence/physical_activity_semantic/physical_activity_semantic_7.png","0","",""
"","","","","","image-button-response","45","472643","0.0-10.0-1.0-2.6","A1C24BE44350472AB86876EF5ECFC881","A1C24BE44350472AB86876EF5ECFC881","78641eb8-bf4a-4c0e-87be-337fe39b2208","a0a8f18c-a66e-4ba7-a170-23efbdc67501","{""participantId"":""A1C24BE44350472AB86876EF5ECFC881"",""assignmentId"":""78641eb8-bf4a-4c0e-87be-337fe39b2208"",""projectId"":""a0a8f18c-a66e-4ba7-a170-23efbdc67501""}","https://test12345.live/?participantId=A1C24BE44350472AB86876EF5ECFC881&assignmentId=78641eb8-bf4a-4c0e-87be-337fe39b2208&projectId=a0a8f18c-a66e-4ba7-a170-23efbdc67501","A1C24BE44350472AB86876EF5ECFC881-2024-11-24-18-38-33","","null","","[]","null","",""
"","","","","","image-button-response","46","477155","0.0-10.0-1.0-0.7","A1C24BE44350472AB86876EF5ECFC881","A1C24BE44350472AB86876EF5ECFC881","78641eb8-bf4a-4c0e-87be-337fe39b2208","a0a8f18c-a66e-4ba7-a170-23efbdc67501","{""participantId"":""A1C24BE44350472AB86876EF5ECFC881"",""assignmentId"":""78641eb8-bf4a-4c0e-87be-337fe39b2208"",""projectId"":""a0a8f18c-a66e-4ba7-a170-23efbdc67501""}","https://test12345.live/?participantId=A1C24BE44350472AB86876EF5ECFC881&assignmentId=78641eb8-bf4a-4c0e-87be-337fe39b2208&projectId=a0a8f18c-a66e-4ba7-a170-23efbdc67501","A1C24BE44350472AB86876EF5ECFC881-2024-11-24-18-38-33","","null","","images/semantic_sequence/physical_activity_semantic/physical_activity_semantic_8.png","null","",""
"","","","","","image-button-response","47","478764","0.0-10.0-1.0-1.7","A1C24BE44350472AB86876EF5ECFC881","A1C24BE44350472AB86876EF5ECFC881","78641eb8-bf4a-4c0e-87be-337fe39b2208","a0a8f18c-a66e-4ba7-a170-23efbdc67501","{""participantId"":""A1C24BE44350472AB86876EF5ECFC881"",""assignmentId"":""78641eb8-bf4a-4c0e-87be-337fe39b2208"",""projectId"":""a0a8f18c-a66e-4ba7-a170-23efbdc67501""}","https://test12345.live/?participantId=A1C24BE44350472AB86876EF5ECFC881&assignmentId=78641eb8-bf4a-4c0e-87be-337fe39b2208&projectId=a0a8f18c-a66e-4ba7-a170-23efbdc67501","A1C24BE44350472AB86876EF5ECFC881-2024-11-24-18-38-33","","1607","","images/semantic_sequence/physical_activity_semantic/physical_activity_semantic_8.png","0","",""
"","","","","","image-button-response","48","480568","0.0-10.0-1.0-2.7","A1C24BE44350472AB86876EF5ECFC881","A1C24BE44350472AB86876EF5ECFC881","78641eb8-bf4a-4c0e-87be-337fe39b2208","a0a8f18c-a66e-4ba7-a170-23efbdc67501","{""participantId"":""A1C24BE44350472AB86876EF5ECFC881"",""assignmentId"":""78641eb8-bf4a-4c0e-87be-337fe39b2208"",""projectId"":""a0a8f18c-a66e-4ba7-a170-23efbdc67501""}","https://test12345.live/?participantId=A1C24BE44350472AB86876EF5ECFC881&assignmentId=78641eb8-bf4a-4c0e-87be-337fe39b2208&projectId=a0a8f18c-a66e-4ba7-a170-23efbdc67501","A1C24BE44350472AB86876EF5ECFC881-2024-11-24-18-38-33","","null","","[]","null","",""
"","","","","","image-button-response","49","485076","0.0-10.0-1.0-0.8","A1C24BE44350472AB86876EF5ECFC881","A1C24BE44350472AB86876EF5ECFC881","78641eb8-bf4a-4c0e-87be-337fe39b2208","a0a8f18c-a66e-4ba7-a170-23efbdc67501","{""participantId"":""A1C24BE44350472AB86876EF5ECFC881"",""assignmentId"":""78641eb8-bf4a-4c0e-87be-337fe39b2208"",""projectId"":""a0a8f18c-a66e-4ba7-a170-23efbdc67501""}","https://test12345.live/?participantId=A1C24BE44350472AB86876EF5ECFC881&assignmentId=78641eb8-bf4a-4c0e-87be-337fe39b2208&projectId=a0a8f18c-a66e-4ba7-a170-23efbdc67501","A1C24BE44350472AB86876EF5ECFC881-2024-11-24-18-38-33","","null","","images/semantic_sequence/physical_activity_semantic/physical_activity_semantic_9.png","null","",""
"","","","","","image-button-response","50","486486","0.0-10.0-1.0-1.8","A1C24BE44350472AB86876EF5ECFC881","A1C24BE44350472AB86876EF5ECFC881","78641eb8-bf4a-4c0e-87be-337fe39b2208","a0a8f18c-a66e-4ba7-a170-23efbdc67501","{""participantId"":""A1C24BE44350472AB86876EF5ECFC881"",""assignmentId"":""78641eb8-bf4a-4c0e-87be-337fe39b2208"",""projectId"":""a0a8f18c-a66e-4ba7-a170-23efbdc67501""}","https://test12345.live/?participantId=A1C24BE44350472AB86876EF5ECFC881&assignmentId=78641eb8-bf4a-4c0e-87be-337fe39b2208&projectId=a0a8f18c-a66e-4ba7-a170-23efbdc67501","A1C24BE44350472AB86876EF5ECFC881-2024-11-24-18-38-33","","1407","","images/semantic_sequence/physical_activity_semantic/physical_activity_semantic_9.png","0","",""
"","","","","","image-button-response","51","488295","0.0-10.0-1.0-2.8","A1C24BE44350472AB86876EF5ECFC881","A1C24BE44350472AB86876EF5ECFC881","78641eb8-bf4a-4c0e-87be-337fe39b2208","a0a8f18c-a66e-4ba7-a170-23efbdc67501","{""participantId"":""A1C24BE44350472AB86876EF5ECFC881"",""assignmentId"":""78641eb8-bf4a-4c0e-87be-337fe39b2208"",""projectId"":""a0a8f18c-a66e-4ba7-a170-23efbdc67501""}","https://test12345.live/?participantId=A1C24BE44350472AB86876EF5ECFC881&assignmentId=78641eb8-bf4a-4c0e-87be-337fe39b2208&projectId=a0a8f18c-a66e-4ba7-a170-23efbdc67501","A1C24BE44350472AB86876EF5ECFC881-2024-11-24-18-38-33","","null","","[]","null","",""
"","","","","","image-button-response","52","492806","0.0-10.0-1.0-0.9","A1C24BE44350472AB86876EF5ECFC881","A1C24BE44350472AB86876EF5ECFC881","78641eb8-bf4a-4c0e-87be-337fe39b2208","a0a8f18c-a66e-4ba7-a170-23efbdc67501","{""participantId"":""A1C24BE44350472AB86876EF5ECFC881"",""assignmentId"":""78641eb8-bf4a-4c0e-87be-337fe39b2208"",""projectId"":""a0a8f18c-a66e-4ba7-a170-23efbdc67501""}","https://test12345.live/?participantId=A1C24BE44350472AB86876EF5ECFC881&assignmentId=78641eb8-bf4a-4c0e-87be-337fe39b2208&projectId=a0a8f18c-a66e-4ba7-a170-23efbdc67501","A1C24BE44350472AB86876EF5ECFC881-2024-11-24-18-38-33","","null","","images/semantic_sequence/physical_activity_semantic/physical_activity_semantic_ten.png","null","",""
"","","","","","image-button-response","53","493942","0.0-10.0-1.0-1.9","A1C24BE44350472AB86876EF5ECFC881","A1C24BE44350472AB86876EF5ECFC881","78641eb8-bf4a-4c0e-87be-337fe39b2208","a0a8f18c-a66e-4ba7-a170-23efbdc67501","{""participantId"":""A1C24BE44350472AB86876EF5ECFC881"",""assignmentId"":""78641eb8-bf4a-4c0e-87be-337fe39b2208"",""projectId"":""a0a8f18c-a66e-4ba7-a170-23efbdc67501""}","https://test12345.live/?participantId=A1C24BE44350472AB86876EF5ECFC881&assignmentId=78641eb8-bf4a-4c0e-87be-337fe39b2208&projectId=a0a8f18c-a66e-4ba7-a170-23efbdc67501","A1C24BE44350472AB86876EF5ECFC881-2024-11-24-18-38-33","","1134","","images/semantic_sequence/physical_activity_semantic/physical_activity_semantic_ten.png","0","",""
"","","","","","image-button-response","54","495748","0.0-10.0-1.0-2.9","A1C24BE44350472AB86876EF5ECFC881","A1C24BE44350472AB86876EF5ECFC881","78641eb8-bf4a-4c0e-87be-337fe39b2208","a0a8f18c-a66e-4ba7-a170-23efbdc67501","{""participantId"":""A1C24BE44350472AB86876EF5ECFC881"",""assignmentId"":""78641eb8-bf4a-4c0e-87be-337fe39b2208"",""projectId"":""a0a8f18c-a66e-4ba7-a170-23efbdc67501""}","https://test12345.live/?participantId=A1C24BE44350472AB86876EF5ECFC881&assignmentId=78641eb8-bf4a-4c0e-87be-337fe39b2208&projectId=a0a8f18c-a66e-4ba7-a170-23efbdc67501","A1C24BE44350472AB86876EF5ECFC881-2024-11-24-18-38-33","","null","","[]","null","",""
"","","","","","html-audio-response","55","524456","0.0-11.0","A1C24BE44350472AB86876EF5ECFC881","A1C24BE44350472AB86876EF5ECFC881","78641eb8-bf4a-4c0e-87be-337fe39b2208","a0a8f18c-a66e-4ba7-a170-23efbdc67501","{""participantId"":""A1C24BE44350472AB86876EF5ECFC881"",""assignmentId"":""78641eb8-bf4a-4c0e-87be-337fe39b2208"",""projectId"":""a0a8f18c-a66e-4ba7-a170-23efbdc67501""}","https://test12345.live/?participantId=A1C24BE44350472AB86876EF5ECFC881&assignmentId=78641eb8-bf4a-4c0e-87be-337fe39b2208&projectId=a0a8f18c-a66e-4ba7-a170-23efbdc67501","A1C24BE44350472AB86876EF5ECFC881-2024-11-24-18-38-33","","9348","","[""<span style=\""color: red; font-size: 24px\""> NOW RECORDING</span><p>Please say out loud all the images you saw, as many as you can remember. The images can be said in any order.</p>""]","","3","physical_activity_semantic"
"","","","","","image-button-response","56","530463","0.0-12.0-0.0","A1C24BE44350472AB86876EF5ECFC881","A1C24BE44350472AB86876EF5ECFC881","78641eb8-bf4a-4c0e-87be-337fe39b2208","a0a8f18c-a66e-4ba7-a170-23efbdc67501","{""participantId"":""A1C24BE44350472AB86876EF5ECFC881"",""assignmentId"":""78641eb8-bf4a-4c0e-87be-337fe39b2208"",""projectId"":""a0a8f18c-a66e-4ba7-a170-23efbdc67501""}","https://test12345.live/?participantId=A1C24BE44350472AB86876EF5ECFC881&assignmentId=78641eb8-bf4a-4c0e-87be-337fe39b2208&projectId=a0a8f18c-a66e-4ba7-a170-23efbdc67501","A1C24BE44350472AB86876EF5ECFC881-2024-11-24-18-38-33","","null","","images/causal_sequence/dog_causal/dog_causal_0.png","null","",""
"","","","","","image-button-response","57","534967","0.0-12.0-1.0-0.0","A1C24BE44350472AB86876EF5ECFC881","A1C24BE44350472AB86876EF5ECFC881","78641eb8-bf4a-4c0e-87be-337fe39b2208","a0a8f18c-a66e-4ba7-a170-23efbdc67501","{""participantId"":""A1C24BE44350472AB86876EF5ECFC881"",""assignmentId"":""78641eb8-bf4a-4c0e-87be-337fe39b2208"",""projectId"":""a0a8f18c-a66e-4ba7-a170-23efbdc67501""}","https://test12345.live/?participantId=A1C24BE44350472AB86876EF5ECFC881&assignmentId=78641eb8-bf4a-4c0e-87be-337fe39b2208&projectId=a0a8f18c-a66e-4ba7-a170-23efbdc67501","A1C24BE44350472AB86876EF5ECFC881-2024-11-24-18-38-33","","null","","images/causal_sequence/dog_causal/dog_causal_1.png","null","",""
"","","","","","image-button-response","58","536619","0.0-12.0-1.0-1.0","A1C24BE44350472AB86876EF5ECFC881","A1C24BE44350472AB86876EF5ECFC881","78641eb8-bf4a-4c0e-87be-337fe39b2208","a0a8f18c-a66e-4ba7-a170-23efbdc67501","{""participantId"":""A1C24BE44350472AB86876EF5ECFC881"",""assignmentId"":""78641eb8-bf4a-4c0e-87be-337fe39b2208"",""projectId"":""a0a8f18c-a66e-4ba7-a170-23efbdc67501""}","https://test12345.live/?participantId=A1C24BE44350472AB86876EF5ECFC881&assignmentId=78641eb8-bf4a-4c0e-87be-337fe39b2208&projectId=a0a8f18c-a66e-4ba7-a170-23efbdc67501","A1C24BE44350472AB86876EF5ECFC881-2024-11-24-18-38-33","","1651","","images/causal_sequence/dog_causal/dog_causal_1.png","0","",""
"","","","","","image-button-response","59","538422","0.0-12.0-1.0-2.0","A1C24BE44350472AB86876EF5ECFC881","A1C24BE44350472AB86876EF5ECFC881","78641eb8-bf4a-4c0e-87be-337fe39b2208","a0a8f18c-a66e-4ba7-a170-23efbdc67501","{""participantId"":""A1C24BE44350472AB86876EF5ECFC881"",""assignmentId"":""78641eb8-bf4a-4c0e-87be-337fe39b2208"",""projectId"":""a0a8f18c-a66e-4ba7-a170-23efbdc67501""}","https://test12345.live/?participantId=A1C24BE44350472AB86876EF5ECFC881&assignmentId=78641eb8-bf4a-4c0e-87be-337fe39b2208&projectId=a0a8f18c-a66e-4ba7-a170-23efbdc67501","A1C24BE44350472AB86876EF5ECFC881-2024-11-24-18-38-33","","null","","[]","null","",""
"","","","","","image-button-response","60","542932","0.0-12.0-1.0-0.1","A1C24BE44350472AB86876EF5ECFC881","A1C24BE44350472AB86876EF5ECFC881","78641eb8-bf4a-4c0e-87be-337fe39b2208","a0a8f18c-a66e-4ba7-a170-23efbdc67501","{""participantId"":""A1C24BE44350472AB86876EF5ECFC881"",""assignmentId"":""78641eb8-bf4a-4c0e-87be-337fe39b2208"",""projectId"":""a0a8f18c-a66e-4ba7-a170-23efbdc67501""}","https://test12345.live/?participantId=A1C24BE44350472AB86876EF5ECFC881&assignmentId=78641eb8-bf4a-4c0e-87be-337fe39b2208&projectId=a0a8f18c-a66e-4ba7-a170-23efbdc67501","A1C24BE44350472AB86876EF5ECFC881-2024-11-24-18-38-33","","null","","images/causal_sequence/dog_causal/dog_causal_2.png","null","",""
"","","","","","image-button-response","61","544060","0.0-12.0-1.0-1.1","A1C24BE44350472AB86876EF5ECFC881","A1C24BE44350472AB86876EF5ECFC881","78641eb8-bf4a-4c0e-87be-337fe39b2208","a0a8f18c-a66e-4ba7-a170-23efbdc67501","{""participantId"":""A1C24BE44350472AB86876EF5ECFC881"",""assignmentId"":""78641eb8-bf4a-4c0e-87be-337fe39b2208"",""projectId"":""a0a8f18c-a66e-4ba7-a170-23efbdc67501""}","https://test12345.live/?participantId=A1C24BE44350472AB86876EF5ECFC881&assignmentId=78641eb8-bf4a-4c0e-87be-337fe39b2208&projectId=a0a8f18c-a66e-4ba7-a170-23efbdc67501","A1C24BE44350472AB86876EF5ECFC881-2024-11-24-18-38-33","","1126","","images/causal_sequence/dog_causal/dog_causal_2.png","0","",""
"","","","","","image-button-response","62","545868","0.0-12.0-1.0-2.1","A1C24BE44350472AB86876EF5ECFC881","A1C24BE44350472AB86876EF5ECFC881","78641eb8-bf4a-4c0e-87be-337fe39b2208","a0a8f18c-a66e-4ba7-a170-23efbdc67501","{""participantId"":""A1C24BE44350472AB86876EF5ECFC881"",""assignmentId"":""78641eb8-bf4a-4c0e-87be-337fe39b2208"",""projectId"":""a0a8f18c-a66e-4ba7-a170-23efbdc67501""}","https://test12345.live/?participantId=A1C24BE44350472AB86876EF5ECFC881&assignmentId=78641eb8-bf4a-4c0e-87be-337fe39b2208&projectId=a0a8f18c-a66e-4ba7-a170-23efbdc67501","A1C24BE44350472AB86876EF5ECFC881-2024-11-24-18-38-33","","null","","[]","null","",""
"","","","","","image-button-response","63","550379","0.0-12.0-1.0-0.2","A1C24BE44350472AB86876EF5ECFC881","A1C24BE44350472AB86876EF5ECFC881","78641eb8-bf4a-4c0e-87be-337fe39b2208","a0a8f18c-a66e-4ba7-a170-23efbdc67501","{""participantId"":""A1C24BE44350472AB86876EF5ECFC881"",""assignmentId"":""78641eb8-bf4a-4c0e-87be-337fe39b2208"",""projectId"":""a0a8f18c-a66e-4ba7-a170-23efbdc67501""}","https://test12345.live/?participantId=A1C24BE44350472AB86876EF5ECFC881&assignmentId=78641eb8-bf4a-4c0e-87be-337fe39b2208&projectId=a0a8f18c-a66e-4ba7-a170-23efbdc67501","A1C24BE44350472AB86876EF5ECFC881-2024-11-24-18-38-33","","null","","images/causal_sequence/dog_causal/dog_causal_3.png","null","",""
"","","","","","image-button-response","64","551453","0.0-12.0-1.0-1.2","A1C24BE44350472AB86876EF5ECFC881","A1C24BE44350472AB86876EF5ECFC881","78641eb8-bf4a-4c0e-87be-337fe39b2208","a0a8f18c-a66e-4ba7-a170-23efbdc67501","{""participantId"":""A1C24BE44350472AB86876EF5ECFC881"",""assignmentId"":""78641eb8-bf4a-4c0e-87be-337fe39b2208"",""projectId"":""a0a8f18c-a66e-4ba7-a170-23efbdc67501""}","https://test12345.live/?participantId=A1C24BE44350472AB86876EF5ECFC881&assignmentId=78641eb8-bf4a-4c0e-87be-337fe39b2208&projectId=a0a8f18c-a66e-4ba7-a170-23efbdc67501","A1C24BE44350472AB86876EF5ECFC881-2024-11-24-18-38-33","","1072","","images/causal_sequence/dog_causal/dog_causal_3.png","0","",""
"","","","","","image-button-response","65","553267","0.0-12.0-1.0-2.2","A1C24BE44350472AB86876EF5ECFC881","A1C24BE44350472AB86876EF5ECFC881","78641eb8-bf4a-4c0e-87be-337fe39b2208","a0a8f18c-a66e-4ba7-a170-23efbdc67501","{""participantId"":""A1C24BE44350472AB86876EF5ECFC881"",""assignmentId"":""78641eb8-bf4a-4c0e-87be-337fe39b2208"",""projectId"":""a0a8f18c-a66e-4ba7-a170-23efbdc67501""}","https://test12345.live/?participantId=A1C24BE44350472AB86876EF5ECFC881&assignmentId=78641eb8-bf4a-4c0e-87be-337fe39b2208&projectId=a0a8f18c-a66e-4ba7-a170-23efbdc67501","A1C24BE44350472AB86876EF5ECFC881-2024-11-24-18-38-33","","null","","[]","null","",""
"","","","","","image-button-response","66","557783","0.0-12.0-1.0-0.3","A1C24BE44350472AB86876EF5ECFC881","A1C24BE44350472AB86876EF5ECFC881","78641eb8-bf4a-4c0e-87be-337fe39b2208","a0a8f18c-a66e-4ba7-a170-23efbdc67501","{""participantId"":""A1C24BE44350472AB86876EF5ECFC881"",""assignmentId"":""78641eb8-bf4a-4c0e-87be-337fe39b2208"",""projectId"":""a0a8f18c-a66e-4ba7-a170-23efbdc67501""}","https://test12345.live/?participantId=A1C24BE44350472AB86876EF5ECFC881&assignmentId=78641eb8-bf4a-4c0e-87be-337fe39b2208&projectId=a0a8f18c-a66e-4ba7-a170-23efbdc67501","A1C24BE44350472AB86876EF5ECFC881-2024-11-24-18-38-33","","null","","images/causal_sequence/dog_causal/dog_causal_4.png","null","",""
"","","","","","image-button-response","67","558930","0.0-12.0-1.0-1.3","A1C24BE44350472AB86876EF5ECFC881","A1C24BE44350472AB86876EF5ECFC881","78641eb8-bf4a-4c0e-87be-337fe39b2208","a0a8f18c-a66e-4ba7-a170-23efbdc67501","{""participantId"":""A1C24BE44350472AB86876EF5ECFC881"",""assignmentId"":""78641eb8-bf4a-4c0e-87be-337fe39b2208"",""projectId"":""a0a8f18c-a66e-4ba7-a170-23efbdc67501""}","https://test12345.live/?participantId=A1C24BE44350472AB86876EF5ECFC881&assignmentId=78641eb8-bf4a-4c0e-87be-337fe39b2208&projectId=a0a8f18c-a66e-4ba7-a170-23efbdc67501","A1C24BE44350472AB86876EF5ECFC881-2024-11-24-18-38-33","","1145","","images/causal_sequence/dog_causal/dog_causal_4.png","0","",""
"","","","","","image-button-response","68","560746","0.0-12.0-1.0-2.3","A1C24BE44350472AB86876EF5ECFC881","A1C24BE44350472AB86876EF5ECFC881","78641eb8-bf4a-4c0e-87be-337fe39b2208","a0a8f18c-a66e-4ba7-a170-23efbdc67501","{""participantId"":""A1C24BE44350472AB86876EF5ECFC881"",""assignmentId"":""78641eb8-bf4a-4c0e-87be-337fe39b2208"",""projectId"":""a0a8f18c-a66e-4ba7-a170-23efbdc67501""}","https://test12345.live/?participantId=A1C24BE44350472AB86876EF5ECFC881&assignmentId=78641eb8-bf4a-4c0e-87be-337fe39b2208&projectId=a0a8f18c-a66e-4ba7-a170-23efbdc67501","A1C24BE44350472AB86876EF5ECFC881-2024-11-24-18-38-33","","null","","[]","null","",""
"","","","","","image-button-response","69","565261","0.0-12.0-1.0-0.4","A1C24BE44350472AB86876EF5ECFC881","A1C24BE44350472AB86876EF5ECFC881","78641eb8-bf4a-4c0e-87be-337fe39b2208","a0a8f18c-a66e-4ba7-a170-23efbdc67501","{""participantId"":""A1C24BE44350472AB86876EF5ECFC881"",""assignmentId"":""78641eb8-bf4a-4c0e-87be-337fe39b2208"",""projectId"":""a0a8f18c-a66e-4ba7-a170-23efbdc67501""}","https://test12345.live/?participantId=A1C24BE44350472AB86876EF5ECFC881&assignmentId=78641eb8-bf4a-4c0e-87be-337fe39b2208&projectId=a0a8f18c-a66e-4ba7-a170-23efbdc67501","A1C24BE44350472AB86876EF5ECFC881-2024-11-24-18-38-33","","null","","images/causal_sequence/dog_causal/dog_causal_5.png","null","",""
"","","","","","image-button-response","70","566033","0.0-12.0-1.0-1.4","A1C24BE44350472AB86876EF5ECFC881","A1C24BE44350472AB86876EF5ECFC881","78641eb8-bf4a-4c0e-87be-337fe39b2208","a0a8f18c-a66e-4ba7-a170-23efbdc67501","{""participantId"":""A1C24BE44350472AB86876EF5ECFC881"",""assignmentId"":""78641eb8-bf4a-4c0e-87be-337fe39b2208"",""projectId"":""a0a8f18c-a66e-4ba7-a170-23efbdc67501""}","https://test12345.live/?participantId=A1C24BE44350472AB86876EF5ECFC881&assignmentId=78641eb8-bf4a-4c0e-87be-337fe39b2208&projectId=a0a8f18c-a66e-4ba7-a170-23efbdc67501","A1C24BE44350472AB86876EF5ECFC881-2024-11-24-18-38-33","","769","","images/causal_sequence/dog_causal/dog_causal_5.png","0","",""
"","","","","","image-button-response","71","567842","0.0-12.0-1.0-2.4","A1C24BE44350472AB86876EF5ECFC881","A1C24BE44350472AB86876EF5ECFC881","78641eb8-bf4a-4c0e-87be-337fe39b2208","a0a8f18c-a66e-4ba7-a170-23efbdc67501","{""participantId"":""A1C24BE44350472AB86876EF5ECFC881"",""assignmentId"":""78641eb8-bf4a-4c0e-87be-337fe39b2208"",""projectId"":""a0a8f18c-a66e-4ba7-a170-23efbdc67501""}","https://test12345.live/?participantId=A1C24BE44350472AB86876EF5ECFC881&assignmentId=78641eb8-bf4a-4c0e-87be-337fe39b2208&projectId=a0a8f18c-a66e-4ba7-a170-23efbdc67501","A1C24BE44350472AB86876EF5ECFC881-2024-11-24-18-38-33","","null","","[]","null","",""
"","","","","","image-button-response","72","572357","0.0-12.0-1.0-0.5","A1C24BE44350472AB86876EF5ECFC881","A1C24BE44350472AB86876EF5ECFC881","78641eb8-bf4a-4c0e-87be-337fe39b2208","a0a8f18c-a66e-4ba7-a170-23efbdc67501","{""participantId"":""A1C24BE44350472AB86876EF5ECFC881"",""assignmentId"":""78641eb8-bf4a-4c0e-87be-337fe39b2208"",""projectId"":""a0a8f18c-a66e-4ba7-a170-23efbdc67501""}","https://test12345.live/?participantId=A1C24BE44350472AB86876EF5ECFC881&assignmentId=78641eb8-bf4a-4c0e-87be-337fe39b2208&projectId=a0a8f18c-a66e-4ba7-a170-23efbdc67501","A1C24BE44350472AB86876EF5ECFC881-2024-11-24-18-38-33","","null","","images/causal_sequence/dog_causal/dog_causal_6.png","null","",""
"","","","","","image-button-response","73","573388","0.0-12.0-1.0-1.5","A1C24BE44350472AB86876EF5ECFC881","A1C24BE44350472AB86876EF5ECFC881","78641eb8-bf4a-4c0e-87be-337fe39b2208","a0a8f18c-a66e-4ba7-a170-23efbdc67501","{""participantId"":""A1C24BE44350472AB86876EF5ECFC881"",""assignmentId"":""78641eb8-bf4a-4c0e-87be-337fe39b2208"",""projectId"":""a0a8f18c-a66e-4ba7-a170-23efbdc67501""}","https://test12345.live/?participantId=A1C24BE44350472AB86876EF5ECFC881&assignmentId=78641eb8-bf4a-4c0e-87be-337fe39b2208&projectId=a0a8f18c-a66e-4ba7-a170-23efbdc67501","A1C24BE44350472AB86876EF5ECFC881-2024-11-24-18-38-33","","1029","","images/causal_sequence/dog_causal/dog_causal_6.png","0","",""
"","","","","","image-button-response","74","575193","0.0-12.0-1.0-2.5","A1C24BE44350472AB86876EF5ECFC881","A1C24BE44350472AB86876EF5ECFC881","78641eb8-bf4a-4c0e-87be-337fe39b2208","a0a8f18c-a66e-4ba7-a170-23efbdc67501","{""participantId"":""A1C24BE44350472AB86876EF5ECFC881"",""assignmentId"":""78641eb8-bf4a-4c0e-87be-337fe39b2208"",""projectId"":""a0a8f18c-a66e-4ba7-a170-23efbdc67501""}","https://test12345.live/?participantId=A1C24BE44350472AB86876EF5ECFC881&assignmentId=78641eb8-bf4a-4c0e-87be-337fe39b2208&projectId=a0a8f18c-a66e-4ba7-a170-23efbdc67501","A1C24BE44350472AB86876EF5ECFC881-2024-11-24-18-38-33","","null","","[]","null","",""
"","","","","","image-button-response","75","579699","0.0-12.0-1.0-0.6","A1C24BE44350472AB86876EF5ECFC881","A1C24BE44350472AB86876EF5ECFC881","78641eb8-bf4a-4c0e-87be-337fe39b2208","a0a8f18c-a66e-4ba7-a170-23efbdc67501","{""participantId"":""A1C24BE44350472AB86876EF5ECFC881"",""assignmentId"":""78641eb8-bf4a-4c0e-87be-337fe39b2208"",""projectId"":""a0a8f18c-a66e-4ba7-a170-23efbdc67501""}","https://test12345.live/?participantId=A1C24BE44350472AB86876EF5ECFC881&assignmentId=78641eb8-bf4a-4c0e-87be-337fe39b2208&projectId=a0a8f18c-a66e-4ba7-a170-23efbdc67501","A1C24BE44350472AB86876EF5ECFC881-2024-11-24-18-38-33","","null","","images/causal_sequence/dog_causal/dog_causal_7.png","null","",""
"","","","","","image-button-response","76","580758","0.0-12.0-1.0-1.6","A1C24BE44350472AB86876EF5ECFC881","A1C24BE44350472AB86876EF5ECFC881","78641eb8-bf4a-4c0e-87be-337fe39b2208","a0a8f18c-a66e-4ba7-a170-23efbdc67501","{""participantId"":""A1C24BE44350472AB86876EF5ECFC881"",""assignmentId"":""78641eb8-bf4a-4c0e-87be-337fe39b2208"",""projectId"":""a0a8f18c-a66e-4ba7-a170-23efbdc67501""}","https://test12345.live/?participantId=A1C24BE44350472AB86876EF5ECFC881&assignmentId=78641eb8-bf4a-4c0e-87be-337fe39b2208&projectId=a0a8f18c-a66e-4ba7-a170-23efbdc67501","A1C24BE44350472AB86876EF5ECFC881-2024-11-24-18-38-33","","1056","","images/causal_sequence/dog_causal/dog_causal_7.png","0","",""
"","","","","","image-button-response","77","582567","0.0-12.0-1.0-2.6","A1C24BE44350472AB86876EF5ECFC881","A1C24BE44350472AB86876EF5ECFC881","78641eb8-bf4a-4c0e-87be-337fe39b2208","a0a8f18c-a66e-4ba7-a170-23efbdc67501","{""participantId"":""A1C24BE44350472AB86876EF5ECFC881"",""assignmentId"":""78641eb8-bf4a-4c0e-87be-337fe39b2208"",""projectId"":""a0a8f18c-a66e-4ba7-a170-23efbdc67501""}","https://test12345.live/?participantId=A1C24BE44350472AB86876EF5ECFC881&assignmentId=78641eb8-bf4a-4c0e-87be-337fe39b2208&projectId=a0a8f18c-a66e-4ba7-a170-23efbdc67501","A1C24BE44350472AB86876EF5ECFC881-2024-11-24-18-38-33","","null","","[]","null","",""
"","","","","","image-button-response","78","587083","0.0-12.0-1.0-0.7","A1C24BE44350472AB86876EF5ECFC881","A1C24BE44350472AB86876EF5ECFC881","78641eb8-bf4a-4c0e-87be-337fe39b2208","a0a8f18c-a66e-4ba7-a170-23efbdc67501","{""participantId"":""A1C24BE44350472AB86876EF5ECFC881"",""assignmentId"":""78641eb8-bf4a-4c0e-87be-337fe39b2208"",""projectId"":""a0a8f18c-a66e-4ba7-a170-23efbdc67501""}","https://test12345.live/?participantId=A1C24BE44350472AB86876EF5ECFC881&assignmentId=78641eb8-bf4a-4c0e-87be-337fe39b2208&projectId=a0a8f18c-a66e-4ba7-a170-23efbdc67501","A1C24BE44350472AB86876EF5ECFC881-2024-11-24-18-38-33","","null","","images/causal_sequence/dog_causal/dog_causal_8.png","null","",""
"","","","","","image-button-response","79","587990","0.0-12.0-1.0-1.7","A1C24BE44350472AB86876EF5ECFC881","A1C24BE44350472AB86876EF5ECFC881","78641eb8-bf4a-4c0e-87be-337fe39b2208","a0a8f18c-a66e-4ba7-a170-23efbdc67501","{""participantId"":""A1C24BE44350472AB86876EF5ECFC881"",""assignmentId"":""78641eb8-bf4a-4c0e-87be-337fe39b2208"",""projectId"":""a0a8f18c-a66e-4ba7-a170-23efbdc67501""}","https://test12345.live/?participantId=A1C24BE44350472AB86876EF5ECFC881&assignmentId=78641eb8-bf4a-4c0e-87be-337fe39b2208&projectId=a0a8f18c-a66e-4ba7-a170-23efbdc67501","A1C24BE44350472AB86876EF5ECFC881-2024-11-24-18-38-33","","906","","images/causal_sequence/dog_causal/dog_causal_8.png","0","",""
"","","","","","image-button-response","80","589800","0.0-12.0-1.0-2.7","A1C24BE44350472AB86876EF5ECFC881","A1C24BE44350472AB86876EF5ECFC881","78641eb8-bf4a-4c0e-87be-337fe39b2208","a0a8f18c-a66e-4ba7-a170-23efbdc67501","{""participantId"":""A1C24BE44350472AB86876EF5ECFC881"",""assignmentId"":""78641eb8-bf4a-4c0e-87be-337fe39b2208"",""projectId"":""a0a8f18c-a66e-4ba7-a170-23efbdc67501""}","https://test12345.live/?participantId=A1C24BE44350472AB86876EF5ECFC881&assignmentId=78641eb8-bf4a-4c0e-87be-337fe39b2208&projectId=a0a8f18c-a66e-4ba7-a170-23efbdc67501","A1C24BE44350472AB86876EF5ECFC881-2024-11-24-18-38-33","","null","","[]","null","",""
"","","","","","image-button-response","81","594311","0.0-12.0-1.0-0.8","A1C24BE44350472AB86876EF5ECFC881","A1C24BE44350472AB86876EF5ECFC881","78641eb8-bf4a-4c0e-87be-337fe39b2208","a0a8f18c-a66e-4ba7-a170-23efbdc67501","{""participantId"":""A1C24BE44350472AB86876EF5ECFC881"",""assignmentId"":""78641eb8-bf4a-4c0e-87be-337fe39b2208"",""projectId"":""a0a8f18c-a66e-4ba7-a170-23efbdc67501""}","https://test12345.live/?participantId=A1C24BE44350472AB86876EF5ECFC881&assignmentId=78641eb8-bf4a-4c0e-87be-337fe39b2208&projectId=a0a8f18c-a66e-4ba7-a170-23efbdc67501","A1C24BE44350472AB86876EF5ECFC881-2024-11-24-18-38-33","","null","","images/causal_sequence/dog_causal/dog_causal_9.png","null","",""
"","","","","","image-button-response","82","595620","0.0-12.0-1.0-1.8","A1C24BE44350472AB86876EF5ECFC881","A1C24BE44350472AB86876EF5ECFC881","78641eb8-bf4a-4c0e-87be-337fe39b2208","a0a8f18c-a66e-4ba7-a170-23efbdc67501","{""participantId"":""A1C24BE44350472AB86876EF5ECFC881"",""assignmentId"":""78641eb8-bf4a-4c0e-87be-337fe39b2208"",""projectId"":""a0a8f18c-a66e-4ba7-a170-23efbdc67501""}","https://test12345.live/?participantId=A1C24BE44350472AB86876EF5ECFC881&assignmentId=78641eb8-bf4a-4c0e-87be-337fe39b2208&projectId=a0a8f18c-a66e-4ba7-a170-23efbdc67501","A1C24BE44350472AB86876EF5ECFC881-2024-11-24-18-38-33","","1307","","images/causal_sequence/dog_causal/dog_causal_9.png","0","",""
"","","","","","image-button-response","83","597437","0.0-12.0-1.0-2.8","A1C24BE44350472AB86876EF5ECFC881","A1C24BE44350472AB86876EF5ECFC881","78641eb8-bf4a-4c0e-87be-337fe39b2208","a0a8f18c-a66e-4ba7-a170-23efbdc67501","{""participantId"":""A1C24BE44350472AB86876EF5ECFC881"",""assignmentId"":""78641eb8-bf4a-4c0e-87be-337fe39b2208"",""projectId"":""a0a8f18c-a66e-4ba7-a170-23efbdc67501""}","https://test12345.live/?participantId=A1C24BE44350472AB86876EF5ECFC881&assignmentId=78641eb8-bf4a-4c0e-87be-337fe39b2208&projectId=a0a8f18c-a66e-4ba7-a170-23efbdc67501","A1C24BE44350472AB86876EF5ECFC881-2024-11-24-18-38-33","","null","","[]","null","",""
"","","","","","image-button-response","84","601950","0.0-12.0-1.0-0.9","A1C24BE44350472AB86876EF5ECFC881","A1C24BE44350472AB86876EF5ECFC881","78641eb8-bf4a-4c0e-87be-337fe39b2208","a0a8f18c-a66e-4ba7-a170-23efbdc67501","{""participantId"":""A1C24BE44350472AB86876EF5ECFC881"",""assignmentId"":""78641eb8-bf4a-4c0e-87be-337fe39b2208"",""projectId"":""a0a8f18c-a66e-4ba7-a170-23efbdc67501""}","https://test12345.live/?participantId=A1C24BE44350472AB86876EF5ECFC881&assignmentId=78641eb8-bf4a-4c0e-87be-337fe39b2208&projectId=a0a8f18c-a66e-4ba7-a170-23efbdc67501","A1C24BE44350472AB86876EF5ECFC881-2024-11-24-18-38-33","","null","","images/causal_sequence/dog_causal/dog_causal_ten.png","null","",""
"","","","","","image-button-response","85","603127","0.0-12.0-1.0-1.9","A1C24BE44350472AB86876EF5ECFC881","A1C24BE44350472AB86876EF5ECFC881","78641eb8-bf4a-4c0e-87be-337fe39b2208","a0a8f18c-a66e-4ba7-a170-23efbdc67501","{""participantId"":""A1C24BE44350472AB86876EF5ECFC881"",""assignmentId"":""78641eb8-bf4a-4c0e-87be-337fe39b2208"",""projectId"":""a0a8f18c-a66e-4ba7-a170-23efbdc67501""}","https://test12345.live/?participantId=A1C24BE44350472AB86876EF5ECFC881&assignmentId=78641eb8-bf4a-4c0e-87be-337fe39b2208&projectId=a0a8f18c-a66e-4ba7-a170-23efbdc67501","A1C24BE44350472AB86876EF5ECFC881-2024-11-24-18-38-33","","1175","","images/causal_sequence/dog_causal/dog_causal_ten.png","0","",""
"","","","","","image-button-response","86","604944","0.0-12.0-1.0-2.9","A1C24BE44350472AB86876EF5ECFC881","A1C24BE44350472AB86876EF5ECFC881","78641eb8-bf4a-4c0e-87be-337fe39b2208","a0a8f18c-a66e-4ba7-a170-23efbdc67501","{""participantId"":""A1C24BE44350472AB86876EF5ECFC881"",""assignmentId"":""78641eb8-bf4a-4c0e-87be-337fe39b2208"",""projectId"":""a0a8f18c-a66e-4ba7-a170-23efbdc67501""}","https://test12345.live/?participantId=A1C24BE44350472AB86876EF5ECFC881&assignmentId=78641eb8-bf4a-4c0e-87be-337fe39b2208&projectId=a0a8f18c-a66e-4ba7-a170-23efbdc67501","A1C24BE44350472AB86876EF5ECFC881-2024-11-24-18-38-33","","null","","[]","null","",""
"","","","","","html-audio-response","87","637687","0.0-13.0","A1C24BE44350472AB86876EF5ECFC881","A1C24BE44350472AB86876EF5ECFC881","78641eb8-bf4a-4c0e-87be-337fe39b2208","a0a8f18c-a66e-4ba7-a170-23efbdc67501","{""participantId"":""A1C24BE44350472AB86876EF5ECFC881"",""assignmentId"":""78641eb8-bf4a-4c0e-87be-337fe39b2208"",""projectId"":""a0a8f18c-a66e-4ba7-a170-23efbdc67501""}","https://test12345.live/?participantId=A1C24BE44350472AB86876EF5ECFC881&assignmentId=78641eb8-bf4a-4c0e-87be-337fe39b2208&projectId=a0a8f18c-a66e-4ba7-a170-23efbdc67501","A1C24BE44350472AB86876EF5ECFC881-2024-11-24-18-38-33","","25821","","[""<span style=\""color: red; font-size: 24px\""> NOW RECORDING</span><p>Please say out loud all the images you saw, as many as you can remember. The images can be said in any order.</p>""]","","2","dog_causal"
"","","","","","image-button-response","88","643705","0.0-14.0-0.0","A1C24BE44350472AB86876EF5ECFC881","A1C24BE44350472AB86876EF5ECFC881","78641eb8-bf4a-4c0e-87be-337fe39b2208","a0a8f18c-a66e-4ba7-a170-23efbdc67501","{""participantId"":""A1C24BE44350472AB86876EF5ECFC881"",""assignmentId"":""78641eb8-bf4a-4c0e-87be-337fe39b2208"",""projectId"":""a0a8f18c-a66e-4ba7-a170-23efbdc67501""}","https://test12345.live/?participantId=A1C24BE44350472AB86876EF5ECFC881&assignmentId=78641eb8-bf4a-4c0e-87be-337fe39b2208&projectId=a0a8f18c-a66e-4ba7-a170-23efbdc67501","A1C24BE44350472AB86876EF5ECFC881-2024-11-24-18-38-33","","null","","images/schematic_sequence/flight_scheme/flight_scheme_0.png","null","",""
"","","","","","image-button-response","89","648211","0.0-14.0-1.0-0.0","A1C24BE44350472AB86876EF5ECFC881","A1C24BE44350472AB86876EF5ECFC881","78641eb8-bf4a-4c0e-87be-337fe39b2208","a0a8f18c-a66e-4ba7-a170-23efbdc67501","{""participantId"":""A1C24BE44350472AB86876EF5ECFC881"",""assignmentId"":""78641eb8-bf4a-4c0e-87be-337fe39b2208"",""projectId"":""a0a8f18c-a66e-4ba7-a170-23efbdc67501""}","https://test12345.live/?participantId=A1C24BE44350472AB86876EF5ECFC881&assignmentId=78641eb8-bf4a-4c0e-87be-337fe39b2208&projectId=a0a8f18c-a66e-4ba7-a170-23efbdc67501","A1C24BE44350472AB86876EF5ECFC881-2024-11-24-18-38-33","","null","","images/schematic_sequence/flight_scheme/flight_scheme_2.png","null","",""
"","","","","","image-button-response","90","649369","0.0-14.0-1.0-1.0","A1C24BE44350472AB86876EF5ECFC881","A1C24BE44350472AB86876EF5ECFC881","78641eb8-bf4a-4c0e-87be-337fe39b2208","a0a8f18c-a66e-4ba7-a170-23efbdc67501","{""participantId"":""A1C24BE44350472AB86876EF5ECFC881"",""assignmentId"":""78641eb8-bf4a-4c0e-87be-337fe39b2208"",""projectId"":""a0a8f18c-a66e-4ba7-a170-23efbdc67501""}","https://test12345.live/?participantId=A1C24BE44350472AB86876EF5ECFC881&assignmentId=78641eb8-bf4a-4c0e-87be-337fe39b2208&projectId=a0a8f18c-a66e-4ba7-a170-23efbdc67501","A1C24BE44350472AB86876EF5ECFC881-2024-11-24-18-38-33","","1157","","images/schematic_sequence/flight_scheme/flight_scheme_2.png","1","",""
"","","","","","image-button-response","91","651184","0.0-14.0-1.0-2.0","A1C24BE44350472AB86876EF5ECFC881","A1C24BE44350472AB86876EF5ECFC881","78641eb8-bf4a-4c0e-87be-337fe39b2208","a0a8f18c-a66e-4ba7-a170-23efbdc67501","{""participantId"":""A1C24BE44350472AB86876EF5ECFC881"",""assignmentId"":""78641eb8-bf4a-4c0e-87be-337fe39b2208"",""projectId"":""a0a8f18c-a66e-4ba7-a170-23efbdc67501""}","https://test12345.live/?participantId=A1C24BE44350472AB86876EF5ECFC881&assignmentId=78641eb8-bf4a-4c0e-87be-337fe39b2208&projectId=a0a8f18c-a66e-4ba7-a170-23efbdc67501","A1C24BE44350472AB86876EF5ECFC881-2024-11-24-18-38-33","","null","","[]","null","",""
"","","","","","image-button-response","92","655698","0.0-14.0-1.0-0.1","A1C24BE44350472AB86876EF5ECFC881","A1C24BE44350472AB86876EF5ECFC881","78641eb8-bf4a-4c0e-87be-337fe39b2208","a0a8f18c-a66e-4ba7-a170-23efbdc67501","{""participantId"":""A1C24BE44350472AB86876EF5ECFC881"",""assignmentId"":""78641eb8-bf4a-4c0e-87be-337fe39b2208"",""projectId"":""a0a8f18c-a66e-4ba7-a170-23efbdc67501""}","https://test12345.live/?participantId=A1C24BE44350472AB86876EF5ECFC881&assignmentId=78641eb8-bf4a-4c0e-87be-337fe39b2208&projectId=a0a8f18c-a66e-4ba7-a170-23efbdc67501","A1C24BE44350472AB86876EF5ECFC881-2024-11-24-18-38-33","","null","","images/schematic_sequence/flight_scheme/flight_scheme_ten.png","null","",""
"","","","","","image-button-response","93","657276","0.0-14.0-1.0-1.1","A1C24BE44350472AB86876EF5ECFC881","A1C24BE44350472AB86876EF5ECFC881","78641eb8-bf4a-4c0e-87be-337fe39b2208","a0a8f18c-a66e-4ba7-a170-23efbdc67501","{""participantId"":""A1C24BE44350472AB86876EF5ECFC881"",""assignmentId"":""78641eb8-bf4a-4c0e-87be-337fe39b2208"",""projectId"":""a0a8f18c-a66e-4ba7-a170-23efbdc67501""}","https://test12345.live/?participantId=A1C24BE44350472AB86876EF5ECFC881&assignmentId=78641eb8-bf4a-4c0e-87be-337fe39b2208&projectId=a0a8f18c-a66e-4ba7-a170-23efbdc67501","A1C24BE44350472AB86876EF5ECFC881-2024-11-24-18-38-33","","1576","","images/schematic_sequence/flight_scheme/flight_scheme_ten.png","0","",""
"","","","","","image-button-response","94","659081","0.0-14.0-1.0-2.1","A1C24BE44350472AB86876EF5ECFC881","A1C24BE44350472AB86876EF5ECFC881","78641eb8-bf4a-4c0e-87be-337fe39b2208","a0a8f18c-a66e-4ba7-a170-23efbdc67501","{""participantId"":""A1C24BE44350472AB86876EF5ECFC881"",""assignmentId"":""78641eb8-bf4a-4c0e-87be-337fe39b2208"",""projectId"":""a0a8f18c-a66e-4ba7-a170-23efbdc67501""}","https://test12345.live/?participantId=A1C24BE44350472AB86876EF5ECFC881&assignmentId=78641eb8-bf4a-4c0e-87be-337fe39b2208&projectId=a0a8f18c-a66e-4ba7-a170-23efbdc67501","A1C24BE44350472AB86876EF5ECFC881-2024-11-24-18-38-33","","null","","[]","null","",""
"","","","","","image-button-response","95","663594","0.0-14.0-1.0-0.2","A1C24BE44350472AB86876EF5ECFC881","A1C24BE44350472AB86876EF5ECFC881","78641eb8-bf4a-4c0e-87be-337fe39b2208","a0a8f18c-a66e-4ba7-a170-23efbdc67501","{""participantId"":""A1C24BE44350472AB86876EF5ECFC881"",""assignmentId"":""78641eb8-bf4a-4c0e-87be-337fe39b2208"",""projectId"":""a0a8f18c-a66e-4ba7-a170-23efbdc67501""}","https://test12345.live/?participantId=A1C24BE44350472AB86876EF5ECFC881&assignmentId=78641eb8-bf4a-4c0e-87be-337fe39b2208&projectId=a0a8f18c-a66e-4ba7-a170-23efbdc67501","A1C24BE44350472AB86876EF5ECFC881-2024-11-24-18-38-33","","null","","images/schematic_sequence/flight_scheme/flight_scheme_5.png","null","",""
"","","","","","image-button-response","96","664907","0.0-14.0-1.0-1.2","A1C24BE44350472AB86876EF5ECFC881","A1C24BE44350472AB86876EF5ECFC881","78641eb8-bf4a-4c0e-87be-337fe39b2208","a0a8f18c-a66e-4ba7-a170-23efbdc67501","{""participantId"":""A1C24BE44350472AB86876EF5ECFC881"",""assignmentId"":""78641eb8-bf4a-4c0e-87be-337fe39b2208"",""projectId"":""a0a8f18c-a66e-4ba7-a170-23efbdc67501""}","https://test12345.live/?participantId=A1C24BE44350472AB86876EF5ECFC881&assignmentId=78641eb8-bf4a-4c0e-87be-337fe39b2208&projectId=a0a8f18c-a66e-4ba7-a170-23efbdc67501","A1C24BE44350472AB86876EF5ECFC881-2024-11-24-18-38-33","","1311","","images/schematic_sequence/flight_scheme/flight_scheme_5.png","0","",""
"","","","","","image-button-response","97","666725","0.0-14.0-1.0-2.2","A1C24BE44350472AB86876EF5ECFC881","A1C24BE44350472AB86876EF5ECFC881","78641eb8-bf4a-4c0e-87be-337fe39b2208","a0a8f18c-a66e-4ba7-a170-23efbdc67501","{""participantId"":""A1C24BE44350472AB86876EF5ECFC881"",""assignmentId"":""78641eb8-bf4a-4c0e-87be-337fe39b2208"",""projectId"":""a0a8f18c-a66e-4ba7-a170-23efbdc67501""}","https://test12345.live/?participantId=A1C24BE44350472AB86876EF5ECFC881&assignmentId=78641eb8-bf4a-4c0e-87be-337fe39b2208&projectId=a0a8f18c-a66e-4ba7-a170-23efbdc67501","A1C24BE44350472AB86876EF5ECFC881-2024-11-24-18-38-33","","null","","[]","null","",""
"","","","","","image-button-response","98","671241","0.0-14.0-1.0-0.3","A1C24BE44350472AB86876EF5ECFC881","A1C24BE44350472AB86876EF5ECFC881","78641eb8-bf4a-4c0e-87be-337fe39b2208","a0a8f18c-a66e-4ba7-a170-23efbdc67501","{""participantId"":""A1C24BE44350472AB86876EF5ECFC881"",""assignmentId"":""78641eb8-bf4a-4c0e-87be-337fe39b2208"",""projectId"":""a0a8f18c-a66e-4ba7-a170-23efbdc67501""}","https://test12345.live/?participantId=A1C24BE44350472AB86876EF5ECFC881&assignmentId=78641eb8-bf4a-4c0e-87be-337fe39b2208&projectId=a0a8f18c-a66e-4ba7-a170-23efbdc67501","A1C24BE44350472AB86876EF5ECFC881-2024-11-24-18-38-33","","null","","images/schematic_sequence/flight_scheme/flight_scheme_1.png","null","",""
"","","","","","image-button-response","99","673487","0.0-14.0-1.0-1.3","A1C24BE44350472AB86876EF5ECFC881","A1C24BE44350472AB86876EF5ECFC881","78641eb8-bf4a-4c0e-87be-337fe39b2208","a0a8f18c-a66e-4ba7-a170-23efbdc67501","{""participantId"":""A1C24BE44350472AB86876EF5ECFC881"",""assignmentId"":""78641eb8-bf4a-4c0e-87be-337fe39b2208"",""projectId"":""a0a8f18c-a66e-4ba7-a170-23efbdc67501""}","https://test12345.live/?participantId=A1C24BE44350472AB86876EF5ECFC881&assignmentId=78641eb8-bf4a-4c0e-87be-337fe39b2208&projectId=a0a8f18c-a66e-4ba7-a170-23efbdc67501","A1C24BE44350472AB86876EF5ECFC881-2024-11-24-18-38-33","","2245","","images/schematic_sequence/flight_scheme/flight_scheme_1.png","1","",""
"","","","","","image-button-response","100","675289","0.0-14.0-1.0-2.3","A1C24BE44350472AB86876EF5ECFC881","A1C24BE44350472AB86876EF5ECFC881","78641eb8-bf4a-4c0e-87be-337fe39b2208","a0a8f18c-a66e-4ba7-a170-23efbdc67501","{""participantId"":""A1C24BE44350472AB86876EF5ECFC881"",""assignmentId"":""78641eb8-bf4a-4c0e-87be-337fe39b2208"",""projectId"":""a0a8f18c-a66e-4ba7-a170-23efbdc67501""}","https://test12345.live/?participantId=A1C24BE44350472AB86876EF5ECFC881&assignmentId=78641eb8-bf4a-4c0e-87be-337fe39b2208&projectId=a0a8f18c-a66e-4ba7-a170-23efbdc67501","A1C24BE44350472AB86876EF5ECFC881-2024-11-24-18-38-33","","null","","[]","null","",""
"","","","","","image-button-response","101","679793","0.0-14.0-1.0-0.4","A1C24BE44350472AB86876EF5ECFC881","A1C24BE44350472AB86876EF5ECFC881","78641eb8-bf4a-4c0e-87be-337fe39b2208","a0a8f18c-a66e-4ba7-a170-23efbdc67501","{""participantId"":""A1C24BE44350472AB86876EF5ECFC881"",""assignmentId"":""78641eb8-bf4a-4c0e-87be-337fe39b2208"",""projectId"":""a0a8f18c-a66e-4ba7-a170-23efbdc67501""}","https://test12345.live/?participantId=A1C24BE44350472AB86876EF5ECFC881&assignmentId=78641eb8-bf4a-4c0e-87be-337fe39b2208&projectId=a0a8f18c-a66e-4ba7-a170-23efbdc67501","A1C24BE44350472AB86876EF5ECFC881-2024-11-24-18-38-33","","null","","images/schematic_sequence/flight_scheme/flight_scheme_3.png","null","",""
"","","","","","image-button-response","102","682288","0.0-14.0-1.0-1.4","A1C24BE44350472AB86876EF5ECFC881","A1C24BE44350472AB86876EF5ECFC881","78641eb8-bf4a-4c0e-87be-337fe39b2208","a0a8f18c-a66e-4ba7-a170-23efbdc67501","{""participantId"":""A1C24BE44350472AB86876EF5ECFC881"",""assignmentId"":""78641eb8-bf4a-4c0e-87be-337fe39b2208"",""projectId"":""a0a8f18c-a66e-4ba7-a170-23efbdc67501""}","https://test12345.live/?participantId=A1C24BE44350472AB86876EF5ECFC881&assignmentId=78641eb8-bf4a-4c0e-87be-337fe39b2208&projectId=a0a8f18c-a66e-4ba7-a170-23efbdc67501","A1C24BE44350472AB86876EF5ECFC881-2024-11-24-18-38-33","","2494","","images/schematic_sequence/flight_scheme/flight_scheme_3.png","0","",""
"","","","","","image-button-response","103","684097","0.0-14.0-1.0-2.4","A1C24BE44350472AB86876EF5ECFC881","A1C24BE44350472AB86876EF5ECFC881","78641eb8-bf4a-4c0e-87be-337fe39b2208","a0a8f18c-a66e-4ba7-a170-23efbdc67501","{""participantId"":""A1C24BE44350472AB86876EF5ECFC881"",""assignmentId"":""78641eb8-bf4a-4c0e-87be-337fe39b2208"",""projectId"":""a0a8f18c-a66e-4ba7-a170-23efbdc67501""}","https://test12345.live/?participantId=A1C24BE44350472AB86876EF5ECFC881&assignmentId=78641eb8-bf4a-4c0e-87be-337fe39b2208&projectId=a0a8f18c-a66e-4ba7-a170-23efbdc67501","A1C24BE44350472AB86876EF5ECFC881-2024-11-24-18-38-33","","null","","[]","null","",""
"","","","","","image-button-response","104","688602","0.0-14.0-1.0-0.5","A1C24BE44350472AB86876EF5ECFC881","A1C24BE44350472AB86876EF5ECFC881","78641eb8-bf4a-4c0e-87be-337fe39b2208","a0a8f18c-a66e-4ba7-a170-23efbdc67501","{""participantId"":""A1C24BE44350472AB86876EF5ECFC881"",""assignmentId"":""78641eb8-bf4a-4c0e-87be-337fe39b2208"",""projectId"":""a0a8f18c-a66e-4ba7-a170-23efbdc67501""}","https://test12345.live/?participantId=A1C24BE44350472AB86876EF5ECFC881&assignmentId=78641eb8-bf4a-4c0e-87be-337fe39b2208&projectId=a0a8f18c-a66e-4ba7-a170-23efbdc67501","A1C24BE44350472AB86876EF5ECFC881-2024-11-24-18-38-33","","null","","images/schematic_sequence/flight_scheme/flight_scheme_8.png","null","",""
"","","","","","image-button-response","105","689394","0.0-14.0-1.0-1.5","A1C24BE44350472AB86876EF5ECFC881","A1C24BE44350472AB86876EF5ECFC881","78641eb8-bf4a-4c0e-87be-337fe39b2208","a0a8f18c-a66e-4ba7-a170-23efbdc67501","{""participantId"":""A1C24BE44350472AB86876EF5ECFC881"",""assignmentId"":""78641eb8-bf4a-4c0e-87be-337fe39b2208"",""projectId"":""a0a8f18c-a66e-4ba7-a170-23efbdc67501""}","https://test12345.live/?participantId=A1C24BE44350472AB86876EF5ECFC881&assignmentId=78641eb8-bf4a-4c0e-87be-337fe39b2208&projectId=a0a8f18c-a66e-4ba7-a170-23efbdc67501","A1C24BE44350472AB86876EF5ECFC881-2024-11-24-18-38-33","","789","","images/schematic_sequence/flight_scheme/flight_scheme_8.png","1","",""
"","","","","","image-button-response","106","691211","0.0-14.0-1.0-2.5","A1C24BE44350472AB86876EF5ECFC881","A1C24BE44350472AB86876EF5ECFC881","78641eb8-bf4a-4c0e-87be-337fe39b2208","a0a8f18c-a66e-4ba7-a170-23efbdc67501","{""participantId"":""A1C24BE44350472AB86876EF5ECFC881"",""assignmentId"":""78641eb8-bf4a-4c0e-87be-337fe39b2208"",""projectId"":""a0a8f18c-a66e-4ba7-a170-23efbdc67501""}","https://test12345.live/?participantId=A1C24BE44350472AB86876EF5ECFC881&assignmentId=78641eb8-bf4a-4c0e-87be-337fe39b2208&projectId=a0a8f18c-a66e-4ba7-a170-23efbdc67501","A1C24BE44350472AB86876EF5ECFC881-2024-11-24-18-38-33","","null","","[]","null","",""
"","","","","","image-button-response","107","695712","0.0-14.0-1.0-0.6","A1C24BE44350472AB86876EF5ECFC881","A1C24BE44350472AB86876EF5ECFC881","78641eb8-bf4a-4c0e-87be-337fe39b2208","a0a8f18c-a66e-4ba7-a170-23efbdc67501","{""participantId"":""A1C24BE44350472AB86876EF5ECFC881"",""assignmentId"":""78641eb8-bf4a-4c0e-87be-337fe39b2208"",""projectId"":""a0a8f18c-a66e-4ba7-a170-23efbdc67501""}","https://test12345.live/?participantId=A1C24BE44350472AB86876EF5ECFC881&assignmentId=78641eb8-bf4a-4c0e-87be-337fe39b2208&projectId=a0a8f18c-a66e-4ba7-a170-23efbdc67501","A1C24BE44350472AB86876EF5ECFC881-2024-11-24-18-38-33","","null","","images/schematic_sequence/flight_scheme/flight_scheme_7.png","null","",""
"","","","","","image-button-response","108","698569","0.0-14.0-1.0-1.6","A1C24BE44350472AB86876EF5ECFC881","A1C24BE44350472AB86876EF5ECFC881","78641eb8-bf4a-4c0e-87be-337fe39b2208","a0a8f18c-a66e-4ba7-a170-23efbdc67501","{""participantId"":""A1C24BE44350472AB86876EF5ECFC881"",""assignmentId"":""78641eb8-bf4a-4c0e-87be-337fe39b2208"",""projectId"":""a0a8f18c-a66e-4ba7-a170-23efbdc67501""}","https://test12345.live/?participantId=A1C24BE44350472AB86876EF5ECFC881&assignmentId=78641eb8-bf4a-4c0e-87be-337fe39b2208&projectId=a0a8f18c-a66e-4ba7-a170-23efbdc67501","A1C24BE44350472AB86876EF5ECFC881-2024-11-24-18-38-33","","2854","","images/schematic_sequence/flight_scheme/flight_scheme_7.png","1","",""
"","","","","","image-button-response","109","700383","0.0-14.0-1.0-2.6","A1C24BE44350472AB86876EF5ECFC881","A1C24BE44350472AB86876EF5ECFC881","78641eb8-bf4a-4c0e-87be-337fe39b2208","a0a8f18c-a66e-4ba7-a170-23efbdc67501","{""participantId"":""A1C24BE44350472AB86876EF5ECFC881"",""assignmentId"":""78641eb8-bf4a-4c0e-87be-337fe39b2208"",""projectId"":""a0a8f18c-a66e-4ba7-a170-23efbdc67501""}","https://test12345.live/?participantId=A1C24BE44350472AB86876EF5ECFC881&assignmentId=78641eb8-bf4a-4c0e-87be-337fe39b2208&projectId=a0a8f18c-a66e-4ba7-a170-23efbdc67501","A1C24BE44350472AB86876EF5ECFC881-2024-11-24-18-38-33","","null","","[]","null","",""
"","","","","","image-button-response","110","704890","0.0-14.0-1.0-0.7","A1C24BE44350472AB86876EF5ECFC881","A1C24BE44350472AB86876EF5ECFC881","78641eb8-bf4a-4c0e-87be-337fe39b2208","a0a8f18c-a66e-4ba7-a170-23efbdc67501","{""participantId"":""A1C24BE44350472AB86876EF5ECFC881"",""assignmentId"":""78641eb8-bf4a-4c0e-87be-337fe39b2208"",""projectId"":""a0a8f18c-a66e-4ba7-a170-23efbdc67501""}","https://test12345.live/?participantId=A1C24BE44350472AB86876EF5ECFC881&assignmentId=78641eb8-bf4a-4c0e-87be-337fe39b2208&projectId=a0a8f18c-a66e-4ba7-a170-23efbdc67501","A1C24BE44350472AB86876EF5ECFC881-2024-11-24-18-38-33","","null","","images/schematic_sequence/flight_scheme/flight_scheme_6.png","null","",""
"","","","","","image-button-response","111","706457","0.0-14.0-1.0-1.7","A1C24BE44350472AB86876EF5ECFC881","A1C24BE44350472AB86876EF5ECFC881","78641eb8-bf4a-4c0e-87be-337fe39b2208","a0a8f18c-a66e-4ba7-a170-23efbdc67501","{""participantId"":""A1C24BE44350472AB86876EF5ECFC881"",""assignmentId"":""78641eb8-bf4a-4c0e-87be-337fe39b2208"",""projectId"":""a0a8f18c-a66e-4ba7-a170-23efbdc67501""}","https://test12345.live/?participantId=A1C24BE44350472AB86876EF5ECFC881&assignmentId=78641eb8-bf4a-4c0e-87be-337fe39b2208&projectId=a0a8f18c-a66e-4ba7-a170-23efbdc67501","A1C24BE44350472AB86876EF5ECFC881-2024-11-24-18-38-33","","1565","","images/schematic_sequence/flight_scheme/flight_scheme_6.png","1","",""
"","","","","","image-button-response","112","708260","0.0-14.0-1.0-2.7","A1C24BE44350472AB86876EF5ECFC881","A1C24BE44350472AB86876EF5ECFC881","78641eb8-bf4a-4c0e-87be-337fe39b2208","a0a8f18c-a66e-4ba7-a170-23efbdc67501","{""participantId"":""A1C24BE44350472AB86876EF5ECFC881"",""assignmentId"":""78641eb8-bf4a-4c0e-87be-337fe39b2208"",""projectId"":""a0a8f18c-a66e-4ba7-a170-23efbdc67501""}","https://test12345.live/?participantId=A1C24BE44350472AB86876EF5ECFC881&assignmentId=78641eb8-bf4a-4c0e-87be-337fe39b2208&projectId=a0a8f18c-a66e-4ba7-a170-23efbdc67501","A1C24BE44350472AB86876EF5ECFC881-2024-11-24-18-38-33","","null","","[]","null","",""
"","","","","","image-button-response","113","712777","0.0-14.0-1.0-0.8","A1C24BE44350472AB86876EF5ECFC881","A1C24BE44350472AB86876EF5ECFC881","78641eb8-bf4a-4c0e-87be-337fe39b2208","a0a8f18c-a66e-4ba7-a170-23efbdc67501","{""participantId"":""A1C24BE44350472AB86876EF5ECFC881"",""assignmentId"":""78641eb8-bf4a-4c0e-87be-337fe39b2208"",""projectId"":""a0a8f18c-a66e-4ba7-a170-23efbdc67501""}","https://test12345.live/?participantId=A1C24BE44350472AB86876EF5ECFC881&assignmentId=78641eb8-bf4a-4c0e-87be-337fe39b2208&projectId=a0a8f18c-a66e-4ba7-a170-23efbdc67501","A1C24BE44350472AB86876EF5ECFC881-2024-11-24-18-38-33","","null","","images/schematic_sequence/flight_scheme/flight_scheme_9.png","null","",""
"","","","","","image-button-response","114","714502","0.0-14.0-1.0-1.8","A1C24BE44350472AB86876EF5ECFC881","A1C24BE44350472AB86876EF5ECFC881","78641eb8-bf4a-4c0e-87be-337fe39b2208","a0a8f18c-a66e-4ba7-a170-23efbdc67501","{""participantId"":""A1C24BE44350472AB86876EF5ECFC881"",""assignmentId"":""78641eb8-bf4a-4c0e-87be-337fe39b2208"",""projectId"":""a0a8f18c-a66e-4ba7-a170-23efbdc67501""}","https://test12345.live/?participantId=A1C24BE44350472AB86876EF5ECFC881&assignmentId=78641eb8-bf4a-4c0e-87be-337fe39b2208&projectId=a0a8f18c-a66e-4ba7-a170-23efbdc67501","A1C24BE44350472AB86876EF5ECFC881-2024-11-24-18-38-33","","1723","","images/schematic_sequence/flight_scheme/flight_scheme_9.png","0","",""
"","","","","","image-button-response","115","716303","0.0-14.0-1.0-2.8","A1C24BE44350472AB86876EF5ECFC881","A1C24BE44350472AB86876EF5ECFC881","78641eb8-bf4a-4c0e-87be-337fe39b2208","a0a8f18c-a66e-4ba7-a170-23efbdc67501","{""participantId"":""A1C24BE44350472AB86876EF5ECFC881"",""assignmentId"":""78641eb8-bf4a-4c0e-87be-337fe39b2208"",""projectId"":""a0a8f18c-a66e-4ba7-a170-23efbdc67501""}","https://test12345.live/?participantId=A1C24BE44350472AB86876EF5ECFC881&assignmentId=78641eb8-bf4a-4c0e-87be-337fe39b2208&projectId=a0a8f18c-a66e-4ba7-a170-23efbdc67501","A1C24BE44350472AB86876EF5ECFC881-2024-11-24-18-38-33","","null","","[]","null","",""
"","","","","","image-button-response","116","720812","0.0-14.0-1.0-0.9","A1C24BE44350472AB86876EF5ECFC881","A1C24BE44350472AB86876EF5ECFC881","78641eb8-bf4a-4c0e-87be-337fe39b2208","a0a8f18c-a66e-4ba7-a170-23efbdc67501","{""participantId"":""A1C24BE44350472AB86876EF5ECFC881"",""assignmentId"":""78641eb8-bf4a-4c0e-87be-337fe39b2208"",""projectId"":""a0a8f18c-a66e-4ba7-a170-23efbdc67501""}","https://test12345.live/?participantId=A1C24BE44350472AB86876EF5ECFC881&assignmentId=78641eb8-bf4a-4c0e-87be-337fe39b2208&projectId=a0a8f18c-a66e-4ba7-a170-23efbdc67501","A1C24BE44350472AB86876EF5ECFC881-2024-11-24-18-38-33","","null","","images/schematic_sequence/flight_scheme/flight_scheme_4.png","null","",""
"","","","","","image-button-response","117","722407","0.0-14.0-1.0-1.9","A1C24BE44350472AB86876EF5ECFC881","A1C24BE44350472AB86876EF5ECFC881","78641eb8-bf4a-4c0e-87be-337fe39b2208","a0a8f18c-a66e-4ba7-a170-23efbdc67501","{""participantId"":""A1C24BE44350472AB86876EF5ECFC881"",""assignmentId"":""78641eb8-bf4a-4c0e-87be-337fe39b2208"",""projectId"":""a0a8f18c-a66e-4ba7-a170-23efbdc67501""}","https://test12345.live/?participantId=A1C24BE44350472AB86876EF5ECFC881&assignmentId=78641eb8-bf4a-4c0e-87be-337fe39b2208&projectId=a0a8f18c-a66e-4ba7-a170-23efbdc67501","A1C24BE44350472AB86876EF5ECFC881-2024-11-24-18-38-33","","1593","","images/schematic_sequence/flight_scheme/flight_scheme_4.png","0","",""
"","","","","","image-button-response","118","724225","0.0-14.0-1.0-2.9","A1C24BE44350472AB86876EF5ECFC881","A1C24BE44350472AB86876EF5ECFC881","78641eb8-bf4a-4c0e-87be-337fe39b2208","a0a8f18c-a66e-4ba7-a170-23efbdc67501","{""participantId"":""A1C24BE44350472AB86876EF5ECFC881"",""assignmentId"":""78641eb8-bf4a-4c0e-87be-337fe39b2208"",""projectId"":""a0a8f18c-a66e-4ba7-a170-23efbdc67501""}","https://test12345.live/?participantId=A1C24BE44350472AB86876EF5ECFC881&assignmentId=78641eb8-bf4a-4c0e-87be-337fe39b2208&projectId=a0a8f18c-a66e-4ba7-a170-23efbdc67501","A1C24BE44350472AB86876EF5ECFC881-2024-11-24-18-38-33","","null","","[]","null","",""
"","","","","","html-audio-response","119","745712","0.0-15.0","A1C24BE44350472AB86876EF5ECFC881","A1C24BE44350472AB86876EF5ECFC881","78641eb8-bf4a-4c0e-87be-337fe39b2208","a0a8f18c-a66e-4ba7-a170-23efbdc67501","{""participantId"":""A1C24BE44350472AB86876EF5ECFC881"",""assignmentId"":""78641eb8-bf4a-4c0e-87be-337fe39b2208"",""projectId"":""a0a8f18c-a66e-4ba7-a170-23efbdc67501""}","https://test12345.live/?participantId=A1C24BE44350472AB86876EF5ECFC881&assignmentId=78641eb8-bf4a-4c0e-87be-337fe39b2208&projectId=a0a8f18c-a66e-4ba7-a170-23efbdc67501","A1C24BE44350472AB86876EF5ECFC881-2024-11-24-18-38-33","","20298","","[""<span style=\""color: red; font-size: 24px\""> NOW RECORDING</span><p>Please say out loud all the images you saw, as many as you can remember. The images can be said in any order.</p>""]","","2","flight_scheme"
"","","","","","image-button-response","120","751725","0.0-16.0-0.0","A1C24BE44350472AB86876EF5ECFC881","A1C24BE44350472AB86876EF5ECFC881","78641eb8-bf4a-4c0e-87be-337fe39b2208","a0a8f18c-a66e-4ba7-a170-23efbdc67501","{""participantId"":""A1C24BE44350472AB86876EF5ECFC881"",""assignmentId"":""78641eb8-bf4a-4c0e-87be-337fe39b2208"",""projectId"":""a0a8f18c-a66e-4ba7-a170-23efbdc67501""}","https://test12345.live/?participantId=A1C24BE44350472AB86876EF5ECFC881&assignmentId=78641eb8-bf4a-4c0e-87be-337fe39b2208&projectId=a0a8f18c-a66e-4ba7-a170-23efbdc67501","A1C24BE44350472AB86876EF5ECFC881-2024-11-24-18-38-33","","null","","images/causal_sequence/museum_causal/museum_causal_0.png","null","",""
"","","","","","image-button-response","121","756228","0.0-16.0-1.0-0.0","A1C24BE44350472AB86876EF5ECFC881","A1C24BE44350472AB86876EF5ECFC881","78641eb8-bf4a-4c0e-87be-337fe39b2208","a0a8f18c-a66e-4ba7-a170-23efbdc67501","{""participantId"":""A1C24BE44350472AB86876EF5ECFC881"",""assignmentId"":""78641eb8-bf4a-4c0e-87be-337fe39b2208"",""projectId"":""a0a8f18c-a66e-4ba7-a170-23efbdc67501""}","https://test12345.live/?participantId=A1C24BE44350472AB86876EF5ECFC881&assignmentId=78641eb8-bf4a-4c0e-87be-337fe39b2208&projectId=a0a8f18c-a66e-4ba7-a170-23efbdc67501","A1C24BE44350472AB86876EF5ECFC881-2024-11-24-18-38-33","","null","","images/causal_sequence/museum_causal/museum_causal_3.png","null","",""
"","","","","","image-button-response","122","758004","0.0-16.0-1.0-1.0","A1C24BE44350472AB86876EF5ECFC881","A1C24BE44350472AB86876EF5ECFC881","78641eb8-bf4a-4c0e-87be-337fe39b2208","a0a8f18c-a66e-4ba7-a170-23efbdc67501","{""participantId"":""A1C24BE44350472AB86876EF5ECFC881"",""assignmentId"":""78641eb8-bf4a-4c0e-87be-337fe39b2208"",""projectId"":""a0a8f18c-a66e-4ba7-a170-23efbdc67501""}","https://test12345.live/?participantId=A1C24BE44350472AB86876EF5ECFC881&assignmentId=78641eb8-bf4a-4c0e-87be-337fe39b2208&projectId=a0a8f18c-a66e-4ba7-a170-23efbdc67501","A1C24BE44350472AB86876EF5ECFC881-2024-11-24-18-38-33","","1774","","images/causal_sequence/museum_causal/museum_causal_3.png","1","",""
"","","","","","image-button-response","123","759817","0.0-16.0-1.0-2.0","A1C24BE44350472AB86876EF5ECFC881","A1C24BE44350472AB86876EF5ECFC881","78641eb8-bf4a-4c0e-87be-337fe39b2208","a0a8f18c-a66e-4ba7-a170-23efbdc67501","{""participantId"":""A1C24BE44350472AB86876EF5ECFC881"",""assignmentId"":""78641eb8-bf4a-4c0e-87be-337fe39b2208"",""projectId"":""a0a8f18c-a66e-4ba7-a170-23efbdc67501""}","https://test12345.live/?participantId=A1C24BE44350472AB86876EF5ECFC881&assignmentId=78641eb8-bf4a-4c0e-87be-337fe39b2208&projectId=a0a8f18c-a66e-4ba7-a170-23efbdc67501","A1C24BE44350472AB86876EF5ECFC881-2024-11-24-18-38-33","","null","","[]","null","",""
"","","","","","image-button-response","124","764327","0.0-16.0-1.0-0.1","A1C24BE44350472AB86876EF5ECFC881","A1C24BE44350472AB86876EF5ECFC881","78641eb8-bf4a-4c0e-87be-337fe39b2208","a0a8f18c-a66e-4ba7-a170-23efbdc67501","{""participantId"":""A1C24BE44350472AB86876EF5ECFC881"",""assignmentId"":""78641eb8-bf4a-4c0e-87be-337fe39b2208"",""projectId"":""a0a8f18c-a66e-4ba7-a170-23efbdc67501""}","https://test12345.live/?participantId=A1C24BE44350472AB86876EF5ECFC881&assignmentId=78641eb8-bf4a-4c0e-87be-337fe39b2208&projectId=a0a8f18c-a66e-4ba7-a170-23efbdc67501","A1C24BE44350472AB86876EF5ECFC881-2024-11-24-18-38-33","","null","","images/causal_sequence/museum_causal/museum_causal_ten.png","null","",""
"","","","","","image-button-response","125","765733","0.0-16.0-1.0-1.1","A1C24BE44350472AB86876EF5ECFC881","A1C24BE44350472AB86876EF5ECFC881","78641eb8-bf4a-4c0e-87be-337fe39b2208","a0a8f18c-a66e-4ba7-a170-23efbdc67501","{""participantId"":""A1C24BE44350472AB86876EF5ECFC881"",""assignmentId"":""78641eb8-bf4a-4c0e-87be-337fe39b2208"",""projectId"":""a0a8f18c-a66e-4ba7-a170-23efbdc67501""}","https://test12345.live/?participantId=A1C24BE44350472AB86876EF5ECFC881&assignmentId=78641eb8-bf4a-4c0e-87be-337fe39b2208&projectId=a0a8f18c-a66e-4ba7-a170-23efbdc67501","A1C24BE44350472AB86876EF5ECFC881-2024-11-24-18-38-33","","1404","","images/causal_sequence/museum_causal/museum_causal_ten.png","0","",""
"","","","","","image-button-response","126","767539","0.0-16.0-1.0-2.1","A1C24BE44350472AB86876EF5ECFC881","A1C24BE44350472AB86876EF5ECFC881","78641eb8-bf4a-4c0e-87be-337fe39b2208","a0a8f18c-a66e-4ba7-a170-23efbdc67501","{""participantId"":""A1C24BE44350472AB86876EF5ECFC881"",""assignmentId"":""78641eb8-bf4a-4c0e-87be-337fe39b2208"",""projectId"":""a0a8f18c-a66e-4ba7-a170-23efbdc67501""}","https://test12345.live/?participantId=A1C24BE44350472AB86876EF5ECFC881&assignmentId=78641eb8-bf4a-4c0e-87be-337fe39b2208&projectId=a0a8f18c-a66e-4ba7-a170-23efbdc67501","A1C24BE44350472AB86876EF5ECFC881-2024-11-24-18-38-33","","null","","[]","null","",""
"","","","","","image-button-response","127","772042","0.0-16.0-1.0-0.2","A1C24BE44350472AB86876EF5ECFC881","A1C24BE44350472AB86876EF5ECFC881","78641eb8-bf4a-4c0e-87be-337fe39b2208","a0a8f18c-a66e-4ba7-a170-23efbdc67501","{""participantId"":""A1C24BE44350472AB86876EF5ECFC881"",""assignmentId"":""78641eb8-bf4a-4c0e-87be-337fe39b2208"",""projectId"":""a0a8f18c-a66e-4ba7-a170-23efbdc67501""}","https://test12345.live/?participantId=A1C24BE44350472AB86876EF5ECFC881&assignmentId=78641eb8-bf4a-4c0e-87be-337fe39b2208&projectId=a0a8f18c-a66e-4ba7-a170-23efbdc67501","A1C24BE44350472AB86876EF5ECFC881-2024-11-24-18-38-33","","null","","images/causal_sequence/museum_causal/museum_causal_9.png","null","",""
"","","","","","image-button-response","128","772996","0.0-16.0-1.0-1.2","A1C24BE44350472AB86876EF5ECFC881","A1C24BE44350472AB86876EF5ECFC881","78641eb8-bf4a-4c0e-87be-337fe39b2208","a0a8f18c-a66e-4ba7-a170-23efbdc67501","{""participantId"":""A1C24BE44350472AB86876EF5ECFC881"",""assignmentId"":""78641eb8-bf4a-4c0e-87be-337fe39b2208"",""projectId"":""a0a8f18c-a66e-4ba7-a170-23efbdc67501""}","https://test12345.live/?participantId=A1C24BE44350472AB86876EF5ECFC881&assignmentId=78641eb8-bf4a-4c0e-87be-337fe39b2208&projectId=a0a8f18c-a66e-4ba7-a170-23efbdc67501","A1C24BE44350472AB86876EF5ECFC881-2024-11-24-18-38-33","","952","","images/causal_sequence/museum_causal/museum_causal_9.png","1","",""
"","","","","","image-button-response","129","774802","0.0-16.0-1.0-2.2","A1C24BE44350472AB86876EF5ECFC881","A1C24BE44350472AB86876EF5ECFC881","78641eb8-bf4a-4c0e-87be-337fe39b2208","a0a8f18c-a66e-4ba7-a170-23efbdc67501","{""participantId"":""A1C24BE44350472AB86876EF5ECFC881"",""assignmentId"":""78641eb8-bf4a-4c0e-87be-337fe39b2208"",""projectId"":""a0a8f18c-a66e-4ba7-a170-23efbdc67501""}","https://test12345.live/?participantId=A1C24BE44350472AB86876EF5ECFC881&assignmentId=78641eb8-bf4a-4c0e-87be-337fe39b2208&projectId=a0a8f18c-a66e-4ba7-a170-23efbdc67501","A1C24BE44350472AB86876EF5ECFC881-2024-11-24-18-38-33","","null","","[]","null","",""
"","","","","","image-button-response","130","779319","0.0-16.0-1.0-0.3","A1C24BE44350472AB86876EF5ECFC881","A1C24BE44350472AB86876EF5ECFC881","78641eb8-bf4a-4c0e-87be-337fe39b2208","a0a8f18c-a66e-4ba7-a170-23efbdc67501","{""participantId"":""A1C24BE44350472AB86876EF5ECFC881"",""assignmentId"":""78641eb8-bf4a-4c0e-87be-337fe39b2208"",""projectId"":""a0a8f18c-a66e-4ba7-a170-23efbdc67501""}","https://test12345.live/?participantId=A1C24BE44350472AB86876EF5ECFC881&assignmentId=78641eb8-bf4a-4c0e-87be-337fe39b2208&projectId=a0a8f18c-a66e-4ba7-a170-23efbdc67501","A1C24BE44350472AB86876EF5ECFC881-2024-11-24-18-38-33","","null","","images/causal_sequence/museum_causal/museum_causal_6.png","null","",""
"","","","","","image-button-response","131","781056","0.0-16.0-1.0-1.3","A1C24BE44350472AB86876EF5ECFC881","A1C24BE44350472AB86876EF5ECFC881","78641eb8-bf4a-4c0e-87be-337fe39b2208","a0a8f18c-a66e-4ba7-a170-23efbdc67501","{""participantId"":""A1C24BE44350472AB86876EF5ECFC881"",""assignmentId"":""78641eb8-bf4a-4c0e-87be-337fe39b2208"",""projectId"":""a0a8f18c-a66e-4ba7-a170-23efbdc67501""}","https://test12345.live/?participantId=A1C24BE44350472AB86876EF5ECFC881&assignmentId=78641eb8-bf4a-4c0e-87be-337fe39b2208&projectId=a0a8f18c-a66e-4ba7-a170-23efbdc67501","A1C24BE44350472AB86876EF5ECFC881-2024-11-24-18-38-33","","1736","","images/causal_sequence/museum_causal/museum_causal_6.png","0","",""
"","","","","","image-button-response","132","782865","0.0-16.0-1.0-2.3","A1C24BE44350472AB86876EF5ECFC881","A1C24BE44350472AB86876EF5ECFC881","78641eb8-bf4a-4c0e-87be-337fe39b2208","a0a8f18c-a66e-4ba7-a170-23efbdc67501","{""participantId"":""A1C24BE44350472AB86876EF5ECFC881"",""assignmentId"":""78641eb8-bf4a-4c0e-87be-337fe39b2208"",""projectId"":""a0a8f18c-a66e-4ba7-a170-23efbdc67501""}","https://test12345.live/?participantId=A1C24BE44350472AB86876EF5ECFC881&assignmentId=78641eb8-bf4a-4c0e-87be-337fe39b2208&projectId=a0a8f18c-a66e-4ba7-a170-23efbdc67501","A1C24BE44350472AB86876EF5ECFC881-2024-11-24-18-38-33","","null","","[]","null","",""
"","","","","","image-button-response","133","787369","0.0-16.0-1.0-0.4","A1C24BE44350472AB86876EF5ECFC881","A1C24BE44350472AB86876EF5ECFC881","78641eb8-bf4a-4c0e-87be-337fe39b2208","a0a8f18c-a66e-4ba7-a170-23efbdc67501","{""participantId"":""A1C24BE44350472AB86876EF5ECFC881"",""assignmentId"":""78641eb8-bf4a-4c0e-87be-337fe39b2208"",""projectId"":""a0a8f18c-a66e-4ba7-a170-23efbdc67501""}","https://test12345.live/?participantId=A1C24BE44350472AB86876EF5ECFC881&assignmentId=78641eb8-bf4a-4c0e-87be-337fe39b2208&projectId=a0a8f18c-a66e-4ba7-a170-23efbdc67501","A1C24BE44350472AB86876EF5ECFC881-2024-11-24-18-38-33","","null","","images/causal_sequence/museum_causal/museum_causal_8.png","null","",""
"","","","","","image-button-response","134","788395","0.0-16.0-1.0-1.4","A1C24BE44350472AB86876EF5ECFC881","A1C24BE44350472AB86876EF5ECFC881","78641eb8-bf4a-4c0e-87be-337fe39b2208","a0a8f18c-a66e-4ba7-a170-23efbdc67501","{""participantId"":""A1C24BE44350472AB86876EF5ECFC881"",""assignmentId"":""78641eb8-bf4a-4c0e-87be-337fe39b2208"",""projectId"":""a0a8f18c-a66e-4ba7-a170-23efbdc67501""}","https://test12345.live/?participantId=A1C24BE44350472AB86876EF5ECFC881&assignmentId=78641eb8-bf4a-4c0e-87be-337fe39b2208&projectId=a0a8f18c-a66e-4ba7-a170-23efbdc67501","A1C24BE44350472AB86876EF5ECFC881-2024-11-24-18-38-33","","1024","","images/causal_sequence/museum_causal/museum_causal_8.png","0","",""
"","","","","","image-button-response","135","790204","0.0-16.0-1.0-2.4","A1C24BE44350472AB86876EF5ECFC881","A1C24BE44350472AB86876EF5ECFC881","78641eb8-bf4a-4c0e-87be-337fe39b2208","a0a8f18c-a66e-4ba7-a170-23efbdc67501","{""participantId"":""A1C24BE44350472AB86876EF5ECFC881"",""assignmentId"":""78641eb8-bf4a-4c0e-87be-337fe39b2208"",""projectId"":""a0a8f18c-a66e-4ba7-a170-23efbdc67501""}","https://test12345.live/?participantId=A1C24BE44350472AB86876EF5ECFC881&assignmentId=78641eb8-bf4a-4c0e-87be-337fe39b2208&projectId=a0a8f18c-a66e-4ba7-a170-23efbdc67501","A1C24BE44350472AB86876EF5ECFC881-2024-11-24-18-38-33","","null","","[]","null","",""
"","","","","","image-button-response","136","794722","0.0-16.0-1.0-0.5","A1C24BE44350472AB86876EF5ECFC881","A1C24BE44350472AB86876EF5ECFC881","78641eb8-bf4a-4c0e-87be-337fe39b2208","a0a8f18c-a66e-4ba7-a170-23efbdc67501","{""participantId"":""A1C24BE44350472AB86876EF5ECFC881"",""assignmentId"":""78641eb8-bf4a-4c0e-87be-337fe39b2208"",""projectId"":""a0a8f18c-a66e-4ba7-a170-23efbdc67501""}","https://test12345.live/?participantId=A1C24BE44350472AB86876EF5ECFC881&assignmentId=78641eb8-bf4a-4c0e-87be-337fe39b2208&projectId=a0a8f18c-a66e-4ba7-a170-23efbdc67501","A1C24BE44350472AB86876EF5ECFC881-2024-11-24-18-38-33","","null","","images/causal_sequence/museum_causal/museum_causal_1.png","null","",""
"","","","","","image-button-response","137","796191","0.0-16.0-1.0-1.5","A1C24BE44350472AB86876EF5ECFC881","A1C24BE44350472AB86876EF5ECFC881","78641eb8-bf4a-4c0e-87be-337fe39b2208","a0a8f18c-a66e-4ba7-a170-23efbdc67501","{""participantId"":""A1C24BE44350472AB86876EF5ECFC881"",""assignmentId"":""78641eb8-bf4a-4c0e-87be-337fe39b2208"",""projectId"":""a0a8f18c-a66e-4ba7-a170-23efbdc67501""}","https://test12345.live/?participantId=A1C24BE44350472AB86876EF5ECFC881&assignmentId=78641eb8-bf4a-4c0e-87be-337fe39b2208&projectId=a0a8f18c-a66e-4ba7-a170-23efbdc67501","A1C24BE44350472AB86876EF5ECFC881-2024-11-24-18-38-33","","1468","","images/causal_sequence/museum_causal/museum_causal_1.png","0","",""
"","","","","","image-button-response","138","798008","0.0-16.0-1.0-2.5","A1C24BE44350472AB86876EF5ECFC881","A1C24BE44350472AB86876EF5ECFC881","78641eb8-bf4a-4c0e-87be-337fe39b2208","a0a8f18c-a66e-4ba7-a170-23efbdc67501","{""participantId"":""A1C24BE44350472AB86876EF5ECFC881"",""assignmentId"":""78641eb8-bf4a-4c0e-87be-337fe39b2208"",""projectId"":""a0a8f18c-a66e-4ba7-a170-23efbdc67501""}","https://test12345.live/?participantId=A1C24BE44350472AB86876EF5ECFC881&assignmentId=78641eb8-bf4a-4c0e-87be-337fe39b2208&projectId=a0a8f18c-a66e-4ba7-a170-23efbdc67501","A1C24BE44350472AB86876EF5ECFC881-2024-11-24-18-38-33","","null","","[]","null","",""
"","","","","","image-button-response","139","802521","0.0-16.0-1.0-0.6","A1C24BE44350472AB86876EF5ECFC881","A1C24BE44350472AB86876EF5ECFC881","78641eb8-bf4a-4c0e-87be-337fe39b2208","a0a8f18c-a66e-4ba7-a170-23efbdc67501","{""participantId"":""A1C24BE44350472AB86876EF5ECFC881"",""assignmentId"":""78641eb8-bf4a-4c0e-87be-337fe39b2208"",""projectId"":""a0a8f18c-a66e-4ba7-a170-23efbdc67501""}","https://test12345.live/?participantId=A1C24BE44350472AB86876EF5ECFC881&assignmentId=78641eb8-bf4a-4c0e-87be-337fe39b2208&projectId=a0a8f18c-a66e-4ba7-a170-23efbdc67501","A1C24BE44350472AB86876EF5ECFC881-2024-11-24-18-38-33","","null","","images/causal_sequence/museum_causal/museum_causal_7.png","null","",""
"","","","","","image-button-response","140","803403","0.0-16.0-1.0-1.6","A1C24BE44350472AB86876EF5ECFC881","A1C24BE44350472AB86876EF5ECFC881","78641eb8-bf4a-4c0e-87be-337fe39b2208","a0a8f18c-a66e-4ba7-a170-23efbdc67501","{""participantId"":""A1C24BE44350472AB86876EF5ECFC881"",""assignmentId"":""78641eb8-bf4a-4c0e-87be-337fe39b2208"",""projectId"":""a0a8f18c-a66e-4ba7-a170-23efbdc67501""}","https://test12345.live/?participantId=A1C24BE44350472AB86876EF5ECFC881&assignmentId=78641eb8-bf4a-4c0e-87be-337fe39b2208&projectId=a0a8f18c-a66e-4ba7-a170-23efbdc67501","A1C24BE44350472AB86876EF5ECFC881-2024-11-24-18-38-33","","880","","images/causal_sequence/museum_causal/museum_causal_7.png","1","",""
"","","","","","image-button-response","141","805208","0.0-16.0-1.0-2.6","A1C24BE44350472AB86876EF5ECFC881","A1C24BE44350472AB86876EF5ECFC881","78641eb8-bf4a-4c0e-87be-337fe39b2208","a0a8f18c-a66e-4ba7-a170-23efbdc67501","{""participantId"":""A1C24BE44350472AB86876EF5ECFC881"",""assignmentId"":""78641eb8-bf4a-4c0e-87be-337fe39b2208"",""projectId"":""a0a8f18c-a66e-4ba7-a170-23efbdc67501""}","https://test12345.live/?participantId=A1C24BE44350472AB86876EF5ECFC881&assignmentId=78641eb8-bf4a-4c0e-87be-337fe39b2208&projectId=a0a8f18c-a66e-4ba7-a170-23efbdc67501","A1C24BE44350472AB86876EF5ECFC881-2024-11-24-18-38-33","","null","","[]","null","",""
"","","","","","image-button-response","142","809733","0.0-16.0-1.0-0.7","A1C24BE44350472AB86876EF5ECFC881","A1C24BE44350472AB86876EF5ECFC881","78641eb8-bf4a-4c0e-87be-337fe39b2208","a0a8f18c-a66e-4ba7-a170-23efbdc67501","{""participantId"":""A1C24BE44350472AB86876EF5ECFC881"",""assignmentId"":""78641eb8-bf4a-4c0e-87be-337fe39b2208"",""projectId"":""a0a8f18c-a66e-4ba7-a170-23efbdc67501""}","https://test12345.live/?participantId=A1C24BE44350472AB86876EF5ECFC881&assignmentId=78641eb8-bf4a-4c0e-87be-337fe39b2208&projectId=a0a8f18c-a66e-4ba7-a170-23efbdc67501","A1C24BE44350472AB86876EF5ECFC881-2024-11-24-18-38-33","","null","","images/causal_sequence/museum_causal/museum_causal_2.png","null","",""
"","","","","","image-button-response","143","811347","0.0-16.0-1.0-1.7","A1C24BE44350472AB86876EF5ECFC881","A1C24BE44350472AB86876EF5ECFC881","78641eb8-bf4a-4c0e-87be-337fe39b2208","a0a8f18c-a66e-4ba7-a170-23efbdc67501","{""participantId"":""A1C24BE44350472AB86876EF5ECFC881"",""assignmentId"":""78641eb8-bf4a-4c0e-87be-337fe39b2208"",""projectId"":""a0a8f18c-a66e-4ba7-a170-23efbdc67501""}","https://test12345.live/?participantId=A1C24BE44350472AB86876EF5ECFC881&assignmentId=78641eb8-bf4a-4c0e-87be-337fe39b2208&projectId=a0a8f18c-a66e-4ba7-a170-23efbdc67501","A1C24BE44350472AB86876EF5ECFC881-2024-11-24-18-38-33","","1612","","images/causal_sequence/museum_causal/museum_causal_2.png","1","",""
