"success","timeout","failed_images","failed_audio","failed_video","trial_type","trial_index","time_elapsed","internal_node_id","subject","subject_id","study_id","session_id","urlvar","current_url","audio_id","view_history","rt","device_id","stimulus","response","estimated_stimulus_onset","seq_name"
"true","false","[]","[]","[]","preload","0","24891","0.0-0.0","A4D4E985E90C44089B7440BAF4E72132","A4D4E985E90C44089B7440BAF4E72132","c77d43bc-fc61-4f3b-88de-e6a0733de36e","a0a8f18c-a66e-4ba7-a170-23efbdc67501","{""participantId"":""A4D4E985E90C44089B7440BAF4E72132"",""assignmentId"":""c77d43bc-fc61-4f3b-88de-e6a0733de36e"",""projectId"":""a0a8f18c-a66e-4ba7-a170-23efbdc67501""}","https://test12345.live/?participantId=A4D4E985E90C44089B7440BAF4E72132&assignmentId=c77d43bc-fc61-4f3b-88de-e6a0733de36e&projectId=a0a8f18c-a66e-4ba7-a170-23efbdc67501","A4D4E985E90C44089B7440BAF4E72132-2024-11-24-18-51-23","","","","","","",""
"","","","","","instructions","1","83179","0.0-1.0","A4D4E985E90C44089B7440BAF4E72132","A4D4E985E90C44089B7440BAF4E72132","c77d43bc-fc61-4f3b-88de-e6a0733de36e","a0a8f18c-a66e-4ba7-a170-23efbdc67501","{""participantId"":""A4D4E985E90C44089B7440BAF4E72132"",""assignmentId"":""c77d43bc-fc61-4f3b-88de-e6a0733de36e"",""projectId"":""a0a8f18c-a66e-4ba7-a170-23efbdc67501""}","https://test12345.live/?participantId=A4D4E985E90C44089B7440BAF4E72132&assignmentId=c77d43bc-fc61-4f3b-88de-e6a0733de36e&projectId=a0a8f18c-a66e-4ba7-a170-23efbdc67501","A4D4E985E90C44089B7440BAF4E72132-2024-11-24-18-51-23","[{""page_index"":0,""viewing_time"":58284}]","58286","","","","",""
"","","","","","instructions","2","123818","0.0-2.0","A4D4E985E90C44089B7440BAF4E72132","A4D4E985E90C44089B7440BAF4E72132","c77d43bc-fc61-4f3b-88de-e6a0733de36e","a0a8f18c-a66e-4ba7-a170-23efbdc67501","{""participantId"":""A4D4E985E90C44089B7440BAF4E72132"",""assignmentId"":""c77d43bc-fc61-4f3b-88de-e6a0733de36e"",""projectId"":""a0a8f18c-a66e-4ba7-a170-23efbdc67501""}","https://test12345.live/?participantId=A4D4E985E90C44089B7440BAF4E72132&assignmentId=c77d43bc-fc61-4f3b-88de-e6a0733de36e&projectId=a0a8f18c-a66e-4ba7-a170-23efbdc67501","A4D4E985E90C44089B7440BAF4E72132-2024-11-24-18-51-23","[{""page_index"":0,""viewing_time"":40635}]","40636","","","","",""
"true","","","","","fullscreen","3","128017","0.0-3.0","A4D4E985E90C44089B7440BAF4E72132","A4D4E985E90C44089B7440BAF4E72132","c77d43bc-fc61-4f3b-88de-e6a0733de36e","a0a8f18c-a66e-4ba7-a170-23efbdc67501","{""participantId"":""A4D4E985E90C44089B7440BAF4E72132"",""assignmentId"":""c77d43bc-fc61-4f3b-88de-e6a0733de36e"",""projectId"":""a0a8f18c-a66e-4ba7-a170-23efbdc67501""}","https://test12345.live/?participantId=A4D4E985E90C44089B7440BAF4E72132&assignmentId=c77d43bc-fc61-4f3b-88de-e6a0733de36e&projectId=a0a8f18c-a66e-4ba7-a170-23efbdc67501","A4D4E985E90C44089B7440BAF4E72132-2024-11-24-18-51-23","","3170","","","","",""
"","","","","","initialize-microphone","4","139681","0.0-4.0-0.0","A4D4E985E90C44089B7440BAF4E72132","A4D4E985E90C44089B7440BAF4E72132","c77d43bc-fc61-4f3b-88de-e6a0733de36e","a0a8f18c-a66e-4ba7-a170-23efbdc67501","{""participantId"":""A4D4E985E90C44089B7440BAF4E72132"",""assignmentId"":""c77d43bc-fc61-4f3b-88de-e6a0733de36e"",""projectId"":""a0a8f18c-a66e-4ba7-a170-23efbdc67501""}","https://test12345.live/?participantId=A4D4E985E90C44089B7440BAF4E72132&assignmentId=c77d43bc-fc61-4f3b-88de-e6a0733de36e&projectId=a0a8f18c-a66e-4ba7-a170-23efbdc67501","A4D4E985E90C44089B7440BAF4E72132-2024-11-24-18-51-23","","","4eeccbc80e25bc691d14b206764d4e36698664eaf09ffd926c458587b7085031","","","",""
"","","","","","html-audio-response","5","158144","0.0-4.0-1.0","A4D4E985E90C44089B7440BAF4E72132","A4D4E985E90C44089B7440BAF4E72132","c77d43bc-fc61-4f3b-88de-e6a0733de36e","a0a8f18c-a66e-4ba7-a170-23efbdc67501","{""participantId"":""A4D4E985E90C44089B7440BAF4E72132"",""assignmentId"":""c77d43bc-fc61-4f3b-88de-e6a0733de36e"",""projectId"":""a0a8f18c-a66e-4ba7-a170-23efbdc67501""}","https://test12345.live/?participantId=A4D4E985E90C44089B7440BAF4E72132&assignmentId=c77d43bc-fc61-4f3b-88de-e6a0733de36e&projectId=a0a8f18c-a66e-4ba7-a170-23efbdc67501","A4D4E985E90C44089B7440BAF4E72132-2024-11-24-18-51-23","","3956","","<span style=""color: red; font-size: 24px""> NOW RECORDING</span>
        <p>Please test Microphone</p>","","50",""
"","","","","","html-button-response","6","161472","0.0-4.0-2.0","A4D4E985E90C44089B7440BAF4E72132","A4D4E985E90C44089B7440BAF4E72132","c77d43bc-fc61-4f3b-88de-e6a0733de36e","a0a8f18c-a66e-4ba7-a170-23efbdc67501","{""participantId"":""A4D4E985E90C44089B7440BAF4E72132"",""assignmentId"":""c77d43bc-fc61-4f3b-88de-e6a0733de36e"",""projectId"":""a0a8f18c-a66e-4ba7-a170-23efbdc67501""}","https://test12345.live/?participantId=A4D4E985E90C44089B7440BAF4E72132&assignmentId=c77d43bc-fc61-4f3b-88de-e6a0733de36e&projectId=a0a8f18c-a66e-4ba7-a170-23efbdc67501","A4D4E985E90C44089B7440BAF4E72132-2024-11-24-18-51-23","","3323","","<p style=""font-size:48px; color:red;"">Is Microphone OK?</p>","0","",""
"","","","","","initialize-microphone","7","163198","0.0-4.1-0.1","A4D4E985E90C44089B7440BAF4E72132","A4D4E985E90C44089B7440BAF4E72132","c77d43bc-fc61-4f3b-88de-e6a0733de36e","a0a8f18c-a66e-4ba7-a170-23efbdc67501","{""participantId"":""A4D4E985E90C44089B7440BAF4E72132"",""assignmentId"":""c77d43bc-fc61-4f3b-88de-e6a0733de36e"",""projectId"":""a0a8f18c-a66e-4ba7-a170-23efbdc67501""}","https://test12345.live/?participantId=A4D4E985E90C44089B7440BAF4E72132&assignmentId=c77d43bc-fc61-4f3b-88de-e6a0733de36e&projectId=a0a8f18c-a66e-4ba7-a170-23efbdc67501","A4D4E985E90C44089B7440BAF4E72132-2024-11-24-18-51-23","","","4eeccbc80e25bc691d14b206764d4e36698664eaf09ffd926c458587b7085031","","","",""
"","","","","","html-audio-response","8","180561","0.0-4.1-1.1","A4D4E985E90C44089B7440BAF4E72132","A4D4E985E90C44089B7440BAF4E72132","c77d43bc-fc61-4f3b-88de-e6a0733de36e","a0a8f18c-a66e-4ba7-a170-23efbdc67501","{""participantId"":""A4D4E985E90C44089B7440BAF4E72132"",""assignmentId"":""c77d43bc-fc61-4f3b-88de-e6a0733de36e"",""projectId"":""a0a8f18c-a66e-4ba7-a170-23efbdc67501""}","https://test12345.live/?participantId=A4D4E985E90C44089B7440BAF4E72132&assignmentId=c77d43bc-fc61-4f3b-88de-e6a0733de36e&projectId=a0a8f18c-a66e-4ba7-a170-23efbdc67501","A4D4E985E90C44089B7440BAF4E72132-2024-11-24-18-51-23","","1982","","<span style=""color: red; font-size: 24px""> NOW RECORDING</span>
        <p>Please test Microphone</p>","","4",""
"","","","","","html-button-response","9","182022","0.0-4.1-2.1","A4D4E985E90C44089B7440BAF4E72132","A4D4E985E90C44089B7440BAF4E72132","c77d43bc-fc61-4f3b-88de-e6a0733de36e","a0a8f18c-a66e-4ba7-a170-23efbdc67501","{""participantId"":""A4D4E985E90C44089B7440BAF4E72132"",""assignmentId"":""c77d43bc-fc61-4f3b-88de-e6a0733de36e"",""projectId"":""a0a8f18c-a66e-4ba7-a170-23efbdc67501""}","https://test12345.live/?participantId=A4D4E985E90C44089B7440BAF4E72132&assignmentId=c77d43bc-fc61-4f3b-88de-e6a0733de36e&projectId=a0a8f18c-a66e-4ba7-a170-23efbdc67501","A4D4E985E90C44089B7440BAF4E72132-2024-11-24-18-51-23","","1456","","<p style=""font-size:48px; color:red;"">Is Microphone OK?</p>","1","",""
"","","","","","instructions","10","197581","0.0-5.0","A4D4E985E90C44089B7440BAF4E72132","A4D4E985E90C44089B7440BAF4E72132","c77d43bc-fc61-4f3b-88de-e6a0733de36e","a0a8f18c-a66e-4ba7-a170-23efbdc67501","{""participantId"":""A4D4E985E90C44089B7440BAF4E72132"",""assignmentId"":""c77d43bc-fc61-4f3b-88de-e6a0733de36e"",""projectId"":""a0a8f18c-a66e-4ba7-a170-23efbdc67501""}","https://test12345.live/?participantId=A4D4E985E90C44089B7440BAF4E72132&assignmentId=c77d43bc-fc61-4f3b-88de-e6a0733de36e&projectId=a0a8f18c-a66e-4ba7-a170-23efbdc67501","A4D4E985E90C44089B7440BAF4E72132-2024-11-24-18-51-23","[{""page_index"":0,""viewing_time"":6673},{""page_index"":1,""viewing_time"":8879}]","15553","","","","",""
"","","","","","image-button-response","11","203630","0.0-6.0-0.0","A4D4E985E90C44089B7440BAF4E72132","A4D4E985E90C44089B7440BAF4E72132","c77d43bc-fc61-4f3b-88de-e6a0733de36e","a0a8f18c-a66e-4ba7-a170-23efbdc67501","{""participantId"":""A4D4E985E90C44089B7440BAF4E72132"",""assignmentId"":""c77d43bc-fc61-4f3b-88de-e6a0733de36e"",""projectId"":""a0a8f18c-a66e-4ba7-a170-23efbdc67501""}","https://test12345.live/?participantId=A4D4E985E90C44089B7440BAF4E72132&assignmentId=c77d43bc-fc61-4f3b-88de-e6a0733de36e&projectId=a0a8f18c-a66e-4ba7-a170-23efbdc67501","A4D4E985E90C44089B7440BAF4E72132-2024-11-24-18-51-23","","null","","images/instructions/movie_0.png","null","",""
"","","","","","image-button-response","12","208148","0.0-6.0-1.0-0.0","A4D4E985E90C44089B7440BAF4E72132","A4D4E985E90C44089B7440BAF4E72132","c77d43bc-fc61-4f3b-88de-e6a0733de36e","a0a8f18c-a66e-4ba7-a170-23efbdc67501","{""participantId"":""A4D4E985E90C44089B7440BAF4E72132"",""assignmentId"":""c77d43bc-fc61-4f3b-88de-e6a0733de36e"",""projectId"":""a0a8f18c-a66e-4ba7-a170-23efbdc67501""}","https://test12345.live/?participantId=A4D4E985E90C44089B7440BAF4E72132&assignmentId=c77d43bc-fc61-4f3b-88de-e6a0733de36e&projectId=a0a8f18c-a66e-4ba7-a170-23efbdc67501","A4D4E985E90C44089B7440BAF4E72132-2024-11-24-18-51-23","","null","","images/instructions/movie_1.png","null","",""
"","","","","","image-button-response","13","212169","0.0-6.0-1.0-1.0","A4D4E985E90C44089B7440BAF4E72132","A4D4E985E90C44089B7440BAF4E72132","c77d43bc-fc61-4f3b-88de-e6a0733de36e","a0a8f18c-a66e-4ba7-a170-23efbdc67501","{""participantId"":""A4D4E985E90C44089B7440BAF4E72132"",""assignmentId"":""c77d43bc-fc61-4f3b-88de-e6a0733de36e"",""projectId"":""a0a8f18c-a66e-4ba7-a170-23efbdc67501""}","https://test12345.live/?participantId=A4D4E985E90C44089B7440BAF4E72132&assignmentId=c77d43bc-fc61-4f3b-88de-e6a0733de36e&projectId=a0a8f18c-a66e-4ba7-a170-23efbdc67501","A4D4E985E90C44089B7440BAF4E72132-2024-11-24-18-51-23","","null","","images/instructions/movie_1.png","null","",""
"","","","","","image-button-response","14","214000","0.0-6.0-1.0-2.0","A4D4E985E90C44089B7440BAF4E72132","A4D4E985E90C44089B7440BAF4E72132","c77d43bc-fc61-4f3b-88de-e6a0733de36e","a0a8f18c-a66e-4ba7-a170-23efbdc67501","{""participantId"":""A4D4E985E90C44089B7440BAF4E72132"",""assignmentId"":""c77d43bc-fc61-4f3b-88de-e6a0733de36e"",""projectId"":""a0a8f18c-a66e-4ba7-a170-23efbdc67501""}","https://test12345.live/?participantId=A4D4E985E90C44089B7440BAF4E72132&assignmentId=c77d43bc-fc61-4f3b-88de-e6a0733de36e&projectId=a0a8f18c-a66e-4ba7-a170-23efbdc67501","A4D4E985E90C44089B7440BAF4E72132-2024-11-24-18-51-23","","null","","[]","null","",""
"","","","","","image-button-response","15","218522","0.0-6.0-1.0-0.1","A4D4E985E90C44089B7440BAF4E72132","A4D4E985E90C44089B7440BAF4E72132","c77d43bc-fc61-4f3b-88de-e6a0733de36e","a0a8f18c-a66e-4ba7-a170-23efbdc67501","{""participantId"":""A4D4E985E90C44089B7440BAF4E72132"",""assignmentId"":""c77d43bc-fc61-4f3b-88de-e6a0733de36e"",""projectId"":""a0a8f18c-a66e-4ba7-a170-23efbdc67501""}","https://test12345.live/?participantId=A4D4E985E90C44089B7440BAF4E72132&assignmentId=c77d43bc-fc61-4f3b-88de-e6a0733de36e&projectId=a0a8f18c-a66e-4ba7-a170-23efbdc67501","A4D4E985E90C44089B7440BAF4E72132-2024-11-24-18-51-23","","null","","images/instructions/movie_2.png","null","",""
"","","","","","image-button-response","16","220484","0.0-6.0-1.0-1.1","A4D4E985E90C44089B7440BAF4E72132","A4D4E985E90C44089B7440BAF4E72132","c77d43bc-fc61-4f3b-88de-e6a0733de36e","a0a8f18c-a66e-4ba7-a170-23efbdc67501","{""participantId"":""A4D4E985E90C44089B7440BAF4E72132"",""assignmentId"":""c77d43bc-fc61-4f3b-88de-e6a0733de36e"",""projectId"":""a0a8f18c-a66e-4ba7-a170-23efbdc67501""}","https://test12345.live/?participantId=A4D4E985E90C44089B7440BAF4E72132&assignmentId=c77d43bc-fc61-4f3b-88de-e6a0733de36e&projectId=a0a8f18c-a66e-4ba7-a170-23efbdc67501","A4D4E985E90C44089B7440BAF4E72132-2024-11-24-18-51-23","","1955","","images/instructions/movie_2.png","0","",""
"","","","","","image-button-response","17","222312","0.0-6.0-1.0-2.1","A4D4E985E90C44089B7440BAF4E72132","A4D4E985E90C44089B7440BAF4E72132","c77d43bc-fc61-4f3b-88de-e6a0733de36e","a0a8f18c-a66e-4ba7-a170-23efbdc67501","{""participantId"":""A4D4E985E90C44089B7440BAF4E72132"",""assignmentId"":""c77d43bc-fc61-4f3b-88de-e6a0733de36e"",""projectId"":""a0a8f18c-a66e-4ba7-a170-23efbdc67501""}","https://test12345.live/?participantId=A4D4E985E90C44089B7440BAF4E72132&assignmentId=c77d43bc-fc61-4f3b-88de-e6a0733de36e&projectId=a0a8f18c-a66e-4ba7-a170-23efbdc67501","A4D4E985E90C44089B7440BAF4E72132-2024-11-24-18-51-23","","null","","[]","null","",""
"","","","","","image-button-response","18","226822","0.0-6.0-1.0-0.2","A4D4E985E90C44089B7440BAF4E72132","A4D4E985E90C44089B7440BAF4E72132","c77d43bc-fc61-4f3b-88de-e6a0733de36e","a0a8f18c-a66e-4ba7-a170-23efbdc67501","{""participantId"":""A4D4E985E90C44089B7440BAF4E72132"",""assignmentId"":""c77d43bc-fc61-4f3b-88de-e6a0733de36e"",""projectId"":""a0a8f18c-a66e-4ba7-a170-23efbdc67501""}","https://test12345.live/?participantId=A4D4E985E90C44089B7440BAF4E72132&assignmentId=c77d43bc-fc61-4f3b-88de-e6a0733de36e&projectId=a0a8f18c-a66e-4ba7-a170-23efbdc67501","A4D4E985E90C44089B7440BAF4E72132-2024-11-24-18-51-23","","null","","images/instructions/movie_3.png","null","",""
"","","","","","image-button-response","19","228909","0.0-6.0-1.0-1.2","A4D4E985E90C44089B7440BAF4E72132","A4D4E985E90C44089B7440BAF4E72132","c77d43bc-fc61-4f3b-88de-e6a0733de36e","a0a8f18c-a66e-4ba7-a170-23efbdc67501","{""participantId"":""A4D4E985E90C44089B7440BAF4E72132"",""assignmentId"":""c77d43bc-fc61-4f3b-88de-e6a0733de36e"",""projectId"":""a0a8f18c-a66e-4ba7-a170-23efbdc67501""}","https://test12345.live/?participantId=A4D4E985E90C44089B7440BAF4E72132&assignmentId=c77d43bc-fc61-4f3b-88de-e6a0733de36e&projectId=a0a8f18c-a66e-4ba7-a170-23efbdc67501","A4D4E985E90C44089B7440BAF4E72132-2024-11-24-18-51-23","","2077","","images/instructions/movie_3.png","0","",""
"","","","","","image-button-response","20","230722","0.0-6.0-1.0-2.2","A4D4E985E90C44089B7440BAF4E72132","A4D4E985E90C44089B7440BAF4E72132","c77d43bc-fc61-4f3b-88de-e6a0733de36e","a0a8f18c-a66e-4ba7-a170-23efbdc67501","{""participantId"":""A4D4E985E90C44089B7440BAF4E72132"",""assignmentId"":""c77d43bc-fc61-4f3b-88de-e6a0733de36e"",""projectId"":""a0a8f18c-a66e-4ba7-a170-23efbdc67501""}","https://test12345.live/?participantId=A4D4E985E90C44089B7440BAF4E72132&assignmentId=c77d43bc-fc61-4f3b-88de-e6a0733de36e&projectId=a0a8f18c-a66e-4ba7-a170-23efbdc67501","A4D4E985E90C44089B7440BAF4E72132-2024-11-24-18-51-23","","null","","[]","null","",""
"","","","","","image-button-response","21","235233","0.0-6.0-1.0-0.3","A4D4E985E90C44089B7440BAF4E72132","A4D4E985E90C44089B7440BAF4E72132","c77d43bc-fc61-4f3b-88de-e6a0733de36e","a0a8f18c-a66e-4ba7-a170-23efbdc67501","{""participantId"":""A4D4E985E90C44089B7440BAF4E72132"",""assignmentId"":""c77d43bc-fc61-4f3b-88de-e6a0733de36e"",""projectId"":""a0a8f18c-a66e-4ba7-a170-23efbdc67501""}","https://test12345.live/?participantId=A4D4E985E90C44089B7440BAF4E72132&assignmentId=c77d43bc-fc61-4f3b-88de-e6a0733de36e&projectId=a0a8f18c-a66e-4ba7-a170-23efbdc67501","A4D4E985E90C44089B7440BAF4E72132-2024-11-24-18-51-23","","null","","images/instructions/movie_4.png","null","",""
"","","","","","image-button-response","22","236844","0.0-6.0-1.0-1.3","A4D4E985E90C44089B7440BAF4E72132","A4D4E985E90C44089B7440BAF4E72132","c77d43bc-fc61-4f3b-88de-e6a0733de36e","a0a8f18c-a66e-4ba7-a170-23efbdc67501","{""participantId"":""A4D4E985E90C44089B7440BAF4E72132"",""assignmentId"":""c77d43bc-fc61-4f3b-88de-e6a0733de36e"",""projectId"":""a0a8f18c-a66e-4ba7-a170-23efbdc67501""}","https://test12345.live/?participantId=A4D4E985E90C44089B7440BAF4E72132&assignmentId=c77d43bc-fc61-4f3b-88de-e6a0733de36e&projectId=a0a8f18c-a66e-4ba7-a170-23efbdc67501","A4D4E985E90C44089B7440BAF4E72132-2024-11-24-18-51-23","","1603","","images/instructions/movie_4.png","0","",""
"","","","","","image-button-response","23","238649","0.0-6.0-1.0-2.3","A4D4E985E90C44089B7440BAF4E72132","A4D4E985E90C44089B7440BAF4E72132","c77d43bc-fc61-4f3b-88de-e6a0733de36e","a0a8f18c-a66e-4ba7-a170-23efbdc67501","{""participantId"":""A4D4E985E90C44089B7440BAF4E72132"",""assignmentId"":""c77d43bc-fc61-4f3b-88de-e6a0733de36e"",""projectId"":""a0a8f18c-a66e-4ba7-a170-23efbdc67501""}","https://test12345.live/?participantId=A4D4E985E90C44089B7440BAF4E72132&assignmentId=c77d43bc-fc61-4f3b-88de-e6a0733de36e&projectId=a0a8f18c-a66e-4ba7-a170-23efbdc67501","A4D4E985E90C44089B7440BAF4E72132-2024-11-24-18-51-23","","null","","[]","null","",""
"","","","","","instructions","24","261594","0.0-7.0","A4D4E985E90C44089B7440BAF4E72132","A4D4E985E90C44089B7440BAF4E72132","c77d43bc-fc61-4f3b-88de-e6a0733de36e","a0a8f18c-a66e-4ba7-a170-23efbdc67501","{""participantId"":""A4D4E985E90C44089B7440BAF4E72132"",""assignmentId"":""c77d43bc-fc61-4f3b-88de-e6a0733de36e"",""projectId"":""a0a8f18c-a66e-4ba7-a170-23efbdc67501""}","https://test12345.live/?participantId=A4D4E985E90C44089B7440BAF4E72132&assignmentId=c77d43bc-fc61-4f3b-88de-e6a0733de36e&projectId=a0a8f18c-a66e-4ba7-a170-23efbdc67501","A4D4E985E90C44089B7440BAF4E72132-2024-11-24-18-51-23","[{""page_index"":0,""viewing_time"":20671},{""page_index"":1,""viewing_time"":2272}]","22944","","","","",""
"","","","","","html-audio-response","25","312216","0.0-8.0","A4D4E985E90C44089B7440BAF4E72132","A4D4E985E90C44089B7440BAF4E72132","c77d43bc-fc61-4f3b-88de-e6a0733de36e","a0a8f18c-a66e-4ba7-a170-23efbdc67501","{""participantId"":""A4D4E985E90C44089B7440BAF4E72132"",""assignmentId"":""c77d43bc-fc61-4f3b-88de-e6a0733de36e"",""projectId"":""a0a8f18c-a66e-4ba7-a170-23efbdc67501""}","https://test12345.live/?participantId=A4D4E985E90C44089B7440BAF4E72132&assignmentId=c77d43bc-fc61-4f3b-88de-e6a0733de36e&projectId=a0a8f18c-a66e-4ba7-a170-23efbdc67501","A4D4E985E90C44089B7440BAF4E72132-2024-11-24-18-51-23","","23531","","[""<span style=\""color: red; font-size: 24px\""> NOW RECORDING</span><p>Please say out loud all the images you saw, as many as you can remember. The images can be said in any order.</p>""]","","10",""
"","","","","","instructions","26","314535","0.0-9.0","A4D4E985E90C44089B7440BAF4E72132","A4D4E985E90C44089B7440BAF4E72132","c77d43bc-fc61-4f3b-88de-e6a0733de36e","a0a8f18c-a66e-4ba7-a170-23efbdc67501","{""participantId"":""A4D4E985E90C44089B7440BAF4E72132"",""assignmentId"":""c77d43bc-fc61-4f3b-88de-e6a0733de36e"",""projectId"":""a0a8f18c-a66e-4ba7-a170-23efbdc67501""}","https://test12345.live/?participantId=A4D4E985E90C44089B7440BAF4E72132&assignmentId=c77d43bc-fc61-4f3b-88de-e6a0733de36e&projectId=a0a8f18c-a66e-4ba7-a170-23efbdc67501","A4D4E985E90C44089B7440BAF4E72132-2024-11-24-18-51-23","[{""page_index"":0,""viewing_time"":2282}]","2283","","","","",""
"","","","","","image-button-response","27","320553","0.0-10.0-0.0","A4D4E985E90C44089B7440BAF4E72132","A4D4E985E90C44089B7440BAF4E72132","c77d43bc-fc61-4f3b-88de-e6a0733de36e","a0a8f18c-a66e-4ba7-a170-23efbdc67501","{""participantId"":""A4D4E985E90C44089B7440BAF4E72132"",""assignmentId"":""c77d43bc-fc61-4f3b-88de-e6a0733de36e"",""projectId"":""a0a8f18c-a66e-4ba7-a170-23efbdc67501""}","https://test12345.live/?participantId=A4D4E985E90C44089B7440BAF4E72132&assignmentId=c77d43bc-fc61-4f3b-88de-e6a0733de36e&projectId=a0a8f18c-a66e-4ba7-a170-23efbdc67501","A4D4E985E90C44089B7440BAF4E72132-2024-11-24-18-51-23","","null","","images/schematic_sequence/restaurant_scheme/restaurant_scheme_0.png","null","",""
"","","","","","image-button-response","28","325059","0.0-10.0-1.0-0.0","A4D4E985E90C44089B7440BAF4E72132","A4D4E985E90C44089B7440BAF4E72132","c77d43bc-fc61-4f3b-88de-e6a0733de36e","a0a8f18c-a66e-4ba7-a170-23efbdc67501","{""participantId"":""A4D4E985E90C44089B7440BAF4E72132"",""assignmentId"":""c77d43bc-fc61-4f3b-88de-e6a0733de36e"",""projectId"":""a0a8f18c-a66e-4ba7-a170-23efbdc67501""}","https://test12345.live/?participantId=A4D4E985E90C44089B7440BAF4E72132&assignmentId=c77d43bc-fc61-4f3b-88de-e6a0733de36e&projectId=a0a8f18c-a66e-4ba7-a170-23efbdc67501","A4D4E985E90C44089B7440BAF4E72132-2024-11-24-18-51-23","","null","","images/schematic_sequence/restaurant_scheme/restaurant_scheme_1.png","null","",""
"","","","","","image-button-response","29","326884","0.0-10.0-1.0-1.0","A4D4E985E90C44089B7440BAF4E72132","A4D4E985E90C44089B7440BAF4E72132","c77d43bc-fc61-4f3b-88de-e6a0733de36e","a0a8f18c-a66e-4ba7-a170-23efbdc67501","{""participantId"":""A4D4E985E90C44089B7440BAF4E72132"",""assignmentId"":""c77d43bc-fc61-4f3b-88de-e6a0733de36e"",""projectId"":""a0a8f18c-a66e-4ba7-a170-23efbdc67501""}","https://test12345.live/?participantId=A4D4E985E90C44089B7440BAF4E72132&assignmentId=c77d43bc-fc61-4f3b-88de-e6a0733de36e&projectId=a0a8f18c-a66e-4ba7-a170-23efbdc67501","A4D4E985E90C44089B7440BAF4E72132-2024-11-24-18-51-23","","1815","","images/schematic_sequence/restaurant_scheme/restaurant_scheme_1.png","0","",""
"","","","","","image-button-response","30","328687","0.0-10.0-1.0-2.0","A4D4E985E90C44089B7440BAF4E72132","A4D4E985E90C44089B7440BAF4E72132","c77d43bc-fc61-4f3b-88de-e6a0733de36e","a0a8f18c-a66e-4ba7-a170-23efbdc67501","{""participantId"":""A4D4E985E90C44089B7440BAF4E72132"",""assignmentId"":""c77d43bc-fc61-4f3b-88de-e6a0733de36e"",""projectId"":""a0a8f18c-a66e-4ba7-a170-23efbdc67501""}","https://test12345.live/?participantId=A4D4E985E90C44089B7440BAF4E72132&assignmentId=c77d43bc-fc61-4f3b-88de-e6a0733de36e&projectId=a0a8f18c-a66e-4ba7-a170-23efbdc67501","A4D4E985E90C44089B7440BAF4E72132-2024-11-24-18-51-23","","null","","[]","null","",""
"","","","","","image-button-response","31","333201","0.0-10.0-1.0-0.1","A4D4E985E90C44089B7440BAF4E72132","A4D4E985E90C44089B7440BAF4E72132","c77d43bc-fc61-4f3b-88de-e6a0733de36e","a0a8f18c-a66e-4ba7-a170-23efbdc67501","{""participantId"":""A4D4E985E90C44089B7440BAF4E72132"",""assignmentId"":""c77d43bc-fc61-4f3b-88de-e6a0733de36e"",""projectId"":""a0a8f18c-a66e-4ba7-a170-23efbdc67501""}","https://test12345.live/?participantId=A4D4E985E90C44089B7440BAF4E72132&assignmentId=c77d43bc-fc61-4f3b-88de-e6a0733de36e&projectId=a0a8f18c-a66e-4ba7-a170-23efbdc67501","A4D4E985E90C44089B7440BAF4E72132-2024-11-24-18-51-23","","null","","images/schematic_sequence/restaurant_scheme/restaurant_scheme_2.png","null","",""
"","","","","","image-button-response","32","335918","0.0-10.0-1.0-1.1","A4D4E985E90C44089B7440BAF4E72132","A4D4E985E90C44089B7440BAF4E72132","c77d43bc-fc61-4f3b-88de-e6a0733de36e","a0a8f18c-a66e-4ba7-a170-23efbdc67501","{""participantId"":""A4D4E985E90C44089B7440BAF4E72132"",""assignmentId"":""c77d43bc-fc61-4f3b-88de-e6a0733de36e"",""projectId"":""a0a8f18c-a66e-4ba7-a170-23efbdc67501""}","https://test12345.live/?participantId=A4D4E985E90C44089B7440BAF4E72132&assignmentId=c77d43bc-fc61-4f3b-88de-e6a0733de36e&projectId=a0a8f18c-a66e-4ba7-a170-23efbdc67501","A4D4E985E90C44089B7440BAF4E72132-2024-11-24-18-51-23","","2712","","images/schematic_sequence/restaurant_scheme/restaurant_scheme_2.png","1","",""
"","","","","","image-button-response","33","337736","0.0-10.0-1.0-2.1","A4D4E985E90C44089B7440BAF4E72132","A4D4E985E90C44089B7440BAF4E72132","c77d43bc-fc61-4f3b-88de-e6a0733de36e","a0a8f18c-a66e-4ba7-a170-23efbdc67501","{""participantId"":""A4D4E985E90C44089B7440BAF4E72132"",""assignmentId"":""c77d43bc-fc61-4f3b-88de-e6a0733de36e"",""projectId"":""a0a8f18c-a66e-4ba7-a170-23efbdc67501""}","https://test12345.live/?participantId=A4D4E985E90C44089B7440BAF4E72132&assignmentId=c77d43bc-fc61-4f3b-88de-e6a0733de36e&projectId=a0a8f18c-a66e-4ba7-a170-23efbdc67501","A4D4E985E90C44089B7440BAF4E72132-2024-11-24-18-51-23","","null","","[]","null","",""
"","","","","","image-button-response","34","342265","0.0-10.0-1.0-0.2","A4D4E985E90C44089B7440BAF4E72132","A4D4E985E90C44089B7440BAF4E72132","c77d43bc-fc61-4f3b-88de-e6a0733de36e","a0a8f18c-a66e-4ba7-a170-23efbdc67501","{""participantId"":""A4D4E985E90C44089B7440BAF4E72132"",""assignmentId"":""c77d43bc-fc61-4f3b-88de-e6a0733de36e"",""projectId"":""a0a8f18c-a66e-4ba7-a170-23efbdc67501""}","https://test12345.live/?participantId=A4D4E985E90C44089B7440BAF4E72132&assignmentId=c77d43bc-fc61-4f3b-88de-e6a0733de36e&projectId=a0a8f18c-a66e-4ba7-a170-23efbdc67501","A4D4E985E90C44089B7440BAF4E72132-2024-11-24-18-51-23","","null","","images/schematic_sequence/restaurant_scheme/restaurant_scheme_3.png","null","",""
"","","","","","image-button-response","35","344356","0.0-10.0-1.0-1.2","A4D4E985E90C44089B7440BAF4E72132","A4D4E985E90C44089B7440BAF4E72132","c77d43bc-fc61-4f3b-88de-e6a0733de36e","a0a8f18c-a66e-4ba7-a170-23efbdc67501","{""participantId"":""A4D4E985E90C44089B7440BAF4E72132"",""assignmentId"":""c77d43bc-fc61-4f3b-88de-e6a0733de36e"",""projectId"":""a0a8f18c-a66e-4ba7-a170-23efbdc67501""}","https://test12345.live/?participantId=A4D4E985E90C44089B7440BAF4E72132&assignmentId=c77d43bc-fc61-4f3b-88de-e6a0733de36e&projectId=a0a8f18c-a66e-4ba7-a170-23efbdc67501","A4D4E985E90C44089B7440BAF4E72132-2024-11-24-18-51-23","","2080","","images/schematic_sequence/restaurant_scheme/restaurant_scheme_3.png","1","",""
"","","","","","image-button-response","36","346165","0.0-10.0-1.0-2.2","A4D4E985E90C44089B7440BAF4E72132","A4D4E985E90C44089B7440BAF4E72132","c77d43bc-fc61-4f3b-88de-e6a0733de36e","a0a8f18c-a66e-4ba7-a170-23efbdc67501","{""participantId"":""A4D4E985E90C44089B7440BAF4E72132"",""assignmentId"":""c77d43bc-fc61-4f3b-88de-e6a0733de36e"",""projectId"":""a0a8f18c-a66e-4ba7-a170-23efbdc67501""}","https://test12345.live/?participantId=A4D4E985E90C44089B7440BAF4E72132&assignmentId=c77d43bc-fc61-4f3b-88de-e6a0733de36e&projectId=a0a8f18c-a66e-4ba7-a170-23efbdc67501","A4D4E985E90C44089B7440BAF4E72132-2024-11-24-18-51-23","","null","","[]","null","",""
"","","","","","image-button-response","37","350697","0.0-10.0-1.0-0.3","A4D4E985E90C44089B7440BAF4E72132","A4D4E985E90C44089B7440BAF4E72132","c77d43bc-fc61-4f3b-88de-e6a0733de36e","a0a8f18c-a66e-4ba7-a170-23efbdc67501","{""participantId"":""A4D4E985E90C44089B7440BAF4E72132"",""assignmentId"":""c77d43bc-fc61-4f3b-88de-e6a0733de36e"",""projectId"":""a0a8f18c-a66e-4ba7-a170-23efbdc67501""}","https://test12345.live/?participantId=A4D4E985E90C44089B7440BAF4E72132&assignmentId=c77d43bc-fc61-4f3b-88de-e6a0733de36e&projectId=a0a8f18c-a66e-4ba7-a170-23efbdc67501","A4D4E985E90C44089B7440BAF4E72132-2024-11-24-18-51-23","","null","","images/schematic_sequence/restaurant_scheme/restaurant_scheme_4.png","null","",""
"","","","","","image-button-response","38","352429","0.0-10.0-1.0-1.3","A4D4E985E90C44089B7440BAF4E72132","A4D4E985E90C44089B7440BAF4E72132","c77d43bc-fc61-4f3b-88de-e6a0733de36e","a0a8f18c-a66e-4ba7-a170-23efbdc67501","{""participantId"":""A4D4E985E90C44089B7440BAF4E72132"",""assignmentId"":""c77d43bc-fc61-4f3b-88de-e6a0733de36e"",""projectId"":""a0a8f18c-a66e-4ba7-a170-23efbdc67501""}","https://test12345.live/?participantId=A4D4E985E90C44089B7440BAF4E72132&assignmentId=c77d43bc-fc61-4f3b-88de-e6a0733de36e&projectId=a0a8f18c-a66e-4ba7-a170-23efbdc67501","A4D4E985E90C44089B7440BAF4E72132-2024-11-24-18-51-23","","1704","","images/schematic_sequence/restaurant_scheme/restaurant_scheme_4.png","0","",""
"","","","","","image-button-response","39","354255","0.0-10.0-1.0-2.3","A4D4E985E90C44089B7440BAF4E72132","A4D4E985E90C44089B7440BAF4E72132","c77d43bc-fc61-4f3b-88de-e6a0733de36e","a0a8f18c-a66e-4ba7-a170-23efbdc67501","{""participantId"":""A4D4E985E90C44089B7440BAF4E72132"",""assignmentId"":""c77d43bc-fc61-4f3b-88de-e6a0733de36e"",""projectId"":""a0a8f18c-a66e-4ba7-a170-23efbdc67501""}","https://test12345.live/?participantId=A4D4E985E90C44089B7440BAF4E72132&assignmentId=c77d43bc-fc61-4f3b-88de-e6a0733de36e&projectId=a0a8f18c-a66e-4ba7-a170-23efbdc67501","A4D4E985E90C44089B7440BAF4E72132-2024-11-24-18-51-23","","null","","[]","null","",""
"","","","","","image-button-response","40","358773","0.0-10.0-1.0-0.4","A4D4E985E90C44089B7440BAF4E72132","A4D4E985E90C44089B7440BAF4E72132","c77d43bc-fc61-4f3b-88de-e6a0733de36e","a0a8f18c-a66e-4ba7-a170-23efbdc67501","{""participantId"":""A4D4E985E90C44089B7440BAF4E72132"",""assignmentId"":""c77d43bc-fc61-4f3b-88de-e6a0733de36e"",""projectId"":""a0a8f18c-a66e-4ba7-a170-23efbdc67501""}","https://test12345.live/?participantId=A4D4E985E90C44089B7440BAF4E72132&assignmentId=c77d43bc-fc61-4f3b-88de-e6a0733de36e&projectId=a0a8f18c-a66e-4ba7-a170-23efbdc67501","A4D4E985E90C44089B7440BAF4E72132-2024-11-24-18-51-23","","null","","images/schematic_sequence/restaurant_scheme/restaurant_scheme_5.png","null","",""
"","","","","","image-button-response","41","360134","0.0-10.0-1.0-1.4","A4D4E985E90C44089B7440BAF4E72132","A4D4E985E90C44089B7440BAF4E72132","c77d43bc-fc61-4f3b-88de-e6a0733de36e","a0a8f18c-a66e-4ba7-a170-23efbdc67501","{""participantId"":""A4D4E985E90C44089B7440BAF4E72132"",""assignmentId"":""c77d43bc-fc61-4f3b-88de-e6a0733de36e"",""projectId"":""a0a8f18c-a66e-4ba7-a170-23efbdc67501""}","https://test12345.live/?participantId=A4D4E985E90C44089B7440BAF4E72132&assignmentId=c77d43bc-fc61-4f3b-88de-e6a0733de36e&projectId=a0a8f18c-a66e-4ba7-a170-23efbdc67501","A4D4E985E90C44089B7440BAF4E72132-2024-11-24-18-51-23","","1356","","images/schematic_sequence/restaurant_scheme/restaurant_scheme_5.png","0","",""
"","","","","","image-button-response","42","362006","0.0-10.0-1.0-2.4","A4D4E985E90C44089B7440BAF4E72132","A4D4E985E90C44089B7440BAF4E72132","c77d43bc-fc61-4f3b-88de-e6a0733de36e","a0a8f18c-a66e-4ba7-a170-23efbdc67501","{""participantId"":""A4D4E985E90C44089B7440BAF4E72132"",""assignmentId"":""c77d43bc-fc61-4f3b-88de-e6a0733de36e"",""projectId"":""a0a8f18c-a66e-4ba7-a170-23efbdc67501""}","https://test12345.live/?participantId=A4D4E985E90C44089B7440BAF4E72132&assignmentId=c77d43bc-fc61-4f3b-88de-e6a0733de36e&projectId=a0a8f18c-a66e-4ba7-a170-23efbdc67501","A4D4E985E90C44089B7440BAF4E72132-2024-11-24-18-51-23","","null","","[]","null","",""
"","","","","","image-button-response","43","366523","0.0-10.0-1.0-0.5","A4D4E985E90C44089B7440BAF4E72132","A4D4E985E90C44089B7440BAF4E72132","c77d43bc-fc61-4f3b-88de-e6a0733de36e","a0a8f18c-a66e-4ba7-a170-23efbdc67501","{""participantId"":""A4D4E985E90C44089B7440BAF4E72132"",""assignmentId"":""c77d43bc-fc61-4f3b-88de-e6a0733de36e"",""projectId"":""a0a8f18c-a66e-4ba7-a170-23efbdc67501""}","https://test12345.live/?participantId=A4D4E985E90C44089B7440BAF4E72132&assignmentId=c77d43bc-fc61-4f3b-88de-e6a0733de36e&projectId=a0a8f18c-a66e-4ba7-a170-23efbdc67501","A4D4E985E90C44089B7440BAF4E72132-2024-11-24-18-51-23","","null","","images/schematic_sequence/restaurant_scheme/restaurant_scheme_6.png","null","",""
"","","","","","image-button-response","44","368620","0.0-10.0-1.0-1.5","A4D4E985E90C44089B7440BAF4E72132","A4D4E985E90C44089B7440BAF4E72132","c77d43bc-fc61-4f3b-88de-e6a0733de36e","a0a8f18c-a66e-4ba7-a170-23efbdc67501","{""participantId"":""A4D4E985E90C44089B7440BAF4E72132"",""assignmentId"":""c77d43bc-fc61-4f3b-88de-e6a0733de36e"",""projectId"":""a0a8f18c-a66e-4ba7-a170-23efbdc67501""}","https://test12345.live/?participantId=A4D4E985E90C44089B7440BAF4E72132&assignmentId=c77d43bc-fc61-4f3b-88de-e6a0733de36e&projectId=a0a8f18c-a66e-4ba7-a170-23efbdc67501","A4D4E985E90C44089B7440BAF4E72132-2024-11-24-18-51-23","","2094","","images/schematic_sequence/restaurant_scheme/restaurant_scheme_6.png","1","",""
"","","","","","image-button-response","45","370444","0.0-10.0-1.0-2.5","A4D4E985E90C44089B7440BAF4E72132","A4D4E985E90C44089B7440BAF4E72132","c77d43bc-fc61-4f3b-88de-e6a0733de36e","a0a8f18c-a66e-4ba7-a170-23efbdc67501","{""participantId"":""A4D4E985E90C44089B7440BAF4E72132"",""assignmentId"":""c77d43bc-fc61-4f3b-88de-e6a0733de36e"",""projectId"":""a0a8f18c-a66e-4ba7-a170-23efbdc67501""}","https://test12345.live/?participantId=A4D4E985E90C44089B7440BAF4E72132&assignmentId=c77d43bc-fc61-4f3b-88de-e6a0733de36e&projectId=a0a8f18c-a66e-4ba7-a170-23efbdc67501","A4D4E985E90C44089B7440BAF4E72132-2024-11-24-18-51-23","","null","","[]","null","",""
"","","","","","image-button-response","46","374966","0.0-10.0-1.0-0.6","A4D4E985E90C44089B7440BAF4E72132","A4D4E985E90C44089B7440BAF4E72132","c77d43bc-fc61-4f3b-88de-e6a0733de36e","a0a8f18c-a66e-4ba7-a170-23efbdc67501","{""participantId"":""A4D4E985E90C44089B7440BAF4E72132"",""assignmentId"":""c77d43bc-fc61-4f3b-88de-e6a0733de36e"",""projectId"":""a0a8f18c-a66e-4ba7-a170-23efbdc67501""}","https://test12345.live/?participantId=A4D4E985E90C44089B7440BAF4E72132&assignmentId=c77d43bc-fc61-4f3b-88de-e6a0733de36e&projectId=a0a8f18c-a66e-4ba7-a170-23efbdc67501","A4D4E985E90C44089B7440BAF4E72132-2024-11-24-18-51-23","","null","","images/schematic_sequence/restaurant_scheme/restaurant_scheme_7.png","null","",""
"","","","","","image-button-response","47","376599","0.0-10.0-1.0-1.6","A4D4E985E90C44089B7440BAF4E72132","A4D4E985E90C44089B7440BAF4E72132","c77d43bc-fc61-4f3b-88de-e6a0733de36e","a0a8f18c-a66e-4ba7-a170-23efbdc67501","{""participantId"":""A4D4E985E90C44089B7440BAF4E72132"",""assignmentId"":""c77d43bc-fc61-4f3b-88de-e6a0733de36e"",""projectId"":""a0a8f18c-a66e-4ba7-a170-23efbdc67501""}","https://test12345.live/?participantId=A4D4E985E90C44089B7440BAF4E72132&assignmentId=c77d43bc-fc61-4f3b-88de-e6a0733de36e&projectId=a0a8f18c-a66e-4ba7-a170-23efbdc67501","A4D4E985E90C44089B7440BAF4E72132-2024-11-24-18-51-23","","1629","","images/schematic_sequence/restaurant_scheme/restaurant_scheme_7.png","1","",""
"","","","","","image-button-response","48","378416","0.0-10.0-1.0-2.6","A4D4E985E90C44089B7440BAF4E72132","A4D4E985E90C44089B7440BAF4E72132","c77d43bc-fc61-4f3b-88de-e6a0733de36e","a0a8f18c-a66e-4ba7-a170-23efbdc67501","{""participantId"":""A4D4E985E90C44089B7440BAF4E72132"",""assignmentId"":""c77d43bc-fc61-4f3b-88de-e6a0733de36e"",""projectId"":""a0a8f18c-a66e-4ba7-a170-23efbdc67501""}","https://test12345.live/?participantId=A4D4E985E90C44089B7440BAF4E72132&assignmentId=c77d43bc-fc61-4f3b-88de-e6a0733de36e&projectId=a0a8f18c-a66e-4ba7-a170-23efbdc67501","A4D4E985E90C44089B7440BAF4E72132-2024-11-24-18-51-23","","null","","[]","null","",""
"","","","","","image-button-response","49","382930","0.0-10.0-1.0-0.7","A4D4E985E90C44089B7440BAF4E72132","A4D4E985E90C44089B7440BAF4E72132","c77d43bc-fc61-4f3b-88de-e6a0733de36e","a0a8f18c-a66e-4ba7-a170-23efbdc67501","{""participantId"":""A4D4E985E90C44089B7440BAF4E72132"",""assignmentId"":""c77d43bc-fc61-4f3b-88de-e6a0733de36e"",""projectId"":""a0a8f18c-a66e-4ba7-a170-23efbdc67501""}","https://test12345.live/?participantId=A4D4E985E90C44089B7440BAF4E72132&assignmentId=c77d43bc-fc61-4f3b-88de-e6a0733de36e&projectId=a0a8f18c-a66e-4ba7-a170-23efbdc67501","A4D4E985E90C44089B7440BAF4E72132-2024-11-24-18-51-23","","null","","images/schematic_sequence/restaurant_scheme/restaurant_scheme_8.png","null","",""
"","","","","","image-button-response","50","384338","0.0-10.0-1.0-1.7","A4D4E985E90C44089B7440BAF4E72132","A4D4E985E90C44089B7440BAF4E72132","c77d43bc-fc61-4f3b-88de-e6a0733de36e","a0a8f18c-a66e-4ba7-a170-23efbdc67501","{""participantId"":""A4D4E985E90C44089B7440BAF4E72132"",""assignmentId"":""c77d43bc-fc61-4f3b-88de-e6a0733de36e"",""projectId"":""a0a8f18c-a66e-4ba7-a170-23efbdc67501""}","https://test12345.live/?participantId=A4D4E985E90C44089B7440BAF4E72132&assignmentId=c77d43bc-fc61-4f3b-88de-e6a0733de36e&projectId=a0a8f18c-a66e-4ba7-a170-23efbdc67501","A4D4E985E90C44089B7440BAF4E72132-2024-11-24-18-51-23","","1402","","images/schematic_sequence/restaurant_scheme/restaurant_scheme_8.png","0","",""
"","","","","","image-button-response","51","386143","0.0-10.0-1.0-2.7","A4D4E985E90C44089B7440BAF4E72132","A4D4E985E90C44089B7440BAF4E72132","c77d43bc-fc61-4f3b-88de-e6a0733de36e","a0a8f18c-a66e-4ba7-a170-23efbdc67501","{""participantId"":""A4D4E985E90C44089B7440BAF4E72132"",""assignmentId"":""c77d43bc-fc61-4f3b-88de-e6a0733de36e"",""projectId"":""a0a8f18c-a66e-4ba7-a170-23efbdc67501""}","https://test12345.live/?participantId=A4D4E985E90C44089B7440BAF4E72132&assignmentId=c77d43bc-fc61-4f3b-88de-e6a0733de36e&projectId=a0a8f18c-a66e-4ba7-a170-23efbdc67501","A4D4E985E90C44089B7440BAF4E72132-2024-11-24-18-51-23","","null","","[]","null","",""
"","","","","","image-button-response","52","390666","0.0-10.0-1.0-0.8","A4D4E985E90C44089B7440BAF4E72132","A4D4E985E90C44089B7440BAF4E72132","c77d43bc-fc61-4f3b-88de-e6a0733de36e","a0a8f18c-a66e-4ba7-a170-23efbdc67501","{""participantId"":""A4D4E985E90C44089B7440BAF4E72132"",""assignmentId"":""c77d43bc-fc61-4f3b-88de-e6a0733de36e"",""projectId"":""a0a8f18c-a66e-4ba7-a170-23efbdc67501""}","https://test12345.live/?participantId=A4D4E985E90C44089B7440BAF4E72132&assignmentId=c77d43bc-fc61-4f3b-88de-e6a0733de36e&projectId=a0a8f18c-a66e-4ba7-a170-23efbdc67501","A4D4E985E90C44089B7440BAF4E72132-2024-11-24-18-51-23","","null","","images/schematic_sequence/restaurant_scheme/restaurant_scheme_9.png","null","",""
"","","","","","image-button-response","53","391950","0.0-10.0-1.0-1.8","A4D4E985E90C44089B7440BAF4E72132","A4D4E985E90C44089B7440BAF4E72132","c77d43bc-fc61-4f3b-88de-e6a0733de36e","a0a8f18c-a66e-4ba7-a170-23efbdc67501","{""participantId"":""A4D4E985E90C44089B7440BAF4E72132"",""assignmentId"":""c77d43bc-fc61-4f3b-88de-e6a0733de36e"",""projectId"":""a0a8f18c-a66e-4ba7-a170-23efbdc67501""}","https://test12345.live/?participantId=A4D4E985E90C44089B7440BAF4E72132&assignmentId=c77d43bc-fc61-4f3b-88de-e6a0733de36e&projectId=a0a8f18c-a66e-4ba7-a170-23efbdc67501","A4D4E985E90C44089B7440BAF4E72132-2024-11-24-18-51-23","","1279","","images/schematic_sequence/restaurant_scheme/restaurant_scheme_9.png","0","",""
"","","","","","image-button-response","54","393777","0.0-10.0-1.0-2.8","A4D4E985E90C44089B7440BAF4E72132","A4D4E985E90C44089B7440BAF4E72132","c77d43bc-fc61-4f3b-88de-e6a0733de36e","a0a8f18c-a66e-4ba7-a170-23efbdc67501","{""participantId"":""A4D4E985E90C44089B7440BAF4E72132"",""assignmentId"":""c77d43bc-fc61-4f3b-88de-e6a0733de36e"",""projectId"":""a0a8f18c-a66e-4ba7-a170-23efbdc67501""}","https://test12345.live/?participantId=A4D4E985E90C44089B7440BAF4E72132&assignmentId=c77d43bc-fc61-4f3b-88de-e6a0733de36e&projectId=a0a8f18c-a66e-4ba7-a170-23efbdc67501","A4D4E985E90C44089B7440BAF4E72132-2024-11-24-18-51-23","","null","","[]","null","",""
"","","","","","image-button-response","55","398283","0.0-10.0-1.0-0.9","A4D4E985E90C44089B7440BAF4E72132","A4D4E985E90C44089B7440BAF4E72132","c77d43bc-fc61-4f3b-88de-e6a0733de36e","a0a8f18c-a66e-4ba7-a170-23efbdc67501","{""participantId"":""A4D4E985E90C44089B7440BAF4E72132"",""assignmentId"":""c77d43bc-fc61-4f3b-88de-e6a0733de36e"",""projectId"":""a0a8f18c-a66e-4ba7-a170-23efbdc67501""}","https://test12345.live/?participantId=A4D4E985E90C44089B7440BAF4E72132&assignmentId=c77d43bc-fc61-4f3b-88de-e6a0733de36e&projectId=a0a8f18c-a66e-4ba7-a170-23efbdc67501","A4D4E985E90C44089B7440BAF4E72132-2024-11-24-18-51-23","","null","","images/schematic_sequence/restaurant_scheme/restaurant_scheme_ten.png","null","",""
"","","","","","image-button-response","56","399544","0.0-10.0-1.0-1.9","A4D4E985E90C44089B7440BAF4E72132","A4D4E985E90C44089B7440BAF4E72132","c77d43bc-fc61-4f3b-88de-e6a0733de36e","a0a8f18c-a66e-4ba7-a170-23efbdc67501","{""participantId"":""A4D4E985E90C44089B7440BAF4E72132"",""assignmentId"":""c77d43bc-fc61-4f3b-88de-e6a0733de36e"",""projectId"":""a0a8f18c-a66e-4ba7-a170-23efbdc67501""}","https://test12345.live/?participantId=A4D4E985E90C44089B7440BAF4E72132&assignmentId=c77d43bc-fc61-4f3b-88de-e6a0733de36e&projectId=a0a8f18c-a66e-4ba7-a170-23efbdc67501","A4D4E985E90C44089B7440BAF4E72132-2024-11-24-18-51-23","","1256","","images/schematic_sequence/restaurant_scheme/restaurant_scheme_ten.png","0","",""
"","","","","","image-button-response","57","401348","0.0-10.0-1.0-2.9","A4D4E985E90C44089B7440BAF4E72132","A4D4E985E90C44089B7440BAF4E72132","c77d43bc-fc61-4f3b-88de-e6a0733de36e","a0a8f18c-a66e-4ba7-a170-23efbdc67501","{""participantId"":""A4D4E985E90C44089B7440BAF4E72132"",""assignmentId"":""c77d43bc-fc61-4f3b-88de-e6a0733de36e"",""projectId"":""a0a8f18c-a66e-4ba7-a170-23efbdc67501""}","https://test12345.live/?participantId=A4D4E985E90C44089B7440BAF4E72132&assignmentId=c77d43bc-fc61-4f3b-88de-e6a0733de36e&projectId=a0a8f18c-a66e-4ba7-a170-23efbdc67501","A4D4E985E90C44089B7440BAF4E72132-2024-11-24-18-51-23","","null","","[]","null","",""
"","","","","","html-audio-response","58","432158","0.0-11.0","A4D4E985E90C44089B7440BAF4E72132","A4D4E985E90C44089B7440BAF4E72132","c77d43bc-fc61-4f3b-88de-e6a0733de36e","a0a8f18c-a66e-4ba7-a170-23efbdc67501","{""participantId"":""A4D4E985E90C44089B7440BAF4E72132"",""assignmentId"":""c77d43bc-fc61-4f3b-88de-e6a0733de36e"",""projectId"":""a0a8f18c-a66e-4ba7-a170-23efbdc67501""}","https://test12345.live/?participantId=A4D4E985E90C44089B7440BAF4E72132&assignmentId=c77d43bc-fc61-4f3b-88de-e6a0733de36e&projectId=a0a8f18c-a66e-4ba7-a170-23efbdc67501","A4D4E985E90C44089B7440BAF4E72132-2024-11-24-18-51-23","","28730","","[""<span style=\""color: red; font-size: 24px\""> NOW RECORDING</span><p>Please say out loud all the images you saw, as many as you can remember. The images can be said in any order.</p>""]","","3","restaurant_scheme"
"","","","","","image-button-response","59","438208","0.0-12.0-0.0","A4D4E985E90C44089B7440BAF4E72132","A4D4E985E90C44089B7440BAF4E72132","c77d43bc-fc61-4f3b-88de-e6a0733de36e","a0a8f18c-a66e-4ba7-a170-23efbdc67501","{""participantId"":""A4D4E985E90C44089B7440BAF4E72132"",""assignmentId"":""c77d43bc-fc61-4f3b-88de-e6a0733de36e"",""projectId"":""a0a8f18c-a66e-4ba7-a170-23efbdc67501""}","https://test12345.live/?participantId=A4D4E985E90C44089B7440BAF4E72132&assignmentId=c77d43bc-fc61-4f3b-88de-e6a0733de36e&projectId=a0a8f18c-a66e-4ba7-a170-23efbdc67501","A4D4E985E90C44089B7440BAF4E72132-2024-11-24-18-51-23","","null","","images/semantic_sequence/physical_activity_semantic/physical_activity_semantic_0.png","null","",""
"","","","","","image-button-response","60","442730","0.0-12.0-1.0-0.0","A4D4E985E90C44089B7440BAF4E72132","A4D4E985E90C44089B7440BAF4E72132","c77d43bc-fc61-4f3b-88de-e6a0733de36e","a0a8f18c-a66e-4ba7-a170-23efbdc67501","{""participantId"":""A4D4E985E90C44089B7440BAF4E72132"",""assignmentId"":""c77d43bc-fc61-4f3b-88de-e6a0733de36e"",""projectId"":""a0a8f18c-a66e-4ba7-a170-23efbdc67501""}","https://test12345.live/?participantId=A4D4E985E90C44089B7440BAF4E72132&assignmentId=c77d43bc-fc61-4f3b-88de-e6a0733de36e&projectId=a0a8f18c-a66e-4ba7-a170-23efbdc67501","A4D4E985E90C44089B7440BAF4E72132-2024-11-24-18-51-23","","null","","images/semantic_sequence/physical_activity_semantic/physical_activity_semantic_1.png","null","",""
"","","","","","image-button-response","61","446217","0.0-12.0-1.0-1.0","A4D4E985E90C44089B7440BAF4E72132","A4D4E985E90C44089B7440BAF4E72132","c77d43bc-fc61-4f3b-88de-e6a0733de36e","a0a8f18c-a66e-4ba7-a170-23efbdc67501","{""participantId"":""A4D4E985E90C44089B7440BAF4E72132"",""assignmentId"":""c77d43bc-fc61-4f3b-88de-e6a0733de36e"",""projectId"":""a0a8f18c-a66e-4ba7-a170-23efbdc67501""}","https://test12345.live/?participantId=A4D4E985E90C44089B7440BAF4E72132&assignmentId=c77d43bc-fc61-4f3b-88de-e6a0733de36e&projectId=a0a8f18c-a66e-4ba7-a170-23efbdc67501","A4D4E985E90C44089B7440BAF4E72132-2024-11-24-18-51-23","","3481","","images/semantic_sequence/physical_activity_semantic/physical_activity_semantic_1.png","0","",""
"","","","","","image-button-response","62","448038","0.0-12.0-1.0-2.0","A4D4E985E90C44089B7440BAF4E72132","A4D4E985E90C44089B7440BAF4E72132","c77d43bc-fc61-4f3b-88de-e6a0733de36e","a0a8f18c-a66e-4ba7-a170-23efbdc67501","{""participantId"":""A4D4E985E90C44089B7440BAF4E72132"",""assignmentId"":""c77d43bc-fc61-4f3b-88de-e6a0733de36e"",""projectId"":""a0a8f18c-a66e-4ba7-a170-23efbdc67501""}","https://test12345.live/?participantId=A4D4E985E90C44089B7440BAF4E72132&assignmentId=c77d43bc-fc61-4f3b-88de-e6a0733de36e&projectId=a0a8f18c-a66e-4ba7-a170-23efbdc67501","A4D4E985E90C44089B7440BAF4E72132-2024-11-24-18-51-23","","null","","[]","null","",""
"","","","","","image-button-response","63","452567","0.0-12.0-1.0-0.1","A4D4E985E90C44089B7440BAF4E72132","A4D4E985E90C44089B7440BAF4E72132","c77d43bc-fc61-4f3b-88de-e6a0733de36e","a0a8f18c-a66e-4ba7-a170-23efbdc67501","{""participantId"":""A4D4E985E90C44089B7440BAF4E72132"",""assignmentId"":""c77d43bc-fc61-4f3b-88de-e6a0733de36e"",""projectId"":""a0a8f18c-a66e-4ba7-a170-23efbdc67501""}","https://test12345.live/?participantId=A4D4E985E90C44089B7440BAF4E72132&assignmentId=c77d43bc-fc61-4f3b-88de-e6a0733de36e&projectId=a0a8f18c-a66e-4ba7-a170-23efbdc67501","A4D4E985E90C44089B7440BAF4E72132-2024-11-24-18-51-23","","null","","images/semantic_sequence/physical_activity_semantic/physical_activity_semantic_2.png","null","",""
"","","","","","image-button-response","64","454001","0.0-12.0-1.0-1.1","A4D4E985E90C44089B7440BAF4E72132","A4D4E985E90C44089B7440BAF4E72132","c77d43bc-fc61-4f3b-88de-e6a0733de36e","a0a8f18c-a66e-4ba7-a170-23efbdc67501","{""participantId"":""A4D4E985E90C44089B7440BAF4E72132"",""assignmentId"":""c77d43bc-fc61-4f3b-88de-e6a0733de36e"",""projectId"":""a0a8f18c-a66e-4ba7-a170-23efbdc67501""}","https://test12345.live/?participantId=A4D4E985E90C44089B7440BAF4E72132&assignmentId=c77d43bc-fc61-4f3b-88de-e6a0733de36e&projectId=a0a8f18c-a66e-4ba7-a170-23efbdc67501","A4D4E985E90C44089B7440BAF4E72132-2024-11-24-18-51-23","","1428","","images/semantic_sequence/physical_activity_semantic/physical_activity_semantic_2.png","0","",""
"","","","","","image-button-response","65","455819","0.0-12.0-1.0-2.1","A4D4E985E90C44089B7440BAF4E72132","A4D4E985E90C44089B7440BAF4E72132","c77d43bc-fc61-4f3b-88de-e6a0733de36e","a0a8f18c-a66e-4ba7-a170-23efbdc67501","{""participantId"":""A4D4E985E90C44089B7440BAF4E72132"",""assignmentId"":""c77d43bc-fc61-4f3b-88de-e6a0733de36e"",""projectId"":""a0a8f18c-a66e-4ba7-a170-23efbdc67501""}","https://test12345.live/?participantId=A4D4E985E90C44089B7440BAF4E72132&assignmentId=c77d43bc-fc61-4f3b-88de-e6a0733de36e&projectId=a0a8f18c-a66e-4ba7-a170-23efbdc67501","A4D4E985E90C44089B7440BAF4E72132-2024-11-24-18-51-23","","null","","[]","null","",""
"","","","","","image-button-response","66","460336","0.0-12.0-1.0-0.2","A4D4E985E90C44089B7440BAF4E72132","A4D4E985E90C44089B7440BAF4E72132","c77d43bc-fc61-4f3b-88de-e6a0733de36e","a0a8f18c-a66e-4ba7-a170-23efbdc67501","{""participantId"":""A4D4E985E90C44089B7440BAF4E72132"",""assignmentId"":""c77d43bc-fc61-4f3b-88de-e6a0733de36e"",""projectId"":""a0a8f18c-a66e-4ba7-a170-23efbdc67501""}","https://test12345.live/?participantId=A4D4E985E90C44089B7440BAF4E72132&assignmentId=c77d43bc-fc61-4f3b-88de-e6a0733de36e&projectId=a0a8f18c-a66e-4ba7-a170-23efbdc67501","A4D4E985E90C44089B7440BAF4E72132-2024-11-24-18-51-23","","null","","images/semantic_sequence/physical_activity_semantic/physical_activity_semantic_3.png","null","",""
"","","","","","image-button-response","67","461378","0.0-12.0-1.0-1.2","A4D4E985E90C44089B7440BAF4E72132","A4D4E985E90C44089B7440BAF4E72132","c77d43bc-fc61-4f3b-88de-e6a0733de36e","a0a8f18c-a66e-4ba7-a170-23efbdc67501","{""participantId"":""A4D4E985E90C44089B7440BAF4E72132"",""assignmentId"":""c77d43bc-fc61-4f3b-88de-e6a0733de36e"",""projectId"":""a0a8f18c-a66e-4ba7-a170-23efbdc67501""}","https://test12345.live/?participantId=A4D4E985E90C44089B7440BAF4E72132&assignmentId=c77d43bc-fc61-4f3b-88de-e6a0733de36e&projectId=a0a8f18c-a66e-4ba7-a170-23efbdc67501","A4D4E985E90C44089B7440BAF4E72132-2024-11-24-18-51-23","","1039","","images/semantic_sequence/physical_activity_semantic/physical_activity_semantic_3.png","0","",""
"","","","","","image-button-response","68","463192","0.0-12.0-1.0-2.2","A4D4E985E90C44089B7440BAF4E72132","A4D4E985E90C44089B7440BAF4E72132","c77d43bc-fc61-4f3b-88de-e6a0733de36e","a0a8f18c-a66e-4ba7-a170-23efbdc67501","{""participantId"":""A4D4E985E90C44089B7440BAF4E72132"",""assignmentId"":""c77d43bc-fc61-4f3b-88de-e6a0733de36e"",""projectId"":""a0a8f18c-a66e-4ba7-a170-23efbdc67501""}","https://test12345.live/?participantId=A4D4E985E90C44089B7440BAF4E72132&assignmentId=c77d43bc-fc61-4f3b-88de-e6a0733de36e&projectId=a0a8f18c-a66e-4ba7-a170-23efbdc67501","A4D4E985E90C44089B7440BAF4E72132-2024-11-24-18-51-23","","null","","[]","null","",""
"","","","","","image-button-response","69","467698","0.0-12.0-1.0-0.3","A4D4E985E90C44089B7440BAF4E72132","A4D4E985E90C44089B7440BAF4E72132","c77d43bc-fc61-4f3b-88de-e6a0733de36e","a0a8f18c-a66e-4ba7-a170-23efbdc67501","{""participantId"":""A4D4E985E90C44089B7440BAF4E72132"",""assignmentId"":""c77d43bc-fc61-4f3b-88de-e6a0733de36e"",""projectId"":""a0a8f18c-a66e-4ba7-a170-23efbdc67501""}","https://test12345.live/?participantId=A4D4E985E90C44089B7440BAF4E72132&assignmentId=c77d43bc-fc61-4f3b-88de-e6a0733de36e&projectId=a0a8f18c-a66e-4ba7-a170-23efbdc67501","A4D4E985E90C44089B7440BAF4E72132-2024-11-24-18-51-23","","null","","images/semantic_sequence/physical_activity_semantic/physical_activity_semantic_4.png","null","",""
"","","","","","image-button-response","70","468979","0.0-12.0-1.0-1.3","A4D4E985E90C44089B7440BAF4E72132","A4D4E985E90C44089B7440BAF4E72132","c77d43bc-fc61-4f3b-88de-e6a0733de36e","a0a8f18c-a66e-4ba7-a170-23efbdc67501","{""participantId"":""A4D4E985E90C44089B7440BAF4E72132"",""assignmentId"":""c77d43bc-fc61-4f3b-88de-e6a0733de36e"",""projectId"":""a0a8f18c-a66e-4ba7-a170-23efbdc67501""}","https://test12345.live/?participantId=A4D4E985E90C44089B7440BAF4E72132&assignmentId=c77d43bc-fc61-4f3b-88de-e6a0733de36e&projectId=a0a8f18c-a66e-4ba7-a170-23efbdc67501","A4D4E985E90C44089B7440BAF4E72132-2024-11-24-18-51-23","","1270","","images/semantic_sequence/physical_activity_semantic/physical_activity_semantic_4.png","1","",""
"","","","","","image-button-response","71","470799","0.0-12.0-1.0-2.3","A4D4E985E90C44089B7440BAF4E72132","A4D4E985E90C44089B7440BAF4E72132","c77d43bc-fc61-4f3b-88de-e6a0733de36e","a0a8f18c-a66e-4ba7-a170-23efbdc67501","{""participantId"":""A4D4E985E90C44089B7440BAF4E72132"",""assignmentId"":""c77d43bc-fc61-4f3b-88de-e6a0733de36e"",""projectId"":""a0a8f18c-a66e-4ba7-a170-23efbdc67501""}","https://test12345.live/?participantId=A4D4E985E90C44089B7440BAF4E72132&assignmentId=c77d43bc-fc61-4f3b-88de-e6a0733de36e&projectId=a0a8f18c-a66e-4ba7-a170-23efbdc67501","A4D4E985E90C44089B7440BAF4E72132-2024-11-24-18-51-23","","null","","[]","null","",""
"","","","","","image-button-response","72","475316","0.0-12.0-1.0-0.4","A4D4E985E90C44089B7440BAF4E72132","A4D4E985E90C44089B7440BAF4E72132","c77d43bc-fc61-4f3b-88de-e6a0733de36e","a0a8f18c-a66e-4ba7-a170-23efbdc67501","{""participantId"":""A4D4E985E90C44089B7440BAF4E72132"",""assignmentId"":""c77d43bc-fc61-4f3b-88de-e6a0733de36e"",""projectId"":""a0a8f18c-a66e-4ba7-a170-23efbdc67501""}","https://test12345.live/?participantId=A4D4E985E90C44089B7440BAF4E72132&assignmentId=c77d43bc-fc61-4f3b-88de-e6a0733de36e&projectId=a0a8f18c-a66e-4ba7-a170-23efbdc67501","A4D4E985E90C44089B7440BAF4E72132-2024-11-24-18-51-23","","null","","images/semantic_sequence/physical_activity_semantic/physical_activity_semantic_5.png","null","",""
"","","","","","image-button-response","73","476541","0.0-12.0-1.0-1.4","A4D4E985E90C44089B7440BAF4E72132","A4D4E985E90C44089B7440BAF4E72132","c77d43bc-fc61-4f3b-88de-e6a0733de36e","a0a8f18c-a66e-4ba7-a170-23efbdc67501","{""participantId"":""A4D4E985E90C44089B7440BAF4E72132"",""assignmentId"":""c77d43bc-fc61-4f3b-88de-e6a0733de36e"",""projectId"":""a0a8f18c-a66e-4ba7-a170-23efbdc67501""}","https://test12345.live/?participantId=A4D4E985E90C44089B7440BAF4E72132&assignmentId=c77d43bc-fc61-4f3b-88de-e6a0733de36e&projectId=a0a8f18c-a66e-4ba7-a170-23efbdc67501","A4D4E985E90C44089B7440BAF4E72132-2024-11-24-18-51-23","","1221","","images/semantic_sequence/physical_activity_semantic/physical_activity_semantic_5.png","0","",""
"","","","","","image-button-response","74","478357","0.0-12.0-1.0-2.4","A4D4E985E90C44089B7440BAF4E72132","A4D4E985E90C44089B7440BAF4E72132","c77d43bc-fc61-4f3b-88de-e6a0733de36e","a0a8f18c-a66e-4ba7-a170-23efbdc67501","{""participantId"":""A4D4E985E90C44089B7440BAF4E72132"",""assignmentId"":""c77d43bc-fc61-4f3b-88de-e6a0733de36e"",""projectId"":""a0a8f18c-a66e-4ba7-a170-23efbdc67501""}","https://test12345.live/?participantId=A4D4E985E90C44089B7440BAF4E72132&assignmentId=c77d43bc-fc61-4f3b-88de-e6a0733de36e&projectId=a0a8f18c-a66e-4ba7-a170-23efbdc67501","A4D4E985E90C44089B7440BAF4E72132-2024-11-24-18-51-23","","null","","[]","null","",""
"","","","","","image-button-response","75","482888","0.0-12.0-1.0-0.5","A4D4E985E90C44089B7440BAF4E72132","A4D4E985E90C44089B7440BAF4E72132","c77d43bc-fc61-4f3b-88de-e6a0733de36e","a0a8f18c-a66e-4ba7-a170-23efbdc67501","{""participantId"":""A4D4E985E90C44089B7440BAF4E72132"",""assignmentId"":""c77d43bc-fc61-4f3b-88de-e6a0733de36e"",""projectId"":""a0a8f18c-a66e-4ba7-a170-23efbdc67501""}","https://test12345.live/?participantId=A4D4E985E90C44089B7440BAF4E72132&assignmentId=c77d43bc-fc61-4f3b-88de-e6a0733de36e&projectId=a0a8f18c-a66e-4ba7-a170-23efbdc67501","A4D4E985E90C44089B7440BAF4E72132-2024-11-24-18-51-23","","null","","images/semantic_sequence/physical_activity_semantic/physical_activity_semantic_6.png","null","",""
"","","","","","image-button-response","76","484127","0.0-12.0-1.0-1.5","A4D4E985E90C44089B7440BAF4E72132","A4D4E985E90C44089B7440BAF4E72132","c77d43bc-fc61-4f3b-88de-e6a0733de36e","a0a8f18c-a66e-4ba7-a170-23efbdc67501","{""participantId"":""A4D4E985E90C44089B7440BAF4E72132"",""assignmentId"":""c77d43bc-fc61-4f3b-88de-e6a0733de36e"",""projectId"":""a0a8f18c-a66e-4ba7-a170-23efbdc67501""}","https://test12345.live/?participantId=A4D4E985E90C44089B7440BAF4E72132&assignmentId=c77d43bc-fc61-4f3b-88de-e6a0733de36e&projectId=a0a8f18c-a66e-4ba7-a170-23efbdc67501","A4D4E985E90C44089B7440BAF4E72132-2024-11-24-18-51-23","","1235","","images/semantic_sequence/physical_activity_semantic/physical_activity_semantic_6.png","0","",""
"","","","","","image-button-response","77","485944","0.0-12.0-1.0-2.5","A4D4E985E90C44089B7440BAF4E72132","A4D4E985E90C44089B7440BAF4E72132","c77d43bc-fc61-4f3b-88de-e6a0733de36e","a0a8f18c-a66e-4ba7-a170-23efbdc67501","{""participantId"":""A4D4E985E90C44089B7440BAF4E72132"",""assignmentId"":""c77d43bc-fc61-4f3b-88de-e6a0733de36e"",""projectId"":""a0a8f18c-a66e-4ba7-a170-23efbdc67501""}","https://test12345.live/?participantId=A4D4E985E90C44089B7440BAF4E72132&assignmentId=c77d43bc-fc61-4f3b-88de-e6a0733de36e&projectId=a0a8f18c-a66e-4ba7-a170-23efbdc67501","A4D4E985E90C44089B7440BAF4E72132-2024-11-24-18-51-23","","null","","[]","null","",""
"","","","","","image-button-response","78","490456","0.0-12.0-1.0-0.6","A4D4E985E90C44089B7440BAF4E72132","A4D4E985E90C44089B7440BAF4E72132","c77d43bc-fc61-4f3b-88de-e6a0733de36e","a0a8f18c-a66e-4ba7-a170-23efbdc67501","{""participantId"":""A4D4E985E90C44089B7440BAF4E72132"",""assignmentId"":""c77d43bc-fc61-4f3b-88de-e6a0733de36e"",""projectId"":""a0a8f18c-a66e-4ba7-a170-23efbdc67501""}","https://test12345.live/?participantId=A4D4E985E90C44089B7440BAF4E72132&assignmentId=c77d43bc-fc61-4f3b-88de-e6a0733de36e&projectId=a0a8f18c-a66e-4ba7-a170-23efbdc67501","A4D4E985E90C44089B7440BAF4E72132-2024-11-24-18-51-23","","null","","images/semantic_sequence/physical_activity_semantic/physical_activity_semantic_7.png","null","",""
"","","","","","image-button-response","79","491767","0.0-12.0-1.0-1.6","A4D4E985E90C44089B7440BAF4E72132","A4D4E985E90C44089B7440BAF4E72132","c77d43bc-fc61-4f3b-88de-e6a0733de36e","a0a8f18c-a66e-4ba7-a170-23efbdc67501","{""participantId"":""A4D4E985E90C44089B7440BAF4E72132"",""assignmentId"":""c77d43bc-fc61-4f3b-88de-e6a0733de36e"",""projectId"":""a0a8f18c-a66e-4ba7-a170-23efbdc67501""}","https://test12345.live/?participantId=A4D4E985E90C44089B7440BAF4E72132&assignmentId=c77d43bc-fc61-4f3b-88de-e6a0733de36e&projectId=a0a8f18c-a66e-4ba7-a170-23efbdc67501","A4D4E985E90C44089B7440BAF4E72132-2024-11-24-18-51-23","","1307","","images/semantic_sequence/physical_activity_semantic/physical_activity_semantic_7.png","0","",""
"","","","","","image-button-response","80","493576","0.0-12.0-1.0-2.6","A4D4E985E90C44089B7440BAF4E72132","A4D4E985E90C44089B7440BAF4E72132","c77d43bc-fc61-4f3b-88de-e6a0733de36e","a0a8f18c-a66e-4ba7-a170-23efbdc67501","{""participantId"":""A4D4E985E90C44089B7440BAF4E72132"",""assignmentId"":""c77d43bc-fc61-4f3b-88de-e6a0733de36e"",""projectId"":""a0a8f18c-a66e-4ba7-a170-23efbdc67501""}","https://test12345.live/?participantId=A4D4E985E90C44089B7440BAF4E72132&assignmentId=c77d43bc-fc61-4f3b-88de-e6a0733de36e&projectId=a0a8f18c-a66e-4ba7-a170-23efbdc67501","A4D4E985E90C44089B7440BAF4E72132-2024-11-24-18-51-23","","null","","[]","null","",""
"","","","","","image-button-response","81","498102","0.0-12.0-1.0-0.7","A4D4E985E90C44089B7440BAF4E72132","A4D4E985E90C44089B7440BAF4E72132","c77d43bc-fc61-4f3b-88de-e6a0733de36e","a0a8f18c-a66e-4ba7-a170-23efbdc67501","{""participantId"":""A4D4E985E90C44089B7440BAF4E72132"",""assignmentId"":""c77d43bc-fc61-4f3b-88de-e6a0733de36e"",""projectId"":""a0a8f18c-a66e-4ba7-a170-23efbdc67501""}","https://test12345.live/?participantId=A4D4E985E90C44089B7440BAF4E72132&assignmentId=c77d43bc-fc61-4f3b-88de-e6a0733de36e&projectId=a0a8f18c-a66e-4ba7-a170-23efbdc67501","A4D4E985E90C44089B7440BAF4E72132-2024-11-24-18-51-23","","null","","images/semantic_sequence/physical_activity_semantic/physical_activity_semantic_8.png","null","",""
"","","","","","image-button-response","82","499454","0.0-12.0-1.0-1.7","A4D4E985E90C44089B7440BAF4E72132","A4D4E985E90C44089B7440BAF4E72132","c77d43bc-fc61-4f3b-88de-e6a0733de36e","a0a8f18c-a66e-4ba7-a170-23efbdc67501","{""participantId"":""A4D4E985E90C44089B7440BAF4E72132"",""assignmentId"":""c77d43bc-fc61-4f3b-88de-e6a0733de36e"",""projectId"":""a0a8f18c-a66e-4ba7-a170-23efbdc67501""}","https://test12345.live/?participantId=A4D4E985E90C44089B7440BAF4E72132&assignmentId=c77d43bc-fc61-4f3b-88de-e6a0733de36e&projectId=a0a8f18c-a66e-4ba7-a170-23efbdc67501","A4D4E985E90C44089B7440BAF4E72132-2024-11-24-18-51-23","","1348","","images/semantic_sequence/physical_activity_semantic/physical_activity_semantic_8.png","0","",""
"","","","","","image-button-response","83","501268","0.0-12.0-1.0-2.7","A4D4E985E90C44089B7440BAF4E72132","A4D4E985E90C44089B7440BAF4E72132","c77d43bc-fc61-4f3b-88de-e6a0733de36e","a0a8f18c-a66e-4ba7-a170-23efbdc67501","{""participantId"":""A4D4E985E90C44089B7440BAF4E72132"",""assignmentId"":""c77d43bc-fc61-4f3b-88de-e6a0733de36e"",""projectId"":""a0a8f18c-a66e-4ba7-a170-23efbdc67501""}","https://test12345.live/?participantId=A4D4E985E90C44089B7440BAF4E72132&assignmentId=c77d43bc-fc61-4f3b-88de-e6a0733de36e&projectId=a0a8f18c-a66e-4ba7-a170-23efbdc67501","A4D4E985E90C44089B7440BAF4E72132-2024-11-24-18-51-23","","null","","[]","null","",""
"","","","","","image-button-response","84","505790","0.0-12.0-1.0-0.8","A4D4E985E90C44089B7440BAF4E72132","A4D4E985E90C44089B7440BAF4E72132","c77d43bc-fc61-4f3b-88de-e6a0733de36e","a0a8f18c-a66e-4ba7-a170-23efbdc67501","{""participantId"":""A4D4E985E90C44089B7440BAF4E72132"",""assignmentId"":""c77d43bc-fc61-4f3b-88de-e6a0733de36e"",""projectId"":""a0a8f18c-a66e-4ba7-a170-23efbdc67501""}","https://test12345.live/?participantId=A4D4E985E90C44089B7440BAF4E72132&assignmentId=c77d43bc-fc61-4f3b-88de-e6a0733de36e&projectId=a0a8f18c-a66e-4ba7-a170-23efbdc67501","A4D4E985E90C44089B7440BAF4E72132-2024-11-24-18-51-23","","null","","images/semantic_sequence/physical_activity_semantic/physical_activity_semantic_9.png","null","",""
"","","","","","image-button-response","85","507053","0.0-12.0-1.0-1.8","A4D4E985E90C44089B7440BAF4E72132","A4D4E985E90C44089B7440BAF4E72132","c77d43bc-fc61-4f3b-88de-e6a0733de36e","a0a8f18c-a66e-4ba7-a170-23efbdc67501","{""participantId"":""A4D4E985E90C44089B7440BAF4E72132"",""assignmentId"":""c77d43bc-fc61-4f3b-88de-e6a0733de36e"",""projectId"":""a0a8f18c-a66e-4ba7-a170-23efbdc67501""}","https://test12345.live/?participantId=A4D4E985E90C44089B7440BAF4E72132&assignmentId=c77d43bc-fc61-4f3b-88de-e6a0733de36e&projectId=a0a8f18c-a66e-4ba7-a170-23efbdc67501","A4D4E985E90C44089B7440BAF4E72132-2024-11-24-18-51-23","","1251","","images/semantic_sequence/physical_activity_semantic/physical_activity_semantic_9.png","0","",""
"","","","","","image-button-response","86","508861","0.0-12.0-1.0-2.8","A4D4E985E90C44089B7440BAF4E72132","A4D4E985E90C44089B7440BAF4E72132","c77d43bc-fc61-4f3b-88de-e6a0733de36e","a0a8f18c-a66e-4ba7-a170-23efbdc67501","{""participantId"":""A4D4E985E90C44089B7440BAF4E72132"",""assignmentId"":""c77d43bc-fc61-4f3b-88de-e6a0733de36e"",""projectId"":""a0a8f18c-a66e-4ba7-a170-23efbdc67501""}","https://test12345.live/?participantId=A4D4E985E90C44089B7440BAF4E72132&assignmentId=c77d43bc-fc61-4f3b-88de-e6a0733de36e&projectId=a0a8f18c-a66e-4ba7-a170-23efbdc67501","A4D4E985E90C44089B7440BAF4E72132-2024-11-24-18-51-23","","null","","[]","null","",""
"","","","","","image-button-response","87","513365","0.0-12.0-1.0-0.9","A4D4E985E90C44089B7440BAF4E72132","A4D4E985E90C44089B7440BAF4E72132","c77d43bc-fc61-4f3b-88de-e6a0733de36e","a0a8f18c-a66e-4ba7-a170-23efbdc67501","{""participantId"":""A4D4E985E90C44089B7440BAF4E72132"",""assignmentId"":""c77d43bc-fc61-4f3b-88de-e6a0733de36e"",""projectId"":""a0a8f18c-a66e-4ba7-a170-23efbdc67501""}","https://test12345.live/?participantId=A4D4E985E90C44089B7440BAF4E72132&assignmentId=c77d43bc-fc61-4f3b-88de-e6a0733de36e&projectId=a0a8f18c-a66e-4ba7-a170-23efbdc67501","A4D4E985E90C44089B7440BAF4E72132-2024-11-24-18-51-23","","null","","images/semantic_sequence/physical_activity_semantic/physical_activity_semantic_ten.png","null","",""
"","","","","","image-button-response","88","514592","0.0-12.0-1.0-1.9","A4D4E985E90C44089B7440BAF4E72132","A4D4E985E90C44089B7440BAF4E72132","c77d43bc-fc61-4f3b-88de-e6a0733de36e","a0a8f18c-a66e-4ba7-a170-23efbdc67501","{""participantId"":""A4D4E985E90C44089B7440BAF4E72132"",""assignmentId"":""c77d43bc-fc61-4f3b-88de-e6a0733de36e"",""projectId"":""a0a8f18c-a66e-4ba7-a170-23efbdc67501""}","https://test12345.live/?participantId=A4D4E985E90C44089B7440BAF4E72132&assignmentId=c77d43bc-fc61-4f3b-88de-e6a0733de36e&projectId=a0a8f18c-a66e-4ba7-a170-23efbdc67501","A4D4E985E90C44089B7440BAF4E72132-2024-11-24-18-51-23","","1221","","images/semantic_sequence/physical_activity_semantic/physical_activity_semantic_ten.png","0","",""
"","","","","","image-button-response","89","516407","0.0-12.0-1.0-2.9","A4D4E985E90C44089B7440BAF4E72132","A4D4E985E90C44089B7440BAF4E72132","c77d43bc-fc61-4f3b-88de-e6a0733de36e","a0a8f18c-a66e-4ba7-a170-23efbdc67501","{""participantId"":""A4D4E985E90C44089B7440BAF4E72132"",""assignmentId"":""c77d43bc-fc61-4f3b-88de-e6a0733de36e"",""projectId"":""a0a8f18c-a66e-4ba7-a170-23efbdc67501""}","https://test12345.live/?participantId=A4D4E985E90C44089B7440BAF4E72132&assignmentId=c77d43bc-fc61-4f3b-88de-e6a0733de36e&projectId=a0a8f18c-a66e-4ba7-a170-23efbdc67501","A4D4E985E90C44089B7440BAF4E72132-2024-11-24-18-51-23","","null","","[]","null","",""
"","","","","","html-audio-response","90","577966","0.0-13.0","A4D4E985E90C44089B7440BAF4E72132","A4D4E985E90C44089B7440BAF4E72132","c77d43bc-fc61-4f3b-88de-e6a0733de36e","a0a8f18c-a66e-4ba7-a170-23efbdc67501","{""participantId"":""A4D4E985E90C44089B7440BAF4E72132"",""assignmentId"":""c77d43bc-fc61-4f3b-88de-e6a0733de36e"",""projectId"":""a0a8f18c-a66e-4ba7-a170-23efbdc67501""}","https://test12345.live/?participantId=A4D4E985E90C44089B7440BAF4E72132&assignmentId=c77d43bc-fc61-4f3b-88de-e6a0733de36e&projectId=a0a8f18c-a66e-4ba7-a170-23efbdc67501","A4D4E985E90C44089B7440BAF4E72132-2024-11-24-18-51-23","","4842","","[""<span style=\""color: red; font-size: 24px\""> NOW RECORDING</span><p>Please say out loud all the images you saw, as many as you can remember. The images can be said in any order.</p>""]","","7","physical_activity_semantic"
"","","","","","image-button-response","91","584034","0.0-14.0-0.0","A4D4E985E90C44089B7440BAF4E72132","A4D4E985E90C44089B7440BAF4E72132","c77d43bc-fc61-4f3b-88de-e6a0733de36e","a0a8f18c-a66e-4ba7-a170-23efbdc67501","{""participantId"":""A4D4E985E90C44089B7440BAF4E72132"",""assignmentId"":""c77d43bc-fc61-4f3b-88de-e6a0733de36e"",""projectId"":""a0a8f18c-a66e-4ba7-a170-23efbdc67501""}","https://test12345.live/?participantId=A4D4E985E90C44089B7440BAF4E72132&assignmentId=c77d43bc-fc61-4f3b-88de-e6a0733de36e&projectId=a0a8f18c-a66e-4ba7-a170-23efbdc67501","A4D4E985E90C44089B7440BAF4E72132-2024-11-24-18-51-23","","null","","images/schematic_sequence/flight_scheme/flight_scheme_0.png","null","",""
"","","","","","image-button-response","92","588550","0.0-14.0-1.0-0.0","A4D4E985E90C44089B7440BAF4E72132","A4D4E985E90C44089B7440BAF4E72132","c77d43bc-fc61-4f3b-88de-e6a0733de36e","a0a8f18c-a66e-4ba7-a170-23efbdc67501","{""participantId"":""A4D4E985E90C44089B7440BAF4E72132"",""assignmentId"":""c77d43bc-fc61-4f3b-88de-e6a0733de36e"",""projectId"":""a0a8f18c-a66e-4ba7-a170-23efbdc67501""}","https://test12345.live/?participantId=A4D4E985E90C44089B7440BAF4E72132&assignmentId=c77d43bc-fc61-4f3b-88de-e6a0733de36e&projectId=a0a8f18c-a66e-4ba7-a170-23efbdc67501","A4D4E985E90C44089B7440BAF4E72132-2024-11-24-18-51-23","","null","","images/schematic_sequence/flight_scheme/flight_scheme_9.png","null","",""
"","","","","","image-button-response","93","591614","0.0-14.0-1.0-1.0","A4D4E985E90C44089B7440BAF4E72132","A4D4E985E90C44089B7440BAF4E72132","c77d43bc-fc61-4f3b-88de-e6a0733de36e","a0a8f18c-a66e-4ba7-a170-23efbdc67501","{""participantId"":""A4D4E985E90C44089B7440BAF4E72132"",""assignmentId"":""c77d43bc-fc61-4f3b-88de-e6a0733de36e"",""projectId"":""a0a8f18c-a66e-4ba7-a170-23efbdc67501""}","https://test12345.live/?participantId=A4D4E985E90C44089B7440BAF4E72132&assignmentId=c77d43bc-fc61-4f3b-88de-e6a0733de36e&projectId=a0a8f18c-a66e-4ba7-a170-23efbdc67501","A4D4E985E90C44089B7440BAF4E72132-2024-11-24-18-51-23","","3058","","images/schematic_sequence/flight_scheme/flight_scheme_9.png","0","",""
"","","","","","image-button-response","94","593423","0.0-14.0-1.0-2.0","A4D4E985E90C44089B7440BAF4E72132","A4D4E985E90C44089B7440BAF4E72132","c77d43bc-fc61-4f3b-88de-e6a0733de36e","a0a8f18c-a66e-4ba7-a170-23efbdc67501","{""participantId"":""A4D4E985E90C44089B7440BAF4E72132"",""assignmentId"":""c77d43bc-fc61-4f3b-88de-e6a0733de36e"",""projectId"":""a0a8f18c-a66e-4ba7-a170-23efbdc67501""}","https://test12345.live/?participantId=A4D4E985E90C44089B7440BAF4E72132&assignmentId=c77d43bc-fc61-4f3b-88de-e6a0733de36e&projectId=a0a8f18c-a66e-4ba7-a170-23efbdc67501","A4D4E985E90C44089B7440BAF4E72132-2024-11-24-18-51-23","","null","","[]","null","",""
"","","","","","image-button-response","95","597932","0.0-14.0-1.0-0.1","A4D4E985E90C44089B7440BAF4E72132","A4D4E985E90C44089B7440BAF4E72132","c77d43bc-fc61-4f3b-88de-e6a0733de36e","a0a8f18c-a66e-4ba7-a170-23efbdc67501","{""participantId"":""A4D4E985E90C44089B7440BAF4E72132"",""assignmentId"":""c77d43bc-fc61-4f3b-88de-e6a0733de36e"",""projectId"":""a0a8f18c-a66e-4ba7-a170-23efbdc67501""}","https://test12345.live/?participantId=A4D4E985E90C44089B7440BAF4E72132&assignmentId=c77d43bc-fc61-4f3b-88de-e6a0733de36e&projectId=a0a8f18c-a66e-4ba7-a170-23efbdc67501","A4D4E985E90C44089B7440BAF4E72132-2024-11-24-18-51-23","","null","","images/schematic_sequence/flight_scheme/flight_scheme_8.png","null","",""
"","","","","","image-button-response","96","600006","0.0-14.0-1.0-1.1","A4D4E985E90C44089B7440BAF4E72132","A4D4E985E90C44089B7440BAF4E72132","c77d43bc-fc61-4f3b-88de-e6a0733de36e","a0a8f18c-a66e-4ba7-a170-23efbdc67501","{""participantId"":""A4D4E985E90C44089B7440BAF4E72132"",""assignmentId"":""c77d43bc-fc61-4f3b-88de-e6a0733de36e"",""projectId"":""a0a8f18c-a66e-4ba7-a170-23efbdc67501""}","https://test12345.live/?participantId=A4D4E985E90C44089B7440BAF4E72132&assignmentId=c77d43bc-fc61-4f3b-88de-e6a0733de36e&projectId=a0a8f18c-a66e-4ba7-a170-23efbdc67501","A4D4E985E90C44089B7440BAF4E72132-2024-11-24-18-51-23","","2059","","images/schematic_sequence/flight_scheme/flight_scheme_8.png","1","",""
"","","","","","image-button-response","97","601931","0.0-14.0-1.0-2.1","A4D4E985E90C44089B7440BAF4E72132","A4D4E985E90C44089B7440BAF4E72132","c77d43bc-fc61-4f3b-88de-e6a0733de36e","a0a8f18c-a66e-4ba7-a170-23efbdc67501","{""participantId"":""A4D4E985E90C44089B7440BAF4E72132"",""assignmentId"":""c77d43bc-fc61-4f3b-88de-e6a0733de36e"",""projectId"":""a0a8f18c-a66e-4ba7-a170-23efbdc67501""}","https://test12345.live/?participantId=A4D4E985E90C44089B7440BAF4E72132&assignmentId=c77d43bc-fc61-4f3b-88de-e6a0733de36e&projectId=a0a8f18c-a66e-4ba7-a170-23efbdc67501","A4D4E985E90C44089B7440BAF4E72132-2024-11-24-18-51-23","","null","","[]","null","",""
"","","","","","image-button-response","98","606435","0.0-14.0-1.0-0.2","A4D4E985E90C44089B7440BAF4E72132","A4D4E985E90C44089B7440BAF4E72132","c77d43bc-fc61-4f3b-88de-e6a0733de36e","a0a8f18c-a66e-4ba7-a170-23efbdc67501","{""participantId"":""A4D4E985E90C44089B7440BAF4E72132"",""assignmentId"":""c77d43bc-fc61-4f3b-88de-e6a0733de36e"",""projectId"":""a0a8f18c-a66e-4ba7-a170-23efbdc67501""}","https://test12345.live/?participantId=A4D4E985E90C44089B7440BAF4E72132&assignmentId=c77d43bc-fc61-4f3b-88de-e6a0733de36e&projectId=a0a8f18c-a66e-4ba7-a170-23efbdc67501","A4D4E985E90C44089B7440BAF4E72132-2024-11-24-18-51-23","","null","","images/schematic_sequence/flight_scheme/flight_scheme_7.png","null","",""
"","","","","","image-button-response","99","608011","0.0-14.0-1.0-1.2","A4D4E985E90C44089B7440BAF4E72132","A4D4E985E90C44089B7440BAF4E72132","c77d43bc-fc61-4f3b-88de-e6a0733de36e","a0a8f18c-a66e-4ba7-a170-23efbdc67501","{""participantId"":""A4D4E985E90C44089B7440BAF4E72132"",""assignmentId"":""c77d43bc-fc61-4f3b-88de-e6a0733de36e"",""projectId"":""a0a8f18c-a66e-4ba7-a170-23efbdc67501""}","https://test12345.live/?participantId=A4D4E985E90C44089B7440BAF4E72132&assignmentId=c77d43bc-fc61-4f3b-88de-e6a0733de36e&projectId=a0a8f18c-a66e-4ba7-a170-23efbdc67501","A4D4E985E90C44089B7440BAF4E72132-2024-11-24-18-51-23","","1572","","images/schematic_sequence/flight_scheme/flight_scheme_7.png","1","",""
"","","","","","image-button-response","100","609834","0.0-14.0-1.0-2.2","A4D4E985E90C44089B7440BAF4E72132","A4D4E985E90C44089B7440BAF4E72132","c77d43bc-fc61-4f3b-88de-e6a0733de36e","a0a8f18c-a66e-4ba7-a170-23efbdc67501","{""participantId"":""A4D4E985E90C44089B7440BAF4E72132"",""assignmentId"":""c77d43bc-fc61-4f3b-88de-e6a0733de36e"",""projectId"":""a0a8f18c-a66e-4ba7-a170-23efbdc67501""}","https://test12345.live/?participantId=A4D4E985E90C44089B7440BAF4E72132&assignmentId=c77d43bc-fc61-4f3b-88de-e6a0733de36e&projectId=a0a8f18c-a66e-4ba7-a170-23efbdc67501","A4D4E985E90C44089B7440BAF4E72132-2024-11-24-18-51-23","","null","","[]","null","",""
"","","","","","image-button-response","101","614343","0.0-14.0-1.0-0.3","A4D4E985E90C44089B7440BAF4E72132","A4D4E985E90C44089B7440BAF4E72132","c77d43bc-fc61-4f3b-88de-e6a0733de36e","a0a8f18c-a66e-4ba7-a170-23efbdc67501","{""participantId"":""A4D4E985E90C44089B7440BAF4E72132"",""assignmentId"":""c77d43bc-fc61-4f3b-88de-e6a0733de36e"",""projectId"":""a0a8f18c-a66e-4ba7-a170-23efbdc67501""}","https://test12345.live/?participantId=A4D4E985E90C44089B7440BAF4E72132&assignmentId=c77d43bc-fc61-4f3b-88de-e6a0733de36e&projectId=a0a8f18c-a66e-4ba7-a170-23efbdc67501","A4D4E985E90C44089B7440BAF4E72132-2024-11-24-18-51-23","","null","","images/schematic_sequence/flight_scheme/flight_scheme_5.png","null","",""
"","","","","","image-button-response","102","616034","0.0-14.0-1.0-1.3","A4D4E985E90C44089B7440BAF4E72132","A4D4E985E90C44089B7440BAF4E72132","c77d43bc-fc61-4f3b-88de-e6a0733de36e","a0a8f18c-a66e-4ba7-a170-23efbdc67501","{""participantId"":""A4D4E985E90C44089B7440BAF4E72132"",""assignmentId"":""c77d43bc-fc61-4f3b-88de-e6a0733de36e"",""projectId"":""a0a8f18c-a66e-4ba7-a170-23efbdc67501""}","https://test12345.live/?participantId=A4D4E985E90C44089B7440BAF4E72132&assignmentId=c77d43bc-fc61-4f3b-88de-e6a0733de36e&projectId=a0a8f18c-a66e-4ba7-a170-23efbdc67501","A4D4E985E90C44089B7440BAF4E72132-2024-11-24-18-51-23","","1679","","images/schematic_sequence/flight_scheme/flight_scheme_5.png","0","",""
"","","","","","image-button-response","103","617853","0.0-14.0-1.0-2.3","A4D4E985E90C44089B7440BAF4E72132","A4D4E985E90C44089B7440BAF4E72132","c77d43bc-fc61-4f3b-88de-e6a0733de36e","a0a8f18c-a66e-4ba7-a170-23efbdc67501","{""participantId"":""A4D4E985E90C44089B7440BAF4E72132"",""assignmentId"":""c77d43bc-fc61-4f3b-88de-e6a0733de36e"",""projectId"":""a0a8f18c-a66e-4ba7-a170-23efbdc67501""}","https://test12345.live/?participantId=A4D4E985E90C44089B7440BAF4E72132&assignmentId=c77d43bc-fc61-4f3b-88de-e6a0733de36e&projectId=a0a8f18c-a66e-4ba7-a170-23efbdc67501","A4D4E985E90C44089B7440BAF4E72132-2024-11-24-18-51-23","","null","","[]","null","",""
"","","","","","image-button-response","104","622364","0.0-14.0-1.0-0.4","A4D4E985E90C44089B7440BAF4E72132","A4D4E985E90C44089B7440BAF4E72132","c77d43bc-fc61-4f3b-88de-e6a0733de36e","a0a8f18c-a66e-4ba7-a170-23efbdc67501","{""participantId"":""A4D4E985E90C44089B7440BAF4E72132"",""assignmentId"":""c77d43bc-fc61-4f3b-88de-e6a0733de36e"",""projectId"":""a0a8f18c-a66e-4ba7-a170-23efbdc67501""}","https://test12345.live/?participantId=A4D4E985E90C44089B7440BAF4E72132&assignmentId=c77d43bc-fc61-4f3b-88de-e6a0733de36e&projectId=a0a8f18c-a66e-4ba7-a170-23efbdc67501","A4D4E985E90C44089B7440BAF4E72132-2024-11-24-18-51-23","","null","","images/schematic_sequence/flight_scheme/flight_scheme_4.png","null","",""
"","","","","","image-button-response","105","623791","0.0-14.0-1.0-1.4","A4D4E985E90C44089B7440BAF4E72132","A4D4E985E90C44089B7440BAF4E72132","c77d43bc-fc61-4f3b-88de-e6a0733de36e","a0a8f18c-a66e-4ba7-a170-23efbdc67501","{""participantId"":""A4D4E985E90C44089B7440BAF4E72132"",""assignmentId"":""c77d43bc-fc61-4f3b-88de-e6a0733de36e"",""projectId"":""a0a8f18c-a66e-4ba7-a170-23efbdc67501""}","https://test12345.live/?participantId=A4D4E985E90C44089B7440BAF4E72132&assignmentId=c77d43bc-fc61-4f3b-88de-e6a0733de36e&projectId=a0a8f18c-a66e-4ba7-a170-23efbdc67501","A4D4E985E90C44089B7440BAF4E72132-2024-11-24-18-51-23","","1421","","images/schematic_sequence/flight_scheme/flight_scheme_4.png","0","",""
"","","","","","image-button-response","106","625613","0.0-14.0-1.0-2.4","A4D4E985E90C44089B7440BAF4E72132","A4D4E985E90C44089B7440BAF4E72132","c77d43bc-fc61-4f3b-88de-e6a0733de36e","a0a8f18c-a66e-4ba7-a170-23efbdc67501","{""participantId"":""A4D4E985E90C44089B7440BAF4E72132"",""assignmentId"":""c77d43bc-fc61-4f3b-88de-e6a0733de36e"",""projectId"":""a0a8f18c-a66e-4ba7-a170-23efbdc67501""}","https://test12345.live/?participantId=A4D4E985E90C44089B7440BAF4E72132&assignmentId=c77d43bc-fc61-4f3b-88de-e6a0733de36e&projectId=a0a8f18c-a66e-4ba7-a170-23efbdc67501","A4D4E985E90C44089B7440BAF4E72132-2024-11-24-18-51-23","","null","","[]","null","",""
"","","","","","image-button-response","107","630118","0.0-14.0-1.0-0.5","A4D4E985E90C44089B7440BAF4E72132","A4D4E985E90C44089B7440BAF4E72132","c77d43bc-fc61-4f3b-88de-e6a0733de36e","a0a8f18c-a66e-4ba7-a170-23efbdc67501","{""participantId"":""A4D4E985E90C44089B7440BAF4E72132"",""assignmentId"":""c77d43bc-fc61-4f3b-88de-e6a0733de36e"",""projectId"":""a0a8f18c-a66e-4ba7-a170-23efbdc67501""}","https://test12345.live/?participantId=A4D4E985E90C44089B7440BAF4E72132&assignmentId=c77d43bc-fc61-4f3b-88de-e6a0733de36e&projectId=a0a8f18c-a66e-4ba7-a170-23efbdc67501","A4D4E985E90C44089B7440BAF4E72132-2024-11-24-18-51-23","","null","","images/schematic_sequence/flight_scheme/flight_scheme_2.png","null","",""
"","","","","","image-button-response","108","631517","0.0-14.0-1.0-1.5","A4D4E985E90C44089B7440BAF4E72132","A4D4E985E90C44089B7440BAF4E72132","c77d43bc-fc61-4f3b-88de-e6a0733de36e","a0a8f18c-a66e-4ba7-a170-23efbdc67501","{""participantId"":""A4D4E985E90C44089B7440BAF4E72132"",""assignmentId"":""c77d43bc-fc61-4f3b-88de-e6a0733de36e"",""projectId"":""a0a8f18c-a66e-4ba7-a170-23efbdc67501""}","https://test12345.live/?participantId=A4D4E985E90C44089B7440BAF4E72132&assignmentId=c77d43bc-fc61-4f3b-88de-e6a0733de36e&projectId=a0a8f18c-a66e-4ba7-a170-23efbdc67501","A4D4E985E90C44089B7440BAF4E72132-2024-11-24-18-51-23","","1394","","images/schematic_sequence/flight_scheme/flight_scheme_2.png","1","",""
"","","","","","image-button-response","109","633323","0.0-14.0-1.0-2.5","A4D4E985E90C44089B7440BAF4E72132","A4D4E985E90C44089B7440BAF4E72132","c77d43bc-fc61-4f3b-88de-e6a0733de36e","a0a8f18c-a66e-4ba7-a170-23efbdc67501","{""participantId"":""A4D4E985E90C44089B7440BAF4E72132"",""assignmentId"":""c77d43bc-fc61-4f3b-88de-e6a0733de36e"",""projectId"":""a0a8f18c-a66e-4ba7-a170-23efbdc67501""}","https://test12345.live/?participantId=A4D4E985E90C44089B7440BAF4E72132&assignmentId=c77d43bc-fc61-4f3b-88de-e6a0733de36e&projectId=a0a8f18c-a66e-4ba7-a170-23efbdc67501","A4D4E985E90C44089B7440BAF4E72132-2024-11-24-18-51-23","","null","","[]","null","",""
"","","","","","image-button-response","110","637842","0.0-14.0-1.0-0.6","A4D4E985E90C44089B7440BAF4E72132","A4D4E985E90C44089B7440BAF4E72132","c77d43bc-fc61-4f3b-88de-e6a0733de36e","a0a8f18c-a66e-4ba7-a170-23efbdc67501","{""participantId"":""A4D4E985E90C44089B7440BAF4E72132"",""assignmentId"":""c77d43bc-fc61-4f3b-88de-e6a0733de36e"",""projectId"":""a0a8f18c-a66e-4ba7-a170-23efbdc67501""}","https://test12345.live/?participantId=A4D4E985E90C44089B7440BAF4E72132&assignmentId=c77d43bc-fc61-4f3b-88de-e6a0733de36e&projectId=a0a8f18c-a66e-4ba7-a170-23efbdc67501","A4D4E985E90C44089B7440BAF4E72132-2024-11-24-18-51-23","","null","","images/schematic_sequence/flight_scheme/flight_scheme_6.png","null","",""
"","","","","","image-button-response","111","639014","0.0-14.0-1.0-1.6","A4D4E985E90C44089B7440BAF4E72132","A4D4E985E90C44089B7440BAF4E72132","c77d43bc-fc61-4f3b-88de-e6a0733de36e","a0a8f18c-a66e-4ba7-a170-23efbdc67501","{""participantId"":""A4D4E985E90C44089B7440BAF4E72132"",""assignmentId"":""c77d43bc-fc61-4f3b-88de-e6a0733de36e"",""projectId"":""a0a8f18c-a66e-4ba7-a170-23efbdc67501""}","https://test12345.live/?participantId=A4D4E985E90C44089B7440BAF4E72132&assignmentId=c77d43bc-fc61-4f3b-88de-e6a0733de36e&projectId=a0a8f18c-a66e-4ba7-a170-23efbdc67501","A4D4E985E90C44089B7440BAF4E72132-2024-11-24-18-51-23","","1168","","images/schematic_sequence/flight_scheme/flight_scheme_6.png","1","",""
"","","","","","image-button-response","112","640831","0.0-14.0-1.0-2.6","A4D4E985E90C44089B7440BAF4E72132","A4D4E985E90C44089B7440BAF4E72132","c77d43bc-fc61-4f3b-88de-e6a0733de36e","a0a8f18c-a66e-4ba7-a170-23efbdc67501","{""participantId"":""A4D4E985E90C44089B7440BAF4E72132"",""assignmentId"":""c77d43bc-fc61-4f3b-88de-e6a0733de36e"",""projectId"":""a0a8f18c-a66e-4ba7-a170-23efbdc67501""}","https://test12345.live/?participantId=A4D4E985E90C44089B7440BAF4E72132&assignmentId=c77d43bc-fc61-4f3b-88de-e6a0733de36e&projectId=a0a8f18c-a66e-4ba7-a170-23efbdc67501","A4D4E985E90C44089B7440BAF4E72132-2024-11-24-18-51-23","","null","","[]","null","",""
"","","","","","image-button-response","113","645341","0.0-14.0-1.0-0.7","A4D4E985E90C44089B7440BAF4E72132","A4D4E985E90C44089B7440BAF4E72132","c77d43bc-fc61-4f3b-88de-e6a0733de36e","a0a8f18c-a66e-4ba7-a170-23efbdc67501","{""participantId"":""A4D4E985E90C44089B7440BAF4E72132"",""assignmentId"":""c77d43bc-fc61-4f3b-88de-e6a0733de36e"",""projectId"":""a0a8f18c-a66e-4ba7-a170-23efbdc67501""}","https://test12345.live/?participantId=A4D4E985E90C44089B7440BAF4E72132&assignmentId=c77d43bc-fc61-4f3b-88de-e6a0733de36e&projectId=a0a8f18c-a66e-4ba7-a170-23efbdc67501","A4D4E985E90C44089B7440BAF4E72132-2024-11-24-18-51-23","","null","","images/schematic_sequence/flight_scheme/flight_scheme_1.png","null","",""
"","","","","","image-button-response","114","646525","0.0-14.0-1.0-1.7","A4D4E985E90C44089B7440BAF4E72132","A4D4E985E90C44089B7440BAF4E72132","c77d43bc-fc61-4f3b-88de-e6a0733de36e","a0a8f18c-a66e-4ba7-a170-23efbdc67501","{""participantId"":""A4D4E985E90C44089B7440BAF4E72132"",""assignmentId"":""c77d43bc-fc61-4f3b-88de-e6a0733de36e"",""projectId"":""a0a8f18c-a66e-4ba7-a170-23efbdc67501""}","https://test12345.live/?participantId=A4D4E985E90C44089B7440BAF4E72132&assignmentId=c77d43bc-fc61-4f3b-88de-e6a0733de36e&projectId=a0a8f18c-a66e-4ba7-a170-23efbdc67501","A4D4E985E90C44089B7440BAF4E72132-2024-11-24-18-51-23","","1180","","images/schematic_sequence/flight_scheme/flight_scheme_1.png","0","",""
"","","","","","image-button-response","115","648343","0.0-14.0-1.0-2.7","A4D4E985E90C44089B7440BAF4E72132","A4D4E985E90C44089B7440BAF4E72132","c77d43bc-fc61-4f3b-88de-e6a0733de36e","a0a8f18c-a66e-4ba7-a170-23efbdc67501","{""participantId"":""A4D4E985E90C44089B7440BAF4E72132"",""assignmentId"":""c77d43bc-fc61-4f3b-88de-e6a0733de36e"",""projectId"":""a0a8f18c-a66e-4ba7-a170-23efbdc67501""}","https://test12345.live/?participantId=A4D4E985E90C44089B7440BAF4E72132&assignmentId=c77d43bc-fc61-4f3b-88de-e6a0733de36e&projectId=a0a8f18c-a66e-4ba7-a170-23efbdc67501","A4D4E985E90C44089B7440BAF4E72132-2024-11-24-18-51-23","","null","","[]","null","",""
"","","","","","image-button-response","116","652852","0.0-14.0-1.0-0.8","A4D4E985E90C44089B7440BAF4E72132","A4D4E985E90C44089B7440BAF4E72132","c77d43bc-fc61-4f3b-88de-e6a0733de36e","a0a8f18c-a66e-4ba7-a170-23efbdc67501","{""participantId"":""A4D4E985E90C44089B7440BAF4E72132"",""assignmentId"":""c77d43bc-fc61-4f3b-88de-e6a0733de36e"",""projectId"":""a0a8f18c-a66e-4ba7-a170-23efbdc67501""}","https://test12345.live/?participantId=A4D4E985E90C44089B7440BAF4E72132&assignmentId=c77d43bc-fc61-4f3b-88de-e6a0733de36e&projectId=a0a8f18c-a66e-4ba7-a170-23efbdc67501","A4D4E985E90C44089B7440BAF4E72132-2024-11-24-18-51-23","","null","","images/schematic_sequence/flight_scheme/flight_scheme_3.png","null","",""
"","","","","","image-button-response","117","654377","0.0-14.0-1.0-1.8","A4D4E985E90C44089B7440BAF4E72132","A4D4E985E90C44089B7440BAF4E72132","c77d43bc-fc61-4f3b-88de-e6a0733de36e","a0a8f18c-a66e-4ba7-a170-23efbdc67501","{""participantId"":""A4D4E985E90C44089B7440BAF4E72132"",""assignmentId"":""c77d43bc-fc61-4f3b-88de-e6a0733de36e"",""projectId"":""a0a8f18c-a66e-4ba7-a170-23efbdc67501""}","https://test12345.live/?participantId=A4D4E985E90C44089B7440BAF4E72132&assignmentId=c77d43bc-fc61-4f3b-88de-e6a0733de36e&projectId=a0a8f18c-a66e-4ba7-a170-23efbdc67501","A4D4E985E90C44089B7440BAF4E72132-2024-11-24-18-51-23","","1522","","images/schematic_sequence/flight_scheme/flight_scheme_3.png","0","",""
"","","","","","image-button-response","118","656191","0.0-14.0-1.0-2.8","A4D4E985E90C44089B7440BAF4E72132","A4D4E985E90C44089B7440BAF4E72132","c77d43bc-fc61-4f3b-88de-e6a0733de36e","a0a8f18c-a66e-4ba7-a170-23efbdc67501","{""participantId"":""A4D4E985E90C44089B7440BAF4E72132"",""assignmentId"":""c77d43bc-fc61-4f3b-88de-e6a0733de36e"",""projectId"":""a0a8f18c-a66e-4ba7-a170-23efbdc67501""}","https://test12345.live/?participantId=A4D4E985E90C44089B7440BAF4E72132&assignmentId=c77d43bc-fc61-4f3b-88de-e6a0733de36e&projectId=a0a8f18c-a66e-4ba7-a170-23efbdc67501","A4D4E985E90C44089B7440BAF4E72132-2024-11-24-18-51-23","","null","","[]","null","",""
"","","","","","image-button-response","119","660706","0.0-14.0-1.0-0.9","A4D4E985E90C44089B7440BAF4E72132","A4D4E985E90C44089B7440BAF4E72132","c77d43bc-fc61-4f3b-88de-e6a0733de36e","a0a8f18c-a66e-4ba7-a170-23efbdc67501","{""participantId"":""A4D4E985E90C44089B7440BAF4E72132"",""assignmentId"":""c77d43bc-fc61-4f3b-88de-e6a0733de36e"",""projectId"":""a0a8f18c-a66e-4ba7-a170-23efbdc67501""}","https://test12345.live/?participantId=A4D4E985E90C44089B7440BAF4E72132&assignmentId=c77d43bc-fc61-4f3b-88de-e6a0733de36e&projectId=a0a8f18c-a66e-4ba7-a170-23efbdc67501","A4D4E985E90C44089B7440BAF4E72132-2024-11-24-18-51-23","","null","","images/schematic_sequence/flight_scheme/flight_scheme_ten.png","null","",""
"","","","","","image-button-response","120","661973","0.0-14.0-1.0-1.9","A4D4E985E90C44089B7440BAF4E72132","A4D4E985E90C44089B7440BAF4E72132","c77d43bc-fc61-4f3b-88de-e6a0733de36e","a0a8f18c-a66e-4ba7-a170-23efbdc67501","{""participantId"":""A4D4E985E90C44089B7440BAF4E72132"",""assignmentId"":""c77d43bc-fc61-4f3b-88de-e6a0733de36e"",""projectId"":""a0a8f18c-a66e-4ba7-a170-23efbdc67501""}","https://test12345.live/?participantId=A4D4E985E90C44089B7440BAF4E72132&assignmentId=c77d43bc-fc61-4f3b-88de-e6a0733de36e&projectId=a0a8f18c-a66e-4ba7-a170-23efbdc67501","A4D4E985E90C44089B7440BAF4E72132-2024-11-24-18-51-23","","1262","","images/schematic_sequence/flight_scheme/flight_scheme_ten.png","0","",""
"","","","","","image-button-response","121","663789","0.0-14.0-1.0-2.9","A4D4E985E90C44089B7440BAF4E72132","A4D4E985E90C44089B7440BAF4E72132","c77d43bc-fc61-4f3b-88de-e6a0733de36e","a0a8f18c-a66e-4ba7-a170-23efbdc67501","{""participantId"":""A4D4E985E90C44089B7440BAF4E72132"",""assignmentId"":""c77d43bc-fc61-4f3b-88de-e6a0733de36e"",""projectId"":""a0a8f18c-a66e-4ba7-a170-23efbdc67501""}","https://test12345.live/?participantId=A4D4E985E90C44089B7440BAF4E72132&assignmentId=c77d43bc-fc61-4f3b-88de-e6a0733de36e&projectId=a0a8f18c-a66e-4ba7-a170-23efbdc67501","A4D4E985E90C44089B7440BAF4E72132-2024-11-24-18-51-23","","null","","[]","null","",""
"","","","","","html-audio-response","122","698780","0.0-15.0","A4D4E985E90C44089B7440BAF4E72132","A4D4E985E90C44089B7440BAF4E72132","c77d43bc-fc61-4f3b-88de-e6a0733de36e","a0a8f18c-a66e-4ba7-a170-23efbdc67501","{""participantId"":""A4D4E985E90C44089B7440BAF4E72132"",""assignmentId"":""c77d43bc-fc61-4f3b-88de-e6a0733de36e"",""projectId"":""a0a8f18c-a66e-4ba7-a170-23efbdc67501""}","https://test12345.live/?participantId=A4D4E985E90C44089B7440BAF4E72132&assignmentId=c77d43bc-fc61-4f3b-88de-e6a0733de36e&projectId=a0a8f18c-a66e-4ba7-a170-23efbdc67501","A4D4E985E90C44089B7440BAF4E72132-2024-11-24-18-51-23","","32825","","[""<span style=\""color: red; font-size: 24px\""> NOW RECORDING</span><p>Please say out loud all the images you saw, as many as you can remember. The images can be said in any order.</p>""]","","7","flight_scheme"
"","","","","","image-button-response","123","704835","0.0-16.0-0.0","A4D4E985E90C44089B7440BAF4E72132","A4D4E985E90C44089B7440BAF4E72132","c77d43bc-fc61-4f3b-88de-e6a0733de36e","a0a8f18c-a66e-4ba7-a170-23efbdc67501","{""participantId"":""A4D4E985E90C44089B7440BAF4E72132"",""assignmentId"":""c77d43bc-fc61-4f3b-88de-e6a0733de36e"",""projectId"":""a0a8f18c-a66e-4ba7-a170-23efbdc67501""}","https://test12345.live/?participantId=A4D4E985E90C44089B7440BAF4E72132&assignmentId=c77d43bc-fc61-4f3b-88de-e6a0733de36e&projectId=a0a8f18c-a66e-4ba7-a170-23efbdc67501","A4D4E985E90C44089B7440BAF4E72132-2024-11-24-18-51-23","","null","","images/causal_sequence/museum_causal/museum_causal_0.png","null","",""
"","","","","","image-button-response","124","709366","0.0-16.0-1.0-0.0","A4D4E985E90C44089B7440BAF4E72132","A4D4E985E90C44089B7440BAF4E72132","c77d43bc-fc61-4f3b-88de-e6a0733de36e","a0a8f18c-a66e-4ba7-a170-23efbdc67501","{""participantId"":""A4D4E985E90C44089B7440BAF4E72132"",""assignmentId"":""c77d43bc-fc61-4f3b-88de-e6a0733de36e"",""projectId"":""a0a8f18c-a66e-4ba7-a170-23efbdc67501""}","https://test12345.live/?participantId=A4D4E985E90C44089B7440BAF4E72132&assignmentId=c77d43bc-fc61-4f3b-88de-e6a0733de36e&projectId=a0a8f18c-a66e-4ba7-a170-23efbdc67501","A4D4E985E90C44089B7440BAF4E72132-2024-11-24-18-51-23","","null","","images/causal_sequence/museum_causal/museum_causal_1.png","null","",""
"","","","","","image-button-response","125","712655","0.0-16.0-1.0-1.0","A4D4E985E90C44089B7440BAF4E72132","A4D4E985E90C44089B7440BAF4E72132","c77d43bc-fc61-4f3b-88de-e6a0733de36e","a0a8f18c-a66e-4ba7-a170-23efbdc67501","{""participantId"":""A4D4E985E90C44089B7440BAF4E72132"",""assignmentId"":""c77d43bc-fc61-4f3b-88de-e6a0733de36e"",""projectId"":""a0a8f18c-a66e-4ba7-a170-23efbdc67501""}","https://test12345.live/?participantId=A4D4E985E90C44089B7440BAF4E72132&assignmentId=c77d43bc-fc61-4f3b-88de-e6a0733de36e&projectId=a0a8f18c-a66e-4ba7-a170-23efbdc67501","A4D4E985E90C44089B7440BAF4E72132-2024-11-24-18-51-23","","3277","","images/causal_sequence/museum_causal/museum_causal_1.png","0","",""
"","","","","","image-button-response","126","714476","0.0-16.0-1.0-2.0","A4D4E985E90C44089B7440BAF4E72132","A4D4E985E90C44089B7440BAF4E72132","c77d43bc-fc61-4f3b-88de-e6a0733de36e","a0a8f18c-a66e-4ba7-a170-23efbdc67501","{""participantId"":""A4D4E985E90C44089B7440BAF4E72132"",""assignmentId"":""c77d43bc-fc61-4f3b-88de-e6a0733de36e"",""projectId"":""a0a8f18c-a66e-4ba7-a170-23efbdc67501""}","https://test12345.live/?participantId=A4D4E985E90C44089B7440BAF4E72132&assignmentId=c77d43bc-fc61-4f3b-88de-e6a0733de36e&projectId=a0a8f18c-a66e-4ba7-a170-23efbdc67501","A4D4E985E90C44089B7440BAF4E72132-2024-11-24-18-51-23","","null","","[]","null","",""
"","","","","","image-button-response","127","718987","0.0-16.0-1.0-0.1","A4D4E985E90C44089B7440BAF4E72132","A4D4E985E90C44089B7440BAF4E72132","c77d43bc-fc61-4f3b-88de-e6a0733de36e","a0a8f18c-a66e-4ba7-a170-23efbdc67501","{""participantId"":""A4D4E985E90C44089B7440BAF4E72132"",""assignmentId"":""c77d43bc-fc61-4f3b-88de-e6a0733de36e"",""projectId"":""a0a8f18c-a66e-4ba7-a170-23efbdc67501""}","https://test12345.live/?participantId=A4D4E985E90C44089B7440BAF4E72132&assignmentId=c77d43bc-fc61-4f3b-88de-e6a0733de36e&projectId=a0a8f18c-a66e-4ba7-a170-23efbdc67501","A4D4E985E90C44089B7440BAF4E72132-2024-11-24-18-51-23","","null","","images/causal_sequence/museum_causal/museum_causal_2.png","null","",""
"","","","","","image-button-response","128","721305","0.0-16.0-1.0-1.1","A4D4E985E90C44089B7440BAF4E72132","A4D4E985E90C44089B7440BAF4E72132","c77d43bc-fc61-4f3b-88de-e6a0733de36e","a0a8f18c-a66e-4ba7-a170-23efbdc67501","{""participantId"":""A4D4E985E90C44089B7440BAF4E72132"",""assignmentId"":""c77d43bc-fc61-4f3b-88de-e6a0733de36e"",""projectId"":""a0a8f18c-a66e-4ba7-a170-23efbdc67501""}","https://test12345.live/?participantId=A4D4E985E90C44089B7440BAF4E72132&assignmentId=c77d43bc-fc61-4f3b-88de-e6a0733de36e&projectId=a0a8f18c-a66e-4ba7-a170-23efbdc67501","A4D4E985E90C44089B7440BAF4E72132-2024-11-24-18-51-23","","2310","","images/causal_sequence/museum_causal/museum_causal_2.png","1","",""
"","","","","","image-button-response","129","723174","0.0-16.0-1.0-2.1","A4D4E985E90C44089B7440BAF4E72132","A4D4E985E90C44089B7440BAF4E72132","c77d43bc-fc61-4f3b-88de-e6a0733de36e","a0a8f18c-a66e-4ba7-a170-23efbdc67501","{""participantId"":""A4D4E985E90C44089B7440BAF4E72132"",""assignmentId"":""c77d43bc-fc61-4f3b-88de-e6a0733de36e"",""projectId"":""a0a8f18c-a66e-4ba7-a170-23efbdc67501""}","https://test12345.live/?participantId=A4D4E985E90C44089B7440BAF4E72132&assignmentId=c77d43bc-fc61-4f3b-88de-e6a0733de36e&projectId=a0a8f18c-a66e-4ba7-a170-23efbdc67501","A4D4E985E90C44089B7440BAF4E72132-2024-11-24-18-51-23","","null","","[]","null","",""
"","","","","","image-button-response","130","727677","0.0-16.0-1.0-0.2","A4D4E985E90C44089B7440BAF4E72132","A4D4E985E90C44089B7440BAF4E72132","c77d43bc-fc61-4f3b-88de-e6a0733de36e","a0a8f18c-a66e-4ba7-a170-23efbdc67501","{""participantId"":""A4D4E985E90C44089B7440BAF4E72132"",""assignmentId"":""c77d43bc-fc61-4f3b-88de-e6a0733de36e"",""projectId"":""a0a8f18c-a66e-4ba7-a170-23efbdc67501""}","https://test12345.live/?participantId=A4D4E985E90C44089B7440BAF4E72132&assignmentId=c77d43bc-fc61-4f3b-88de-e6a0733de36e&projectId=a0a8f18c-a66e-4ba7-a170-23efbdc67501","A4D4E985E90C44089B7440BAF4E72132-2024-11-24-18-51-23","","null","","images/causal_sequence/museum_causal/museum_causal_3.png","null","",""
"","","","","","image-button-response","131","731243","0.0-16.0-1.0-1.2","A4D4E985E90C44089B7440BAF4E72132","A4D4E985E90C44089B7440BAF4E72132","c77d43bc-fc61-4f3b-88de-e6a0733de36e","a0a8f18c-a66e-4ba7-a170-23efbdc67501","{""participantId"":""A4D4E985E90C44089B7440BAF4E72132"",""assignmentId"":""c77d43bc-fc61-4f3b-88de-e6a0733de36e"",""projectId"":""a0a8f18c-a66e-4ba7-a170-23efbdc67501""}","https://test12345.live/?participantId=A4D4E985E90C44089B7440BAF4E72132&assignmentId=c77d43bc-fc61-4f3b-88de-e6a0733de36e&projectId=a0a8f18c-a66e-4ba7-a170-23efbdc67501","A4D4E985E90C44089B7440BAF4E72132-2024-11-24-18-51-23","","3562","","images/causal_sequence/museum_causal/museum_causal_3.png","0","",""
"","","","","","image-button-response","132","733056","0.0-16.0-1.0-2.2","A4D4E985E90C44089B7440BAF4E72132","A4D4E985E90C44089B7440BAF4E72132","c77d43bc-fc61-4f3b-88de-e6a0733de36e","a0a8f18c-a66e-4ba7-a170-23efbdc67501","{""participantId"":""A4D4E985E90C44089B7440BAF4E72132"",""assignmentId"":""c77d43bc-fc61-4f3b-88de-e6a0733de36e"",""projectId"":""a0a8f18c-a66e-4ba7-a170-23efbdc67501""}","https://test12345.live/?participantId=A4D4E985E90C44089B7440BAF4E72132&assignmentId=c77d43bc-fc61-4f3b-88de-e6a0733de36e&projectId=a0a8f18c-a66e-4ba7-a170-23efbdc67501","A4D4E985E90C44089B7440BAF4E72132-2024-11-24-18-51-23","","null","","[]","null","",""
"","","","","","image-button-response","133","737579","0.0-16.0-1.0-0.3","A4D4E985E90C44089B7440BAF4E72132","A4D4E985E90C44089B7440BAF4E72132","c77d43bc-fc61-4f3b-88de-e6a0733de36e","a0a8f18c-a66e-4ba7-a170-23efbdc67501","{""participantId"":""A4D4E985E90C44089B7440BAF4E72132"",""assignmentId"":""c77d43bc-fc61-4f3b-88de-e6a0733de36e"",""projectId"":""a0a8f18c-a66e-4ba7-a170-23efbdc67501""}","https://test12345.live/?participantId=A4D4E985E90C44089B7440BAF4E72132&assignmentId=c77d43bc-fc61-4f3b-88de-e6a0733de36e&projectId=a0a8f18c-a66e-4ba7-a170-23efbdc67501","A4D4E985E90C44089B7440BAF4E72132-2024-11-24-18-51-23","","null","","images/causal_sequence/museum_causal/museum_causal_4.png","null","",""
"","","","","","image-button-response","134","738792","0.0-16.0-1.0-1.3","A4D4E985E90C44089B7440BAF4E72132","A4D4E985E90C44089B7440BAF4E72132","c77d43bc-fc61-4f3b-88de-e6a0733de36e","a0a8f18c-a66e-4ba7-a170-23efbdc67501","{""participantId"":""A4D4E985E90C44089B7440BAF4E72132"",""assignmentId"":""c77d43bc-fc61-4f3b-88de-e6a0733de36e"",""projectId"":""a0a8f18c-a66e-4ba7-a170-23efbdc67501""}","https://test12345.live/?participantId=A4D4E985E90C44089B7440BAF4E72132&assignmentId=c77d43bc-fc61-4f3b-88de-e6a0733de36e&projectId=a0a8f18c-a66e-4ba7-a170-23efbdc67501","A4D4E985E90C44089B7440BAF4E72132-2024-11-24-18-51-23","","1209","","images/causal_sequence/museum_causal/museum_causal_4.png","1","",""
"","","","","","image-button-response","135","740615","0.0-16.0-1.0-2.3","A4D4E985E90C44089B7440BAF4E72132","A4D4E985E90C44089B7440BAF4E72132","c77d43bc-fc61-4f3b-88de-e6a0733de36e","a0a8f18c-a66e-4ba7-a170-23efbdc67501","{""participantId"":""A4D4E985E90C44089B7440BAF4E72132"",""assignmentId"":""c77d43bc-fc61-4f3b-88de-e6a0733de36e"",""projectId"":""a0a8f18c-a66e-4ba7-a170-23efbdc67501""}","https://test12345.live/?participantId=A4D4E985E90C44089B7440BAF4E72132&assignmentId=c77d43bc-fc61-4f3b-88de-e6a0733de36e&projectId=a0a8f18c-a66e-4ba7-a170-23efbdc67501","A4D4E985E90C44089B7440BAF4E72132-2024-11-24-18-51-23","","null","","[]","null","",""
"","","","","","image-button-response","136","745134","0.0-16.0-1.0-0.4","A4D4E985E90C44089B7440BAF4E72132","A4D4E985E90C44089B7440BAF4E72132","c77d43bc-fc61-4f3b-88de-e6a0733de36e","a0a8f18c-a66e-4ba7-a170-23efbdc67501","{""participantId"":""A4D4E985E90C44089B7440BAF4E72132"",""assignmentId"":""c77d43bc-fc61-4f3b-88de-e6a0733de36e"",""projectId"":""a0a8f18c-a66e-4ba7-a170-23efbdc67501""}","https://test12345.live/?participantId=A4D4E985E90C44089B7440BAF4E72132&assignmentId=c77d43bc-fc61-4f3b-88de-e6a0733de36e&projectId=a0a8f18c-a66e-4ba7-a170-23efbdc67501","A4D4E985E90C44089B7440BAF4E72132-2024-11-24-18-51-23","","null","","images/causal_sequence/museum_causal/museum_causal_5.png","null","",""
"","","","","","image-button-response","137","746401","0.0-16.0-1.0-1.4","A4D4E985E90C44089B7440BAF4E72132","A4D4E985E90C44089B7440BAF4E72132","c77d43bc-fc61-4f3b-88de-e6a0733de36e","a0a8f18c-a66e-4ba7-a170-23efbdc67501","{""participantId"":""A4D4E985E90C44089B7440BAF4E72132"",""assignmentId"":""c77d43bc-fc61-4f3b-88de-e6a0733de36e"",""projectId"":""a0a8f18c-a66e-4ba7-a170-23efbdc67501""}","https://test12345.live/?participantId=A4D4E985E90C44089B7440BAF4E72132&assignmentId=c77d43bc-fc61-4f3b-88de-e6a0733de36e&projectId=a0a8f18c-a66e-4ba7-a170-23efbdc67501","A4D4E985E90C44089B7440BAF4E72132-2024-11-24-18-51-23","","1261","","images/causal_sequence/museum_causal/museum_causal_5.png","0","",""
"","","","","","image-button-response","138","748217","0.0-16.0-1.0-2.4","A4D4E985E90C44089B7440BAF4E72132","A4D4E985E90C44089B7440BAF4E72132","c77d43bc-fc61-4f3b-88de-e6a0733de36e","a0a8f18c-a66e-4ba7-a170-23efbdc67501","{""participantId"":""A4D4E985E90C44089B7440BAF4E72132"",""assignmentId"":""c77d43bc-fc61-4f3b-88de-e6a0733de36e"",""projectId"":""a0a8f18c-a66e-4ba7-a170-23efbdc67501""}","https://test12345.live/?participantId=A4D4E985E90C44089B7440BAF4E72132&assignmentId=c77d43bc-fc61-4f3b-88de-e6a0733de36e&projectId=a0a8f18c-a66e-4ba7-a170-23efbdc67501","A4D4E985E90C44089B7440BAF4E72132-2024-11-24-18-51-23","","null","","[]","null","",""
"","","","","","image-button-response","139","752735","0.0-16.0-1.0-0.5","A4D4E985E90C44089B7440BAF4E72132","A4D4E985E90C44089B7440BAF4E72132","c77d43bc-fc61-4f3b-88de-e6a0733de36e","a0a8f18c-a66e-4ba7-a170-23efbdc67501","{""participantId"":""A4D4E985E90C44089B7440BAF4E72132"",""assignmentId"":""c77d43bc-fc61-4f3b-88de-e6a0733de36e"",""projectId"":""a0a8f18c-a66e-4ba7-a170-23efbdc67501""}","https://test12345.live/?participantId=A4D4E985E90C44089B7440BAF4E72132&assignmentId=c77d43bc-fc61-4f3b-88de-e6a0733de36e&projectId=a0a8f18c-a66e-4ba7-a170-23efbdc67501","A4D4E985E90C44089B7440BAF4E72132-2024-11-24-18-51-23","","null","","images/causal_sequence/museum_causal/museum_causal_6.png","null","",""
"","","","","","image-button-response","140","753607","0.0-16.0-1.0-1.5","A4D4E985E90C44089B7440BAF4E72132","A4D4E985E90C44089B7440BAF4E72132","c77d43bc-fc61-4f3b-88de-e6a0733de36e","a0a8f18c-a66e-4ba7-a170-23efbdc67501","{""participantId"":""A4D4E985E90C44089B7440BAF4E72132"",""assignmentId"":""c77d43bc-fc61-4f3b-88de-e6a0733de36e"",""projectId"":""a0a8f18c-a66e-4ba7-a170-23efbdc67501""}","https://test12345.live/?participantId=A4D4E985E90C44089B7440BAF4E72132&assignmentId=c77d43bc-fc61-4f3b-88de-e6a0733de36e&projectId=a0a8f18c-a66e-4ba7-a170-23efbdc67501","A4D4E985E90C44089B7440BAF4E72132-2024-11-24-18-51-23","","867","","images/causal_sequence/museum_causal/museum_causal_6.png","0","",""
"","","","","","image-button-response","141","755435","0.0-16.0-1.0-2.5","A4D4E985E90C44089B7440BAF4E72132","A4D4E985E90C44089B7440BAF4E72132","c77d43bc-fc61-4f3b-88de-e6a0733de36e","a0a8f18c-a66e-4ba7-a170-23efbdc67501","{""participantId"":""A4D4E985E90C44089B7440BAF4E72132"",""assignmentId"":""c77d43bc-fc61-4f3b-88de-e6a0733de36e"",""projectId"":""a0a8f18c-a66e-4ba7-a170-23efbdc67501""}","https://test12345.live/?participantId=A4D4E985E90C44089B7440BAF4E72132&assignmentId=c77d43bc-fc61-4f3b-88de-e6a0733de36e&projectId=a0a8f18c-a66e-4ba7-a170-23efbdc67501","A4D4E985E90C44089B7440BAF4E72132-2024-11-24-18-51-23","","null","","[]","null","",""
"","","","","","image-button-response","142","759967","0.0-16.0-1.0-0.6","A4D4E985E90C44089B7440BAF4E72132","A4D4E985E90C44089B7440BAF4E72132","c77d43bc-fc61-4f3b-88de-e6a0733de36e","a0a8f18c-a66e-4ba7-a170-23efbdc67501","{""participantId"":""A4D4E985E90C44089B7440BAF4E72132"",""assignmentId"":""c77d43bc-fc61-4f3b-88de-e6a0733de36e"",""projectId"":""a0a8f18c-a66e-4ba7-a170-23efbdc67501""}","https://test12345.live/?participantId=A4D4E985E90C44089B7440BAF4E72132&assignmentId=c77d43bc-fc61-4f3b-88de-e6a0733de36e&projectId=a0a8f18c-a66e-4ba7-a170-23efbdc67501","A4D4E985E90C44089B7440BAF4E72132-2024-11-24-18-51-23","","null","","images/causal_sequence/museum_causal/museum_causal_7.png","null","",""
