"success","timeout","failed_images","failed_audio","failed_video","trial_type","trial_index","time_elapsed","internal_node_id","subject","subject_id","study_id","session_id","urlvar","current_url","audio_id","view_history","rt","device_id","stimulus","response","estimated_stimulus_onset","seq_name"
"true","false","[]","[]","[]","preload","0","1857","0.0-0.0","C6C8D80416534548A1CF7457665CCB64","C6C8D80416534548A1CF7457665CCB64","aba58a93-27fb-4e78-b9dc-991daf02e630","a0a8f18c-a66e-4ba7-a170-23efbdc67501","{""participantId"":""C6C8D80416534548A1CF7457665CCB64"",""assignmentId"":""aba58a93-27fb-4e78-b9dc-991daf02e630"",""projectId"":""a0a8f18c-a66e-4ba7-a170-23efbdc67501""}","https://test12345.live/?participantId=C6C8D80416534548A1CF7457665CCB64&assignmentId=aba58a93-27fb-4e78-b9dc-991daf02e630&projectId=a0a8f18c-a66e-4ba7-a170-23efbdc67501","C6C8D80416534548A1CF7457665CCB64-2024-11-24-18-40-55","","","","","","",""
"","","","","","instructions","1","62599","0.0-1.0","C6C8D80416534548A1CF7457665CCB64","C6C8D80416534548A1CF7457665CCB64","aba58a93-27fb-4e78-b9dc-991daf02e630","a0a8f18c-a66e-4ba7-a170-23efbdc67501","{""participantId"":""C6C8D80416534548A1CF7457665CCB64"",""assignmentId"":""aba58a93-27fb-4e78-b9dc-991daf02e630"",""projectId"":""a0a8f18c-a66e-4ba7-a170-23efbdc67501""}","https://test12345.live/?participantId=C6C8D80416534548A1CF7457665CCB64&assignmentId=aba58a93-27fb-4e78-b9dc-991daf02e630&projectId=a0a8f18c-a66e-4ba7-a170-23efbdc67501","C6C8D80416534548A1CF7457665CCB64-2024-11-24-18-40-55","[{""page_index"":0,""viewing_time"":60743}]","60743","","","","",""
"","","","","","instructions","2","70634","0.0-2.0","C6C8D80416534548A1CF7457665CCB64","C6C8D80416534548A1CF7457665CCB64","aba58a93-27fb-4e78-b9dc-991daf02e630","a0a8f18c-a66e-4ba7-a170-23efbdc67501","{""participantId"":""C6C8D80416534548A1CF7457665CCB64"",""assignmentId"":""aba58a93-27fb-4e78-b9dc-991daf02e630"",""projectId"":""a0a8f18c-a66e-4ba7-a170-23efbdc67501""}","https://test12345.live/?participantId=C6C8D80416534548A1CF7457665CCB64&assignmentId=aba58a93-27fb-4e78-b9dc-991daf02e630&projectId=a0a8f18c-a66e-4ba7-a170-23efbdc67501","C6C8D80416534548A1CF7457665CCB64-2024-11-24-18-40-55","[{""page_index"":0,""viewing_time"":8034}]","8034","","","","",""
"true","","","","","fullscreen","3","73430","0.0-3.0","C6C8D80416534548A1CF7457665CCB64","C6C8D80416534548A1CF7457665CCB64","aba58a93-27fb-4e78-b9dc-991daf02e630","a0a8f18c-a66e-4ba7-a170-23efbdc67501","{""participantId"":""C6C8D80416534548A1CF7457665CCB64"",""assignmentId"":""aba58a93-27fb-4e78-b9dc-991daf02e630"",""projectId"":""a0a8f18c-a66e-4ba7-a170-23efbdc67501""}","https://test12345.live/?participantId=C6C8D80416534548A1CF7457665CCB64&assignmentId=aba58a93-27fb-4e78-b9dc-991daf02e630&projectId=a0a8f18c-a66e-4ba7-a170-23efbdc67501","C6C8D80416534548A1CF7457665CCB64-2024-11-24-18-40-55","","1793","","","","",""
"","","","","","initialize-microphone","4","77718","0.0-4.0-0.0","C6C8D80416534548A1CF7457665CCB64","C6C8D80416534548A1CF7457665CCB64","aba58a93-27fb-4e78-b9dc-991daf02e630","a0a8f18c-a66e-4ba7-a170-23efbdc67501","{""participantId"":""C6C8D80416534548A1CF7457665CCB64"",""assignmentId"":""aba58a93-27fb-4e78-b9dc-991daf02e630"",""projectId"":""a0a8f18c-a66e-4ba7-a170-23efbdc67501""}","https://test12345.live/?participantId=C6C8D80416534548A1CF7457665CCB64&assignmentId=aba58a93-27fb-4e78-b9dc-991daf02e630&projectId=a0a8f18c-a66e-4ba7-a170-23efbdc67501","C6C8D80416534548A1CF7457665CCB64-2024-11-24-18-40-55","","","V6FF9p5JXpyNcwmYT3KTZ7S6nbKDMzaGiCFrOAfZ32g=","","","",""
"","","","","","html-audio-response","5","89350","0.0-4.0-1.0","C6C8D80416534548A1CF7457665CCB64","C6C8D80416534548A1CF7457665CCB64","aba58a93-27fb-4e78-b9dc-991daf02e630","a0a8f18c-a66e-4ba7-a170-23efbdc67501","{""participantId"":""C6C8D80416534548A1CF7457665CCB64"",""assignmentId"":""aba58a93-27fb-4e78-b9dc-991daf02e630"",""projectId"":""a0a8f18c-a66e-4ba7-a170-23efbdc67501""}","https://test12345.live/?participantId=C6C8D80416534548A1CF7457665CCB64&assignmentId=aba58a93-27fb-4e78-b9dc-991daf02e630&projectId=a0a8f18c-a66e-4ba7-a170-23efbdc67501","C6C8D80416534548A1CF7457665CCB64-2024-11-24-18-40-55","","3963","","<span style=""color: red; font-size: 24px""> NOW RECORDING</span>
        <p>Please test Microphone</p>","","1",""
"","","","","","html-button-response","6","90882","0.0-4.0-2.0","C6C8D80416534548A1CF7457665CCB64","C6C8D80416534548A1CF7457665CCB64","aba58a93-27fb-4e78-b9dc-991daf02e630","a0a8f18c-a66e-4ba7-a170-23efbdc67501","{""participantId"":""C6C8D80416534548A1CF7457665CCB64"",""assignmentId"":""aba58a93-27fb-4e78-b9dc-991daf02e630"",""projectId"":""a0a8f18c-a66e-4ba7-a170-23efbdc67501""}","https://test12345.live/?participantId=C6C8D80416534548A1CF7457665CCB64&assignmentId=aba58a93-27fb-4e78-b9dc-991daf02e630&projectId=a0a8f18c-a66e-4ba7-a170-23efbdc67501","C6C8D80416534548A1CF7457665CCB64-2024-11-24-18-40-55","","1530","","<p style=""font-size:48px; color:red;"">Is Microphone OK?</p>","1","",""
"","","","","","instructions","7","108040","0.0-5.0","C6C8D80416534548A1CF7457665CCB64","C6C8D80416534548A1CF7457665CCB64","aba58a93-27fb-4e78-b9dc-991daf02e630","a0a8f18c-a66e-4ba7-a170-23efbdc67501","{""participantId"":""C6C8D80416534548A1CF7457665CCB64"",""assignmentId"":""aba58a93-27fb-4e78-b9dc-991daf02e630"",""projectId"":""a0a8f18c-a66e-4ba7-a170-23efbdc67501""}","https://test12345.live/?participantId=C6C8D80416534548A1CF7457665CCB64&assignmentId=aba58a93-27fb-4e78-b9dc-991daf02e630&projectId=a0a8f18c-a66e-4ba7-a170-23efbdc67501","C6C8D80416534548A1CF7457665CCB64-2024-11-24-18-40-55","[{""page_index"":0,""viewing_time"":6499},{""page_index"":1,""viewing_time"":10659}]","17158","","","","",""
"","","","","","image-button-response","8","114074","0.0-6.0-0.0","C6C8D80416534548A1CF7457665CCB64","C6C8D80416534548A1CF7457665CCB64","aba58a93-27fb-4e78-b9dc-991daf02e630","a0a8f18c-a66e-4ba7-a170-23efbdc67501","{""participantId"":""C6C8D80416534548A1CF7457665CCB64"",""assignmentId"":""aba58a93-27fb-4e78-b9dc-991daf02e630"",""projectId"":""a0a8f18c-a66e-4ba7-a170-23efbdc67501""}","https://test12345.live/?participantId=C6C8D80416534548A1CF7457665CCB64&assignmentId=aba58a93-27fb-4e78-b9dc-991daf02e630&projectId=a0a8f18c-a66e-4ba7-a170-23efbdc67501","C6C8D80416534548A1CF7457665CCB64-2024-11-24-18-40-55","","null","","images/instructions/movie_0.png","null","",""
"","","","","","image-button-response","9","118604","0.0-6.0-1.0-0.0","C6C8D80416534548A1CF7457665CCB64","C6C8D80416534548A1CF7457665CCB64","aba58a93-27fb-4e78-b9dc-991daf02e630","a0a8f18c-a66e-4ba7-a170-23efbdc67501","{""participantId"":""C6C8D80416534548A1CF7457665CCB64"",""assignmentId"":""aba58a93-27fb-4e78-b9dc-991daf02e630"",""projectId"":""a0a8f18c-a66e-4ba7-a170-23efbdc67501""}","https://test12345.live/?participantId=C6C8D80416534548A1CF7457665CCB64&assignmentId=aba58a93-27fb-4e78-b9dc-991daf02e630&projectId=a0a8f18c-a66e-4ba7-a170-23efbdc67501","C6C8D80416534548A1CF7457665CCB64-2024-11-24-18-40-55","","null","","images/instructions/movie_1.png","null","",""
"","","","","","image-button-response","10","121522","0.0-6.0-1.0-1.0","C6C8D80416534548A1CF7457665CCB64","C6C8D80416534548A1CF7457665CCB64","aba58a93-27fb-4e78-b9dc-991daf02e630","a0a8f18c-a66e-4ba7-a170-23efbdc67501","{""participantId"":""C6C8D80416534548A1CF7457665CCB64"",""assignmentId"":""aba58a93-27fb-4e78-b9dc-991daf02e630"",""projectId"":""a0a8f18c-a66e-4ba7-a170-23efbdc67501""}","https://test12345.live/?participantId=C6C8D80416534548A1CF7457665CCB64&assignmentId=aba58a93-27fb-4e78-b9dc-991daf02e630&projectId=a0a8f18c-a66e-4ba7-a170-23efbdc67501","C6C8D80416534548A1CF7457665CCB64-2024-11-24-18-40-55","","2916","","images/instructions/movie_1.png","0","",""
"","","","","","image-button-response","11","123327","0.0-6.0-1.0-2.0","C6C8D80416534548A1CF7457665CCB64","C6C8D80416534548A1CF7457665CCB64","aba58a93-27fb-4e78-b9dc-991daf02e630","a0a8f18c-a66e-4ba7-a170-23efbdc67501","{""participantId"":""C6C8D80416534548A1CF7457665CCB64"",""assignmentId"":""aba58a93-27fb-4e78-b9dc-991daf02e630"",""projectId"":""a0a8f18c-a66e-4ba7-a170-23efbdc67501""}","https://test12345.live/?participantId=C6C8D80416534548A1CF7457665CCB64&assignmentId=aba58a93-27fb-4e78-b9dc-991daf02e630&projectId=a0a8f18c-a66e-4ba7-a170-23efbdc67501","C6C8D80416534548A1CF7457665CCB64-2024-11-24-18-40-55","","null","","[]","null","",""
"","","","","","image-button-response","12","127857","0.0-6.0-1.0-0.1","C6C8D80416534548A1CF7457665CCB64","C6C8D80416534548A1CF7457665CCB64","aba58a93-27fb-4e78-b9dc-991daf02e630","a0a8f18c-a66e-4ba7-a170-23efbdc67501","{""participantId"":""C6C8D80416534548A1CF7457665CCB64"",""assignmentId"":""aba58a93-27fb-4e78-b9dc-991daf02e630"",""projectId"":""a0a8f18c-a66e-4ba7-a170-23efbdc67501""}","https://test12345.live/?participantId=C6C8D80416534548A1CF7457665CCB64&assignmentId=aba58a93-27fb-4e78-b9dc-991daf02e630&projectId=a0a8f18c-a66e-4ba7-a170-23efbdc67501","C6C8D80416534548A1CF7457665CCB64-2024-11-24-18-40-55","","null","","images/instructions/movie_2.png","null","",""
"","","","","","image-button-response","13","128981","0.0-6.0-1.0-1.1","C6C8D80416534548A1CF7457665CCB64","C6C8D80416534548A1CF7457665CCB64","aba58a93-27fb-4e78-b9dc-991daf02e630","a0a8f18c-a66e-4ba7-a170-23efbdc67501","{""participantId"":""C6C8D80416534548A1CF7457665CCB64"",""assignmentId"":""aba58a93-27fb-4e78-b9dc-991daf02e630"",""projectId"":""a0a8f18c-a66e-4ba7-a170-23efbdc67501""}","https://test12345.live/?participantId=C6C8D80416534548A1CF7457665CCB64&assignmentId=aba58a93-27fb-4e78-b9dc-991daf02e630&projectId=a0a8f18c-a66e-4ba7-a170-23efbdc67501","C6C8D80416534548A1CF7457665CCB64-2024-11-24-18-40-55","","1121","","images/instructions/movie_2.png","0","",""
"","","","","","image-button-response","14","130987","0.0-6.0-1.0-2.1","C6C8D80416534548A1CF7457665CCB64","C6C8D80416534548A1CF7457665CCB64","aba58a93-27fb-4e78-b9dc-991daf02e630","a0a8f18c-a66e-4ba7-a170-23efbdc67501","{""participantId"":""C6C8D80416534548A1CF7457665CCB64"",""assignmentId"":""aba58a93-27fb-4e78-b9dc-991daf02e630"",""projectId"":""a0a8f18c-a66e-4ba7-a170-23efbdc67501""}","https://test12345.live/?participantId=C6C8D80416534548A1CF7457665CCB64&assignmentId=aba58a93-27fb-4e78-b9dc-991daf02e630&projectId=a0a8f18c-a66e-4ba7-a170-23efbdc67501","C6C8D80416534548A1CF7457665CCB64-2024-11-24-18-40-55","","null","","[]","null","",""
"","","","","","image-button-response","15","135515","0.0-6.0-1.0-0.2","C6C8D80416534548A1CF7457665CCB64","C6C8D80416534548A1CF7457665CCB64","aba58a93-27fb-4e78-b9dc-991daf02e630","a0a8f18c-a66e-4ba7-a170-23efbdc67501","{""participantId"":""C6C8D80416534548A1CF7457665CCB64"",""assignmentId"":""aba58a93-27fb-4e78-b9dc-991daf02e630"",""projectId"":""a0a8f18c-a66e-4ba7-a170-23efbdc67501""}","https://test12345.live/?participantId=C6C8D80416534548A1CF7457665CCB64&assignmentId=aba58a93-27fb-4e78-b9dc-991daf02e630&projectId=a0a8f18c-a66e-4ba7-a170-23efbdc67501","C6C8D80416534548A1CF7457665CCB64-2024-11-24-18-40-55","","null","","images/instructions/movie_3.png","null","",""
"","","","","","image-button-response","16","136789","0.0-6.0-1.0-1.2","C6C8D80416534548A1CF7457665CCB64","C6C8D80416534548A1CF7457665CCB64","aba58a93-27fb-4e78-b9dc-991daf02e630","a0a8f18c-a66e-4ba7-a170-23efbdc67501","{""participantId"":""C6C8D80416534548A1CF7457665CCB64"",""assignmentId"":""aba58a93-27fb-4e78-b9dc-991daf02e630"",""projectId"":""a0a8f18c-a66e-4ba7-a170-23efbdc67501""}","https://test12345.live/?participantId=C6C8D80416534548A1CF7457665CCB64&assignmentId=aba58a93-27fb-4e78-b9dc-991daf02e630&projectId=a0a8f18c-a66e-4ba7-a170-23efbdc67501","C6C8D80416534548A1CF7457665CCB64-2024-11-24-18-40-55","","1271","","images/instructions/movie_3.png","0","",""
"","","","","","image-button-response","17","138591","0.0-6.0-1.0-2.2","C6C8D80416534548A1CF7457665CCB64","C6C8D80416534548A1CF7457665CCB64","aba58a93-27fb-4e78-b9dc-991daf02e630","a0a8f18c-a66e-4ba7-a170-23efbdc67501","{""participantId"":""C6C8D80416534548A1CF7457665CCB64"",""assignmentId"":""aba58a93-27fb-4e78-b9dc-991daf02e630"",""projectId"":""a0a8f18c-a66e-4ba7-a170-23efbdc67501""}","https://test12345.live/?participantId=C6C8D80416534548A1CF7457665CCB64&assignmentId=aba58a93-27fb-4e78-b9dc-991daf02e630&projectId=a0a8f18c-a66e-4ba7-a170-23efbdc67501","C6C8D80416534548A1CF7457665CCB64-2024-11-24-18-40-55","","null","","[]","null","",""
"","","","","","image-button-response","18","143122","0.0-6.0-1.0-0.3","C6C8D80416534548A1CF7457665CCB64","C6C8D80416534548A1CF7457665CCB64","aba58a93-27fb-4e78-b9dc-991daf02e630","a0a8f18c-a66e-4ba7-a170-23efbdc67501","{""participantId"":""C6C8D80416534548A1CF7457665CCB64"",""assignmentId"":""aba58a93-27fb-4e78-b9dc-991daf02e630"",""projectId"":""a0a8f18c-a66e-4ba7-a170-23efbdc67501""}","https://test12345.live/?participantId=C6C8D80416534548A1CF7457665CCB64&assignmentId=aba58a93-27fb-4e78-b9dc-991daf02e630&projectId=a0a8f18c-a66e-4ba7-a170-23efbdc67501","C6C8D80416534548A1CF7457665CCB64-2024-11-24-18-40-55","","null","","images/instructions/movie_4.png","null","",""
"","","","","","image-button-response","19","144171","0.0-6.0-1.0-1.3","C6C8D80416534548A1CF7457665CCB64","C6C8D80416534548A1CF7457665CCB64","aba58a93-27fb-4e78-b9dc-991daf02e630","a0a8f18c-a66e-4ba7-a170-23efbdc67501","{""participantId"":""C6C8D80416534548A1CF7457665CCB64"",""assignmentId"":""aba58a93-27fb-4e78-b9dc-991daf02e630"",""projectId"":""a0a8f18c-a66e-4ba7-a170-23efbdc67501""}","https://test12345.live/?participantId=C6C8D80416534548A1CF7457665CCB64&assignmentId=aba58a93-27fb-4e78-b9dc-991daf02e630&projectId=a0a8f18c-a66e-4ba7-a170-23efbdc67501","C6C8D80416534548A1CF7457665CCB64-2024-11-24-18-40-55","","1047","","images/instructions/movie_4.png","0","",""
"","","","","","image-button-response","20","146177","0.0-6.0-1.0-2.3","C6C8D80416534548A1CF7457665CCB64","C6C8D80416534548A1CF7457665CCB64","aba58a93-27fb-4e78-b9dc-991daf02e630","a0a8f18c-a66e-4ba7-a170-23efbdc67501","{""participantId"":""C6C8D80416534548A1CF7457665CCB64"",""assignmentId"":""aba58a93-27fb-4e78-b9dc-991daf02e630"",""projectId"":""a0a8f18c-a66e-4ba7-a170-23efbdc67501""}","https://test12345.live/?participantId=C6C8D80416534548A1CF7457665CCB64&assignmentId=aba58a93-27fb-4e78-b9dc-991daf02e630&projectId=a0a8f18c-a66e-4ba7-a170-23efbdc67501","C6C8D80416534548A1CF7457665CCB64-2024-11-24-18-40-55","","null","","[]","null","",""
"","","","","","instructions","21","154864","0.0-7.0","C6C8D80416534548A1CF7457665CCB64","C6C8D80416534548A1CF7457665CCB64","aba58a93-27fb-4e78-b9dc-991daf02e630","a0a8f18c-a66e-4ba7-a170-23efbdc67501","{""participantId"":""C6C8D80416534548A1CF7457665CCB64"",""assignmentId"":""aba58a93-27fb-4e78-b9dc-991daf02e630"",""projectId"":""a0a8f18c-a66e-4ba7-a170-23efbdc67501""}","https://test12345.live/?participantId=C6C8D80416534548A1CF7457665CCB64&assignmentId=aba58a93-27fb-4e78-b9dc-991daf02e630&projectId=a0a8f18c-a66e-4ba7-a170-23efbdc67501","C6C8D80416534548A1CF7457665CCB64-2024-11-24-18-40-55","[{""page_index"":0,""viewing_time"":7377},{""page_index"":1,""viewing_time"":1310}]","8687","","","","",""
"","","","","","html-audio-response","22","169474","0.0-8.0","C6C8D80416534548A1CF7457665CCB64","C6C8D80416534548A1CF7457665CCB64","aba58a93-27fb-4e78-b9dc-991daf02e630","a0a8f18c-a66e-4ba7-a170-23efbdc67501","{""participantId"":""C6C8D80416534548A1CF7457665CCB64"",""assignmentId"":""aba58a93-27fb-4e78-b9dc-991daf02e630"",""projectId"":""a0a8f18c-a66e-4ba7-a170-23efbdc67501""}","https://test12345.live/?participantId=C6C8D80416534548A1CF7457665CCB64&assignmentId=aba58a93-27fb-4e78-b9dc-991daf02e630&projectId=a0a8f18c-a66e-4ba7-a170-23efbdc67501","C6C8D80416534548A1CF7457665CCB64-2024-11-24-18-40-55","","8446","","[""<span style=\""color: red; font-size: 24px\""> NOW RECORDING</span><p>Please say out loud all the images you saw, as many as you can remember. The images can be said in any order.</p>""]","","10",""
"","","","","","instructions","23","172546","0.0-9.0","C6C8D80416534548A1CF7457665CCB64","C6C8D80416534548A1CF7457665CCB64","aba58a93-27fb-4e78-b9dc-991daf02e630","a0a8f18c-a66e-4ba7-a170-23efbdc67501","{""participantId"":""C6C8D80416534548A1CF7457665CCB64"",""assignmentId"":""aba58a93-27fb-4e78-b9dc-991daf02e630"",""projectId"":""a0a8f18c-a66e-4ba7-a170-23efbdc67501""}","https://test12345.live/?participantId=C6C8D80416534548A1CF7457665CCB64&assignmentId=aba58a93-27fb-4e78-b9dc-991daf02e630&projectId=a0a8f18c-a66e-4ba7-a170-23efbdc67501","C6C8D80416534548A1CF7457665CCB64-2024-11-24-18-40-55","[{""page_index"":0,""viewing_time"":3068}]","3068","","","","",""
"","","","","","image-button-response","24","178568","0.0-10.0-0.0","C6C8D80416534548A1CF7457665CCB64","C6C8D80416534548A1CF7457665CCB64","aba58a93-27fb-4e78-b9dc-991daf02e630","a0a8f18c-a66e-4ba7-a170-23efbdc67501","{""participantId"":""C6C8D80416534548A1CF7457665CCB64"",""assignmentId"":""aba58a93-27fb-4e78-b9dc-991daf02e630"",""projectId"":""a0a8f18c-a66e-4ba7-a170-23efbdc67501""}","https://test12345.live/?participantId=C6C8D80416534548A1CF7457665CCB64&assignmentId=aba58a93-27fb-4e78-b9dc-991daf02e630&projectId=a0a8f18c-a66e-4ba7-a170-23efbdc67501","C6C8D80416534548A1CF7457665CCB64-2024-11-24-18-40-55","","null","","images/causal_sequence/saving_a_cat_causal/saving_a_cat_causal_0.png","null","",""
"","","","","","image-button-response","25","183097","0.0-10.0-1.0-0.0","C6C8D80416534548A1CF7457665CCB64","C6C8D80416534548A1CF7457665CCB64","aba58a93-27fb-4e78-b9dc-991daf02e630","a0a8f18c-a66e-4ba7-a170-23efbdc67501","{""participantId"":""C6C8D80416534548A1CF7457665CCB64"",""assignmentId"":""aba58a93-27fb-4e78-b9dc-991daf02e630"",""projectId"":""a0a8f18c-a66e-4ba7-a170-23efbdc67501""}","https://test12345.live/?participantId=C6C8D80416534548A1CF7457665CCB64&assignmentId=aba58a93-27fb-4e78-b9dc-991daf02e630&projectId=a0a8f18c-a66e-4ba7-a170-23efbdc67501","C6C8D80416534548A1CF7457665CCB64-2024-11-24-18-40-55","","null","","images/causal_sequence/saving_a_cat_causal/saving_a_cat_causal_1.png","null","",""
"","","","","","image-button-response","26","184351","0.0-10.0-1.0-1.0","C6C8D80416534548A1CF7457665CCB64","C6C8D80416534548A1CF7457665CCB64","aba58a93-27fb-4e78-b9dc-991daf02e630","a0a8f18c-a66e-4ba7-a170-23efbdc67501","{""participantId"":""C6C8D80416534548A1CF7457665CCB64"",""assignmentId"":""aba58a93-27fb-4e78-b9dc-991daf02e630"",""projectId"":""a0a8f18c-a66e-4ba7-a170-23efbdc67501""}","https://test12345.live/?participantId=C6C8D80416534548A1CF7457665CCB64&assignmentId=aba58a93-27fb-4e78-b9dc-991daf02e630&projectId=a0a8f18c-a66e-4ba7-a170-23efbdc67501","C6C8D80416534548A1CF7457665CCB64-2024-11-24-18-40-55","","1253","","images/causal_sequence/saving_a_cat_causal/saving_a_cat_causal_1.png","0","",""
"","","","","","image-button-response","27","186158","0.0-10.0-1.0-2.0","C6C8D80416534548A1CF7457665CCB64","C6C8D80416534548A1CF7457665CCB64","aba58a93-27fb-4e78-b9dc-991daf02e630","a0a8f18c-a66e-4ba7-a170-23efbdc67501","{""participantId"":""C6C8D80416534548A1CF7457665CCB64"",""assignmentId"":""aba58a93-27fb-4e78-b9dc-991daf02e630"",""projectId"":""a0a8f18c-a66e-4ba7-a170-23efbdc67501""}","https://test12345.live/?participantId=C6C8D80416534548A1CF7457665CCB64&assignmentId=aba58a93-27fb-4e78-b9dc-991daf02e630&projectId=a0a8f18c-a66e-4ba7-a170-23efbdc67501","C6C8D80416534548A1CF7457665CCB64-2024-11-24-18-40-55","","null","","[]","null","",""
"","","","","","image-button-response","28","190689","0.0-10.0-1.0-0.1","C6C8D80416534548A1CF7457665CCB64","C6C8D80416534548A1CF7457665CCB64","aba58a93-27fb-4e78-b9dc-991daf02e630","a0a8f18c-a66e-4ba7-a170-23efbdc67501","{""participantId"":""C6C8D80416534548A1CF7457665CCB64"",""assignmentId"":""aba58a93-27fb-4e78-b9dc-991daf02e630"",""projectId"":""a0a8f18c-a66e-4ba7-a170-23efbdc67501""}","https://test12345.live/?participantId=C6C8D80416534548A1CF7457665CCB64&assignmentId=aba58a93-27fb-4e78-b9dc-991daf02e630&projectId=a0a8f18c-a66e-4ba7-a170-23efbdc67501","C6C8D80416534548A1CF7457665CCB64-2024-11-24-18-40-55","","null","","images/causal_sequence/saving_a_cat_causal/saving_a_cat_causal_2.png","null","",""
"","","","","","image-button-response","29","193321","0.0-10.0-1.0-1.1","C6C8D80416534548A1CF7457665CCB64","C6C8D80416534548A1CF7457665CCB64","aba58a93-27fb-4e78-b9dc-991daf02e630","a0a8f18c-a66e-4ba7-a170-23efbdc67501","{""participantId"":""C6C8D80416534548A1CF7457665CCB64"",""assignmentId"":""aba58a93-27fb-4e78-b9dc-991daf02e630"",""projectId"":""a0a8f18c-a66e-4ba7-a170-23efbdc67501""}","https://test12345.live/?participantId=C6C8D80416534548A1CF7457665CCB64&assignmentId=aba58a93-27fb-4e78-b9dc-991daf02e630&projectId=a0a8f18c-a66e-4ba7-a170-23efbdc67501","C6C8D80416534548A1CF7457665CCB64-2024-11-24-18-40-55","","2631","","images/causal_sequence/saving_a_cat_causal/saving_a_cat_causal_2.png","1","",""
"","","","","","image-button-response","30","195328","0.0-10.0-1.0-2.1","C6C8D80416534548A1CF7457665CCB64","C6C8D80416534548A1CF7457665CCB64","aba58a93-27fb-4e78-b9dc-991daf02e630","a0a8f18c-a66e-4ba7-a170-23efbdc67501","{""participantId"":""C6C8D80416534548A1CF7457665CCB64"",""assignmentId"":""aba58a93-27fb-4e78-b9dc-991daf02e630"",""projectId"":""a0a8f18c-a66e-4ba7-a170-23efbdc67501""}","https://test12345.live/?participantId=C6C8D80416534548A1CF7457665CCB64&assignmentId=aba58a93-27fb-4e78-b9dc-991daf02e630&projectId=a0a8f18c-a66e-4ba7-a170-23efbdc67501","C6C8D80416534548A1CF7457665CCB64-2024-11-24-18-40-55","","null","","[]","null","",""
"","","","","","image-button-response","31","199860","0.0-10.0-1.0-0.2","C6C8D80416534548A1CF7457665CCB64","C6C8D80416534548A1CF7457665CCB64","aba58a93-27fb-4e78-b9dc-991daf02e630","a0a8f18c-a66e-4ba7-a170-23efbdc67501","{""participantId"":""C6C8D80416534548A1CF7457665CCB64"",""assignmentId"":""aba58a93-27fb-4e78-b9dc-991daf02e630"",""projectId"":""a0a8f18c-a66e-4ba7-a170-23efbdc67501""}","https://test12345.live/?participantId=C6C8D80416534548A1CF7457665CCB64&assignmentId=aba58a93-27fb-4e78-b9dc-991daf02e630&projectId=a0a8f18c-a66e-4ba7-a170-23efbdc67501","C6C8D80416534548A1CF7457665CCB64-2024-11-24-18-40-55","","null","","images/causal_sequence/saving_a_cat_causal/saving_a_cat_causal_3.png","null","",""
"","","","","","image-button-response","32","203117","0.0-10.0-1.0-1.2","C6C8D80416534548A1CF7457665CCB64","C6C8D80416534548A1CF7457665CCB64","aba58a93-27fb-4e78-b9dc-991daf02e630","a0a8f18c-a66e-4ba7-a170-23efbdc67501","{""participantId"":""C6C8D80416534548A1CF7457665CCB64"",""assignmentId"":""aba58a93-27fb-4e78-b9dc-991daf02e630"",""projectId"":""a0a8f18c-a66e-4ba7-a170-23efbdc67501""}","https://test12345.live/?participantId=C6C8D80416534548A1CF7457665CCB64&assignmentId=aba58a93-27fb-4e78-b9dc-991daf02e630&projectId=a0a8f18c-a66e-4ba7-a170-23efbdc67501","C6C8D80416534548A1CF7457665CCB64-2024-11-24-18-40-55","","3255","","images/causal_sequence/saving_a_cat_causal/saving_a_cat_causal_3.png","1","",""
"","","","","","image-button-response","33","204922","0.0-10.0-1.0-2.2","C6C8D80416534548A1CF7457665CCB64","C6C8D80416534548A1CF7457665CCB64","aba58a93-27fb-4e78-b9dc-991daf02e630","a0a8f18c-a66e-4ba7-a170-23efbdc67501","{""participantId"":""C6C8D80416534548A1CF7457665CCB64"",""assignmentId"":""aba58a93-27fb-4e78-b9dc-991daf02e630"",""projectId"":""a0a8f18c-a66e-4ba7-a170-23efbdc67501""}","https://test12345.live/?participantId=C6C8D80416534548A1CF7457665CCB64&assignmentId=aba58a93-27fb-4e78-b9dc-991daf02e630&projectId=a0a8f18c-a66e-4ba7-a170-23efbdc67501","C6C8D80416534548A1CF7457665CCB64-2024-11-24-18-40-55","","null","","[]","null","",""
"","","","","","image-button-response","34","209456","0.0-10.0-1.0-0.3","C6C8D80416534548A1CF7457665CCB64","C6C8D80416534548A1CF7457665CCB64","aba58a93-27fb-4e78-b9dc-991daf02e630","a0a8f18c-a66e-4ba7-a170-23efbdc67501","{""participantId"":""C6C8D80416534548A1CF7457665CCB64"",""assignmentId"":""aba58a93-27fb-4e78-b9dc-991daf02e630"",""projectId"":""a0a8f18c-a66e-4ba7-a170-23efbdc67501""}","https://test12345.live/?participantId=C6C8D80416534548A1CF7457665CCB64&assignmentId=aba58a93-27fb-4e78-b9dc-991daf02e630&projectId=a0a8f18c-a66e-4ba7-a170-23efbdc67501","C6C8D80416534548A1CF7457665CCB64-2024-11-24-18-40-55","","null","","images/causal_sequence/saving_a_cat_causal/saving_a_cat_causal_4.png","null","",""
"","","","","","image-button-response","35","210531","0.0-10.0-1.0-1.3","C6C8D80416534548A1CF7457665CCB64","C6C8D80416534548A1CF7457665CCB64","aba58a93-27fb-4e78-b9dc-991daf02e630","a0a8f18c-a66e-4ba7-a170-23efbdc67501","{""participantId"":""C6C8D80416534548A1CF7457665CCB64"",""assignmentId"":""aba58a93-27fb-4e78-b9dc-991daf02e630"",""projectId"":""a0a8f18c-a66e-4ba7-a170-23efbdc67501""}","https://test12345.live/?participantId=C6C8D80416534548A1CF7457665CCB64&assignmentId=aba58a93-27fb-4e78-b9dc-991daf02e630&projectId=a0a8f18c-a66e-4ba7-a170-23efbdc67501","C6C8D80416534548A1CF7457665CCB64-2024-11-24-18-40-55","","1075","","images/causal_sequence/saving_a_cat_causal/saving_a_cat_causal_4.png","0","",""
"","","","","","image-button-response","36","212464","0.0-10.0-1.0-2.3","C6C8D80416534548A1CF7457665CCB64","C6C8D80416534548A1CF7457665CCB64","aba58a93-27fb-4e78-b9dc-991daf02e630","a0a8f18c-a66e-4ba7-a170-23efbdc67501","{""participantId"":""C6C8D80416534548A1CF7457665CCB64"",""assignmentId"":""aba58a93-27fb-4e78-b9dc-991daf02e630"",""projectId"":""a0a8f18c-a66e-4ba7-a170-23efbdc67501""}","https://test12345.live/?participantId=C6C8D80416534548A1CF7457665CCB64&assignmentId=aba58a93-27fb-4e78-b9dc-991daf02e630&projectId=a0a8f18c-a66e-4ba7-a170-23efbdc67501","C6C8D80416534548A1CF7457665CCB64-2024-11-24-18-40-55","","null","","[]","null","",""
"","","","","","image-button-response","37","217469","0.0-10.0-1.0-0.4","C6C8D80416534548A1CF7457665CCB64","C6C8D80416534548A1CF7457665CCB64","aba58a93-27fb-4e78-b9dc-991daf02e630","a0a8f18c-a66e-4ba7-a170-23efbdc67501","{""participantId"":""C6C8D80416534548A1CF7457665CCB64"",""assignmentId"":""aba58a93-27fb-4e78-b9dc-991daf02e630"",""projectId"":""a0a8f18c-a66e-4ba7-a170-23efbdc67501""}","https://test12345.live/?participantId=C6C8D80416534548A1CF7457665CCB64&assignmentId=aba58a93-27fb-4e78-b9dc-991daf02e630&projectId=a0a8f18c-a66e-4ba7-a170-23efbdc67501","C6C8D80416534548A1CF7457665CCB64-2024-11-24-18-40-55","","null","","images/causal_sequence/saving_a_cat_causal/saving_a_cat_causal_5.png","null","",""
"","","","","","image-button-response","38","218356","0.0-10.0-1.0-1.4","C6C8D80416534548A1CF7457665CCB64","C6C8D80416534548A1CF7457665CCB64","aba58a93-27fb-4e78-b9dc-991daf02e630","a0a8f18c-a66e-4ba7-a170-23efbdc67501","{""participantId"":""C6C8D80416534548A1CF7457665CCB64"",""assignmentId"":""aba58a93-27fb-4e78-b9dc-991daf02e630"",""projectId"":""a0a8f18c-a66e-4ba7-a170-23efbdc67501""}","https://test12345.live/?participantId=C6C8D80416534548A1CF7457665CCB64&assignmentId=aba58a93-27fb-4e78-b9dc-991daf02e630&projectId=a0a8f18c-a66e-4ba7-a170-23efbdc67501","C6C8D80416534548A1CF7457665CCB64-2024-11-24-18-40-55","","887","","images/causal_sequence/saving_a_cat_causal/saving_a_cat_causal_5.png","0","",""
"","","","","","image-button-response","39","220162","0.0-10.0-1.0-2.4","C6C8D80416534548A1CF7457665CCB64","C6C8D80416534548A1CF7457665CCB64","aba58a93-27fb-4e78-b9dc-991daf02e630","a0a8f18c-a66e-4ba7-a170-23efbdc67501","{""participantId"":""C6C8D80416534548A1CF7457665CCB64"",""assignmentId"":""aba58a93-27fb-4e78-b9dc-991daf02e630"",""projectId"":""a0a8f18c-a66e-4ba7-a170-23efbdc67501""}","https://test12345.live/?participantId=C6C8D80416534548A1CF7457665CCB64&assignmentId=aba58a93-27fb-4e78-b9dc-991daf02e630&projectId=a0a8f18c-a66e-4ba7-a170-23efbdc67501","C6C8D80416534548A1CF7457665CCB64-2024-11-24-18-40-55","","null","","[]","null","",""
"","","","","","image-button-response","40","224701","0.0-10.0-1.0-0.5","C6C8D80416534548A1CF7457665CCB64","C6C8D80416534548A1CF7457665CCB64","aba58a93-27fb-4e78-b9dc-991daf02e630","a0a8f18c-a66e-4ba7-a170-23efbdc67501","{""participantId"":""C6C8D80416534548A1CF7457665CCB64"",""assignmentId"":""aba58a93-27fb-4e78-b9dc-991daf02e630"",""projectId"":""a0a8f18c-a66e-4ba7-a170-23efbdc67501""}","https://test12345.live/?participantId=C6C8D80416534548A1CF7457665CCB64&assignmentId=aba58a93-27fb-4e78-b9dc-991daf02e630&projectId=a0a8f18c-a66e-4ba7-a170-23efbdc67501","C6C8D80416534548A1CF7457665CCB64-2024-11-24-18-40-55","","null","","images/causal_sequence/saving_a_cat_causal/saving_a_cat_causal_6.png","null","",""
"","","","","","image-button-response","41","225789","0.0-10.0-1.0-1.5","C6C8D80416534548A1CF7457665CCB64","C6C8D80416534548A1CF7457665CCB64","aba58a93-27fb-4e78-b9dc-991daf02e630","a0a8f18c-a66e-4ba7-a170-23efbdc67501","{""participantId"":""C6C8D80416534548A1CF7457665CCB64"",""assignmentId"":""aba58a93-27fb-4e78-b9dc-991daf02e630"",""projectId"":""a0a8f18c-a66e-4ba7-a170-23efbdc67501""}","https://test12345.live/?participantId=C6C8D80416534548A1CF7457665CCB64&assignmentId=aba58a93-27fb-4e78-b9dc-991daf02e630&projectId=a0a8f18c-a66e-4ba7-a170-23efbdc67501","C6C8D80416534548A1CF7457665CCB64-2024-11-24-18-40-55","","1087","","images/causal_sequence/saving_a_cat_causal/saving_a_cat_causal_6.png","0","",""
"","","","","","image-button-response","42","227794","0.0-10.0-1.0-2.5","C6C8D80416534548A1CF7457665CCB64","C6C8D80416534548A1CF7457665CCB64","aba58a93-27fb-4e78-b9dc-991daf02e630","a0a8f18c-a66e-4ba7-a170-23efbdc67501","{""participantId"":""C6C8D80416534548A1CF7457665CCB64"",""assignmentId"":""aba58a93-27fb-4e78-b9dc-991daf02e630"",""projectId"":""a0a8f18c-a66e-4ba7-a170-23efbdc67501""}","https://test12345.live/?participantId=C6C8D80416534548A1CF7457665CCB64&assignmentId=aba58a93-27fb-4e78-b9dc-991daf02e630&projectId=a0a8f18c-a66e-4ba7-a170-23efbdc67501","C6C8D80416534548A1CF7457665CCB64-2024-11-24-18-40-55","","null","","[]","null","",""
"","","","","","image-button-response","43","232323","0.0-10.0-1.0-0.6","C6C8D80416534548A1CF7457665CCB64","C6C8D80416534548A1CF7457665CCB64","aba58a93-27fb-4e78-b9dc-991daf02e630","a0a8f18c-a66e-4ba7-a170-23efbdc67501","{""participantId"":""C6C8D80416534548A1CF7457665CCB64"",""assignmentId"":""aba58a93-27fb-4e78-b9dc-991daf02e630"",""projectId"":""a0a8f18c-a66e-4ba7-a170-23efbdc67501""}","https://test12345.live/?participantId=C6C8D80416534548A1CF7457665CCB64&assignmentId=aba58a93-27fb-4e78-b9dc-991daf02e630&projectId=a0a8f18c-a66e-4ba7-a170-23efbdc67501","C6C8D80416534548A1CF7457665CCB64-2024-11-24-18-40-55","","null","","images/causal_sequence/saving_a_cat_causal/saving_a_cat_causal_7.png","null","",""
"","","","","","image-button-response","44","233404","0.0-10.0-1.0-1.6","C6C8D80416534548A1CF7457665CCB64","C6C8D80416534548A1CF7457665CCB64","aba58a93-27fb-4e78-b9dc-991daf02e630","a0a8f18c-a66e-4ba7-a170-23efbdc67501","{""participantId"":""C6C8D80416534548A1CF7457665CCB64"",""assignmentId"":""aba58a93-27fb-4e78-b9dc-991daf02e630"",""projectId"":""a0a8f18c-a66e-4ba7-a170-23efbdc67501""}","https://test12345.live/?participantId=C6C8D80416534548A1CF7457665CCB64&assignmentId=aba58a93-27fb-4e78-b9dc-991daf02e630&projectId=a0a8f18c-a66e-4ba7-a170-23efbdc67501","C6C8D80416534548A1CF7457665CCB64-2024-11-24-18-40-55","","1079","","images/causal_sequence/saving_a_cat_causal/saving_a_cat_causal_7.png","0","",""
"","","","","","image-button-response","45","235329","0.0-10.0-1.0-2.6","C6C8D80416534548A1CF7457665CCB64","C6C8D80416534548A1CF7457665CCB64","aba58a93-27fb-4e78-b9dc-991daf02e630","a0a8f18c-a66e-4ba7-a170-23efbdc67501","{""participantId"":""C6C8D80416534548A1CF7457665CCB64"",""assignmentId"":""aba58a93-27fb-4e78-b9dc-991daf02e630"",""projectId"":""a0a8f18c-a66e-4ba7-a170-23efbdc67501""}","https://test12345.live/?participantId=C6C8D80416534548A1CF7457665CCB64&assignmentId=aba58a93-27fb-4e78-b9dc-991daf02e630&projectId=a0a8f18c-a66e-4ba7-a170-23efbdc67501","C6C8D80416534548A1CF7457665CCB64-2024-11-24-18-40-55","","null","","[]","null","",""
"","","","","","image-button-response","46","239981","0.0-10.0-1.0-0.7","C6C8D80416534548A1CF7457665CCB64","C6C8D80416534548A1CF7457665CCB64","aba58a93-27fb-4e78-b9dc-991daf02e630","a0a8f18c-a66e-4ba7-a170-23efbdc67501","{""participantId"":""C6C8D80416534548A1CF7457665CCB64"",""assignmentId"":""aba58a93-27fb-4e78-b9dc-991daf02e630"",""projectId"":""a0a8f18c-a66e-4ba7-a170-23efbdc67501""}","https://test12345.live/?participantId=C6C8D80416534548A1CF7457665CCB64&assignmentId=aba58a93-27fb-4e78-b9dc-991daf02e630&projectId=a0a8f18c-a66e-4ba7-a170-23efbdc67501","C6C8D80416534548A1CF7457665CCB64-2024-11-24-18-40-55","","null","","images/causal_sequence/saving_a_cat_causal/saving_a_cat_causal_8.png","null","",""
"","","","","","image-button-response","47","240509","0.0-10.0-1.0-1.7","C6C8D80416534548A1CF7457665CCB64","C6C8D80416534548A1CF7457665CCB64","aba58a93-27fb-4e78-b9dc-991daf02e630","a0a8f18c-a66e-4ba7-a170-23efbdc67501","{""participantId"":""C6C8D80416534548A1CF7457665CCB64"",""assignmentId"":""aba58a93-27fb-4e78-b9dc-991daf02e630"",""projectId"":""a0a8f18c-a66e-4ba7-a170-23efbdc67501""}","https://test12345.live/?participantId=C6C8D80416534548A1CF7457665CCB64&assignmentId=aba58a93-27fb-4e78-b9dc-991daf02e630&projectId=a0a8f18c-a66e-4ba7-a170-23efbdc67501","C6C8D80416534548A1CF7457665CCB64-2024-11-24-18-40-55","","527","","images/causal_sequence/saving_a_cat_causal/saving_a_cat_causal_8.png","0","",""
"","","","","","image-button-response","48","242514","0.0-10.0-1.0-2.7","C6C8D80416534548A1CF7457665CCB64","C6C8D80416534548A1CF7457665CCB64","aba58a93-27fb-4e78-b9dc-991daf02e630","a0a8f18c-a66e-4ba7-a170-23efbdc67501","{""participantId"":""C6C8D80416534548A1CF7457665CCB64"",""assignmentId"":""aba58a93-27fb-4e78-b9dc-991daf02e630"",""projectId"":""a0a8f18c-a66e-4ba7-a170-23efbdc67501""}","https://test12345.live/?participantId=C6C8D80416534548A1CF7457665CCB64&assignmentId=aba58a93-27fb-4e78-b9dc-991daf02e630&projectId=a0a8f18c-a66e-4ba7-a170-23efbdc67501","C6C8D80416534548A1CF7457665CCB64-2024-11-24-18-40-55","","null","","[]","null","",""
"","","","","","image-button-response","49","247043","0.0-10.0-1.0-0.8","C6C8D80416534548A1CF7457665CCB64","C6C8D80416534548A1CF7457665CCB64","aba58a93-27fb-4e78-b9dc-991daf02e630","a0a8f18c-a66e-4ba7-a170-23efbdc67501","{""participantId"":""C6C8D80416534548A1CF7457665CCB64"",""assignmentId"":""aba58a93-27fb-4e78-b9dc-991daf02e630"",""projectId"":""a0a8f18c-a66e-4ba7-a170-23efbdc67501""}","https://test12345.live/?participantId=C6C8D80416534548A1CF7457665CCB64&assignmentId=aba58a93-27fb-4e78-b9dc-991daf02e630&projectId=a0a8f18c-a66e-4ba7-a170-23efbdc67501","C6C8D80416534548A1CF7457665CCB64-2024-11-24-18-40-55","","null","","images/causal_sequence/saving_a_cat_causal/saving_a_cat_causal_9.png","null","",""
"","","","","","image-button-response","50","247686","0.0-10.0-1.0-1.8","C6C8D80416534548A1CF7457665CCB64","C6C8D80416534548A1CF7457665CCB64","aba58a93-27fb-4e78-b9dc-991daf02e630","a0a8f18c-a66e-4ba7-a170-23efbdc67501","{""participantId"":""C6C8D80416534548A1CF7457665CCB64"",""assignmentId"":""aba58a93-27fb-4e78-b9dc-991daf02e630"",""projectId"":""a0a8f18c-a66e-4ba7-a170-23efbdc67501""}","https://test12345.live/?participantId=C6C8D80416534548A1CF7457665CCB64&assignmentId=aba58a93-27fb-4e78-b9dc-991daf02e630&projectId=a0a8f18c-a66e-4ba7-a170-23efbdc67501","C6C8D80416534548A1CF7457665CCB64-2024-11-24-18-40-55","","643","","images/causal_sequence/saving_a_cat_causal/saving_a_cat_causal_9.png","0","",""
"","","","","","image-button-response","51","249690","0.0-10.0-1.0-2.8","C6C8D80416534548A1CF7457665CCB64","C6C8D80416534548A1CF7457665CCB64","aba58a93-27fb-4e78-b9dc-991daf02e630","a0a8f18c-a66e-4ba7-a170-23efbdc67501","{""participantId"":""C6C8D80416534548A1CF7457665CCB64"",""assignmentId"":""aba58a93-27fb-4e78-b9dc-991daf02e630"",""projectId"":""a0a8f18c-a66e-4ba7-a170-23efbdc67501""}","https://test12345.live/?participantId=C6C8D80416534548A1CF7457665CCB64&assignmentId=aba58a93-27fb-4e78-b9dc-991daf02e630&projectId=a0a8f18c-a66e-4ba7-a170-23efbdc67501","C6C8D80416534548A1CF7457665CCB64-2024-11-24-18-40-55","","null","","[]","null","",""
"","","","","","image-button-response","52","254693","0.0-10.0-1.0-0.9","C6C8D80416534548A1CF7457665CCB64","C6C8D80416534548A1CF7457665CCB64","aba58a93-27fb-4e78-b9dc-991daf02e630","a0a8f18c-a66e-4ba7-a170-23efbdc67501","{""participantId"":""C6C8D80416534548A1CF7457665CCB64"",""assignmentId"":""aba58a93-27fb-4e78-b9dc-991daf02e630"",""projectId"":""a0a8f18c-a66e-4ba7-a170-23efbdc67501""}","https://test12345.live/?participantId=C6C8D80416534548A1CF7457665CCB64&assignmentId=aba58a93-27fb-4e78-b9dc-991daf02e630&projectId=a0a8f18c-a66e-4ba7-a170-23efbdc67501","C6C8D80416534548A1CF7457665CCB64-2024-11-24-18-40-55","","null","","images/causal_sequence/saving_a_cat_causal/saving_a_cat_causal_ten.png","null","",""
"","","","","","image-button-response","53","255365","0.0-10.0-1.0-1.9","C6C8D80416534548A1CF7457665CCB64","C6C8D80416534548A1CF7457665CCB64","aba58a93-27fb-4e78-b9dc-991daf02e630","a0a8f18c-a66e-4ba7-a170-23efbdc67501","{""participantId"":""C6C8D80416534548A1CF7457665CCB64"",""assignmentId"":""aba58a93-27fb-4e78-b9dc-991daf02e630"",""projectId"":""a0a8f18c-a66e-4ba7-a170-23efbdc67501""}","https://test12345.live/?participantId=C6C8D80416534548A1CF7457665CCB64&assignmentId=aba58a93-27fb-4e78-b9dc-991daf02e630&projectId=a0a8f18c-a66e-4ba7-a170-23efbdc67501","C6C8D80416534548A1CF7457665CCB64-2024-11-24-18-40-55","","671","","images/causal_sequence/saving_a_cat_causal/saving_a_cat_causal_ten.png","0","",""
"","","","","","image-button-response","54","257372","0.0-10.0-1.0-2.9","C6C8D80416534548A1CF7457665CCB64","C6C8D80416534548A1CF7457665CCB64","aba58a93-27fb-4e78-b9dc-991daf02e630","a0a8f18c-a66e-4ba7-a170-23efbdc67501","{""participantId"":""C6C8D80416534548A1CF7457665CCB64"",""assignmentId"":""aba58a93-27fb-4e78-b9dc-991daf02e630"",""projectId"":""a0a8f18c-a66e-4ba7-a170-23efbdc67501""}","https://test12345.live/?participantId=C6C8D80416534548A1CF7457665CCB64&assignmentId=aba58a93-27fb-4e78-b9dc-991daf02e630&projectId=a0a8f18c-a66e-4ba7-a170-23efbdc67501","C6C8D80416534548A1CF7457665CCB64-2024-11-24-18-40-55","","null","","[]","null","",""
"","","","","","html-audio-response","55","291015","0.0-11.0","C6C8D80416534548A1CF7457665CCB64","C6C8D80416534548A1CF7457665CCB64","aba58a93-27fb-4e78-b9dc-991daf02e630","a0a8f18c-a66e-4ba7-a170-23efbdc67501","{""participantId"":""C6C8D80416534548A1CF7457665CCB64"",""assignmentId"":""aba58a93-27fb-4e78-b9dc-991daf02e630"",""projectId"":""a0a8f18c-a66e-4ba7-a170-23efbdc67501""}","https://test12345.live/?participantId=C6C8D80416534548A1CF7457665CCB64&assignmentId=aba58a93-27fb-4e78-b9dc-991daf02e630&projectId=a0a8f18c-a66e-4ba7-a170-23efbdc67501","C6C8D80416534548A1CF7457665CCB64-2024-11-24-18-40-55","","27742","","[""<span style=\""color: red; font-size: 24px\""> NOW RECORDING</span><p>Please say out loud all the images you saw, as many as you can remember. The images can be said in any order.</p>""]","","2","saving_a_cat_causal"
"","","","","","image-button-response","56","297043","0.0-12.0-0.0","C6C8D80416534548A1CF7457665CCB64","C6C8D80416534548A1CF7457665CCB64","aba58a93-27fb-4e78-b9dc-991daf02e630","a0a8f18c-a66e-4ba7-a170-23efbdc67501","{""participantId"":""C6C8D80416534548A1CF7457665CCB64"",""assignmentId"":""aba58a93-27fb-4e78-b9dc-991daf02e630"",""projectId"":""a0a8f18c-a66e-4ba7-a170-23efbdc67501""}","https://test12345.live/?participantId=C6C8D80416534548A1CF7457665CCB64&assignmentId=aba58a93-27fb-4e78-b9dc-991daf02e630&projectId=a0a8f18c-a66e-4ba7-a170-23efbdc67501","C6C8D80416534548A1CF7457665CCB64-2024-11-24-18-40-55","","null","","images/causal_sequence/museum_causal/museum_causal_0.png","null","",""
"","","","","","image-button-response","57","301572","0.0-12.0-1.0-0.0","C6C8D80416534548A1CF7457665CCB64","C6C8D80416534548A1CF7457665CCB64","aba58a93-27fb-4e78-b9dc-991daf02e630","a0a8f18c-a66e-4ba7-a170-23efbdc67501","{""participantId"":""C6C8D80416534548A1CF7457665CCB64"",""assignmentId"":""aba58a93-27fb-4e78-b9dc-991daf02e630"",""projectId"":""a0a8f18c-a66e-4ba7-a170-23efbdc67501""}","https://test12345.live/?participantId=C6C8D80416534548A1CF7457665CCB64&assignmentId=aba58a93-27fb-4e78-b9dc-991daf02e630&projectId=a0a8f18c-a66e-4ba7-a170-23efbdc67501","C6C8D80416534548A1CF7457665CCB64-2024-11-24-18-40-55","","null","","images/causal_sequence/museum_causal/museum_causal_3.png","null","",""
"","","","","","image-button-response","58","303015","0.0-12.0-1.0-1.0","C6C8D80416534548A1CF7457665CCB64","C6C8D80416534548A1CF7457665CCB64","aba58a93-27fb-4e78-b9dc-991daf02e630","a0a8f18c-a66e-4ba7-a170-23efbdc67501","{""participantId"":""C6C8D80416534548A1CF7457665CCB64"",""assignmentId"":""aba58a93-27fb-4e78-b9dc-991daf02e630"",""projectId"":""a0a8f18c-a66e-4ba7-a170-23efbdc67501""}","https://test12345.live/?participantId=C6C8D80416534548A1CF7457665CCB64&assignmentId=aba58a93-27fb-4e78-b9dc-991daf02e630&projectId=a0a8f18c-a66e-4ba7-a170-23efbdc67501","C6C8D80416534548A1CF7457665CCB64-2024-11-24-18-40-55","","1440","","images/causal_sequence/museum_causal/museum_causal_3.png","0","",""
"","","","","","image-button-response","59","304905","0.0-12.0-1.0-2.0","C6C8D80416534548A1CF7457665CCB64","C6C8D80416534548A1CF7457665CCB64","aba58a93-27fb-4e78-b9dc-991daf02e630","a0a8f18c-a66e-4ba7-a170-23efbdc67501","{""participantId"":""C6C8D80416534548A1CF7457665CCB64"",""assignmentId"":""aba58a93-27fb-4e78-b9dc-991daf02e630"",""projectId"":""a0a8f18c-a66e-4ba7-a170-23efbdc67501""}","https://test12345.live/?participantId=C6C8D80416534548A1CF7457665CCB64&assignmentId=aba58a93-27fb-4e78-b9dc-991daf02e630&projectId=a0a8f18c-a66e-4ba7-a170-23efbdc67501","C6C8D80416534548A1CF7457665CCB64-2024-11-24-18-40-55","","null","","[]","null","",""
"","","","","","image-button-response","60","309564","0.0-12.0-1.0-0.1","C6C8D80416534548A1CF7457665CCB64","C6C8D80416534548A1CF7457665CCB64","aba58a93-27fb-4e78-b9dc-991daf02e630","a0a8f18c-a66e-4ba7-a170-23efbdc67501","{""participantId"":""C6C8D80416534548A1CF7457665CCB64"",""assignmentId"":""aba58a93-27fb-4e78-b9dc-991daf02e630"",""projectId"":""a0a8f18c-a66e-4ba7-a170-23efbdc67501""}","https://test12345.live/?participantId=C6C8D80416534548A1CF7457665CCB64&assignmentId=aba58a93-27fb-4e78-b9dc-991daf02e630&projectId=a0a8f18c-a66e-4ba7-a170-23efbdc67501","C6C8D80416534548A1CF7457665CCB64-2024-11-24-18-40-55","","null","","images/causal_sequence/museum_causal/museum_causal_4.png","null","",""
"","","","","","image-button-response","61","310597","0.0-12.0-1.0-1.1","C6C8D80416534548A1CF7457665CCB64","C6C8D80416534548A1CF7457665CCB64","aba58a93-27fb-4e78-b9dc-991daf02e630","a0a8f18c-a66e-4ba7-a170-23efbdc67501","{""participantId"":""C6C8D80416534548A1CF7457665CCB64"",""assignmentId"":""aba58a93-27fb-4e78-b9dc-991daf02e630"",""projectId"":""a0a8f18c-a66e-4ba7-a170-23efbdc67501""}","https://test12345.live/?participantId=C6C8D80416534548A1CF7457665CCB64&assignmentId=aba58a93-27fb-4e78-b9dc-991daf02e630&projectId=a0a8f18c-a66e-4ba7-a170-23efbdc67501","C6C8D80416534548A1CF7457665CCB64-2024-11-24-18-40-55","","1033","","images/causal_sequence/museum_causal/museum_causal_4.png","1","",""
"","","","","","image-button-response","62","312498","0.0-12.0-1.0-2.1","C6C8D80416534548A1CF7457665CCB64","C6C8D80416534548A1CF7457665CCB64","aba58a93-27fb-4e78-b9dc-991daf02e630","a0a8f18c-a66e-4ba7-a170-23efbdc67501","{""participantId"":""C6C8D80416534548A1CF7457665CCB64"",""assignmentId"":""aba58a93-27fb-4e78-b9dc-991daf02e630"",""projectId"":""a0a8f18c-a66e-4ba7-a170-23efbdc67501""}","https://test12345.live/?participantId=C6C8D80416534548A1CF7457665CCB64&assignmentId=aba58a93-27fb-4e78-b9dc-991daf02e630&projectId=a0a8f18c-a66e-4ba7-a170-23efbdc67501","C6C8D80416534548A1CF7457665CCB64-2024-11-24-18-40-55","","null","","[]","null","",""
"","","","","","image-button-response","63","317440","0.0-12.0-1.0-0.2","C6C8D80416534548A1CF7457665CCB64","C6C8D80416534548A1CF7457665CCB64","aba58a93-27fb-4e78-b9dc-991daf02e630","a0a8f18c-a66e-4ba7-a170-23efbdc67501","{""participantId"":""C6C8D80416534548A1CF7457665CCB64"",""assignmentId"":""aba58a93-27fb-4e78-b9dc-991daf02e630"",""projectId"":""a0a8f18c-a66e-4ba7-a170-23efbdc67501""}","https://test12345.live/?participantId=C6C8D80416534548A1CF7457665CCB64&assignmentId=aba58a93-27fb-4e78-b9dc-991daf02e630&projectId=a0a8f18c-a66e-4ba7-a170-23efbdc67501","C6C8D80416534548A1CF7457665CCB64-2024-11-24-18-40-55","","null","","images/causal_sequence/museum_causal/museum_causal_ten.png","null","",""
"","","","","","image-button-response","64","318057","0.0-12.0-1.0-1.2","C6C8D80416534548A1CF7457665CCB64","C6C8D80416534548A1CF7457665CCB64","aba58a93-27fb-4e78-b9dc-991daf02e630","a0a8f18c-a66e-4ba7-a170-23efbdc67501","{""participantId"":""C6C8D80416534548A1CF7457665CCB64"",""assignmentId"":""aba58a93-27fb-4e78-b9dc-991daf02e630"",""projectId"":""a0a8f18c-a66e-4ba7-a170-23efbdc67501""}","https://test12345.live/?participantId=C6C8D80416534548A1CF7457665CCB64&assignmentId=aba58a93-27fb-4e78-b9dc-991daf02e630&projectId=a0a8f18c-a66e-4ba7-a170-23efbdc67501","C6C8D80416534548A1CF7457665CCB64-2024-11-24-18-40-55","","615","","images/causal_sequence/museum_causal/museum_causal_ten.png","0","",""
"","","","","","image-button-response","65","320066","0.0-12.0-1.0-2.2","C6C8D80416534548A1CF7457665CCB64","C6C8D80416534548A1CF7457665CCB64","aba58a93-27fb-4e78-b9dc-991daf02e630","a0a8f18c-a66e-4ba7-a170-23efbdc67501","{""participantId"":""C6C8D80416534548A1CF7457665CCB64"",""assignmentId"":""aba58a93-27fb-4e78-b9dc-991daf02e630"",""projectId"":""a0a8f18c-a66e-4ba7-a170-23efbdc67501""}","https://test12345.live/?participantId=C6C8D80416534548A1CF7457665CCB64&assignmentId=aba58a93-27fb-4e78-b9dc-991daf02e630&projectId=a0a8f18c-a66e-4ba7-a170-23efbdc67501","C6C8D80416534548A1CF7457665CCB64-2024-11-24-18-40-55","","null","","[]","null","",""
"","","","","","image-button-response","66","324594","0.0-12.0-1.0-0.3","C6C8D80416534548A1CF7457665CCB64","C6C8D80416534548A1CF7457665CCB64","aba58a93-27fb-4e78-b9dc-991daf02e630","a0a8f18c-a66e-4ba7-a170-23efbdc67501","{""participantId"":""C6C8D80416534548A1CF7457665CCB64"",""assignmentId"":""aba58a93-27fb-4e78-b9dc-991daf02e630"",""projectId"":""a0a8f18c-a66e-4ba7-a170-23efbdc67501""}","https://test12345.live/?participantId=C6C8D80416534548A1CF7457665CCB64&assignmentId=aba58a93-27fb-4e78-b9dc-991daf02e630&projectId=a0a8f18c-a66e-4ba7-a170-23efbdc67501","C6C8D80416534548A1CF7457665CCB64-2024-11-24-18-40-55","","null","","images/causal_sequence/museum_causal/museum_causal_5.png","null","",""
"","","","","","image-button-response","67","325168","0.0-12.0-1.0-1.3","C6C8D80416534548A1CF7457665CCB64","C6C8D80416534548A1CF7457665CCB64","aba58a93-27fb-4e78-b9dc-991daf02e630","a0a8f18c-a66e-4ba7-a170-23efbdc67501","{""participantId"":""C6C8D80416534548A1CF7457665CCB64"",""assignmentId"":""aba58a93-27fb-4e78-b9dc-991daf02e630"",""projectId"":""a0a8f18c-a66e-4ba7-a170-23efbdc67501""}","https://test12345.live/?participantId=C6C8D80416534548A1CF7457665CCB64&assignmentId=aba58a93-27fb-4e78-b9dc-991daf02e630&projectId=a0a8f18c-a66e-4ba7-a170-23efbdc67501","C6C8D80416534548A1CF7457665CCB64-2024-11-24-18-40-55","","572","","images/causal_sequence/museum_causal/museum_causal_5.png","0","",""
"","","","","","image-button-response","68","327173","0.0-12.0-1.0-2.3","C6C8D80416534548A1CF7457665CCB64","C6C8D80416534548A1CF7457665CCB64","aba58a93-27fb-4e78-b9dc-991daf02e630","a0a8f18c-a66e-4ba7-a170-23efbdc67501","{""participantId"":""C6C8D80416534548A1CF7457665CCB64"",""assignmentId"":""aba58a93-27fb-4e78-b9dc-991daf02e630"",""projectId"":""a0a8f18c-a66e-4ba7-a170-23efbdc67501""}","https://test12345.live/?participantId=C6C8D80416534548A1CF7457665CCB64&assignmentId=aba58a93-27fb-4e78-b9dc-991daf02e630&projectId=a0a8f18c-a66e-4ba7-a170-23efbdc67501","C6C8D80416534548A1CF7457665CCB64-2024-11-24-18-40-55","","null","","[]","null","",""
"","","","","","image-button-response","69","331699","0.0-12.0-1.0-0.4","C6C8D80416534548A1CF7457665CCB64","C6C8D80416534548A1CF7457665CCB64","aba58a93-27fb-4e78-b9dc-991daf02e630","a0a8f18c-a66e-4ba7-a170-23efbdc67501","{""participantId"":""C6C8D80416534548A1CF7457665CCB64"",""assignmentId"":""aba58a93-27fb-4e78-b9dc-991daf02e630"",""projectId"":""a0a8f18c-a66e-4ba7-a170-23efbdc67501""}","https://test12345.live/?participantId=C6C8D80416534548A1CF7457665CCB64&assignmentId=aba58a93-27fb-4e78-b9dc-991daf02e630&projectId=a0a8f18c-a66e-4ba7-a170-23efbdc67501","C6C8D80416534548A1CF7457665CCB64-2024-11-24-18-40-55","","null","","images/causal_sequence/museum_causal/museum_causal_7.png","null","",""
"","","","","","image-button-response","70","332561","0.0-12.0-1.0-1.4","C6C8D80416534548A1CF7457665CCB64","C6C8D80416534548A1CF7457665CCB64","aba58a93-27fb-4e78-b9dc-991daf02e630","a0a8f18c-a66e-4ba7-a170-23efbdc67501","{""participantId"":""C6C8D80416534548A1CF7457665CCB64"",""assignmentId"":""aba58a93-27fb-4e78-b9dc-991daf02e630"",""projectId"":""a0a8f18c-a66e-4ba7-a170-23efbdc67501""}","https://test12345.live/?participantId=C6C8D80416534548A1CF7457665CCB64&assignmentId=aba58a93-27fb-4e78-b9dc-991daf02e630&projectId=a0a8f18c-a66e-4ba7-a170-23efbdc67501","C6C8D80416534548A1CF7457665CCB64-2024-11-24-18-40-55","","861","","images/causal_sequence/museum_causal/museum_causal_7.png","1","",""
"","","","","","image-button-response","71","334364","0.0-12.0-1.0-2.4","C6C8D80416534548A1CF7457665CCB64","C6C8D80416534548A1CF7457665CCB64","aba58a93-27fb-4e78-b9dc-991daf02e630","a0a8f18c-a66e-4ba7-a170-23efbdc67501","{""participantId"":""C6C8D80416534548A1CF7457665CCB64"",""assignmentId"":""aba58a93-27fb-4e78-b9dc-991daf02e630"",""projectId"":""a0a8f18c-a66e-4ba7-a170-23efbdc67501""}","https://test12345.live/?participantId=C6C8D80416534548A1CF7457665CCB64&assignmentId=aba58a93-27fb-4e78-b9dc-991daf02e630&projectId=a0a8f18c-a66e-4ba7-a170-23efbdc67501","C6C8D80416534548A1CF7457665CCB64-2024-11-24-18-40-55","","null","","[]","null","",""
"","","","","","image-button-response","72","338894","0.0-12.0-1.0-0.5","C6C8D80416534548A1CF7457665CCB64","C6C8D80416534548A1CF7457665CCB64","aba58a93-27fb-4e78-b9dc-991daf02e630","a0a8f18c-a66e-4ba7-a170-23efbdc67501","{""participantId"":""C6C8D80416534548A1CF7457665CCB64"",""assignmentId"":""aba58a93-27fb-4e78-b9dc-991daf02e630"",""projectId"":""a0a8f18c-a66e-4ba7-a170-23efbdc67501""}","https://test12345.live/?participantId=C6C8D80416534548A1CF7457665CCB64&assignmentId=aba58a93-27fb-4e78-b9dc-991daf02e630&projectId=a0a8f18c-a66e-4ba7-a170-23efbdc67501","C6C8D80416534548A1CF7457665CCB64-2024-11-24-18-40-55","","null","","images/causal_sequence/museum_causal/museum_causal_9.png","null","",""
"","","","","","image-button-response","73","339434","0.0-12.0-1.0-1.5","C6C8D80416534548A1CF7457665CCB64","C6C8D80416534548A1CF7457665CCB64","aba58a93-27fb-4e78-b9dc-991daf02e630","a0a8f18c-a66e-4ba7-a170-23efbdc67501","{""participantId"":""C6C8D80416534548A1CF7457665CCB64"",""assignmentId"":""aba58a93-27fb-4e78-b9dc-991daf02e630"",""projectId"":""a0a8f18c-a66e-4ba7-a170-23efbdc67501""}","https://test12345.live/?participantId=C6C8D80416534548A1CF7457665CCB64&assignmentId=aba58a93-27fb-4e78-b9dc-991daf02e630&projectId=a0a8f18c-a66e-4ba7-a170-23efbdc67501","C6C8D80416534548A1CF7457665CCB64-2024-11-24-18-40-55","","539","","images/causal_sequence/museum_causal/museum_causal_9.png","1","",""
"","","","","","image-button-response","74","341440","0.0-12.0-1.0-2.5","C6C8D80416534548A1CF7457665CCB64","C6C8D80416534548A1CF7457665CCB64","aba58a93-27fb-4e78-b9dc-991daf02e630","a0a8f18c-a66e-4ba7-a170-23efbdc67501","{""participantId"":""C6C8D80416534548A1CF7457665CCB64"",""assignmentId"":""aba58a93-27fb-4e78-b9dc-991daf02e630"",""projectId"":""a0a8f18c-a66e-4ba7-a170-23efbdc67501""}","https://test12345.live/?participantId=C6C8D80416534548A1CF7457665CCB64&assignmentId=aba58a93-27fb-4e78-b9dc-991daf02e630&projectId=a0a8f18c-a66e-4ba7-a170-23efbdc67501","C6C8D80416534548A1CF7457665CCB64-2024-11-24-18-40-55","","null","","[]","null","",""
"","","","","","image-button-response","75","345970","0.0-12.0-1.0-0.6","C6C8D80416534548A1CF7457665CCB64","C6C8D80416534548A1CF7457665CCB64","aba58a93-27fb-4e78-b9dc-991daf02e630","a0a8f18c-a66e-4ba7-a170-23efbdc67501","{""participantId"":""C6C8D80416534548A1CF7457665CCB64"",""assignmentId"":""aba58a93-27fb-4e78-b9dc-991daf02e630"",""projectId"":""a0a8f18c-a66e-4ba7-a170-23efbdc67501""}","https://test12345.live/?participantId=C6C8D80416534548A1CF7457665CCB64&assignmentId=aba58a93-27fb-4e78-b9dc-991daf02e630&projectId=a0a8f18c-a66e-4ba7-a170-23efbdc67501","C6C8D80416534548A1CF7457665CCB64-2024-11-24-18-40-55","","null","","images/causal_sequence/museum_causal/museum_causal_6.png","null","",""
"","","","","","image-button-response","76","347537","0.0-12.0-1.0-1.6","C6C8D80416534548A1CF7457665CCB64","C6C8D80416534548A1CF7457665CCB64","aba58a93-27fb-4e78-b9dc-991daf02e630","a0a8f18c-a66e-4ba7-a170-23efbdc67501","{""participantId"":""C6C8D80416534548A1CF7457665CCB64"",""assignmentId"":""aba58a93-27fb-4e78-b9dc-991daf02e630"",""projectId"":""a0a8f18c-a66e-4ba7-a170-23efbdc67501""}","https://test12345.live/?participantId=C6C8D80416534548A1CF7457665CCB64&assignmentId=aba58a93-27fb-4e78-b9dc-991daf02e630&projectId=a0a8f18c-a66e-4ba7-a170-23efbdc67501","C6C8D80416534548A1CF7457665CCB64-2024-11-24-18-40-55","","1566","","images/causal_sequence/museum_causal/museum_causal_6.png","0","",""
"","","","","","image-button-response","77","349544","0.0-12.0-1.0-2.6","C6C8D80416534548A1CF7457665CCB64","C6C8D80416534548A1CF7457665CCB64","aba58a93-27fb-4e78-b9dc-991daf02e630","a0a8f18c-a66e-4ba7-a170-23efbdc67501","{""participantId"":""C6C8D80416534548A1CF7457665CCB64"",""assignmentId"":""aba58a93-27fb-4e78-b9dc-991daf02e630"",""projectId"":""a0a8f18c-a66e-4ba7-a170-23efbdc67501""}","https://test12345.live/?participantId=C6C8D80416534548A1CF7457665CCB64&assignmentId=aba58a93-27fb-4e78-b9dc-991daf02e630&projectId=a0a8f18c-a66e-4ba7-a170-23efbdc67501","C6C8D80416534548A1CF7457665CCB64-2024-11-24-18-40-55","","null","","[]","null","",""
"","","","","","image-button-response","78","354073","0.0-12.0-1.0-0.7","C6C8D80416534548A1CF7457665CCB64","C6C8D80416534548A1CF7457665CCB64","aba58a93-27fb-4e78-b9dc-991daf02e630","a0a8f18c-a66e-4ba7-a170-23efbdc67501","{""participantId"":""C6C8D80416534548A1CF7457665CCB64"",""assignmentId"":""aba58a93-27fb-4e78-b9dc-991daf02e630"",""projectId"":""a0a8f18c-a66e-4ba7-a170-23efbdc67501""}","https://test12345.live/?participantId=C6C8D80416534548A1CF7457665CCB64&assignmentId=aba58a93-27fb-4e78-b9dc-991daf02e630&projectId=a0a8f18c-a66e-4ba7-a170-23efbdc67501","C6C8D80416534548A1CF7457665CCB64-2024-11-24-18-40-55","","null","","images/causal_sequence/museum_causal/museum_causal_1.png","null","",""
"","","","","","image-button-response","79","354502","0.0-12.0-1.0-1.7","C6C8D80416534548A1CF7457665CCB64","C6C8D80416534548A1CF7457665CCB64","aba58a93-27fb-4e78-b9dc-991daf02e630","a0a8f18c-a66e-4ba7-a170-23efbdc67501","{""participantId"":""C6C8D80416534548A1CF7457665CCB64"",""assignmentId"":""aba58a93-27fb-4e78-b9dc-991daf02e630"",""projectId"":""a0a8f18c-a66e-4ba7-a170-23efbdc67501""}","https://test12345.live/?participantId=C6C8D80416534548A1CF7457665CCB64&assignmentId=aba58a93-27fb-4e78-b9dc-991daf02e630&projectId=a0a8f18c-a66e-4ba7-a170-23efbdc67501","C6C8D80416534548A1CF7457665CCB64-2024-11-24-18-40-55","","429","","images/causal_sequence/museum_causal/museum_causal_1.png","0","",""
"","","","","","image-button-response","80","356513","0.0-12.0-1.0-2.7","C6C8D80416534548A1CF7457665CCB64","C6C8D80416534548A1CF7457665CCB64","aba58a93-27fb-4e78-b9dc-991daf02e630","a0a8f18c-a66e-4ba7-a170-23efbdc67501","{""participantId"":""C6C8D80416534548A1CF7457665CCB64"",""assignmentId"":""aba58a93-27fb-4e78-b9dc-991daf02e630"",""projectId"":""a0a8f18c-a66e-4ba7-a170-23efbdc67501""}","https://test12345.live/?participantId=C6C8D80416534548A1CF7457665CCB64&assignmentId=aba58a93-27fb-4e78-b9dc-991daf02e630&projectId=a0a8f18c-a66e-4ba7-a170-23efbdc67501","C6C8D80416534548A1CF7457665CCB64-2024-11-24-18-40-55","","null","","[]","null","",""
"","","","","","image-button-response","81","361044","0.0-12.0-1.0-0.8","C6C8D80416534548A1CF7457665CCB64","C6C8D80416534548A1CF7457665CCB64","aba58a93-27fb-4e78-b9dc-991daf02e630","a0a8f18c-a66e-4ba7-a170-23efbdc67501","{""participantId"":""C6C8D80416534548A1CF7457665CCB64"",""assignmentId"":""aba58a93-27fb-4e78-b9dc-991daf02e630"",""projectId"":""a0a8f18c-a66e-4ba7-a170-23efbdc67501""}","https://test12345.live/?participantId=C6C8D80416534548A1CF7457665CCB64&assignmentId=aba58a93-27fb-4e78-b9dc-991daf02e630&projectId=a0a8f18c-a66e-4ba7-a170-23efbdc67501","C6C8D80416534548A1CF7457665CCB64-2024-11-24-18-40-55","","null","","images/causal_sequence/museum_causal/museum_causal_8.png","null","",""
"","","","","","image-button-response","82","362270","0.0-12.0-1.0-1.8","C6C8D80416534548A1CF7457665CCB64","C6C8D80416534548A1CF7457665CCB64","aba58a93-27fb-4e78-b9dc-991daf02e630","a0a8f18c-a66e-4ba7-a170-23efbdc67501","{""participantId"":""C6C8D80416534548A1CF7457665CCB64"",""assignmentId"":""aba58a93-27fb-4e78-b9dc-991daf02e630"",""projectId"":""a0a8f18c-a66e-4ba7-a170-23efbdc67501""}","https://test12345.live/?participantId=C6C8D80416534548A1CF7457665CCB64&assignmentId=aba58a93-27fb-4e78-b9dc-991daf02e630&projectId=a0a8f18c-a66e-4ba7-a170-23efbdc67501","C6C8D80416534548A1CF7457665CCB64-2024-11-24-18-40-55","","1224","","images/causal_sequence/museum_causal/museum_causal_8.png","0","",""
"","","","","","image-button-response","83","364134","0.0-12.0-1.0-2.8","C6C8D80416534548A1CF7457665CCB64","C6C8D80416534548A1CF7457665CCB64","aba58a93-27fb-4e78-b9dc-991daf02e630","a0a8f18c-a66e-4ba7-a170-23efbdc67501","{""participantId"":""C6C8D80416534548A1CF7457665CCB64"",""assignmentId"":""aba58a93-27fb-4e78-b9dc-991daf02e630"",""projectId"":""a0a8f18c-a66e-4ba7-a170-23efbdc67501""}","https://test12345.live/?participantId=C6C8D80416534548A1CF7457665CCB64&assignmentId=aba58a93-27fb-4e78-b9dc-991daf02e630&projectId=a0a8f18c-a66e-4ba7-a170-23efbdc67501","C6C8D80416534548A1CF7457665CCB64-2024-11-24-18-40-55","","null","","[]","null","",""
"","","","","","image-button-response","84","368663","0.0-12.0-1.0-0.9","C6C8D80416534548A1CF7457665CCB64","C6C8D80416534548A1CF7457665CCB64","aba58a93-27fb-4e78-b9dc-991daf02e630","a0a8f18c-a66e-4ba7-a170-23efbdc67501","{""participantId"":""C6C8D80416534548A1CF7457665CCB64"",""assignmentId"":""aba58a93-27fb-4e78-b9dc-991daf02e630"",""projectId"":""a0a8f18c-a66e-4ba7-a170-23efbdc67501""}","https://test12345.live/?participantId=C6C8D80416534548A1CF7457665CCB64&assignmentId=aba58a93-27fb-4e78-b9dc-991daf02e630&projectId=a0a8f18c-a66e-4ba7-a170-23efbdc67501","C6C8D80416534548A1CF7457665CCB64-2024-11-24-18-40-55","","null","","images/causal_sequence/museum_causal/museum_causal_2.png","null","",""
"","","","","","image-button-response","85","370139","0.0-12.0-1.0-1.9","C6C8D80416534548A1CF7457665CCB64","C6C8D80416534548A1CF7457665CCB64","aba58a93-27fb-4e78-b9dc-991daf02e630","a0a8f18c-a66e-4ba7-a170-23efbdc67501","{""participantId"":""C6C8D80416534548A1CF7457665CCB64"",""assignmentId"":""aba58a93-27fb-4e78-b9dc-991daf02e630"",""projectId"":""a0a8f18c-a66e-4ba7-a170-23efbdc67501""}","https://test12345.live/?participantId=C6C8D80416534548A1CF7457665CCB64&assignmentId=aba58a93-27fb-4e78-b9dc-991daf02e630&projectId=a0a8f18c-a66e-4ba7-a170-23efbdc67501","C6C8D80416534548A1CF7457665CCB64-2024-11-24-18-40-55","","1474","","images/causal_sequence/museum_causal/museum_causal_2.png","1","",""
"","","","","","image-button-response","86","372144","0.0-12.0-1.0-2.9","C6C8D80416534548A1CF7457665CCB64","C6C8D80416534548A1CF7457665CCB64","aba58a93-27fb-4e78-b9dc-991daf02e630","a0a8f18c-a66e-4ba7-a170-23efbdc67501","{""participantId"":""C6C8D80416534548A1CF7457665CCB64"",""assignmentId"":""aba58a93-27fb-4e78-b9dc-991daf02e630"",""projectId"":""a0a8f18c-a66e-4ba7-a170-23efbdc67501""}","https://test12345.live/?participantId=C6C8D80416534548A1CF7457665CCB64&assignmentId=aba58a93-27fb-4e78-b9dc-991daf02e630&projectId=a0a8f18c-a66e-4ba7-a170-23efbdc67501","C6C8D80416534548A1CF7457665CCB64-2024-11-24-18-40-55","","null","","[]","null","",""
"","","","","","html-audio-response","87","400574","0.0-13.0","C6C8D80416534548A1CF7457665CCB64","C6C8D80416534548A1CF7457665CCB64","aba58a93-27fb-4e78-b9dc-991daf02e630","a0a8f18c-a66e-4ba7-a170-23efbdc67501","{""participantId"":""C6C8D80416534548A1CF7457665CCB64"",""assignmentId"":""aba58a93-27fb-4e78-b9dc-991daf02e630"",""projectId"":""a0a8f18c-a66e-4ba7-a170-23efbdc67501""}","https://test12345.live/?participantId=C6C8D80416534548A1CF7457665CCB64&assignmentId=aba58a93-27fb-4e78-b9dc-991daf02e630&projectId=a0a8f18c-a66e-4ba7-a170-23efbdc67501","C6C8D80416534548A1CF7457665CCB64-2024-11-24-18-40-55","","26595","","[""<span style=\""color: red; font-size: 24px\""> NOW RECORDING</span><p>Please say out loud all the images you saw, as many as you can remember. The images can be said in any order.</p>""]","","1","museum_causal"
"","","","","","image-button-response","88","406602","0.0-14.0-0.0","C6C8D80416534548A1CF7457665CCB64","C6C8D80416534548A1CF7457665CCB64","aba58a93-27fb-4e78-b9dc-991daf02e630","a0a8f18c-a66e-4ba7-a170-23efbdc67501","{""participantId"":""C6C8D80416534548A1CF7457665CCB64"",""assignmentId"":""aba58a93-27fb-4e78-b9dc-991daf02e630"",""projectId"":""a0a8f18c-a66e-4ba7-a170-23efbdc67501""}","https://test12345.live/?participantId=C6C8D80416534548A1CF7457665CCB64&assignmentId=aba58a93-27fb-4e78-b9dc-991daf02e630&projectId=a0a8f18c-a66e-4ba7-a170-23efbdc67501","C6C8D80416534548A1CF7457665CCB64-2024-11-24-18-40-55","","null","","images/semantic_sequence/physical_activity_semantic/physical_activity_semantic_0.png","null","",""
"","","","","","image-button-response","89","411132","0.0-14.0-1.0-0.0","C6C8D80416534548A1CF7457665CCB64","C6C8D80416534548A1CF7457665CCB64","aba58a93-27fb-4e78-b9dc-991daf02e630","a0a8f18c-a66e-4ba7-a170-23efbdc67501","{""participantId"":""C6C8D80416534548A1CF7457665CCB64"",""assignmentId"":""aba58a93-27fb-4e78-b9dc-991daf02e630"",""projectId"":""a0a8f18c-a66e-4ba7-a170-23efbdc67501""}","https://test12345.live/?participantId=C6C8D80416534548A1CF7457665CCB64&assignmentId=aba58a93-27fb-4e78-b9dc-991daf02e630&projectId=a0a8f18c-a66e-4ba7-a170-23efbdc67501","C6C8D80416534548A1CF7457665CCB64-2024-11-24-18-40-55","","null","","images/semantic_sequence/physical_activity_semantic/physical_activity_semantic_1.png","null","",""
"","","","","","image-button-response","90","412256","0.0-14.0-1.0-1.0","C6C8D80416534548A1CF7457665CCB64","C6C8D80416534548A1CF7457665CCB64","aba58a93-27fb-4e78-b9dc-991daf02e630","a0a8f18c-a66e-4ba7-a170-23efbdc67501","{""participantId"":""C6C8D80416534548A1CF7457665CCB64"",""assignmentId"":""aba58a93-27fb-4e78-b9dc-991daf02e630"",""projectId"":""a0a8f18c-a66e-4ba7-a170-23efbdc67501""}","https://test12345.live/?participantId=C6C8D80416534548A1CF7457665CCB64&assignmentId=aba58a93-27fb-4e78-b9dc-991daf02e630&projectId=a0a8f18c-a66e-4ba7-a170-23efbdc67501","C6C8D80416534548A1CF7457665CCB64-2024-11-24-18-40-55","","1122","","images/semantic_sequence/physical_activity_semantic/physical_activity_semantic_1.png","0","",""
"","","","","","image-button-response","91","414177","0.0-14.0-1.0-2.0","C6C8D80416534548A1CF7457665CCB64","C6C8D80416534548A1CF7457665CCB64","aba58a93-27fb-4e78-b9dc-991daf02e630","a0a8f18c-a66e-4ba7-a170-23efbdc67501","{""participantId"":""C6C8D80416534548A1CF7457665CCB64"",""assignmentId"":""aba58a93-27fb-4e78-b9dc-991daf02e630"",""projectId"":""a0a8f18c-a66e-4ba7-a170-23efbdc67501""}","https://test12345.live/?participantId=C6C8D80416534548A1CF7457665CCB64&assignmentId=aba58a93-27fb-4e78-b9dc-991daf02e630&projectId=a0a8f18c-a66e-4ba7-a170-23efbdc67501","C6C8D80416534548A1CF7457665CCB64-2024-11-24-18-40-55","","null","","[]","null","",""
"","","","","","image-button-response","92","419121","0.0-14.0-1.0-0.1","C6C8D80416534548A1CF7457665CCB64","C6C8D80416534548A1CF7457665CCB64","aba58a93-27fb-4e78-b9dc-991daf02e630","a0a8f18c-a66e-4ba7-a170-23efbdc67501","{""participantId"":""C6C8D80416534548A1CF7457665CCB64"",""assignmentId"":""aba58a93-27fb-4e78-b9dc-991daf02e630"",""projectId"":""a0a8f18c-a66e-4ba7-a170-23efbdc67501""}","https://test12345.live/?participantId=C6C8D80416534548A1CF7457665CCB64&assignmentId=aba58a93-27fb-4e78-b9dc-991daf02e630&projectId=a0a8f18c-a66e-4ba7-a170-23efbdc67501","C6C8D80416534548A1CF7457665CCB64-2024-11-24-18-40-55","","null","","images/semantic_sequence/physical_activity_semantic/physical_activity_semantic_2.png","null","",""
"","","","","","image-button-response","93","420179","0.0-14.0-1.0-1.1","C6C8D80416534548A1CF7457665CCB64","C6C8D80416534548A1CF7457665CCB64","aba58a93-27fb-4e78-b9dc-991daf02e630","a0a8f18c-a66e-4ba7-a170-23efbdc67501","{""participantId"":""C6C8D80416534548A1CF7457665CCB64"",""assignmentId"":""aba58a93-27fb-4e78-b9dc-991daf02e630"",""projectId"":""a0a8f18c-a66e-4ba7-a170-23efbdc67501""}","https://test12345.live/?participantId=C6C8D80416534548A1CF7457665CCB64&assignmentId=aba58a93-27fb-4e78-b9dc-991daf02e630&projectId=a0a8f18c-a66e-4ba7-a170-23efbdc67501","C6C8D80416534548A1CF7457665CCB64-2024-11-24-18-40-55","","1056","","images/semantic_sequence/physical_activity_semantic/physical_activity_semantic_2.png","0","",""
"","","","","","image-button-response","94","422185","0.0-14.0-1.0-2.1","C6C8D80416534548A1CF7457665CCB64","C6C8D80416534548A1CF7457665CCB64","aba58a93-27fb-4e78-b9dc-991daf02e630","a0a8f18c-a66e-4ba7-a170-23efbdc67501","{""participantId"":""C6C8D80416534548A1CF7457665CCB64"",""assignmentId"":""aba58a93-27fb-4e78-b9dc-991daf02e630"",""projectId"":""a0a8f18c-a66e-4ba7-a170-23efbdc67501""}","https://test12345.live/?participantId=C6C8D80416534548A1CF7457665CCB64&assignmentId=aba58a93-27fb-4e78-b9dc-991daf02e630&projectId=a0a8f18c-a66e-4ba7-a170-23efbdc67501","C6C8D80416534548A1CF7457665CCB64-2024-11-24-18-40-55","","null","","[]","null","",""
"","","","","","image-button-response","95","427224","0.0-14.0-1.0-0.2","C6C8D80416534548A1CF7457665CCB64","C6C8D80416534548A1CF7457665CCB64","aba58a93-27fb-4e78-b9dc-991daf02e630","a0a8f18c-a66e-4ba7-a170-23efbdc67501","{""participantId"":""C6C8D80416534548A1CF7457665CCB64"",""assignmentId"":""aba58a93-27fb-4e78-b9dc-991daf02e630"",""projectId"":""a0a8f18c-a66e-4ba7-a170-23efbdc67501""}","https://test12345.live/?participantId=C6C8D80416534548A1CF7457665CCB64&assignmentId=aba58a93-27fb-4e78-b9dc-991daf02e630&projectId=a0a8f18c-a66e-4ba7-a170-23efbdc67501","C6C8D80416534548A1CF7457665CCB64-2024-11-24-18-40-55","","null","","images/semantic_sequence/physical_activity_semantic/physical_activity_semantic_3.png","null","",""
"","","","","","image-button-response","96","428043","0.0-14.0-1.0-1.2","C6C8D80416534548A1CF7457665CCB64","C6C8D80416534548A1CF7457665CCB64","aba58a93-27fb-4e78-b9dc-991daf02e630","a0a8f18c-a66e-4ba7-a170-23efbdc67501","{""participantId"":""C6C8D80416534548A1CF7457665CCB64"",""assignmentId"":""aba58a93-27fb-4e78-b9dc-991daf02e630"",""projectId"":""a0a8f18c-a66e-4ba7-a170-23efbdc67501""}","https://test12345.live/?participantId=C6C8D80416534548A1CF7457665CCB64&assignmentId=aba58a93-27fb-4e78-b9dc-991daf02e630&projectId=a0a8f18c-a66e-4ba7-a170-23efbdc67501","C6C8D80416534548A1CF7457665CCB64-2024-11-24-18-40-55","","819","","images/semantic_sequence/physical_activity_semantic/physical_activity_semantic_3.png","0","",""
"","","","","","image-button-response","97","430047","0.0-14.0-1.0-2.2","C6C8D80416534548A1CF7457665CCB64","C6C8D80416534548A1CF7457665CCB64","aba58a93-27fb-4e78-b9dc-991daf02e630","a0a8f18c-a66e-4ba7-a170-23efbdc67501","{""participantId"":""C6C8D80416534548A1CF7457665CCB64"",""assignmentId"":""aba58a93-27fb-4e78-b9dc-991daf02e630"",""projectId"":""a0a8f18c-a66e-4ba7-a170-23efbdc67501""}","https://test12345.live/?participantId=C6C8D80416534548A1CF7457665CCB64&assignmentId=aba58a93-27fb-4e78-b9dc-991daf02e630&projectId=a0a8f18c-a66e-4ba7-a170-23efbdc67501","C6C8D80416534548A1CF7457665CCB64-2024-11-24-18-40-55","","null","","[]","null","",""
"","","","","","image-button-response","98","434735","0.0-14.0-1.0-0.3","C6C8D80416534548A1CF7457665CCB64","C6C8D80416534548A1CF7457665CCB64","aba58a93-27fb-4e78-b9dc-991daf02e630","a0a8f18c-a66e-4ba7-a170-23efbdc67501","{""participantId"":""C6C8D80416534548A1CF7457665CCB64"",""assignmentId"":""aba58a93-27fb-4e78-b9dc-991daf02e630"",""projectId"":""a0a8f18c-a66e-4ba7-a170-23efbdc67501""}","https://test12345.live/?participantId=C6C8D80416534548A1CF7457665CCB64&assignmentId=aba58a93-27fb-4e78-b9dc-991daf02e630&projectId=a0a8f18c-a66e-4ba7-a170-23efbdc67501","C6C8D80416534548A1CF7457665CCB64-2024-11-24-18-40-55","","null","","images/semantic_sequence/physical_activity_semantic/physical_activity_semantic_4.png","null","",""
"","","","","","image-button-response","99","435248","0.0-14.0-1.0-1.3","C6C8D80416534548A1CF7457665CCB64","C6C8D80416534548A1CF7457665CCB64","aba58a93-27fb-4e78-b9dc-991daf02e630","a0a8f18c-a66e-4ba7-a170-23efbdc67501","{""participantId"":""C6C8D80416534548A1CF7457665CCB64"",""assignmentId"":""aba58a93-27fb-4e78-b9dc-991daf02e630"",""projectId"":""a0a8f18c-a66e-4ba7-a170-23efbdc67501""}","https://test12345.live/?participantId=C6C8D80416534548A1CF7457665CCB64&assignmentId=aba58a93-27fb-4e78-b9dc-991daf02e630&projectId=a0a8f18c-a66e-4ba7-a170-23efbdc67501","C6C8D80416534548A1CF7457665CCB64-2024-11-24-18-40-55","","511","","images/semantic_sequence/physical_activity_semantic/physical_activity_semantic_4.png","0","",""
"","","","","","image-button-response","100","437052","0.0-14.0-1.0-2.3","C6C8D80416534548A1CF7457665CCB64","C6C8D80416534548A1CF7457665CCB64","aba58a93-27fb-4e78-b9dc-991daf02e630","a0a8f18c-a66e-4ba7-a170-23efbdc67501","{""participantId"":""C6C8D80416534548A1CF7457665CCB64"",""assignmentId"":""aba58a93-27fb-4e78-b9dc-991daf02e630"",""projectId"":""a0a8f18c-a66e-4ba7-a170-23efbdc67501""}","https://test12345.live/?participantId=C6C8D80416534548A1CF7457665CCB64&assignmentId=aba58a93-27fb-4e78-b9dc-991daf02e630&projectId=a0a8f18c-a66e-4ba7-a170-23efbdc67501","C6C8D80416534548A1CF7457665CCB64-2024-11-24-18-40-55","","null","","[]","null","",""
"","","","","","image-button-response","101","441583","0.0-14.0-1.0-0.4","C6C8D80416534548A1CF7457665CCB64","C6C8D80416534548A1CF7457665CCB64","aba58a93-27fb-4e78-b9dc-991daf02e630","a0a8f18c-a66e-4ba7-a170-23efbdc67501","{""participantId"":""C6C8D80416534548A1CF7457665CCB64"",""assignmentId"":""aba58a93-27fb-4e78-b9dc-991daf02e630"",""projectId"":""a0a8f18c-a66e-4ba7-a170-23efbdc67501""}","https://test12345.live/?participantId=C6C8D80416534548A1CF7457665CCB64&assignmentId=aba58a93-27fb-4e78-b9dc-991daf02e630&projectId=a0a8f18c-a66e-4ba7-a170-23efbdc67501","C6C8D80416534548A1CF7457665CCB64-2024-11-24-18-40-55","","null","","images/semantic_sequence/physical_activity_semantic/physical_activity_semantic_5.png","null","",""
"","","","","","image-button-response","102","442478","0.0-14.0-1.0-1.4","C6C8D80416534548A1CF7457665CCB64","C6C8D80416534548A1CF7457665CCB64","aba58a93-27fb-4e78-b9dc-991daf02e630","a0a8f18c-a66e-4ba7-a170-23efbdc67501","{""participantId"":""C6C8D80416534548A1CF7457665CCB64"",""assignmentId"":""aba58a93-27fb-4e78-b9dc-991daf02e630"",""projectId"":""a0a8f18c-a66e-4ba7-a170-23efbdc67501""}","https://test12345.live/?participantId=C6C8D80416534548A1CF7457665CCB64&assignmentId=aba58a93-27fb-4e78-b9dc-991daf02e630&projectId=a0a8f18c-a66e-4ba7-a170-23efbdc67501","C6C8D80416534548A1CF7457665CCB64-2024-11-24-18-40-55","","894","","images/semantic_sequence/physical_activity_semantic/physical_activity_semantic_5.png","0","",""
"","","","","","image-button-response","103","444283","0.0-14.0-1.0-2.4","C6C8D80416534548A1CF7457665CCB64","C6C8D80416534548A1CF7457665CCB64","aba58a93-27fb-4e78-b9dc-991daf02e630","a0a8f18c-a66e-4ba7-a170-23efbdc67501","{""participantId"":""C6C8D80416534548A1CF7457665CCB64"",""assignmentId"":""aba58a93-27fb-4e78-b9dc-991daf02e630"",""projectId"":""a0a8f18c-a66e-4ba7-a170-23efbdc67501""}","https://test12345.live/?participantId=C6C8D80416534548A1CF7457665CCB64&assignmentId=aba58a93-27fb-4e78-b9dc-991daf02e630&projectId=a0a8f18c-a66e-4ba7-a170-23efbdc67501","C6C8D80416534548A1CF7457665CCB64-2024-11-24-18-40-55","","null","","[]","null","",""
"","","","","","image-button-response","104","448818","0.0-14.0-1.0-0.5","C6C8D80416534548A1CF7457665CCB64","C6C8D80416534548A1CF7457665CCB64","aba58a93-27fb-4e78-b9dc-991daf02e630","a0a8f18c-a66e-4ba7-a170-23efbdc67501","{""participantId"":""C6C8D80416534548A1CF7457665CCB64"",""assignmentId"":""aba58a93-27fb-4e78-b9dc-991daf02e630"",""projectId"":""a0a8f18c-a66e-4ba7-a170-23efbdc67501""}","https://test12345.live/?participantId=C6C8D80416534548A1CF7457665CCB64&assignmentId=aba58a93-27fb-4e78-b9dc-991daf02e630&projectId=a0a8f18c-a66e-4ba7-a170-23efbdc67501","C6C8D80416534548A1CF7457665CCB64-2024-11-24-18-40-55","","null","","images/semantic_sequence/physical_activity_semantic/physical_activity_semantic_6.png","null","",""
"","","","","","image-button-response","105","449532","0.0-14.0-1.0-1.5","C6C8D80416534548A1CF7457665CCB64","C6C8D80416534548A1CF7457665CCB64","aba58a93-27fb-4e78-b9dc-991daf02e630","a0a8f18c-a66e-4ba7-a170-23efbdc67501","{""participantId"":""C6C8D80416534548A1CF7457665CCB64"",""assignmentId"":""aba58a93-27fb-4e78-b9dc-991daf02e630"",""projectId"":""a0a8f18c-a66e-4ba7-a170-23efbdc67501""}","https://test12345.live/?participantId=C6C8D80416534548A1CF7457665CCB64&assignmentId=aba58a93-27fb-4e78-b9dc-991daf02e630&projectId=a0a8f18c-a66e-4ba7-a170-23efbdc67501","C6C8D80416534548A1CF7457665CCB64-2024-11-24-18-40-55","","715","","images/semantic_sequence/physical_activity_semantic/physical_activity_semantic_6.png","0","",""
"","","","","","image-button-response","106","451540","0.0-14.0-1.0-2.5","C6C8D80416534548A1CF7457665CCB64","C6C8D80416534548A1CF7457665CCB64","aba58a93-27fb-4e78-b9dc-991daf02e630","a0a8f18c-a66e-4ba7-a170-23efbdc67501","{""participantId"":""C6C8D80416534548A1CF7457665CCB64"",""assignmentId"":""aba58a93-27fb-4e78-b9dc-991daf02e630"",""projectId"":""a0a8f18c-a66e-4ba7-a170-23efbdc67501""}","https://test12345.live/?participantId=C6C8D80416534548A1CF7457665CCB64&assignmentId=aba58a93-27fb-4e78-b9dc-991daf02e630&projectId=a0a8f18c-a66e-4ba7-a170-23efbdc67501","C6C8D80416534548A1CF7457665CCB64-2024-11-24-18-40-55","","null","","[]","null","",""
"","","","","","image-button-response","107","456429","0.0-14.0-1.0-0.6","C6C8D80416534548A1CF7457665CCB64","C6C8D80416534548A1CF7457665CCB64","aba58a93-27fb-4e78-b9dc-991daf02e630","a0a8f18c-a66e-4ba7-a170-23efbdc67501","{""participantId"":""C6C8D80416534548A1CF7457665CCB64"",""assignmentId"":""aba58a93-27fb-4e78-b9dc-991daf02e630"",""projectId"":""a0a8f18c-a66e-4ba7-a170-23efbdc67501""}","https://test12345.live/?participantId=C6C8D80416534548A1CF7457665CCB64&assignmentId=aba58a93-27fb-4e78-b9dc-991daf02e630&projectId=a0a8f18c-a66e-4ba7-a170-23efbdc67501","C6C8D80416534548A1CF7457665CCB64-2024-11-24-18-40-55","","null","","images/semantic_sequence/physical_activity_semantic/physical_activity_semantic_7.png","null","",""
"","","","","","image-button-response","108","460435","0.0-14.0-1.0-1.6","C6C8D80416534548A1CF7457665CCB64","C6C8D80416534548A1CF7457665CCB64","aba58a93-27fb-4e78-b9dc-991daf02e630","a0a8f18c-a66e-4ba7-a170-23efbdc67501","{""participantId"":""C6C8D80416534548A1CF7457665CCB64"",""assignmentId"":""aba58a93-27fb-4e78-b9dc-991daf02e630"",""projectId"":""a0a8f18c-a66e-4ba7-a170-23efbdc67501""}","https://test12345.live/?participantId=C6C8D80416534548A1CF7457665CCB64&assignmentId=aba58a93-27fb-4e78-b9dc-991daf02e630&projectId=a0a8f18c-a66e-4ba7-a170-23efbdc67501","C6C8D80416534548A1CF7457665CCB64-2024-11-24-18-40-55","","null","","images/semantic_sequence/physical_activity_semantic/physical_activity_semantic_7.png","null","",""
"","","","","","image-button-response","109","462437","0.0-14.0-1.0-2.6","C6C8D80416534548A1CF7457665CCB64","C6C8D80416534548A1CF7457665CCB64","aba58a93-27fb-4e78-b9dc-991daf02e630","a0a8f18c-a66e-4ba7-a170-23efbdc67501","{""participantId"":""C6C8D80416534548A1CF7457665CCB64"",""assignmentId"":""aba58a93-27fb-4e78-b9dc-991daf02e630"",""projectId"":""a0a8f18c-a66e-4ba7-a170-23efbdc67501""}","https://test12345.live/?participantId=C6C8D80416534548A1CF7457665CCB64&assignmentId=aba58a93-27fb-4e78-b9dc-991daf02e630&projectId=a0a8f18c-a66e-4ba7-a170-23efbdc67501","C6C8D80416534548A1CF7457665CCB64-2024-11-24-18-40-55","","null","","[]","null","",""
"","","","","","image-button-response","110","466964","0.0-14.0-1.0-0.7","C6C8D80416534548A1CF7457665CCB64","C6C8D80416534548A1CF7457665CCB64","aba58a93-27fb-4e78-b9dc-991daf02e630","a0a8f18c-a66e-4ba7-a170-23efbdc67501","{""participantId"":""C6C8D80416534548A1CF7457665CCB64"",""assignmentId"":""aba58a93-27fb-4e78-b9dc-991daf02e630"",""projectId"":""a0a8f18c-a66e-4ba7-a170-23efbdc67501""}","https://test12345.live/?participantId=C6C8D80416534548A1CF7457665CCB64&assignmentId=aba58a93-27fb-4e78-b9dc-991daf02e630&projectId=a0a8f18c-a66e-4ba7-a170-23efbdc67501","C6C8D80416534548A1CF7457665CCB64-2024-11-24-18-40-55","","null","","images/semantic_sequence/physical_activity_semantic/physical_activity_semantic_8.png","null","",""
"","","","","","image-button-response","111","467699","0.0-14.0-1.0-1.7","C6C8D80416534548A1CF7457665CCB64","C6C8D80416534548A1CF7457665CCB64","aba58a93-27fb-4e78-b9dc-991daf02e630","a0a8f18c-a66e-4ba7-a170-23efbdc67501","{""participantId"":""C6C8D80416534548A1CF7457665CCB64"",""assignmentId"":""aba58a93-27fb-4e78-b9dc-991daf02e630"",""projectId"":""a0a8f18c-a66e-4ba7-a170-23efbdc67501""}","https://test12345.live/?participantId=C6C8D80416534548A1CF7457665CCB64&assignmentId=aba58a93-27fb-4e78-b9dc-991daf02e630&projectId=a0a8f18c-a66e-4ba7-a170-23efbdc67501","C6C8D80416534548A1CF7457665CCB64-2024-11-24-18-40-55","","734","","images/semantic_sequence/physical_activity_semantic/physical_activity_semantic_8.png","0","",""
"","","","","","image-button-response","112","469710","0.0-14.0-1.0-2.7","C6C8D80416534548A1CF7457665CCB64","C6C8D80416534548A1CF7457665CCB64","aba58a93-27fb-4e78-b9dc-991daf02e630","a0a8f18c-a66e-4ba7-a170-23efbdc67501","{""participantId"":""C6C8D80416534548A1CF7457665CCB64"",""assignmentId"":""aba58a93-27fb-4e78-b9dc-991daf02e630"",""projectId"":""a0a8f18c-a66e-4ba7-a170-23efbdc67501""}","https://test12345.live/?participantId=C6C8D80416534548A1CF7457665CCB64&assignmentId=aba58a93-27fb-4e78-b9dc-991daf02e630&projectId=a0a8f18c-a66e-4ba7-a170-23efbdc67501","C6C8D80416534548A1CF7457665CCB64-2024-11-24-18-40-55","","null","","[]","null","",""
"","","","","","image-button-response","113","474239","0.0-14.0-1.0-0.8","C6C8D80416534548A1CF7457665CCB64","C6C8D80416534548A1CF7457665CCB64","aba58a93-27fb-4e78-b9dc-991daf02e630","a0a8f18c-a66e-4ba7-a170-23efbdc67501","{""participantId"":""C6C8D80416534548A1CF7457665CCB64"",""assignmentId"":""aba58a93-27fb-4e78-b9dc-991daf02e630"",""projectId"":""a0a8f18c-a66e-4ba7-a170-23efbdc67501""}","https://test12345.live/?participantId=C6C8D80416534548A1CF7457665CCB64&assignmentId=aba58a93-27fb-4e78-b9dc-991daf02e630&projectId=a0a8f18c-a66e-4ba7-a170-23efbdc67501","C6C8D80416534548A1CF7457665CCB64-2024-11-24-18-40-55","","null","","images/semantic_sequence/physical_activity_semantic/physical_activity_semantic_9.png","null","",""
"","","","","","image-button-response","114","475896","0.0-14.0-1.0-1.8","C6C8D80416534548A1CF7457665CCB64","C6C8D80416534548A1CF7457665CCB64","aba58a93-27fb-4e78-b9dc-991daf02e630","a0a8f18c-a66e-4ba7-a170-23efbdc67501","{""participantId"":""C6C8D80416534548A1CF7457665CCB64"",""assignmentId"":""aba58a93-27fb-4e78-b9dc-991daf02e630"",""projectId"":""a0a8f18c-a66e-4ba7-a170-23efbdc67501""}","https://test12345.live/?participantId=C6C8D80416534548A1CF7457665CCB64&assignmentId=aba58a93-27fb-4e78-b9dc-991daf02e630&projectId=a0a8f18c-a66e-4ba7-a170-23efbdc67501","C6C8D80416534548A1CF7457665CCB64-2024-11-24-18-40-55","","1657","","images/semantic_sequence/physical_activity_semantic/physical_activity_semantic_9.png","0","",""
"","","","","","image-button-response","115","477906","0.0-14.0-1.0-2.8","C6C8D80416534548A1CF7457665CCB64","C6C8D80416534548A1CF7457665CCB64","aba58a93-27fb-4e78-b9dc-991daf02e630","a0a8f18c-a66e-4ba7-a170-23efbdc67501","{""participantId"":""C6C8D80416534548A1CF7457665CCB64"",""assignmentId"":""aba58a93-27fb-4e78-b9dc-991daf02e630"",""projectId"":""a0a8f18c-a66e-4ba7-a170-23efbdc67501""}","https://test12345.live/?participantId=C6C8D80416534548A1CF7457665CCB64&assignmentId=aba58a93-27fb-4e78-b9dc-991daf02e630&projectId=a0a8f18c-a66e-4ba7-a170-23efbdc67501","C6C8D80416534548A1CF7457665CCB64-2024-11-24-18-40-55","","null","","[]","null","",""
"","","","","","image-button-response","116","482962","0.0-14.0-1.0-0.9","C6C8D80416534548A1CF7457665CCB64","C6C8D80416534548A1CF7457665CCB64","aba58a93-27fb-4e78-b9dc-991daf02e630","a0a8f18c-a66e-4ba7-a170-23efbdc67501","{""participantId"":""C6C8D80416534548A1CF7457665CCB64"",""assignmentId"":""aba58a93-27fb-4e78-b9dc-991daf02e630"",""projectId"":""a0a8f18c-a66e-4ba7-a170-23efbdc67501""}","https://test12345.live/?participantId=C6C8D80416534548A1CF7457665CCB64&assignmentId=aba58a93-27fb-4e78-b9dc-991daf02e630&projectId=a0a8f18c-a66e-4ba7-a170-23efbdc67501","C6C8D80416534548A1CF7457665CCB64-2024-11-24-18-40-55","","null","","images/semantic_sequence/physical_activity_semantic/physical_activity_semantic_ten.png","null","",""
"","","","","","image-button-response","117","483488","0.0-14.0-1.0-1.9","C6C8D80416534548A1CF7457665CCB64","C6C8D80416534548A1CF7457665CCB64","aba58a93-27fb-4e78-b9dc-991daf02e630","a0a8f18c-a66e-4ba7-a170-23efbdc67501","{""participantId"":""C6C8D80416534548A1CF7457665CCB64"",""assignmentId"":""aba58a93-27fb-4e78-b9dc-991daf02e630"",""projectId"":""a0a8f18c-a66e-4ba7-a170-23efbdc67501""}","https://test12345.live/?participantId=C6C8D80416534548A1CF7457665CCB64&assignmentId=aba58a93-27fb-4e78-b9dc-991daf02e630&projectId=a0a8f18c-a66e-4ba7-a170-23efbdc67501","C6C8D80416534548A1CF7457665CCB64-2024-11-24-18-40-55","","525","","images/semantic_sequence/physical_activity_semantic/physical_activity_semantic_ten.png","0","",""
"","","","","","image-button-response","118","485498","0.0-14.0-1.0-2.9","C6C8D80416534548A1CF7457665CCB64","C6C8D80416534548A1CF7457665CCB64","aba58a93-27fb-4e78-b9dc-991daf02e630","a0a8f18c-a66e-4ba7-a170-23efbdc67501","{""participantId"":""C6C8D80416534548A1CF7457665CCB64"",""assignmentId"":""aba58a93-27fb-4e78-b9dc-991daf02e630"",""projectId"":""a0a8f18c-a66e-4ba7-a170-23efbdc67501""}","https://test12345.live/?participantId=C6C8D80416534548A1CF7457665CCB64&assignmentId=aba58a93-27fb-4e78-b9dc-991daf02e630&projectId=a0a8f18c-a66e-4ba7-a170-23efbdc67501","C6C8D80416534548A1CF7457665CCB64-2024-11-24-18-40-55","","null","","[]","null","",""
"","","","","","html-audio-response","119","508358","0.0-15.0","C6C8D80416534548A1CF7457665CCB64","C6C8D80416534548A1CF7457665CCB64","aba58a93-27fb-4e78-b9dc-991daf02e630","a0a8f18c-a66e-4ba7-a170-23efbdc67501","{""participantId"":""C6C8D80416534548A1CF7457665CCB64"",""assignmentId"":""aba58a93-27fb-4e78-b9dc-991daf02e630"",""projectId"":""a0a8f18c-a66e-4ba7-a170-23efbdc67501""}","https://test12345.live/?participantId=C6C8D80416534548A1CF7457665CCB64&assignmentId=aba58a93-27fb-4e78-b9dc-991daf02e630&projectId=a0a8f18c-a66e-4ba7-a170-23efbdc67501","C6C8D80416534548A1CF7457665CCB64-2024-11-24-18-40-55","","13300","","[""<span style=\""color: red; font-size: 24px\""> NOW RECORDING</span><p>Please say out loud all the images you saw, as many as you can remember. The images can be said in any order.</p>""]","","3","physical_activity_semantic"
"","","","","","image-button-response","120","514386","0.0-16.0-0.0","C6C8D80416534548A1CF7457665CCB64","C6C8D80416534548A1CF7457665CCB64","aba58a93-27fb-4e78-b9dc-991daf02e630","a0a8f18c-a66e-4ba7-a170-23efbdc67501","{""participantId"":""C6C8D80416534548A1CF7457665CCB64"",""assignmentId"":""aba58a93-27fb-4e78-b9dc-991daf02e630"",""projectId"":""a0a8f18c-a66e-4ba7-a170-23efbdc67501""}","https://test12345.live/?participantId=C6C8D80416534548A1CF7457665CCB64&assignmentId=aba58a93-27fb-4e78-b9dc-991daf02e630&projectId=a0a8f18c-a66e-4ba7-a170-23efbdc67501","C6C8D80416534548A1CF7457665CCB64-2024-11-24-18-40-55","","null","","images/schematic_sequence/flight_scheme/flight_scheme_0.png","null","",""
"","","","","","image-button-response","121","518907","0.0-16.0-1.0-0.0","C6C8D80416534548A1CF7457665CCB64","C6C8D80416534548A1CF7457665CCB64","aba58a93-27fb-4e78-b9dc-991daf02e630","a0a8f18c-a66e-4ba7-a170-23efbdc67501","{""participantId"":""C6C8D80416534548A1CF7457665CCB64"",""assignmentId"":""aba58a93-27fb-4e78-b9dc-991daf02e630"",""projectId"":""a0a8f18c-a66e-4ba7-a170-23efbdc67501""}","https://test12345.live/?participantId=C6C8D80416534548A1CF7457665CCB64&assignmentId=aba58a93-27fb-4e78-b9dc-991daf02e630&projectId=a0a8f18c-a66e-4ba7-a170-23efbdc67501","C6C8D80416534548A1CF7457665CCB64-2024-11-24-18-40-55","","null","","images/schematic_sequence/flight_scheme/flight_scheme_6.png","null","",""
"","","","","","image-button-response","122","521096","0.0-16.0-1.0-1.0","C6C8D80416534548A1CF7457665CCB64","C6C8D80416534548A1CF7457665CCB64","aba58a93-27fb-4e78-b9dc-991daf02e630","a0a8f18c-a66e-4ba7-a170-23efbdc67501","{""participantId"":""C6C8D80416534548A1CF7457665CCB64"",""assignmentId"":""aba58a93-27fb-4e78-b9dc-991daf02e630"",""projectId"":""a0a8f18c-a66e-4ba7-a170-23efbdc67501""}","https://test12345.live/?participantId=C6C8D80416534548A1CF7457665CCB64&assignmentId=aba58a93-27fb-4e78-b9dc-991daf02e630&projectId=a0a8f18c-a66e-4ba7-a170-23efbdc67501","C6C8D80416534548A1CF7457665CCB64-2024-11-24-18-40-55","","2189","","images/schematic_sequence/flight_scheme/flight_scheme_6.png","1","",""
"","","","","","image-button-response","123","522911","0.0-16.0-1.0-2.0","C6C8D80416534548A1CF7457665CCB64","C6C8D80416534548A1CF7457665CCB64","aba58a93-27fb-4e78-b9dc-991daf02e630","a0a8f18c-a66e-4ba7-a170-23efbdc67501","{""participantId"":""C6C8D80416534548A1CF7457665CCB64"",""assignmentId"":""aba58a93-27fb-4e78-b9dc-991daf02e630"",""projectId"":""a0a8f18c-a66e-4ba7-a170-23efbdc67501""}","https://test12345.live/?participantId=C6C8D80416534548A1CF7457665CCB64&assignmentId=aba58a93-27fb-4e78-b9dc-991daf02e630&projectId=a0a8f18c-a66e-4ba7-a170-23efbdc67501","C6C8D80416534548A1CF7457665CCB64-2024-11-24-18-40-55","","null","","[]","null","",""
"","","","","","image-button-response","124","527437","0.0-16.0-1.0-0.1","C6C8D80416534548A1CF7457665CCB64","C6C8D80416534548A1CF7457665CCB64","aba58a93-27fb-4e78-b9dc-991daf02e630","a0a8f18c-a66e-4ba7-a170-23efbdc67501","{""participantId"":""C6C8D80416534548A1CF7457665CCB64"",""assignmentId"":""aba58a93-27fb-4e78-b9dc-991daf02e630"",""projectId"":""a0a8f18c-a66e-4ba7-a170-23efbdc67501""}","https://test12345.live/?participantId=C6C8D80416534548A1CF7457665CCB64&assignmentId=aba58a93-27fb-4e78-b9dc-991daf02e630&projectId=a0a8f18c-a66e-4ba7-a170-23efbdc67501","C6C8D80416534548A1CF7457665CCB64-2024-11-24-18-40-55","","null","","images/schematic_sequence/flight_scheme/flight_scheme_3.png","null","",""
"","","","","","image-button-response","125","529223","0.0-16.0-1.0-1.1","C6C8D80416534548A1CF7457665CCB64","C6C8D80416534548A1CF7457665CCB64","aba58a93-27fb-4e78-b9dc-991daf02e630","a0a8f18c-a66e-4ba7-a170-23efbdc67501","{""participantId"":""C6C8D80416534548A1CF7457665CCB64"",""assignmentId"":""aba58a93-27fb-4e78-b9dc-991daf02e630"",""projectId"":""a0a8f18c-a66e-4ba7-a170-23efbdc67501""}","https://test12345.live/?participantId=C6C8D80416534548A1CF7457665CCB64&assignmentId=aba58a93-27fb-4e78-b9dc-991daf02e630&projectId=a0a8f18c-a66e-4ba7-a170-23efbdc67501","C6C8D80416534548A1CF7457665CCB64-2024-11-24-18-40-55","","1785","","images/schematic_sequence/flight_scheme/flight_scheme_3.png","0","",""
"","","","","","image-button-response","126","531230","0.0-16.0-1.0-2.1","C6C8D80416534548A1CF7457665CCB64","C6C8D80416534548A1CF7457665CCB64","aba58a93-27fb-4e78-b9dc-991daf02e630","a0a8f18c-a66e-4ba7-a170-23efbdc67501","{""participantId"":""C6C8D80416534548A1CF7457665CCB64"",""assignmentId"":""aba58a93-27fb-4e78-b9dc-991daf02e630"",""projectId"":""a0a8f18c-a66e-4ba7-a170-23efbdc67501""}","https://test12345.live/?participantId=C6C8D80416534548A1CF7457665CCB64&assignmentId=aba58a93-27fb-4e78-b9dc-991daf02e630&projectId=a0a8f18c-a66e-4ba7-a170-23efbdc67501","C6C8D80416534548A1CF7457665CCB64-2024-11-24-18-40-55","","null","","[]","null","",""
"","","","","","image-button-response","127","535833","0.0-16.0-1.0-0.2","C6C8D80416534548A1CF7457665CCB64","C6C8D80416534548A1CF7457665CCB64","aba58a93-27fb-4e78-b9dc-991daf02e630","a0a8f18c-a66e-4ba7-a170-23efbdc67501","{""participantId"":""C6C8D80416534548A1CF7457665CCB64"",""assignmentId"":""aba58a93-27fb-4e78-b9dc-991daf02e630"",""projectId"":""a0a8f18c-a66e-4ba7-a170-23efbdc67501""}","https://test12345.live/?participantId=C6C8D80416534548A1CF7457665CCB64&assignmentId=aba58a93-27fb-4e78-b9dc-991daf02e630&projectId=a0a8f18c-a66e-4ba7-a170-23efbdc67501","C6C8D80416534548A1CF7457665CCB64-2024-11-24-18-40-55","","null","","images/schematic_sequence/flight_scheme/flight_scheme_4.png","null","",""
"","","","","","image-button-response","128","537961","0.0-16.0-1.0-1.2","C6C8D80416534548A1CF7457665CCB64","C6C8D80416534548A1CF7457665CCB64","aba58a93-27fb-4e78-b9dc-991daf02e630","a0a8f18c-a66e-4ba7-a170-23efbdc67501","{""participantId"":""C6C8D80416534548A1CF7457665CCB64"",""assignmentId"":""aba58a93-27fb-4e78-b9dc-991daf02e630"",""projectId"":""a0a8f18c-a66e-4ba7-a170-23efbdc67501""}","https://test12345.live/?participantId=C6C8D80416534548A1CF7457665CCB64&assignmentId=aba58a93-27fb-4e78-b9dc-991daf02e630&projectId=a0a8f18c-a66e-4ba7-a170-23efbdc67501","C6C8D80416534548A1CF7457665CCB64-2024-11-24-18-40-55","","2129","","images/schematic_sequence/flight_scheme/flight_scheme_4.png","0","",""
"","","","","","image-button-response","129","539847","0.0-16.0-1.0-2.2","C6C8D80416534548A1CF7457665CCB64","C6C8D80416534548A1CF7457665CCB64","aba58a93-27fb-4e78-b9dc-991daf02e630","a0a8f18c-a66e-4ba7-a170-23efbdc67501","{""participantId"":""C6C8D80416534548A1CF7457665CCB64"",""assignmentId"":""aba58a93-27fb-4e78-b9dc-991daf02e630"",""projectId"":""a0a8f18c-a66e-4ba7-a170-23efbdc67501""}","https://test12345.live/?participantId=C6C8D80416534548A1CF7457665CCB64&assignmentId=aba58a93-27fb-4e78-b9dc-991daf02e630&projectId=a0a8f18c-a66e-4ba7-a170-23efbdc67501","C6C8D80416534548A1CF7457665CCB64-2024-11-24-18-40-55","","null","","[]","null","",""
"","","","","","image-button-response","130","544889","0.0-16.0-1.0-0.3","C6C8D80416534548A1CF7457665CCB64","C6C8D80416534548A1CF7457665CCB64","aba58a93-27fb-4e78-b9dc-991daf02e630","a0a8f18c-a66e-4ba7-a170-23efbdc67501","{""participantId"":""C6C8D80416534548A1CF7457665CCB64"",""assignmentId"":""aba58a93-27fb-4e78-b9dc-991daf02e630"",""projectId"":""a0a8f18c-a66e-4ba7-a170-23efbdc67501""}","https://test12345.live/?participantId=C6C8D80416534548A1CF7457665CCB64&assignmentId=aba58a93-27fb-4e78-b9dc-991daf02e630&projectId=a0a8f18c-a66e-4ba7-a170-23efbdc67501","C6C8D80416534548A1CF7457665CCB64-2024-11-24-18-40-55","","null","","images/schematic_sequence/flight_scheme/flight_scheme_2.png","null","",""
"","","","","","image-button-response","131","546794","0.0-16.0-1.0-1.3","C6C8D80416534548A1CF7457665CCB64","C6C8D80416534548A1CF7457665CCB64","aba58a93-27fb-4e78-b9dc-991daf02e630","a0a8f18c-a66e-4ba7-a170-23efbdc67501","{""participantId"":""C6C8D80416534548A1CF7457665CCB64"",""assignmentId"":""aba58a93-27fb-4e78-b9dc-991daf02e630"",""projectId"":""a0a8f18c-a66e-4ba7-a170-23efbdc67501""}","https://test12345.live/?participantId=C6C8D80416534548A1CF7457665CCB64&assignmentId=aba58a93-27fb-4e78-b9dc-991daf02e630&projectId=a0a8f18c-a66e-4ba7-a170-23efbdc67501","C6C8D80416534548A1CF7457665CCB64-2024-11-24-18-40-55","","1902","","images/schematic_sequence/flight_scheme/flight_scheme_2.png","0","",""
"","","","","","image-button-response","132","548657","0.0-16.0-1.0-2.3","C6C8D80416534548A1CF7457665CCB64","C6C8D80416534548A1CF7457665CCB64","aba58a93-27fb-4e78-b9dc-991daf02e630","a0a8f18c-a66e-4ba7-a170-23efbdc67501","{""participantId"":""C6C8D80416534548A1CF7457665CCB64"",""assignmentId"":""aba58a93-27fb-4e78-b9dc-991daf02e630"",""projectId"":""a0a8f18c-a66e-4ba7-a170-23efbdc67501""}","https://test12345.live/?participantId=C6C8D80416534548A1CF7457665CCB64&assignmentId=aba58a93-27fb-4e78-b9dc-991daf02e630&projectId=a0a8f18c-a66e-4ba7-a170-23efbdc67501","C6C8D80416534548A1CF7457665CCB64-2024-11-24-18-40-55","","null","","[]","null","",""
"","","","","","image-button-response","133","553184","0.0-16.0-1.0-0.4","C6C8D80416534548A1CF7457665CCB64","C6C8D80416534548A1CF7457665CCB64","aba58a93-27fb-4e78-b9dc-991daf02e630","a0a8f18c-a66e-4ba7-a170-23efbdc67501","{""participantId"":""C6C8D80416534548A1CF7457665CCB64"",""assignmentId"":""aba58a93-27fb-4e78-b9dc-991daf02e630"",""projectId"":""a0a8f18c-a66e-4ba7-a170-23efbdc67501""}","https://test12345.live/?participantId=C6C8D80416534548A1CF7457665CCB64&assignmentId=aba58a93-27fb-4e78-b9dc-991daf02e630&projectId=a0a8f18c-a66e-4ba7-a170-23efbdc67501","C6C8D80416534548A1CF7457665CCB64-2024-11-24-18-40-55","","null","","images/schematic_sequence/flight_scheme/flight_scheme_ten.png","null","",""
"","","","","","image-button-response","134","554611","0.0-16.0-1.0-1.4","C6C8D80416534548A1CF7457665CCB64","C6C8D80416534548A1CF7457665CCB64","aba58a93-27fb-4e78-b9dc-991daf02e630","a0a8f18c-a66e-4ba7-a170-23efbdc67501","{""participantId"":""C6C8D80416534548A1CF7457665CCB64"",""assignmentId"":""aba58a93-27fb-4e78-b9dc-991daf02e630"",""projectId"":""a0a8f18c-a66e-4ba7-a170-23efbdc67501""}","https://test12345.live/?participantId=C6C8D80416534548A1CF7457665CCB64&assignmentId=aba58a93-27fb-4e78-b9dc-991daf02e630&projectId=a0a8f18c-a66e-4ba7-a170-23efbdc67501","C6C8D80416534548A1CF7457665CCB64-2024-11-24-18-40-55","","1427","","images/schematic_sequence/flight_scheme/flight_scheme_ten.png","0","",""
"","","","","","image-button-response","135","556544","0.0-16.0-1.0-2.4","C6C8D80416534548A1CF7457665CCB64","C6C8D80416534548A1CF7457665CCB64","aba58a93-27fb-4e78-b9dc-991daf02e630","a0a8f18c-a66e-4ba7-a170-23efbdc67501","{""participantId"":""C6C8D80416534548A1CF7457665CCB64"",""assignmentId"":""aba58a93-27fb-4e78-b9dc-991daf02e630"",""projectId"":""a0a8f18c-a66e-4ba7-a170-23efbdc67501""}","https://test12345.live/?participantId=C6C8D80416534548A1CF7457665CCB64&assignmentId=aba58a93-27fb-4e78-b9dc-991daf02e630&projectId=a0a8f18c-a66e-4ba7-a170-23efbdc67501","C6C8D80416534548A1CF7457665CCB64-2024-11-24-18-40-55","","null","","[]","null","",""
"","","","","","image-button-response","136","561066","0.0-16.0-1.0-0.5","C6C8D80416534548A1CF7457665CCB64","C6C8D80416534548A1CF7457665CCB64","aba58a93-27fb-4e78-b9dc-991daf02e630","a0a8f18c-a66e-4ba7-a170-23efbdc67501","{""participantId"":""C6C8D80416534548A1CF7457665CCB64"",""assignmentId"":""aba58a93-27fb-4e78-b9dc-991daf02e630"",""projectId"":""a0a8f18c-a66e-4ba7-a170-23efbdc67501""}","https://test12345.live/?participantId=C6C8D80416534548A1CF7457665CCB64&assignmentId=aba58a93-27fb-4e78-b9dc-991daf02e630&projectId=a0a8f18c-a66e-4ba7-a170-23efbdc67501","C6C8D80416534548A1CF7457665CCB64-2024-11-24-18-40-55","","null","","images/schematic_sequence/flight_scheme/flight_scheme_1.png","null","",""
"","","","","","image-button-response","137","563003","0.0-16.0-1.0-1.5","C6C8D80416534548A1CF7457665CCB64","C6C8D80416534548A1CF7457665CCB64","aba58a93-27fb-4e78-b9dc-991daf02e630","a0a8f18c-a66e-4ba7-a170-23efbdc67501","{""participantId"":""C6C8D80416534548A1CF7457665CCB64"",""assignmentId"":""aba58a93-27fb-4e78-b9dc-991daf02e630"",""projectId"":""a0a8f18c-a66e-4ba7-a170-23efbdc67501""}","https://test12345.live/?participantId=C6C8D80416534548A1CF7457665CCB64&assignmentId=aba58a93-27fb-4e78-b9dc-991daf02e630&projectId=a0a8f18c-a66e-4ba7-a170-23efbdc67501","C6C8D80416534548A1CF7457665CCB64-2024-11-24-18-40-55","","1935","","images/schematic_sequence/flight_scheme/flight_scheme_1.png","0","",""
"","","","","","image-button-response","138","564809","0.0-16.0-1.0-2.5","C6C8D80416534548A1CF7457665CCB64","C6C8D80416534548A1CF7457665CCB64","aba58a93-27fb-4e78-b9dc-991daf02e630","a0a8f18c-a66e-4ba7-a170-23efbdc67501","{""participantId"":""C6C8D80416534548A1CF7457665CCB64"",""assignmentId"":""aba58a93-27fb-4e78-b9dc-991daf02e630"",""projectId"":""a0a8f18c-a66e-4ba7-a170-23efbdc67501""}","https://test12345.live/?participantId=C6C8D80416534548A1CF7457665CCB64&assignmentId=aba58a93-27fb-4e78-b9dc-991daf02e630&projectId=a0a8f18c-a66e-4ba7-a170-23efbdc67501","C6C8D80416534548A1CF7457665CCB64-2024-11-24-18-40-55","","null","","[]","null","",""
"","","","","","image-button-response","139","569477","0.0-16.0-1.0-0.6","C6C8D80416534548A1CF7457665CCB64","C6C8D80416534548A1CF7457665CCB64","aba58a93-27fb-4e78-b9dc-991daf02e630","a0a8f18c-a66e-4ba7-a170-23efbdc67501","{""participantId"":""C6C8D80416534548A1CF7457665CCB64"",""assignmentId"":""aba58a93-27fb-4e78-b9dc-991daf02e630"",""projectId"":""a0a8f18c-a66e-4ba7-a170-23efbdc67501""}","https://test12345.live/?participantId=C6C8D80416534548A1CF7457665CCB64&assignmentId=aba58a93-27fb-4e78-b9dc-991daf02e630&projectId=a0a8f18c-a66e-4ba7-a170-23efbdc67501","C6C8D80416534548A1CF7457665CCB64-2024-11-24-18-40-55","","null","","images/schematic_sequence/flight_scheme/flight_scheme_5.png","null","",""
"","","","","","image-button-response","140","569957","0.0-16.0-1.0-1.6","C6C8D80416534548A1CF7457665CCB64","C6C8D80416534548A1CF7457665CCB64","aba58a93-27fb-4e78-b9dc-991daf02e630","a0a8f18c-a66e-4ba7-a170-23efbdc67501","{""participantId"":""C6C8D80416534548A1CF7457665CCB64"",""assignmentId"":""aba58a93-27fb-4e78-b9dc-991daf02e630"",""projectId"":""a0a8f18c-a66e-4ba7-a170-23efbdc67501""}","https://test12345.live/?participantId=C6C8D80416534548A1CF7457665CCB64&assignmentId=aba58a93-27fb-4e78-b9dc-991daf02e630&projectId=a0a8f18c-a66e-4ba7-a170-23efbdc67501","C6C8D80416534548A1CF7457665CCB64-2024-11-24-18-40-55","","479","","images/schematic_sequence/flight_scheme/flight_scheme_5.png","0","",""
"","","","","","image-button-response","141","571772","0.0-16.0-1.0-2.6","C6C8D80416534548A1CF7457665CCB64","C6C8D80416534548A1CF7457665CCB64","aba58a93-27fb-4e78-b9dc-991daf02e630","a0a8f18c-a66e-4ba7-a170-23efbdc67501","{""participantId"":""C6C8D80416534548A1CF7457665CCB64"",""assignmentId"":""aba58a93-27fb-4e78-b9dc-991daf02e630"",""projectId"":""a0a8f18c-a66e-4ba7-a170-23efbdc67501""}","https://test12345.live/?participantId=C6C8D80416534548A1CF7457665CCB64&assignmentId=aba58a93-27fb-4e78-b9dc-991daf02e630&projectId=a0a8f18c-a66e-4ba7-a170-23efbdc67501","C6C8D80416534548A1CF7457665CCB64-2024-11-24-18-40-55","","null","","[]","null","",""
"","","","","","image-button-response","142","576297","0.0-16.0-1.0-0.7","C6C8D80416534548A1CF7457665CCB64","C6C8D80416534548A1CF7457665CCB64","aba58a93-27fb-4e78-b9dc-991daf02e630","a0a8f18c-a66e-4ba7-a170-23efbdc67501","{""participantId"":""C6C8D80416534548A1CF7457665CCB64"",""assignmentId"":""aba58a93-27fb-4e78-b9dc-991daf02e630"",""projectId"":""a0a8f18c-a66e-4ba7-a170-23efbdc67501""}","https://test12345.live/?participantId=C6C8D80416534548A1CF7457665CCB64&assignmentId=aba58a93-27fb-4e78-b9dc-991daf02e630&projectId=a0a8f18c-a66e-4ba7-a170-23efbdc67501","C6C8D80416534548A1CF7457665CCB64-2024-11-24-18-40-55","","null","","images/schematic_sequence/flight_scheme/flight_scheme_7.png","null","",""
