"success","timeout","failed_images","failed_audio","failed_video","trial_type","trial_index","time_elapsed","internal_node_id","subject","subject_id","study_id","session_id","urlvar","current_url","audio_id","view_history","rt","device_id","stimulus","response","estimated_stimulus_onset","seq_name"
"true","false","[]","[]","[]","preload","0","3196","0.0-0.0","CC041860171E430197E9EB831BB8CE34","CC041860171E430197E9EB831BB8CE34","f05c3c61-9552-4ba0-8876-25d83afd95f0","a0a8f18c-a66e-4ba7-a170-23efbdc67501","{""participantId"":""CC041860171E430197E9EB831BB8CE34"",""assignmentId"":""f05c3c61-9552-4ba0-8876-25d83afd95f0"",""projectId"":""a0a8f18c-a66e-4ba7-a170-23efbdc67501""}","https://test12345.live/?participantId=CC041860171E430197E9EB831BB8CE34&assignmentId=f05c3c61-9552-4ba0-8876-25d83afd95f0&projectId=a0a8f18c-a66e-4ba7-a170-23efbdc67501","CC041860171E430197E9EB831BB8CE34-2024-11-24-18-06-31","","","","","","",""
"","","","","","instructions","1","1738421","0.0-1.0","CC041860171E430197E9EB831BB8CE34","CC041860171E430197E9EB831BB8CE34","f05c3c61-9552-4ba0-8876-25d83afd95f0","a0a8f18c-a66e-4ba7-a170-23efbdc67501","{""participantId"":""CC041860171E430197E9EB831BB8CE34"",""assignmentId"":""f05c3c61-9552-4ba0-8876-25d83afd95f0"",""projectId"":""a0a8f18c-a66e-4ba7-a170-23efbdc67501""}","https://test12345.live/?participantId=CC041860171E430197E9EB831BB8CE34&assignmentId=f05c3c61-9552-4ba0-8876-25d83afd95f0&projectId=a0a8f18c-a66e-4ba7-a170-23efbdc67501","CC041860171E430197E9EB831BB8CE34-2024-11-24-18-06-31","[{""page_index"":0,""viewing_time"":1735224}]","1735224","","","","",""
"","","","","","instructions","2","1743079","0.0-2.0","CC041860171E430197E9EB831BB8CE34","CC041860171E430197E9EB831BB8CE34","f05c3c61-9552-4ba0-8876-25d83afd95f0","a0a8f18c-a66e-4ba7-a170-23efbdc67501","{""participantId"":""CC041860171E430197E9EB831BB8CE34"",""assignmentId"":""f05c3c61-9552-4ba0-8876-25d83afd95f0"",""projectId"":""a0a8f18c-a66e-4ba7-a170-23efbdc67501""}","https://test12345.live/?participantId=CC041860171E430197E9EB831BB8CE34&assignmentId=f05c3c61-9552-4ba0-8876-25d83afd95f0&projectId=a0a8f18c-a66e-4ba7-a170-23efbdc67501","CC041860171E430197E9EB831BB8CE34-2024-11-24-18-06-31","[{""page_index"":0,""viewing_time"":4657}]","4657","","","","",""
"true","","","","","fullscreen","3","1748652","0.0-3.0","CC041860171E430197E9EB831BB8CE34","CC041860171E430197E9EB831BB8CE34","f05c3c61-9552-4ba0-8876-25d83afd95f0","a0a8f18c-a66e-4ba7-a170-23efbdc67501","{""participantId"":""CC041860171E430197E9EB831BB8CE34"",""assignmentId"":""f05c3c61-9552-4ba0-8876-25d83afd95f0"",""projectId"":""a0a8f18c-a66e-4ba7-a170-23efbdc67501""}","https://test12345.live/?participantId=CC041860171E430197E9EB831BB8CE34&assignmentId=f05c3c61-9552-4ba0-8876-25d83afd95f0&projectId=a0a8f18c-a66e-4ba7-a170-23efbdc67501","CC041860171E430197E9EB831BB8CE34-2024-11-24-18-06-31","","4556","","","","",""
"","","","","","initialize-microphone","4","1752453","0.0-4.0-0.0","CC041860171E430197E9EB831BB8CE34","CC041860171E430197E9EB831BB8CE34","f05c3c61-9552-4ba0-8876-25d83afd95f0","a0a8f18c-a66e-4ba7-a170-23efbdc67501","{""participantId"":""CC041860171E430197E9EB831BB8CE34"",""assignmentId"":""f05c3c61-9552-4ba0-8876-25d83afd95f0"",""projectId"":""a0a8f18c-a66e-4ba7-a170-23efbdc67501""}","https://test12345.live/?participantId=CC041860171E430197E9EB831BB8CE34&assignmentId=f05c3c61-9552-4ba0-8876-25d83afd95f0&projectId=a0a8f18c-a66e-4ba7-a170-23efbdc67501","CC041860171E430197E9EB831BB8CE34-2024-11-24-18-06-31","","","3f2f0d705fb738a3792f37755fc8af28ef42519a0cf99d436b390abc644692df","","","",""
"","","","","","html-audio-response","5","1770821","0.0-4.0-1.0","CC041860171E430197E9EB831BB8CE34","CC041860171E430197E9EB831BB8CE34","f05c3c61-9552-4ba0-8876-25d83afd95f0","a0a8f18c-a66e-4ba7-a170-23efbdc67501","{""participantId"":""CC041860171E430197E9EB831BB8CE34"",""assignmentId"":""f05c3c61-9552-4ba0-8876-25d83afd95f0"",""projectId"":""a0a8f18c-a66e-4ba7-a170-23efbdc67501""}","https://test12345.live/?participantId=CC041860171E430197E9EB831BB8CE34&assignmentId=f05c3c61-9552-4ba0-8876-25d83afd95f0&projectId=a0a8f18c-a66e-4ba7-a170-23efbdc67501","CC041860171E430197E9EB831BB8CE34-2024-11-24-18-06-31","","3201","","<span style=""color: red; font-size: 24px""> NOW RECORDING</span>
        <p>Please test Microphone</p>","","2",""
"","","","","","html-button-response","6","1773030","0.0-4.0-2.0","CC041860171E430197E9EB831BB8CE34","CC041860171E430197E9EB831BB8CE34","f05c3c61-9552-4ba0-8876-25d83afd95f0","a0a8f18c-a66e-4ba7-a170-23efbdc67501","{""participantId"":""CC041860171E430197E9EB831BB8CE34"",""assignmentId"":""f05c3c61-9552-4ba0-8876-25d83afd95f0"",""projectId"":""a0a8f18c-a66e-4ba7-a170-23efbdc67501""}","https://test12345.live/?participantId=CC041860171E430197E9EB831BB8CE34&assignmentId=f05c3c61-9552-4ba0-8876-25d83afd95f0&projectId=a0a8f18c-a66e-4ba7-a170-23efbdc67501","CC041860171E430197E9EB831BB8CE34-2024-11-24-18-06-31","","2208","","<p style=""font-size:48px; color:red;"">Is Microphone OK?</p>","1","",""
"","","","","","instructions","7","1785249","0.0-5.0","CC041860171E430197E9EB831BB8CE34","CC041860171E430197E9EB831BB8CE34","f05c3c61-9552-4ba0-8876-25d83afd95f0","a0a8f18c-a66e-4ba7-a170-23efbdc67501","{""participantId"":""CC041860171E430197E9EB831BB8CE34"",""assignmentId"":""f05c3c61-9552-4ba0-8876-25d83afd95f0"",""projectId"":""a0a8f18c-a66e-4ba7-a170-23efbdc67501""}","https://test12345.live/?participantId=CC041860171E430197E9EB831BB8CE34&assignmentId=f05c3c61-9552-4ba0-8876-25d83afd95f0&projectId=a0a8f18c-a66e-4ba7-a170-23efbdc67501","CC041860171E430197E9EB831BB8CE34-2024-11-24-18-06-31","[{""page_index"":0,""viewing_time"":3656},{""page_index"":1,""viewing_time"":8562}]","12218","","","","",""
"","","","","","image-button-response","8","1791250","0.0-6.0-0.0","CC041860171E430197E9EB831BB8CE34","CC041860171E430197E9EB831BB8CE34","f05c3c61-9552-4ba0-8876-25d83afd95f0","a0a8f18c-a66e-4ba7-a170-23efbdc67501","{""participantId"":""CC041860171E430197E9EB831BB8CE34"",""assignmentId"":""f05c3c61-9552-4ba0-8876-25d83afd95f0"",""projectId"":""a0a8f18c-a66e-4ba7-a170-23efbdc67501""}","https://test12345.live/?participantId=CC041860171E430197E9EB831BB8CE34&assignmentId=f05c3c61-9552-4ba0-8876-25d83afd95f0&projectId=a0a8f18c-a66e-4ba7-a170-23efbdc67501","CC041860171E430197E9EB831BB8CE34-2024-11-24-18-06-31","","null","","images/instructions/movie_0.png","null","",""
"","","","","","image-button-response","9","1795755","0.0-6.0-1.0-0.0","CC041860171E430197E9EB831BB8CE34","CC041860171E430197E9EB831BB8CE34","f05c3c61-9552-4ba0-8876-25d83afd95f0","a0a8f18c-a66e-4ba7-a170-23efbdc67501","{""participantId"":""CC041860171E430197E9EB831BB8CE34"",""assignmentId"":""f05c3c61-9552-4ba0-8876-25d83afd95f0"",""projectId"":""a0a8f18c-a66e-4ba7-a170-23efbdc67501""}","https://test12345.live/?participantId=CC041860171E430197E9EB831BB8CE34&assignmentId=f05c3c61-9552-4ba0-8876-25d83afd95f0&projectId=a0a8f18c-a66e-4ba7-a170-23efbdc67501","CC041860171E430197E9EB831BB8CE34-2024-11-24-18-06-31","","null","","images/instructions/movie_1.png","null","",""
"","","","","","image-button-response","10","1798178","0.0-6.0-1.0-1.0","CC041860171E430197E9EB831BB8CE34","CC041860171E430197E9EB831BB8CE34","f05c3c61-9552-4ba0-8876-25d83afd95f0","a0a8f18c-a66e-4ba7-a170-23efbdc67501","{""participantId"":""CC041860171E430197E9EB831BB8CE34"",""assignmentId"":""f05c3c61-9552-4ba0-8876-25d83afd95f0"",""projectId"":""a0a8f18c-a66e-4ba7-a170-23efbdc67501""}","https://test12345.live/?participantId=CC041860171E430197E9EB831BB8CE34&assignmentId=f05c3c61-9552-4ba0-8876-25d83afd95f0&projectId=a0a8f18c-a66e-4ba7-a170-23efbdc67501","CC041860171E430197E9EB831BB8CE34-2024-11-24-18-06-31","","2422","","images/instructions/movie_1.png","0","",""
"","","","","","image-button-response","11","1799980","0.0-6.0-1.0-2.0","CC041860171E430197E9EB831BB8CE34","CC041860171E430197E9EB831BB8CE34","f05c3c61-9552-4ba0-8876-25d83afd95f0","a0a8f18c-a66e-4ba7-a170-23efbdc67501","{""participantId"":""CC041860171E430197E9EB831BB8CE34"",""assignmentId"":""f05c3c61-9552-4ba0-8876-25d83afd95f0"",""projectId"":""a0a8f18c-a66e-4ba7-a170-23efbdc67501""}","https://test12345.live/?participantId=CC041860171E430197E9EB831BB8CE34&assignmentId=f05c3c61-9552-4ba0-8876-25d83afd95f0&projectId=a0a8f18c-a66e-4ba7-a170-23efbdc67501","CC041860171E430197E9EB831BB8CE34-2024-11-24-18-06-31","","null","","[]","null","",""
"","","","","","image-button-response","12","1804484","0.0-6.0-1.0-0.1","CC041860171E430197E9EB831BB8CE34","CC041860171E430197E9EB831BB8CE34","f05c3c61-9552-4ba0-8876-25d83afd95f0","a0a8f18c-a66e-4ba7-a170-23efbdc67501","{""participantId"":""CC041860171E430197E9EB831BB8CE34"",""assignmentId"":""f05c3c61-9552-4ba0-8876-25d83afd95f0"",""projectId"":""a0a8f18c-a66e-4ba7-a170-23efbdc67501""}","https://test12345.live/?participantId=CC041860171E430197E9EB831BB8CE34&assignmentId=f05c3c61-9552-4ba0-8876-25d83afd95f0&projectId=a0a8f18c-a66e-4ba7-a170-23efbdc67501","CC041860171E430197E9EB831BB8CE34-2024-11-24-18-06-31","","null","","images/instructions/movie_2.png","null","",""
"","","","","","image-button-response","13","1807588","0.0-6.0-1.0-1.1","CC041860171E430197E9EB831BB8CE34","CC041860171E430197E9EB831BB8CE34","f05c3c61-9552-4ba0-8876-25d83afd95f0","a0a8f18c-a66e-4ba7-a170-23efbdc67501","{""participantId"":""CC041860171E430197E9EB831BB8CE34"",""assignmentId"":""f05c3c61-9552-4ba0-8876-25d83afd95f0"",""projectId"":""a0a8f18c-a66e-4ba7-a170-23efbdc67501""}","https://test12345.live/?participantId=CC041860171E430197E9EB831BB8CE34&assignmentId=f05c3c61-9552-4ba0-8876-25d83afd95f0&projectId=a0a8f18c-a66e-4ba7-a170-23efbdc67501","CC041860171E430197E9EB831BB8CE34-2024-11-24-18-06-31","","3103","","images/instructions/movie_2.png","0","",""
"","","","","","image-button-response","14","1809400","0.0-6.0-1.0-2.1","CC041860171E430197E9EB831BB8CE34","CC041860171E430197E9EB831BB8CE34","f05c3c61-9552-4ba0-8876-25d83afd95f0","a0a8f18c-a66e-4ba7-a170-23efbdc67501","{""participantId"":""CC041860171E430197E9EB831BB8CE34"",""assignmentId"":""f05c3c61-9552-4ba0-8876-25d83afd95f0"",""projectId"":""a0a8f18c-a66e-4ba7-a170-23efbdc67501""}","https://test12345.live/?participantId=CC041860171E430197E9EB831BB8CE34&assignmentId=f05c3c61-9552-4ba0-8876-25d83afd95f0&projectId=a0a8f18c-a66e-4ba7-a170-23efbdc67501","CC041860171E430197E9EB831BB8CE34-2024-11-24-18-06-31","","null","","[]","null","",""
"","","","","","image-button-response","15","1813911","0.0-6.0-1.0-0.2","CC041860171E430197E9EB831BB8CE34","CC041860171E430197E9EB831BB8CE34","f05c3c61-9552-4ba0-8876-25d83afd95f0","a0a8f18c-a66e-4ba7-a170-23efbdc67501","{""participantId"":""CC041860171E430197E9EB831BB8CE34"",""assignmentId"":""f05c3c61-9552-4ba0-8876-25d83afd95f0"",""projectId"":""a0a8f18c-a66e-4ba7-a170-23efbdc67501""}","https://test12345.live/?participantId=CC041860171E430197E9EB831BB8CE34&assignmentId=f05c3c61-9552-4ba0-8876-25d83afd95f0&projectId=a0a8f18c-a66e-4ba7-a170-23efbdc67501","CC041860171E430197E9EB831BB8CE34-2024-11-24-18-06-31","","null","","images/instructions/movie_3.png","null","",""
"","","","","","image-button-response","16","1815619","0.0-6.0-1.0-1.2","CC041860171E430197E9EB831BB8CE34","CC041860171E430197E9EB831BB8CE34","f05c3c61-9552-4ba0-8876-25d83afd95f0","a0a8f18c-a66e-4ba7-a170-23efbdc67501","{""participantId"":""CC041860171E430197E9EB831BB8CE34"",""assignmentId"":""f05c3c61-9552-4ba0-8876-25d83afd95f0"",""projectId"":""a0a8f18c-a66e-4ba7-a170-23efbdc67501""}","https://test12345.live/?participantId=CC041860171E430197E9EB831BB8CE34&assignmentId=f05c3c61-9552-4ba0-8876-25d83afd95f0&projectId=a0a8f18c-a66e-4ba7-a170-23efbdc67501","CC041860171E430197E9EB831BB8CE34-2024-11-24-18-06-31","","1706","","images/instructions/movie_3.png","0","",""
"","","","","","image-button-response","17","1817426","0.0-6.0-1.0-2.2","CC041860171E430197E9EB831BB8CE34","CC041860171E430197E9EB831BB8CE34","f05c3c61-9552-4ba0-8876-25d83afd95f0","a0a8f18c-a66e-4ba7-a170-23efbdc67501","{""participantId"":""CC041860171E430197E9EB831BB8CE34"",""assignmentId"":""f05c3c61-9552-4ba0-8876-25d83afd95f0"",""projectId"":""a0a8f18c-a66e-4ba7-a170-23efbdc67501""}","https://test12345.live/?participantId=CC041860171E430197E9EB831BB8CE34&assignmentId=f05c3c61-9552-4ba0-8876-25d83afd95f0&projectId=a0a8f18c-a66e-4ba7-a170-23efbdc67501","CC041860171E430197E9EB831BB8CE34-2024-11-24-18-06-31","","null","","[]","null","",""
"","","","","","image-button-response","18","1821935","0.0-6.0-1.0-0.3","CC041860171E430197E9EB831BB8CE34","CC041860171E430197E9EB831BB8CE34","f05c3c61-9552-4ba0-8876-25d83afd95f0","a0a8f18c-a66e-4ba7-a170-23efbdc67501","{""participantId"":""CC041860171E430197E9EB831BB8CE34"",""assignmentId"":""f05c3c61-9552-4ba0-8876-25d83afd95f0"",""projectId"":""a0a8f18c-a66e-4ba7-a170-23efbdc67501""}","https://test12345.live/?participantId=CC041860171E430197E9EB831BB8CE34&assignmentId=f05c3c61-9552-4ba0-8876-25d83afd95f0&projectId=a0a8f18c-a66e-4ba7-a170-23efbdc67501","CC041860171E430197E9EB831BB8CE34-2024-11-24-18-06-31","","null","","images/instructions/movie_4.png","null","",""
"","","","","","image-button-response","19","1822765","0.0-6.0-1.0-1.3","CC041860171E430197E9EB831BB8CE34","CC041860171E430197E9EB831BB8CE34","f05c3c61-9552-4ba0-8876-25d83afd95f0","a0a8f18c-a66e-4ba7-a170-23efbdc67501","{""participantId"":""CC041860171E430197E9EB831BB8CE34"",""assignmentId"":""f05c3c61-9552-4ba0-8876-25d83afd95f0"",""projectId"":""a0a8f18c-a66e-4ba7-a170-23efbdc67501""}","https://test12345.live/?participantId=CC041860171E430197E9EB831BB8CE34&assignmentId=f05c3c61-9552-4ba0-8876-25d83afd95f0&projectId=a0a8f18c-a66e-4ba7-a170-23efbdc67501","CC041860171E430197E9EB831BB8CE34-2024-11-24-18-06-31","","828","","images/instructions/movie_4.png","0","",""
"","","","","","image-button-response","20","1824581","0.0-6.0-1.0-2.3","CC041860171E430197E9EB831BB8CE34","CC041860171E430197E9EB831BB8CE34","f05c3c61-9552-4ba0-8876-25d83afd95f0","a0a8f18c-a66e-4ba7-a170-23efbdc67501","{""participantId"":""CC041860171E430197E9EB831BB8CE34"",""assignmentId"":""f05c3c61-9552-4ba0-8876-25d83afd95f0"",""projectId"":""a0a8f18c-a66e-4ba7-a170-23efbdc67501""}","https://test12345.live/?participantId=CC041860171E430197E9EB831BB8CE34&assignmentId=f05c3c61-9552-4ba0-8876-25d83afd95f0&projectId=a0a8f18c-a66e-4ba7-a170-23efbdc67501","CC041860171E430197E9EB831BB8CE34-2024-11-24-18-06-31","","null","","[]","null","",""
"","","","","","instructions","21","1835942","0.0-7.0","CC041860171E430197E9EB831BB8CE34","CC041860171E430197E9EB831BB8CE34","f05c3c61-9552-4ba0-8876-25d83afd95f0","a0a8f18c-a66e-4ba7-a170-23efbdc67501","{""participantId"":""CC041860171E430197E9EB831BB8CE34"",""assignmentId"":""f05c3c61-9552-4ba0-8876-25d83afd95f0"",""projectId"":""a0a8f18c-a66e-4ba7-a170-23efbdc67501""}","https://test12345.live/?participantId=CC041860171E430197E9EB831BB8CE34&assignmentId=f05c3c61-9552-4ba0-8876-25d83afd95f0&projectId=a0a8f18c-a66e-4ba7-a170-23efbdc67501","CC041860171E430197E9EB831BB8CE34-2024-11-24-18-06-31","[{""page_index"":0,""viewing_time"":10178},{""page_index"":1,""viewing_time"":1183}]","11361","","","","",""
"","","","","","html-audio-response","22","1941919","0.0-8.0","CC041860171E430197E9EB831BB8CE34","CC041860171E430197E9EB831BB8CE34","f05c3c61-9552-4ba0-8876-25d83afd95f0","a0a8f18c-a66e-4ba7-a170-23efbdc67501","{""participantId"":""CC041860171E430197E9EB831BB8CE34"",""assignmentId"":""f05c3c61-9552-4ba0-8876-25d83afd95f0"",""projectId"":""a0a8f18c-a66e-4ba7-a170-23efbdc67501""}","https://test12345.live/?participantId=CC041860171E430197E9EB831BB8CE34&assignmentId=f05c3c61-9552-4ba0-8876-25d83afd95f0&projectId=a0a8f18c-a66e-4ba7-a170-23efbdc67501","CC041860171E430197E9EB831BB8CE34-2024-11-24-18-06-31","","19741","","[""<span style=\""color: red; font-size: 24px\""> NOW RECORDING</span><p>Please say out loud all the images you saw, as many as you can remember. The images can be said in any order.</p>""]","","14",""
"","","","","","instructions","23","1944302","0.0-9.0","CC041860171E430197E9EB831BB8CE34","CC041860171E430197E9EB831BB8CE34","f05c3c61-9552-4ba0-8876-25d83afd95f0","a0a8f18c-a66e-4ba7-a170-23efbdc67501","{""participantId"":""CC041860171E430197E9EB831BB8CE34"",""assignmentId"":""f05c3c61-9552-4ba0-8876-25d83afd95f0"",""projectId"":""a0a8f18c-a66e-4ba7-a170-23efbdc67501""}","https://test12345.live/?participantId=CC041860171E430197E9EB831BB8CE34&assignmentId=f05c3c61-9552-4ba0-8876-25d83afd95f0&projectId=a0a8f18c-a66e-4ba7-a170-23efbdc67501","CC041860171E430197E9EB831BB8CE34-2024-11-24-18-06-31","[{""page_index"":0,""viewing_time"":2378}]","2378","","","","",""
"","","","","","image-button-response","24","1950311","0.0-10.0-0.0","CC041860171E430197E9EB831BB8CE34","CC041860171E430197E9EB831BB8CE34","f05c3c61-9552-4ba0-8876-25d83afd95f0","a0a8f18c-a66e-4ba7-a170-23efbdc67501","{""participantId"":""CC041860171E430197E9EB831BB8CE34"",""assignmentId"":""f05c3c61-9552-4ba0-8876-25d83afd95f0"",""projectId"":""a0a8f18c-a66e-4ba7-a170-23efbdc67501""}","https://test12345.live/?participantId=CC041860171E430197E9EB831BB8CE34&assignmentId=f05c3c61-9552-4ba0-8876-25d83afd95f0&projectId=a0a8f18c-a66e-4ba7-a170-23efbdc67501","CC041860171E430197E9EB831BB8CE34-2024-11-24-18-06-31","","null","","images/causal_sequence/museum_causal/museum_causal_0.png","null","",""
"","","","","","image-button-response","25","1954824","0.0-10.0-1.0-0.0","CC041860171E430197E9EB831BB8CE34","CC041860171E430197E9EB831BB8CE34","f05c3c61-9552-4ba0-8876-25d83afd95f0","a0a8f18c-a66e-4ba7-a170-23efbdc67501","{""participantId"":""CC041860171E430197E9EB831BB8CE34"",""assignmentId"":""f05c3c61-9552-4ba0-8876-25d83afd95f0"",""projectId"":""a0a8f18c-a66e-4ba7-a170-23efbdc67501""}","https://test12345.live/?participantId=CC041860171E430197E9EB831BB8CE34&assignmentId=f05c3c61-9552-4ba0-8876-25d83afd95f0&projectId=a0a8f18c-a66e-4ba7-a170-23efbdc67501","CC041860171E430197E9EB831BB8CE34-2024-11-24-18-06-31","","null","","images/causal_sequence/museum_causal/museum_causal_7.png","null","",""
"","","","","","image-button-response","26","1956382","0.0-10.0-1.0-1.0","CC041860171E430197E9EB831BB8CE34","CC041860171E430197E9EB831BB8CE34","f05c3c61-9552-4ba0-8876-25d83afd95f0","a0a8f18c-a66e-4ba7-a170-23efbdc67501","{""participantId"":""CC041860171E430197E9EB831BB8CE34"",""assignmentId"":""f05c3c61-9552-4ba0-8876-25d83afd95f0"",""projectId"":""a0a8f18c-a66e-4ba7-a170-23efbdc67501""}","https://test12345.live/?participantId=CC041860171E430197E9EB831BB8CE34&assignmentId=f05c3c61-9552-4ba0-8876-25d83afd95f0&projectId=a0a8f18c-a66e-4ba7-a170-23efbdc67501","CC041860171E430197E9EB831BB8CE34-2024-11-24-18-06-31","","1557","","images/causal_sequence/museum_causal/museum_causal_7.png","1","",""
"","","","","","image-button-response","27","1958183","0.0-10.0-1.0-2.0","CC041860171E430197E9EB831BB8CE34","CC041860171E430197E9EB831BB8CE34","f05c3c61-9552-4ba0-8876-25d83afd95f0","a0a8f18c-a66e-4ba7-a170-23efbdc67501","{""participantId"":""CC041860171E430197E9EB831BB8CE34"",""assignmentId"":""f05c3c61-9552-4ba0-8876-25d83afd95f0"",""projectId"":""a0a8f18c-a66e-4ba7-a170-23efbdc67501""}","https://test12345.live/?participantId=CC041860171E430197E9EB831BB8CE34&assignmentId=f05c3c61-9552-4ba0-8876-25d83afd95f0&projectId=a0a8f18c-a66e-4ba7-a170-23efbdc67501","CC041860171E430197E9EB831BB8CE34-2024-11-24-18-06-31","","null","","[]","null","",""
"","","","","","image-button-response","28","1962684","0.0-10.0-1.0-0.1","CC041860171E430197E9EB831BB8CE34","CC041860171E430197E9EB831BB8CE34","f05c3c61-9552-4ba0-8876-25d83afd95f0","a0a8f18c-a66e-4ba7-a170-23efbdc67501","{""participantId"":""CC041860171E430197E9EB831BB8CE34"",""assignmentId"":""f05c3c61-9552-4ba0-8876-25d83afd95f0"",""projectId"":""a0a8f18c-a66e-4ba7-a170-23efbdc67501""}","https://test12345.live/?participantId=CC041860171E430197E9EB831BB8CE34&assignmentId=f05c3c61-9552-4ba0-8876-25d83afd95f0&projectId=a0a8f18c-a66e-4ba7-a170-23efbdc67501","CC041860171E430197E9EB831BB8CE34-2024-11-24-18-06-31","","null","","images/causal_sequence/museum_causal/museum_causal_9.png","null","",""
"","","","","","image-button-response","29","1965271","0.0-10.0-1.0-1.1","CC041860171E430197E9EB831BB8CE34","CC041860171E430197E9EB831BB8CE34","f05c3c61-9552-4ba0-8876-25d83afd95f0","a0a8f18c-a66e-4ba7-a170-23efbdc67501","{""participantId"":""CC041860171E430197E9EB831BB8CE34"",""assignmentId"":""f05c3c61-9552-4ba0-8876-25d83afd95f0"",""projectId"":""a0a8f18c-a66e-4ba7-a170-23efbdc67501""}","https://test12345.live/?participantId=CC041860171E430197E9EB831BB8CE34&assignmentId=f05c3c61-9552-4ba0-8876-25d83afd95f0&projectId=a0a8f18c-a66e-4ba7-a170-23efbdc67501","CC041860171E430197E9EB831BB8CE34-2024-11-24-18-06-31","","2585","","images/causal_sequence/museum_causal/museum_causal_9.png","1","",""
"","","","","","image-button-response","30","1967073","0.0-10.0-1.0-2.1","CC041860171E430197E9EB831BB8CE34","CC041860171E430197E9EB831BB8CE34","f05c3c61-9552-4ba0-8876-25d83afd95f0","a0a8f18c-a66e-4ba7-a170-23efbdc67501","{""participantId"":""CC041860171E430197E9EB831BB8CE34"",""assignmentId"":""f05c3c61-9552-4ba0-8876-25d83afd95f0"",""projectId"":""a0a8f18c-a66e-4ba7-a170-23efbdc67501""}","https://test12345.live/?participantId=CC041860171E430197E9EB831BB8CE34&assignmentId=f05c3c61-9552-4ba0-8876-25d83afd95f0&projectId=a0a8f18c-a66e-4ba7-a170-23efbdc67501","CC041860171E430197E9EB831BB8CE34-2024-11-24-18-06-31","","null","","[]","null","",""
"","","","","","image-button-response","31","1971578","0.0-10.0-1.0-0.2","CC041860171E430197E9EB831BB8CE34","CC041860171E430197E9EB831BB8CE34","f05c3c61-9552-4ba0-8876-25d83afd95f0","a0a8f18c-a66e-4ba7-a170-23efbdc67501","{""participantId"":""CC041860171E430197E9EB831BB8CE34"",""assignmentId"":""f05c3c61-9552-4ba0-8876-25d83afd95f0"",""projectId"":""a0a8f18c-a66e-4ba7-a170-23efbdc67501""}","https://test12345.live/?participantId=CC041860171E430197E9EB831BB8CE34&assignmentId=f05c3c61-9552-4ba0-8876-25d83afd95f0&projectId=a0a8f18c-a66e-4ba7-a170-23efbdc67501","CC041860171E430197E9EB831BB8CE34-2024-11-24-18-06-31","","null","","images/causal_sequence/museum_causal/museum_causal_4.png","null","",""
"","","","","","image-button-response","32","1972853","0.0-10.0-1.0-1.2","CC041860171E430197E9EB831BB8CE34","CC041860171E430197E9EB831BB8CE34","f05c3c61-9552-4ba0-8876-25d83afd95f0","a0a8f18c-a66e-4ba7-a170-23efbdc67501","{""participantId"":""CC041860171E430197E9EB831BB8CE34"",""assignmentId"":""f05c3c61-9552-4ba0-8876-25d83afd95f0"",""projectId"":""a0a8f18c-a66e-4ba7-a170-23efbdc67501""}","https://test12345.live/?participantId=CC041860171E430197E9EB831BB8CE34&assignmentId=f05c3c61-9552-4ba0-8876-25d83afd95f0&projectId=a0a8f18c-a66e-4ba7-a170-23efbdc67501","CC041860171E430197E9EB831BB8CE34-2024-11-24-18-06-31","","1275","","images/causal_sequence/museum_causal/museum_causal_4.png","1","",""
"","","","","","image-button-response","33","1974657","0.0-10.0-1.0-2.2","CC041860171E430197E9EB831BB8CE34","CC041860171E430197E9EB831BB8CE34","f05c3c61-9552-4ba0-8876-25d83afd95f0","a0a8f18c-a66e-4ba7-a170-23efbdc67501","{""participantId"":""CC041860171E430197E9EB831BB8CE34"",""assignmentId"":""f05c3c61-9552-4ba0-8876-25d83afd95f0"",""projectId"":""a0a8f18c-a66e-4ba7-a170-23efbdc67501""}","https://test12345.live/?participantId=CC041860171E430197E9EB831BB8CE34&assignmentId=f05c3c61-9552-4ba0-8876-25d83afd95f0&projectId=a0a8f18c-a66e-4ba7-a170-23efbdc67501","CC041860171E430197E9EB831BB8CE34-2024-11-24-18-06-31","","null","","[]","null","",""
"","","","","","image-button-response","34","1979158","0.0-10.0-1.0-0.3","CC041860171E430197E9EB831BB8CE34","CC041860171E430197E9EB831BB8CE34","f05c3c61-9552-4ba0-8876-25d83afd95f0","a0a8f18c-a66e-4ba7-a170-23efbdc67501","{""participantId"":""CC041860171E430197E9EB831BB8CE34"",""assignmentId"":""f05c3c61-9552-4ba0-8876-25d83afd95f0"",""projectId"":""a0a8f18c-a66e-4ba7-a170-23efbdc67501""}","https://test12345.live/?participantId=CC041860171E430197E9EB831BB8CE34&assignmentId=f05c3c61-9552-4ba0-8876-25d83afd95f0&projectId=a0a8f18c-a66e-4ba7-a170-23efbdc67501","CC041860171E430197E9EB831BB8CE34-2024-11-24-18-06-31","","null","","images/causal_sequence/museum_causal/museum_causal_6.png","null","",""
"","","","","","image-button-response","35","1980025","0.0-10.0-1.0-1.3","CC041860171E430197E9EB831BB8CE34","CC041860171E430197E9EB831BB8CE34","f05c3c61-9552-4ba0-8876-25d83afd95f0","a0a8f18c-a66e-4ba7-a170-23efbdc67501","{""participantId"":""CC041860171E430197E9EB831BB8CE34"",""assignmentId"":""f05c3c61-9552-4ba0-8876-25d83afd95f0"",""projectId"":""a0a8f18c-a66e-4ba7-a170-23efbdc67501""}","https://test12345.live/?participantId=CC041860171E430197E9EB831BB8CE34&assignmentId=f05c3c61-9552-4ba0-8876-25d83afd95f0&projectId=a0a8f18c-a66e-4ba7-a170-23efbdc67501","CC041860171E430197E9EB831BB8CE34-2024-11-24-18-06-31","","866","","images/causal_sequence/museum_causal/museum_causal_6.png","0","",""
"","","","","","image-button-response","36","1981832","0.0-10.0-1.0-2.3","CC041860171E430197E9EB831BB8CE34","CC041860171E430197E9EB831BB8CE34","f05c3c61-9552-4ba0-8876-25d83afd95f0","a0a8f18c-a66e-4ba7-a170-23efbdc67501","{""participantId"":""CC041860171E430197E9EB831BB8CE34"",""assignmentId"":""f05c3c61-9552-4ba0-8876-25d83afd95f0"",""projectId"":""a0a8f18c-a66e-4ba7-a170-23efbdc67501""}","https://test12345.live/?participantId=CC041860171E430197E9EB831BB8CE34&assignmentId=f05c3c61-9552-4ba0-8876-25d83afd95f0&projectId=a0a8f18c-a66e-4ba7-a170-23efbdc67501","CC041860171E430197E9EB831BB8CE34-2024-11-24-18-06-31","","null","","[]","null","",""
"","","","","","image-button-response","37","1986334","0.0-10.0-1.0-0.4","CC041860171E430197E9EB831BB8CE34","CC041860171E430197E9EB831BB8CE34","f05c3c61-9552-4ba0-8876-25d83afd95f0","a0a8f18c-a66e-4ba7-a170-23efbdc67501","{""participantId"":""CC041860171E430197E9EB831BB8CE34"",""assignmentId"":""f05c3c61-9552-4ba0-8876-25d83afd95f0"",""projectId"":""a0a8f18c-a66e-4ba7-a170-23efbdc67501""}","https://test12345.live/?participantId=CC041860171E430197E9EB831BB8CE34&assignmentId=f05c3c61-9552-4ba0-8876-25d83afd95f0&projectId=a0a8f18c-a66e-4ba7-a170-23efbdc67501","CC041860171E430197E9EB831BB8CE34-2024-11-24-18-06-31","","null","","images/causal_sequence/museum_causal/museum_causal_5.png","null","",""
"","","","","","image-button-response","38","1987263","0.0-10.0-1.0-1.4","CC041860171E430197E9EB831BB8CE34","CC041860171E430197E9EB831BB8CE34","f05c3c61-9552-4ba0-8876-25d83afd95f0","a0a8f18c-a66e-4ba7-a170-23efbdc67501","{""participantId"":""CC041860171E430197E9EB831BB8CE34"",""assignmentId"":""f05c3c61-9552-4ba0-8876-25d83afd95f0"",""projectId"":""a0a8f18c-a66e-4ba7-a170-23efbdc67501""}","https://test12345.live/?participantId=CC041860171E430197E9EB831BB8CE34&assignmentId=f05c3c61-9552-4ba0-8876-25d83afd95f0&projectId=a0a8f18c-a66e-4ba7-a170-23efbdc67501","CC041860171E430197E9EB831BB8CE34-2024-11-24-18-06-31","","928","","images/causal_sequence/museum_causal/museum_causal_5.png","0","",""
"","","","","","image-button-response","39","1989064","0.0-10.0-1.0-2.4","CC041860171E430197E9EB831BB8CE34","CC041860171E430197E9EB831BB8CE34","f05c3c61-9552-4ba0-8876-25d83afd95f0","a0a8f18c-a66e-4ba7-a170-23efbdc67501","{""participantId"":""CC041860171E430197E9EB831BB8CE34"",""assignmentId"":""f05c3c61-9552-4ba0-8876-25d83afd95f0"",""projectId"":""a0a8f18c-a66e-4ba7-a170-23efbdc67501""}","https://test12345.live/?participantId=CC041860171E430197E9EB831BB8CE34&assignmentId=f05c3c61-9552-4ba0-8876-25d83afd95f0&projectId=a0a8f18c-a66e-4ba7-a170-23efbdc67501","CC041860171E430197E9EB831BB8CE34-2024-11-24-18-06-31","","null","","[]","null","",""
"","","","","","image-button-response","40","1993565","0.0-10.0-1.0-0.5","CC041860171E430197E9EB831BB8CE34","CC041860171E430197E9EB831BB8CE34","f05c3c61-9552-4ba0-8876-25d83afd95f0","a0a8f18c-a66e-4ba7-a170-23efbdc67501","{""participantId"":""CC041860171E430197E9EB831BB8CE34"",""assignmentId"":""f05c3c61-9552-4ba0-8876-25d83afd95f0"",""projectId"":""a0a8f18c-a66e-4ba7-a170-23efbdc67501""}","https://test12345.live/?participantId=CC041860171E430197E9EB831BB8CE34&assignmentId=f05c3c61-9552-4ba0-8876-25d83afd95f0&projectId=a0a8f18c-a66e-4ba7-a170-23efbdc67501","CC041860171E430197E9EB831BB8CE34-2024-11-24-18-06-31","","null","","images/causal_sequence/museum_causal/museum_causal_8.png","null","",""
"","","","","","image-button-response","41","1994823","0.0-10.0-1.0-1.5","CC041860171E430197E9EB831BB8CE34","CC041860171E430197E9EB831BB8CE34","f05c3c61-9552-4ba0-8876-25d83afd95f0","a0a8f18c-a66e-4ba7-a170-23efbdc67501","{""participantId"":""CC041860171E430197E9EB831BB8CE34"",""assignmentId"":""f05c3c61-9552-4ba0-8876-25d83afd95f0"",""projectId"":""a0a8f18c-a66e-4ba7-a170-23efbdc67501""}","https://test12345.live/?participantId=CC041860171E430197E9EB831BB8CE34&assignmentId=f05c3c61-9552-4ba0-8876-25d83afd95f0&projectId=a0a8f18c-a66e-4ba7-a170-23efbdc67501","CC041860171E430197E9EB831BB8CE34-2024-11-24-18-06-31","","1257","","images/causal_sequence/museum_causal/museum_causal_8.png","0","",""
"","","","","","image-button-response","42","1996630","0.0-10.0-1.0-2.5","CC041860171E430197E9EB831BB8CE34","CC041860171E430197E9EB831BB8CE34","f05c3c61-9552-4ba0-8876-25d83afd95f0","a0a8f18c-a66e-4ba7-a170-23efbdc67501","{""participantId"":""CC041860171E430197E9EB831BB8CE34"",""assignmentId"":""f05c3c61-9552-4ba0-8876-25d83afd95f0"",""projectId"":""a0a8f18c-a66e-4ba7-a170-23efbdc67501""}","https://test12345.live/?participantId=CC041860171E430197E9EB831BB8CE34&assignmentId=f05c3c61-9552-4ba0-8876-25d83afd95f0&projectId=a0a8f18c-a66e-4ba7-a170-23efbdc67501","CC041860171E430197E9EB831BB8CE34-2024-11-24-18-06-31","","null","","[]","null","",""
"","","","","","image-button-response","43","2001138","0.0-10.0-1.0-0.6","CC041860171E430197E9EB831BB8CE34","CC041860171E430197E9EB831BB8CE34","f05c3c61-9552-4ba0-8876-25d83afd95f0","a0a8f18c-a66e-4ba7-a170-23efbdc67501","{""participantId"":""CC041860171E430197E9EB831BB8CE34"",""assignmentId"":""f05c3c61-9552-4ba0-8876-25d83afd95f0"",""projectId"":""a0a8f18c-a66e-4ba7-a170-23efbdc67501""}","https://test12345.live/?participantId=CC041860171E430197E9EB831BB8CE34&assignmentId=f05c3c61-9552-4ba0-8876-25d83afd95f0&projectId=a0a8f18c-a66e-4ba7-a170-23efbdc67501","CC041860171E430197E9EB831BB8CE34-2024-11-24-18-06-31","","null","","images/causal_sequence/museum_causal/museum_causal_1.png","null","",""
"","","","","","image-button-response","44","2003257","0.0-10.0-1.0-1.6","CC041860171E430197E9EB831BB8CE34","CC041860171E430197E9EB831BB8CE34","f05c3c61-9552-4ba0-8876-25d83afd95f0","a0a8f18c-a66e-4ba7-a170-23efbdc67501","{""participantId"":""CC041860171E430197E9EB831BB8CE34"",""assignmentId"":""f05c3c61-9552-4ba0-8876-25d83afd95f0"",""projectId"":""a0a8f18c-a66e-4ba7-a170-23efbdc67501""}","https://test12345.live/?participantId=CC041860171E430197E9EB831BB8CE34&assignmentId=f05c3c61-9552-4ba0-8876-25d83afd95f0&projectId=a0a8f18c-a66e-4ba7-a170-23efbdc67501","CC041860171E430197E9EB831BB8CE34-2024-11-24-18-06-31","","2118","","images/causal_sequence/museum_causal/museum_causal_1.png","0","",""
"","","","","","image-button-response","45","2005066","0.0-10.0-1.0-2.6","CC041860171E430197E9EB831BB8CE34","CC041860171E430197E9EB831BB8CE34","f05c3c61-9552-4ba0-8876-25d83afd95f0","a0a8f18c-a66e-4ba7-a170-23efbdc67501","{""participantId"":""CC041860171E430197E9EB831BB8CE34"",""assignmentId"":""f05c3c61-9552-4ba0-8876-25d83afd95f0"",""projectId"":""a0a8f18c-a66e-4ba7-a170-23efbdc67501""}","https://test12345.live/?participantId=CC041860171E430197E9EB831BB8CE34&assignmentId=f05c3c61-9552-4ba0-8876-25d83afd95f0&projectId=a0a8f18c-a66e-4ba7-a170-23efbdc67501","CC041860171E430197E9EB831BB8CE34-2024-11-24-18-06-31","","null","","[]","null","",""
"","","","","","image-button-response","46","2009569","0.0-10.0-1.0-0.7","CC041860171E430197E9EB831BB8CE34","CC041860171E430197E9EB831BB8CE34","f05c3c61-9552-4ba0-8876-25d83afd95f0","a0a8f18c-a66e-4ba7-a170-23efbdc67501","{""participantId"":""CC041860171E430197E9EB831BB8CE34"",""assignmentId"":""f05c3c61-9552-4ba0-8876-25d83afd95f0"",""projectId"":""a0a8f18c-a66e-4ba7-a170-23efbdc67501""}","https://test12345.live/?participantId=CC041860171E430197E9EB831BB8CE34&assignmentId=f05c3c61-9552-4ba0-8876-25d83afd95f0&projectId=a0a8f18c-a66e-4ba7-a170-23efbdc67501","CC041860171E430197E9EB831BB8CE34-2024-11-24-18-06-31","","null","","images/causal_sequence/museum_causal/museum_causal_ten.png","null","",""
"","","","","","image-button-response","47","2011027","0.0-10.0-1.0-1.7","CC041860171E430197E9EB831BB8CE34","CC041860171E430197E9EB831BB8CE34","f05c3c61-9552-4ba0-8876-25d83afd95f0","a0a8f18c-a66e-4ba7-a170-23efbdc67501","{""participantId"":""CC041860171E430197E9EB831BB8CE34"",""assignmentId"":""f05c3c61-9552-4ba0-8876-25d83afd95f0"",""projectId"":""a0a8f18c-a66e-4ba7-a170-23efbdc67501""}","https://test12345.live/?participantId=CC041860171E430197E9EB831BB8CE34&assignmentId=f05c3c61-9552-4ba0-8876-25d83afd95f0&projectId=a0a8f18c-a66e-4ba7-a170-23efbdc67501","CC041860171E430197E9EB831BB8CE34-2024-11-24-18-06-31","","1458","","images/causal_sequence/museum_causal/museum_causal_ten.png","0","",""
"","","","","","image-button-response","48","2012834","0.0-10.0-1.0-2.7","CC041860171E430197E9EB831BB8CE34","CC041860171E430197E9EB831BB8CE34","f05c3c61-9552-4ba0-8876-25d83afd95f0","a0a8f18c-a66e-4ba7-a170-23efbdc67501","{""participantId"":""CC041860171E430197E9EB831BB8CE34"",""assignmentId"":""f05c3c61-9552-4ba0-8876-25d83afd95f0"",""projectId"":""a0a8f18c-a66e-4ba7-a170-23efbdc67501""}","https://test12345.live/?participantId=CC041860171E430197E9EB831BB8CE34&assignmentId=f05c3c61-9552-4ba0-8876-25d83afd95f0&projectId=a0a8f18c-a66e-4ba7-a170-23efbdc67501","CC041860171E430197E9EB831BB8CE34-2024-11-24-18-06-31","","null","","[]","null","",""
"","","","","","image-button-response","49","2017340","0.0-10.0-1.0-0.8","CC041860171E430197E9EB831BB8CE34","CC041860171E430197E9EB831BB8CE34","f05c3c61-9552-4ba0-8876-25d83afd95f0","a0a8f18c-a66e-4ba7-a170-23efbdc67501","{""participantId"":""CC041860171E430197E9EB831BB8CE34"",""assignmentId"":""f05c3c61-9552-4ba0-8876-25d83afd95f0"",""projectId"":""a0a8f18c-a66e-4ba7-a170-23efbdc67501""}","https://test12345.live/?participantId=CC041860171E430197E9EB831BB8CE34&assignmentId=f05c3c61-9552-4ba0-8876-25d83afd95f0&projectId=a0a8f18c-a66e-4ba7-a170-23efbdc67501","CC041860171E430197E9EB831BB8CE34-2024-11-24-18-06-31","","null","","images/causal_sequence/museum_causal/museum_causal_2.png","null","",""
"","","","","","image-button-response","50","2018606","0.0-10.0-1.0-1.8","CC041860171E430197E9EB831BB8CE34","CC041860171E430197E9EB831BB8CE34","f05c3c61-9552-4ba0-8876-25d83afd95f0","a0a8f18c-a66e-4ba7-a170-23efbdc67501","{""participantId"":""CC041860171E430197E9EB831BB8CE34"",""assignmentId"":""f05c3c61-9552-4ba0-8876-25d83afd95f0"",""projectId"":""a0a8f18c-a66e-4ba7-a170-23efbdc67501""}","https://test12345.live/?participantId=CC041860171E430197E9EB831BB8CE34&assignmentId=f05c3c61-9552-4ba0-8876-25d83afd95f0&projectId=a0a8f18c-a66e-4ba7-a170-23efbdc67501","CC041860171E430197E9EB831BB8CE34-2024-11-24-18-06-31","","1265","","images/causal_sequence/museum_causal/museum_causal_2.png","0","",""
"","","","","","image-button-response","51","2020416","0.0-10.0-1.0-2.8","CC041860171E430197E9EB831BB8CE34","CC041860171E430197E9EB831BB8CE34","f05c3c61-9552-4ba0-8876-25d83afd95f0","a0a8f18c-a66e-4ba7-a170-23efbdc67501","{""participantId"":""CC041860171E430197E9EB831BB8CE34"",""assignmentId"":""f05c3c61-9552-4ba0-8876-25d83afd95f0"",""projectId"":""a0a8f18c-a66e-4ba7-a170-23efbdc67501""}","https://test12345.live/?participantId=CC041860171E430197E9EB831BB8CE34&assignmentId=f05c3c61-9552-4ba0-8876-25d83afd95f0&projectId=a0a8f18c-a66e-4ba7-a170-23efbdc67501","CC041860171E430197E9EB831BB8CE34-2024-11-24-18-06-31","","null","","[]","null","",""
"","","","","","image-button-response","52","2024926","0.0-10.0-1.0-0.9","CC041860171E430197E9EB831BB8CE34","CC041860171E430197E9EB831BB8CE34","f05c3c61-9552-4ba0-8876-25d83afd95f0","a0a8f18c-a66e-4ba7-a170-23efbdc67501","{""participantId"":""CC041860171E430197E9EB831BB8CE34"",""assignmentId"":""f05c3c61-9552-4ba0-8876-25d83afd95f0"",""projectId"":""a0a8f18c-a66e-4ba7-a170-23efbdc67501""}","https://test12345.live/?participantId=CC041860171E430197E9EB831BB8CE34&assignmentId=f05c3c61-9552-4ba0-8876-25d83afd95f0&projectId=a0a8f18c-a66e-4ba7-a170-23efbdc67501","CC041860171E430197E9EB831BB8CE34-2024-11-24-18-06-31","","null","","images/causal_sequence/museum_causal/museum_causal_3.png","null","",""
"","","","","","image-button-response","53","2027613","0.0-10.0-1.0-1.9","CC041860171E430197E9EB831BB8CE34","CC041860171E430197E9EB831BB8CE34","f05c3c61-9552-4ba0-8876-25d83afd95f0","a0a8f18c-a66e-4ba7-a170-23efbdc67501","{""participantId"":""CC041860171E430197E9EB831BB8CE34"",""assignmentId"":""f05c3c61-9552-4ba0-8876-25d83afd95f0"",""projectId"":""a0a8f18c-a66e-4ba7-a170-23efbdc67501""}","https://test12345.live/?participantId=CC041860171E430197E9EB831BB8CE34&assignmentId=f05c3c61-9552-4ba0-8876-25d83afd95f0&projectId=a0a8f18c-a66e-4ba7-a170-23efbdc67501","CC041860171E430197E9EB831BB8CE34-2024-11-24-18-06-31","","2685","","images/causal_sequence/museum_causal/museum_causal_3.png","0","",""
"","","","","","image-button-response","54","2029416","0.0-10.0-1.0-2.9","CC041860171E430197E9EB831BB8CE34","CC041860171E430197E9EB831BB8CE34","f05c3c61-9552-4ba0-8876-25d83afd95f0","a0a8f18c-a66e-4ba7-a170-23efbdc67501","{""participantId"":""CC041860171E430197E9EB831BB8CE34"",""assignmentId"":""f05c3c61-9552-4ba0-8876-25d83afd95f0"",""projectId"":""a0a8f18c-a66e-4ba7-a170-23efbdc67501""}","https://test12345.live/?participantId=CC041860171E430197E9EB831BB8CE34&assignmentId=f05c3c61-9552-4ba0-8876-25d83afd95f0&projectId=a0a8f18c-a66e-4ba7-a170-23efbdc67501","CC041860171E430197E9EB831BB8CE34-2024-11-24-18-06-31","","null","","[]","null","",""
"","","","","","html-audio-response","55","2053398","0.0-11.0","CC041860171E430197E9EB831BB8CE34","CC041860171E430197E9EB831BB8CE34","f05c3c61-9552-4ba0-8876-25d83afd95f0","a0a8f18c-a66e-4ba7-a170-23efbdc67501","{""participantId"":""CC041860171E430197E9EB831BB8CE34"",""assignmentId"":""f05c3c61-9552-4ba0-8876-25d83afd95f0"",""projectId"":""a0a8f18c-a66e-4ba7-a170-23efbdc67501""}","https://test12345.live/?participantId=CC041860171E430197E9EB831BB8CE34&assignmentId=f05c3c61-9552-4ba0-8876-25d83afd95f0&projectId=a0a8f18c-a66e-4ba7-a170-23efbdc67501","CC041860171E430197E9EB831BB8CE34-2024-11-24-18-06-31","","22413","","[""<span style=\""color: red; font-size: 24px\""> NOW RECORDING</span><p>Please say out loud all the images you saw, as many as you can remember. The images can be said in any order.</p>""]","","2","museum_causal"
"","","","","","image-button-response","56","2059416","0.0-12.0-0.0","CC041860171E430197E9EB831BB8CE34","CC041860171E430197E9EB831BB8CE34","f05c3c61-9552-4ba0-8876-25d83afd95f0","a0a8f18c-a66e-4ba7-a170-23efbdc67501","{""participantId"":""CC041860171E430197E9EB831BB8CE34"",""assignmentId"":""f05c3c61-9552-4ba0-8876-25d83afd95f0"",""projectId"":""a0a8f18c-a66e-4ba7-a170-23efbdc67501""}","https://test12345.live/?participantId=CC041860171E430197E9EB831BB8CE34&assignmentId=f05c3c61-9552-4ba0-8876-25d83afd95f0&projectId=a0a8f18c-a66e-4ba7-a170-23efbdc67501","CC041860171E430197E9EB831BB8CE34-2024-11-24-18-06-31","","null","","images/schematic_sequence/restaurant_scheme/restaurant_scheme_0.png","null","",""
"","","","","","image-button-response","57","2063919","0.0-12.0-1.0-0.0","CC041860171E430197E9EB831BB8CE34","CC041860171E430197E9EB831BB8CE34","f05c3c61-9552-4ba0-8876-25d83afd95f0","a0a8f18c-a66e-4ba7-a170-23efbdc67501","{""participantId"":""CC041860171E430197E9EB831BB8CE34"",""assignmentId"":""f05c3c61-9552-4ba0-8876-25d83afd95f0"",""projectId"":""a0a8f18c-a66e-4ba7-a170-23efbdc67501""}","https://test12345.live/?participantId=CC041860171E430197E9EB831BB8CE34&assignmentId=f05c3c61-9552-4ba0-8876-25d83afd95f0&projectId=a0a8f18c-a66e-4ba7-a170-23efbdc67501","CC041860171E430197E9EB831BB8CE34-2024-11-24-18-06-31","","null","","images/schematic_sequence/restaurant_scheme/restaurant_scheme_1.png","null","",""
"","","","","","image-button-response","58","2067927","0.0-12.0-1.0-1.0","CC041860171E430197E9EB831BB8CE34","CC041860171E430197E9EB831BB8CE34","f05c3c61-9552-4ba0-8876-25d83afd95f0","a0a8f18c-a66e-4ba7-a170-23efbdc67501","{""participantId"":""CC041860171E430197E9EB831BB8CE34"",""assignmentId"":""f05c3c61-9552-4ba0-8876-25d83afd95f0"",""projectId"":""a0a8f18c-a66e-4ba7-a170-23efbdc67501""}","https://test12345.live/?participantId=CC041860171E430197E9EB831BB8CE34&assignmentId=f05c3c61-9552-4ba0-8876-25d83afd95f0&projectId=a0a8f18c-a66e-4ba7-a170-23efbdc67501","CC041860171E430197E9EB831BB8CE34-2024-11-24-18-06-31","","null","","images/schematic_sequence/restaurant_scheme/restaurant_scheme_1.png","null","",""
"","","","","","image-button-response","59","2069740","0.0-12.0-1.0-2.0","CC041860171E430197E9EB831BB8CE34","CC041860171E430197E9EB831BB8CE34","f05c3c61-9552-4ba0-8876-25d83afd95f0","a0a8f18c-a66e-4ba7-a170-23efbdc67501","{""participantId"":""CC041860171E430197E9EB831BB8CE34"",""assignmentId"":""f05c3c61-9552-4ba0-8876-25d83afd95f0"",""projectId"":""a0a8f18c-a66e-4ba7-a170-23efbdc67501""}","https://test12345.live/?participantId=CC041860171E430197E9EB831BB8CE34&assignmentId=f05c3c61-9552-4ba0-8876-25d83afd95f0&projectId=a0a8f18c-a66e-4ba7-a170-23efbdc67501","CC041860171E430197E9EB831BB8CE34-2024-11-24-18-06-31","","null","","[]","null","",""
"","","","","","image-button-response","60","2074243","0.0-12.0-1.0-0.1","CC041860171E430197E9EB831BB8CE34","CC041860171E430197E9EB831BB8CE34","f05c3c61-9552-4ba0-8876-25d83afd95f0","a0a8f18c-a66e-4ba7-a170-23efbdc67501","{""participantId"":""CC041860171E430197E9EB831BB8CE34"",""assignmentId"":""f05c3c61-9552-4ba0-8876-25d83afd95f0"",""projectId"":""a0a8f18c-a66e-4ba7-a170-23efbdc67501""}","https://test12345.live/?participantId=CC041860171E430197E9EB831BB8CE34&assignmentId=f05c3c61-9552-4ba0-8876-25d83afd95f0&projectId=a0a8f18c-a66e-4ba7-a170-23efbdc67501","CC041860171E430197E9EB831BB8CE34-2024-11-24-18-06-31","","null","","images/schematic_sequence/restaurant_scheme/restaurant_scheme_2.png","null","",""
"","","","","","image-button-response","61","2076396","0.0-12.0-1.0-1.1","CC041860171E430197E9EB831BB8CE34","CC041860171E430197E9EB831BB8CE34","f05c3c61-9552-4ba0-8876-25d83afd95f0","a0a8f18c-a66e-4ba7-a170-23efbdc67501","{""participantId"":""CC041860171E430197E9EB831BB8CE34"",""assignmentId"":""f05c3c61-9552-4ba0-8876-25d83afd95f0"",""projectId"":""a0a8f18c-a66e-4ba7-a170-23efbdc67501""}","https://test12345.live/?participantId=CC041860171E430197E9EB831BB8CE34&assignmentId=f05c3c61-9552-4ba0-8876-25d83afd95f0&projectId=a0a8f18c-a66e-4ba7-a170-23efbdc67501","CC041860171E430197E9EB831BB8CE34-2024-11-24-18-06-31","","2152","","images/schematic_sequence/restaurant_scheme/restaurant_scheme_2.png","1","",""
"","","","","","image-button-response","62","2078202","0.0-12.0-1.0-2.1","CC041860171E430197E9EB831BB8CE34","CC041860171E430197E9EB831BB8CE34","f05c3c61-9552-4ba0-8876-25d83afd95f0","a0a8f18c-a66e-4ba7-a170-23efbdc67501","{""participantId"":""CC041860171E430197E9EB831BB8CE34"",""assignmentId"":""f05c3c61-9552-4ba0-8876-25d83afd95f0"",""projectId"":""a0a8f18c-a66e-4ba7-a170-23efbdc67501""}","https://test12345.live/?participantId=CC041860171E430197E9EB831BB8CE34&assignmentId=f05c3c61-9552-4ba0-8876-25d83afd95f0&projectId=a0a8f18c-a66e-4ba7-a170-23efbdc67501","CC041860171E430197E9EB831BB8CE34-2024-11-24-18-06-31","","null","","[]","null","",""
"","","","","","image-button-response","63","2082717","0.0-12.0-1.0-0.2","CC041860171E430197E9EB831BB8CE34","CC041860171E430197E9EB831BB8CE34","f05c3c61-9552-4ba0-8876-25d83afd95f0","a0a8f18c-a66e-4ba7-a170-23efbdc67501","{""participantId"":""CC041860171E430197E9EB831BB8CE34"",""assignmentId"":""f05c3c61-9552-4ba0-8876-25d83afd95f0"",""projectId"":""a0a8f18c-a66e-4ba7-a170-23efbdc67501""}","https://test12345.live/?participantId=CC041860171E430197E9EB831BB8CE34&assignmentId=f05c3c61-9552-4ba0-8876-25d83afd95f0&projectId=a0a8f18c-a66e-4ba7-a170-23efbdc67501","CC041860171E430197E9EB831BB8CE34-2024-11-24-18-06-31","","null","","images/schematic_sequence/restaurant_scheme/restaurant_scheme_3.png","null","",""
"","","","","","image-button-response","64","2084693","0.0-12.0-1.0-1.2","CC041860171E430197E9EB831BB8CE34","CC041860171E430197E9EB831BB8CE34","f05c3c61-9552-4ba0-8876-25d83afd95f0","a0a8f18c-a66e-4ba7-a170-23efbdc67501","{""participantId"":""CC041860171E430197E9EB831BB8CE34"",""assignmentId"":""f05c3c61-9552-4ba0-8876-25d83afd95f0"",""projectId"":""a0a8f18c-a66e-4ba7-a170-23efbdc67501""}","https://test12345.live/?participantId=CC041860171E430197E9EB831BB8CE34&assignmentId=f05c3c61-9552-4ba0-8876-25d83afd95f0&projectId=a0a8f18c-a66e-4ba7-a170-23efbdc67501","CC041860171E430197E9EB831BB8CE34-2024-11-24-18-06-31","","1974","","images/schematic_sequence/restaurant_scheme/restaurant_scheme_3.png","1","",""
"","","","","","image-button-response","65","2086505","0.0-12.0-1.0-2.2","CC041860171E430197E9EB831BB8CE34","CC041860171E430197E9EB831BB8CE34","f05c3c61-9552-4ba0-8876-25d83afd95f0","a0a8f18c-a66e-4ba7-a170-23efbdc67501","{""participantId"":""CC041860171E430197E9EB831BB8CE34"",""assignmentId"":""f05c3c61-9552-4ba0-8876-25d83afd95f0"",""projectId"":""a0a8f18c-a66e-4ba7-a170-23efbdc67501""}","https://test12345.live/?participantId=CC041860171E430197E9EB831BB8CE34&assignmentId=f05c3c61-9552-4ba0-8876-25d83afd95f0&projectId=a0a8f18c-a66e-4ba7-a170-23efbdc67501","CC041860171E430197E9EB831BB8CE34-2024-11-24-18-06-31","","null","","[]","null","",""
"","","","","","image-button-response","66","2091008","0.0-12.0-1.0-0.3","CC041860171E430197E9EB831BB8CE34","CC041860171E430197E9EB831BB8CE34","f05c3c61-9552-4ba0-8876-25d83afd95f0","a0a8f18c-a66e-4ba7-a170-23efbdc67501","{""participantId"":""CC041860171E430197E9EB831BB8CE34"",""assignmentId"":""f05c3c61-9552-4ba0-8876-25d83afd95f0"",""projectId"":""a0a8f18c-a66e-4ba7-a170-23efbdc67501""}","https://test12345.live/?participantId=CC041860171E430197E9EB831BB8CE34&assignmentId=f05c3c61-9552-4ba0-8876-25d83afd95f0&projectId=a0a8f18c-a66e-4ba7-a170-23efbdc67501","CC041860171E430197E9EB831BB8CE34-2024-11-24-18-06-31","","null","","images/schematic_sequence/restaurant_scheme/restaurant_scheme_4.png","null","",""
"","","","","","image-button-response","67","2092164","0.0-12.0-1.0-1.3","CC041860171E430197E9EB831BB8CE34","CC041860171E430197E9EB831BB8CE34","f05c3c61-9552-4ba0-8876-25d83afd95f0","a0a8f18c-a66e-4ba7-a170-23efbdc67501","{""participantId"":""CC041860171E430197E9EB831BB8CE34"",""assignmentId"":""f05c3c61-9552-4ba0-8876-25d83afd95f0"",""projectId"":""a0a8f18c-a66e-4ba7-a170-23efbdc67501""}","https://test12345.live/?participantId=CC041860171E430197E9EB831BB8CE34&assignmentId=f05c3c61-9552-4ba0-8876-25d83afd95f0&projectId=a0a8f18c-a66e-4ba7-a170-23efbdc67501","CC041860171E430197E9EB831BB8CE34-2024-11-24-18-06-31","","1155","","images/schematic_sequence/restaurant_scheme/restaurant_scheme_4.png","0","",""
"","","","","","image-button-response","68","2093977","0.0-12.0-1.0-2.3","CC041860171E430197E9EB831BB8CE34","CC041860171E430197E9EB831BB8CE34","f05c3c61-9552-4ba0-8876-25d83afd95f0","a0a8f18c-a66e-4ba7-a170-23efbdc67501","{""participantId"":""CC041860171E430197E9EB831BB8CE34"",""assignmentId"":""f05c3c61-9552-4ba0-8876-25d83afd95f0"",""projectId"":""a0a8f18c-a66e-4ba7-a170-23efbdc67501""}","https://test12345.live/?participantId=CC041860171E430197E9EB831BB8CE34&assignmentId=f05c3c61-9552-4ba0-8876-25d83afd95f0&projectId=a0a8f18c-a66e-4ba7-a170-23efbdc67501","CC041860171E430197E9EB831BB8CE34-2024-11-24-18-06-31","","null","","[]","null","",""
"","","","","","image-button-response","69","2098483","0.0-12.0-1.0-0.4","CC041860171E430197E9EB831BB8CE34","CC041860171E430197E9EB831BB8CE34","f05c3c61-9552-4ba0-8876-25d83afd95f0","a0a8f18c-a66e-4ba7-a170-23efbdc67501","{""participantId"":""CC041860171E430197E9EB831BB8CE34"",""assignmentId"":""f05c3c61-9552-4ba0-8876-25d83afd95f0"",""projectId"":""a0a8f18c-a66e-4ba7-a170-23efbdc67501""}","https://test12345.live/?participantId=CC041860171E430197E9EB831BB8CE34&assignmentId=f05c3c61-9552-4ba0-8876-25d83afd95f0&projectId=a0a8f18c-a66e-4ba7-a170-23efbdc67501","CC041860171E430197E9EB831BB8CE34-2024-11-24-18-06-31","","null","","images/schematic_sequence/restaurant_scheme/restaurant_scheme_5.png","null","",""
"","","","","","image-button-response","70","2101552","0.0-12.0-1.0-1.4","CC041860171E430197E9EB831BB8CE34","CC041860171E430197E9EB831BB8CE34","f05c3c61-9552-4ba0-8876-25d83afd95f0","a0a8f18c-a66e-4ba7-a170-23efbdc67501","{""participantId"":""CC041860171E430197E9EB831BB8CE34"",""assignmentId"":""f05c3c61-9552-4ba0-8876-25d83afd95f0"",""projectId"":""a0a8f18c-a66e-4ba7-a170-23efbdc67501""}","https://test12345.live/?participantId=CC041860171E430197E9EB831BB8CE34&assignmentId=f05c3c61-9552-4ba0-8876-25d83afd95f0&projectId=a0a8f18c-a66e-4ba7-a170-23efbdc67501","CC041860171E430197E9EB831BB8CE34-2024-11-24-18-06-31","","3068","","images/schematic_sequence/restaurant_scheme/restaurant_scheme_5.png","0","",""
"","","","","","image-button-response","71","2103366","0.0-12.0-1.0-2.4","CC041860171E430197E9EB831BB8CE34","CC041860171E430197E9EB831BB8CE34","f05c3c61-9552-4ba0-8876-25d83afd95f0","a0a8f18c-a66e-4ba7-a170-23efbdc67501","{""participantId"":""CC041860171E430197E9EB831BB8CE34"",""assignmentId"":""f05c3c61-9552-4ba0-8876-25d83afd95f0"",""projectId"":""a0a8f18c-a66e-4ba7-a170-23efbdc67501""}","https://test12345.live/?participantId=CC041860171E430197E9EB831BB8CE34&assignmentId=f05c3c61-9552-4ba0-8876-25d83afd95f0&projectId=a0a8f18c-a66e-4ba7-a170-23efbdc67501","CC041860171E430197E9EB831BB8CE34-2024-11-24-18-06-31","","null","","[]","null","",""
"","","","","","image-button-response","72","2107872","0.0-12.0-1.0-0.5","CC041860171E430197E9EB831BB8CE34","CC041860171E430197E9EB831BB8CE34","f05c3c61-9552-4ba0-8876-25d83afd95f0","a0a8f18c-a66e-4ba7-a170-23efbdc67501","{""participantId"":""CC041860171E430197E9EB831BB8CE34"",""assignmentId"":""f05c3c61-9552-4ba0-8876-25d83afd95f0"",""projectId"":""a0a8f18c-a66e-4ba7-a170-23efbdc67501""}","https://test12345.live/?participantId=CC041860171E430197E9EB831BB8CE34&assignmentId=f05c3c61-9552-4ba0-8876-25d83afd95f0&projectId=a0a8f18c-a66e-4ba7-a170-23efbdc67501","CC041860171E430197E9EB831BB8CE34-2024-11-24-18-06-31","","null","","images/schematic_sequence/restaurant_scheme/restaurant_scheme_6.png","null","",""
"","","","","","image-button-response","73","2110025","0.0-12.0-1.0-1.5","CC041860171E430197E9EB831BB8CE34","CC041860171E430197E9EB831BB8CE34","f05c3c61-9552-4ba0-8876-25d83afd95f0","a0a8f18c-a66e-4ba7-a170-23efbdc67501","{""participantId"":""CC041860171E430197E9EB831BB8CE34"",""assignmentId"":""f05c3c61-9552-4ba0-8876-25d83afd95f0"",""projectId"":""a0a8f18c-a66e-4ba7-a170-23efbdc67501""}","https://test12345.live/?participantId=CC041860171E430197E9EB831BB8CE34&assignmentId=f05c3c61-9552-4ba0-8876-25d83afd95f0&projectId=a0a8f18c-a66e-4ba7-a170-23efbdc67501","CC041860171E430197E9EB831BB8CE34-2024-11-24-18-06-31","","2151","","images/schematic_sequence/restaurant_scheme/restaurant_scheme_6.png","1","",""
"","","","","","image-button-response","74","2111831","0.0-12.0-1.0-2.5","CC041860171E430197E9EB831BB8CE34","CC041860171E430197E9EB831BB8CE34","f05c3c61-9552-4ba0-8876-25d83afd95f0","a0a8f18c-a66e-4ba7-a170-23efbdc67501","{""participantId"":""CC041860171E430197E9EB831BB8CE34"",""assignmentId"":""f05c3c61-9552-4ba0-8876-25d83afd95f0"",""projectId"":""a0a8f18c-a66e-4ba7-a170-23efbdc67501""}","https://test12345.live/?participantId=CC041860171E430197E9EB831BB8CE34&assignmentId=f05c3c61-9552-4ba0-8876-25d83afd95f0&projectId=a0a8f18c-a66e-4ba7-a170-23efbdc67501","CC041860171E430197E9EB831BB8CE34-2024-11-24-18-06-31","","null","","[]","null","",""
"","","","","","image-button-response","75","2116343","0.0-12.0-1.0-0.6","CC041860171E430197E9EB831BB8CE34","CC041860171E430197E9EB831BB8CE34","f05c3c61-9552-4ba0-8876-25d83afd95f0","a0a8f18c-a66e-4ba7-a170-23efbdc67501","{""participantId"":""CC041860171E430197E9EB831BB8CE34"",""assignmentId"":""f05c3c61-9552-4ba0-8876-25d83afd95f0"",""projectId"":""a0a8f18c-a66e-4ba7-a170-23efbdc67501""}","https://test12345.live/?participantId=CC041860171E430197E9EB831BB8CE34&assignmentId=f05c3c61-9552-4ba0-8876-25d83afd95f0&projectId=a0a8f18c-a66e-4ba7-a170-23efbdc67501","CC041860171E430197E9EB831BB8CE34-2024-11-24-18-06-31","","null","","images/schematic_sequence/restaurant_scheme/restaurant_scheme_7.png","null","",""
"","","","","","image-button-response","76","2120351","0.0-12.0-1.0-1.6","CC041860171E430197E9EB831BB8CE34","CC041860171E430197E9EB831BB8CE34","f05c3c61-9552-4ba0-8876-25d83afd95f0","a0a8f18c-a66e-4ba7-a170-23efbdc67501","{""participantId"":""CC041860171E430197E9EB831BB8CE34"",""assignmentId"":""f05c3c61-9552-4ba0-8876-25d83afd95f0"",""projectId"":""a0a8f18c-a66e-4ba7-a170-23efbdc67501""}","https://test12345.live/?participantId=CC041860171E430197E9EB831BB8CE34&assignmentId=f05c3c61-9552-4ba0-8876-25d83afd95f0&projectId=a0a8f18c-a66e-4ba7-a170-23efbdc67501","CC041860171E430197E9EB831BB8CE34-2024-11-24-18-06-31","","null","","images/schematic_sequence/restaurant_scheme/restaurant_scheme_7.png","null","",""
"","","","","","image-button-response","77","2122162","0.0-12.0-1.0-2.6","CC041860171E430197E9EB831BB8CE34","CC041860171E430197E9EB831BB8CE34","f05c3c61-9552-4ba0-8876-25d83afd95f0","a0a8f18c-a66e-4ba7-a170-23efbdc67501","{""participantId"":""CC041860171E430197E9EB831BB8CE34"",""assignmentId"":""f05c3c61-9552-4ba0-8876-25d83afd95f0"",""projectId"":""a0a8f18c-a66e-4ba7-a170-23efbdc67501""}","https://test12345.live/?participantId=CC041860171E430197E9EB831BB8CE34&assignmentId=f05c3c61-9552-4ba0-8876-25d83afd95f0&projectId=a0a8f18c-a66e-4ba7-a170-23efbdc67501","CC041860171E430197E9EB831BB8CE34-2024-11-24-18-06-31","","null","","[]","null","",""
"","","","","","image-button-response","78","2126677","0.0-12.0-1.0-0.7","CC041860171E430197E9EB831BB8CE34","CC041860171E430197E9EB831BB8CE34","f05c3c61-9552-4ba0-8876-25d83afd95f0","a0a8f18c-a66e-4ba7-a170-23efbdc67501","{""participantId"":""CC041860171E430197E9EB831BB8CE34"",""assignmentId"":""f05c3c61-9552-4ba0-8876-25d83afd95f0"",""projectId"":""a0a8f18c-a66e-4ba7-a170-23efbdc67501""}","https://test12345.live/?participantId=CC041860171E430197E9EB831BB8CE34&assignmentId=f05c3c61-9552-4ba0-8876-25d83afd95f0&projectId=a0a8f18c-a66e-4ba7-a170-23efbdc67501","CC041860171E430197E9EB831BB8CE34-2024-11-24-18-06-31","","null","","images/schematic_sequence/restaurant_scheme/restaurant_scheme_8.png","null","",""
"","","","","","image-button-response","79","2128024","0.0-12.0-1.0-1.7","CC041860171E430197E9EB831BB8CE34","CC041860171E430197E9EB831BB8CE34","f05c3c61-9552-4ba0-8876-25d83afd95f0","a0a8f18c-a66e-4ba7-a170-23efbdc67501","{""participantId"":""CC041860171E430197E9EB831BB8CE34"",""assignmentId"":""f05c3c61-9552-4ba0-8876-25d83afd95f0"",""projectId"":""a0a8f18c-a66e-4ba7-a170-23efbdc67501""}","https://test12345.live/?participantId=CC041860171E430197E9EB831BB8CE34&assignmentId=f05c3c61-9552-4ba0-8876-25d83afd95f0&projectId=a0a8f18c-a66e-4ba7-a170-23efbdc67501","CC041860171E430197E9EB831BB8CE34-2024-11-24-18-06-31","","1346","","images/schematic_sequence/restaurant_scheme/restaurant_scheme_8.png","1","",""
"","","","","","image-button-response","80","2129837","0.0-12.0-1.0-2.7","CC041860171E430197E9EB831BB8CE34","CC041860171E430197E9EB831BB8CE34","f05c3c61-9552-4ba0-8876-25d83afd95f0","a0a8f18c-a66e-4ba7-a170-23efbdc67501","{""participantId"":""CC041860171E430197E9EB831BB8CE34"",""assignmentId"":""f05c3c61-9552-4ba0-8876-25d83afd95f0"",""projectId"":""a0a8f18c-a66e-4ba7-a170-23efbdc67501""}","https://test12345.live/?participantId=CC041860171E430197E9EB831BB8CE34&assignmentId=f05c3c61-9552-4ba0-8876-25d83afd95f0&projectId=a0a8f18c-a66e-4ba7-a170-23efbdc67501","CC041860171E430197E9EB831BB8CE34-2024-11-24-18-06-31","","null","","[]","null","",""
"","","","","","image-button-response","81","2134352","0.0-12.0-1.0-0.8","CC041860171E430197E9EB831BB8CE34","CC041860171E430197E9EB831BB8CE34","f05c3c61-9552-4ba0-8876-25d83afd95f0","a0a8f18c-a66e-4ba7-a170-23efbdc67501","{""participantId"":""CC041860171E430197E9EB831BB8CE34"",""assignmentId"":""f05c3c61-9552-4ba0-8876-25d83afd95f0"",""projectId"":""a0a8f18c-a66e-4ba7-a170-23efbdc67501""}","https://test12345.live/?participantId=CC041860171E430197E9EB831BB8CE34&assignmentId=f05c3c61-9552-4ba0-8876-25d83afd95f0&projectId=a0a8f18c-a66e-4ba7-a170-23efbdc67501","CC041860171E430197E9EB831BB8CE34-2024-11-24-18-06-31","","null","","images/schematic_sequence/restaurant_scheme/restaurant_scheme_9.png","null","",""
"","","","","","image-button-response","82","2135499","0.0-12.0-1.0-1.8","CC041860171E430197E9EB831BB8CE34","CC041860171E430197E9EB831BB8CE34","f05c3c61-9552-4ba0-8876-25d83afd95f0","a0a8f18c-a66e-4ba7-a170-23efbdc67501","{""participantId"":""CC041860171E430197E9EB831BB8CE34"",""assignmentId"":""f05c3c61-9552-4ba0-8876-25d83afd95f0"",""projectId"":""a0a8f18c-a66e-4ba7-a170-23efbdc67501""}","https://test12345.live/?participantId=CC041860171E430197E9EB831BB8CE34&assignmentId=f05c3c61-9552-4ba0-8876-25d83afd95f0&projectId=a0a8f18c-a66e-4ba7-a170-23efbdc67501","CC041860171E430197E9EB831BB8CE34-2024-11-24-18-06-31","","1145","","images/schematic_sequence/restaurant_scheme/restaurant_scheme_9.png","0","",""
"","","","","","image-button-response","83","2137302","0.0-12.0-1.0-2.8","CC041860171E430197E9EB831BB8CE34","CC041860171E430197E9EB831BB8CE34","f05c3c61-9552-4ba0-8876-25d83afd95f0","a0a8f18c-a66e-4ba7-a170-23efbdc67501","{""participantId"":""CC041860171E430197E9EB831BB8CE34"",""assignmentId"":""f05c3c61-9552-4ba0-8876-25d83afd95f0"",""projectId"":""a0a8f18c-a66e-4ba7-a170-23efbdc67501""}","https://test12345.live/?participantId=CC041860171E430197E9EB831BB8CE34&assignmentId=f05c3c61-9552-4ba0-8876-25d83afd95f0&projectId=a0a8f18c-a66e-4ba7-a170-23efbdc67501","CC041860171E430197E9EB831BB8CE34-2024-11-24-18-06-31","","null","","[]","null","",""
"","","","","","image-button-response","84","2141809","0.0-12.0-1.0-0.9","CC041860171E430197E9EB831BB8CE34","CC041860171E430197E9EB831BB8CE34","f05c3c61-9552-4ba0-8876-25d83afd95f0","a0a8f18c-a66e-4ba7-a170-23efbdc67501","{""participantId"":""CC041860171E430197E9EB831BB8CE34"",""assignmentId"":""f05c3c61-9552-4ba0-8876-25d83afd95f0"",""projectId"":""a0a8f18c-a66e-4ba7-a170-23efbdc67501""}","https://test12345.live/?participantId=CC041860171E430197E9EB831BB8CE34&assignmentId=f05c3c61-9552-4ba0-8876-25d83afd95f0&projectId=a0a8f18c-a66e-4ba7-a170-23efbdc67501","CC041860171E430197E9EB831BB8CE34-2024-11-24-18-06-31","","null","","images/schematic_sequence/restaurant_scheme/restaurant_scheme_ten.png","null","",""
"","","","","","image-button-response","85","2142968","0.0-12.0-1.0-1.9","CC041860171E430197E9EB831BB8CE34","CC041860171E430197E9EB831BB8CE34","f05c3c61-9552-4ba0-8876-25d83afd95f0","a0a8f18c-a66e-4ba7-a170-23efbdc67501","{""participantId"":""CC041860171E430197E9EB831BB8CE34"",""assignmentId"":""f05c3c61-9552-4ba0-8876-25d83afd95f0"",""projectId"":""a0a8f18c-a66e-4ba7-a170-23efbdc67501""}","https://test12345.live/?participantId=CC041860171E430197E9EB831BB8CE34&assignmentId=f05c3c61-9552-4ba0-8876-25d83afd95f0&projectId=a0a8f18c-a66e-4ba7-a170-23efbdc67501","CC041860171E430197E9EB831BB8CE34-2024-11-24-18-06-31","","1159","","images/schematic_sequence/restaurant_scheme/restaurant_scheme_ten.png","0","",""
"","","","","","image-button-response","86","2144774","0.0-12.0-1.0-2.9","CC041860171E430197E9EB831BB8CE34","CC041860171E430197E9EB831BB8CE34","f05c3c61-9552-4ba0-8876-25d83afd95f0","a0a8f18c-a66e-4ba7-a170-23efbdc67501","{""participantId"":""CC041860171E430197E9EB831BB8CE34"",""assignmentId"":""f05c3c61-9552-4ba0-8876-25d83afd95f0"",""projectId"":""a0a8f18c-a66e-4ba7-a170-23efbdc67501""}","https://test12345.live/?participantId=CC041860171E430197E9EB831BB8CE34&assignmentId=f05c3c61-9552-4ba0-8876-25d83afd95f0&projectId=a0a8f18c-a66e-4ba7-a170-23efbdc67501","CC041860171E430197E9EB831BB8CE34-2024-11-24-18-06-31","","null","","[]","null","",""
"","","","","","html-audio-response","87","2200417","0.0-13.0","CC041860171E430197E9EB831BB8CE34","CC041860171E430197E9EB831BB8CE34","f05c3c61-9552-4ba0-8876-25d83afd95f0","a0a8f18c-a66e-4ba7-a170-23efbdc67501","{""participantId"":""CC041860171E430197E9EB831BB8CE34"",""assignmentId"":""f05c3c61-9552-4ba0-8876-25d83afd95f0"",""projectId"":""a0a8f18c-a66e-4ba7-a170-23efbdc67501""}","https://test12345.live/?participantId=CC041860171E430197E9EB831BB8CE34&assignmentId=f05c3c61-9552-4ba0-8876-25d83afd95f0&projectId=a0a8f18c-a66e-4ba7-a170-23efbdc67501","CC041860171E430197E9EB831BB8CE34-2024-11-24-18-06-31","","19446","","[""<span style=\""color: red; font-size: 24px\""> NOW RECORDING</span><p>Please say out loud all the images you saw, as many as you can remember. The images can be said in any order.</p>""]","","8","restaurant_scheme"
"","","","","","image-button-response","88","2206430","0.0-14.0-0.0","CC041860171E430197E9EB831BB8CE34","CC041860171E430197E9EB831BB8CE34","f05c3c61-9552-4ba0-8876-25d83afd95f0","a0a8f18c-a66e-4ba7-a170-23efbdc67501","{""participantId"":""CC041860171E430197E9EB831BB8CE34"",""assignmentId"":""f05c3c61-9552-4ba0-8876-25d83afd95f0"",""projectId"":""a0a8f18c-a66e-4ba7-a170-23efbdc67501""}","https://test12345.live/?participantId=CC041860171E430197E9EB831BB8CE34&assignmentId=f05c3c61-9552-4ba0-8876-25d83afd95f0&projectId=a0a8f18c-a66e-4ba7-a170-23efbdc67501","CC041860171E430197E9EB831BB8CE34-2024-11-24-18-06-31","","null","","images/schematic_sequence/flight_scheme/flight_scheme_0.png","null","",""
"","","","","","image-button-response","89","2210937","0.0-14.0-1.0-0.0","CC041860171E430197E9EB831BB8CE34","CC041860171E430197E9EB831BB8CE34","f05c3c61-9552-4ba0-8876-25d83afd95f0","a0a8f18c-a66e-4ba7-a170-23efbdc67501","{""participantId"":""CC041860171E430197E9EB831BB8CE34"",""assignmentId"":""f05c3c61-9552-4ba0-8876-25d83afd95f0"",""projectId"":""a0a8f18c-a66e-4ba7-a170-23efbdc67501""}","https://test12345.live/?participantId=CC041860171E430197E9EB831BB8CE34&assignmentId=f05c3c61-9552-4ba0-8876-25d83afd95f0&projectId=a0a8f18c-a66e-4ba7-a170-23efbdc67501","CC041860171E430197E9EB831BB8CE34-2024-11-24-18-06-31","","null","","images/schematic_sequence/flight_scheme/flight_scheme_6.png","null","",""
"","","","","","image-button-response","90","2213075","0.0-14.0-1.0-1.0","CC041860171E430197E9EB831BB8CE34","CC041860171E430197E9EB831BB8CE34","f05c3c61-9552-4ba0-8876-25d83afd95f0","a0a8f18c-a66e-4ba7-a170-23efbdc67501","{""participantId"":""CC041860171E430197E9EB831BB8CE34"",""assignmentId"":""f05c3c61-9552-4ba0-8876-25d83afd95f0"",""projectId"":""a0a8f18c-a66e-4ba7-a170-23efbdc67501""}","https://test12345.live/?participantId=CC041860171E430197E9EB831BB8CE34&assignmentId=f05c3c61-9552-4ba0-8876-25d83afd95f0&projectId=a0a8f18c-a66e-4ba7-a170-23efbdc67501","CC041860171E430197E9EB831BB8CE34-2024-11-24-18-06-31","","2136","","images/schematic_sequence/flight_scheme/flight_scheme_6.png","1","",""
"","","","","","image-button-response","91","2214887","0.0-14.0-1.0-2.0","CC041860171E430197E9EB831BB8CE34","CC041860171E430197E9EB831BB8CE34","f05c3c61-9552-4ba0-8876-25d83afd95f0","a0a8f18c-a66e-4ba7-a170-23efbdc67501","{""participantId"":""CC041860171E430197E9EB831BB8CE34"",""assignmentId"":""f05c3c61-9552-4ba0-8876-25d83afd95f0"",""projectId"":""a0a8f18c-a66e-4ba7-a170-23efbdc67501""}","https://test12345.live/?participantId=CC041860171E430197E9EB831BB8CE34&assignmentId=f05c3c61-9552-4ba0-8876-25d83afd95f0&projectId=a0a8f18c-a66e-4ba7-a170-23efbdc67501","CC041860171E430197E9EB831BB8CE34-2024-11-24-18-06-31","","null","","[]","null","",""
"","","","","","image-button-response","92","2219393","0.0-14.0-1.0-0.1","CC041860171E430197E9EB831BB8CE34","CC041860171E430197E9EB831BB8CE34","f05c3c61-9552-4ba0-8876-25d83afd95f0","a0a8f18c-a66e-4ba7-a170-23efbdc67501","{""participantId"":""CC041860171E430197E9EB831BB8CE34"",""assignmentId"":""f05c3c61-9552-4ba0-8876-25d83afd95f0"",""projectId"":""a0a8f18c-a66e-4ba7-a170-23efbdc67501""}","https://test12345.live/?participantId=CC041860171E430197E9EB831BB8CE34&assignmentId=f05c3c61-9552-4ba0-8876-25d83afd95f0&projectId=a0a8f18c-a66e-4ba7-a170-23efbdc67501","CC041860171E430197E9EB831BB8CE34-2024-11-24-18-06-31","","null","","images/schematic_sequence/flight_scheme/flight_scheme_4.png","null","",""
"","","","","","image-button-response","93","2221884","0.0-14.0-1.0-1.1","CC041860171E430197E9EB831BB8CE34","CC041860171E430197E9EB831BB8CE34","f05c3c61-9552-4ba0-8876-25d83afd95f0","a0a8f18c-a66e-4ba7-a170-23efbdc67501","{""participantId"":""CC041860171E430197E9EB831BB8CE34"",""assignmentId"":""f05c3c61-9552-4ba0-8876-25d83afd95f0"",""projectId"":""a0a8f18c-a66e-4ba7-a170-23efbdc67501""}","https://test12345.live/?participantId=CC041860171E430197E9EB831BB8CE34&assignmentId=f05c3c61-9552-4ba0-8876-25d83afd95f0&projectId=a0a8f18c-a66e-4ba7-a170-23efbdc67501","CC041860171E430197E9EB831BB8CE34-2024-11-24-18-06-31","","2491","","images/schematic_sequence/flight_scheme/flight_scheme_4.png","0","",""
"","","","","","image-button-response","94","2223687","0.0-14.0-1.0-2.1","CC041860171E430197E9EB831BB8CE34","CC041860171E430197E9EB831BB8CE34","f05c3c61-9552-4ba0-8876-25d83afd95f0","a0a8f18c-a66e-4ba7-a170-23efbdc67501","{""participantId"":""CC041860171E430197E9EB831BB8CE34"",""assignmentId"":""f05c3c61-9552-4ba0-8876-25d83afd95f0"",""projectId"":""a0a8f18c-a66e-4ba7-a170-23efbdc67501""}","https://test12345.live/?participantId=CC041860171E430197E9EB831BB8CE34&assignmentId=f05c3c61-9552-4ba0-8876-25d83afd95f0&projectId=a0a8f18c-a66e-4ba7-a170-23efbdc67501","CC041860171E430197E9EB831BB8CE34-2024-11-24-18-06-31","","null","","[]","null","",""
"","","","","","image-button-response","95","2228192","0.0-14.0-1.0-0.2","CC041860171E430197E9EB831BB8CE34","CC041860171E430197E9EB831BB8CE34","f05c3c61-9552-4ba0-8876-25d83afd95f0","a0a8f18c-a66e-4ba7-a170-23efbdc67501","{""participantId"":""CC041860171E430197E9EB831BB8CE34"",""assignmentId"":""f05c3c61-9552-4ba0-8876-25d83afd95f0"",""projectId"":""a0a8f18c-a66e-4ba7-a170-23efbdc67501""}","https://test12345.live/?participantId=CC041860171E430197E9EB831BB8CE34&assignmentId=f05c3c61-9552-4ba0-8876-25d83afd95f0&projectId=a0a8f18c-a66e-4ba7-a170-23efbdc67501","CC041860171E430197E9EB831BB8CE34-2024-11-24-18-06-31","","null","","images/schematic_sequence/flight_scheme/flight_scheme_9.png","null","",""
"","","","","","image-button-response","96","2229201","0.0-14.0-1.0-1.2","CC041860171E430197E9EB831BB8CE34","CC041860171E430197E9EB831BB8CE34","f05c3c61-9552-4ba0-8876-25d83afd95f0","a0a8f18c-a66e-4ba7-a170-23efbdc67501","{""participantId"":""CC041860171E430197E9EB831BB8CE34"",""assignmentId"":""f05c3c61-9552-4ba0-8876-25d83afd95f0"",""projectId"":""a0a8f18c-a66e-4ba7-a170-23efbdc67501""}","https://test12345.live/?participantId=CC041860171E430197E9EB831BB8CE34&assignmentId=f05c3c61-9552-4ba0-8876-25d83afd95f0&projectId=a0a8f18c-a66e-4ba7-a170-23efbdc67501","CC041860171E430197E9EB831BB8CE34-2024-11-24-18-06-31","","1008","","images/schematic_sequence/flight_scheme/flight_scheme_9.png","0","",""
"","","","","","image-button-response","97","2231008","0.0-14.0-1.0-2.2","CC041860171E430197E9EB831BB8CE34","CC041860171E430197E9EB831BB8CE34","f05c3c61-9552-4ba0-8876-25d83afd95f0","a0a8f18c-a66e-4ba7-a170-23efbdc67501","{""participantId"":""CC041860171E430197E9EB831BB8CE34"",""assignmentId"":""f05c3c61-9552-4ba0-8876-25d83afd95f0"",""projectId"":""a0a8f18c-a66e-4ba7-a170-23efbdc67501""}","https://test12345.live/?participantId=CC041860171E430197E9EB831BB8CE34&assignmentId=f05c3c61-9552-4ba0-8876-25d83afd95f0&projectId=a0a8f18c-a66e-4ba7-a170-23efbdc67501","CC041860171E430197E9EB831BB8CE34-2024-11-24-18-06-31","","null","","[]","null","",""
"","","","","","image-button-response","98","2235514","0.0-14.0-1.0-0.3","CC041860171E430197E9EB831BB8CE34","CC041860171E430197E9EB831BB8CE34","f05c3c61-9552-4ba0-8876-25d83afd95f0","a0a8f18c-a66e-4ba7-a170-23efbdc67501","{""participantId"":""CC041860171E430197E9EB831BB8CE34"",""assignmentId"":""f05c3c61-9552-4ba0-8876-25d83afd95f0"",""projectId"":""a0a8f18c-a66e-4ba7-a170-23efbdc67501""}","https://test12345.live/?participantId=CC041860171E430197E9EB831BB8CE34&assignmentId=f05c3c61-9552-4ba0-8876-25d83afd95f0&projectId=a0a8f18c-a66e-4ba7-a170-23efbdc67501","CC041860171E430197E9EB831BB8CE34-2024-11-24-18-06-31","","null","","images/schematic_sequence/flight_scheme/flight_scheme_ten.png","null","",""
"","","","","","image-button-response","99","2236348","0.0-14.0-1.0-1.3","CC041860171E430197E9EB831BB8CE34","CC041860171E430197E9EB831BB8CE34","f05c3c61-9552-4ba0-8876-25d83afd95f0","a0a8f18c-a66e-4ba7-a170-23efbdc67501","{""participantId"":""CC041860171E430197E9EB831BB8CE34"",""assignmentId"":""f05c3c61-9552-4ba0-8876-25d83afd95f0"",""projectId"":""a0a8f18c-a66e-4ba7-a170-23efbdc67501""}","https://test12345.live/?participantId=CC041860171E430197E9EB831BB8CE34&assignmentId=f05c3c61-9552-4ba0-8876-25d83afd95f0&projectId=a0a8f18c-a66e-4ba7-a170-23efbdc67501","CC041860171E430197E9EB831BB8CE34-2024-11-24-18-06-31","","833","","images/schematic_sequence/flight_scheme/flight_scheme_ten.png","0","",""
"","","","","","image-button-response","100","2238164","0.0-14.0-1.0-2.3","CC041860171E430197E9EB831BB8CE34","CC041860171E430197E9EB831BB8CE34","f05c3c61-9552-4ba0-8876-25d83afd95f0","a0a8f18c-a66e-4ba7-a170-23efbdc67501","{""participantId"":""CC041860171E430197E9EB831BB8CE34"",""assignmentId"":""f05c3c61-9552-4ba0-8876-25d83afd95f0"",""projectId"":""a0a8f18c-a66e-4ba7-a170-23efbdc67501""}","https://test12345.live/?participantId=CC041860171E430197E9EB831BB8CE34&assignmentId=f05c3c61-9552-4ba0-8876-25d83afd95f0&projectId=a0a8f18c-a66e-4ba7-a170-23efbdc67501","CC041860171E430197E9EB831BB8CE34-2024-11-24-18-06-31","","null","","[]","null","",""
"","","","","","image-button-response","101","2242677","0.0-14.0-1.0-0.4","CC041860171E430197E9EB831BB8CE34","CC041860171E430197E9EB831BB8CE34","f05c3c61-9552-4ba0-8876-25d83afd95f0","a0a8f18c-a66e-4ba7-a170-23efbdc67501","{""participantId"":""CC041860171E430197E9EB831BB8CE34"",""assignmentId"":""f05c3c61-9552-4ba0-8876-25d83afd95f0"",""projectId"":""a0a8f18c-a66e-4ba7-a170-23efbdc67501""}","https://test12345.live/?participantId=CC041860171E430197E9EB831BB8CE34&assignmentId=f05c3c61-9552-4ba0-8876-25d83afd95f0&projectId=a0a8f18c-a66e-4ba7-a170-23efbdc67501","CC041860171E430197E9EB831BB8CE34-2024-11-24-18-06-31","","null","","images/schematic_sequence/flight_scheme/flight_scheme_1.png","null","",""
"","","","","","image-button-response","102","2246691","0.0-14.0-1.0-1.4","CC041860171E430197E9EB831BB8CE34","CC041860171E430197E9EB831BB8CE34","f05c3c61-9552-4ba0-8876-25d83afd95f0","a0a8f18c-a66e-4ba7-a170-23efbdc67501","{""participantId"":""CC041860171E430197E9EB831BB8CE34"",""assignmentId"":""f05c3c61-9552-4ba0-8876-25d83afd95f0"",""projectId"":""a0a8f18c-a66e-4ba7-a170-23efbdc67501""}","https://test12345.live/?participantId=CC041860171E430197E9EB831BB8CE34&assignmentId=f05c3c61-9552-4ba0-8876-25d83afd95f0&projectId=a0a8f18c-a66e-4ba7-a170-23efbdc67501","CC041860171E430197E9EB831BB8CE34-2024-11-24-18-06-31","","null","","images/schematic_sequence/flight_scheme/flight_scheme_1.png","null","",""
"","","","","","image-button-response","103","2248506","0.0-14.0-1.0-2.4","CC041860171E430197E9EB831BB8CE34","CC041860171E430197E9EB831BB8CE34","f05c3c61-9552-4ba0-8876-25d83afd95f0","a0a8f18c-a66e-4ba7-a170-23efbdc67501","{""participantId"":""CC041860171E430197E9EB831BB8CE34"",""assignmentId"":""f05c3c61-9552-4ba0-8876-25d83afd95f0"",""projectId"":""a0a8f18c-a66e-4ba7-a170-23efbdc67501""}","https://test12345.live/?participantId=CC041860171E430197E9EB831BB8CE34&assignmentId=f05c3c61-9552-4ba0-8876-25d83afd95f0&projectId=a0a8f18c-a66e-4ba7-a170-23efbdc67501","CC041860171E430197E9EB831BB8CE34-2024-11-24-18-06-31","","null","","[]","null","",""
"","","","","","image-button-response","104","2253017","0.0-14.0-1.0-0.5","CC041860171E430197E9EB831BB8CE34","CC041860171E430197E9EB831BB8CE34","f05c3c61-9552-4ba0-8876-25d83afd95f0","a0a8f18c-a66e-4ba7-a170-23efbdc67501","{""participantId"":""CC041860171E430197E9EB831BB8CE34"",""assignmentId"":""f05c3c61-9552-4ba0-8876-25d83afd95f0"",""projectId"":""a0a8f18c-a66e-4ba7-a170-23efbdc67501""}","https://test12345.live/?participantId=CC041860171E430197E9EB831BB8CE34&assignmentId=f05c3c61-9552-4ba0-8876-25d83afd95f0&projectId=a0a8f18c-a66e-4ba7-a170-23efbdc67501","CC041860171E430197E9EB831BB8CE34-2024-11-24-18-06-31","","null","","images/schematic_sequence/flight_scheme/flight_scheme_8.png","null","",""
"","","","","","image-button-response","105","2254824","0.0-14.0-1.0-1.5","CC041860171E430197E9EB831BB8CE34","CC041860171E430197E9EB831BB8CE34","f05c3c61-9552-4ba0-8876-25d83afd95f0","a0a8f18c-a66e-4ba7-a170-23efbdc67501","{""participantId"":""CC041860171E430197E9EB831BB8CE34"",""assignmentId"":""f05c3c61-9552-4ba0-8876-25d83afd95f0"",""projectId"":""a0a8f18c-a66e-4ba7-a170-23efbdc67501""}","https://test12345.live/?participantId=CC041860171E430197E9EB831BB8CE34&assignmentId=f05c3c61-9552-4ba0-8876-25d83afd95f0&projectId=a0a8f18c-a66e-4ba7-a170-23efbdc67501","CC041860171E430197E9EB831BB8CE34-2024-11-24-18-06-31","","1806","","images/schematic_sequence/flight_scheme/flight_scheme_8.png","1","",""
"","","","","","image-button-response","106","2256635","0.0-14.0-1.0-2.5","CC041860171E430197E9EB831BB8CE34","CC041860171E430197E9EB831BB8CE34","f05c3c61-9552-4ba0-8876-25d83afd95f0","a0a8f18c-a66e-4ba7-a170-23efbdc67501","{""participantId"":""CC041860171E430197E9EB831BB8CE34"",""assignmentId"":""f05c3c61-9552-4ba0-8876-25d83afd95f0"",""projectId"":""a0a8f18c-a66e-4ba7-a170-23efbdc67501""}","https://test12345.live/?participantId=CC041860171E430197E9EB831BB8CE34&assignmentId=f05c3c61-9552-4ba0-8876-25d83afd95f0&projectId=a0a8f18c-a66e-4ba7-a170-23efbdc67501","CC041860171E430197E9EB831BB8CE34-2024-11-24-18-06-31","","null","","[]","null","",""
"","","","","","image-button-response","107","2261140","0.0-14.0-1.0-0.6","CC041860171E430197E9EB831BB8CE34","CC041860171E430197E9EB831BB8CE34","f05c3c61-9552-4ba0-8876-25d83afd95f0","a0a8f18c-a66e-4ba7-a170-23efbdc67501","{""participantId"":""CC041860171E430197E9EB831BB8CE34"",""assignmentId"":""f05c3c61-9552-4ba0-8876-25d83afd95f0"",""projectId"":""a0a8f18c-a66e-4ba7-a170-23efbdc67501""}","https://test12345.live/?participantId=CC041860171E430197E9EB831BB8CE34&assignmentId=f05c3c61-9552-4ba0-8876-25d83afd95f0&projectId=a0a8f18c-a66e-4ba7-a170-23efbdc67501","CC041860171E430197E9EB831BB8CE34-2024-11-24-18-06-31","","null","","images/schematic_sequence/flight_scheme/flight_scheme_3.png","null","",""
"","","","","","image-button-response","108","2264413","0.0-14.0-1.0-1.6","CC041860171E430197E9EB831BB8CE34","CC041860171E430197E9EB831BB8CE34","f05c3c61-9552-4ba0-8876-25d83afd95f0","a0a8f18c-a66e-4ba7-a170-23efbdc67501","{""participantId"":""CC041860171E430197E9EB831BB8CE34"",""assignmentId"":""f05c3c61-9552-4ba0-8876-25d83afd95f0"",""projectId"":""a0a8f18c-a66e-4ba7-a170-23efbdc67501""}","https://test12345.live/?participantId=CC041860171E430197E9EB831BB8CE34&assignmentId=f05c3c61-9552-4ba0-8876-25d83afd95f0&projectId=a0a8f18c-a66e-4ba7-a170-23efbdc67501","CC041860171E430197E9EB831BB8CE34-2024-11-24-18-06-31","","3271","","images/schematic_sequence/flight_scheme/flight_scheme_3.png","0","",""
"","","","","","image-button-response","109","2266213","0.0-14.0-1.0-2.6","CC041860171E430197E9EB831BB8CE34","CC041860171E430197E9EB831BB8CE34","f05c3c61-9552-4ba0-8876-25d83afd95f0","a0a8f18c-a66e-4ba7-a170-23efbdc67501","{""participantId"":""CC041860171E430197E9EB831BB8CE34"",""assignmentId"":""f05c3c61-9552-4ba0-8876-25d83afd95f0"",""projectId"":""a0a8f18c-a66e-4ba7-a170-23efbdc67501""}","https://test12345.live/?participantId=CC041860171E430197E9EB831BB8CE34&assignmentId=f05c3c61-9552-4ba0-8876-25d83afd95f0&projectId=a0a8f18c-a66e-4ba7-a170-23efbdc67501","CC041860171E430197E9EB831BB8CE34-2024-11-24-18-06-31","","null","","[]","null","",""
"","","","","","image-button-response","110","2270724","0.0-14.0-1.0-0.7","CC041860171E430197E9EB831BB8CE34","CC041860171E430197E9EB831BB8CE34","f05c3c61-9552-4ba0-8876-25d83afd95f0","a0a8f18c-a66e-4ba7-a170-23efbdc67501","{""participantId"":""CC041860171E430197E9EB831BB8CE34"",""assignmentId"":""f05c3c61-9552-4ba0-8876-25d83afd95f0"",""projectId"":""a0a8f18c-a66e-4ba7-a170-23efbdc67501""}","https://test12345.live/?participantId=CC041860171E430197E9EB831BB8CE34&assignmentId=f05c3c61-9552-4ba0-8876-25d83afd95f0&projectId=a0a8f18c-a66e-4ba7-a170-23efbdc67501","CC041860171E430197E9EB831BB8CE34-2024-11-24-18-06-31","","null","","images/schematic_sequence/flight_scheme/flight_scheme_5.png","null","",""
"","","","","","image-button-response","111","2272120","0.0-14.0-1.0-1.7","CC041860171E430197E9EB831BB8CE34","CC041860171E430197E9EB831BB8CE34","f05c3c61-9552-4ba0-8876-25d83afd95f0","a0a8f18c-a66e-4ba7-a170-23efbdc67501","{""participantId"":""CC041860171E430197E9EB831BB8CE34"",""assignmentId"":""f05c3c61-9552-4ba0-8876-25d83afd95f0"",""projectId"":""a0a8f18c-a66e-4ba7-a170-23efbdc67501""}","https://test12345.live/?participantId=CC041860171E430197E9EB831BB8CE34&assignmentId=f05c3c61-9552-4ba0-8876-25d83afd95f0&projectId=a0a8f18c-a66e-4ba7-a170-23efbdc67501","CC041860171E430197E9EB831BB8CE34-2024-11-24-18-06-31","","1396","","images/schematic_sequence/flight_scheme/flight_scheme_5.png","0","",""
"","","","","","image-button-response","112","2273921","0.0-14.0-1.0-2.7","CC041860171E430197E9EB831BB8CE34","CC041860171E430197E9EB831BB8CE34","f05c3c61-9552-4ba0-8876-25d83afd95f0","a0a8f18c-a66e-4ba7-a170-23efbdc67501","{""participantId"":""CC041860171E430197E9EB831BB8CE34"",""assignmentId"":""f05c3c61-9552-4ba0-8876-25d83afd95f0"",""projectId"":""a0a8f18c-a66e-4ba7-a170-23efbdc67501""}","https://test12345.live/?participantId=CC041860171E430197E9EB831BB8CE34&assignmentId=f05c3c61-9552-4ba0-8876-25d83afd95f0&projectId=a0a8f18c-a66e-4ba7-a170-23efbdc67501","CC041860171E430197E9EB831BB8CE34-2024-11-24-18-06-31","","null","","[]","null","",""
"","","","","","image-button-response","113","2278425","0.0-14.0-1.0-0.8","CC041860171E430197E9EB831BB8CE34","CC041860171E430197E9EB831BB8CE34","f05c3c61-9552-4ba0-8876-25d83afd95f0","a0a8f18c-a66e-4ba7-a170-23efbdc67501","{""participantId"":""CC041860171E430197E9EB831BB8CE34"",""assignmentId"":""f05c3c61-9552-4ba0-8876-25d83afd95f0"",""projectId"":""a0a8f18c-a66e-4ba7-a170-23efbdc67501""}","https://test12345.live/?participantId=CC041860171E430197E9EB831BB8CE34&assignmentId=f05c3c61-9552-4ba0-8876-25d83afd95f0&projectId=a0a8f18c-a66e-4ba7-a170-23efbdc67501","CC041860171E430197E9EB831BB8CE34-2024-11-24-18-06-31","","null","","images/schematic_sequence/flight_scheme/flight_scheme_2.png","null","",""
"","","","","","image-button-response","114","2280081","0.0-14.0-1.0-1.8","CC041860171E430197E9EB831BB8CE34","CC041860171E430197E9EB831BB8CE34","f05c3c61-9552-4ba0-8876-25d83afd95f0","a0a8f18c-a66e-4ba7-a170-23efbdc67501","{""participantId"":""CC041860171E430197E9EB831BB8CE34"",""assignmentId"":""f05c3c61-9552-4ba0-8876-25d83afd95f0"",""projectId"":""a0a8f18c-a66e-4ba7-a170-23efbdc67501""}","https://test12345.live/?participantId=CC041860171E430197E9EB831BB8CE34&assignmentId=f05c3c61-9552-4ba0-8876-25d83afd95f0&projectId=a0a8f18c-a66e-4ba7-a170-23efbdc67501","CC041860171E430197E9EB831BB8CE34-2024-11-24-18-06-31","","1655","","images/schematic_sequence/flight_scheme/flight_scheme_2.png","1","",""
"","","","","","image-button-response","115","2281887","0.0-14.0-1.0-2.8","CC041860171E430197E9EB831BB8CE34","CC041860171E430197E9EB831BB8CE34","f05c3c61-9552-4ba0-8876-25d83afd95f0","a0a8f18c-a66e-4ba7-a170-23efbdc67501","{""participantId"":""CC041860171E430197E9EB831BB8CE34"",""assignmentId"":""f05c3c61-9552-4ba0-8876-25d83afd95f0"",""projectId"":""a0a8f18c-a66e-4ba7-a170-23efbdc67501""}","https://test12345.live/?participantId=CC041860171E430197E9EB831BB8CE34&assignmentId=f05c3c61-9552-4ba0-8876-25d83afd95f0&projectId=a0a8f18c-a66e-4ba7-a170-23efbdc67501","CC041860171E430197E9EB831BB8CE34-2024-11-24-18-06-31","","null","","[]","null","",""
"","","","","","image-button-response","116","2286399","0.0-14.0-1.0-0.9","CC041860171E430197E9EB831BB8CE34","CC041860171E430197E9EB831BB8CE34","f05c3c61-9552-4ba0-8876-25d83afd95f0","a0a8f18c-a66e-4ba7-a170-23efbdc67501","{""participantId"":""CC041860171E430197E9EB831BB8CE34"",""assignmentId"":""f05c3c61-9552-4ba0-8876-25d83afd95f0"",""projectId"":""a0a8f18c-a66e-4ba7-a170-23efbdc67501""}","https://test12345.live/?participantId=CC041860171E430197E9EB831BB8CE34&assignmentId=f05c3c61-9552-4ba0-8876-25d83afd95f0&projectId=a0a8f18c-a66e-4ba7-a170-23efbdc67501","CC041860171E430197E9EB831BB8CE34-2024-11-24-18-06-31","","null","","images/schematic_sequence/flight_scheme/flight_scheme_7.png","null","",""
"","","","","","image-button-response","117","2288383","0.0-14.0-1.0-1.9","CC041860171E430197E9EB831BB8CE34","CC041860171E430197E9EB831BB8CE34","f05c3c61-9552-4ba0-8876-25d83afd95f0","a0a8f18c-a66e-4ba7-a170-23efbdc67501","{""participantId"":""CC041860171E430197E9EB831BB8CE34"",""assignmentId"":""f05c3c61-9552-4ba0-8876-25d83afd95f0"",""projectId"":""a0a8f18c-a66e-4ba7-a170-23efbdc67501""}","https://test12345.live/?participantId=CC041860171E430197E9EB831BB8CE34&assignmentId=f05c3c61-9552-4ba0-8876-25d83afd95f0&projectId=a0a8f18c-a66e-4ba7-a170-23efbdc67501","CC041860171E430197E9EB831BB8CE34-2024-11-24-18-06-31","","1984","","images/schematic_sequence/flight_scheme/flight_scheme_7.png","1","",""
"","","","","","image-button-response","118","2290192","0.0-14.0-1.0-2.9","CC041860171E430197E9EB831BB8CE34","CC041860171E430197E9EB831BB8CE34","f05c3c61-9552-4ba0-8876-25d83afd95f0","a0a8f18c-a66e-4ba7-a170-23efbdc67501","{""participantId"":""CC041860171E430197E9EB831BB8CE34"",""assignmentId"":""f05c3c61-9552-4ba0-8876-25d83afd95f0"",""projectId"":""a0a8f18c-a66e-4ba7-a170-23efbdc67501""}","https://test12345.live/?participantId=CC041860171E430197E9EB831BB8CE34&assignmentId=f05c3c61-9552-4ba0-8876-25d83afd95f0&projectId=a0a8f18c-a66e-4ba7-a170-23efbdc67501","CC041860171E430197E9EB831BB8CE34-2024-11-24-18-06-31","","null","","[]","null","",""
"","","","","","html-audio-response","119","2319430","0.0-15.0","CC041860171E430197E9EB831BB8CE34","CC041860171E430197E9EB831BB8CE34","f05c3c61-9552-4ba0-8876-25d83afd95f0","a0a8f18c-a66e-4ba7-a170-23efbdc67501","{""participantId"":""CC041860171E430197E9EB831BB8CE34"",""assignmentId"":""f05c3c61-9552-4ba0-8876-25d83afd95f0"",""projectId"":""a0a8f18c-a66e-4ba7-a170-23efbdc67501""}","https://test12345.live/?participantId=CC041860171E430197E9EB831BB8CE34&assignmentId=f05c3c61-9552-4ba0-8876-25d83afd95f0&projectId=a0a8f18c-a66e-4ba7-a170-23efbdc67501","CC041860171E430197E9EB831BB8CE34-2024-11-24-18-06-31","","21744","","[""<span style=\""color: red; font-size: 24px\""> NOW RECORDING</span><p>Please say out loud all the images you saw, as many as you can remember. The images can be said in any order.</p>""]","","7","flight_scheme"
"","","","","","image-button-response","120","2325446","0.0-16.0-0.0","CC041860171E430197E9EB831BB8CE34","CC041860171E430197E9EB831BB8CE34","f05c3c61-9552-4ba0-8876-25d83afd95f0","a0a8f18c-a66e-4ba7-a170-23efbdc67501","{""participantId"":""CC041860171E430197E9EB831BB8CE34"",""assignmentId"":""f05c3c61-9552-4ba0-8876-25d83afd95f0"",""projectId"":""a0a8f18c-a66e-4ba7-a170-23efbdc67501""}","https://test12345.live/?participantId=CC041860171E430197E9EB831BB8CE34&assignmentId=f05c3c61-9552-4ba0-8876-25d83afd95f0&projectId=a0a8f18c-a66e-4ba7-a170-23efbdc67501","CC041860171E430197E9EB831BB8CE34-2024-11-24-18-06-31","","null","","images/causal_sequence/dog_causal/dog_causal_0.png","null","",""
"","","","","","image-button-response","121","2329954","0.0-16.0-1.0-0.0","CC041860171E430197E9EB831BB8CE34","CC041860171E430197E9EB831BB8CE34","f05c3c61-9552-4ba0-8876-25d83afd95f0","a0a8f18c-a66e-4ba7-a170-23efbdc67501","{""participantId"":""CC041860171E430197E9EB831BB8CE34"",""assignmentId"":""f05c3c61-9552-4ba0-8876-25d83afd95f0"",""projectId"":""a0a8f18c-a66e-4ba7-a170-23efbdc67501""}","https://test12345.live/?participantId=CC041860171E430197E9EB831BB8CE34&assignmentId=f05c3c61-9552-4ba0-8876-25d83afd95f0&projectId=a0a8f18c-a66e-4ba7-a170-23efbdc67501","CC041860171E430197E9EB831BB8CE34-2024-11-24-18-06-31","","null","","images/causal_sequence/dog_causal/dog_causal_1.png","null","",""
"","","","","","image-button-response","122","2332273","0.0-16.0-1.0-1.0","CC041860171E430197E9EB831BB8CE34","CC041860171E430197E9EB831BB8CE34","f05c3c61-9552-4ba0-8876-25d83afd95f0","a0a8f18c-a66e-4ba7-a170-23efbdc67501","{""participantId"":""CC041860171E430197E9EB831BB8CE34"",""assignmentId"":""f05c3c61-9552-4ba0-8876-25d83afd95f0"",""projectId"":""a0a8f18c-a66e-4ba7-a170-23efbdc67501""}","https://test12345.live/?participantId=CC041860171E430197E9EB831BB8CE34&assignmentId=f05c3c61-9552-4ba0-8876-25d83afd95f0&projectId=a0a8f18c-a66e-4ba7-a170-23efbdc67501","CC041860171E430197E9EB831BB8CE34-2024-11-24-18-06-31","","2319","","images/causal_sequence/dog_causal/dog_causal_1.png","0","",""
"","","","","","image-button-response","123","2334081","0.0-16.0-1.0-2.0","CC041860171E430197E9EB831BB8CE34","CC041860171E430197E9EB831BB8CE34","f05c3c61-9552-4ba0-8876-25d83afd95f0","a0a8f18c-a66e-4ba7-a170-23efbdc67501","{""participantId"":""CC041860171E430197E9EB831BB8CE34"",""assignmentId"":""f05c3c61-9552-4ba0-8876-25d83afd95f0"",""projectId"":""a0a8f18c-a66e-4ba7-a170-23efbdc67501""}","https://test12345.live/?participantId=CC041860171E430197E9EB831BB8CE34&assignmentId=f05c3c61-9552-4ba0-8876-25d83afd95f0&projectId=a0a8f18c-a66e-4ba7-a170-23efbdc67501","CC041860171E430197E9EB831BB8CE34-2024-11-24-18-06-31","","null","","[]","null","",""
"","","","","","image-button-response","124","2338591","0.0-16.0-1.0-0.1","CC041860171E430197E9EB831BB8CE34","CC041860171E430197E9EB831BB8CE34","f05c3c61-9552-4ba0-8876-25d83afd95f0","a0a8f18c-a66e-4ba7-a170-23efbdc67501","{""participantId"":""CC041860171E430197E9EB831BB8CE34"",""assignmentId"":""f05c3c61-9552-4ba0-8876-25d83afd95f0"",""projectId"":""a0a8f18c-a66e-4ba7-a170-23efbdc67501""}","https://test12345.live/?participantId=CC041860171E430197E9EB831BB8CE34&assignmentId=f05c3c61-9552-4ba0-8876-25d83afd95f0&projectId=a0a8f18c-a66e-4ba7-a170-23efbdc67501","CC041860171E430197E9EB831BB8CE34-2024-11-24-18-06-31","","null","","images/causal_sequence/dog_causal/dog_causal_2.png","null","",""
"","","","","","image-button-response","125","2339612","0.0-16.0-1.0-1.1","CC041860171E430197E9EB831BB8CE34","CC041860171E430197E9EB831BB8CE34","f05c3c61-9552-4ba0-8876-25d83afd95f0","a0a8f18c-a66e-4ba7-a170-23efbdc67501","{""participantId"":""CC041860171E430197E9EB831BB8CE34"",""assignmentId"":""f05c3c61-9552-4ba0-8876-25d83afd95f0"",""projectId"":""a0a8f18c-a66e-4ba7-a170-23efbdc67501""}","https://test12345.live/?participantId=CC041860171E430197E9EB831BB8CE34&assignmentId=f05c3c61-9552-4ba0-8876-25d83afd95f0&projectId=a0a8f18c-a66e-4ba7-a170-23efbdc67501","CC041860171E430197E9EB831BB8CE34-2024-11-24-18-06-31","","1021","","images/causal_sequence/dog_causal/dog_causal_2.png","0","",""
"","","","","","image-button-response","126","2341420","0.0-16.0-1.0-2.1","CC041860171E430197E9EB831BB8CE34","CC041860171E430197E9EB831BB8CE34","f05c3c61-9552-4ba0-8876-25d83afd95f0","a0a8f18c-a66e-4ba7-a170-23efbdc67501","{""participantId"":""CC041860171E430197E9EB831BB8CE34"",""assignmentId"":""f05c3c61-9552-4ba0-8876-25d83afd95f0"",""projectId"":""a0a8f18c-a66e-4ba7-a170-23efbdc67501""}","https://test12345.live/?participantId=CC041860171E430197E9EB831BB8CE34&assignmentId=f05c3c61-9552-4ba0-8876-25d83afd95f0&projectId=a0a8f18c-a66e-4ba7-a170-23efbdc67501","CC041860171E430197E9EB831BB8CE34-2024-11-24-18-06-31","","null","","[]","null","",""
"","","","","","image-button-response","127","2345934","0.0-16.0-1.0-0.2","CC041860171E430197E9EB831BB8CE34","CC041860171E430197E9EB831BB8CE34","f05c3c61-9552-4ba0-8876-25d83afd95f0","a0a8f18c-a66e-4ba7-a170-23efbdc67501","{""participantId"":""CC041860171E430197E9EB831BB8CE34"",""assignmentId"":""f05c3c61-9552-4ba0-8876-25d83afd95f0"",""projectId"":""a0a8f18c-a66e-4ba7-a170-23efbdc67501""}","https://test12345.live/?participantId=CC041860171E430197E9EB831BB8CE34&assignmentId=f05c3c61-9552-4ba0-8876-25d83afd95f0&projectId=a0a8f18c-a66e-4ba7-a170-23efbdc67501","CC041860171E430197E9EB831BB8CE34-2024-11-24-18-06-31","","null","","images/causal_sequence/dog_causal/dog_causal_3.png","null","",""
"","","","","","image-button-response","128","2347782","0.0-16.0-1.0-1.2","CC041860171E430197E9EB831BB8CE34","CC041860171E430197E9EB831BB8CE34","f05c3c61-9552-4ba0-8876-25d83afd95f0","a0a8f18c-a66e-4ba7-a170-23efbdc67501","{""participantId"":""CC041860171E430197E9EB831BB8CE34"",""assignmentId"":""f05c3c61-9552-4ba0-8876-25d83afd95f0"",""projectId"":""a0a8f18c-a66e-4ba7-a170-23efbdc67501""}","https://test12345.live/?participantId=CC041860171E430197E9EB831BB8CE34&assignmentId=f05c3c61-9552-4ba0-8876-25d83afd95f0&projectId=a0a8f18c-a66e-4ba7-a170-23efbdc67501","CC041860171E430197E9EB831BB8CE34-2024-11-24-18-06-31","","1846","","images/causal_sequence/dog_causal/dog_causal_3.png","0","",""
"","","","","","image-button-response","129","2349591","0.0-16.0-1.0-2.2","CC041860171E430197E9EB831BB8CE34","CC041860171E430197E9EB831BB8CE34","f05c3c61-9552-4ba0-8876-25d83afd95f0","a0a8f18c-a66e-4ba7-a170-23efbdc67501","{""participantId"":""CC041860171E430197E9EB831BB8CE34"",""assignmentId"":""f05c3c61-9552-4ba0-8876-25d83afd95f0"",""projectId"":""a0a8f18c-a66e-4ba7-a170-23efbdc67501""}","https://test12345.live/?participantId=CC041860171E430197E9EB831BB8CE34&assignmentId=f05c3c61-9552-4ba0-8876-25d83afd95f0&projectId=a0a8f18c-a66e-4ba7-a170-23efbdc67501","CC041860171E430197E9EB831BB8CE34-2024-11-24-18-06-31","","null","","[]","null","",""
"","","","","","image-button-response","130","2354095","0.0-16.0-1.0-0.3","CC041860171E430197E9EB831BB8CE34","CC041860171E430197E9EB831BB8CE34","f05c3c61-9552-4ba0-8876-25d83afd95f0","a0a8f18c-a66e-4ba7-a170-23efbdc67501","{""participantId"":""CC041860171E430197E9EB831BB8CE34"",""assignmentId"":""f05c3c61-9552-4ba0-8876-25d83afd95f0"",""projectId"":""a0a8f18c-a66e-4ba7-a170-23efbdc67501""}","https://test12345.live/?participantId=CC041860171E430197E9EB831BB8CE34&assignmentId=f05c3c61-9552-4ba0-8876-25d83afd95f0&projectId=a0a8f18c-a66e-4ba7-a170-23efbdc67501","CC041860171E430197E9EB831BB8CE34-2024-11-24-18-06-31","","null","","images/causal_sequence/dog_causal/dog_causal_4.png","null","",""
"","","","","","image-button-response","131","2355199","0.0-16.0-1.0-1.3","CC041860171E430197E9EB831BB8CE34","CC041860171E430197E9EB831BB8CE34","f05c3c61-9552-4ba0-8876-25d83afd95f0","a0a8f18c-a66e-4ba7-a170-23efbdc67501","{""participantId"":""CC041860171E430197E9EB831BB8CE34"",""assignmentId"":""f05c3c61-9552-4ba0-8876-25d83afd95f0"",""projectId"":""a0a8f18c-a66e-4ba7-a170-23efbdc67501""}","https://test12345.live/?participantId=CC041860171E430197E9EB831BB8CE34&assignmentId=f05c3c61-9552-4ba0-8876-25d83afd95f0&projectId=a0a8f18c-a66e-4ba7-a170-23efbdc67501","CC041860171E430197E9EB831BB8CE34-2024-11-24-18-06-31","","1103","","images/causal_sequence/dog_causal/dog_causal_4.png","0","",""
"","","","","","image-button-response","132","2357001","0.0-16.0-1.0-2.3","CC041860171E430197E9EB831BB8CE34","CC041860171E430197E9EB831BB8CE34","f05c3c61-9552-4ba0-8876-25d83afd95f0","a0a8f18c-a66e-4ba7-a170-23efbdc67501","{""participantId"":""CC041860171E430197E9EB831BB8CE34"",""assignmentId"":""f05c3c61-9552-4ba0-8876-25d83afd95f0"",""projectId"":""a0a8f18c-a66e-4ba7-a170-23efbdc67501""}","https://test12345.live/?participantId=CC041860171E430197E9EB831BB8CE34&assignmentId=f05c3c61-9552-4ba0-8876-25d83afd95f0&projectId=a0a8f18c-a66e-4ba7-a170-23efbdc67501","CC041860171E430197E9EB831BB8CE34-2024-11-24-18-06-31","","null","","[]","null","",""
"","","","","","image-button-response","133","2361517","0.0-16.0-1.0-0.4","CC041860171E430197E9EB831BB8CE34","CC041860171E430197E9EB831BB8CE34","f05c3c61-9552-4ba0-8876-25d83afd95f0","a0a8f18c-a66e-4ba7-a170-23efbdc67501","{""participantId"":""CC041860171E430197E9EB831BB8CE34"",""assignmentId"":""f05c3c61-9552-4ba0-8876-25d83afd95f0"",""projectId"":""a0a8f18c-a66e-4ba7-a170-23efbdc67501""}","https://test12345.live/?participantId=CC041860171E430197E9EB831BB8CE34&assignmentId=f05c3c61-9552-4ba0-8876-25d83afd95f0&projectId=a0a8f18c-a66e-4ba7-a170-23efbdc67501","CC041860171E430197E9EB831BB8CE34-2024-11-24-18-06-31","","null","","images/causal_sequence/dog_causal/dog_causal_5.png","null","",""
"","","","","","image-button-response","134","2363841","0.0-16.0-1.0-1.4","CC041860171E430197E9EB831BB8CE34","CC041860171E430197E9EB831BB8CE34","f05c3c61-9552-4ba0-8876-25d83afd95f0","a0a8f18c-a66e-4ba7-a170-23efbdc67501","{""participantId"":""CC041860171E430197E9EB831BB8CE34"",""assignmentId"":""f05c3c61-9552-4ba0-8876-25d83afd95f0"",""projectId"":""a0a8f18c-a66e-4ba7-a170-23efbdc67501""}","https://test12345.live/?participantId=CC041860171E430197E9EB831BB8CE34&assignmentId=f05c3c61-9552-4ba0-8876-25d83afd95f0&projectId=a0a8f18c-a66e-4ba7-a170-23efbdc67501","CC041860171E430197E9EB831BB8CE34-2024-11-24-18-06-31","","2322","","images/causal_sequence/dog_causal/dog_causal_5.png","0","",""
"","","","","","image-button-response","135","2365658","0.0-16.0-1.0-2.4","CC041860171E430197E9EB831BB8CE34","CC041860171E430197E9EB831BB8CE34","f05c3c61-9552-4ba0-8876-25d83afd95f0","a0a8f18c-a66e-4ba7-a170-23efbdc67501","{""participantId"":""CC041860171E430197E9EB831BB8CE34"",""assignmentId"":""f05c3c61-9552-4ba0-8876-25d83afd95f0"",""projectId"":""a0a8f18c-a66e-4ba7-a170-23efbdc67501""}","https://test12345.live/?participantId=CC041860171E430197E9EB831BB8CE34&assignmentId=f05c3c61-9552-4ba0-8876-25d83afd95f0&projectId=a0a8f18c-a66e-4ba7-a170-23efbdc67501","CC041860171E430197E9EB831BB8CE34-2024-11-24-18-06-31","","null","","[]","null","",""
"","","","","","image-button-response","136","2370159","0.0-16.0-1.0-0.5","CC041860171E430197E9EB831BB8CE34","CC041860171E430197E9EB831BB8CE34","f05c3c61-9552-4ba0-8876-25d83afd95f0","a0a8f18c-a66e-4ba7-a170-23efbdc67501","{""participantId"":""CC041860171E430197E9EB831BB8CE34"",""assignmentId"":""f05c3c61-9552-4ba0-8876-25d83afd95f0"",""projectId"":""a0a8f18c-a66e-4ba7-a170-23efbdc67501""}","https://test12345.live/?participantId=CC041860171E430197E9EB831BB8CE34&assignmentId=f05c3c61-9552-4ba0-8876-25d83afd95f0&projectId=a0a8f18c-a66e-4ba7-a170-23efbdc67501","CC041860171E430197E9EB831BB8CE34-2024-11-24-18-06-31","","null","","images/causal_sequence/dog_causal/dog_causal_6.png","null","",""
"","","","","","image-button-response","137","2371239","0.0-16.0-1.0-1.5","CC041860171E430197E9EB831BB8CE34","CC041860171E430197E9EB831BB8CE34","f05c3c61-9552-4ba0-8876-25d83afd95f0","a0a8f18c-a66e-4ba7-a170-23efbdc67501","{""participantId"":""CC041860171E430197E9EB831BB8CE34"",""assignmentId"":""f05c3c61-9552-4ba0-8876-25d83afd95f0"",""projectId"":""a0a8f18c-a66e-4ba7-a170-23efbdc67501""}","https://test12345.live/?participantId=CC041860171E430197E9EB831BB8CE34&assignmentId=f05c3c61-9552-4ba0-8876-25d83afd95f0&projectId=a0a8f18c-a66e-4ba7-a170-23efbdc67501","CC041860171E430197E9EB831BB8CE34-2024-11-24-18-06-31","","1078","","images/causal_sequence/dog_causal/dog_causal_6.png","0","",""
"","","","","","image-button-response","138","2373051","0.0-16.0-1.0-2.5","CC041860171E430197E9EB831BB8CE34","CC041860171E430197E9EB831BB8CE34","f05c3c61-9552-4ba0-8876-25d83afd95f0","a0a8f18c-a66e-4ba7-a170-23efbdc67501","{""participantId"":""CC041860171E430197E9EB831BB8CE34"",""assignmentId"":""f05c3c61-9552-4ba0-8876-25d83afd95f0"",""projectId"":""a0a8f18c-a66e-4ba7-a170-23efbdc67501""}","https://test12345.live/?participantId=CC041860171E430197E9EB831BB8CE34&assignmentId=f05c3c61-9552-4ba0-8876-25d83afd95f0&projectId=a0a8f18c-a66e-4ba7-a170-23efbdc67501","CC041860171E430197E9EB831BB8CE34-2024-11-24-18-06-31","","null","","[]","null","",""
"","","","","","image-button-response","139","2377555","0.0-16.0-1.0-0.6","CC041860171E430197E9EB831BB8CE34","CC041860171E430197E9EB831BB8CE34","f05c3c61-9552-4ba0-8876-25d83afd95f0","a0a8f18c-a66e-4ba7-a170-23efbdc67501","{""participantId"":""CC041860171E430197E9EB831BB8CE34"",""assignmentId"":""f05c3c61-9552-4ba0-8876-25d83afd95f0"",""projectId"":""a0a8f18c-a66e-4ba7-a170-23efbdc67501""}","https://test12345.live/?participantId=CC041860171E430197E9EB831BB8CE34&assignmentId=f05c3c61-9552-4ba0-8876-25d83afd95f0&projectId=a0a8f18c-a66e-4ba7-a170-23efbdc67501","CC041860171E430197E9EB831BB8CE34-2024-11-24-18-06-31","","null","","images/causal_sequence/dog_causal/dog_causal_7.png","null","",""
"","","","","","image-button-response","140","2381557","0.0-16.0-1.0-1.6","CC041860171E430197E9EB831BB8CE34","CC041860171E430197E9EB831BB8CE34","f05c3c61-9552-4ba0-8876-25d83afd95f0","a0a8f18c-a66e-4ba7-a170-23efbdc67501","{""participantId"":""CC041860171E430197E9EB831BB8CE34"",""assignmentId"":""f05c3c61-9552-4ba0-8876-25d83afd95f0"",""projectId"":""a0a8f18c-a66e-4ba7-a170-23efbdc67501""}","https://test12345.live/?participantId=CC041860171E430197E9EB831BB8CE34&assignmentId=f05c3c61-9552-4ba0-8876-25d83afd95f0&projectId=a0a8f18c-a66e-4ba7-a170-23efbdc67501","CC041860171E430197E9EB831BB8CE34-2024-11-24-18-06-31","","null","","images/causal_sequence/dog_causal/dog_causal_7.png","null","",""
"","","","","","image-button-response","141","2383361","0.0-16.0-1.0-2.6","CC041860171E430197E9EB831BB8CE34","CC041860171E430197E9EB831BB8CE34","f05c3c61-9552-4ba0-8876-25d83afd95f0","a0a8f18c-a66e-4ba7-a170-23efbdc67501","{""participantId"":""CC041860171E430197E9EB831BB8CE34"",""assignmentId"":""f05c3c61-9552-4ba0-8876-25d83afd95f0"",""projectId"":""a0a8f18c-a66e-4ba7-a170-23efbdc67501""}","https://test12345.live/?participantId=CC041860171E430197E9EB831BB8CE34&assignmentId=f05c3c61-9552-4ba0-8876-25d83afd95f0&projectId=a0a8f18c-a66e-4ba7-a170-23efbdc67501","CC041860171E430197E9EB831BB8CE34-2024-11-24-18-06-31","","null","","[]","null","",""
"","","","","","image-button-response","142","2387872","0.0-16.0-1.0-0.7","CC041860171E430197E9EB831BB8CE34","CC041860171E430197E9EB831BB8CE34","f05c3c61-9552-4ba0-8876-25d83afd95f0","a0a8f18c-a66e-4ba7-a170-23efbdc67501","{""participantId"":""CC041860171E430197E9EB831BB8CE34"",""assignmentId"":""f05c3c61-9552-4ba0-8876-25d83afd95f0"",""projectId"":""a0a8f18c-a66e-4ba7-a170-23efbdc67501""}","https://test12345.live/?participantId=CC041860171E430197E9EB831BB8CE34&assignmentId=f05c3c61-9552-4ba0-8876-25d83afd95f0&projectId=a0a8f18c-a66e-4ba7-a170-23efbdc67501","CC041860171E430197E9EB831BB8CE34-2024-11-24-18-06-31","","null","","images/causal_sequence/dog_causal/dog_causal_8.png","null","",""
"","","","","","image-button-response","143","2389631","0.0-16.0-1.0-1.7","CC041860171E430197E9EB831BB8CE34","CC041860171E430197E9EB831BB8CE34","f05c3c61-9552-4ba0-8876-25d83afd95f0","a0a8f18c-a66e-4ba7-a170-23efbdc67501","{""participantId"":""CC041860171E430197E9EB831BB8CE34"",""assignmentId"":""f05c3c61-9552-4ba0-8876-25d83afd95f0"",""projectId"":""a0a8f18c-a66e-4ba7-a170-23efbdc67501""}","https://test12345.live/?participantId=CC041860171E430197E9EB831BB8CE34&assignmentId=f05c3c61-9552-4ba0-8876-25d83afd95f0&projectId=a0a8f18c-a66e-4ba7-a170-23efbdc67501","CC041860171E430197E9EB831BB8CE34-2024-11-24-18-06-31","","1757","","images/causal_sequence/dog_causal/dog_causal_8.png","0","",""
