"success","timeout","failed_images","failed_audio","failed_video","trial_type","trial_index","time_elapsed","internal_node_id","subject","subject_id","study_id","session_id","urlvar","current_url","audio_id","view_history","rt","device_id","stimulus","response","estimated_stimulus_onset","seq_name"
"true","false","[]","[]","[]","preload","0","13985","0.0-0.0","E0710E40E06545068AC6FAE1ABDB3983","E0710E40E06545068AC6FAE1ABDB3983","c45934ee-c8a3-4296-aee9-9f2ef82fe41c","a0a8f18c-a66e-4ba7-a170-23efbdc67501","{""participantId"":""E0710E40E06545068AC6FAE1ABDB3983"",""assignmentId"":""c45934ee-c8a3-4296-aee9-9f2ef82fe41c"",""projectId"":""a0a8f18c-a66e-4ba7-a170-23efbdc67501""}","https://test12345.live/?participantId=E0710E40E06545068AC6FAE1ABDB3983&assignmentId=c45934ee-c8a3-4296-aee9-9f2ef82fe41c&projectId=a0a8f18c-a66e-4ba7-a170-23efbdc67501","E0710E40E06545068AC6FAE1ABDB3983-2024-11-24-18-58-49","","","","","","",""
"","","","","","instructions","1","810053","0.0-1.0","E0710E40E06545068AC6FAE1ABDB3983","E0710E40E06545068AC6FAE1ABDB3983","c45934ee-c8a3-4296-aee9-9f2ef82fe41c","a0a8f18c-a66e-4ba7-a170-23efbdc67501","{""participantId"":""E0710E40E06545068AC6FAE1ABDB3983"",""assignmentId"":""c45934ee-c8a3-4296-aee9-9f2ef82fe41c"",""projectId"":""a0a8f18c-a66e-4ba7-a170-23efbdc67501""}","https://test12345.live/?participantId=E0710E40E06545068AC6FAE1ABDB3983&assignmentId=c45934ee-c8a3-4296-aee9-9f2ef82fe41c&projectId=a0a8f18c-a66e-4ba7-a170-23efbdc67501","E0710E40E06545068AC6FAE1ABDB3983-2024-11-24-18-58-49","[{""page_index"":0,""viewing_time"":796090}]","796090","","","","",""
"","","","","","instructions","2","821951","0.0-2.0","E0710E40E06545068AC6FAE1ABDB3983","E0710E40E06545068AC6FAE1ABDB3983","c45934ee-c8a3-4296-aee9-9f2ef82fe41c","a0a8f18c-a66e-4ba7-a170-23efbdc67501","{""participantId"":""E0710E40E06545068AC6FAE1ABDB3983"",""assignmentId"":""c45934ee-c8a3-4296-aee9-9f2ef82fe41c"",""projectId"":""a0a8f18c-a66e-4ba7-a170-23efbdc67501""}","https://test12345.live/?participantId=E0710E40E06545068AC6FAE1ABDB3983&assignmentId=c45934ee-c8a3-4296-aee9-9f2ef82fe41c&projectId=a0a8f18c-a66e-4ba7-a170-23efbdc67501","E0710E40E06545068AC6FAE1ABDB3983-2024-11-24-18-58-49","[{""page_index"":0,""viewing_time"":11896}]","11896","","","","",""
"true","","","","","fullscreen","3","824333","0.0-3.0","E0710E40E06545068AC6FAE1ABDB3983","E0710E40E06545068AC6FAE1ABDB3983","c45934ee-c8a3-4296-aee9-9f2ef82fe41c","a0a8f18c-a66e-4ba7-a170-23efbdc67501","{""participantId"":""E0710E40E06545068AC6FAE1ABDB3983"",""assignmentId"":""c45934ee-c8a3-4296-aee9-9f2ef82fe41c"",""projectId"":""a0a8f18c-a66e-4ba7-a170-23efbdc67501""}","https://test12345.live/?participantId=E0710E40E06545068AC6FAE1ABDB3983&assignmentId=c45934ee-c8a3-4296-aee9-9f2ef82fe41c&projectId=a0a8f18c-a66e-4ba7-a170-23efbdc67501","E0710E40E06545068AC6FAE1ABDB3983-2024-11-24-18-58-49","","1380","","","","",""
"","","","","","initialize-microphone","4","827659","0.0-4.0-0.0","E0710E40E06545068AC6FAE1ABDB3983","E0710E40E06545068AC6FAE1ABDB3983","c45934ee-c8a3-4296-aee9-9f2ef82fe41c","a0a8f18c-a66e-4ba7-a170-23efbdc67501","{""participantId"":""E0710E40E06545068AC6FAE1ABDB3983"",""assignmentId"":""c45934ee-c8a3-4296-aee9-9f2ef82fe41c"",""projectId"":""a0a8f18c-a66e-4ba7-a170-23efbdc67501""}","https://test12345.live/?participantId=E0710E40E06545068AC6FAE1ABDB3983&assignmentId=c45934ee-c8a3-4296-aee9-9f2ef82fe41c&projectId=a0a8f18c-a66e-4ba7-a170-23efbdc67501","E0710E40E06545068AC6FAE1ABDB3983-2024-11-24-18-58-49","","","7f2875f8da9979a1cdf03ac7e23aa52c4cb5926bc556cd2e182fd0cf3af9c20a","","","",""
"","","","","","html-audio-response","5","838678","0.0-4.0-1.0","E0710E40E06545068AC6FAE1ABDB3983","E0710E40E06545068AC6FAE1ABDB3983","c45934ee-c8a3-4296-aee9-9f2ef82fe41c","a0a8f18c-a66e-4ba7-a170-23efbdc67501","{""participantId"":""E0710E40E06545068AC6FAE1ABDB3983"",""assignmentId"":""c45934ee-c8a3-4296-aee9-9f2ef82fe41c"",""projectId"":""a0a8f18c-a66e-4ba7-a170-23efbdc67501""}","https://test12345.live/?participantId=E0710E40E06545068AC6FAE1ABDB3983&assignmentId=c45934ee-c8a3-4296-aee9-9f2ef82fe41c&projectId=a0a8f18c-a66e-4ba7-a170-23efbdc67501","E0710E40E06545068AC6FAE1ABDB3983-2024-11-24-18-58-49","","3374","","<span style=""color: red; font-size: 24px""> NOW RECORDING</span>
        <p>Please test Microphone</p>","","2",""
"","","","","","html-button-response","6","839831","0.0-4.0-2.0","E0710E40E06545068AC6FAE1ABDB3983","E0710E40E06545068AC6FAE1ABDB3983","c45934ee-c8a3-4296-aee9-9f2ef82fe41c","a0a8f18c-a66e-4ba7-a170-23efbdc67501","{""participantId"":""E0710E40E06545068AC6FAE1ABDB3983"",""assignmentId"":""c45934ee-c8a3-4296-aee9-9f2ef82fe41c"",""projectId"":""a0a8f18c-a66e-4ba7-a170-23efbdc67501""}","https://test12345.live/?participantId=E0710E40E06545068AC6FAE1ABDB3983&assignmentId=c45934ee-c8a3-4296-aee9-9f2ef82fe41c&projectId=a0a8f18c-a66e-4ba7-a170-23efbdc67501","E0710E40E06545068AC6FAE1ABDB3983-2024-11-24-18-58-49","","1151","","<p style=""font-size:48px; color:red;"">Is Microphone OK?</p>","1","",""
"","","","","","instructions","7","845648","0.0-5.0","E0710E40E06545068AC6FAE1ABDB3983","E0710E40E06545068AC6FAE1ABDB3983","c45934ee-c8a3-4296-aee9-9f2ef82fe41c","a0a8f18c-a66e-4ba7-a170-23efbdc67501","{""participantId"":""E0710E40E06545068AC6FAE1ABDB3983"",""assignmentId"":""c45934ee-c8a3-4296-aee9-9f2ef82fe41c"",""projectId"":""a0a8f18c-a66e-4ba7-a170-23efbdc67501""}","https://test12345.live/?participantId=E0710E40E06545068AC6FAE1ABDB3983&assignmentId=c45934ee-c8a3-4296-aee9-9f2ef82fe41c&projectId=a0a8f18c-a66e-4ba7-a170-23efbdc67501","E0710E40E06545068AC6FAE1ABDB3983-2024-11-24-18-58-49","[{""page_index"":0,""viewing_time"":2085},{""page_index"":1,""viewing_time"":3732}]","5817","","","","",""
"","","","","","image-button-response","8","851652","0.0-6.0-0.0","E0710E40E06545068AC6FAE1ABDB3983","E0710E40E06545068AC6FAE1ABDB3983","c45934ee-c8a3-4296-aee9-9f2ef82fe41c","a0a8f18c-a66e-4ba7-a170-23efbdc67501","{""participantId"":""E0710E40E06545068AC6FAE1ABDB3983"",""assignmentId"":""c45934ee-c8a3-4296-aee9-9f2ef82fe41c"",""projectId"":""a0a8f18c-a66e-4ba7-a170-23efbdc67501""}","https://test12345.live/?participantId=E0710E40E06545068AC6FAE1ABDB3983&assignmentId=c45934ee-c8a3-4296-aee9-9f2ef82fe41c&projectId=a0a8f18c-a66e-4ba7-a170-23efbdc67501","E0710E40E06545068AC6FAE1ABDB3983-2024-11-24-18-58-49","","null","","images/instructions/movie_0.png","null","",""
"","","","","","image-button-response","9","856155","0.0-6.0-1.0-0.0","E0710E40E06545068AC6FAE1ABDB3983","E0710E40E06545068AC6FAE1ABDB3983","c45934ee-c8a3-4296-aee9-9f2ef82fe41c","a0a8f18c-a66e-4ba7-a170-23efbdc67501","{""participantId"":""E0710E40E06545068AC6FAE1ABDB3983"",""assignmentId"":""c45934ee-c8a3-4296-aee9-9f2ef82fe41c"",""projectId"":""a0a8f18c-a66e-4ba7-a170-23efbdc67501""}","https://test12345.live/?participantId=E0710E40E06545068AC6FAE1ABDB3983&assignmentId=c45934ee-c8a3-4296-aee9-9f2ef82fe41c&projectId=a0a8f18c-a66e-4ba7-a170-23efbdc67501","E0710E40E06545068AC6FAE1ABDB3983-2024-11-24-18-58-49","","null","","images/instructions/movie_1.png","null","",""
"","","","","","image-button-response","10","858281","0.0-6.0-1.0-1.0","E0710E40E06545068AC6FAE1ABDB3983","E0710E40E06545068AC6FAE1ABDB3983","c45934ee-c8a3-4296-aee9-9f2ef82fe41c","a0a8f18c-a66e-4ba7-a170-23efbdc67501","{""participantId"":""E0710E40E06545068AC6FAE1ABDB3983"",""assignmentId"":""c45934ee-c8a3-4296-aee9-9f2ef82fe41c"",""projectId"":""a0a8f18c-a66e-4ba7-a170-23efbdc67501""}","https://test12345.live/?participantId=E0710E40E06545068AC6FAE1ABDB3983&assignmentId=c45934ee-c8a3-4296-aee9-9f2ef82fe41c&projectId=a0a8f18c-a66e-4ba7-a170-23efbdc67501","E0710E40E06545068AC6FAE1ABDB3983-2024-11-24-18-58-49","","2124","","images/instructions/movie_1.png","0","",""
"","","","","","image-button-response","11","860085","0.0-6.0-1.0-2.0","E0710E40E06545068AC6FAE1ABDB3983","E0710E40E06545068AC6FAE1ABDB3983","c45934ee-c8a3-4296-aee9-9f2ef82fe41c","a0a8f18c-a66e-4ba7-a170-23efbdc67501","{""participantId"":""E0710E40E06545068AC6FAE1ABDB3983"",""assignmentId"":""c45934ee-c8a3-4296-aee9-9f2ef82fe41c"",""projectId"":""a0a8f18c-a66e-4ba7-a170-23efbdc67501""}","https://test12345.live/?participantId=E0710E40E06545068AC6FAE1ABDB3983&assignmentId=c45934ee-c8a3-4296-aee9-9f2ef82fe41c&projectId=a0a8f18c-a66e-4ba7-a170-23efbdc67501","E0710E40E06545068AC6FAE1ABDB3983-2024-11-24-18-58-49","","null","","[]","null","",""
"","","","","","image-button-response","12","864592","0.0-6.0-1.0-0.1","E0710E40E06545068AC6FAE1ABDB3983","E0710E40E06545068AC6FAE1ABDB3983","c45934ee-c8a3-4296-aee9-9f2ef82fe41c","a0a8f18c-a66e-4ba7-a170-23efbdc67501","{""participantId"":""E0710E40E06545068AC6FAE1ABDB3983"",""assignmentId"":""c45934ee-c8a3-4296-aee9-9f2ef82fe41c"",""projectId"":""a0a8f18c-a66e-4ba7-a170-23efbdc67501""}","https://test12345.live/?participantId=E0710E40E06545068AC6FAE1ABDB3983&assignmentId=c45934ee-c8a3-4296-aee9-9f2ef82fe41c&projectId=a0a8f18c-a66e-4ba7-a170-23efbdc67501","E0710E40E06545068AC6FAE1ABDB3983-2024-11-24-18-58-49","","null","","images/instructions/movie_2.png","null","",""
"","","","","","image-button-response","13","866643","0.0-6.0-1.0-1.1","E0710E40E06545068AC6FAE1ABDB3983","E0710E40E06545068AC6FAE1ABDB3983","c45934ee-c8a3-4296-aee9-9f2ef82fe41c","a0a8f18c-a66e-4ba7-a170-23efbdc67501","{""participantId"":""E0710E40E06545068AC6FAE1ABDB3983"",""assignmentId"":""c45934ee-c8a3-4296-aee9-9f2ef82fe41c"",""projectId"":""a0a8f18c-a66e-4ba7-a170-23efbdc67501""}","https://test12345.live/?participantId=E0710E40E06545068AC6FAE1ABDB3983&assignmentId=c45934ee-c8a3-4296-aee9-9f2ef82fe41c&projectId=a0a8f18c-a66e-4ba7-a170-23efbdc67501","E0710E40E06545068AC6FAE1ABDB3983-2024-11-24-18-58-49","","2043","","images/instructions/movie_2.png","0","",""
"","","","","","image-button-response","14","868446","0.0-6.0-1.0-2.1","E0710E40E06545068AC6FAE1ABDB3983","E0710E40E06545068AC6FAE1ABDB3983","c45934ee-c8a3-4296-aee9-9f2ef82fe41c","a0a8f18c-a66e-4ba7-a170-23efbdc67501","{""participantId"":""E0710E40E06545068AC6FAE1ABDB3983"",""assignmentId"":""c45934ee-c8a3-4296-aee9-9f2ef82fe41c"",""projectId"":""a0a8f18c-a66e-4ba7-a170-23efbdc67501""}","https://test12345.live/?participantId=E0710E40E06545068AC6FAE1ABDB3983&assignmentId=c45934ee-c8a3-4296-aee9-9f2ef82fe41c&projectId=a0a8f18c-a66e-4ba7-a170-23efbdc67501","E0710E40E06545068AC6FAE1ABDB3983-2024-11-24-18-58-49","","null","","[]","null","",""
"","","","","","image-button-response","15","872955","0.0-6.0-1.0-0.2","E0710E40E06545068AC6FAE1ABDB3983","E0710E40E06545068AC6FAE1ABDB3983","c45934ee-c8a3-4296-aee9-9f2ef82fe41c","a0a8f18c-a66e-4ba7-a170-23efbdc67501","{""participantId"":""E0710E40E06545068AC6FAE1ABDB3983"",""assignmentId"":""c45934ee-c8a3-4296-aee9-9f2ef82fe41c"",""projectId"":""a0a8f18c-a66e-4ba7-a170-23efbdc67501""}","https://test12345.live/?participantId=E0710E40E06545068AC6FAE1ABDB3983&assignmentId=c45934ee-c8a3-4296-aee9-9f2ef82fe41c&projectId=a0a8f18c-a66e-4ba7-a170-23efbdc67501","E0710E40E06545068AC6FAE1ABDB3983-2024-11-24-18-58-49","","null","","images/instructions/movie_3.png","null","",""
"","","","","","image-button-response","16","874052","0.0-6.0-1.0-1.2","E0710E40E06545068AC6FAE1ABDB3983","E0710E40E06545068AC6FAE1ABDB3983","c45934ee-c8a3-4296-aee9-9f2ef82fe41c","a0a8f18c-a66e-4ba7-a170-23efbdc67501","{""participantId"":""E0710E40E06545068AC6FAE1ABDB3983"",""assignmentId"":""c45934ee-c8a3-4296-aee9-9f2ef82fe41c"",""projectId"":""a0a8f18c-a66e-4ba7-a170-23efbdc67501""}","https://test12345.live/?participantId=E0710E40E06545068AC6FAE1ABDB3983&assignmentId=c45934ee-c8a3-4296-aee9-9f2ef82fe41c&projectId=a0a8f18c-a66e-4ba7-a170-23efbdc67501","E0710E40E06545068AC6FAE1ABDB3983-2024-11-24-18-58-49","","1093","","images/instructions/movie_3.png","0","",""
"","","","","","image-button-response","17","875855","0.0-6.0-1.0-2.2","E0710E40E06545068AC6FAE1ABDB3983","E0710E40E06545068AC6FAE1ABDB3983","c45934ee-c8a3-4296-aee9-9f2ef82fe41c","a0a8f18c-a66e-4ba7-a170-23efbdc67501","{""participantId"":""E0710E40E06545068AC6FAE1ABDB3983"",""assignmentId"":""c45934ee-c8a3-4296-aee9-9f2ef82fe41c"",""projectId"":""a0a8f18c-a66e-4ba7-a170-23efbdc67501""}","https://test12345.live/?participantId=E0710E40E06545068AC6FAE1ABDB3983&assignmentId=c45934ee-c8a3-4296-aee9-9f2ef82fe41c&projectId=a0a8f18c-a66e-4ba7-a170-23efbdc67501","E0710E40E06545068AC6FAE1ABDB3983-2024-11-24-18-58-49","","null","","[]","null","",""
"","","","","","image-button-response","18","880366","0.0-6.0-1.0-0.3","E0710E40E06545068AC6FAE1ABDB3983","E0710E40E06545068AC6FAE1ABDB3983","c45934ee-c8a3-4296-aee9-9f2ef82fe41c","a0a8f18c-a66e-4ba7-a170-23efbdc67501","{""participantId"":""E0710E40E06545068AC6FAE1ABDB3983"",""assignmentId"":""c45934ee-c8a3-4296-aee9-9f2ef82fe41c"",""projectId"":""a0a8f18c-a66e-4ba7-a170-23efbdc67501""}","https://test12345.live/?participantId=E0710E40E06545068AC6FAE1ABDB3983&assignmentId=c45934ee-c8a3-4296-aee9-9f2ef82fe41c&projectId=a0a8f18c-a66e-4ba7-a170-23efbdc67501","E0710E40E06545068AC6FAE1ABDB3983-2024-11-24-18-58-49","","null","","images/instructions/movie_4.png","null","",""
"","","","","","image-button-response","19","882309","0.0-6.0-1.0-1.3","E0710E40E06545068AC6FAE1ABDB3983","E0710E40E06545068AC6FAE1ABDB3983","c45934ee-c8a3-4296-aee9-9f2ef82fe41c","a0a8f18c-a66e-4ba7-a170-23efbdc67501","{""participantId"":""E0710E40E06545068AC6FAE1ABDB3983"",""assignmentId"":""c45934ee-c8a3-4296-aee9-9f2ef82fe41c"",""projectId"":""a0a8f18c-a66e-4ba7-a170-23efbdc67501""}","https://test12345.live/?participantId=E0710E40E06545068AC6FAE1ABDB3983&assignmentId=c45934ee-c8a3-4296-aee9-9f2ef82fe41c&projectId=a0a8f18c-a66e-4ba7-a170-23efbdc67501","E0710E40E06545068AC6FAE1ABDB3983-2024-11-24-18-58-49","","1939","","images/instructions/movie_4.png","0","",""
"","","","","","image-button-response","20","884114","0.0-6.0-1.0-2.3","E0710E40E06545068AC6FAE1ABDB3983","E0710E40E06545068AC6FAE1ABDB3983","c45934ee-c8a3-4296-aee9-9f2ef82fe41c","a0a8f18c-a66e-4ba7-a170-23efbdc67501","{""participantId"":""E0710E40E06545068AC6FAE1ABDB3983"",""assignmentId"":""c45934ee-c8a3-4296-aee9-9f2ef82fe41c"",""projectId"":""a0a8f18c-a66e-4ba7-a170-23efbdc67501""}","https://test12345.live/?participantId=E0710E40E06545068AC6FAE1ABDB3983&assignmentId=c45934ee-c8a3-4296-aee9-9f2ef82fe41c&projectId=a0a8f18c-a66e-4ba7-a170-23efbdc67501","E0710E40E06545068AC6FAE1ABDB3983-2024-11-24-18-58-49","","null","","[]","null","",""
"","","","","","instructions","21","888856","0.0-7.0","E0710E40E06545068AC6FAE1ABDB3983","E0710E40E06545068AC6FAE1ABDB3983","c45934ee-c8a3-4296-aee9-9f2ef82fe41c","a0a8f18c-a66e-4ba7-a170-23efbdc67501","{""participantId"":""E0710E40E06545068AC6FAE1ABDB3983"",""assignmentId"":""c45934ee-c8a3-4296-aee9-9f2ef82fe41c"",""projectId"":""a0a8f18c-a66e-4ba7-a170-23efbdc67501""}","https://test12345.live/?participantId=E0710E40E06545068AC6FAE1ABDB3983&assignmentId=c45934ee-c8a3-4296-aee9-9f2ef82fe41c&projectId=a0a8f18c-a66e-4ba7-a170-23efbdc67501","E0710E40E06545068AC6FAE1ABDB3983-2024-11-24-18-58-49","[{""page_index"":0,""viewing_time"":3619},{""page_index"":1,""viewing_time"":1122}]","4741","","","","",""
"","","","","","html-audio-response","22","906733","0.0-8.0","E0710E40E06545068AC6FAE1ABDB3983","E0710E40E06545068AC6FAE1ABDB3983","c45934ee-c8a3-4296-aee9-9f2ef82fe41c","a0a8f18c-a66e-4ba7-a170-23efbdc67501","{""participantId"":""E0710E40E06545068AC6FAE1ABDB3983"",""assignmentId"":""c45934ee-c8a3-4296-aee9-9f2ef82fe41c"",""projectId"":""a0a8f18c-a66e-4ba7-a170-23efbdc67501""}","https://test12345.live/?participantId=E0710E40E06545068AC6FAE1ABDB3983&assignmentId=c45934ee-c8a3-4296-aee9-9f2ef82fe41c&projectId=a0a8f18c-a66e-4ba7-a170-23efbdc67501","E0710E40E06545068AC6FAE1ABDB3983-2024-11-24-18-58-49","","12726","","[""<span style=\""color: red; font-size: 24px\""> NOW RECORDING</span><p>Please say out loud all the images you saw, as many as you can remember. The images can be said in any order.</p>""]","","1",""
"","","","","","instructions","23","907756","0.0-9.0","E0710E40E06545068AC6FAE1ABDB3983","E0710E40E06545068AC6FAE1ABDB3983","c45934ee-c8a3-4296-aee9-9f2ef82fe41c","a0a8f18c-a66e-4ba7-a170-23efbdc67501","{""participantId"":""E0710E40E06545068AC6FAE1ABDB3983"",""assignmentId"":""c45934ee-c8a3-4296-aee9-9f2ef82fe41c"",""projectId"":""a0a8f18c-a66e-4ba7-a170-23efbdc67501""}","https://test12345.live/?participantId=E0710E40E06545068AC6FAE1ABDB3983&assignmentId=c45934ee-c8a3-4296-aee9-9f2ef82fe41c&projectId=a0a8f18c-a66e-4ba7-a170-23efbdc67501","E0710E40E06545068AC6FAE1ABDB3983-2024-11-24-18-58-49","[{""page_index"":0,""viewing_time"":1016}]","1016","","","","",""
"","","","","","image-button-response","24","913761","0.0-10.0-0.0","E0710E40E06545068AC6FAE1ABDB3983","E0710E40E06545068AC6FAE1ABDB3983","c45934ee-c8a3-4296-aee9-9f2ef82fe41c","a0a8f18c-a66e-4ba7-a170-23efbdc67501","{""participantId"":""E0710E40E06545068AC6FAE1ABDB3983"",""assignmentId"":""c45934ee-c8a3-4296-aee9-9f2ef82fe41c"",""projectId"":""a0a8f18c-a66e-4ba7-a170-23efbdc67501""}","https://test12345.live/?participantId=E0710E40E06545068AC6FAE1ABDB3983&assignmentId=c45934ee-c8a3-4296-aee9-9f2ef82fe41c&projectId=a0a8f18c-a66e-4ba7-a170-23efbdc67501","E0710E40E06545068AC6FAE1ABDB3983-2024-11-24-18-58-49","","null","","images/semantic_sequence/physical_activity_semantic/physical_activity_semantic_0.png","null","",""
"","","","","","image-button-response","25","918268","0.0-10.0-1.0-0.0","E0710E40E06545068AC6FAE1ABDB3983","E0710E40E06545068AC6FAE1ABDB3983","c45934ee-c8a3-4296-aee9-9f2ef82fe41c","a0a8f18c-a66e-4ba7-a170-23efbdc67501","{""participantId"":""E0710E40E06545068AC6FAE1ABDB3983"",""assignmentId"":""c45934ee-c8a3-4296-aee9-9f2ef82fe41c"",""projectId"":""a0a8f18c-a66e-4ba7-a170-23efbdc67501""}","https://test12345.live/?participantId=E0710E40E06545068AC6FAE1ABDB3983&assignmentId=c45934ee-c8a3-4296-aee9-9f2ef82fe41c&projectId=a0a8f18c-a66e-4ba7-a170-23efbdc67501","E0710E40E06545068AC6FAE1ABDB3983-2024-11-24-18-58-49","","null","","images/semantic_sequence/physical_activity_semantic/physical_activity_semantic_1.png","null","",""
"","","","","","image-button-response","26","919399","0.0-10.0-1.0-1.0","E0710E40E06545068AC6FAE1ABDB3983","E0710E40E06545068AC6FAE1ABDB3983","c45934ee-c8a3-4296-aee9-9f2ef82fe41c","a0a8f18c-a66e-4ba7-a170-23efbdc67501","{""participantId"":""E0710E40E06545068AC6FAE1ABDB3983"",""assignmentId"":""c45934ee-c8a3-4296-aee9-9f2ef82fe41c"",""projectId"":""a0a8f18c-a66e-4ba7-a170-23efbdc67501""}","https://test12345.live/?participantId=E0710E40E06545068AC6FAE1ABDB3983&assignmentId=c45934ee-c8a3-4296-aee9-9f2ef82fe41c&projectId=a0a8f18c-a66e-4ba7-a170-23efbdc67501","E0710E40E06545068AC6FAE1ABDB3983-2024-11-24-18-58-49","","1128","","images/semantic_sequence/physical_activity_semantic/physical_activity_semantic_1.png","0","",""
"","","","","","image-button-response","27","921208","0.0-10.0-1.0-2.0","E0710E40E06545068AC6FAE1ABDB3983","E0710E40E06545068AC6FAE1ABDB3983","c45934ee-c8a3-4296-aee9-9f2ef82fe41c","a0a8f18c-a66e-4ba7-a170-23efbdc67501","{""participantId"":""E0710E40E06545068AC6FAE1ABDB3983"",""assignmentId"":""c45934ee-c8a3-4296-aee9-9f2ef82fe41c"",""projectId"":""a0a8f18c-a66e-4ba7-a170-23efbdc67501""}","https://test12345.live/?participantId=E0710E40E06545068AC6FAE1ABDB3983&assignmentId=c45934ee-c8a3-4296-aee9-9f2ef82fe41c&projectId=a0a8f18c-a66e-4ba7-a170-23efbdc67501","E0710E40E06545068AC6FAE1ABDB3983-2024-11-24-18-58-49","","null","","[]","null","",""
"","","","","","image-button-response","28","925715","0.0-10.0-1.0-0.1","E0710E40E06545068AC6FAE1ABDB3983","E0710E40E06545068AC6FAE1ABDB3983","c45934ee-c8a3-4296-aee9-9f2ef82fe41c","a0a8f18c-a66e-4ba7-a170-23efbdc67501","{""participantId"":""E0710E40E06545068AC6FAE1ABDB3983"",""assignmentId"":""c45934ee-c8a3-4296-aee9-9f2ef82fe41c"",""projectId"":""a0a8f18c-a66e-4ba7-a170-23efbdc67501""}","https://test12345.live/?participantId=E0710E40E06545068AC6FAE1ABDB3983&assignmentId=c45934ee-c8a3-4296-aee9-9f2ef82fe41c&projectId=a0a8f18c-a66e-4ba7-a170-23efbdc67501","E0710E40E06545068AC6FAE1ABDB3983-2024-11-24-18-58-49","","null","","images/semantic_sequence/physical_activity_semantic/physical_activity_semantic_2.png","null","",""
"","","","","","image-button-response","29","926660","0.0-10.0-1.0-1.1","E0710E40E06545068AC6FAE1ABDB3983","E0710E40E06545068AC6FAE1ABDB3983","c45934ee-c8a3-4296-aee9-9f2ef82fe41c","a0a8f18c-a66e-4ba7-a170-23efbdc67501","{""participantId"":""E0710E40E06545068AC6FAE1ABDB3983"",""assignmentId"":""c45934ee-c8a3-4296-aee9-9f2ef82fe41c"",""projectId"":""a0a8f18c-a66e-4ba7-a170-23efbdc67501""}","https://test12345.live/?participantId=E0710E40E06545068AC6FAE1ABDB3983&assignmentId=c45934ee-c8a3-4296-aee9-9f2ef82fe41c&projectId=a0a8f18c-a66e-4ba7-a170-23efbdc67501","E0710E40E06545068AC6FAE1ABDB3983-2024-11-24-18-58-49","","941","","images/semantic_sequence/physical_activity_semantic/physical_activity_semantic_2.png","0","",""
"","","","","","image-button-response","30","928465","0.0-10.0-1.0-2.1","E0710E40E06545068AC6FAE1ABDB3983","E0710E40E06545068AC6FAE1ABDB3983","c45934ee-c8a3-4296-aee9-9f2ef82fe41c","a0a8f18c-a66e-4ba7-a170-23efbdc67501","{""participantId"":""E0710E40E06545068AC6FAE1ABDB3983"",""assignmentId"":""c45934ee-c8a3-4296-aee9-9f2ef82fe41c"",""projectId"":""a0a8f18c-a66e-4ba7-a170-23efbdc67501""}","https://test12345.live/?participantId=E0710E40E06545068AC6FAE1ABDB3983&assignmentId=c45934ee-c8a3-4296-aee9-9f2ef82fe41c&projectId=a0a8f18c-a66e-4ba7-a170-23efbdc67501","E0710E40E06545068AC6FAE1ABDB3983-2024-11-24-18-58-49","","null","","[]","null","",""
"","","","","","image-button-response","31","932975","0.0-10.0-1.0-0.2","E0710E40E06545068AC6FAE1ABDB3983","E0710E40E06545068AC6FAE1ABDB3983","c45934ee-c8a3-4296-aee9-9f2ef82fe41c","a0a8f18c-a66e-4ba7-a170-23efbdc67501","{""participantId"":""E0710E40E06545068AC6FAE1ABDB3983"",""assignmentId"":""c45934ee-c8a3-4296-aee9-9f2ef82fe41c"",""projectId"":""a0a8f18c-a66e-4ba7-a170-23efbdc67501""}","https://test12345.live/?participantId=E0710E40E06545068AC6FAE1ABDB3983&assignmentId=c45934ee-c8a3-4296-aee9-9f2ef82fe41c&projectId=a0a8f18c-a66e-4ba7-a170-23efbdc67501","E0710E40E06545068AC6FAE1ABDB3983-2024-11-24-18-58-49","","null","","images/semantic_sequence/physical_activity_semantic/physical_activity_semantic_3.png","null","",""
"","","","","","image-button-response","32","934382","0.0-10.0-1.0-1.2","E0710E40E06545068AC6FAE1ABDB3983","E0710E40E06545068AC6FAE1ABDB3983","c45934ee-c8a3-4296-aee9-9f2ef82fe41c","a0a8f18c-a66e-4ba7-a170-23efbdc67501","{""participantId"":""E0710E40E06545068AC6FAE1ABDB3983"",""assignmentId"":""c45934ee-c8a3-4296-aee9-9f2ef82fe41c"",""projectId"":""a0a8f18c-a66e-4ba7-a170-23efbdc67501""}","https://test12345.live/?participantId=E0710E40E06545068AC6FAE1ABDB3983&assignmentId=c45934ee-c8a3-4296-aee9-9f2ef82fe41c&projectId=a0a8f18c-a66e-4ba7-a170-23efbdc67501","E0710E40E06545068AC6FAE1ABDB3983-2024-11-24-18-58-49","","1404","","images/semantic_sequence/physical_activity_semantic/physical_activity_semantic_3.png","0","",""
"","","","","","image-button-response","33","936191","0.0-10.0-1.0-2.2","E0710E40E06545068AC6FAE1ABDB3983","E0710E40E06545068AC6FAE1ABDB3983","c45934ee-c8a3-4296-aee9-9f2ef82fe41c","a0a8f18c-a66e-4ba7-a170-23efbdc67501","{""participantId"":""E0710E40E06545068AC6FAE1ABDB3983"",""assignmentId"":""c45934ee-c8a3-4296-aee9-9f2ef82fe41c"",""projectId"":""a0a8f18c-a66e-4ba7-a170-23efbdc67501""}","https://test12345.live/?participantId=E0710E40E06545068AC6FAE1ABDB3983&assignmentId=c45934ee-c8a3-4296-aee9-9f2ef82fe41c&projectId=a0a8f18c-a66e-4ba7-a170-23efbdc67501","E0710E40E06545068AC6FAE1ABDB3983-2024-11-24-18-58-49","","null","","[]","null","",""
"","","","","","image-button-response","34","940697","0.0-10.0-1.0-0.3","E0710E40E06545068AC6FAE1ABDB3983","E0710E40E06545068AC6FAE1ABDB3983","c45934ee-c8a3-4296-aee9-9f2ef82fe41c","a0a8f18c-a66e-4ba7-a170-23efbdc67501","{""participantId"":""E0710E40E06545068AC6FAE1ABDB3983"",""assignmentId"":""c45934ee-c8a3-4296-aee9-9f2ef82fe41c"",""projectId"":""a0a8f18c-a66e-4ba7-a170-23efbdc67501""}","https://test12345.live/?participantId=E0710E40E06545068AC6FAE1ABDB3983&assignmentId=c45934ee-c8a3-4296-aee9-9f2ef82fe41c&projectId=a0a8f18c-a66e-4ba7-a170-23efbdc67501","E0710E40E06545068AC6FAE1ABDB3983-2024-11-24-18-58-49","","null","","images/semantic_sequence/physical_activity_semantic/physical_activity_semantic_4.png","null","",""
"","","","","","image-button-response","35","942325","0.0-10.0-1.0-1.3","E0710E40E06545068AC6FAE1ABDB3983","E0710E40E06545068AC6FAE1ABDB3983","c45934ee-c8a3-4296-aee9-9f2ef82fe41c","a0a8f18c-a66e-4ba7-a170-23efbdc67501","{""participantId"":""E0710E40E06545068AC6FAE1ABDB3983"",""assignmentId"":""c45934ee-c8a3-4296-aee9-9f2ef82fe41c"",""projectId"":""a0a8f18c-a66e-4ba7-a170-23efbdc67501""}","https://test12345.live/?participantId=E0710E40E06545068AC6FAE1ABDB3983&assignmentId=c45934ee-c8a3-4296-aee9-9f2ef82fe41c&projectId=a0a8f18c-a66e-4ba7-a170-23efbdc67501","E0710E40E06545068AC6FAE1ABDB3983-2024-11-24-18-58-49","","1625","","images/semantic_sequence/physical_activity_semantic/physical_activity_semantic_4.png","0","",""
"","","","","","image-button-response","36","944128","0.0-10.0-1.0-2.3","E0710E40E06545068AC6FAE1ABDB3983","E0710E40E06545068AC6FAE1ABDB3983","c45934ee-c8a3-4296-aee9-9f2ef82fe41c","a0a8f18c-a66e-4ba7-a170-23efbdc67501","{""participantId"":""E0710E40E06545068AC6FAE1ABDB3983"",""assignmentId"":""c45934ee-c8a3-4296-aee9-9f2ef82fe41c"",""projectId"":""a0a8f18c-a66e-4ba7-a170-23efbdc67501""}","https://test12345.live/?participantId=E0710E40E06545068AC6FAE1ABDB3983&assignmentId=c45934ee-c8a3-4296-aee9-9f2ef82fe41c&projectId=a0a8f18c-a66e-4ba7-a170-23efbdc67501","E0710E40E06545068AC6FAE1ABDB3983-2024-11-24-18-58-49","","null","","[]","null","",""
"","","","","","image-button-response","37","948633","0.0-10.0-1.0-0.4","E0710E40E06545068AC6FAE1ABDB3983","E0710E40E06545068AC6FAE1ABDB3983","c45934ee-c8a3-4296-aee9-9f2ef82fe41c","a0a8f18c-a66e-4ba7-a170-23efbdc67501","{""participantId"":""E0710E40E06545068AC6FAE1ABDB3983"",""assignmentId"":""c45934ee-c8a3-4296-aee9-9f2ef82fe41c"",""projectId"":""a0a8f18c-a66e-4ba7-a170-23efbdc67501""}","https://test12345.live/?participantId=E0710E40E06545068AC6FAE1ABDB3983&assignmentId=c45934ee-c8a3-4296-aee9-9f2ef82fe41c&projectId=a0a8f18c-a66e-4ba7-a170-23efbdc67501","E0710E40E06545068AC6FAE1ABDB3983-2024-11-24-18-58-49","","null","","images/semantic_sequence/physical_activity_semantic/physical_activity_semantic_5.png","null","",""
"","","","","","image-button-response","38","949896","0.0-10.0-1.0-1.4","E0710E40E06545068AC6FAE1ABDB3983","E0710E40E06545068AC6FAE1ABDB3983","c45934ee-c8a3-4296-aee9-9f2ef82fe41c","a0a8f18c-a66e-4ba7-a170-23efbdc67501","{""participantId"":""E0710E40E06545068AC6FAE1ABDB3983"",""assignmentId"":""c45934ee-c8a3-4296-aee9-9f2ef82fe41c"",""projectId"":""a0a8f18c-a66e-4ba7-a170-23efbdc67501""}","https://test12345.live/?participantId=E0710E40E06545068AC6FAE1ABDB3983&assignmentId=c45934ee-c8a3-4296-aee9-9f2ef82fe41c&projectId=a0a8f18c-a66e-4ba7-a170-23efbdc67501","E0710E40E06545068AC6FAE1ABDB3983-2024-11-24-18-58-49","","1260","","images/semantic_sequence/physical_activity_semantic/physical_activity_semantic_5.png","0","",""
"","","","","","image-button-response","39","951701","0.0-10.0-1.0-2.4","E0710E40E06545068AC6FAE1ABDB3983","E0710E40E06545068AC6FAE1ABDB3983","c45934ee-c8a3-4296-aee9-9f2ef82fe41c","a0a8f18c-a66e-4ba7-a170-23efbdc67501","{""participantId"":""E0710E40E06545068AC6FAE1ABDB3983"",""assignmentId"":""c45934ee-c8a3-4296-aee9-9f2ef82fe41c"",""projectId"":""a0a8f18c-a66e-4ba7-a170-23efbdc67501""}","https://test12345.live/?participantId=E0710E40E06545068AC6FAE1ABDB3983&assignmentId=c45934ee-c8a3-4296-aee9-9f2ef82fe41c&projectId=a0a8f18c-a66e-4ba7-a170-23efbdc67501","E0710E40E06545068AC6FAE1ABDB3983-2024-11-24-18-58-49","","null","","[]","null","",""
"","","","","","image-button-response","40","956206","0.0-10.0-1.0-0.5","E0710E40E06545068AC6FAE1ABDB3983","E0710E40E06545068AC6FAE1ABDB3983","c45934ee-c8a3-4296-aee9-9f2ef82fe41c","a0a8f18c-a66e-4ba7-a170-23efbdc67501","{""participantId"":""E0710E40E06545068AC6FAE1ABDB3983"",""assignmentId"":""c45934ee-c8a3-4296-aee9-9f2ef82fe41c"",""projectId"":""a0a8f18c-a66e-4ba7-a170-23efbdc67501""}","https://test12345.live/?participantId=E0710E40E06545068AC6FAE1ABDB3983&assignmentId=c45934ee-c8a3-4296-aee9-9f2ef82fe41c&projectId=a0a8f18c-a66e-4ba7-a170-23efbdc67501","E0710E40E06545068AC6FAE1ABDB3983-2024-11-24-18-58-49","","null","","images/semantic_sequence/physical_activity_semantic/physical_activity_semantic_6.png","null","",""
"","","","","","image-button-response","41","956796","0.0-10.0-1.0-1.5","E0710E40E06545068AC6FAE1ABDB3983","E0710E40E06545068AC6FAE1ABDB3983","c45934ee-c8a3-4296-aee9-9f2ef82fe41c","a0a8f18c-a66e-4ba7-a170-23efbdc67501","{""participantId"":""E0710E40E06545068AC6FAE1ABDB3983"",""assignmentId"":""c45934ee-c8a3-4296-aee9-9f2ef82fe41c"",""projectId"":""a0a8f18c-a66e-4ba7-a170-23efbdc67501""}","https://test12345.live/?participantId=E0710E40E06545068AC6FAE1ABDB3983&assignmentId=c45934ee-c8a3-4296-aee9-9f2ef82fe41c&projectId=a0a8f18c-a66e-4ba7-a170-23efbdc67501","E0710E40E06545068AC6FAE1ABDB3983-2024-11-24-18-58-49","","588","","images/semantic_sequence/physical_activity_semantic/physical_activity_semantic_6.png","0","",""
"","","","","","image-button-response","42","958598","0.0-10.0-1.0-2.5","E0710E40E06545068AC6FAE1ABDB3983","E0710E40E06545068AC6FAE1ABDB3983","c45934ee-c8a3-4296-aee9-9f2ef82fe41c","a0a8f18c-a66e-4ba7-a170-23efbdc67501","{""participantId"":""E0710E40E06545068AC6FAE1ABDB3983"",""assignmentId"":""c45934ee-c8a3-4296-aee9-9f2ef82fe41c"",""projectId"":""a0a8f18c-a66e-4ba7-a170-23efbdc67501""}","https://test12345.live/?participantId=E0710E40E06545068AC6FAE1ABDB3983&assignmentId=c45934ee-c8a3-4296-aee9-9f2ef82fe41c&projectId=a0a8f18c-a66e-4ba7-a170-23efbdc67501","E0710E40E06545068AC6FAE1ABDB3983-2024-11-24-18-58-49","","null","","[]","null","",""
"","","","","","image-button-response","43","963106","0.0-10.0-1.0-0.6","E0710E40E06545068AC6FAE1ABDB3983","E0710E40E06545068AC6FAE1ABDB3983","c45934ee-c8a3-4296-aee9-9f2ef82fe41c","a0a8f18c-a66e-4ba7-a170-23efbdc67501","{""participantId"":""E0710E40E06545068AC6FAE1ABDB3983"",""assignmentId"":""c45934ee-c8a3-4296-aee9-9f2ef82fe41c"",""projectId"":""a0a8f18c-a66e-4ba7-a170-23efbdc67501""}","https://test12345.live/?participantId=E0710E40E06545068AC6FAE1ABDB3983&assignmentId=c45934ee-c8a3-4296-aee9-9f2ef82fe41c&projectId=a0a8f18c-a66e-4ba7-a170-23efbdc67501","E0710E40E06545068AC6FAE1ABDB3983-2024-11-24-18-58-49","","null","","images/semantic_sequence/physical_activity_semantic/physical_activity_semantic_7.png","null","",""
"","","","","","image-button-response","44","964092","0.0-10.0-1.0-1.6","E0710E40E06545068AC6FAE1ABDB3983","E0710E40E06545068AC6FAE1ABDB3983","c45934ee-c8a3-4296-aee9-9f2ef82fe41c","a0a8f18c-a66e-4ba7-a170-23efbdc67501","{""participantId"":""E0710E40E06545068AC6FAE1ABDB3983"",""assignmentId"":""c45934ee-c8a3-4296-aee9-9f2ef82fe41c"",""projectId"":""a0a8f18c-a66e-4ba7-a170-23efbdc67501""}","https://test12345.live/?participantId=E0710E40E06545068AC6FAE1ABDB3983&assignmentId=c45934ee-c8a3-4296-aee9-9f2ef82fe41c&projectId=a0a8f18c-a66e-4ba7-a170-23efbdc67501","E0710E40E06545068AC6FAE1ABDB3983-2024-11-24-18-58-49","","982","","images/semantic_sequence/physical_activity_semantic/physical_activity_semantic_7.png","0","",""
"","","","","","image-button-response","45","965899","0.0-10.0-1.0-2.6","E0710E40E06545068AC6FAE1ABDB3983","E0710E40E06545068AC6FAE1ABDB3983","c45934ee-c8a3-4296-aee9-9f2ef82fe41c","a0a8f18c-a66e-4ba7-a170-23efbdc67501","{""participantId"":""E0710E40E06545068AC6FAE1ABDB3983"",""assignmentId"":""c45934ee-c8a3-4296-aee9-9f2ef82fe41c"",""projectId"":""a0a8f18c-a66e-4ba7-a170-23efbdc67501""}","https://test12345.live/?participantId=E0710E40E06545068AC6FAE1ABDB3983&assignmentId=c45934ee-c8a3-4296-aee9-9f2ef82fe41c&projectId=a0a8f18c-a66e-4ba7-a170-23efbdc67501","E0710E40E06545068AC6FAE1ABDB3983-2024-11-24-18-58-49","","null","","[]","null","",""
"","","","","","image-button-response","46","970405","0.0-10.0-1.0-0.7","E0710E40E06545068AC6FAE1ABDB3983","E0710E40E06545068AC6FAE1ABDB3983","c45934ee-c8a3-4296-aee9-9f2ef82fe41c","a0a8f18c-a66e-4ba7-a170-23efbdc67501","{""participantId"":""E0710E40E06545068AC6FAE1ABDB3983"",""assignmentId"":""c45934ee-c8a3-4296-aee9-9f2ef82fe41c"",""projectId"":""a0a8f18c-a66e-4ba7-a170-23efbdc67501""}","https://test12345.live/?participantId=E0710E40E06545068AC6FAE1ABDB3983&assignmentId=c45934ee-c8a3-4296-aee9-9f2ef82fe41c&projectId=a0a8f18c-a66e-4ba7-a170-23efbdc67501","E0710E40E06545068AC6FAE1ABDB3983-2024-11-24-18-58-49","","null","","images/semantic_sequence/physical_activity_semantic/physical_activity_semantic_8.png","null","",""
"","","","","","image-button-response","47","971351","0.0-10.0-1.0-1.7","E0710E40E06545068AC6FAE1ABDB3983","E0710E40E06545068AC6FAE1ABDB3983","c45934ee-c8a3-4296-aee9-9f2ef82fe41c","a0a8f18c-a66e-4ba7-a170-23efbdc67501","{""participantId"":""E0710E40E06545068AC6FAE1ABDB3983"",""assignmentId"":""c45934ee-c8a3-4296-aee9-9f2ef82fe41c"",""projectId"":""a0a8f18c-a66e-4ba7-a170-23efbdc67501""}","https://test12345.live/?participantId=E0710E40E06545068AC6FAE1ABDB3983&assignmentId=c45934ee-c8a3-4296-aee9-9f2ef82fe41c&projectId=a0a8f18c-a66e-4ba7-a170-23efbdc67501","E0710E40E06545068AC6FAE1ABDB3983-2024-11-24-18-58-49","","943","","images/semantic_sequence/physical_activity_semantic/physical_activity_semantic_8.png","0","",""
"","","","","","image-button-response","48","973155","0.0-10.0-1.0-2.7","E0710E40E06545068AC6FAE1ABDB3983","E0710E40E06545068AC6FAE1ABDB3983","c45934ee-c8a3-4296-aee9-9f2ef82fe41c","a0a8f18c-a66e-4ba7-a170-23efbdc67501","{""participantId"":""E0710E40E06545068AC6FAE1ABDB3983"",""assignmentId"":""c45934ee-c8a3-4296-aee9-9f2ef82fe41c"",""projectId"":""a0a8f18c-a66e-4ba7-a170-23efbdc67501""}","https://test12345.live/?participantId=E0710E40E06545068AC6FAE1ABDB3983&assignmentId=c45934ee-c8a3-4296-aee9-9f2ef82fe41c&projectId=a0a8f18c-a66e-4ba7-a170-23efbdc67501","E0710E40E06545068AC6FAE1ABDB3983-2024-11-24-18-58-49","","null","","[]","null","",""
"","","","","","image-button-response","49","977659","0.0-10.0-1.0-0.8","E0710E40E06545068AC6FAE1ABDB3983","E0710E40E06545068AC6FAE1ABDB3983","c45934ee-c8a3-4296-aee9-9f2ef82fe41c","a0a8f18c-a66e-4ba7-a170-23efbdc67501","{""participantId"":""E0710E40E06545068AC6FAE1ABDB3983"",""assignmentId"":""c45934ee-c8a3-4296-aee9-9f2ef82fe41c"",""projectId"":""a0a8f18c-a66e-4ba7-a170-23efbdc67501""}","https://test12345.live/?participantId=E0710E40E06545068AC6FAE1ABDB3983&assignmentId=c45934ee-c8a3-4296-aee9-9f2ef82fe41c&projectId=a0a8f18c-a66e-4ba7-a170-23efbdc67501","E0710E40E06545068AC6FAE1ABDB3983-2024-11-24-18-58-49","","null","","images/semantic_sequence/physical_activity_semantic/physical_activity_semantic_9.png","null","",""
"","","","","","image-button-response","50","978524","0.0-10.0-1.0-1.8","E0710E40E06545068AC6FAE1ABDB3983","E0710E40E06545068AC6FAE1ABDB3983","c45934ee-c8a3-4296-aee9-9f2ef82fe41c","a0a8f18c-a66e-4ba7-a170-23efbdc67501","{""participantId"":""E0710E40E06545068AC6FAE1ABDB3983"",""assignmentId"":""c45934ee-c8a3-4296-aee9-9f2ef82fe41c"",""projectId"":""a0a8f18c-a66e-4ba7-a170-23efbdc67501""}","https://test12345.live/?participantId=E0710E40E06545068AC6FAE1ABDB3983&assignmentId=c45934ee-c8a3-4296-aee9-9f2ef82fe41c&projectId=a0a8f18c-a66e-4ba7-a170-23efbdc67501","E0710E40E06545068AC6FAE1ABDB3983-2024-11-24-18-58-49","","862","","images/semantic_sequence/physical_activity_semantic/physical_activity_semantic_9.png","0","",""
"","","","","","image-button-response","51","980329","0.0-10.0-1.0-2.8","E0710E40E06545068AC6FAE1ABDB3983","E0710E40E06545068AC6FAE1ABDB3983","c45934ee-c8a3-4296-aee9-9f2ef82fe41c","a0a8f18c-a66e-4ba7-a170-23efbdc67501","{""participantId"":""E0710E40E06545068AC6FAE1ABDB3983"",""assignmentId"":""c45934ee-c8a3-4296-aee9-9f2ef82fe41c"",""projectId"":""a0a8f18c-a66e-4ba7-a170-23efbdc67501""}","https://test12345.live/?participantId=E0710E40E06545068AC6FAE1ABDB3983&assignmentId=c45934ee-c8a3-4296-aee9-9f2ef82fe41c&projectId=a0a8f18c-a66e-4ba7-a170-23efbdc67501","E0710E40E06545068AC6FAE1ABDB3983-2024-11-24-18-58-49","","null","","[]","null","",""
"","","","","","image-button-response","52","984836","0.0-10.0-1.0-0.9","E0710E40E06545068AC6FAE1ABDB3983","E0710E40E06545068AC6FAE1ABDB3983","c45934ee-c8a3-4296-aee9-9f2ef82fe41c","a0a8f18c-a66e-4ba7-a170-23efbdc67501","{""participantId"":""E0710E40E06545068AC6FAE1ABDB3983"",""assignmentId"":""c45934ee-c8a3-4296-aee9-9f2ef82fe41c"",""projectId"":""a0a8f18c-a66e-4ba7-a170-23efbdc67501""}","https://test12345.live/?participantId=E0710E40E06545068AC6FAE1ABDB3983&assignmentId=c45934ee-c8a3-4296-aee9-9f2ef82fe41c&projectId=a0a8f18c-a66e-4ba7-a170-23efbdc67501","E0710E40E06545068AC6FAE1ABDB3983-2024-11-24-18-58-49","","null","","images/semantic_sequence/physical_activity_semantic/physical_activity_semantic_ten.png","null","",""
"","","","","","image-button-response","53","986174","0.0-10.0-1.0-1.9","E0710E40E06545068AC6FAE1ABDB3983","E0710E40E06545068AC6FAE1ABDB3983","c45934ee-c8a3-4296-aee9-9f2ef82fe41c","a0a8f18c-a66e-4ba7-a170-23efbdc67501","{""participantId"":""E0710E40E06545068AC6FAE1ABDB3983"",""assignmentId"":""c45934ee-c8a3-4296-aee9-9f2ef82fe41c"",""projectId"":""a0a8f18c-a66e-4ba7-a170-23efbdc67501""}","https://test12345.live/?participantId=E0710E40E06545068AC6FAE1ABDB3983&assignmentId=c45934ee-c8a3-4296-aee9-9f2ef82fe41c&projectId=a0a8f18c-a66e-4ba7-a170-23efbdc67501","E0710E40E06545068AC6FAE1ABDB3983-2024-11-24-18-58-49","","1334","","images/semantic_sequence/physical_activity_semantic/physical_activity_semantic_ten.png","0","",""
"","","","","","image-button-response","54","987977","0.0-10.0-1.0-2.9","E0710E40E06545068AC6FAE1ABDB3983","E0710E40E06545068AC6FAE1ABDB3983","c45934ee-c8a3-4296-aee9-9f2ef82fe41c","a0a8f18c-a66e-4ba7-a170-23efbdc67501","{""participantId"":""E0710E40E06545068AC6FAE1ABDB3983"",""assignmentId"":""c45934ee-c8a3-4296-aee9-9f2ef82fe41c"",""projectId"":""a0a8f18c-a66e-4ba7-a170-23efbdc67501""}","https://test12345.live/?participantId=E0710E40E06545068AC6FAE1ABDB3983&assignmentId=c45934ee-c8a3-4296-aee9-9f2ef82fe41c&projectId=a0a8f18c-a66e-4ba7-a170-23efbdc67501","E0710E40E06545068AC6FAE1ABDB3983-2024-11-24-18-58-49","","null","","[]","null","",""
"","","","","","html-audio-response","55","1019929","0.0-11.0","E0710E40E06545068AC6FAE1ABDB3983","E0710E40E06545068AC6FAE1ABDB3983","c45934ee-c8a3-4296-aee9-9f2ef82fe41c","a0a8f18c-a66e-4ba7-a170-23efbdc67501","{""participantId"":""E0710E40E06545068AC6FAE1ABDB3983"",""assignmentId"":""c45934ee-c8a3-4296-aee9-9f2ef82fe41c"",""projectId"":""a0a8f18c-a66e-4ba7-a170-23efbdc67501""}","https://test12345.live/?participantId=E0710E40E06545068AC6FAE1ABDB3983&assignmentId=c45934ee-c8a3-4296-aee9-9f2ef82fe41c&projectId=a0a8f18c-a66e-4ba7-a170-23efbdc67501","E0710E40E06545068AC6FAE1ABDB3983-2024-11-24-18-58-49","","27342","","[""<span style=\""color: red; font-size: 24px\""> NOW RECORDING</span><p>Please say out loud all the images you saw, as many as you can remember. The images can be said in any order.</p>""]","","2","physical_activity_semantic"
"","","","","","image-button-response","56","1025941","0.0-12.0-0.0","E0710E40E06545068AC6FAE1ABDB3983","E0710E40E06545068AC6FAE1ABDB3983","c45934ee-c8a3-4296-aee9-9f2ef82fe41c","a0a8f18c-a66e-4ba7-a170-23efbdc67501","{""participantId"":""E0710E40E06545068AC6FAE1ABDB3983"",""assignmentId"":""c45934ee-c8a3-4296-aee9-9f2ef82fe41c"",""projectId"":""a0a8f18c-a66e-4ba7-a170-23efbdc67501""}","https://test12345.live/?participantId=E0710E40E06545068AC6FAE1ABDB3983&assignmentId=c45934ee-c8a3-4296-aee9-9f2ef82fe41c&projectId=a0a8f18c-a66e-4ba7-a170-23efbdc67501","E0710E40E06545068AC6FAE1ABDB3983-2024-11-24-18-58-49","","null","","images/causal_sequence/dog_causal/dog_causal_0.png","null","",""
"","","","","","image-button-response","57","1030444","0.0-12.0-1.0-0.0","E0710E40E06545068AC6FAE1ABDB3983","E0710E40E06545068AC6FAE1ABDB3983","c45934ee-c8a3-4296-aee9-9f2ef82fe41c","a0a8f18c-a66e-4ba7-a170-23efbdc67501","{""participantId"":""E0710E40E06545068AC6FAE1ABDB3983"",""assignmentId"":""c45934ee-c8a3-4296-aee9-9f2ef82fe41c"",""projectId"":""a0a8f18c-a66e-4ba7-a170-23efbdc67501""}","https://test12345.live/?participantId=E0710E40E06545068AC6FAE1ABDB3983&assignmentId=c45934ee-c8a3-4296-aee9-9f2ef82fe41c&projectId=a0a8f18c-a66e-4ba7-a170-23efbdc67501","E0710E40E06545068AC6FAE1ABDB3983-2024-11-24-18-58-49","","null","","images/causal_sequence/dog_causal/dog_causal_9.png","null","",""
"","","","","","image-button-response","58","1031639","0.0-12.0-1.0-1.0","E0710E40E06545068AC6FAE1ABDB3983","E0710E40E06545068AC6FAE1ABDB3983","c45934ee-c8a3-4296-aee9-9f2ef82fe41c","a0a8f18c-a66e-4ba7-a170-23efbdc67501","{""participantId"":""E0710E40E06545068AC6FAE1ABDB3983"",""assignmentId"":""c45934ee-c8a3-4296-aee9-9f2ef82fe41c"",""projectId"":""a0a8f18c-a66e-4ba7-a170-23efbdc67501""}","https://test12345.live/?participantId=E0710E40E06545068AC6FAE1ABDB3983&assignmentId=c45934ee-c8a3-4296-aee9-9f2ef82fe41c&projectId=a0a8f18c-a66e-4ba7-a170-23efbdc67501","E0710E40E06545068AC6FAE1ABDB3983-2024-11-24-18-58-49","","1191","","images/causal_sequence/dog_causal/dog_causal_9.png","0","",""
"","","","","","image-button-response","59","1033446","0.0-12.0-1.0-2.0","E0710E40E06545068AC6FAE1ABDB3983","E0710E40E06545068AC6FAE1ABDB3983","c45934ee-c8a3-4296-aee9-9f2ef82fe41c","a0a8f18c-a66e-4ba7-a170-23efbdc67501","{""participantId"":""E0710E40E06545068AC6FAE1ABDB3983"",""assignmentId"":""c45934ee-c8a3-4296-aee9-9f2ef82fe41c"",""projectId"":""a0a8f18c-a66e-4ba7-a170-23efbdc67501""}","https://test12345.live/?participantId=E0710E40E06545068AC6FAE1ABDB3983&assignmentId=c45934ee-c8a3-4296-aee9-9f2ef82fe41c&projectId=a0a8f18c-a66e-4ba7-a170-23efbdc67501","E0710E40E06545068AC6FAE1ABDB3983-2024-11-24-18-58-49","","null","","[]","null","",""
"","","","","","image-button-response","60","1037950","0.0-12.0-1.0-0.1","E0710E40E06545068AC6FAE1ABDB3983","E0710E40E06545068AC6FAE1ABDB3983","c45934ee-c8a3-4296-aee9-9f2ef82fe41c","a0a8f18c-a66e-4ba7-a170-23efbdc67501","{""participantId"":""E0710E40E06545068AC6FAE1ABDB3983"",""assignmentId"":""c45934ee-c8a3-4296-aee9-9f2ef82fe41c"",""projectId"":""a0a8f18c-a66e-4ba7-a170-23efbdc67501""}","https://test12345.live/?participantId=E0710E40E06545068AC6FAE1ABDB3983&assignmentId=c45934ee-c8a3-4296-aee9-9f2ef82fe41c&projectId=a0a8f18c-a66e-4ba7-a170-23efbdc67501","E0710E40E06545068AC6FAE1ABDB3983-2024-11-24-18-58-49","","null","","images/causal_sequence/dog_causal/dog_causal_2.png","null","",""
"","","","","","image-button-response","61","1041956","0.0-12.0-1.0-1.1","E0710E40E06545068AC6FAE1ABDB3983","E0710E40E06545068AC6FAE1ABDB3983","c45934ee-c8a3-4296-aee9-9f2ef82fe41c","a0a8f18c-a66e-4ba7-a170-23efbdc67501","{""participantId"":""E0710E40E06545068AC6FAE1ABDB3983"",""assignmentId"":""c45934ee-c8a3-4296-aee9-9f2ef82fe41c"",""projectId"":""a0a8f18c-a66e-4ba7-a170-23efbdc67501""}","https://test12345.live/?participantId=E0710E40E06545068AC6FAE1ABDB3983&assignmentId=c45934ee-c8a3-4296-aee9-9f2ef82fe41c&projectId=a0a8f18c-a66e-4ba7-a170-23efbdc67501","E0710E40E06545068AC6FAE1ABDB3983-2024-11-24-18-58-49","","null","","images/causal_sequence/dog_causal/dog_causal_2.png","null","",""
"","","","","","image-button-response","62","1043762","0.0-12.0-1.0-2.1","E0710E40E06545068AC6FAE1ABDB3983","E0710E40E06545068AC6FAE1ABDB3983","c45934ee-c8a3-4296-aee9-9f2ef82fe41c","a0a8f18c-a66e-4ba7-a170-23efbdc67501","{""participantId"":""E0710E40E06545068AC6FAE1ABDB3983"",""assignmentId"":""c45934ee-c8a3-4296-aee9-9f2ef82fe41c"",""projectId"":""a0a8f18c-a66e-4ba7-a170-23efbdc67501""}","https://test12345.live/?participantId=E0710E40E06545068AC6FAE1ABDB3983&assignmentId=c45934ee-c8a3-4296-aee9-9f2ef82fe41c&projectId=a0a8f18c-a66e-4ba7-a170-23efbdc67501","E0710E40E06545068AC6FAE1ABDB3983-2024-11-24-18-58-49","","null","","[]","null","",""
"","","","","","image-button-response","63","1048272","0.0-12.0-1.0-0.2","E0710E40E06545068AC6FAE1ABDB3983","E0710E40E06545068AC6FAE1ABDB3983","c45934ee-c8a3-4296-aee9-9f2ef82fe41c","a0a8f18c-a66e-4ba7-a170-23efbdc67501","{""participantId"":""E0710E40E06545068AC6FAE1ABDB3983"",""assignmentId"":""c45934ee-c8a3-4296-aee9-9f2ef82fe41c"",""projectId"":""a0a8f18c-a66e-4ba7-a170-23efbdc67501""}","https://test12345.live/?participantId=E0710E40E06545068AC6FAE1ABDB3983&assignmentId=c45934ee-c8a3-4296-aee9-9f2ef82fe41c&projectId=a0a8f18c-a66e-4ba7-a170-23efbdc67501","E0710E40E06545068AC6FAE1ABDB3983-2024-11-24-18-58-49","","null","","images/causal_sequence/dog_causal/dog_causal_4.png","null","",""
"","","","","","image-button-response","64","1051531","0.0-12.0-1.0-1.2","E0710E40E06545068AC6FAE1ABDB3983","E0710E40E06545068AC6FAE1ABDB3983","c45934ee-c8a3-4296-aee9-9f2ef82fe41c","a0a8f18c-a66e-4ba7-a170-23efbdc67501","{""participantId"":""E0710E40E06545068AC6FAE1ABDB3983"",""assignmentId"":""c45934ee-c8a3-4296-aee9-9f2ef82fe41c"",""projectId"":""a0a8f18c-a66e-4ba7-a170-23efbdc67501""}","https://test12345.live/?participantId=E0710E40E06545068AC6FAE1ABDB3983&assignmentId=c45934ee-c8a3-4296-aee9-9f2ef82fe41c&projectId=a0a8f18c-a66e-4ba7-a170-23efbdc67501","E0710E40E06545068AC6FAE1ABDB3983-2024-11-24-18-58-49","","3257","","images/causal_sequence/dog_causal/dog_causal_4.png","0","",""
"","","","","","image-button-response","65","1053338","0.0-12.0-1.0-2.2","E0710E40E06545068AC6FAE1ABDB3983","E0710E40E06545068AC6FAE1ABDB3983","c45934ee-c8a3-4296-aee9-9f2ef82fe41c","a0a8f18c-a66e-4ba7-a170-23efbdc67501","{""participantId"":""E0710E40E06545068AC6FAE1ABDB3983"",""assignmentId"":""c45934ee-c8a3-4296-aee9-9f2ef82fe41c"",""projectId"":""a0a8f18c-a66e-4ba7-a170-23efbdc67501""}","https://test12345.live/?participantId=E0710E40E06545068AC6FAE1ABDB3983&assignmentId=c45934ee-c8a3-4296-aee9-9f2ef82fe41c&projectId=a0a8f18c-a66e-4ba7-a170-23efbdc67501","E0710E40E06545068AC6FAE1ABDB3983-2024-11-24-18-58-49","","null","","[]","null","",""
"","","","","","image-button-response","66","1057845","0.0-12.0-1.0-0.3","E0710E40E06545068AC6FAE1ABDB3983","E0710E40E06545068AC6FAE1ABDB3983","c45934ee-c8a3-4296-aee9-9f2ef82fe41c","a0a8f18c-a66e-4ba7-a170-23efbdc67501","{""participantId"":""E0710E40E06545068AC6FAE1ABDB3983"",""assignmentId"":""c45934ee-c8a3-4296-aee9-9f2ef82fe41c"",""projectId"":""a0a8f18c-a66e-4ba7-a170-23efbdc67501""}","https://test12345.live/?participantId=E0710E40E06545068AC6FAE1ABDB3983&assignmentId=c45934ee-c8a3-4296-aee9-9f2ef82fe41c&projectId=a0a8f18c-a66e-4ba7-a170-23efbdc67501","E0710E40E06545068AC6FAE1ABDB3983-2024-11-24-18-58-49","","null","","images/causal_sequence/dog_causal/dog_causal_ten.png","null","",""
"","","","","","image-button-response","67","1059045","0.0-12.0-1.0-1.3","E0710E40E06545068AC6FAE1ABDB3983","E0710E40E06545068AC6FAE1ABDB3983","c45934ee-c8a3-4296-aee9-9f2ef82fe41c","a0a8f18c-a66e-4ba7-a170-23efbdc67501","{""participantId"":""E0710E40E06545068AC6FAE1ABDB3983"",""assignmentId"":""c45934ee-c8a3-4296-aee9-9f2ef82fe41c"",""projectId"":""a0a8f18c-a66e-4ba7-a170-23efbdc67501""}","https://test12345.live/?participantId=E0710E40E06545068AC6FAE1ABDB3983&assignmentId=c45934ee-c8a3-4296-aee9-9f2ef82fe41c&projectId=a0a8f18c-a66e-4ba7-a170-23efbdc67501","E0710E40E06545068AC6FAE1ABDB3983-2024-11-24-18-58-49","","1198","","images/causal_sequence/dog_causal/dog_causal_ten.png","0","",""
"","","","","","image-button-response","68","1060851","0.0-12.0-1.0-2.3","E0710E40E06545068AC6FAE1ABDB3983","E0710E40E06545068AC6FAE1ABDB3983","c45934ee-c8a3-4296-aee9-9f2ef82fe41c","a0a8f18c-a66e-4ba7-a170-23efbdc67501","{""participantId"":""E0710E40E06545068AC6FAE1ABDB3983"",""assignmentId"":""c45934ee-c8a3-4296-aee9-9f2ef82fe41c"",""projectId"":""a0a8f18c-a66e-4ba7-a170-23efbdc67501""}","https://test12345.live/?participantId=E0710E40E06545068AC6FAE1ABDB3983&assignmentId=c45934ee-c8a3-4296-aee9-9f2ef82fe41c&projectId=a0a8f18c-a66e-4ba7-a170-23efbdc67501","E0710E40E06545068AC6FAE1ABDB3983-2024-11-24-18-58-49","","null","","[]","null","",""
"","","","","","image-button-response","69","1065360","0.0-12.0-1.0-0.4","E0710E40E06545068AC6FAE1ABDB3983","E0710E40E06545068AC6FAE1ABDB3983","c45934ee-c8a3-4296-aee9-9f2ef82fe41c","a0a8f18c-a66e-4ba7-a170-23efbdc67501","{""participantId"":""E0710E40E06545068AC6FAE1ABDB3983"",""assignmentId"":""c45934ee-c8a3-4296-aee9-9f2ef82fe41c"",""projectId"":""a0a8f18c-a66e-4ba7-a170-23efbdc67501""}","https://test12345.live/?participantId=E0710E40E06545068AC6FAE1ABDB3983&assignmentId=c45934ee-c8a3-4296-aee9-9f2ef82fe41c&projectId=a0a8f18c-a66e-4ba7-a170-23efbdc67501","E0710E40E06545068AC6FAE1ABDB3983-2024-11-24-18-58-49","","null","","images/causal_sequence/dog_causal/dog_causal_5.png","null","",""
"","","","","","image-button-response","70","1066831","0.0-12.0-1.0-1.4","E0710E40E06545068AC6FAE1ABDB3983","E0710E40E06545068AC6FAE1ABDB3983","c45934ee-c8a3-4296-aee9-9f2ef82fe41c","a0a8f18c-a66e-4ba7-a170-23efbdc67501","{""participantId"":""E0710E40E06545068AC6FAE1ABDB3983"",""assignmentId"":""c45934ee-c8a3-4296-aee9-9f2ef82fe41c"",""projectId"":""a0a8f18c-a66e-4ba7-a170-23efbdc67501""}","https://test12345.live/?participantId=E0710E40E06545068AC6FAE1ABDB3983&assignmentId=c45934ee-c8a3-4296-aee9-9f2ef82fe41c&projectId=a0a8f18c-a66e-4ba7-a170-23efbdc67501","E0710E40E06545068AC6FAE1ABDB3983-2024-11-24-18-58-49","","1468","","images/causal_sequence/dog_causal/dog_causal_5.png","0","",""
"","","","","","image-button-response","71","1068638","0.0-12.0-1.0-2.4","E0710E40E06545068AC6FAE1ABDB3983","E0710E40E06545068AC6FAE1ABDB3983","c45934ee-c8a3-4296-aee9-9f2ef82fe41c","a0a8f18c-a66e-4ba7-a170-23efbdc67501","{""participantId"":""E0710E40E06545068AC6FAE1ABDB3983"",""assignmentId"":""c45934ee-c8a3-4296-aee9-9f2ef82fe41c"",""projectId"":""a0a8f18c-a66e-4ba7-a170-23efbdc67501""}","https://test12345.live/?participantId=E0710E40E06545068AC6FAE1ABDB3983&assignmentId=c45934ee-c8a3-4296-aee9-9f2ef82fe41c&projectId=a0a8f18c-a66e-4ba7-a170-23efbdc67501","E0710E40E06545068AC6FAE1ABDB3983-2024-11-24-18-58-49","","null","","[]","null","",""
"","","","","","image-button-response","72","1073145","0.0-12.0-1.0-0.5","E0710E40E06545068AC6FAE1ABDB3983","E0710E40E06545068AC6FAE1ABDB3983","c45934ee-c8a3-4296-aee9-9f2ef82fe41c","a0a8f18c-a66e-4ba7-a170-23efbdc67501","{""participantId"":""E0710E40E06545068AC6FAE1ABDB3983"",""assignmentId"":""c45934ee-c8a3-4296-aee9-9f2ef82fe41c"",""projectId"":""a0a8f18c-a66e-4ba7-a170-23efbdc67501""}","https://test12345.live/?participantId=E0710E40E06545068AC6FAE1ABDB3983&assignmentId=c45934ee-c8a3-4296-aee9-9f2ef82fe41c&projectId=a0a8f18c-a66e-4ba7-a170-23efbdc67501","E0710E40E06545068AC6FAE1ABDB3983-2024-11-24-18-58-49","","null","","images/causal_sequence/dog_causal/dog_causal_8.png","null","",""
"","","","","","image-button-response","73","1074465","0.0-12.0-1.0-1.5","E0710E40E06545068AC6FAE1ABDB3983","E0710E40E06545068AC6FAE1ABDB3983","c45934ee-c8a3-4296-aee9-9f2ef82fe41c","a0a8f18c-a66e-4ba7-a170-23efbdc67501","{""participantId"":""E0710E40E06545068AC6FAE1ABDB3983"",""assignmentId"":""c45934ee-c8a3-4296-aee9-9f2ef82fe41c"",""projectId"":""a0a8f18c-a66e-4ba7-a170-23efbdc67501""}","https://test12345.live/?participantId=E0710E40E06545068AC6FAE1ABDB3983&assignmentId=c45934ee-c8a3-4296-aee9-9f2ef82fe41c&projectId=a0a8f18c-a66e-4ba7-a170-23efbdc67501","E0710E40E06545068AC6FAE1ABDB3983-2024-11-24-18-58-49","","1318","","images/causal_sequence/dog_causal/dog_causal_8.png","0","",""
"","","","","","image-button-response","74","1076269","0.0-12.0-1.0-2.5","E0710E40E06545068AC6FAE1ABDB3983","E0710E40E06545068AC6FAE1ABDB3983","c45934ee-c8a3-4296-aee9-9f2ef82fe41c","a0a8f18c-a66e-4ba7-a170-23efbdc67501","{""participantId"":""E0710E40E06545068AC6FAE1ABDB3983"",""assignmentId"":""c45934ee-c8a3-4296-aee9-9f2ef82fe41c"",""projectId"":""a0a8f18c-a66e-4ba7-a170-23efbdc67501""}","https://test12345.live/?participantId=E0710E40E06545068AC6FAE1ABDB3983&assignmentId=c45934ee-c8a3-4296-aee9-9f2ef82fe41c&projectId=a0a8f18c-a66e-4ba7-a170-23efbdc67501","E0710E40E06545068AC6FAE1ABDB3983-2024-11-24-18-58-49","","null","","[]","null","",""
"","","","","","image-button-response","75","1080777","0.0-12.0-1.0-0.6","E0710E40E06545068AC6FAE1ABDB3983","E0710E40E06545068AC6FAE1ABDB3983","c45934ee-c8a3-4296-aee9-9f2ef82fe41c","a0a8f18c-a66e-4ba7-a170-23efbdc67501","{""participantId"":""E0710E40E06545068AC6FAE1ABDB3983"",""assignmentId"":""c45934ee-c8a3-4296-aee9-9f2ef82fe41c"",""projectId"":""a0a8f18c-a66e-4ba7-a170-23efbdc67501""}","https://test12345.live/?participantId=E0710E40E06545068AC6FAE1ABDB3983&assignmentId=c45934ee-c8a3-4296-aee9-9f2ef82fe41c&projectId=a0a8f18c-a66e-4ba7-a170-23efbdc67501","E0710E40E06545068AC6FAE1ABDB3983-2024-11-24-18-58-49","","null","","images/causal_sequence/dog_causal/dog_causal_1.png","null","",""
"","","","","","image-button-response","76","1082004","0.0-12.0-1.0-1.6","E0710E40E06545068AC6FAE1ABDB3983","E0710E40E06545068AC6FAE1ABDB3983","c45934ee-c8a3-4296-aee9-9f2ef82fe41c","a0a8f18c-a66e-4ba7-a170-23efbdc67501","{""participantId"":""E0710E40E06545068AC6FAE1ABDB3983"",""assignmentId"":""c45934ee-c8a3-4296-aee9-9f2ef82fe41c"",""projectId"":""a0a8f18c-a66e-4ba7-a170-23efbdc67501""}","https://test12345.live/?participantId=E0710E40E06545068AC6FAE1ABDB3983&assignmentId=c45934ee-c8a3-4296-aee9-9f2ef82fe41c&projectId=a0a8f18c-a66e-4ba7-a170-23efbdc67501","E0710E40E06545068AC6FAE1ABDB3983-2024-11-24-18-58-49","","1224","","images/causal_sequence/dog_causal/dog_causal_1.png","0","",""
"","","","","","image-button-response","77","1083806","0.0-12.0-1.0-2.6","E0710E40E06545068AC6FAE1ABDB3983","E0710E40E06545068AC6FAE1ABDB3983","c45934ee-c8a3-4296-aee9-9f2ef82fe41c","a0a8f18c-a66e-4ba7-a170-23efbdc67501","{""participantId"":""E0710E40E06545068AC6FAE1ABDB3983"",""assignmentId"":""c45934ee-c8a3-4296-aee9-9f2ef82fe41c"",""projectId"":""a0a8f18c-a66e-4ba7-a170-23efbdc67501""}","https://test12345.live/?participantId=E0710E40E06545068AC6FAE1ABDB3983&assignmentId=c45934ee-c8a3-4296-aee9-9f2ef82fe41c&projectId=a0a8f18c-a66e-4ba7-a170-23efbdc67501","E0710E40E06545068AC6FAE1ABDB3983-2024-11-24-18-58-49","","null","","[]","null","",""
"","","","","","image-button-response","78","1088314","0.0-12.0-1.0-0.7","E0710E40E06545068AC6FAE1ABDB3983","E0710E40E06545068AC6FAE1ABDB3983","c45934ee-c8a3-4296-aee9-9f2ef82fe41c","a0a8f18c-a66e-4ba7-a170-23efbdc67501","{""participantId"":""E0710E40E06545068AC6FAE1ABDB3983"",""assignmentId"":""c45934ee-c8a3-4296-aee9-9f2ef82fe41c"",""projectId"":""a0a8f18c-a66e-4ba7-a170-23efbdc67501""}","https://test12345.live/?participantId=E0710E40E06545068AC6FAE1ABDB3983&assignmentId=c45934ee-c8a3-4296-aee9-9f2ef82fe41c&projectId=a0a8f18c-a66e-4ba7-a170-23efbdc67501","E0710E40E06545068AC6FAE1ABDB3983-2024-11-24-18-58-49","","null","","images/causal_sequence/dog_causal/dog_causal_6.png","null","",""
"","","","","","image-button-response","79","1089589","0.0-12.0-1.0-1.7","E0710E40E06545068AC6FAE1ABDB3983","E0710E40E06545068AC6FAE1ABDB3983","c45934ee-c8a3-4296-aee9-9f2ef82fe41c","a0a8f18c-a66e-4ba7-a170-23efbdc67501","{""participantId"":""E0710E40E06545068AC6FAE1ABDB3983"",""assignmentId"":""c45934ee-c8a3-4296-aee9-9f2ef82fe41c"",""projectId"":""a0a8f18c-a66e-4ba7-a170-23efbdc67501""}","https://test12345.live/?participantId=E0710E40E06545068AC6FAE1ABDB3983&assignmentId=c45934ee-c8a3-4296-aee9-9f2ef82fe41c&projectId=a0a8f18c-a66e-4ba7-a170-23efbdc67501","E0710E40E06545068AC6FAE1ABDB3983-2024-11-24-18-58-49","","1273","","images/causal_sequence/dog_causal/dog_causal_6.png","0","",""
"","","","","","image-button-response","80","1091393","0.0-12.0-1.0-2.7","E0710E40E06545068AC6FAE1ABDB3983","E0710E40E06545068AC6FAE1ABDB3983","c45934ee-c8a3-4296-aee9-9f2ef82fe41c","a0a8f18c-a66e-4ba7-a170-23efbdc67501","{""participantId"":""E0710E40E06545068AC6FAE1ABDB3983"",""assignmentId"":""c45934ee-c8a3-4296-aee9-9f2ef82fe41c"",""projectId"":""a0a8f18c-a66e-4ba7-a170-23efbdc67501""}","https://test12345.live/?participantId=E0710E40E06545068AC6FAE1ABDB3983&assignmentId=c45934ee-c8a3-4296-aee9-9f2ef82fe41c&projectId=a0a8f18c-a66e-4ba7-a170-23efbdc67501","E0710E40E06545068AC6FAE1ABDB3983-2024-11-24-18-58-49","","null","","[]","null","",""
"","","","","","image-button-response","81","1095897","0.0-12.0-1.0-0.8","E0710E40E06545068AC6FAE1ABDB3983","E0710E40E06545068AC6FAE1ABDB3983","c45934ee-c8a3-4296-aee9-9f2ef82fe41c","a0a8f18c-a66e-4ba7-a170-23efbdc67501","{""participantId"":""E0710E40E06545068AC6FAE1ABDB3983"",""assignmentId"":""c45934ee-c8a3-4296-aee9-9f2ef82fe41c"",""projectId"":""a0a8f18c-a66e-4ba7-a170-23efbdc67501""}","https://test12345.live/?participantId=E0710E40E06545068AC6FAE1ABDB3983&assignmentId=c45934ee-c8a3-4296-aee9-9f2ef82fe41c&projectId=a0a8f18c-a66e-4ba7-a170-23efbdc67501","E0710E40E06545068AC6FAE1ABDB3983-2024-11-24-18-58-49","","null","","images/causal_sequence/dog_causal/dog_causal_3.png","null","",""
"","","","","","image-button-response","82","1097188","0.0-12.0-1.0-1.8","E0710E40E06545068AC6FAE1ABDB3983","E0710E40E06545068AC6FAE1ABDB3983","c45934ee-c8a3-4296-aee9-9f2ef82fe41c","a0a8f18c-a66e-4ba7-a170-23efbdc67501","{""participantId"":""E0710E40E06545068AC6FAE1ABDB3983"",""assignmentId"":""c45934ee-c8a3-4296-aee9-9f2ef82fe41c"",""projectId"":""a0a8f18c-a66e-4ba7-a170-23efbdc67501""}","https://test12345.live/?participantId=E0710E40E06545068AC6FAE1ABDB3983&assignmentId=c45934ee-c8a3-4296-aee9-9f2ef82fe41c&projectId=a0a8f18c-a66e-4ba7-a170-23efbdc67501","E0710E40E06545068AC6FAE1ABDB3983-2024-11-24-18-58-49","","1290","","images/causal_sequence/dog_causal/dog_causal_3.png","0","",""
"","","","","","image-button-response","83","1098996","0.0-12.0-1.0-2.8","E0710E40E06545068AC6FAE1ABDB3983","E0710E40E06545068AC6FAE1ABDB3983","c45934ee-c8a3-4296-aee9-9f2ef82fe41c","a0a8f18c-a66e-4ba7-a170-23efbdc67501","{""participantId"":""E0710E40E06545068AC6FAE1ABDB3983"",""assignmentId"":""c45934ee-c8a3-4296-aee9-9f2ef82fe41c"",""projectId"":""a0a8f18c-a66e-4ba7-a170-23efbdc67501""}","https://test12345.live/?participantId=E0710E40E06545068AC6FAE1ABDB3983&assignmentId=c45934ee-c8a3-4296-aee9-9f2ef82fe41c&projectId=a0a8f18c-a66e-4ba7-a170-23efbdc67501","E0710E40E06545068AC6FAE1ABDB3983-2024-11-24-18-58-49","","null","","[]","null","",""
"","","","","","image-button-response","84","1103505","0.0-12.0-1.0-0.9","E0710E40E06545068AC6FAE1ABDB3983","E0710E40E06545068AC6FAE1ABDB3983","c45934ee-c8a3-4296-aee9-9f2ef82fe41c","a0a8f18c-a66e-4ba7-a170-23efbdc67501","{""participantId"":""E0710E40E06545068AC6FAE1ABDB3983"",""assignmentId"":""c45934ee-c8a3-4296-aee9-9f2ef82fe41c"",""projectId"":""a0a8f18c-a66e-4ba7-a170-23efbdc67501""}","https://test12345.live/?participantId=E0710E40E06545068AC6FAE1ABDB3983&assignmentId=c45934ee-c8a3-4296-aee9-9f2ef82fe41c&projectId=a0a8f18c-a66e-4ba7-a170-23efbdc67501","E0710E40E06545068AC6FAE1ABDB3983-2024-11-24-18-58-49","","null","","images/causal_sequence/dog_causal/dog_causal_7.png","null","",""
"","","","","","image-button-response","85","1104589","0.0-12.0-1.0-1.9","E0710E40E06545068AC6FAE1ABDB3983","E0710E40E06545068AC6FAE1ABDB3983","c45934ee-c8a3-4296-aee9-9f2ef82fe41c","a0a8f18c-a66e-4ba7-a170-23efbdc67501","{""participantId"":""E0710E40E06545068AC6FAE1ABDB3983"",""assignmentId"":""c45934ee-c8a3-4296-aee9-9f2ef82fe41c"",""projectId"":""a0a8f18c-a66e-4ba7-a170-23efbdc67501""}","https://test12345.live/?participantId=E0710E40E06545068AC6FAE1ABDB3983&assignmentId=c45934ee-c8a3-4296-aee9-9f2ef82fe41c&projectId=a0a8f18c-a66e-4ba7-a170-23efbdc67501","E0710E40E06545068AC6FAE1ABDB3983-2024-11-24-18-58-49","","1081","","images/causal_sequence/dog_causal/dog_causal_7.png","0","",""
"","","","","","image-button-response","86","1106397","0.0-12.0-1.0-2.9","E0710E40E06545068AC6FAE1ABDB3983","E0710E40E06545068AC6FAE1ABDB3983","c45934ee-c8a3-4296-aee9-9f2ef82fe41c","a0a8f18c-a66e-4ba7-a170-23efbdc67501","{""participantId"":""E0710E40E06545068AC6FAE1ABDB3983"",""assignmentId"":""c45934ee-c8a3-4296-aee9-9f2ef82fe41c"",""projectId"":""a0a8f18c-a66e-4ba7-a170-23efbdc67501""}","https://test12345.live/?participantId=E0710E40E06545068AC6FAE1ABDB3983&assignmentId=c45934ee-c8a3-4296-aee9-9f2ef82fe41c&projectId=a0a8f18c-a66e-4ba7-a170-23efbdc67501","E0710E40E06545068AC6FAE1ABDB3983-2024-11-24-18-58-49","","null","","[]","null","",""
"","","","","","html-audio-response","87","1139519","0.0-13.0","E0710E40E06545068AC6FAE1ABDB3983","E0710E40E06545068AC6FAE1ABDB3983","c45934ee-c8a3-4296-aee9-9f2ef82fe41c","a0a8f18c-a66e-4ba7-a170-23efbdc67501","{""participantId"":""E0710E40E06545068AC6FAE1ABDB3983"",""assignmentId"":""c45934ee-c8a3-4296-aee9-9f2ef82fe41c"",""projectId"":""a0a8f18c-a66e-4ba7-a170-23efbdc67501""}","https://test12345.live/?participantId=E0710E40E06545068AC6FAE1ABDB3983&assignmentId=c45934ee-c8a3-4296-aee9-9f2ef82fe41c&projectId=a0a8f18c-a66e-4ba7-a170-23efbdc67501","E0710E40E06545068AC6FAE1ABDB3983-2024-11-24-18-58-49","","27132","","[""<span style=\""color: red; font-size: 24px\""> NOW RECORDING</span><p>Please say out loud all the images you saw, as many as you can remember. The images can be said in any order.</p>""]","","2","dog_causal"
"","","","","","image-button-response","88","1145531","0.0-14.0-0.0","E0710E40E06545068AC6FAE1ABDB3983","E0710E40E06545068AC6FAE1ABDB3983","c45934ee-c8a3-4296-aee9-9f2ef82fe41c","a0a8f18c-a66e-4ba7-a170-23efbdc67501","{""participantId"":""E0710E40E06545068AC6FAE1ABDB3983"",""assignmentId"":""c45934ee-c8a3-4296-aee9-9f2ef82fe41c"",""projectId"":""a0a8f18c-a66e-4ba7-a170-23efbdc67501""}","https://test12345.live/?participantId=E0710E40E06545068AC6FAE1ABDB3983&assignmentId=c45934ee-c8a3-4296-aee9-9f2ef82fe41c&projectId=a0a8f18c-a66e-4ba7-a170-23efbdc67501","E0710E40E06545068AC6FAE1ABDB3983-2024-11-24-18-58-49","","null","","images/schematic_sequence/flight_scheme/flight_scheme_0.png","null","",""
"","","","","","image-button-response","89","1150041","0.0-14.0-1.0-0.0","E0710E40E06545068AC6FAE1ABDB3983","E0710E40E06545068AC6FAE1ABDB3983","c45934ee-c8a3-4296-aee9-9f2ef82fe41c","a0a8f18c-a66e-4ba7-a170-23efbdc67501","{""participantId"":""E0710E40E06545068AC6FAE1ABDB3983"",""assignmentId"":""c45934ee-c8a3-4296-aee9-9f2ef82fe41c"",""projectId"":""a0a8f18c-a66e-4ba7-a170-23efbdc67501""}","https://test12345.live/?participantId=E0710E40E06545068AC6FAE1ABDB3983&assignmentId=c45934ee-c8a3-4296-aee9-9f2ef82fe41c&projectId=a0a8f18c-a66e-4ba7-a170-23efbdc67501","E0710E40E06545068AC6FAE1ABDB3983-2024-11-24-18-58-49","","null","","images/schematic_sequence/flight_scheme/flight_scheme_6.png","null","",""
"","","","","","image-button-response","90","1151689","0.0-14.0-1.0-1.0","E0710E40E06545068AC6FAE1ABDB3983","E0710E40E06545068AC6FAE1ABDB3983","c45934ee-c8a3-4296-aee9-9f2ef82fe41c","a0a8f18c-a66e-4ba7-a170-23efbdc67501","{""participantId"":""E0710E40E06545068AC6FAE1ABDB3983"",""assignmentId"":""c45934ee-c8a3-4296-aee9-9f2ef82fe41c"",""projectId"":""a0a8f18c-a66e-4ba7-a170-23efbdc67501""}","https://test12345.live/?participantId=E0710E40E06545068AC6FAE1ABDB3983&assignmentId=c45934ee-c8a3-4296-aee9-9f2ef82fe41c&projectId=a0a8f18c-a66e-4ba7-a170-23efbdc67501","E0710E40E06545068AC6FAE1ABDB3983-2024-11-24-18-58-49","","1644","","images/schematic_sequence/flight_scheme/flight_scheme_6.png","1","",""
"","","","","","image-button-response","91","1153495","0.0-14.0-1.0-2.0","E0710E40E06545068AC6FAE1ABDB3983","E0710E40E06545068AC6FAE1ABDB3983","c45934ee-c8a3-4296-aee9-9f2ef82fe41c","a0a8f18c-a66e-4ba7-a170-23efbdc67501","{""participantId"":""E0710E40E06545068AC6FAE1ABDB3983"",""assignmentId"":""c45934ee-c8a3-4296-aee9-9f2ef82fe41c"",""projectId"":""a0a8f18c-a66e-4ba7-a170-23efbdc67501""}","https://test12345.live/?participantId=E0710E40E06545068AC6FAE1ABDB3983&assignmentId=c45934ee-c8a3-4296-aee9-9f2ef82fe41c&projectId=a0a8f18c-a66e-4ba7-a170-23efbdc67501","E0710E40E06545068AC6FAE1ABDB3983-2024-11-24-18-58-49","","null","","[]","null","",""
"","","","","","image-button-response","92","1158001","0.0-14.0-1.0-0.1","E0710E40E06545068AC6FAE1ABDB3983","E0710E40E06545068AC6FAE1ABDB3983","c45934ee-c8a3-4296-aee9-9f2ef82fe41c","a0a8f18c-a66e-4ba7-a170-23efbdc67501","{""participantId"":""E0710E40E06545068AC6FAE1ABDB3983"",""assignmentId"":""c45934ee-c8a3-4296-aee9-9f2ef82fe41c"",""projectId"":""a0a8f18c-a66e-4ba7-a170-23efbdc67501""}","https://test12345.live/?participantId=E0710E40E06545068AC6FAE1ABDB3983&assignmentId=c45934ee-c8a3-4296-aee9-9f2ef82fe41c&projectId=a0a8f18c-a66e-4ba7-a170-23efbdc67501","E0710E40E06545068AC6FAE1ABDB3983-2024-11-24-18-58-49","","null","","images/schematic_sequence/flight_scheme/flight_scheme_1.png","null","",""
"","","","","","image-button-response","93","1159605","0.0-14.0-1.0-1.1","E0710E40E06545068AC6FAE1ABDB3983","E0710E40E06545068AC6FAE1ABDB3983","c45934ee-c8a3-4296-aee9-9f2ef82fe41c","a0a8f18c-a66e-4ba7-a170-23efbdc67501","{""participantId"":""E0710E40E06545068AC6FAE1ABDB3983"",""assignmentId"":""c45934ee-c8a3-4296-aee9-9f2ef82fe41c"",""projectId"":""a0a8f18c-a66e-4ba7-a170-23efbdc67501""}","https://test12345.live/?participantId=E0710E40E06545068AC6FAE1ABDB3983&assignmentId=c45934ee-c8a3-4296-aee9-9f2ef82fe41c&projectId=a0a8f18c-a66e-4ba7-a170-23efbdc67501","E0710E40E06545068AC6FAE1ABDB3983-2024-11-24-18-58-49","","1600","","images/schematic_sequence/flight_scheme/flight_scheme_1.png","0","",""
"","","","","","image-button-response","94","1161413","0.0-14.0-1.0-2.1","E0710E40E06545068AC6FAE1ABDB3983","E0710E40E06545068AC6FAE1ABDB3983","c45934ee-c8a3-4296-aee9-9f2ef82fe41c","a0a8f18c-a66e-4ba7-a170-23efbdc67501","{""participantId"":""E0710E40E06545068AC6FAE1ABDB3983"",""assignmentId"":""c45934ee-c8a3-4296-aee9-9f2ef82fe41c"",""projectId"":""a0a8f18c-a66e-4ba7-a170-23efbdc67501""}","https://test12345.live/?participantId=E0710E40E06545068AC6FAE1ABDB3983&assignmentId=c45934ee-c8a3-4296-aee9-9f2ef82fe41c&projectId=a0a8f18c-a66e-4ba7-a170-23efbdc67501","E0710E40E06545068AC6FAE1ABDB3983-2024-11-24-18-58-49","","null","","[]","null","",""
"","","","","","image-button-response","95","1165919","0.0-14.0-1.0-0.2","E0710E40E06545068AC6FAE1ABDB3983","E0710E40E06545068AC6FAE1ABDB3983","c45934ee-c8a3-4296-aee9-9f2ef82fe41c","a0a8f18c-a66e-4ba7-a170-23efbdc67501","{""participantId"":""E0710E40E06545068AC6FAE1ABDB3983"",""assignmentId"":""c45934ee-c8a3-4296-aee9-9f2ef82fe41c"",""projectId"":""a0a8f18c-a66e-4ba7-a170-23efbdc67501""}","https://test12345.live/?participantId=E0710E40E06545068AC6FAE1ABDB3983&assignmentId=c45934ee-c8a3-4296-aee9-9f2ef82fe41c&projectId=a0a8f18c-a66e-4ba7-a170-23efbdc67501","E0710E40E06545068AC6FAE1ABDB3983-2024-11-24-18-58-49","","null","","images/schematic_sequence/flight_scheme/flight_scheme_7.png","null","",""
"","","","","","image-button-response","96","1168763","0.0-14.0-1.0-1.2","E0710E40E06545068AC6FAE1ABDB3983","E0710E40E06545068AC6FAE1ABDB3983","c45934ee-c8a3-4296-aee9-9f2ef82fe41c","a0a8f18c-a66e-4ba7-a170-23efbdc67501","{""participantId"":""E0710E40E06545068AC6FAE1ABDB3983"",""assignmentId"":""c45934ee-c8a3-4296-aee9-9f2ef82fe41c"",""projectId"":""a0a8f18c-a66e-4ba7-a170-23efbdc67501""}","https://test12345.live/?participantId=E0710E40E06545068AC6FAE1ABDB3983&assignmentId=c45934ee-c8a3-4296-aee9-9f2ef82fe41c&projectId=a0a8f18c-a66e-4ba7-a170-23efbdc67501","E0710E40E06545068AC6FAE1ABDB3983-2024-11-24-18-58-49","","2842","","images/schematic_sequence/flight_scheme/flight_scheme_7.png","1","",""
"","","","","","image-button-response","97","1170570","0.0-14.0-1.0-2.2","E0710E40E06545068AC6FAE1ABDB3983","E0710E40E06545068AC6FAE1ABDB3983","c45934ee-c8a3-4296-aee9-9f2ef82fe41c","a0a8f18c-a66e-4ba7-a170-23efbdc67501","{""participantId"":""E0710E40E06545068AC6FAE1ABDB3983"",""assignmentId"":""c45934ee-c8a3-4296-aee9-9f2ef82fe41c"",""projectId"":""a0a8f18c-a66e-4ba7-a170-23efbdc67501""}","https://test12345.live/?participantId=E0710E40E06545068AC6FAE1ABDB3983&assignmentId=c45934ee-c8a3-4296-aee9-9f2ef82fe41c&projectId=a0a8f18c-a66e-4ba7-a170-23efbdc67501","E0710E40E06545068AC6FAE1ABDB3983-2024-11-24-18-58-49","","null","","[]","null","",""
"","","","","","image-button-response","98","1175078","0.0-14.0-1.0-0.3","E0710E40E06545068AC6FAE1ABDB3983","E0710E40E06545068AC6FAE1ABDB3983","c45934ee-c8a3-4296-aee9-9f2ef82fe41c","a0a8f18c-a66e-4ba7-a170-23efbdc67501","{""participantId"":""E0710E40E06545068AC6FAE1ABDB3983"",""assignmentId"":""c45934ee-c8a3-4296-aee9-9f2ef82fe41c"",""projectId"":""a0a8f18c-a66e-4ba7-a170-23efbdc67501""}","https://test12345.live/?participantId=E0710E40E06545068AC6FAE1ABDB3983&assignmentId=c45934ee-c8a3-4296-aee9-9f2ef82fe41c&projectId=a0a8f18c-a66e-4ba7-a170-23efbdc67501","E0710E40E06545068AC6FAE1ABDB3983-2024-11-24-18-58-49","","null","","images/schematic_sequence/flight_scheme/flight_scheme_3.png","null","",""
"","","","","","image-button-response","99","1176359","0.0-14.0-1.0-1.3","E0710E40E06545068AC6FAE1ABDB3983","E0710E40E06545068AC6FAE1ABDB3983","c45934ee-c8a3-4296-aee9-9f2ef82fe41c","a0a8f18c-a66e-4ba7-a170-23efbdc67501","{""participantId"":""E0710E40E06545068AC6FAE1ABDB3983"",""assignmentId"":""c45934ee-c8a3-4296-aee9-9f2ef82fe41c"",""projectId"":""a0a8f18c-a66e-4ba7-a170-23efbdc67501""}","https://test12345.live/?participantId=E0710E40E06545068AC6FAE1ABDB3983&assignmentId=c45934ee-c8a3-4296-aee9-9f2ef82fe41c&projectId=a0a8f18c-a66e-4ba7-a170-23efbdc67501","E0710E40E06545068AC6FAE1ABDB3983-2024-11-24-18-58-49","","1277","","images/schematic_sequence/flight_scheme/flight_scheme_3.png","0","",""
"","","","","","image-button-response","100","1178165","0.0-14.0-1.0-2.3","E0710E40E06545068AC6FAE1ABDB3983","E0710E40E06545068AC6FAE1ABDB3983","c45934ee-c8a3-4296-aee9-9f2ef82fe41c","a0a8f18c-a66e-4ba7-a170-23efbdc67501","{""participantId"":""E0710E40E06545068AC6FAE1ABDB3983"",""assignmentId"":""c45934ee-c8a3-4296-aee9-9f2ef82fe41c"",""projectId"":""a0a8f18c-a66e-4ba7-a170-23efbdc67501""}","https://test12345.live/?participantId=E0710E40E06545068AC6FAE1ABDB3983&assignmentId=c45934ee-c8a3-4296-aee9-9f2ef82fe41c&projectId=a0a8f18c-a66e-4ba7-a170-23efbdc67501","E0710E40E06545068AC6FAE1ABDB3983-2024-11-24-18-58-49","","null","","[]","null","",""
"","","","","","image-button-response","101","1182673","0.0-14.0-1.0-0.4","E0710E40E06545068AC6FAE1ABDB3983","E0710E40E06545068AC6FAE1ABDB3983","c45934ee-c8a3-4296-aee9-9f2ef82fe41c","a0a8f18c-a66e-4ba7-a170-23efbdc67501","{""participantId"":""E0710E40E06545068AC6FAE1ABDB3983"",""assignmentId"":""c45934ee-c8a3-4296-aee9-9f2ef82fe41c"",""projectId"":""a0a8f18c-a66e-4ba7-a170-23efbdc67501""}","https://test12345.live/?participantId=E0710E40E06545068AC6FAE1ABDB3983&assignmentId=c45934ee-c8a3-4296-aee9-9f2ef82fe41c&projectId=a0a8f18c-a66e-4ba7-a170-23efbdc67501","E0710E40E06545068AC6FAE1ABDB3983-2024-11-24-18-58-49","","null","","images/schematic_sequence/flight_scheme/flight_scheme_8.png","null","",""
"","","","","","image-button-response","102","1184005","0.0-14.0-1.0-1.4","E0710E40E06545068AC6FAE1ABDB3983","E0710E40E06545068AC6FAE1ABDB3983","c45934ee-c8a3-4296-aee9-9f2ef82fe41c","a0a8f18c-a66e-4ba7-a170-23efbdc67501","{""participantId"":""E0710E40E06545068AC6FAE1ABDB3983"",""assignmentId"":""c45934ee-c8a3-4296-aee9-9f2ef82fe41c"",""projectId"":""a0a8f18c-a66e-4ba7-a170-23efbdc67501""}","https://test12345.live/?participantId=E0710E40E06545068AC6FAE1ABDB3983&assignmentId=c45934ee-c8a3-4296-aee9-9f2ef82fe41c&projectId=a0a8f18c-a66e-4ba7-a170-23efbdc67501","E0710E40E06545068AC6FAE1ABDB3983-2024-11-24-18-58-49","","1328","","images/schematic_sequence/flight_scheme/flight_scheme_8.png","1","",""
"","","","","","image-button-response","103","1185812","0.0-14.0-1.0-2.4","E0710E40E06545068AC6FAE1ABDB3983","E0710E40E06545068AC6FAE1ABDB3983","c45934ee-c8a3-4296-aee9-9f2ef82fe41c","a0a8f18c-a66e-4ba7-a170-23efbdc67501","{""participantId"":""E0710E40E06545068AC6FAE1ABDB3983"",""assignmentId"":""c45934ee-c8a3-4296-aee9-9f2ef82fe41c"",""projectId"":""a0a8f18c-a66e-4ba7-a170-23efbdc67501""}","https://test12345.live/?participantId=E0710E40E06545068AC6FAE1ABDB3983&assignmentId=c45934ee-c8a3-4296-aee9-9f2ef82fe41c&projectId=a0a8f18c-a66e-4ba7-a170-23efbdc67501","E0710E40E06545068AC6FAE1ABDB3983-2024-11-24-18-58-49","","null","","[]","null","",""
"","","","","","image-button-response","104","1190319","0.0-14.0-1.0-0.5","E0710E40E06545068AC6FAE1ABDB3983","E0710E40E06545068AC6FAE1ABDB3983","c45934ee-c8a3-4296-aee9-9f2ef82fe41c","a0a8f18c-a66e-4ba7-a170-23efbdc67501","{""participantId"":""E0710E40E06545068AC6FAE1ABDB3983"",""assignmentId"":""c45934ee-c8a3-4296-aee9-9f2ef82fe41c"",""projectId"":""a0a8f18c-a66e-4ba7-a170-23efbdc67501""}","https://test12345.live/?participantId=E0710E40E06545068AC6FAE1ABDB3983&assignmentId=c45934ee-c8a3-4296-aee9-9f2ef82fe41c&projectId=a0a8f18c-a66e-4ba7-a170-23efbdc67501","E0710E40E06545068AC6FAE1ABDB3983-2024-11-24-18-58-49","","null","","images/schematic_sequence/flight_scheme/flight_scheme_4.png","null","",""
"","","","","","image-button-response","105","1191797","0.0-14.0-1.0-1.5","E0710E40E06545068AC6FAE1ABDB3983","E0710E40E06545068AC6FAE1ABDB3983","c45934ee-c8a3-4296-aee9-9f2ef82fe41c","a0a8f18c-a66e-4ba7-a170-23efbdc67501","{""participantId"":""E0710E40E06545068AC6FAE1ABDB3983"",""assignmentId"":""c45934ee-c8a3-4296-aee9-9f2ef82fe41c"",""projectId"":""a0a8f18c-a66e-4ba7-a170-23efbdc67501""}","https://test12345.live/?participantId=E0710E40E06545068AC6FAE1ABDB3983&assignmentId=c45934ee-c8a3-4296-aee9-9f2ef82fe41c&projectId=a0a8f18c-a66e-4ba7-a170-23efbdc67501","E0710E40E06545068AC6FAE1ABDB3983-2024-11-24-18-58-49","","1473","","images/schematic_sequence/flight_scheme/flight_scheme_4.png","0","",""
"","","","","","image-button-response","106","1193598","0.0-14.0-1.0-2.5","E0710E40E06545068AC6FAE1ABDB3983","E0710E40E06545068AC6FAE1ABDB3983","c45934ee-c8a3-4296-aee9-9f2ef82fe41c","a0a8f18c-a66e-4ba7-a170-23efbdc67501","{""participantId"":""E0710E40E06545068AC6FAE1ABDB3983"",""assignmentId"":""c45934ee-c8a3-4296-aee9-9f2ef82fe41c"",""projectId"":""a0a8f18c-a66e-4ba7-a170-23efbdc67501""}","https://test12345.live/?participantId=E0710E40E06545068AC6FAE1ABDB3983&assignmentId=c45934ee-c8a3-4296-aee9-9f2ef82fe41c&projectId=a0a8f18c-a66e-4ba7-a170-23efbdc67501","E0710E40E06545068AC6FAE1ABDB3983-2024-11-24-18-58-49","","null","","[]","null","",""
"","","","","","image-button-response","107","1198105","0.0-14.0-1.0-0.6","E0710E40E06545068AC6FAE1ABDB3983","E0710E40E06545068AC6FAE1ABDB3983","c45934ee-c8a3-4296-aee9-9f2ef82fe41c","a0a8f18c-a66e-4ba7-a170-23efbdc67501","{""participantId"":""E0710E40E06545068AC6FAE1ABDB3983"",""assignmentId"":""c45934ee-c8a3-4296-aee9-9f2ef82fe41c"",""projectId"":""a0a8f18c-a66e-4ba7-a170-23efbdc67501""}","https://test12345.live/?participantId=E0710E40E06545068AC6FAE1ABDB3983&assignmentId=c45934ee-c8a3-4296-aee9-9f2ef82fe41c&projectId=a0a8f18c-a66e-4ba7-a170-23efbdc67501","E0710E40E06545068AC6FAE1ABDB3983-2024-11-24-18-58-49","","null","","images/schematic_sequence/flight_scheme/flight_scheme_ten.png","null","",""
"","","","","","image-button-response","108","1200122","0.0-14.0-1.0-1.6","E0710E40E06545068AC6FAE1ABDB3983","E0710E40E06545068AC6FAE1ABDB3983","c45934ee-c8a3-4296-aee9-9f2ef82fe41c","a0a8f18c-a66e-4ba7-a170-23efbdc67501","{""participantId"":""E0710E40E06545068AC6FAE1ABDB3983"",""assignmentId"":""c45934ee-c8a3-4296-aee9-9f2ef82fe41c"",""projectId"":""a0a8f18c-a66e-4ba7-a170-23efbdc67501""}","https://test12345.live/?participantId=E0710E40E06545068AC6FAE1ABDB3983&assignmentId=c45934ee-c8a3-4296-aee9-9f2ef82fe41c&projectId=a0a8f18c-a66e-4ba7-a170-23efbdc67501","E0710E40E06545068AC6FAE1ABDB3983-2024-11-24-18-58-49","","2014","","images/schematic_sequence/flight_scheme/flight_scheme_ten.png","0","",""
"","","","","","image-button-response","109","1201924","0.0-14.0-1.0-2.6","E0710E40E06545068AC6FAE1ABDB3983","E0710E40E06545068AC6FAE1ABDB3983","c45934ee-c8a3-4296-aee9-9f2ef82fe41c","a0a8f18c-a66e-4ba7-a170-23efbdc67501","{""participantId"":""E0710E40E06545068AC6FAE1ABDB3983"",""assignmentId"":""c45934ee-c8a3-4296-aee9-9f2ef82fe41c"",""projectId"":""a0a8f18c-a66e-4ba7-a170-23efbdc67501""}","https://test12345.live/?participantId=E0710E40E06545068AC6FAE1ABDB3983&assignmentId=c45934ee-c8a3-4296-aee9-9f2ef82fe41c&projectId=a0a8f18c-a66e-4ba7-a170-23efbdc67501","E0710E40E06545068AC6FAE1ABDB3983-2024-11-24-18-58-49","","null","","[]","null","",""
"","","","","","image-button-response","110","1206431","0.0-14.0-1.0-0.7","E0710E40E06545068AC6FAE1ABDB3983","E0710E40E06545068AC6FAE1ABDB3983","c45934ee-c8a3-4296-aee9-9f2ef82fe41c","a0a8f18c-a66e-4ba7-a170-23efbdc67501","{""participantId"":""E0710E40E06545068AC6FAE1ABDB3983"",""assignmentId"":""c45934ee-c8a3-4296-aee9-9f2ef82fe41c"",""projectId"":""a0a8f18c-a66e-4ba7-a170-23efbdc67501""}","https://test12345.live/?participantId=E0710E40E06545068AC6FAE1ABDB3983&assignmentId=c45934ee-c8a3-4296-aee9-9f2ef82fe41c&projectId=a0a8f18c-a66e-4ba7-a170-23efbdc67501","E0710E40E06545068AC6FAE1ABDB3983-2024-11-24-18-58-49","","null","","images/schematic_sequence/flight_scheme/flight_scheme_2.png","null","",""
"","","","","","image-button-response","111","1207524","0.0-14.0-1.0-1.7","E0710E40E06545068AC6FAE1ABDB3983","E0710E40E06545068AC6FAE1ABDB3983","c45934ee-c8a3-4296-aee9-9f2ef82fe41c","a0a8f18c-a66e-4ba7-a170-23efbdc67501","{""participantId"":""E0710E40E06545068AC6FAE1ABDB3983"",""assignmentId"":""c45934ee-c8a3-4296-aee9-9f2ef82fe41c"",""projectId"":""a0a8f18c-a66e-4ba7-a170-23efbdc67501""}","https://test12345.live/?participantId=E0710E40E06545068AC6FAE1ABDB3983&assignmentId=c45934ee-c8a3-4296-aee9-9f2ef82fe41c&projectId=a0a8f18c-a66e-4ba7-a170-23efbdc67501","E0710E40E06545068AC6FAE1ABDB3983-2024-11-24-18-58-49","","1088","","images/schematic_sequence/flight_scheme/flight_scheme_2.png","1","",""
"","","","","","image-button-response","112","1209330","0.0-14.0-1.0-2.7","E0710E40E06545068AC6FAE1ABDB3983","E0710E40E06545068AC6FAE1ABDB3983","c45934ee-c8a3-4296-aee9-9f2ef82fe41c","a0a8f18c-a66e-4ba7-a170-23efbdc67501","{""participantId"":""E0710E40E06545068AC6FAE1ABDB3983"",""assignmentId"":""c45934ee-c8a3-4296-aee9-9f2ef82fe41c"",""projectId"":""a0a8f18c-a66e-4ba7-a170-23efbdc67501""}","https://test12345.live/?participantId=E0710E40E06545068AC6FAE1ABDB3983&assignmentId=c45934ee-c8a3-4296-aee9-9f2ef82fe41c&projectId=a0a8f18c-a66e-4ba7-a170-23efbdc67501","E0710E40E06545068AC6FAE1ABDB3983-2024-11-24-18-58-49","","null","","[]","null","",""
"","","","","","image-button-response","113","1213839","0.0-14.0-1.0-0.8","E0710E40E06545068AC6FAE1ABDB3983","E0710E40E06545068AC6FAE1ABDB3983","c45934ee-c8a3-4296-aee9-9f2ef82fe41c","a0a8f18c-a66e-4ba7-a170-23efbdc67501","{""participantId"":""E0710E40E06545068AC6FAE1ABDB3983"",""assignmentId"":""c45934ee-c8a3-4296-aee9-9f2ef82fe41c"",""projectId"":""a0a8f18c-a66e-4ba7-a170-23efbdc67501""}","https://test12345.live/?participantId=E0710E40E06545068AC6FAE1ABDB3983&assignmentId=c45934ee-c8a3-4296-aee9-9f2ef82fe41c&projectId=a0a8f18c-a66e-4ba7-a170-23efbdc67501","E0710E40E06545068AC6FAE1ABDB3983-2024-11-24-18-58-49","","null","","images/schematic_sequence/flight_scheme/flight_scheme_9.png","null","",""
"","","","","","image-button-response","114","1215774","0.0-14.0-1.0-1.8","E0710E40E06545068AC6FAE1ABDB3983","E0710E40E06545068AC6FAE1ABDB3983","c45934ee-c8a3-4296-aee9-9f2ef82fe41c","a0a8f18c-a66e-4ba7-a170-23efbdc67501","{""participantId"":""E0710E40E06545068AC6FAE1ABDB3983"",""assignmentId"":""c45934ee-c8a3-4296-aee9-9f2ef82fe41c"",""projectId"":""a0a8f18c-a66e-4ba7-a170-23efbdc67501""}","https://test12345.live/?participantId=E0710E40E06545068AC6FAE1ABDB3983&assignmentId=c45934ee-c8a3-4296-aee9-9f2ef82fe41c&projectId=a0a8f18c-a66e-4ba7-a170-23efbdc67501","E0710E40E06545068AC6FAE1ABDB3983-2024-11-24-18-58-49","","1931","","images/schematic_sequence/flight_scheme/flight_scheme_9.png","0","",""
"","","","","","image-button-response","115","1217577","0.0-14.0-1.0-2.8","E0710E40E06545068AC6FAE1ABDB3983","E0710E40E06545068AC6FAE1ABDB3983","c45934ee-c8a3-4296-aee9-9f2ef82fe41c","a0a8f18c-a66e-4ba7-a170-23efbdc67501","{""participantId"":""E0710E40E06545068AC6FAE1ABDB3983"",""assignmentId"":""c45934ee-c8a3-4296-aee9-9f2ef82fe41c"",""projectId"":""a0a8f18c-a66e-4ba7-a170-23efbdc67501""}","https://test12345.live/?participantId=E0710E40E06545068AC6FAE1ABDB3983&assignmentId=c45934ee-c8a3-4296-aee9-9f2ef82fe41c&projectId=a0a8f18c-a66e-4ba7-a170-23efbdc67501","E0710E40E06545068AC6FAE1ABDB3983-2024-11-24-18-58-49","","null","","[]","null","",""
"","","","","","image-button-response","116","1222081","0.0-14.0-1.0-0.9","E0710E40E06545068AC6FAE1ABDB3983","E0710E40E06545068AC6FAE1ABDB3983","c45934ee-c8a3-4296-aee9-9f2ef82fe41c","a0a8f18c-a66e-4ba7-a170-23efbdc67501","{""participantId"":""E0710E40E06545068AC6FAE1ABDB3983"",""assignmentId"":""c45934ee-c8a3-4296-aee9-9f2ef82fe41c"",""projectId"":""a0a8f18c-a66e-4ba7-a170-23efbdc67501""}","https://test12345.live/?participantId=E0710E40E06545068AC6FAE1ABDB3983&assignmentId=c45934ee-c8a3-4296-aee9-9f2ef82fe41c&projectId=a0a8f18c-a66e-4ba7-a170-23efbdc67501","E0710E40E06545068AC6FAE1ABDB3983-2024-11-24-18-58-49","","null","","images/schematic_sequence/flight_scheme/flight_scheme_5.png","null","",""
"","","","","","image-button-response","117","1223322","0.0-14.0-1.0-1.9","E0710E40E06545068AC6FAE1ABDB3983","E0710E40E06545068AC6FAE1ABDB3983","c45934ee-c8a3-4296-aee9-9f2ef82fe41c","a0a8f18c-a66e-4ba7-a170-23efbdc67501","{""participantId"":""E0710E40E06545068AC6FAE1ABDB3983"",""assignmentId"":""c45934ee-c8a3-4296-aee9-9f2ef82fe41c"",""projectId"":""a0a8f18c-a66e-4ba7-a170-23efbdc67501""}","https://test12345.live/?participantId=E0710E40E06545068AC6FAE1ABDB3983&assignmentId=c45934ee-c8a3-4296-aee9-9f2ef82fe41c&projectId=a0a8f18c-a66e-4ba7-a170-23efbdc67501","E0710E40E06545068AC6FAE1ABDB3983-2024-11-24-18-58-49","","1236","","images/schematic_sequence/flight_scheme/flight_scheme_5.png","0","",""
"","","","","","image-button-response","118","1225128","0.0-14.0-1.0-2.9","E0710E40E06545068AC6FAE1ABDB3983","E0710E40E06545068AC6FAE1ABDB3983","c45934ee-c8a3-4296-aee9-9f2ef82fe41c","a0a8f18c-a66e-4ba7-a170-23efbdc67501","{""participantId"":""E0710E40E06545068AC6FAE1ABDB3983"",""assignmentId"":""c45934ee-c8a3-4296-aee9-9f2ef82fe41c"",""projectId"":""a0a8f18c-a66e-4ba7-a170-23efbdc67501""}","https://test12345.live/?participantId=E0710E40E06545068AC6FAE1ABDB3983&assignmentId=c45934ee-c8a3-4296-aee9-9f2ef82fe41c&projectId=a0a8f18c-a66e-4ba7-a170-23efbdc67501","E0710E40E06545068AC6FAE1ABDB3983-2024-11-24-18-58-49","","null","","[]","null","",""
"","","","","","html-audio-response","119","1250811","0.0-15.0","E0710E40E06545068AC6FAE1ABDB3983","E0710E40E06545068AC6FAE1ABDB3983","c45934ee-c8a3-4296-aee9-9f2ef82fe41c","a0a8f18c-a66e-4ba7-a170-23efbdc67501","{""participantId"":""E0710E40E06545068AC6FAE1ABDB3983"",""assignmentId"":""c45934ee-c8a3-4296-aee9-9f2ef82fe41c"",""projectId"":""a0a8f18c-a66e-4ba7-a170-23efbdc67501""}","https://test12345.live/?participantId=E0710E40E06545068AC6FAE1ABDB3983&assignmentId=c45934ee-c8a3-4296-aee9-9f2ef82fe41c&projectId=a0a8f18c-a66e-4ba7-a170-23efbdc67501","E0710E40E06545068AC6FAE1ABDB3983-2024-11-24-18-58-49","","21116","","[""<span style=\""color: red; font-size: 24px\""> NOW RECORDING</span><p>Please say out loud all the images you saw, as many as you can remember. The images can be said in any order.</p>""]","","2","flight_scheme"
"","","","","","image-button-response","120","1256823","0.0-16.0-0.0","E0710E40E06545068AC6FAE1ABDB3983","E0710E40E06545068AC6FAE1ABDB3983","c45934ee-c8a3-4296-aee9-9f2ef82fe41c","a0a8f18c-a66e-4ba7-a170-23efbdc67501","{""participantId"":""E0710E40E06545068AC6FAE1ABDB3983"",""assignmentId"":""c45934ee-c8a3-4296-aee9-9f2ef82fe41c"",""projectId"":""a0a8f18c-a66e-4ba7-a170-23efbdc67501""}","https://test12345.live/?participantId=E0710E40E06545068AC6FAE1ABDB3983&assignmentId=c45934ee-c8a3-4296-aee9-9f2ef82fe41c&projectId=a0a8f18c-a66e-4ba7-a170-23efbdc67501","E0710E40E06545068AC6FAE1ABDB3983-2024-11-24-18-58-49","","null","","images/schematic_sequence/restaurant_scheme/restaurant_scheme_0.png","null","",""
"","","","","","image-button-response","121","1261335","0.0-16.0-1.0-0.0","E0710E40E06545068AC6FAE1ABDB3983","E0710E40E06545068AC6FAE1ABDB3983","c45934ee-c8a3-4296-aee9-9f2ef82fe41c","a0a8f18c-a66e-4ba7-a170-23efbdc67501","{""participantId"":""E0710E40E06545068AC6FAE1ABDB3983"",""assignmentId"":""c45934ee-c8a3-4296-aee9-9f2ef82fe41c"",""projectId"":""a0a8f18c-a66e-4ba7-a170-23efbdc67501""}","https://test12345.live/?participantId=E0710E40E06545068AC6FAE1ABDB3983&assignmentId=c45934ee-c8a3-4296-aee9-9f2ef82fe41c&projectId=a0a8f18c-a66e-4ba7-a170-23efbdc67501","E0710E40E06545068AC6FAE1ABDB3983-2024-11-24-18-58-49","","null","","images/schematic_sequence/restaurant_scheme/restaurant_scheme_1.png","null","",""
"","","","","","image-button-response","122","1262639","0.0-16.0-1.0-1.0","E0710E40E06545068AC6FAE1ABDB3983","E0710E40E06545068AC6FAE1ABDB3983","c45934ee-c8a3-4296-aee9-9f2ef82fe41c","a0a8f18c-a66e-4ba7-a170-23efbdc67501","{""participantId"":""E0710E40E06545068AC6FAE1ABDB3983"",""assignmentId"":""c45934ee-c8a3-4296-aee9-9f2ef82fe41c"",""projectId"":""a0a8f18c-a66e-4ba7-a170-23efbdc67501""}","https://test12345.live/?participantId=E0710E40E06545068AC6FAE1ABDB3983&assignmentId=c45934ee-c8a3-4296-aee9-9f2ef82fe41c&projectId=a0a8f18c-a66e-4ba7-a170-23efbdc67501","E0710E40E06545068AC6FAE1ABDB3983-2024-11-24-18-58-49","","1302","","images/schematic_sequence/restaurant_scheme/restaurant_scheme_1.png","0","",""
"","","","","","image-button-response","123","1264444","0.0-16.0-1.0-2.0","E0710E40E06545068AC6FAE1ABDB3983","E0710E40E06545068AC6FAE1ABDB3983","c45934ee-c8a3-4296-aee9-9f2ef82fe41c","a0a8f18c-a66e-4ba7-a170-23efbdc67501","{""participantId"":""E0710E40E06545068AC6FAE1ABDB3983"",""assignmentId"":""c45934ee-c8a3-4296-aee9-9f2ef82fe41c"",""projectId"":""a0a8f18c-a66e-4ba7-a170-23efbdc67501""}","https://test12345.live/?participantId=E0710E40E06545068AC6FAE1ABDB3983&assignmentId=c45934ee-c8a3-4296-aee9-9f2ef82fe41c&projectId=a0a8f18c-a66e-4ba7-a170-23efbdc67501","E0710E40E06545068AC6FAE1ABDB3983-2024-11-24-18-58-49","","null","","[]","null","",""
"","","","","","image-button-response","124","1268952","0.0-16.0-1.0-0.1","E0710E40E06545068AC6FAE1ABDB3983","E0710E40E06545068AC6FAE1ABDB3983","c45934ee-c8a3-4296-aee9-9f2ef82fe41c","a0a8f18c-a66e-4ba7-a170-23efbdc67501","{""participantId"":""E0710E40E06545068AC6FAE1ABDB3983"",""assignmentId"":""c45934ee-c8a3-4296-aee9-9f2ef82fe41c"",""projectId"":""a0a8f18c-a66e-4ba7-a170-23efbdc67501""}","https://test12345.live/?participantId=E0710E40E06545068AC6FAE1ABDB3983&assignmentId=c45934ee-c8a3-4296-aee9-9f2ef82fe41c&projectId=a0a8f18c-a66e-4ba7-a170-23efbdc67501","E0710E40E06545068AC6FAE1ABDB3983-2024-11-24-18-58-49","","null","","images/schematic_sequence/restaurant_scheme/restaurant_scheme_2.png","null","",""
"","","","","","image-button-response","125","1269925","0.0-16.0-1.0-1.1","E0710E40E06545068AC6FAE1ABDB3983","E0710E40E06545068AC6FAE1ABDB3983","c45934ee-c8a3-4296-aee9-9f2ef82fe41c","a0a8f18c-a66e-4ba7-a170-23efbdc67501","{""participantId"":""E0710E40E06545068AC6FAE1ABDB3983"",""assignmentId"":""c45934ee-c8a3-4296-aee9-9f2ef82fe41c"",""projectId"":""a0a8f18c-a66e-4ba7-a170-23efbdc67501""}","https://test12345.live/?participantId=E0710E40E06545068AC6FAE1ABDB3983&assignmentId=c45934ee-c8a3-4296-aee9-9f2ef82fe41c&projectId=a0a8f18c-a66e-4ba7-a170-23efbdc67501","E0710E40E06545068AC6FAE1ABDB3983-2024-11-24-18-58-49","","970","","images/schematic_sequence/restaurant_scheme/restaurant_scheme_2.png","1","",""
"","","","","","image-button-response","126","1271732","0.0-16.0-1.0-2.1","E0710E40E06545068AC6FAE1ABDB3983","E0710E40E06545068AC6FAE1ABDB3983","c45934ee-c8a3-4296-aee9-9f2ef82fe41c","a0a8f18c-a66e-4ba7-a170-23efbdc67501","{""participantId"":""E0710E40E06545068AC6FAE1ABDB3983"",""assignmentId"":""c45934ee-c8a3-4296-aee9-9f2ef82fe41c"",""projectId"":""a0a8f18c-a66e-4ba7-a170-23efbdc67501""}","https://test12345.live/?participantId=E0710E40E06545068AC6FAE1ABDB3983&assignmentId=c45934ee-c8a3-4296-aee9-9f2ef82fe41c&projectId=a0a8f18c-a66e-4ba7-a170-23efbdc67501","E0710E40E06545068AC6FAE1ABDB3983-2024-11-24-18-58-49","","null","","[]","null","",""
"","","","","","image-button-response","127","1276241","0.0-16.0-1.0-0.2","E0710E40E06545068AC6FAE1ABDB3983","E0710E40E06545068AC6FAE1ABDB3983","c45934ee-c8a3-4296-aee9-9f2ef82fe41c","a0a8f18c-a66e-4ba7-a170-23efbdc67501","{""participantId"":""E0710E40E06545068AC6FAE1ABDB3983"",""assignmentId"":""c45934ee-c8a3-4296-aee9-9f2ef82fe41c"",""projectId"":""a0a8f18c-a66e-4ba7-a170-23efbdc67501""}","https://test12345.live/?participantId=E0710E40E06545068AC6FAE1ABDB3983&assignmentId=c45934ee-c8a3-4296-aee9-9f2ef82fe41c&projectId=a0a8f18c-a66e-4ba7-a170-23efbdc67501","E0710E40E06545068AC6FAE1ABDB3983-2024-11-24-18-58-49","","null","","images/schematic_sequence/restaurant_scheme/restaurant_scheme_3.png","null","",""
"","","","","","image-button-response","128","1277286","0.0-16.0-1.0-1.2","E0710E40E06545068AC6FAE1ABDB3983","E0710E40E06545068AC6FAE1ABDB3983","c45934ee-c8a3-4296-aee9-9f2ef82fe41c","a0a8f18c-a66e-4ba7-a170-23efbdc67501","{""participantId"":""E0710E40E06545068AC6FAE1ABDB3983"",""assignmentId"":""c45934ee-c8a3-4296-aee9-9f2ef82fe41c"",""projectId"":""a0a8f18c-a66e-4ba7-a170-23efbdc67501""}","https://test12345.live/?participantId=E0710E40E06545068AC6FAE1ABDB3983&assignmentId=c45934ee-c8a3-4296-aee9-9f2ef82fe41c&projectId=a0a8f18c-a66e-4ba7-a170-23efbdc67501","E0710E40E06545068AC6FAE1ABDB3983-2024-11-24-18-58-49","","1039","","images/schematic_sequence/restaurant_scheme/restaurant_scheme_3.png","1","",""
"","","","","","image-button-response","129","1279091","0.0-16.0-1.0-2.2","E0710E40E06545068AC6FAE1ABDB3983","E0710E40E06545068AC6FAE1ABDB3983","c45934ee-c8a3-4296-aee9-9f2ef82fe41c","a0a8f18c-a66e-4ba7-a170-23efbdc67501","{""participantId"":""E0710E40E06545068AC6FAE1ABDB3983"",""assignmentId"":""c45934ee-c8a3-4296-aee9-9f2ef82fe41c"",""projectId"":""a0a8f18c-a66e-4ba7-a170-23efbdc67501""}","https://test12345.live/?participantId=E0710E40E06545068AC6FAE1ABDB3983&assignmentId=c45934ee-c8a3-4296-aee9-9f2ef82fe41c&projectId=a0a8f18c-a66e-4ba7-a170-23efbdc67501","E0710E40E06545068AC6FAE1ABDB3983-2024-11-24-18-58-49","","null","","[]","null","",""
"","","","","","image-button-response","130","1283603","0.0-16.0-1.0-0.3","E0710E40E06545068AC6FAE1ABDB3983","E0710E40E06545068AC6FAE1ABDB3983","c45934ee-c8a3-4296-aee9-9f2ef82fe41c","a0a8f18c-a66e-4ba7-a170-23efbdc67501","{""participantId"":""E0710E40E06545068AC6FAE1ABDB3983"",""assignmentId"":""c45934ee-c8a3-4296-aee9-9f2ef82fe41c"",""projectId"":""a0a8f18c-a66e-4ba7-a170-23efbdc67501""}","https://test12345.live/?participantId=E0710E40E06545068AC6FAE1ABDB3983&assignmentId=c45934ee-c8a3-4296-aee9-9f2ef82fe41c&projectId=a0a8f18c-a66e-4ba7-a170-23efbdc67501","E0710E40E06545068AC6FAE1ABDB3983-2024-11-24-18-58-49","","null","","images/schematic_sequence/restaurant_scheme/restaurant_scheme_4.png","null","",""
"","","","","","image-button-response","131","1285388","0.0-16.0-1.0-1.3","E0710E40E06545068AC6FAE1ABDB3983","E0710E40E06545068AC6FAE1ABDB3983","c45934ee-c8a3-4296-aee9-9f2ef82fe41c","a0a8f18c-a66e-4ba7-a170-23efbdc67501","{""participantId"":""E0710E40E06545068AC6FAE1ABDB3983"",""assignmentId"":""c45934ee-c8a3-4296-aee9-9f2ef82fe41c"",""projectId"":""a0a8f18c-a66e-4ba7-a170-23efbdc67501""}","https://test12345.live/?participantId=E0710E40E06545068AC6FAE1ABDB3983&assignmentId=c45934ee-c8a3-4296-aee9-9f2ef82fe41c&projectId=a0a8f18c-a66e-4ba7-a170-23efbdc67501","E0710E40E06545068AC6FAE1ABDB3983-2024-11-24-18-58-49","","1782","","images/schematic_sequence/restaurant_scheme/restaurant_scheme_4.png","0","",""
"","","","","","image-button-response","132","1287194","0.0-16.0-1.0-2.3","E0710E40E06545068AC6FAE1ABDB3983","E0710E40E06545068AC6FAE1ABDB3983","c45934ee-c8a3-4296-aee9-9f2ef82fe41c","a0a8f18c-a66e-4ba7-a170-23efbdc67501","{""participantId"":""E0710E40E06545068AC6FAE1ABDB3983"",""assignmentId"":""c45934ee-c8a3-4296-aee9-9f2ef82fe41c"",""projectId"":""a0a8f18c-a66e-4ba7-a170-23efbdc67501""}","https://test12345.live/?participantId=E0710E40E06545068AC6FAE1ABDB3983&assignmentId=c45934ee-c8a3-4296-aee9-9f2ef82fe41c&projectId=a0a8f18c-a66e-4ba7-a170-23efbdc67501","E0710E40E06545068AC6FAE1ABDB3983-2024-11-24-18-58-49","","null","","[]","null","",""
"","","","","","image-button-response","133","1291703","0.0-16.0-1.0-0.4","E0710E40E06545068AC6FAE1ABDB3983","E0710E40E06545068AC6FAE1ABDB3983","c45934ee-c8a3-4296-aee9-9f2ef82fe41c","a0a8f18c-a66e-4ba7-a170-23efbdc67501","{""participantId"":""E0710E40E06545068AC6FAE1ABDB3983"",""assignmentId"":""c45934ee-c8a3-4296-aee9-9f2ef82fe41c"",""projectId"":""a0a8f18c-a66e-4ba7-a170-23efbdc67501""}","https://test12345.live/?participantId=E0710E40E06545068AC6FAE1ABDB3983&assignmentId=c45934ee-c8a3-4296-aee9-9f2ef82fe41c&projectId=a0a8f18c-a66e-4ba7-a170-23efbdc67501","E0710E40E06545068AC6FAE1ABDB3983-2024-11-24-18-58-49","","null","","images/schematic_sequence/restaurant_scheme/restaurant_scheme_5.png","null","",""
"","","","","","image-button-response","134","1293678","0.0-16.0-1.0-1.4","E0710E40E06545068AC6FAE1ABDB3983","E0710E40E06545068AC6FAE1ABDB3983","c45934ee-c8a3-4296-aee9-9f2ef82fe41c","a0a8f18c-a66e-4ba7-a170-23efbdc67501","{""participantId"":""E0710E40E06545068AC6FAE1ABDB3983"",""assignmentId"":""c45934ee-c8a3-4296-aee9-9f2ef82fe41c"",""projectId"":""a0a8f18c-a66e-4ba7-a170-23efbdc67501""}","https://test12345.live/?participantId=E0710E40E06545068AC6FAE1ABDB3983&assignmentId=c45934ee-c8a3-4296-aee9-9f2ef82fe41c&projectId=a0a8f18c-a66e-4ba7-a170-23efbdc67501","E0710E40E06545068AC6FAE1ABDB3983-2024-11-24-18-58-49","","1972","","images/schematic_sequence/restaurant_scheme/restaurant_scheme_5.png","0","",""
"","","","","","image-button-response","135","1295481","0.0-16.0-1.0-2.4","E0710E40E06545068AC6FAE1ABDB3983","E0710E40E06545068AC6FAE1ABDB3983","c45934ee-c8a3-4296-aee9-9f2ef82fe41c","a0a8f18c-a66e-4ba7-a170-23efbdc67501","{""participantId"":""E0710E40E06545068AC6FAE1ABDB3983"",""assignmentId"":""c45934ee-c8a3-4296-aee9-9f2ef82fe41c"",""projectId"":""a0a8f18c-a66e-4ba7-a170-23efbdc67501""}","https://test12345.live/?participantId=E0710E40E06545068AC6FAE1ABDB3983&assignmentId=c45934ee-c8a3-4296-aee9-9f2ef82fe41c&projectId=a0a8f18c-a66e-4ba7-a170-23efbdc67501","E0710E40E06545068AC6FAE1ABDB3983-2024-11-24-18-58-49","","null","","[]","null","",""
"","","","","","image-button-response","136","1299984","0.0-16.0-1.0-0.5","E0710E40E06545068AC6FAE1ABDB3983","E0710E40E06545068AC6FAE1ABDB3983","c45934ee-c8a3-4296-aee9-9f2ef82fe41c","a0a8f18c-a66e-4ba7-a170-23efbdc67501","{""participantId"":""E0710E40E06545068AC6FAE1ABDB3983"",""assignmentId"":""c45934ee-c8a3-4296-aee9-9f2ef82fe41c"",""projectId"":""a0a8f18c-a66e-4ba7-a170-23efbdc67501""}","https://test12345.live/?participantId=E0710E40E06545068AC6FAE1ABDB3983&assignmentId=c45934ee-c8a3-4296-aee9-9f2ef82fe41c&projectId=a0a8f18c-a66e-4ba7-a170-23efbdc67501","E0710E40E06545068AC6FAE1ABDB3983-2024-11-24-18-58-49","","null","","images/schematic_sequence/restaurant_scheme/restaurant_scheme_6.png","null","",""
"","","","","","image-button-response","137","1302024","0.0-16.0-1.0-1.5","E0710E40E06545068AC6FAE1ABDB3983","E0710E40E06545068AC6FAE1ABDB3983","c45934ee-c8a3-4296-aee9-9f2ef82fe41c","a0a8f18c-a66e-4ba7-a170-23efbdc67501","{""participantId"":""E0710E40E06545068AC6FAE1ABDB3983"",""assignmentId"":""c45934ee-c8a3-4296-aee9-9f2ef82fe41c"",""projectId"":""a0a8f18c-a66e-4ba7-a170-23efbdc67501""}","https://test12345.live/?participantId=E0710E40E06545068AC6FAE1ABDB3983&assignmentId=c45934ee-c8a3-4296-aee9-9f2ef82fe41c&projectId=a0a8f18c-a66e-4ba7-a170-23efbdc67501","E0710E40E06545068AC6FAE1ABDB3983-2024-11-24-18-58-49","","2038","","images/schematic_sequence/restaurant_scheme/restaurant_scheme_6.png","1","",""
"","","","","","image-button-response","138","1303826","0.0-16.0-1.0-2.5","E0710E40E06545068AC6FAE1ABDB3983","E0710E40E06545068AC6FAE1ABDB3983","c45934ee-c8a3-4296-aee9-9f2ef82fe41c","a0a8f18c-a66e-4ba7-a170-23efbdc67501","{""participantId"":""E0710E40E06545068AC6FAE1ABDB3983"",""assignmentId"":""c45934ee-c8a3-4296-aee9-9f2ef82fe41c"",""projectId"":""a0a8f18c-a66e-4ba7-a170-23efbdc67501""}","https://test12345.live/?participantId=E0710E40E06545068AC6FAE1ABDB3983&assignmentId=c45934ee-c8a3-4296-aee9-9f2ef82fe41c&projectId=a0a8f18c-a66e-4ba7-a170-23efbdc67501","E0710E40E06545068AC6FAE1ABDB3983-2024-11-24-18-58-49","","null","","[]","null","",""
"","","","","","image-button-response","139","1308334","0.0-16.0-1.0-0.6","E0710E40E06545068AC6FAE1ABDB3983","E0710E40E06545068AC6FAE1ABDB3983","c45934ee-c8a3-4296-aee9-9f2ef82fe41c","a0a8f18c-a66e-4ba7-a170-23efbdc67501","{""participantId"":""E0710E40E06545068AC6FAE1ABDB3983"",""assignmentId"":""c45934ee-c8a3-4296-aee9-9f2ef82fe41c"",""projectId"":""a0a8f18c-a66e-4ba7-a170-23efbdc67501""}","https://test12345.live/?participantId=E0710E40E06545068AC6FAE1ABDB3983&assignmentId=c45934ee-c8a3-4296-aee9-9f2ef82fe41c&projectId=a0a8f18c-a66e-4ba7-a170-23efbdc67501","E0710E40E06545068AC6FAE1ABDB3983-2024-11-24-18-58-49","","null","","images/schematic_sequence/restaurant_scheme/restaurant_scheme_7.png","null","",""
"","","","","","image-button-response","140","1309977","0.0-16.0-1.0-1.6","E0710E40E06545068AC6FAE1ABDB3983","E0710E40E06545068AC6FAE1ABDB3983","c45934ee-c8a3-4296-aee9-9f2ef82fe41c","a0a8f18c-a66e-4ba7-a170-23efbdc67501","{""participantId"":""E0710E40E06545068AC6FAE1ABDB3983"",""assignmentId"":""c45934ee-c8a3-4296-aee9-9f2ef82fe41c"",""projectId"":""a0a8f18c-a66e-4ba7-a170-23efbdc67501""}","https://test12345.live/?participantId=E0710E40E06545068AC6FAE1ABDB3983&assignmentId=c45934ee-c8a3-4296-aee9-9f2ef82fe41c&projectId=a0a8f18c-a66e-4ba7-a170-23efbdc67501","E0710E40E06545068AC6FAE1ABDB3983-2024-11-24-18-58-49","","1640","","images/schematic_sequence/restaurant_scheme/restaurant_scheme_7.png","1","",""
"","","","","","image-button-response","141","1311784","0.0-16.0-1.0-2.6","E0710E40E06545068AC6FAE1ABDB3983","E0710E40E06545068AC6FAE1ABDB3983","c45934ee-c8a3-4296-aee9-9f2ef82fe41c","a0a8f18c-a66e-4ba7-a170-23efbdc67501","{""participantId"":""E0710E40E06545068AC6FAE1ABDB3983"",""assignmentId"":""c45934ee-c8a3-4296-aee9-9f2ef82fe41c"",""projectId"":""a0a8f18c-a66e-4ba7-a170-23efbdc67501""}","https://test12345.live/?participantId=E0710E40E06545068AC6FAE1ABDB3983&assignmentId=c45934ee-c8a3-4296-aee9-9f2ef82fe41c&projectId=a0a8f18c-a66e-4ba7-a170-23efbdc67501","E0710E40E06545068AC6FAE1ABDB3983-2024-11-24-18-58-49","","null","","[]","null","",""
"","","","","","image-button-response","142","1316293","0.0-16.0-1.0-0.7","E0710E40E06545068AC6FAE1ABDB3983","E0710E40E06545068AC6FAE1ABDB3983","c45934ee-c8a3-4296-aee9-9f2ef82fe41c","a0a8f18c-a66e-4ba7-a170-23efbdc67501","{""participantId"":""E0710E40E06545068AC6FAE1ABDB3983"",""assignmentId"":""c45934ee-c8a3-4296-aee9-9f2ef82fe41c"",""projectId"":""a0a8f18c-a66e-4ba7-a170-23efbdc67501""}","https://test12345.live/?participantId=E0710E40E06545068AC6FAE1ABDB3983&assignmentId=c45934ee-c8a3-4296-aee9-9f2ef82fe41c&projectId=a0a8f18c-a66e-4ba7-a170-23efbdc67501","E0710E40E06545068AC6FAE1ABDB3983-2024-11-24-18-58-49","","null","","images/schematic_sequence/restaurant_scheme/restaurant_scheme_8.png","null","",""
"","","","","","image-button-response","143","1317561","0.0-16.0-1.0-1.7","E0710E40E06545068AC6FAE1ABDB3983","E0710E40E06545068AC6FAE1ABDB3983","c45934ee-c8a3-4296-aee9-9f2ef82fe41c","a0a8f18c-a66e-4ba7-a170-23efbdc67501","{""participantId"":""E0710E40E06545068AC6FAE1ABDB3983"",""assignmentId"":""c45934ee-c8a3-4296-aee9-9f2ef82fe41c"",""projectId"":""a0a8f18c-a66e-4ba7-a170-23efbdc67501""}","https://test12345.live/?participantId=E0710E40E06545068AC6FAE1ABDB3983&assignmentId=c45934ee-c8a3-4296-aee9-9f2ef82fe41c&projectId=a0a8f18c-a66e-4ba7-a170-23efbdc67501","E0710E40E06545068AC6FAE1ABDB3983-2024-11-24-18-58-49","","1263","","images/schematic_sequence/restaurant_scheme/restaurant_scheme_8.png","0","",""
