"success","timeout","failed_images","failed_audio","failed_video","trial_type","trial_index","time_elapsed","internal_node_id","subject","subject_id","study_id","session_id","urlvar","current_url","audio_id","view_history","rt","device_id","stimulus","response","estimated_stimulus_onset","seq_name"
"true","false","[]","[]","[]","preload","0","44","0.0-0.0","E2FD2EDFB5BB45DD8EB6702F832F95F8","E2FD2EDFB5BB45DD8EB6702F832F95F8","8d9efb70-61f0-417f-a3eb-9d452addfa8a","a0a8f18c-a66e-4ba7-a170-23efbdc67501","{""participantId"":""E2FD2EDFB5BB45DD8EB6702F832F95F8"",""assignmentId"":""8d9efb70-61f0-417f-a3eb-9d452addfa8a"",""projectId"":""a0a8f18c-a66e-4ba7-a170-23efbdc67501""}","https://test12345.live/?participantId=E2FD2EDFB5BB45DD8EB6702F832F95F8&assignmentId=8d9efb70-61f0-417f-a3eb-9d452addfa8a&projectId=a0a8f18c-a66e-4ba7-a170-23efbdc67501","E2FD2EDFB5BB45DD8EB6702F832F95F8-2024-11-24-18-42-29","","","","","","",""
"","","","","","instructions","1","16803","0.0-1.0","E2FD2EDFB5BB45DD8EB6702F832F95F8","E2FD2EDFB5BB45DD8EB6702F832F95F8","8d9efb70-61f0-417f-a3eb-9d452addfa8a","a0a8f18c-a66e-4ba7-a170-23efbdc67501","{""participantId"":""E2FD2EDFB5BB45DD8EB6702F832F95F8"",""assignmentId"":""8d9efb70-61f0-417f-a3eb-9d452addfa8a"",""projectId"":""a0a8f18c-a66e-4ba7-a170-23efbdc67501""}","https://test12345.live/?participantId=E2FD2EDFB5BB45DD8EB6702F832F95F8&assignmentId=8d9efb70-61f0-417f-a3eb-9d452addfa8a&projectId=a0a8f18c-a66e-4ba7-a170-23efbdc67501","E2FD2EDFB5BB45DD8EB6702F832F95F8-2024-11-24-18-42-29","[{""page_index"":0,""viewing_time"":16758}]","16759","","","","",""
"","","","","","instructions","2","23932","0.0-2.0","E2FD2EDFB5BB45DD8EB6702F832F95F8","E2FD2EDFB5BB45DD8EB6702F832F95F8","8d9efb70-61f0-417f-a3eb-9d452addfa8a","a0a8f18c-a66e-4ba7-a170-23efbdc67501","{""participantId"":""E2FD2EDFB5BB45DD8EB6702F832F95F8"",""assignmentId"":""8d9efb70-61f0-417f-a3eb-9d452addfa8a"",""projectId"":""a0a8f18c-a66e-4ba7-a170-23efbdc67501""}","https://test12345.live/?participantId=E2FD2EDFB5BB45DD8EB6702F832F95F8&assignmentId=8d9efb70-61f0-417f-a3eb-9d452addfa8a&projectId=a0a8f18c-a66e-4ba7-a170-23efbdc67501","E2FD2EDFB5BB45DD8EB6702F832F95F8-2024-11-24-18-42-29","[{""page_index"":0,""viewing_time"":7127}]","7128","","","","",""
"true","","","","","fullscreen","3","27767","0.0-3.0","E2FD2EDFB5BB45DD8EB6702F832F95F8","E2FD2EDFB5BB45DD8EB6702F832F95F8","8d9efb70-61f0-417f-a3eb-9d452addfa8a","a0a8f18c-a66e-4ba7-a170-23efbdc67501","{""participantId"":""E2FD2EDFB5BB45DD8EB6702F832F95F8"",""assignmentId"":""8d9efb70-61f0-417f-a3eb-9d452addfa8a"",""projectId"":""a0a8f18c-a66e-4ba7-a170-23efbdc67501""}","https://test12345.live/?participantId=E2FD2EDFB5BB45DD8EB6702F832F95F8&assignmentId=8d9efb70-61f0-417f-a3eb-9d452addfa8a&projectId=a0a8f18c-a66e-4ba7-a170-23efbdc67501","E2FD2EDFB5BB45DD8EB6702F832F95F8-2024-11-24-18-42-29","","2826","","","","",""
"","","","","","initialize-microphone","4","45617","0.0-4.0-0.0","E2FD2EDFB5BB45DD8EB6702F832F95F8","E2FD2EDFB5BB45DD8EB6702F832F95F8","8d9efb70-61f0-417f-a3eb-9d452addfa8a","a0a8f18c-a66e-4ba7-a170-23efbdc67501","{""participantId"":""E2FD2EDFB5BB45DD8EB6702F832F95F8"",""assignmentId"":""8d9efb70-61f0-417f-a3eb-9d452addfa8a"",""projectId"":""a0a8f18c-a66e-4ba7-a170-23efbdc67501""}","https://test12345.live/?participantId=E2FD2EDFB5BB45DD8EB6702F832F95F8&assignmentId=8d9efb70-61f0-417f-a3eb-9d452addfa8a&projectId=a0a8f18c-a66e-4ba7-a170-23efbdc67501","E2FD2EDFB5BB45DD8EB6702F832F95F8-2024-11-24-18-42-29","","","0f56f9c6620c312409a33d1d59dfa451f8592138ed8ad228468d781600cb5c20","","","",""
"","","","","","html-audio-response","5","69492","0.0-4.0-1.0","E2FD2EDFB5BB45DD8EB6702F832F95F8","E2FD2EDFB5BB45DD8EB6702F832F95F8","8d9efb70-61f0-417f-a3eb-9d452addfa8a","a0a8f18c-a66e-4ba7-a170-23efbdc67501","{""participantId"":""E2FD2EDFB5BB45DD8EB6702F832F95F8"",""assignmentId"":""8d9efb70-61f0-417f-a3eb-9d452addfa8a"",""projectId"":""a0a8f18c-a66e-4ba7-a170-23efbdc67501""}","https://test12345.live/?participantId=E2FD2EDFB5BB45DD8EB6702F832F95F8&assignmentId=8d9efb70-61f0-417f-a3eb-9d452addfa8a&projectId=a0a8f18c-a66e-4ba7-a170-23efbdc67501","E2FD2EDFB5BB45DD8EB6702F832F95F8-2024-11-24-18-42-29","","3337","","<span style=""color: red; font-size: 24px""> NOW RECORDING</span>
        <p>Please test Microphone</p>","","2",""
"","","","","","html-button-response","6","72270","0.0-4.0-2.0","E2FD2EDFB5BB45DD8EB6702F832F95F8","E2FD2EDFB5BB45DD8EB6702F832F95F8","8d9efb70-61f0-417f-a3eb-9d452addfa8a","a0a8f18c-a66e-4ba7-a170-23efbdc67501","{""participantId"":""E2FD2EDFB5BB45DD8EB6702F832F95F8"",""assignmentId"":""8d9efb70-61f0-417f-a3eb-9d452addfa8a"",""projectId"":""a0a8f18c-a66e-4ba7-a170-23efbdc67501""}","https://test12345.live/?participantId=E2FD2EDFB5BB45DD8EB6702F832F95F8&assignmentId=8d9efb70-61f0-417f-a3eb-9d452addfa8a&projectId=a0a8f18c-a66e-4ba7-a170-23efbdc67501","E2FD2EDFB5BB45DD8EB6702F832F95F8-2024-11-24-18-42-29","","2777","","<p style=""font-size:48px; color:red;"">Is Microphone OK?</p>","1","",""
"","","","","","instructions","7","81593","0.0-5.0","E2FD2EDFB5BB45DD8EB6702F832F95F8","E2FD2EDFB5BB45DD8EB6702F832F95F8","8d9efb70-61f0-417f-a3eb-9d452addfa8a","a0a8f18c-a66e-4ba7-a170-23efbdc67501","{""participantId"":""E2FD2EDFB5BB45DD8EB6702F832F95F8"",""assignmentId"":""8d9efb70-61f0-417f-a3eb-9d452addfa8a"",""projectId"":""a0a8f18c-a66e-4ba7-a170-23efbdc67501""}","https://test12345.live/?participantId=E2FD2EDFB5BB45DD8EB6702F832F95F8&assignmentId=8d9efb70-61f0-417f-a3eb-9d452addfa8a&projectId=a0a8f18c-a66e-4ba7-a170-23efbdc67501","E2FD2EDFB5BB45DD8EB6702F832F95F8-2024-11-24-18-42-29","[{""page_index"":0,""viewing_time"":5701},{""page_index"":1,""viewing_time"":3619}]","9320","","","","",""
"","","","","","image-button-response","8","87602","0.0-6.0-0.0","E2FD2EDFB5BB45DD8EB6702F832F95F8","E2FD2EDFB5BB45DD8EB6702F832F95F8","8d9efb70-61f0-417f-a3eb-9d452addfa8a","a0a8f18c-a66e-4ba7-a170-23efbdc67501","{""participantId"":""E2FD2EDFB5BB45DD8EB6702F832F95F8"",""assignmentId"":""8d9efb70-61f0-417f-a3eb-9d452addfa8a"",""projectId"":""a0a8f18c-a66e-4ba7-a170-23efbdc67501""}","https://test12345.live/?participantId=E2FD2EDFB5BB45DD8EB6702F832F95F8&assignmentId=8d9efb70-61f0-417f-a3eb-9d452addfa8a&projectId=a0a8f18c-a66e-4ba7-a170-23efbdc67501","E2FD2EDFB5BB45DD8EB6702F832F95F8-2024-11-24-18-42-29","","null","","images/instructions/movie_0.png","null","",""
"","","","","","image-button-response","9","92109","0.0-6.0-1.0-0.0","E2FD2EDFB5BB45DD8EB6702F832F95F8","E2FD2EDFB5BB45DD8EB6702F832F95F8","8d9efb70-61f0-417f-a3eb-9d452addfa8a","a0a8f18c-a66e-4ba7-a170-23efbdc67501","{""participantId"":""E2FD2EDFB5BB45DD8EB6702F832F95F8"",""assignmentId"":""8d9efb70-61f0-417f-a3eb-9d452addfa8a"",""projectId"":""a0a8f18c-a66e-4ba7-a170-23efbdc67501""}","https://test12345.live/?participantId=E2FD2EDFB5BB45DD8EB6702F832F95F8&assignmentId=8d9efb70-61f0-417f-a3eb-9d452addfa8a&projectId=a0a8f18c-a66e-4ba7-a170-23efbdc67501","E2FD2EDFB5BB45DD8EB6702F832F95F8-2024-11-24-18-42-29","","null","","images/instructions/movie_1.png","null","",""
"","","","","","image-button-response","10","96113","0.0-6.0-1.0-1.0","E2FD2EDFB5BB45DD8EB6702F832F95F8","E2FD2EDFB5BB45DD8EB6702F832F95F8","8d9efb70-61f0-417f-a3eb-9d452addfa8a","a0a8f18c-a66e-4ba7-a170-23efbdc67501","{""participantId"":""E2FD2EDFB5BB45DD8EB6702F832F95F8"",""assignmentId"":""8d9efb70-61f0-417f-a3eb-9d452addfa8a"",""projectId"":""a0a8f18c-a66e-4ba7-a170-23efbdc67501""}","https://test12345.live/?participantId=E2FD2EDFB5BB45DD8EB6702F832F95F8&assignmentId=8d9efb70-61f0-417f-a3eb-9d452addfa8a&projectId=a0a8f18c-a66e-4ba7-a170-23efbdc67501","E2FD2EDFB5BB45DD8EB6702F832F95F8-2024-11-24-18-42-29","","null","","images/instructions/movie_1.png","null","",""
"","","","","","image-button-response","11","97926","0.0-6.0-1.0-2.0","E2FD2EDFB5BB45DD8EB6702F832F95F8","E2FD2EDFB5BB45DD8EB6702F832F95F8","8d9efb70-61f0-417f-a3eb-9d452addfa8a","a0a8f18c-a66e-4ba7-a170-23efbdc67501","{""participantId"":""E2FD2EDFB5BB45DD8EB6702F832F95F8"",""assignmentId"":""8d9efb70-61f0-417f-a3eb-9d452addfa8a"",""projectId"":""a0a8f18c-a66e-4ba7-a170-23efbdc67501""}","https://test12345.live/?participantId=E2FD2EDFB5BB45DD8EB6702F832F95F8&assignmentId=8d9efb70-61f0-417f-a3eb-9d452addfa8a&projectId=a0a8f18c-a66e-4ba7-a170-23efbdc67501","E2FD2EDFB5BB45DD8EB6702F832F95F8-2024-11-24-18-42-29","","null","","[]","null","",""
"","","","","","image-button-response","12","102434","0.0-6.0-1.0-0.1","E2FD2EDFB5BB45DD8EB6702F832F95F8","E2FD2EDFB5BB45DD8EB6702F832F95F8","8d9efb70-61f0-417f-a3eb-9d452addfa8a","a0a8f18c-a66e-4ba7-a170-23efbdc67501","{""participantId"":""E2FD2EDFB5BB45DD8EB6702F832F95F8"",""assignmentId"":""8d9efb70-61f0-417f-a3eb-9d452addfa8a"",""projectId"":""a0a8f18c-a66e-4ba7-a170-23efbdc67501""}","https://test12345.live/?participantId=E2FD2EDFB5BB45DD8EB6702F832F95F8&assignmentId=8d9efb70-61f0-417f-a3eb-9d452addfa8a&projectId=a0a8f18c-a66e-4ba7-a170-23efbdc67501","E2FD2EDFB5BB45DD8EB6702F832F95F8-2024-11-24-18-42-29","","null","","images/instructions/movie_2.png","null","",""
"","","","","","image-button-response","13","106446","0.0-6.0-1.0-1.1","E2FD2EDFB5BB45DD8EB6702F832F95F8","E2FD2EDFB5BB45DD8EB6702F832F95F8","8d9efb70-61f0-417f-a3eb-9d452addfa8a","a0a8f18c-a66e-4ba7-a170-23efbdc67501","{""participantId"":""E2FD2EDFB5BB45DD8EB6702F832F95F8"",""assignmentId"":""8d9efb70-61f0-417f-a3eb-9d452addfa8a"",""projectId"":""a0a8f18c-a66e-4ba7-a170-23efbdc67501""}","https://test12345.live/?participantId=E2FD2EDFB5BB45DD8EB6702F832F95F8&assignmentId=8d9efb70-61f0-417f-a3eb-9d452addfa8a&projectId=a0a8f18c-a66e-4ba7-a170-23efbdc67501","E2FD2EDFB5BB45DD8EB6702F832F95F8-2024-11-24-18-42-29","","null","","images/instructions/movie_2.png","null","",""
"","","","","","image-button-response","14","108252","0.0-6.0-1.0-2.1","E2FD2EDFB5BB45DD8EB6702F832F95F8","E2FD2EDFB5BB45DD8EB6702F832F95F8","8d9efb70-61f0-417f-a3eb-9d452addfa8a","a0a8f18c-a66e-4ba7-a170-23efbdc67501","{""participantId"":""E2FD2EDFB5BB45DD8EB6702F832F95F8"",""assignmentId"":""8d9efb70-61f0-417f-a3eb-9d452addfa8a"",""projectId"":""a0a8f18c-a66e-4ba7-a170-23efbdc67501""}","https://test12345.live/?participantId=E2FD2EDFB5BB45DD8EB6702F832F95F8&assignmentId=8d9efb70-61f0-417f-a3eb-9d452addfa8a&projectId=a0a8f18c-a66e-4ba7-a170-23efbdc67501","E2FD2EDFB5BB45DD8EB6702F832F95F8-2024-11-24-18-42-29","","null","","[]","null","",""
"","","","","","image-button-response","15","112765","0.0-6.0-1.0-0.2","E2FD2EDFB5BB45DD8EB6702F832F95F8","E2FD2EDFB5BB45DD8EB6702F832F95F8","8d9efb70-61f0-417f-a3eb-9d452addfa8a","a0a8f18c-a66e-4ba7-a170-23efbdc67501","{""participantId"":""E2FD2EDFB5BB45DD8EB6702F832F95F8"",""assignmentId"":""8d9efb70-61f0-417f-a3eb-9d452addfa8a"",""projectId"":""a0a8f18c-a66e-4ba7-a170-23efbdc67501""}","https://test12345.live/?participantId=E2FD2EDFB5BB45DD8EB6702F832F95F8&assignmentId=8d9efb70-61f0-417f-a3eb-9d452addfa8a&projectId=a0a8f18c-a66e-4ba7-a170-23efbdc67501","E2FD2EDFB5BB45DD8EB6702F832F95F8-2024-11-24-18-42-29","","null","","images/instructions/movie_3.png","null","",""
"","","","","","image-button-response","16","115458","0.0-6.0-1.0-1.2","E2FD2EDFB5BB45DD8EB6702F832F95F8","E2FD2EDFB5BB45DD8EB6702F832F95F8","8d9efb70-61f0-417f-a3eb-9d452addfa8a","a0a8f18c-a66e-4ba7-a170-23efbdc67501","{""participantId"":""E2FD2EDFB5BB45DD8EB6702F832F95F8"",""assignmentId"":""8d9efb70-61f0-417f-a3eb-9d452addfa8a"",""projectId"":""a0a8f18c-a66e-4ba7-a170-23efbdc67501""}","https://test12345.live/?participantId=E2FD2EDFB5BB45DD8EB6702F832F95F8&assignmentId=8d9efb70-61f0-417f-a3eb-9d452addfa8a&projectId=a0a8f18c-a66e-4ba7-a170-23efbdc67501","E2FD2EDFB5BB45DD8EB6702F832F95F8-2024-11-24-18-42-29","","2689","","images/instructions/movie_3.png","0","",""
"","","","","","image-button-response","17","117269","0.0-6.0-1.0-2.2","E2FD2EDFB5BB45DD8EB6702F832F95F8","E2FD2EDFB5BB45DD8EB6702F832F95F8","8d9efb70-61f0-417f-a3eb-9d452addfa8a","a0a8f18c-a66e-4ba7-a170-23efbdc67501","{""participantId"":""E2FD2EDFB5BB45DD8EB6702F832F95F8"",""assignmentId"":""8d9efb70-61f0-417f-a3eb-9d452addfa8a"",""projectId"":""a0a8f18c-a66e-4ba7-a170-23efbdc67501""}","https://test12345.live/?participantId=E2FD2EDFB5BB45DD8EB6702F832F95F8&assignmentId=8d9efb70-61f0-417f-a3eb-9d452addfa8a&projectId=a0a8f18c-a66e-4ba7-a170-23efbdc67501","E2FD2EDFB5BB45DD8EB6702F832F95F8-2024-11-24-18-42-29","","null","","[]","null","",""
"","","","","","image-button-response","18","121779","0.0-6.0-1.0-0.3","E2FD2EDFB5BB45DD8EB6702F832F95F8","E2FD2EDFB5BB45DD8EB6702F832F95F8","8d9efb70-61f0-417f-a3eb-9d452addfa8a","a0a8f18c-a66e-4ba7-a170-23efbdc67501","{""participantId"":""E2FD2EDFB5BB45DD8EB6702F832F95F8"",""assignmentId"":""8d9efb70-61f0-417f-a3eb-9d452addfa8a"",""projectId"":""a0a8f18c-a66e-4ba7-a170-23efbdc67501""}","https://test12345.live/?participantId=E2FD2EDFB5BB45DD8EB6702F832F95F8&assignmentId=8d9efb70-61f0-417f-a3eb-9d452addfa8a&projectId=a0a8f18c-a66e-4ba7-a170-23efbdc67501","E2FD2EDFB5BB45DD8EB6702F832F95F8-2024-11-24-18-42-29","","null","","images/instructions/movie_4.png","null","",""
"","","","","","image-button-response","19","123862","0.0-6.0-1.0-1.3","E2FD2EDFB5BB45DD8EB6702F832F95F8","E2FD2EDFB5BB45DD8EB6702F832F95F8","8d9efb70-61f0-417f-a3eb-9d452addfa8a","a0a8f18c-a66e-4ba7-a170-23efbdc67501","{""participantId"":""E2FD2EDFB5BB45DD8EB6702F832F95F8"",""assignmentId"":""8d9efb70-61f0-417f-a3eb-9d452addfa8a"",""projectId"":""a0a8f18c-a66e-4ba7-a170-23efbdc67501""}","https://test12345.live/?participantId=E2FD2EDFB5BB45DD8EB6702F832F95F8&assignmentId=8d9efb70-61f0-417f-a3eb-9d452addfa8a&projectId=a0a8f18c-a66e-4ba7-a170-23efbdc67501","E2FD2EDFB5BB45DD8EB6702F832F95F8-2024-11-24-18-42-29","","2080","","images/instructions/movie_4.png","0","",""
"","","","","","image-button-response","20","125677","0.0-6.0-1.0-2.3","E2FD2EDFB5BB45DD8EB6702F832F95F8","E2FD2EDFB5BB45DD8EB6702F832F95F8","8d9efb70-61f0-417f-a3eb-9d452addfa8a","a0a8f18c-a66e-4ba7-a170-23efbdc67501","{""participantId"":""E2FD2EDFB5BB45DD8EB6702F832F95F8"",""assignmentId"":""8d9efb70-61f0-417f-a3eb-9d452addfa8a"",""projectId"":""a0a8f18c-a66e-4ba7-a170-23efbdc67501""}","https://test12345.live/?participantId=E2FD2EDFB5BB45DD8EB6702F832F95F8&assignmentId=8d9efb70-61f0-417f-a3eb-9d452addfa8a&projectId=a0a8f18c-a66e-4ba7-a170-23efbdc67501","E2FD2EDFB5BB45DD8EB6702F832F95F8-2024-11-24-18-42-29","","null","","[]","null","",""
"","","","","","instructions","21","134137","0.0-7.0","E2FD2EDFB5BB45DD8EB6702F832F95F8","E2FD2EDFB5BB45DD8EB6702F832F95F8","8d9efb70-61f0-417f-a3eb-9d452addfa8a","a0a8f18c-a66e-4ba7-a170-23efbdc67501","{""participantId"":""E2FD2EDFB5BB45DD8EB6702F832F95F8"",""assignmentId"":""8d9efb70-61f0-417f-a3eb-9d452addfa8a"",""projectId"":""a0a8f18c-a66e-4ba7-a170-23efbdc67501""}","https://test12345.live/?participantId=E2FD2EDFB5BB45DD8EB6702F832F95F8&assignmentId=8d9efb70-61f0-417f-a3eb-9d452addfa8a&projectId=a0a8f18c-a66e-4ba7-a170-23efbdc67501","E2FD2EDFB5BB45DD8EB6702F832F95F8-2024-11-24-18-42-29","[{""page_index"":0,""viewing_time"":6359},{""page_index"":1,""viewing_time"":2099}]","8459","","","","",""
"","","","","","html-audio-response","22","173440","0.0-8.0","E2FD2EDFB5BB45DD8EB6702F832F95F8","E2FD2EDFB5BB45DD8EB6702F832F95F8","8d9efb70-61f0-417f-a3eb-9d452addfa8a","a0a8f18c-a66e-4ba7-a170-23efbdc67501","{""participantId"":""E2FD2EDFB5BB45DD8EB6702F832F95F8"",""assignmentId"":""8d9efb70-61f0-417f-a3eb-9d452addfa8a"",""projectId"":""a0a8f18c-a66e-4ba7-a170-23efbdc67501""}","https://test12345.live/?participantId=E2FD2EDFB5BB45DD8EB6702F832F95F8&assignmentId=8d9efb70-61f0-417f-a3eb-9d452addfa8a&projectId=a0a8f18c-a66e-4ba7-a170-23efbdc67501","E2FD2EDFB5BB45DD8EB6702F832F95F8-2024-11-24-18-42-29","","17328","","[""<span style=\""color: red; font-size: 24px\""> NOW RECORDING</span><p>Please say out loud all the images you saw, as many as you can remember. The images can be said in any order.</p>""]","","3",""
"","","","","","instructions","23","177494","0.0-9.0","E2FD2EDFB5BB45DD8EB6702F832F95F8","E2FD2EDFB5BB45DD8EB6702F832F95F8","8d9efb70-61f0-417f-a3eb-9d452addfa8a","a0a8f18c-a66e-4ba7-a170-23efbdc67501","{""participantId"":""E2FD2EDFB5BB45DD8EB6702F832F95F8"",""assignmentId"":""8d9efb70-61f0-417f-a3eb-9d452addfa8a"",""projectId"":""a0a8f18c-a66e-4ba7-a170-23efbdc67501""}","https://test12345.live/?participantId=E2FD2EDFB5BB45DD8EB6702F832F95F8&assignmentId=8d9efb70-61f0-417f-a3eb-9d452addfa8a&projectId=a0a8f18c-a66e-4ba7-a170-23efbdc67501","E2FD2EDFB5BB45DD8EB6702F832F95F8-2024-11-24-18-42-29","[{""page_index"":0,""viewing_time"":4047}]","4047","","","","",""
"","","","","","image-button-response","24","183509","0.0-10.0-0.0","E2FD2EDFB5BB45DD8EB6702F832F95F8","E2FD2EDFB5BB45DD8EB6702F832F95F8","8d9efb70-61f0-417f-a3eb-9d452addfa8a","a0a8f18c-a66e-4ba7-a170-23efbdc67501","{""participantId"":""E2FD2EDFB5BB45DD8EB6702F832F95F8"",""assignmentId"":""8d9efb70-61f0-417f-a3eb-9d452addfa8a"",""projectId"":""a0a8f18c-a66e-4ba7-a170-23efbdc67501""}","https://test12345.live/?participantId=E2FD2EDFB5BB45DD8EB6702F832F95F8&assignmentId=8d9efb70-61f0-417f-a3eb-9d452addfa8a&projectId=a0a8f18c-a66e-4ba7-a170-23efbdc67501","E2FD2EDFB5BB45DD8EB6702F832F95F8-2024-11-24-18-42-29","","null","","images/causal_sequence/museum_causal/museum_causal_0.png","null","",""
"","","","","","image-button-response","25","188025","0.0-10.0-1.0-0.0","E2FD2EDFB5BB45DD8EB6702F832F95F8","E2FD2EDFB5BB45DD8EB6702F832F95F8","8d9efb70-61f0-417f-a3eb-9d452addfa8a","a0a8f18c-a66e-4ba7-a170-23efbdc67501","{""participantId"":""E2FD2EDFB5BB45DD8EB6702F832F95F8"",""assignmentId"":""8d9efb70-61f0-417f-a3eb-9d452addfa8a"",""projectId"":""a0a8f18c-a66e-4ba7-a170-23efbdc67501""}","https://test12345.live/?participantId=E2FD2EDFB5BB45DD8EB6702F832F95F8&assignmentId=8d9efb70-61f0-417f-a3eb-9d452addfa8a&projectId=a0a8f18c-a66e-4ba7-a170-23efbdc67501","E2FD2EDFB5BB45DD8EB6702F832F95F8-2024-11-24-18-42-29","","null","","images/causal_sequence/museum_causal/museum_causal_1.png","null","",""
"","","","","","image-button-response","26","189840","0.0-10.0-1.0-1.0","E2FD2EDFB5BB45DD8EB6702F832F95F8","E2FD2EDFB5BB45DD8EB6702F832F95F8","8d9efb70-61f0-417f-a3eb-9d452addfa8a","a0a8f18c-a66e-4ba7-a170-23efbdc67501","{""participantId"":""E2FD2EDFB5BB45DD8EB6702F832F95F8"",""assignmentId"":""8d9efb70-61f0-417f-a3eb-9d452addfa8a"",""projectId"":""a0a8f18c-a66e-4ba7-a170-23efbdc67501""}","https://test12345.live/?participantId=E2FD2EDFB5BB45DD8EB6702F832F95F8&assignmentId=8d9efb70-61f0-417f-a3eb-9d452addfa8a&projectId=a0a8f18c-a66e-4ba7-a170-23efbdc67501","E2FD2EDFB5BB45DD8EB6702F832F95F8-2024-11-24-18-42-29","","1811","","images/causal_sequence/museum_causal/museum_causal_1.png","0","",""
"","","","","","image-button-response","27","191648","0.0-10.0-1.0-2.0","E2FD2EDFB5BB45DD8EB6702F832F95F8","E2FD2EDFB5BB45DD8EB6702F832F95F8","8d9efb70-61f0-417f-a3eb-9d452addfa8a","a0a8f18c-a66e-4ba7-a170-23efbdc67501","{""participantId"":""E2FD2EDFB5BB45DD8EB6702F832F95F8"",""assignmentId"":""8d9efb70-61f0-417f-a3eb-9d452addfa8a"",""projectId"":""a0a8f18c-a66e-4ba7-a170-23efbdc67501""}","https://test12345.live/?participantId=E2FD2EDFB5BB45DD8EB6702F832F95F8&assignmentId=8d9efb70-61f0-417f-a3eb-9d452addfa8a&projectId=a0a8f18c-a66e-4ba7-a170-23efbdc67501","E2FD2EDFB5BB45DD8EB6702F832F95F8-2024-11-24-18-42-29","","null","","[]","null","",""
"","","","","","image-button-response","28","196164","0.0-10.0-1.0-0.1","E2FD2EDFB5BB45DD8EB6702F832F95F8","E2FD2EDFB5BB45DD8EB6702F832F95F8","8d9efb70-61f0-417f-a3eb-9d452addfa8a","a0a8f18c-a66e-4ba7-a170-23efbdc67501","{""participantId"":""E2FD2EDFB5BB45DD8EB6702F832F95F8"",""assignmentId"":""8d9efb70-61f0-417f-a3eb-9d452addfa8a"",""projectId"":""a0a8f18c-a66e-4ba7-a170-23efbdc67501""}","https://test12345.live/?participantId=E2FD2EDFB5BB45DD8EB6702F832F95F8&assignmentId=8d9efb70-61f0-417f-a3eb-9d452addfa8a&projectId=a0a8f18c-a66e-4ba7-a170-23efbdc67501","E2FD2EDFB5BB45DD8EB6702F832F95F8-2024-11-24-18-42-29","","null","","images/causal_sequence/museum_causal/museum_causal_2.png","null","",""
"","","","","","image-button-response","29","197842","0.0-10.0-1.0-1.1","E2FD2EDFB5BB45DD8EB6702F832F95F8","E2FD2EDFB5BB45DD8EB6702F832F95F8","8d9efb70-61f0-417f-a3eb-9d452addfa8a","a0a8f18c-a66e-4ba7-a170-23efbdc67501","{""participantId"":""E2FD2EDFB5BB45DD8EB6702F832F95F8"",""assignmentId"":""8d9efb70-61f0-417f-a3eb-9d452addfa8a"",""projectId"":""a0a8f18c-a66e-4ba7-a170-23efbdc67501""}","https://test12345.live/?participantId=E2FD2EDFB5BB45DD8EB6702F832F95F8&assignmentId=8d9efb70-61f0-417f-a3eb-9d452addfa8a&projectId=a0a8f18c-a66e-4ba7-a170-23efbdc67501","E2FD2EDFB5BB45DD8EB6702F832F95F8-2024-11-24-18-42-29","","1675","","images/causal_sequence/museum_causal/museum_causal_2.png","1","",""
"","","","","","image-button-response","30","199655","0.0-10.0-1.0-2.1","E2FD2EDFB5BB45DD8EB6702F832F95F8","E2FD2EDFB5BB45DD8EB6702F832F95F8","8d9efb70-61f0-417f-a3eb-9d452addfa8a","a0a8f18c-a66e-4ba7-a170-23efbdc67501","{""participantId"":""E2FD2EDFB5BB45DD8EB6702F832F95F8"",""assignmentId"":""8d9efb70-61f0-417f-a3eb-9d452addfa8a"",""projectId"":""a0a8f18c-a66e-4ba7-a170-23efbdc67501""}","https://test12345.live/?participantId=E2FD2EDFB5BB45DD8EB6702F832F95F8&assignmentId=8d9efb70-61f0-417f-a3eb-9d452addfa8a&projectId=a0a8f18c-a66e-4ba7-a170-23efbdc67501","E2FD2EDFB5BB45DD8EB6702F832F95F8-2024-11-24-18-42-29","","null","","[]","null","",""
"","","","","","image-button-response","31","204161","0.0-10.0-1.0-0.2","E2FD2EDFB5BB45DD8EB6702F832F95F8","E2FD2EDFB5BB45DD8EB6702F832F95F8","8d9efb70-61f0-417f-a3eb-9d452addfa8a","a0a8f18c-a66e-4ba7-a170-23efbdc67501","{""participantId"":""E2FD2EDFB5BB45DD8EB6702F832F95F8"",""assignmentId"":""8d9efb70-61f0-417f-a3eb-9d452addfa8a"",""projectId"":""a0a8f18c-a66e-4ba7-a170-23efbdc67501""}","https://test12345.live/?participantId=E2FD2EDFB5BB45DD8EB6702F832F95F8&assignmentId=8d9efb70-61f0-417f-a3eb-9d452addfa8a&projectId=a0a8f18c-a66e-4ba7-a170-23efbdc67501","E2FD2EDFB5BB45DD8EB6702F832F95F8-2024-11-24-18-42-29","","null","","images/causal_sequence/museum_causal/museum_causal_3.png","null","",""
"","","","","","image-button-response","32","205359","0.0-10.0-1.0-1.2","E2FD2EDFB5BB45DD8EB6702F832F95F8","E2FD2EDFB5BB45DD8EB6702F832F95F8","8d9efb70-61f0-417f-a3eb-9d452addfa8a","a0a8f18c-a66e-4ba7-a170-23efbdc67501","{""participantId"":""E2FD2EDFB5BB45DD8EB6702F832F95F8"",""assignmentId"":""8d9efb70-61f0-417f-a3eb-9d452addfa8a"",""projectId"":""a0a8f18c-a66e-4ba7-a170-23efbdc67501""}","https://test12345.live/?participantId=E2FD2EDFB5BB45DD8EB6702F832F95F8&assignmentId=8d9efb70-61f0-417f-a3eb-9d452addfa8a&projectId=a0a8f18c-a66e-4ba7-a170-23efbdc67501","E2FD2EDFB5BB45DD8EB6702F832F95F8-2024-11-24-18-42-29","","1196","","images/causal_sequence/museum_causal/museum_causal_3.png","1","",""
"","","","","","image-button-response","33","207164","0.0-10.0-1.0-2.2","E2FD2EDFB5BB45DD8EB6702F832F95F8","E2FD2EDFB5BB45DD8EB6702F832F95F8","8d9efb70-61f0-417f-a3eb-9d452addfa8a","a0a8f18c-a66e-4ba7-a170-23efbdc67501","{""participantId"":""E2FD2EDFB5BB45DD8EB6702F832F95F8"",""assignmentId"":""8d9efb70-61f0-417f-a3eb-9d452addfa8a"",""projectId"":""a0a8f18c-a66e-4ba7-a170-23efbdc67501""}","https://test12345.live/?participantId=E2FD2EDFB5BB45DD8EB6702F832F95F8&assignmentId=8d9efb70-61f0-417f-a3eb-9d452addfa8a&projectId=a0a8f18c-a66e-4ba7-a170-23efbdc67501","E2FD2EDFB5BB45DD8EB6702F832F95F8-2024-11-24-18-42-29","","null","","[]","null","",""
"","","","","","image-button-response","34","211669","0.0-10.0-1.0-0.3","E2FD2EDFB5BB45DD8EB6702F832F95F8","E2FD2EDFB5BB45DD8EB6702F832F95F8","8d9efb70-61f0-417f-a3eb-9d452addfa8a","a0a8f18c-a66e-4ba7-a170-23efbdc67501","{""participantId"":""E2FD2EDFB5BB45DD8EB6702F832F95F8"",""assignmentId"":""8d9efb70-61f0-417f-a3eb-9d452addfa8a"",""projectId"":""a0a8f18c-a66e-4ba7-a170-23efbdc67501""}","https://test12345.live/?participantId=E2FD2EDFB5BB45DD8EB6702F832F95F8&assignmentId=8d9efb70-61f0-417f-a3eb-9d452addfa8a&projectId=a0a8f18c-a66e-4ba7-a170-23efbdc67501","E2FD2EDFB5BB45DD8EB6702F832F95F8-2024-11-24-18-42-29","","null","","images/causal_sequence/museum_causal/museum_causal_4.png","null","",""
"","","","","","image-button-response","35","213459","0.0-10.0-1.0-1.3","E2FD2EDFB5BB45DD8EB6702F832F95F8","E2FD2EDFB5BB45DD8EB6702F832F95F8","8d9efb70-61f0-417f-a3eb-9d452addfa8a","a0a8f18c-a66e-4ba7-a170-23efbdc67501","{""participantId"":""E2FD2EDFB5BB45DD8EB6702F832F95F8"",""assignmentId"":""8d9efb70-61f0-417f-a3eb-9d452addfa8a"",""projectId"":""a0a8f18c-a66e-4ba7-a170-23efbdc67501""}","https://test12345.live/?participantId=E2FD2EDFB5BB45DD8EB6702F832F95F8&assignmentId=8d9efb70-61f0-417f-a3eb-9d452addfa8a&projectId=a0a8f18c-a66e-4ba7-a170-23efbdc67501","E2FD2EDFB5BB45DD8EB6702F832F95F8-2024-11-24-18-42-29","","1787","","images/causal_sequence/museum_causal/museum_causal_4.png","1","",""
"","","","","","image-button-response","36","215269","0.0-10.0-1.0-2.3","E2FD2EDFB5BB45DD8EB6702F832F95F8","E2FD2EDFB5BB45DD8EB6702F832F95F8","8d9efb70-61f0-417f-a3eb-9d452addfa8a","a0a8f18c-a66e-4ba7-a170-23efbdc67501","{""participantId"":""E2FD2EDFB5BB45DD8EB6702F832F95F8"",""assignmentId"":""8d9efb70-61f0-417f-a3eb-9d452addfa8a"",""projectId"":""a0a8f18c-a66e-4ba7-a170-23efbdc67501""}","https://test12345.live/?participantId=E2FD2EDFB5BB45DD8EB6702F832F95F8&assignmentId=8d9efb70-61f0-417f-a3eb-9d452addfa8a&projectId=a0a8f18c-a66e-4ba7-a170-23efbdc67501","E2FD2EDFB5BB45DD8EB6702F832F95F8-2024-11-24-18-42-29","","null","","[]","null","",""
"","","","","","image-button-response","37","219784","0.0-10.0-1.0-0.4","E2FD2EDFB5BB45DD8EB6702F832F95F8","E2FD2EDFB5BB45DD8EB6702F832F95F8","8d9efb70-61f0-417f-a3eb-9d452addfa8a","a0a8f18c-a66e-4ba7-a170-23efbdc67501","{""participantId"":""E2FD2EDFB5BB45DD8EB6702F832F95F8"",""assignmentId"":""8d9efb70-61f0-417f-a3eb-9d452addfa8a"",""projectId"":""a0a8f18c-a66e-4ba7-a170-23efbdc67501""}","https://test12345.live/?participantId=E2FD2EDFB5BB45DD8EB6702F832F95F8&assignmentId=8d9efb70-61f0-417f-a3eb-9d452addfa8a&projectId=a0a8f18c-a66e-4ba7-a170-23efbdc67501","E2FD2EDFB5BB45DD8EB6702F832F95F8-2024-11-24-18-42-29","","null","","images/causal_sequence/museum_causal/museum_causal_5.png","null","",""
"","","","","","image-button-response","38","221296","0.0-10.0-1.0-1.4","E2FD2EDFB5BB45DD8EB6702F832F95F8","E2FD2EDFB5BB45DD8EB6702F832F95F8","8d9efb70-61f0-417f-a3eb-9d452addfa8a","a0a8f18c-a66e-4ba7-a170-23efbdc67501","{""participantId"":""E2FD2EDFB5BB45DD8EB6702F832F95F8"",""assignmentId"":""8d9efb70-61f0-417f-a3eb-9d452addfa8a"",""projectId"":""a0a8f18c-a66e-4ba7-a170-23efbdc67501""}","https://test12345.live/?participantId=E2FD2EDFB5BB45DD8EB6702F832F95F8&assignmentId=8d9efb70-61f0-417f-a3eb-9d452addfa8a&projectId=a0a8f18c-a66e-4ba7-a170-23efbdc67501","E2FD2EDFB5BB45DD8EB6702F832F95F8-2024-11-24-18-42-29","","1509","","images/causal_sequence/museum_causal/museum_causal_5.png","0","",""
"","","","","","image-button-response","39","223109","0.0-10.0-1.0-2.4","E2FD2EDFB5BB45DD8EB6702F832F95F8","E2FD2EDFB5BB45DD8EB6702F832F95F8","8d9efb70-61f0-417f-a3eb-9d452addfa8a","a0a8f18c-a66e-4ba7-a170-23efbdc67501","{""participantId"":""E2FD2EDFB5BB45DD8EB6702F832F95F8"",""assignmentId"":""8d9efb70-61f0-417f-a3eb-9d452addfa8a"",""projectId"":""a0a8f18c-a66e-4ba7-a170-23efbdc67501""}","https://test12345.live/?participantId=E2FD2EDFB5BB45DD8EB6702F832F95F8&assignmentId=8d9efb70-61f0-417f-a3eb-9d452addfa8a&projectId=a0a8f18c-a66e-4ba7-a170-23efbdc67501","E2FD2EDFB5BB45DD8EB6702F832F95F8-2024-11-24-18-42-29","","null","","[]","null","",""
"","","","","","image-button-response","40","227617","0.0-10.0-1.0-0.5","E2FD2EDFB5BB45DD8EB6702F832F95F8","E2FD2EDFB5BB45DD8EB6702F832F95F8","8d9efb70-61f0-417f-a3eb-9d452addfa8a","a0a8f18c-a66e-4ba7-a170-23efbdc67501","{""participantId"":""E2FD2EDFB5BB45DD8EB6702F832F95F8"",""assignmentId"":""8d9efb70-61f0-417f-a3eb-9d452addfa8a"",""projectId"":""a0a8f18c-a66e-4ba7-a170-23efbdc67501""}","https://test12345.live/?participantId=E2FD2EDFB5BB45DD8EB6702F832F95F8&assignmentId=8d9efb70-61f0-417f-a3eb-9d452addfa8a&projectId=a0a8f18c-a66e-4ba7-a170-23efbdc67501","E2FD2EDFB5BB45DD8EB6702F832F95F8-2024-11-24-18-42-29","","null","","images/causal_sequence/museum_causal/museum_causal_6.png","null","",""
"","","","","","image-button-response","41","228580","0.0-10.0-1.0-1.5","E2FD2EDFB5BB45DD8EB6702F832F95F8","E2FD2EDFB5BB45DD8EB6702F832F95F8","8d9efb70-61f0-417f-a3eb-9d452addfa8a","a0a8f18c-a66e-4ba7-a170-23efbdc67501","{""participantId"":""E2FD2EDFB5BB45DD8EB6702F832F95F8"",""assignmentId"":""8d9efb70-61f0-417f-a3eb-9d452addfa8a"",""projectId"":""a0a8f18c-a66e-4ba7-a170-23efbdc67501""}","https://test12345.live/?participantId=E2FD2EDFB5BB45DD8EB6702F832F95F8&assignmentId=8d9efb70-61f0-417f-a3eb-9d452addfa8a&projectId=a0a8f18c-a66e-4ba7-a170-23efbdc67501","E2FD2EDFB5BB45DD8EB6702F832F95F8-2024-11-24-18-42-29","","960","","images/causal_sequence/museum_causal/museum_causal_6.png","0","",""
"","","","","","image-button-response","42","230386","0.0-10.0-1.0-2.5","E2FD2EDFB5BB45DD8EB6702F832F95F8","E2FD2EDFB5BB45DD8EB6702F832F95F8","8d9efb70-61f0-417f-a3eb-9d452addfa8a","a0a8f18c-a66e-4ba7-a170-23efbdc67501","{""participantId"":""E2FD2EDFB5BB45DD8EB6702F832F95F8"",""assignmentId"":""8d9efb70-61f0-417f-a3eb-9d452addfa8a"",""projectId"":""a0a8f18c-a66e-4ba7-a170-23efbdc67501""}","https://test12345.live/?participantId=E2FD2EDFB5BB45DD8EB6702F832F95F8&assignmentId=8d9efb70-61f0-417f-a3eb-9d452addfa8a&projectId=a0a8f18c-a66e-4ba7-a170-23efbdc67501","E2FD2EDFB5BB45DD8EB6702F832F95F8-2024-11-24-18-42-29","","null","","[]","null","",""
"","","","","","image-button-response","43","234888","0.0-10.0-1.0-0.6","E2FD2EDFB5BB45DD8EB6702F832F95F8","E2FD2EDFB5BB45DD8EB6702F832F95F8","8d9efb70-61f0-417f-a3eb-9d452addfa8a","a0a8f18c-a66e-4ba7-a170-23efbdc67501","{""participantId"":""E2FD2EDFB5BB45DD8EB6702F832F95F8"",""assignmentId"":""8d9efb70-61f0-417f-a3eb-9d452addfa8a"",""projectId"":""a0a8f18c-a66e-4ba7-a170-23efbdc67501""}","https://test12345.live/?participantId=E2FD2EDFB5BB45DD8EB6702F832F95F8&assignmentId=8d9efb70-61f0-417f-a3eb-9d452addfa8a&projectId=a0a8f18c-a66e-4ba7-a170-23efbdc67501","E2FD2EDFB5BB45DD8EB6702F832F95F8-2024-11-24-18-42-29","","null","","images/causal_sequence/museum_causal/museum_causal_7.png","null","",""
"","","","","","image-button-response","44","235876","0.0-10.0-1.0-1.6","E2FD2EDFB5BB45DD8EB6702F832F95F8","E2FD2EDFB5BB45DD8EB6702F832F95F8","8d9efb70-61f0-417f-a3eb-9d452addfa8a","a0a8f18c-a66e-4ba7-a170-23efbdc67501","{""participantId"":""E2FD2EDFB5BB45DD8EB6702F832F95F8"",""assignmentId"":""8d9efb70-61f0-417f-a3eb-9d452addfa8a"",""projectId"":""a0a8f18c-a66e-4ba7-a170-23efbdc67501""}","https://test12345.live/?participantId=E2FD2EDFB5BB45DD8EB6702F832F95F8&assignmentId=8d9efb70-61f0-417f-a3eb-9d452addfa8a&projectId=a0a8f18c-a66e-4ba7-a170-23efbdc67501","E2FD2EDFB5BB45DD8EB6702F832F95F8-2024-11-24-18-42-29","","985","","images/causal_sequence/museum_causal/museum_causal_7.png","0","",""
"","","","","","image-button-response","45","237685","0.0-10.0-1.0-2.6","E2FD2EDFB5BB45DD8EB6702F832F95F8","E2FD2EDFB5BB45DD8EB6702F832F95F8","8d9efb70-61f0-417f-a3eb-9d452addfa8a","a0a8f18c-a66e-4ba7-a170-23efbdc67501","{""participantId"":""E2FD2EDFB5BB45DD8EB6702F832F95F8"",""assignmentId"":""8d9efb70-61f0-417f-a3eb-9d452addfa8a"",""projectId"":""a0a8f18c-a66e-4ba7-a170-23efbdc67501""}","https://test12345.live/?participantId=E2FD2EDFB5BB45DD8EB6702F832F95F8&assignmentId=8d9efb70-61f0-417f-a3eb-9d452addfa8a&projectId=a0a8f18c-a66e-4ba7-a170-23efbdc67501","E2FD2EDFB5BB45DD8EB6702F832F95F8-2024-11-24-18-42-29","","null","","[]","null","",""
"","","","","","image-button-response","46","242200","0.0-10.0-1.0-0.7","E2FD2EDFB5BB45DD8EB6702F832F95F8","E2FD2EDFB5BB45DD8EB6702F832F95F8","8d9efb70-61f0-417f-a3eb-9d452addfa8a","a0a8f18c-a66e-4ba7-a170-23efbdc67501","{""participantId"":""E2FD2EDFB5BB45DD8EB6702F832F95F8"",""assignmentId"":""8d9efb70-61f0-417f-a3eb-9d452addfa8a"",""projectId"":""a0a8f18c-a66e-4ba7-a170-23efbdc67501""}","https://test12345.live/?participantId=E2FD2EDFB5BB45DD8EB6702F832F95F8&assignmentId=8d9efb70-61f0-417f-a3eb-9d452addfa8a&projectId=a0a8f18c-a66e-4ba7-a170-23efbdc67501","E2FD2EDFB5BB45DD8EB6702F832F95F8-2024-11-24-18-42-29","","null","","images/causal_sequence/museum_causal/museum_causal_8.png","null","",""
"","","","","","image-button-response","47","243255","0.0-10.0-1.0-1.7","E2FD2EDFB5BB45DD8EB6702F832F95F8","E2FD2EDFB5BB45DD8EB6702F832F95F8","8d9efb70-61f0-417f-a3eb-9d452addfa8a","a0a8f18c-a66e-4ba7-a170-23efbdc67501","{""participantId"":""E2FD2EDFB5BB45DD8EB6702F832F95F8"",""assignmentId"":""8d9efb70-61f0-417f-a3eb-9d452addfa8a"",""projectId"":""a0a8f18c-a66e-4ba7-a170-23efbdc67501""}","https://test12345.live/?participantId=E2FD2EDFB5BB45DD8EB6702F832F95F8&assignmentId=8d9efb70-61f0-417f-a3eb-9d452addfa8a&projectId=a0a8f18c-a66e-4ba7-a170-23efbdc67501","E2FD2EDFB5BB45DD8EB6702F832F95F8-2024-11-24-18-42-29","","1052","","images/causal_sequence/museum_causal/museum_causal_8.png","0","",""
"","","","","","image-button-response","48","245060","0.0-10.0-1.0-2.7","E2FD2EDFB5BB45DD8EB6702F832F95F8","E2FD2EDFB5BB45DD8EB6702F832F95F8","8d9efb70-61f0-417f-a3eb-9d452addfa8a","a0a8f18c-a66e-4ba7-a170-23efbdc67501","{""participantId"":""E2FD2EDFB5BB45DD8EB6702F832F95F8"",""assignmentId"":""8d9efb70-61f0-417f-a3eb-9d452addfa8a"",""projectId"":""a0a8f18c-a66e-4ba7-a170-23efbdc67501""}","https://test12345.live/?participantId=E2FD2EDFB5BB45DD8EB6702F832F95F8&assignmentId=8d9efb70-61f0-417f-a3eb-9d452addfa8a&projectId=a0a8f18c-a66e-4ba7-a170-23efbdc67501","E2FD2EDFB5BB45DD8EB6702F832F95F8-2024-11-24-18-42-29","","null","","[]","null","",""
"","","","","","image-button-response","49","249569","0.0-10.0-1.0-0.8","E2FD2EDFB5BB45DD8EB6702F832F95F8","E2FD2EDFB5BB45DD8EB6702F832F95F8","8d9efb70-61f0-417f-a3eb-9d452addfa8a","a0a8f18c-a66e-4ba7-a170-23efbdc67501","{""participantId"":""E2FD2EDFB5BB45DD8EB6702F832F95F8"",""assignmentId"":""8d9efb70-61f0-417f-a3eb-9d452addfa8a"",""projectId"":""a0a8f18c-a66e-4ba7-a170-23efbdc67501""}","https://test12345.live/?participantId=E2FD2EDFB5BB45DD8EB6702F832F95F8&assignmentId=8d9efb70-61f0-417f-a3eb-9d452addfa8a&projectId=a0a8f18c-a66e-4ba7-a170-23efbdc67501","E2FD2EDFB5BB45DD8EB6702F832F95F8-2024-11-24-18-42-29","","null","","images/causal_sequence/museum_causal/museum_causal_9.png","null","",""
"","","","","","image-button-response","50","250505","0.0-10.0-1.0-1.8","E2FD2EDFB5BB45DD8EB6702F832F95F8","E2FD2EDFB5BB45DD8EB6702F832F95F8","8d9efb70-61f0-417f-a3eb-9d452addfa8a","a0a8f18c-a66e-4ba7-a170-23efbdc67501","{""participantId"":""E2FD2EDFB5BB45DD8EB6702F832F95F8"",""assignmentId"":""8d9efb70-61f0-417f-a3eb-9d452addfa8a"",""projectId"":""a0a8f18c-a66e-4ba7-a170-23efbdc67501""}","https://test12345.live/?participantId=E2FD2EDFB5BB45DD8EB6702F832F95F8&assignmentId=8d9efb70-61f0-417f-a3eb-9d452addfa8a&projectId=a0a8f18c-a66e-4ba7-a170-23efbdc67501","E2FD2EDFB5BB45DD8EB6702F832F95F8-2024-11-24-18-42-29","","934","","images/causal_sequence/museum_causal/museum_causal_9.png","1","",""
"","","","","","image-button-response","51","252309","0.0-10.0-1.0-2.8","E2FD2EDFB5BB45DD8EB6702F832F95F8","E2FD2EDFB5BB45DD8EB6702F832F95F8","8d9efb70-61f0-417f-a3eb-9d452addfa8a","a0a8f18c-a66e-4ba7-a170-23efbdc67501","{""participantId"":""E2FD2EDFB5BB45DD8EB6702F832F95F8"",""assignmentId"":""8d9efb70-61f0-417f-a3eb-9d452addfa8a"",""projectId"":""a0a8f18c-a66e-4ba7-a170-23efbdc67501""}","https://test12345.live/?participantId=E2FD2EDFB5BB45DD8EB6702F832F95F8&assignmentId=8d9efb70-61f0-417f-a3eb-9d452addfa8a&projectId=a0a8f18c-a66e-4ba7-a170-23efbdc67501","E2FD2EDFB5BB45DD8EB6702F832F95F8-2024-11-24-18-42-29","","null","","[]","null","",""
"","","","","","image-button-response","52","256813","0.0-10.0-1.0-0.9","E2FD2EDFB5BB45DD8EB6702F832F95F8","E2FD2EDFB5BB45DD8EB6702F832F95F8","8d9efb70-61f0-417f-a3eb-9d452addfa8a","a0a8f18c-a66e-4ba7-a170-23efbdc67501","{""participantId"":""E2FD2EDFB5BB45DD8EB6702F832F95F8"",""assignmentId"":""8d9efb70-61f0-417f-a3eb-9d452addfa8a"",""projectId"":""a0a8f18c-a66e-4ba7-a170-23efbdc67501""}","https://test12345.live/?participantId=E2FD2EDFB5BB45DD8EB6702F832F95F8&assignmentId=8d9efb70-61f0-417f-a3eb-9d452addfa8a&projectId=a0a8f18c-a66e-4ba7-a170-23efbdc67501","E2FD2EDFB5BB45DD8EB6702F832F95F8-2024-11-24-18-42-29","","null","","images/causal_sequence/museum_causal/museum_causal_ten.png","null","",""
"","","","","","image-button-response","53","258293","0.0-10.0-1.0-1.9","E2FD2EDFB5BB45DD8EB6702F832F95F8","E2FD2EDFB5BB45DD8EB6702F832F95F8","8d9efb70-61f0-417f-a3eb-9d452addfa8a","a0a8f18c-a66e-4ba7-a170-23efbdc67501","{""participantId"":""E2FD2EDFB5BB45DD8EB6702F832F95F8"",""assignmentId"":""8d9efb70-61f0-417f-a3eb-9d452addfa8a"",""projectId"":""a0a8f18c-a66e-4ba7-a170-23efbdc67501""}","https://test12345.live/?participantId=E2FD2EDFB5BB45DD8EB6702F832F95F8&assignmentId=8d9efb70-61f0-417f-a3eb-9d452addfa8a&projectId=a0a8f18c-a66e-4ba7-a170-23efbdc67501","E2FD2EDFB5BB45DD8EB6702F832F95F8-2024-11-24-18-42-29","","1477","","images/causal_sequence/museum_causal/museum_causal_ten.png","0","",""
"","","","","","image-button-response","54","260097","0.0-10.0-1.0-2.9","E2FD2EDFB5BB45DD8EB6702F832F95F8","E2FD2EDFB5BB45DD8EB6702F832F95F8","8d9efb70-61f0-417f-a3eb-9d452addfa8a","a0a8f18c-a66e-4ba7-a170-23efbdc67501","{""participantId"":""E2FD2EDFB5BB45DD8EB6702F832F95F8"",""assignmentId"":""8d9efb70-61f0-417f-a3eb-9d452addfa8a"",""projectId"":""a0a8f18c-a66e-4ba7-a170-23efbdc67501""}","https://test12345.live/?participantId=E2FD2EDFB5BB45DD8EB6702F832F95F8&assignmentId=8d9efb70-61f0-417f-a3eb-9d452addfa8a&projectId=a0a8f18c-a66e-4ba7-a170-23efbdc67501","E2FD2EDFB5BB45DD8EB6702F832F95F8-2024-11-24-18-42-29","","null","","[]","null","",""
"","","","","","html-audio-response","55","305903","0.0-11.0","E2FD2EDFB5BB45DD8EB6702F832F95F8","E2FD2EDFB5BB45DD8EB6702F832F95F8","8d9efb70-61f0-417f-a3eb-9d452addfa8a","a0a8f18c-a66e-4ba7-a170-23efbdc67501","{""participantId"":""E2FD2EDFB5BB45DD8EB6702F832F95F8"",""assignmentId"":""8d9efb70-61f0-417f-a3eb-9d452addfa8a"",""projectId"":""a0a8f18c-a66e-4ba7-a170-23efbdc67501""}","https://test12345.live/?participantId=E2FD2EDFB5BB45DD8EB6702F832F95F8&assignmentId=8d9efb70-61f0-417f-a3eb-9d452addfa8a&projectId=a0a8f18c-a66e-4ba7-a170-23efbdc67501","E2FD2EDFB5BB45DD8EB6702F832F95F8-2024-11-24-18-42-29","","22413","","[""<span style=\""color: red; font-size: 24px\""> NOW RECORDING</span><p>Please say out loud all the images you saw, as many as you can remember. The images can be said in any order.</p>""]","","2","museum_causal"
"","","","","","image-button-response","56","311921","0.0-12.0-0.0","E2FD2EDFB5BB45DD8EB6702F832F95F8","E2FD2EDFB5BB45DD8EB6702F832F95F8","8d9efb70-61f0-417f-a3eb-9d452addfa8a","a0a8f18c-a66e-4ba7-a170-23efbdc67501","{""participantId"":""E2FD2EDFB5BB45DD8EB6702F832F95F8"",""assignmentId"":""8d9efb70-61f0-417f-a3eb-9d452addfa8a"",""projectId"":""a0a8f18c-a66e-4ba7-a170-23efbdc67501""}","https://test12345.live/?participantId=E2FD2EDFB5BB45DD8EB6702F832F95F8&assignmentId=8d9efb70-61f0-417f-a3eb-9d452addfa8a&projectId=a0a8f18c-a66e-4ba7-a170-23efbdc67501","E2FD2EDFB5BB45DD8EB6702F832F95F8-2024-11-24-18-42-29","","null","","images/causal_sequence/saving_a_cat_causal/saving_a_cat_causal_0.png","null","",""
"","","","","","image-button-response","57","316434","0.0-12.0-1.0-0.0","E2FD2EDFB5BB45DD8EB6702F832F95F8","E2FD2EDFB5BB45DD8EB6702F832F95F8","8d9efb70-61f0-417f-a3eb-9d452addfa8a","a0a8f18c-a66e-4ba7-a170-23efbdc67501","{""participantId"":""E2FD2EDFB5BB45DD8EB6702F832F95F8"",""assignmentId"":""8d9efb70-61f0-417f-a3eb-9d452addfa8a"",""projectId"":""a0a8f18c-a66e-4ba7-a170-23efbdc67501""}","https://test12345.live/?participantId=E2FD2EDFB5BB45DD8EB6702F832F95F8&assignmentId=8d9efb70-61f0-417f-a3eb-9d452addfa8a&projectId=a0a8f18c-a66e-4ba7-a170-23efbdc67501","E2FD2EDFB5BB45DD8EB6702F832F95F8-2024-11-24-18-42-29","","null","","images/causal_sequence/saving_a_cat_causal/saving_a_cat_causal_9.png","null","",""
"","","","","","image-button-response","58","317898","0.0-12.0-1.0-1.0","E2FD2EDFB5BB45DD8EB6702F832F95F8","E2FD2EDFB5BB45DD8EB6702F832F95F8","8d9efb70-61f0-417f-a3eb-9d452addfa8a","a0a8f18c-a66e-4ba7-a170-23efbdc67501","{""participantId"":""E2FD2EDFB5BB45DD8EB6702F832F95F8"",""assignmentId"":""8d9efb70-61f0-417f-a3eb-9d452addfa8a"",""projectId"":""a0a8f18c-a66e-4ba7-a170-23efbdc67501""}","https://test12345.live/?participantId=E2FD2EDFB5BB45DD8EB6702F832F95F8&assignmentId=8d9efb70-61f0-417f-a3eb-9d452addfa8a&projectId=a0a8f18c-a66e-4ba7-a170-23efbdc67501","E2FD2EDFB5BB45DD8EB6702F832F95F8-2024-11-24-18-42-29","","1462","","images/causal_sequence/saving_a_cat_causal/saving_a_cat_causal_9.png","0","",""
"","","","","","image-button-response","59","319709","0.0-12.0-1.0-2.0","E2FD2EDFB5BB45DD8EB6702F832F95F8","E2FD2EDFB5BB45DD8EB6702F832F95F8","8d9efb70-61f0-417f-a3eb-9d452addfa8a","a0a8f18c-a66e-4ba7-a170-23efbdc67501","{""participantId"":""E2FD2EDFB5BB45DD8EB6702F832F95F8"",""assignmentId"":""8d9efb70-61f0-417f-a3eb-9d452addfa8a"",""projectId"":""a0a8f18c-a66e-4ba7-a170-23efbdc67501""}","https://test12345.live/?participantId=E2FD2EDFB5BB45DD8EB6702F832F95F8&assignmentId=8d9efb70-61f0-417f-a3eb-9d452addfa8a&projectId=a0a8f18c-a66e-4ba7-a170-23efbdc67501","E2FD2EDFB5BB45DD8EB6702F832F95F8-2024-11-24-18-42-29","","null","","[]","null","",""
"","","","","","image-button-response","60","324224","0.0-12.0-1.0-0.1","E2FD2EDFB5BB45DD8EB6702F832F95F8","E2FD2EDFB5BB45DD8EB6702F832F95F8","8d9efb70-61f0-417f-a3eb-9d452addfa8a","a0a8f18c-a66e-4ba7-a170-23efbdc67501","{""participantId"":""E2FD2EDFB5BB45DD8EB6702F832F95F8"",""assignmentId"":""8d9efb70-61f0-417f-a3eb-9d452addfa8a"",""projectId"":""a0a8f18c-a66e-4ba7-a170-23efbdc67501""}","https://test12345.live/?participantId=E2FD2EDFB5BB45DD8EB6702F832F95F8&assignmentId=8d9efb70-61f0-417f-a3eb-9d452addfa8a&projectId=a0a8f18c-a66e-4ba7-a170-23efbdc67501","E2FD2EDFB5BB45DD8EB6702F832F95F8-2024-11-24-18-42-29","","null","","images/causal_sequence/saving_a_cat_causal/saving_a_cat_causal_1.png","null","",""
"","","","","","image-button-response","61","325571","0.0-12.0-1.0-1.1","E2FD2EDFB5BB45DD8EB6702F832F95F8","E2FD2EDFB5BB45DD8EB6702F832F95F8","8d9efb70-61f0-417f-a3eb-9d452addfa8a","a0a8f18c-a66e-4ba7-a170-23efbdc67501","{""participantId"":""E2FD2EDFB5BB45DD8EB6702F832F95F8"",""assignmentId"":""8d9efb70-61f0-417f-a3eb-9d452addfa8a"",""projectId"":""a0a8f18c-a66e-4ba7-a170-23efbdc67501""}","https://test12345.live/?participantId=E2FD2EDFB5BB45DD8EB6702F832F95F8&assignmentId=8d9efb70-61f0-417f-a3eb-9d452addfa8a&projectId=a0a8f18c-a66e-4ba7-a170-23efbdc67501","E2FD2EDFB5BB45DD8EB6702F832F95F8-2024-11-24-18-42-29","","1344","","images/causal_sequence/saving_a_cat_causal/saving_a_cat_causal_1.png","0","",""
"","","","","","image-button-response","62","327383","0.0-12.0-1.0-2.1","E2FD2EDFB5BB45DD8EB6702F832F95F8","E2FD2EDFB5BB45DD8EB6702F832F95F8","8d9efb70-61f0-417f-a3eb-9d452addfa8a","a0a8f18c-a66e-4ba7-a170-23efbdc67501","{""participantId"":""E2FD2EDFB5BB45DD8EB6702F832F95F8"",""assignmentId"":""8d9efb70-61f0-417f-a3eb-9d452addfa8a"",""projectId"":""a0a8f18c-a66e-4ba7-a170-23efbdc67501""}","https://test12345.live/?participantId=E2FD2EDFB5BB45DD8EB6702F832F95F8&assignmentId=8d9efb70-61f0-417f-a3eb-9d452addfa8a&projectId=a0a8f18c-a66e-4ba7-a170-23efbdc67501","E2FD2EDFB5BB45DD8EB6702F832F95F8-2024-11-24-18-42-29","","null","","[]","null","",""
"","","","","","image-button-response","63","331886","0.0-12.0-1.0-0.2","E2FD2EDFB5BB45DD8EB6702F832F95F8","E2FD2EDFB5BB45DD8EB6702F832F95F8","8d9efb70-61f0-417f-a3eb-9d452addfa8a","a0a8f18c-a66e-4ba7-a170-23efbdc67501","{""participantId"":""E2FD2EDFB5BB45DD8EB6702F832F95F8"",""assignmentId"":""8d9efb70-61f0-417f-a3eb-9d452addfa8a"",""projectId"":""a0a8f18c-a66e-4ba7-a170-23efbdc67501""}","https://test12345.live/?participantId=E2FD2EDFB5BB45DD8EB6702F832F95F8&assignmentId=8d9efb70-61f0-417f-a3eb-9d452addfa8a&projectId=a0a8f18c-a66e-4ba7-a170-23efbdc67501","E2FD2EDFB5BB45DD8EB6702F832F95F8-2024-11-24-18-42-29","","null","","images/causal_sequence/saving_a_cat_causal/saving_a_cat_causal_8.png","null","",""
"","","","","","image-button-response","64","332958","0.0-12.0-1.0-1.2","E2FD2EDFB5BB45DD8EB6702F832F95F8","E2FD2EDFB5BB45DD8EB6702F832F95F8","8d9efb70-61f0-417f-a3eb-9d452addfa8a","a0a8f18c-a66e-4ba7-a170-23efbdc67501","{""participantId"":""E2FD2EDFB5BB45DD8EB6702F832F95F8"",""assignmentId"":""8d9efb70-61f0-417f-a3eb-9d452addfa8a"",""projectId"":""a0a8f18c-a66e-4ba7-a170-23efbdc67501""}","https://test12345.live/?participantId=E2FD2EDFB5BB45DD8EB6702F832F95F8&assignmentId=8d9efb70-61f0-417f-a3eb-9d452addfa8a&projectId=a0a8f18c-a66e-4ba7-a170-23efbdc67501","E2FD2EDFB5BB45DD8EB6702F832F95F8-2024-11-24-18-42-29","","1070","","images/causal_sequence/saving_a_cat_causal/saving_a_cat_causal_8.png","0","",""
"","","","","","image-button-response","65","334765","0.0-12.0-1.0-2.2","E2FD2EDFB5BB45DD8EB6702F832F95F8","E2FD2EDFB5BB45DD8EB6702F832F95F8","8d9efb70-61f0-417f-a3eb-9d452addfa8a","a0a8f18c-a66e-4ba7-a170-23efbdc67501","{""participantId"":""E2FD2EDFB5BB45DD8EB6702F832F95F8"",""assignmentId"":""8d9efb70-61f0-417f-a3eb-9d452addfa8a"",""projectId"":""a0a8f18c-a66e-4ba7-a170-23efbdc67501""}","https://test12345.live/?participantId=E2FD2EDFB5BB45DD8EB6702F832F95F8&assignmentId=8d9efb70-61f0-417f-a3eb-9d452addfa8a&projectId=a0a8f18c-a66e-4ba7-a170-23efbdc67501","E2FD2EDFB5BB45DD8EB6702F832F95F8-2024-11-24-18-42-29","","null","","[]","null","",""
"","","","","","image-button-response","66","339276","0.0-12.0-1.0-0.3","E2FD2EDFB5BB45DD8EB6702F832F95F8","E2FD2EDFB5BB45DD8EB6702F832F95F8","8d9efb70-61f0-417f-a3eb-9d452addfa8a","a0a8f18c-a66e-4ba7-a170-23efbdc67501","{""participantId"":""E2FD2EDFB5BB45DD8EB6702F832F95F8"",""assignmentId"":""8d9efb70-61f0-417f-a3eb-9d452addfa8a"",""projectId"":""a0a8f18c-a66e-4ba7-a170-23efbdc67501""}","https://test12345.live/?participantId=E2FD2EDFB5BB45DD8EB6702F832F95F8&assignmentId=8d9efb70-61f0-417f-a3eb-9d452addfa8a&projectId=a0a8f18c-a66e-4ba7-a170-23efbdc67501","E2FD2EDFB5BB45DD8EB6702F832F95F8-2024-11-24-18-42-29","","null","","images/causal_sequence/saving_a_cat_causal/saving_a_cat_causal_6.png","null","",""
"","","","","","image-button-response","67","340282","0.0-12.0-1.0-1.3","E2FD2EDFB5BB45DD8EB6702F832F95F8","E2FD2EDFB5BB45DD8EB6702F832F95F8","8d9efb70-61f0-417f-a3eb-9d452addfa8a","a0a8f18c-a66e-4ba7-a170-23efbdc67501","{""participantId"":""E2FD2EDFB5BB45DD8EB6702F832F95F8"",""assignmentId"":""8d9efb70-61f0-417f-a3eb-9d452addfa8a"",""projectId"":""a0a8f18c-a66e-4ba7-a170-23efbdc67501""}","https://test12345.live/?participantId=E2FD2EDFB5BB45DD8EB6702F832F95F8&assignmentId=8d9efb70-61f0-417f-a3eb-9d452addfa8a&projectId=a0a8f18c-a66e-4ba7-a170-23efbdc67501","E2FD2EDFB5BB45DD8EB6702F832F95F8-2024-11-24-18-42-29","","1003","","images/causal_sequence/saving_a_cat_causal/saving_a_cat_causal_6.png","0","",""
"","","","","","image-button-response","68","342098","0.0-12.0-1.0-2.3","E2FD2EDFB5BB45DD8EB6702F832F95F8","E2FD2EDFB5BB45DD8EB6702F832F95F8","8d9efb70-61f0-417f-a3eb-9d452addfa8a","a0a8f18c-a66e-4ba7-a170-23efbdc67501","{""participantId"":""E2FD2EDFB5BB45DD8EB6702F832F95F8"",""assignmentId"":""8d9efb70-61f0-417f-a3eb-9d452addfa8a"",""projectId"":""a0a8f18c-a66e-4ba7-a170-23efbdc67501""}","https://test12345.live/?participantId=E2FD2EDFB5BB45DD8EB6702F832F95F8&assignmentId=8d9efb70-61f0-417f-a3eb-9d452addfa8a&projectId=a0a8f18c-a66e-4ba7-a170-23efbdc67501","E2FD2EDFB5BB45DD8EB6702F832F95F8-2024-11-24-18-42-29","","null","","[]","null","",""
"","","","","","image-button-response","69","346608","0.0-12.0-1.0-0.4","E2FD2EDFB5BB45DD8EB6702F832F95F8","E2FD2EDFB5BB45DD8EB6702F832F95F8","8d9efb70-61f0-417f-a3eb-9d452addfa8a","a0a8f18c-a66e-4ba7-a170-23efbdc67501","{""participantId"":""E2FD2EDFB5BB45DD8EB6702F832F95F8"",""assignmentId"":""8d9efb70-61f0-417f-a3eb-9d452addfa8a"",""projectId"":""a0a8f18c-a66e-4ba7-a170-23efbdc67501""}","https://test12345.live/?participantId=E2FD2EDFB5BB45DD8EB6702F832F95F8&assignmentId=8d9efb70-61f0-417f-a3eb-9d452addfa8a&projectId=a0a8f18c-a66e-4ba7-a170-23efbdc67501","E2FD2EDFB5BB45DD8EB6702F832F95F8-2024-11-24-18-42-29","","null","","images/causal_sequence/saving_a_cat_causal/saving_a_cat_causal_ten.png","null","",""
"","","","","","image-button-response","70","347584","0.0-12.0-1.0-1.4","E2FD2EDFB5BB45DD8EB6702F832F95F8","E2FD2EDFB5BB45DD8EB6702F832F95F8","8d9efb70-61f0-417f-a3eb-9d452addfa8a","a0a8f18c-a66e-4ba7-a170-23efbdc67501","{""participantId"":""E2FD2EDFB5BB45DD8EB6702F832F95F8"",""assignmentId"":""8d9efb70-61f0-417f-a3eb-9d452addfa8a"",""projectId"":""a0a8f18c-a66e-4ba7-a170-23efbdc67501""}","https://test12345.live/?participantId=E2FD2EDFB5BB45DD8EB6702F832F95F8&assignmentId=8d9efb70-61f0-417f-a3eb-9d452addfa8a&projectId=a0a8f18c-a66e-4ba7-a170-23efbdc67501","E2FD2EDFB5BB45DD8EB6702F832F95F8-2024-11-24-18-42-29","","973","","images/causal_sequence/saving_a_cat_causal/saving_a_cat_causal_ten.png","0","",""
"","","","","","image-button-response","71","349390","0.0-12.0-1.0-2.4","E2FD2EDFB5BB45DD8EB6702F832F95F8","E2FD2EDFB5BB45DD8EB6702F832F95F8","8d9efb70-61f0-417f-a3eb-9d452addfa8a","a0a8f18c-a66e-4ba7-a170-23efbdc67501","{""participantId"":""E2FD2EDFB5BB45DD8EB6702F832F95F8"",""assignmentId"":""8d9efb70-61f0-417f-a3eb-9d452addfa8a"",""projectId"":""a0a8f18c-a66e-4ba7-a170-23efbdc67501""}","https://test12345.live/?participantId=E2FD2EDFB5BB45DD8EB6702F832F95F8&assignmentId=8d9efb70-61f0-417f-a3eb-9d452addfa8a&projectId=a0a8f18c-a66e-4ba7-a170-23efbdc67501","E2FD2EDFB5BB45DD8EB6702F832F95F8-2024-11-24-18-42-29","","null","","[]","null","",""
"","","","","","image-button-response","72","353898","0.0-12.0-1.0-0.5","E2FD2EDFB5BB45DD8EB6702F832F95F8","E2FD2EDFB5BB45DD8EB6702F832F95F8","8d9efb70-61f0-417f-a3eb-9d452addfa8a","a0a8f18c-a66e-4ba7-a170-23efbdc67501","{""participantId"":""E2FD2EDFB5BB45DD8EB6702F832F95F8"",""assignmentId"":""8d9efb70-61f0-417f-a3eb-9d452addfa8a"",""projectId"":""a0a8f18c-a66e-4ba7-a170-23efbdc67501""}","https://test12345.live/?participantId=E2FD2EDFB5BB45DD8EB6702F832F95F8&assignmentId=8d9efb70-61f0-417f-a3eb-9d452addfa8a&projectId=a0a8f18c-a66e-4ba7-a170-23efbdc67501","E2FD2EDFB5BB45DD8EB6702F832F95F8-2024-11-24-18-42-29","","null","","images/causal_sequence/saving_a_cat_causal/saving_a_cat_causal_4.png","null","",""
"","","","","","image-button-response","73","354585","0.0-12.0-1.0-1.5","E2FD2EDFB5BB45DD8EB6702F832F95F8","E2FD2EDFB5BB45DD8EB6702F832F95F8","8d9efb70-61f0-417f-a3eb-9d452addfa8a","a0a8f18c-a66e-4ba7-a170-23efbdc67501","{""participantId"":""E2FD2EDFB5BB45DD8EB6702F832F95F8"",""assignmentId"":""8d9efb70-61f0-417f-a3eb-9d452addfa8a"",""projectId"":""a0a8f18c-a66e-4ba7-a170-23efbdc67501""}","https://test12345.live/?participantId=E2FD2EDFB5BB45DD8EB6702F832F95F8&assignmentId=8d9efb70-61f0-417f-a3eb-9d452addfa8a&projectId=a0a8f18c-a66e-4ba7-a170-23efbdc67501","E2FD2EDFB5BB45DD8EB6702F832F95F8-2024-11-24-18-42-29","","683","","images/causal_sequence/saving_a_cat_causal/saving_a_cat_causal_4.png","0","",""
"","","","","","image-button-response","74","356400","0.0-12.0-1.0-2.5","E2FD2EDFB5BB45DD8EB6702F832F95F8","E2FD2EDFB5BB45DD8EB6702F832F95F8","8d9efb70-61f0-417f-a3eb-9d452addfa8a","a0a8f18c-a66e-4ba7-a170-23efbdc67501","{""participantId"":""E2FD2EDFB5BB45DD8EB6702F832F95F8"",""assignmentId"":""8d9efb70-61f0-417f-a3eb-9d452addfa8a"",""projectId"":""a0a8f18c-a66e-4ba7-a170-23efbdc67501""}","https://test12345.live/?participantId=E2FD2EDFB5BB45DD8EB6702F832F95F8&assignmentId=8d9efb70-61f0-417f-a3eb-9d452addfa8a&projectId=a0a8f18c-a66e-4ba7-a170-23efbdc67501","E2FD2EDFB5BB45DD8EB6702F832F95F8-2024-11-24-18-42-29","","null","","[]","null","",""
"","","","","","image-button-response","75","360912","0.0-12.0-1.0-0.6","E2FD2EDFB5BB45DD8EB6702F832F95F8","E2FD2EDFB5BB45DD8EB6702F832F95F8","8d9efb70-61f0-417f-a3eb-9d452addfa8a","a0a8f18c-a66e-4ba7-a170-23efbdc67501","{""participantId"":""E2FD2EDFB5BB45DD8EB6702F832F95F8"",""assignmentId"":""8d9efb70-61f0-417f-a3eb-9d452addfa8a"",""projectId"":""a0a8f18c-a66e-4ba7-a170-23efbdc67501""}","https://test12345.live/?participantId=E2FD2EDFB5BB45DD8EB6702F832F95F8&assignmentId=8d9efb70-61f0-417f-a3eb-9d452addfa8a&projectId=a0a8f18c-a66e-4ba7-a170-23efbdc67501","E2FD2EDFB5BB45DD8EB6702F832F95F8-2024-11-24-18-42-29","","null","","images/causal_sequence/saving_a_cat_causal/saving_a_cat_causal_3.png","null","",""
"","","","","","image-button-response","76","361796","0.0-12.0-1.0-1.6","E2FD2EDFB5BB45DD8EB6702F832F95F8","E2FD2EDFB5BB45DD8EB6702F832F95F8","8d9efb70-61f0-417f-a3eb-9d452addfa8a","a0a8f18c-a66e-4ba7-a170-23efbdc67501","{""participantId"":""E2FD2EDFB5BB45DD8EB6702F832F95F8"",""assignmentId"":""8d9efb70-61f0-417f-a3eb-9d452addfa8a"",""projectId"":""a0a8f18c-a66e-4ba7-a170-23efbdc67501""}","https://test12345.live/?participantId=E2FD2EDFB5BB45DD8EB6702F832F95F8&assignmentId=8d9efb70-61f0-417f-a3eb-9d452addfa8a&projectId=a0a8f18c-a66e-4ba7-a170-23efbdc67501","E2FD2EDFB5BB45DD8EB6702F832F95F8-2024-11-24-18-42-29","","881","","images/causal_sequence/saving_a_cat_causal/saving_a_cat_causal_3.png","0","",""
"","","","","","image-button-response","77","363603","0.0-12.0-1.0-2.6","E2FD2EDFB5BB45DD8EB6702F832F95F8","E2FD2EDFB5BB45DD8EB6702F832F95F8","8d9efb70-61f0-417f-a3eb-9d452addfa8a","a0a8f18c-a66e-4ba7-a170-23efbdc67501","{""participantId"":""E2FD2EDFB5BB45DD8EB6702F832F95F8"",""assignmentId"":""8d9efb70-61f0-417f-a3eb-9d452addfa8a"",""projectId"":""a0a8f18c-a66e-4ba7-a170-23efbdc67501""}","https://test12345.live/?participantId=E2FD2EDFB5BB45DD8EB6702F832F95F8&assignmentId=8d9efb70-61f0-417f-a3eb-9d452addfa8a&projectId=a0a8f18c-a66e-4ba7-a170-23efbdc67501","E2FD2EDFB5BB45DD8EB6702F832F95F8-2024-11-24-18-42-29","","null","","[]","null","",""
"","","","","","image-button-response","78","368108","0.0-12.0-1.0-0.7","E2FD2EDFB5BB45DD8EB6702F832F95F8","E2FD2EDFB5BB45DD8EB6702F832F95F8","8d9efb70-61f0-417f-a3eb-9d452addfa8a","a0a8f18c-a66e-4ba7-a170-23efbdc67501","{""participantId"":""E2FD2EDFB5BB45DD8EB6702F832F95F8"",""assignmentId"":""8d9efb70-61f0-417f-a3eb-9d452addfa8a"",""projectId"":""a0a8f18c-a66e-4ba7-a170-23efbdc67501""}","https://test12345.live/?participantId=E2FD2EDFB5BB45DD8EB6702F832F95F8&assignmentId=8d9efb70-61f0-417f-a3eb-9d452addfa8a&projectId=a0a8f18c-a66e-4ba7-a170-23efbdc67501","E2FD2EDFB5BB45DD8EB6702F832F95F8-2024-11-24-18-42-29","","null","","images/causal_sequence/saving_a_cat_causal/saving_a_cat_causal_7.png","null","",""
"","","","","","image-button-response","79","368909","0.0-12.0-1.0-1.7","E2FD2EDFB5BB45DD8EB6702F832F95F8","E2FD2EDFB5BB45DD8EB6702F832F95F8","8d9efb70-61f0-417f-a3eb-9d452addfa8a","a0a8f18c-a66e-4ba7-a170-23efbdc67501","{""participantId"":""E2FD2EDFB5BB45DD8EB6702F832F95F8"",""assignmentId"":""8d9efb70-61f0-417f-a3eb-9d452addfa8a"",""projectId"":""a0a8f18c-a66e-4ba7-a170-23efbdc67501""}","https://test12345.live/?participantId=E2FD2EDFB5BB45DD8EB6702F832F95F8&assignmentId=8d9efb70-61f0-417f-a3eb-9d452addfa8a&projectId=a0a8f18c-a66e-4ba7-a170-23efbdc67501","E2FD2EDFB5BB45DD8EB6702F832F95F8-2024-11-24-18-42-29","","799","","images/causal_sequence/saving_a_cat_causal/saving_a_cat_causal_7.png","0","",""
"","","","","","image-button-response","80","370712","0.0-12.0-1.0-2.7","E2FD2EDFB5BB45DD8EB6702F832F95F8","E2FD2EDFB5BB45DD8EB6702F832F95F8","8d9efb70-61f0-417f-a3eb-9d452addfa8a","a0a8f18c-a66e-4ba7-a170-23efbdc67501","{""participantId"":""E2FD2EDFB5BB45DD8EB6702F832F95F8"",""assignmentId"":""8d9efb70-61f0-417f-a3eb-9d452addfa8a"",""projectId"":""a0a8f18c-a66e-4ba7-a170-23efbdc67501""}","https://test12345.live/?participantId=E2FD2EDFB5BB45DD8EB6702F832F95F8&assignmentId=8d9efb70-61f0-417f-a3eb-9d452addfa8a&projectId=a0a8f18c-a66e-4ba7-a170-23efbdc67501","E2FD2EDFB5BB45DD8EB6702F832F95F8-2024-11-24-18-42-29","","null","","[]","null","",""
"","","","","","image-button-response","81","375224","0.0-12.0-1.0-0.8","E2FD2EDFB5BB45DD8EB6702F832F95F8","E2FD2EDFB5BB45DD8EB6702F832F95F8","8d9efb70-61f0-417f-a3eb-9d452addfa8a","a0a8f18c-a66e-4ba7-a170-23efbdc67501","{""participantId"":""E2FD2EDFB5BB45DD8EB6702F832F95F8"",""assignmentId"":""8d9efb70-61f0-417f-a3eb-9d452addfa8a"",""projectId"":""a0a8f18c-a66e-4ba7-a170-23efbdc67501""}","https://test12345.live/?participantId=E2FD2EDFB5BB45DD8EB6702F832F95F8&assignmentId=8d9efb70-61f0-417f-a3eb-9d452addfa8a&projectId=a0a8f18c-a66e-4ba7-a170-23efbdc67501","E2FD2EDFB5BB45DD8EB6702F832F95F8-2024-11-24-18-42-29","","null","","images/causal_sequence/saving_a_cat_causal/saving_a_cat_causal_2.png","null","",""
"","","","","","image-button-response","82","376104","0.0-12.0-1.0-1.8","E2FD2EDFB5BB45DD8EB6702F832F95F8","E2FD2EDFB5BB45DD8EB6702F832F95F8","8d9efb70-61f0-417f-a3eb-9d452addfa8a","a0a8f18c-a66e-4ba7-a170-23efbdc67501","{""participantId"":""E2FD2EDFB5BB45DD8EB6702F832F95F8"",""assignmentId"":""8d9efb70-61f0-417f-a3eb-9d452addfa8a"",""projectId"":""a0a8f18c-a66e-4ba7-a170-23efbdc67501""}","https://test12345.live/?participantId=E2FD2EDFB5BB45DD8EB6702F832F95F8&assignmentId=8d9efb70-61f0-417f-a3eb-9d452addfa8a&projectId=a0a8f18c-a66e-4ba7-a170-23efbdc67501","E2FD2EDFB5BB45DD8EB6702F832F95F8-2024-11-24-18-42-29","","877","","images/causal_sequence/saving_a_cat_causal/saving_a_cat_causal_2.png","1","",""
"","","","","","image-button-response","83","377914","0.0-12.0-1.0-2.8","E2FD2EDFB5BB45DD8EB6702F832F95F8","E2FD2EDFB5BB45DD8EB6702F832F95F8","8d9efb70-61f0-417f-a3eb-9d452addfa8a","a0a8f18c-a66e-4ba7-a170-23efbdc67501","{""participantId"":""E2FD2EDFB5BB45DD8EB6702F832F95F8"",""assignmentId"":""8d9efb70-61f0-417f-a3eb-9d452addfa8a"",""projectId"":""a0a8f18c-a66e-4ba7-a170-23efbdc67501""}","https://test12345.live/?participantId=E2FD2EDFB5BB45DD8EB6702F832F95F8&assignmentId=8d9efb70-61f0-417f-a3eb-9d452addfa8a&projectId=a0a8f18c-a66e-4ba7-a170-23efbdc67501","E2FD2EDFB5BB45DD8EB6702F832F95F8-2024-11-24-18-42-29","","null","","[]","null","",""
"","","","","","image-button-response","84","382430","0.0-12.0-1.0-0.9","E2FD2EDFB5BB45DD8EB6702F832F95F8","E2FD2EDFB5BB45DD8EB6702F832F95F8","8d9efb70-61f0-417f-a3eb-9d452addfa8a","a0a8f18c-a66e-4ba7-a170-23efbdc67501","{""participantId"":""E2FD2EDFB5BB45DD8EB6702F832F95F8"",""assignmentId"":""8d9efb70-61f0-417f-a3eb-9d452addfa8a"",""projectId"":""a0a8f18c-a66e-4ba7-a170-23efbdc67501""}","https://test12345.live/?participantId=E2FD2EDFB5BB45DD8EB6702F832F95F8&assignmentId=8d9efb70-61f0-417f-a3eb-9d452addfa8a&projectId=a0a8f18c-a66e-4ba7-a170-23efbdc67501","E2FD2EDFB5BB45DD8EB6702F832F95F8-2024-11-24-18-42-29","","null","","images/causal_sequence/saving_a_cat_causal/saving_a_cat_causal_5.png","null","",""
"","","","","","image-button-response","85","383056","0.0-12.0-1.0-1.9","E2FD2EDFB5BB45DD8EB6702F832F95F8","E2FD2EDFB5BB45DD8EB6702F832F95F8","8d9efb70-61f0-417f-a3eb-9d452addfa8a","a0a8f18c-a66e-4ba7-a170-23efbdc67501","{""participantId"":""E2FD2EDFB5BB45DD8EB6702F832F95F8"",""assignmentId"":""8d9efb70-61f0-417f-a3eb-9d452addfa8a"",""projectId"":""a0a8f18c-a66e-4ba7-a170-23efbdc67501""}","https://test12345.live/?participantId=E2FD2EDFB5BB45DD8EB6702F832F95F8&assignmentId=8d9efb70-61f0-417f-a3eb-9d452addfa8a&projectId=a0a8f18c-a66e-4ba7-a170-23efbdc67501","E2FD2EDFB5BB45DD8EB6702F832F95F8-2024-11-24-18-42-29","","623","","images/causal_sequence/saving_a_cat_causal/saving_a_cat_causal_5.png","0","",""
"","","","","","image-button-response","86","384869","0.0-12.0-1.0-2.9","E2FD2EDFB5BB45DD8EB6702F832F95F8","E2FD2EDFB5BB45DD8EB6702F832F95F8","8d9efb70-61f0-417f-a3eb-9d452addfa8a","a0a8f18c-a66e-4ba7-a170-23efbdc67501","{""participantId"":""E2FD2EDFB5BB45DD8EB6702F832F95F8"",""assignmentId"":""8d9efb70-61f0-417f-a3eb-9d452addfa8a"",""projectId"":""a0a8f18c-a66e-4ba7-a170-23efbdc67501""}","https://test12345.live/?participantId=E2FD2EDFB5BB45DD8EB6702F832F95F8&assignmentId=8d9efb70-61f0-417f-a3eb-9d452addfa8a&projectId=a0a8f18c-a66e-4ba7-a170-23efbdc67501","E2FD2EDFB5BB45DD8EB6702F832F95F8-2024-11-24-18-42-29","","null","","[]","null","",""
"","","","","","html-audio-response","87","486745","0.0-13.0","E2FD2EDFB5BB45DD8EB6702F832F95F8","E2FD2EDFB5BB45DD8EB6702F832F95F8","8d9efb70-61f0-417f-a3eb-9d452addfa8a","a0a8f18c-a66e-4ba7-a170-23efbdc67501","{""participantId"":""E2FD2EDFB5BB45DD8EB6702F832F95F8"",""assignmentId"":""8d9efb70-61f0-417f-a3eb-9d452addfa8a"",""projectId"":""a0a8f18c-a66e-4ba7-a170-23efbdc67501""}","https://test12345.live/?participantId=E2FD2EDFB5BB45DD8EB6702F832F95F8&assignmentId=8d9efb70-61f0-417f-a3eb-9d452addfa8a&projectId=a0a8f18c-a66e-4ba7-a170-23efbdc67501","E2FD2EDFB5BB45DD8EB6702F832F95F8-2024-11-24-18-42-29","","18021","","[""<span style=\""color: red; font-size: 24px\""> NOW RECORDING</span><p>Please say out loud all the images you saw, as many as you can remember. The images can be said in any order.</p>""]","","12","saving_a_cat_causal"
"","","","","","image-button-response","88","492759","0.0-14.0-0.0","E2FD2EDFB5BB45DD8EB6702F832F95F8","E2FD2EDFB5BB45DD8EB6702F832F95F8","8d9efb70-61f0-417f-a3eb-9d452addfa8a","a0a8f18c-a66e-4ba7-a170-23efbdc67501","{""participantId"":""E2FD2EDFB5BB45DD8EB6702F832F95F8"",""assignmentId"":""8d9efb70-61f0-417f-a3eb-9d452addfa8a"",""projectId"":""a0a8f18c-a66e-4ba7-a170-23efbdc67501""}","https://test12345.live/?participantId=E2FD2EDFB5BB45DD8EB6702F832F95F8&assignmentId=8d9efb70-61f0-417f-a3eb-9d452addfa8a&projectId=a0a8f18c-a66e-4ba7-a170-23efbdc67501","E2FD2EDFB5BB45DD8EB6702F832F95F8-2024-11-24-18-42-29","","null","","images/causal_sequence/dog_causal/dog_causal_0.png","null","",""
"","","","","","image-button-response","89","497264","0.0-14.0-1.0-0.0","E2FD2EDFB5BB45DD8EB6702F832F95F8","E2FD2EDFB5BB45DD8EB6702F832F95F8","8d9efb70-61f0-417f-a3eb-9d452addfa8a","a0a8f18c-a66e-4ba7-a170-23efbdc67501","{""participantId"":""E2FD2EDFB5BB45DD8EB6702F832F95F8"",""assignmentId"":""8d9efb70-61f0-417f-a3eb-9d452addfa8a"",""projectId"":""a0a8f18c-a66e-4ba7-a170-23efbdc67501""}","https://test12345.live/?participantId=E2FD2EDFB5BB45DD8EB6702F832F95F8&assignmentId=8d9efb70-61f0-417f-a3eb-9d452addfa8a&projectId=a0a8f18c-a66e-4ba7-a170-23efbdc67501","E2FD2EDFB5BB45DD8EB6702F832F95F8-2024-11-24-18-42-29","","null","","images/causal_sequence/dog_causal/dog_causal_1.png","null","",""
"","","","","","image-button-response","90","498595","0.0-14.0-1.0-1.0","E2FD2EDFB5BB45DD8EB6702F832F95F8","E2FD2EDFB5BB45DD8EB6702F832F95F8","8d9efb70-61f0-417f-a3eb-9d452addfa8a","a0a8f18c-a66e-4ba7-a170-23efbdc67501","{""participantId"":""E2FD2EDFB5BB45DD8EB6702F832F95F8"",""assignmentId"":""8d9efb70-61f0-417f-a3eb-9d452addfa8a"",""projectId"":""a0a8f18c-a66e-4ba7-a170-23efbdc67501""}","https://test12345.live/?participantId=E2FD2EDFB5BB45DD8EB6702F832F95F8&assignmentId=8d9efb70-61f0-417f-a3eb-9d452addfa8a&projectId=a0a8f18c-a66e-4ba7-a170-23efbdc67501","E2FD2EDFB5BB45DD8EB6702F832F95F8-2024-11-24-18-42-29","","1328","","images/causal_sequence/dog_causal/dog_causal_1.png","0","",""
"","","","","","image-button-response","91","500400","0.0-14.0-1.0-2.0","E2FD2EDFB5BB45DD8EB6702F832F95F8","E2FD2EDFB5BB45DD8EB6702F832F95F8","8d9efb70-61f0-417f-a3eb-9d452addfa8a","a0a8f18c-a66e-4ba7-a170-23efbdc67501","{""participantId"":""E2FD2EDFB5BB45DD8EB6702F832F95F8"",""assignmentId"":""8d9efb70-61f0-417f-a3eb-9d452addfa8a"",""projectId"":""a0a8f18c-a66e-4ba7-a170-23efbdc67501""}","https://test12345.live/?participantId=E2FD2EDFB5BB45DD8EB6702F832F95F8&assignmentId=8d9efb70-61f0-417f-a3eb-9d452addfa8a&projectId=a0a8f18c-a66e-4ba7-a170-23efbdc67501","E2FD2EDFB5BB45DD8EB6702F832F95F8-2024-11-24-18-42-29","","null","","[]","null","",""
"","","","","","image-button-response","92","504917","0.0-14.0-1.0-0.1","E2FD2EDFB5BB45DD8EB6702F832F95F8","E2FD2EDFB5BB45DD8EB6702F832F95F8","8d9efb70-61f0-417f-a3eb-9d452addfa8a","a0a8f18c-a66e-4ba7-a170-23efbdc67501","{""participantId"":""E2FD2EDFB5BB45DD8EB6702F832F95F8"",""assignmentId"":""8d9efb70-61f0-417f-a3eb-9d452addfa8a"",""projectId"":""a0a8f18c-a66e-4ba7-a170-23efbdc67501""}","https://test12345.live/?participantId=E2FD2EDFB5BB45DD8EB6702F832F95F8&assignmentId=8d9efb70-61f0-417f-a3eb-9d452addfa8a&projectId=a0a8f18c-a66e-4ba7-a170-23efbdc67501","E2FD2EDFB5BB45DD8EB6702F832F95F8-2024-11-24-18-42-29","","null","","images/causal_sequence/dog_causal/dog_causal_2.png","null","",""
"","","","","","image-button-response","93","507032","0.0-14.0-1.0-1.1","E2FD2EDFB5BB45DD8EB6702F832F95F8","E2FD2EDFB5BB45DD8EB6702F832F95F8","8d9efb70-61f0-417f-a3eb-9d452addfa8a","a0a8f18c-a66e-4ba7-a170-23efbdc67501","{""participantId"":""E2FD2EDFB5BB45DD8EB6702F832F95F8"",""assignmentId"":""8d9efb70-61f0-417f-a3eb-9d452addfa8a"",""projectId"":""a0a8f18c-a66e-4ba7-a170-23efbdc67501""}","https://test12345.live/?participantId=E2FD2EDFB5BB45DD8EB6702F832F95F8&assignmentId=8d9efb70-61f0-417f-a3eb-9d452addfa8a&projectId=a0a8f18c-a66e-4ba7-a170-23efbdc67501","E2FD2EDFB5BB45DD8EB6702F832F95F8-2024-11-24-18-42-29","","2112","","images/causal_sequence/dog_causal/dog_causal_2.png","0","",""
"","","","","","image-button-response","94","508836","0.0-14.0-1.0-2.1","E2FD2EDFB5BB45DD8EB6702F832F95F8","E2FD2EDFB5BB45DD8EB6702F832F95F8","8d9efb70-61f0-417f-a3eb-9d452addfa8a","a0a8f18c-a66e-4ba7-a170-23efbdc67501","{""participantId"":""E2FD2EDFB5BB45DD8EB6702F832F95F8"",""assignmentId"":""8d9efb70-61f0-417f-a3eb-9d452addfa8a"",""projectId"":""a0a8f18c-a66e-4ba7-a170-23efbdc67501""}","https://test12345.live/?participantId=E2FD2EDFB5BB45DD8EB6702F832F95F8&assignmentId=8d9efb70-61f0-417f-a3eb-9d452addfa8a&projectId=a0a8f18c-a66e-4ba7-a170-23efbdc67501","E2FD2EDFB5BB45DD8EB6702F832F95F8-2024-11-24-18-42-29","","null","","[]","null","",""
"","","","","","image-button-response","95","513349","0.0-14.0-1.0-0.2","E2FD2EDFB5BB45DD8EB6702F832F95F8","E2FD2EDFB5BB45DD8EB6702F832F95F8","8d9efb70-61f0-417f-a3eb-9d452addfa8a","a0a8f18c-a66e-4ba7-a170-23efbdc67501","{""participantId"":""E2FD2EDFB5BB45DD8EB6702F832F95F8"",""assignmentId"":""8d9efb70-61f0-417f-a3eb-9d452addfa8a"",""projectId"":""a0a8f18c-a66e-4ba7-a170-23efbdc67501""}","https://test12345.live/?participantId=E2FD2EDFB5BB45DD8EB6702F832F95F8&assignmentId=8d9efb70-61f0-417f-a3eb-9d452addfa8a&projectId=a0a8f18c-a66e-4ba7-a170-23efbdc67501","E2FD2EDFB5BB45DD8EB6702F832F95F8-2024-11-24-18-42-29","","null","","images/causal_sequence/dog_causal/dog_causal_3.png","null","",""
"","","","","","image-button-response","96","514894","0.0-14.0-1.0-1.2","E2FD2EDFB5BB45DD8EB6702F832F95F8","E2FD2EDFB5BB45DD8EB6702F832F95F8","8d9efb70-61f0-417f-a3eb-9d452addfa8a","a0a8f18c-a66e-4ba7-a170-23efbdc67501","{""participantId"":""E2FD2EDFB5BB45DD8EB6702F832F95F8"",""assignmentId"":""8d9efb70-61f0-417f-a3eb-9d452addfa8a"",""projectId"":""a0a8f18c-a66e-4ba7-a170-23efbdc67501""}","https://test12345.live/?participantId=E2FD2EDFB5BB45DD8EB6702F832F95F8&assignmentId=8d9efb70-61f0-417f-a3eb-9d452addfa8a&projectId=a0a8f18c-a66e-4ba7-a170-23efbdc67501","E2FD2EDFB5BB45DD8EB6702F832F95F8-2024-11-24-18-42-29","","1543","","images/causal_sequence/dog_causal/dog_causal_3.png","0","",""
"","","","","","image-button-response","97","516702","0.0-14.0-1.0-2.2","E2FD2EDFB5BB45DD8EB6702F832F95F8","E2FD2EDFB5BB45DD8EB6702F832F95F8","8d9efb70-61f0-417f-a3eb-9d452addfa8a","a0a8f18c-a66e-4ba7-a170-23efbdc67501","{""participantId"":""E2FD2EDFB5BB45DD8EB6702F832F95F8"",""assignmentId"":""8d9efb70-61f0-417f-a3eb-9d452addfa8a"",""projectId"":""a0a8f18c-a66e-4ba7-a170-23efbdc67501""}","https://test12345.live/?participantId=E2FD2EDFB5BB45DD8EB6702F832F95F8&assignmentId=8d9efb70-61f0-417f-a3eb-9d452addfa8a&projectId=a0a8f18c-a66e-4ba7-a170-23efbdc67501","E2FD2EDFB5BB45DD8EB6702F832F95F8-2024-11-24-18-42-29","","null","","[]","null","",""
"","","","","","image-button-response","98","521208","0.0-14.0-1.0-0.3","E2FD2EDFB5BB45DD8EB6702F832F95F8","E2FD2EDFB5BB45DD8EB6702F832F95F8","8d9efb70-61f0-417f-a3eb-9d452addfa8a","a0a8f18c-a66e-4ba7-a170-23efbdc67501","{""participantId"":""E2FD2EDFB5BB45DD8EB6702F832F95F8"",""assignmentId"":""8d9efb70-61f0-417f-a3eb-9d452addfa8a"",""projectId"":""a0a8f18c-a66e-4ba7-a170-23efbdc67501""}","https://test12345.live/?participantId=E2FD2EDFB5BB45DD8EB6702F832F95F8&assignmentId=8d9efb70-61f0-417f-a3eb-9d452addfa8a&projectId=a0a8f18c-a66e-4ba7-a170-23efbdc67501","E2FD2EDFB5BB45DD8EB6702F832F95F8-2024-11-24-18-42-29","","null","","images/causal_sequence/dog_causal/dog_causal_4.png","null","",""
"","","","","","image-button-response","99","522251","0.0-14.0-1.0-1.3","E2FD2EDFB5BB45DD8EB6702F832F95F8","E2FD2EDFB5BB45DD8EB6702F832F95F8","8d9efb70-61f0-417f-a3eb-9d452addfa8a","a0a8f18c-a66e-4ba7-a170-23efbdc67501","{""participantId"":""E2FD2EDFB5BB45DD8EB6702F832F95F8"",""assignmentId"":""8d9efb70-61f0-417f-a3eb-9d452addfa8a"",""projectId"":""a0a8f18c-a66e-4ba7-a170-23efbdc67501""}","https://test12345.live/?participantId=E2FD2EDFB5BB45DD8EB6702F832F95F8&assignmentId=8d9efb70-61f0-417f-a3eb-9d452addfa8a&projectId=a0a8f18c-a66e-4ba7-a170-23efbdc67501","E2FD2EDFB5BB45DD8EB6702F832F95F8-2024-11-24-18-42-29","","1040","","images/causal_sequence/dog_causal/dog_causal_4.png","0","",""
"","","","","","image-button-response","100","524053","0.0-14.0-1.0-2.3","E2FD2EDFB5BB45DD8EB6702F832F95F8","E2FD2EDFB5BB45DD8EB6702F832F95F8","8d9efb70-61f0-417f-a3eb-9d452addfa8a","a0a8f18c-a66e-4ba7-a170-23efbdc67501","{""participantId"":""E2FD2EDFB5BB45DD8EB6702F832F95F8"",""assignmentId"":""8d9efb70-61f0-417f-a3eb-9d452addfa8a"",""projectId"":""a0a8f18c-a66e-4ba7-a170-23efbdc67501""}","https://test12345.live/?participantId=E2FD2EDFB5BB45DD8EB6702F832F95F8&assignmentId=8d9efb70-61f0-417f-a3eb-9d452addfa8a&projectId=a0a8f18c-a66e-4ba7-a170-23efbdc67501","E2FD2EDFB5BB45DD8EB6702F832F95F8-2024-11-24-18-42-29","","null","","[]","null","",""
"","","","","","image-button-response","101","528564","0.0-14.0-1.0-0.4","E2FD2EDFB5BB45DD8EB6702F832F95F8","E2FD2EDFB5BB45DD8EB6702F832F95F8","8d9efb70-61f0-417f-a3eb-9d452addfa8a","a0a8f18c-a66e-4ba7-a170-23efbdc67501","{""participantId"":""E2FD2EDFB5BB45DD8EB6702F832F95F8"",""assignmentId"":""8d9efb70-61f0-417f-a3eb-9d452addfa8a"",""projectId"":""a0a8f18c-a66e-4ba7-a170-23efbdc67501""}","https://test12345.live/?participantId=E2FD2EDFB5BB45DD8EB6702F832F95F8&assignmentId=8d9efb70-61f0-417f-a3eb-9d452addfa8a&projectId=a0a8f18c-a66e-4ba7-a170-23efbdc67501","E2FD2EDFB5BB45DD8EB6702F832F95F8-2024-11-24-18-42-29","","null","","images/causal_sequence/dog_causal/dog_causal_5.png","null","",""
"","","","","","image-button-response","102","529345","0.0-14.0-1.0-1.4","E2FD2EDFB5BB45DD8EB6702F832F95F8","E2FD2EDFB5BB45DD8EB6702F832F95F8","8d9efb70-61f0-417f-a3eb-9d452addfa8a","a0a8f18c-a66e-4ba7-a170-23efbdc67501","{""participantId"":""E2FD2EDFB5BB45DD8EB6702F832F95F8"",""assignmentId"":""8d9efb70-61f0-417f-a3eb-9d452addfa8a"",""projectId"":""a0a8f18c-a66e-4ba7-a170-23efbdc67501""}","https://test12345.live/?participantId=E2FD2EDFB5BB45DD8EB6702F832F95F8&assignmentId=8d9efb70-61f0-417f-a3eb-9d452addfa8a&projectId=a0a8f18c-a66e-4ba7-a170-23efbdc67501","E2FD2EDFB5BB45DD8EB6702F832F95F8-2024-11-24-18-42-29","","779","","images/causal_sequence/dog_causal/dog_causal_5.png","0","",""
"","","","","","image-button-response","103","531157","0.0-14.0-1.0-2.4","E2FD2EDFB5BB45DD8EB6702F832F95F8","E2FD2EDFB5BB45DD8EB6702F832F95F8","8d9efb70-61f0-417f-a3eb-9d452addfa8a","a0a8f18c-a66e-4ba7-a170-23efbdc67501","{""participantId"":""E2FD2EDFB5BB45DD8EB6702F832F95F8"",""assignmentId"":""8d9efb70-61f0-417f-a3eb-9d452addfa8a"",""projectId"":""a0a8f18c-a66e-4ba7-a170-23efbdc67501""}","https://test12345.live/?participantId=E2FD2EDFB5BB45DD8EB6702F832F95F8&assignmentId=8d9efb70-61f0-417f-a3eb-9d452addfa8a&projectId=a0a8f18c-a66e-4ba7-a170-23efbdc67501","E2FD2EDFB5BB45DD8EB6702F832F95F8-2024-11-24-18-42-29","","null","","[]","null","",""
"","","","","","image-button-response","104","535660","0.0-14.0-1.0-0.5","E2FD2EDFB5BB45DD8EB6702F832F95F8","E2FD2EDFB5BB45DD8EB6702F832F95F8","8d9efb70-61f0-417f-a3eb-9d452addfa8a","a0a8f18c-a66e-4ba7-a170-23efbdc67501","{""participantId"":""E2FD2EDFB5BB45DD8EB6702F832F95F8"",""assignmentId"":""8d9efb70-61f0-417f-a3eb-9d452addfa8a"",""projectId"":""a0a8f18c-a66e-4ba7-a170-23efbdc67501""}","https://test12345.live/?participantId=E2FD2EDFB5BB45DD8EB6702F832F95F8&assignmentId=8d9efb70-61f0-417f-a3eb-9d452addfa8a&projectId=a0a8f18c-a66e-4ba7-a170-23efbdc67501","E2FD2EDFB5BB45DD8EB6702F832F95F8-2024-11-24-18-42-29","","null","","images/causal_sequence/dog_causal/dog_causal_6.png","null","",""
"","","","","","image-button-response","105","536608","0.0-14.0-1.0-1.5","E2FD2EDFB5BB45DD8EB6702F832F95F8","E2FD2EDFB5BB45DD8EB6702F832F95F8","8d9efb70-61f0-417f-a3eb-9d452addfa8a","a0a8f18c-a66e-4ba7-a170-23efbdc67501","{""participantId"":""E2FD2EDFB5BB45DD8EB6702F832F95F8"",""assignmentId"":""8d9efb70-61f0-417f-a3eb-9d452addfa8a"",""projectId"":""a0a8f18c-a66e-4ba7-a170-23efbdc67501""}","https://test12345.live/?participantId=E2FD2EDFB5BB45DD8EB6702F832F95F8&assignmentId=8d9efb70-61f0-417f-a3eb-9d452addfa8a&projectId=a0a8f18c-a66e-4ba7-a170-23efbdc67501","E2FD2EDFB5BB45DD8EB6702F832F95F8-2024-11-24-18-42-29","","946","","images/causal_sequence/dog_causal/dog_causal_6.png","0","",""
"","","","","","image-button-response","106","538416","0.0-14.0-1.0-2.5","E2FD2EDFB5BB45DD8EB6702F832F95F8","E2FD2EDFB5BB45DD8EB6702F832F95F8","8d9efb70-61f0-417f-a3eb-9d452addfa8a","a0a8f18c-a66e-4ba7-a170-23efbdc67501","{""participantId"":""E2FD2EDFB5BB45DD8EB6702F832F95F8"",""assignmentId"":""8d9efb70-61f0-417f-a3eb-9d452addfa8a"",""projectId"":""a0a8f18c-a66e-4ba7-a170-23efbdc67501""}","https://test12345.live/?participantId=E2FD2EDFB5BB45DD8EB6702F832F95F8&assignmentId=8d9efb70-61f0-417f-a3eb-9d452addfa8a&projectId=a0a8f18c-a66e-4ba7-a170-23efbdc67501","E2FD2EDFB5BB45DD8EB6702F832F95F8-2024-11-24-18-42-29","","null","","[]","null","",""
"","","","","","image-button-response","107","542931","0.0-14.0-1.0-0.6","E2FD2EDFB5BB45DD8EB6702F832F95F8","E2FD2EDFB5BB45DD8EB6702F832F95F8","8d9efb70-61f0-417f-a3eb-9d452addfa8a","a0a8f18c-a66e-4ba7-a170-23efbdc67501","{""participantId"":""E2FD2EDFB5BB45DD8EB6702F832F95F8"",""assignmentId"":""8d9efb70-61f0-417f-a3eb-9d452addfa8a"",""projectId"":""a0a8f18c-a66e-4ba7-a170-23efbdc67501""}","https://test12345.live/?participantId=E2FD2EDFB5BB45DD8EB6702F832F95F8&assignmentId=8d9efb70-61f0-417f-a3eb-9d452addfa8a&projectId=a0a8f18c-a66e-4ba7-a170-23efbdc67501","E2FD2EDFB5BB45DD8EB6702F832F95F8-2024-11-24-18-42-29","","null","","images/causal_sequence/dog_causal/dog_causal_7.png","null","",""
"","","","","","image-button-response","108","543978","0.0-14.0-1.0-1.6","E2FD2EDFB5BB45DD8EB6702F832F95F8","E2FD2EDFB5BB45DD8EB6702F832F95F8","8d9efb70-61f0-417f-a3eb-9d452addfa8a","a0a8f18c-a66e-4ba7-a170-23efbdc67501","{""participantId"":""E2FD2EDFB5BB45DD8EB6702F832F95F8"",""assignmentId"":""8d9efb70-61f0-417f-a3eb-9d452addfa8a"",""projectId"":""a0a8f18c-a66e-4ba7-a170-23efbdc67501""}","https://test12345.live/?participantId=E2FD2EDFB5BB45DD8EB6702F832F95F8&assignmentId=8d9efb70-61f0-417f-a3eb-9d452addfa8a&projectId=a0a8f18c-a66e-4ba7-a170-23efbdc67501","E2FD2EDFB5BB45DD8EB6702F832F95F8-2024-11-24-18-42-29","","1044","","images/causal_sequence/dog_causal/dog_causal_7.png","0","",""
"","","","","","image-button-response","109","545788","0.0-14.0-1.0-2.6","E2FD2EDFB5BB45DD8EB6702F832F95F8","E2FD2EDFB5BB45DD8EB6702F832F95F8","8d9efb70-61f0-417f-a3eb-9d452addfa8a","a0a8f18c-a66e-4ba7-a170-23efbdc67501","{""participantId"":""E2FD2EDFB5BB45DD8EB6702F832F95F8"",""assignmentId"":""8d9efb70-61f0-417f-a3eb-9d452addfa8a"",""projectId"":""a0a8f18c-a66e-4ba7-a170-23efbdc67501""}","https://test12345.live/?participantId=E2FD2EDFB5BB45DD8EB6702F832F95F8&assignmentId=8d9efb70-61f0-417f-a3eb-9d452addfa8a&projectId=a0a8f18c-a66e-4ba7-a170-23efbdc67501","E2FD2EDFB5BB45DD8EB6702F832F95F8-2024-11-24-18-42-29","","null","","[]","null","",""
"","","","","","image-button-response","110","550293","0.0-14.0-1.0-0.7","E2FD2EDFB5BB45DD8EB6702F832F95F8","E2FD2EDFB5BB45DD8EB6702F832F95F8","8d9efb70-61f0-417f-a3eb-9d452addfa8a","a0a8f18c-a66e-4ba7-a170-23efbdc67501","{""participantId"":""E2FD2EDFB5BB45DD8EB6702F832F95F8"",""assignmentId"":""8d9efb70-61f0-417f-a3eb-9d452addfa8a"",""projectId"":""a0a8f18c-a66e-4ba7-a170-23efbdc67501""}","https://test12345.live/?participantId=E2FD2EDFB5BB45DD8EB6702F832F95F8&assignmentId=8d9efb70-61f0-417f-a3eb-9d452addfa8a&projectId=a0a8f18c-a66e-4ba7-a170-23efbdc67501","E2FD2EDFB5BB45DD8EB6702F832F95F8-2024-11-24-18-42-29","","null","","images/causal_sequence/dog_causal/dog_causal_8.png","null","",""
"","","","","","image-button-response","111","551366","0.0-14.0-1.0-1.7","E2FD2EDFB5BB45DD8EB6702F832F95F8","E2FD2EDFB5BB45DD8EB6702F832F95F8","8d9efb70-61f0-417f-a3eb-9d452addfa8a","a0a8f18c-a66e-4ba7-a170-23efbdc67501","{""participantId"":""E2FD2EDFB5BB45DD8EB6702F832F95F8"",""assignmentId"":""8d9efb70-61f0-417f-a3eb-9d452addfa8a"",""projectId"":""a0a8f18c-a66e-4ba7-a170-23efbdc67501""}","https://test12345.live/?participantId=E2FD2EDFB5BB45DD8EB6702F832F95F8&assignmentId=8d9efb70-61f0-417f-a3eb-9d452addfa8a&projectId=a0a8f18c-a66e-4ba7-a170-23efbdc67501","E2FD2EDFB5BB45DD8EB6702F832F95F8-2024-11-24-18-42-29","","1070","","images/causal_sequence/dog_causal/dog_causal_8.png","0","",""
"","","","","","image-button-response","112","553174","0.0-14.0-1.0-2.7","E2FD2EDFB5BB45DD8EB6702F832F95F8","E2FD2EDFB5BB45DD8EB6702F832F95F8","8d9efb70-61f0-417f-a3eb-9d452addfa8a","a0a8f18c-a66e-4ba7-a170-23efbdc67501","{""participantId"":""E2FD2EDFB5BB45DD8EB6702F832F95F8"",""assignmentId"":""8d9efb70-61f0-417f-a3eb-9d452addfa8a"",""projectId"":""a0a8f18c-a66e-4ba7-a170-23efbdc67501""}","https://test12345.live/?participantId=E2FD2EDFB5BB45DD8EB6702F832F95F8&assignmentId=8d9efb70-61f0-417f-a3eb-9d452addfa8a&projectId=a0a8f18c-a66e-4ba7-a170-23efbdc67501","E2FD2EDFB5BB45DD8EB6702F832F95F8-2024-11-24-18-42-29","","null","","[]","null","",""
"","","","","","image-button-response","113","557688","0.0-14.0-1.0-0.8","E2FD2EDFB5BB45DD8EB6702F832F95F8","E2FD2EDFB5BB45DD8EB6702F832F95F8","8d9efb70-61f0-417f-a3eb-9d452addfa8a","a0a8f18c-a66e-4ba7-a170-23efbdc67501","{""participantId"":""E2FD2EDFB5BB45DD8EB6702F832F95F8"",""assignmentId"":""8d9efb70-61f0-417f-a3eb-9d452addfa8a"",""projectId"":""a0a8f18c-a66e-4ba7-a170-23efbdc67501""}","https://test12345.live/?participantId=E2FD2EDFB5BB45DD8EB6702F832F95F8&assignmentId=8d9efb70-61f0-417f-a3eb-9d452addfa8a&projectId=a0a8f18c-a66e-4ba7-a170-23efbdc67501","E2FD2EDFB5BB45DD8EB6702F832F95F8-2024-11-24-18-42-29","","null","","images/causal_sequence/dog_causal/dog_causal_9.png","null","",""
"","","","","","image-button-response","114","558473","0.0-14.0-1.0-1.8","E2FD2EDFB5BB45DD8EB6702F832F95F8","E2FD2EDFB5BB45DD8EB6702F832F95F8","8d9efb70-61f0-417f-a3eb-9d452addfa8a","a0a8f18c-a66e-4ba7-a170-23efbdc67501","{""participantId"":""E2FD2EDFB5BB45DD8EB6702F832F95F8"",""assignmentId"":""8d9efb70-61f0-417f-a3eb-9d452addfa8a"",""projectId"":""a0a8f18c-a66e-4ba7-a170-23efbdc67501""}","https://test12345.live/?participantId=E2FD2EDFB5BB45DD8EB6702F832F95F8&assignmentId=8d9efb70-61f0-417f-a3eb-9d452addfa8a&projectId=a0a8f18c-a66e-4ba7-a170-23efbdc67501","E2FD2EDFB5BB45DD8EB6702F832F95F8-2024-11-24-18-42-29","","783","","images/causal_sequence/dog_causal/dog_causal_9.png","0","",""
"","","","","","image-button-response","115","560287","0.0-14.0-1.0-2.8","E2FD2EDFB5BB45DD8EB6702F832F95F8","E2FD2EDFB5BB45DD8EB6702F832F95F8","8d9efb70-61f0-417f-a3eb-9d452addfa8a","a0a8f18c-a66e-4ba7-a170-23efbdc67501","{""participantId"":""E2FD2EDFB5BB45DD8EB6702F832F95F8"",""assignmentId"":""8d9efb70-61f0-417f-a3eb-9d452addfa8a"",""projectId"":""a0a8f18c-a66e-4ba7-a170-23efbdc67501""}","https://test12345.live/?participantId=E2FD2EDFB5BB45DD8EB6702F832F95F8&assignmentId=8d9efb70-61f0-417f-a3eb-9d452addfa8a&projectId=a0a8f18c-a66e-4ba7-a170-23efbdc67501","E2FD2EDFB5BB45DD8EB6702F832F95F8-2024-11-24-18-42-29","","null","","[]","null","",""
"","","","","","image-button-response","116","564794","0.0-14.0-1.0-0.9","E2FD2EDFB5BB45DD8EB6702F832F95F8","E2FD2EDFB5BB45DD8EB6702F832F95F8","8d9efb70-61f0-417f-a3eb-9d452addfa8a","a0a8f18c-a66e-4ba7-a170-23efbdc67501","{""participantId"":""E2FD2EDFB5BB45DD8EB6702F832F95F8"",""assignmentId"":""8d9efb70-61f0-417f-a3eb-9d452addfa8a"",""projectId"":""a0a8f18c-a66e-4ba7-a170-23efbdc67501""}","https://test12345.live/?participantId=E2FD2EDFB5BB45DD8EB6702F832F95F8&assignmentId=8d9efb70-61f0-417f-a3eb-9d452addfa8a&projectId=a0a8f18c-a66e-4ba7-a170-23efbdc67501","E2FD2EDFB5BB45DD8EB6702F832F95F8-2024-11-24-18-42-29","","null","","images/causal_sequence/dog_causal/dog_causal_ten.png","null","",""
"","","","","","image-button-response","117","565811","0.0-14.0-1.0-1.9","E2FD2EDFB5BB45DD8EB6702F832F95F8","E2FD2EDFB5BB45DD8EB6702F832F95F8","8d9efb70-61f0-417f-a3eb-9d452addfa8a","a0a8f18c-a66e-4ba7-a170-23efbdc67501","{""participantId"":""E2FD2EDFB5BB45DD8EB6702F832F95F8"",""assignmentId"":""8d9efb70-61f0-417f-a3eb-9d452addfa8a"",""projectId"":""a0a8f18c-a66e-4ba7-a170-23efbdc67501""}","https://test12345.live/?participantId=E2FD2EDFB5BB45DD8EB6702F832F95F8&assignmentId=8d9efb70-61f0-417f-a3eb-9d452addfa8a&projectId=a0a8f18c-a66e-4ba7-a170-23efbdc67501","E2FD2EDFB5BB45DD8EB6702F832F95F8-2024-11-24-18-42-29","","1014","","images/causal_sequence/dog_causal/dog_causal_ten.png","0","",""
"","","","","","image-button-response","118","567616","0.0-14.0-1.0-2.9","E2FD2EDFB5BB45DD8EB6702F832F95F8","E2FD2EDFB5BB45DD8EB6702F832F95F8","8d9efb70-61f0-417f-a3eb-9d452addfa8a","a0a8f18c-a66e-4ba7-a170-23efbdc67501","{""participantId"":""E2FD2EDFB5BB45DD8EB6702F832F95F8"",""assignmentId"":""8d9efb70-61f0-417f-a3eb-9d452addfa8a"",""projectId"":""a0a8f18c-a66e-4ba7-a170-23efbdc67501""}","https://test12345.live/?participantId=E2FD2EDFB5BB45DD8EB6702F832F95F8&assignmentId=8d9efb70-61f0-417f-a3eb-9d452addfa8a&projectId=a0a8f18c-a66e-4ba7-a170-23efbdc67501","E2FD2EDFB5BB45DD8EB6702F832F95F8-2024-11-24-18-42-29","","null","","[]","null","",""
"","","","","","html-audio-response","119","602932","0.0-15.0","E2FD2EDFB5BB45DD8EB6702F832F95F8","E2FD2EDFB5BB45DD8EB6702F832F95F8","8d9efb70-61f0-417f-a3eb-9d452addfa8a","a0a8f18c-a66e-4ba7-a170-23efbdc67501","{""participantId"":""E2FD2EDFB5BB45DD8EB6702F832F95F8"",""assignmentId"":""8d9efb70-61f0-417f-a3eb-9d452addfa8a"",""projectId"":""a0a8f18c-a66e-4ba7-a170-23efbdc67501""}","https://test12345.live/?participantId=E2FD2EDFB5BB45DD8EB6702F832F95F8&assignmentId=8d9efb70-61f0-417f-a3eb-9d452addfa8a&projectId=a0a8f18c-a66e-4ba7-a170-23efbdc67501","E2FD2EDFB5BB45DD8EB6702F832F95F8-2024-11-24-18-42-29","","26639","","[""<span style=\""color: red; font-size: 24px\""> NOW RECORDING</span><p>Please say out loud all the images you saw, as many as you can remember. The images can be said in any order.</p>""]","","3","dog_causal"
"","","","","","image-button-response","120","608945","0.0-16.0-0.0","E2FD2EDFB5BB45DD8EB6702F832F95F8","E2FD2EDFB5BB45DD8EB6702F832F95F8","8d9efb70-61f0-417f-a3eb-9d452addfa8a","a0a8f18c-a66e-4ba7-a170-23efbdc67501","{""participantId"":""E2FD2EDFB5BB45DD8EB6702F832F95F8"",""assignmentId"":""8d9efb70-61f0-417f-a3eb-9d452addfa8a"",""projectId"":""a0a8f18c-a66e-4ba7-a170-23efbdc67501""}","https://test12345.live/?participantId=E2FD2EDFB5BB45DD8EB6702F832F95F8&assignmentId=8d9efb70-61f0-417f-a3eb-9d452addfa8a&projectId=a0a8f18c-a66e-4ba7-a170-23efbdc67501","E2FD2EDFB5BB45DD8EB6702F832F95F8-2024-11-24-18-42-29","","null","","images/semantic_sequence/physical_activity_semantic/physical_activity_semantic_0.png","null","",""
"","","","","","image-button-response","121","613456","0.0-16.0-1.0-0.0","E2FD2EDFB5BB45DD8EB6702F832F95F8","E2FD2EDFB5BB45DD8EB6702F832F95F8","8d9efb70-61f0-417f-a3eb-9d452addfa8a","a0a8f18c-a66e-4ba7-a170-23efbdc67501","{""participantId"":""E2FD2EDFB5BB45DD8EB6702F832F95F8"",""assignmentId"":""8d9efb70-61f0-417f-a3eb-9d452addfa8a"",""projectId"":""a0a8f18c-a66e-4ba7-a170-23efbdc67501""}","https://test12345.live/?participantId=E2FD2EDFB5BB45DD8EB6702F832F95F8&assignmentId=8d9efb70-61f0-417f-a3eb-9d452addfa8a&projectId=a0a8f18c-a66e-4ba7-a170-23efbdc67501","E2FD2EDFB5BB45DD8EB6702F832F95F8-2024-11-24-18-42-29","","null","","images/semantic_sequence/physical_activity_semantic/physical_activity_semantic_1.png","null","",""
"","","","","","image-button-response","122","615416","0.0-16.0-1.0-1.0","E2FD2EDFB5BB45DD8EB6702F832F95F8","E2FD2EDFB5BB45DD8EB6702F832F95F8","8d9efb70-61f0-417f-a3eb-9d452addfa8a","a0a8f18c-a66e-4ba7-a170-23efbdc67501","{""participantId"":""E2FD2EDFB5BB45DD8EB6702F832F95F8"",""assignmentId"":""8d9efb70-61f0-417f-a3eb-9d452addfa8a"",""projectId"":""a0a8f18c-a66e-4ba7-a170-23efbdc67501""}","https://test12345.live/?participantId=E2FD2EDFB5BB45DD8EB6702F832F95F8&assignmentId=8d9efb70-61f0-417f-a3eb-9d452addfa8a&projectId=a0a8f18c-a66e-4ba7-a170-23efbdc67501","E2FD2EDFB5BB45DD8EB6702F832F95F8-2024-11-24-18-42-29","","1957","","images/semantic_sequence/physical_activity_semantic/physical_activity_semantic_1.png","0","",""
"","","","","","image-button-response","123","617233","0.0-16.0-1.0-2.0","E2FD2EDFB5BB45DD8EB6702F832F95F8","E2FD2EDFB5BB45DD8EB6702F832F95F8","8d9efb70-61f0-417f-a3eb-9d452addfa8a","a0a8f18c-a66e-4ba7-a170-23efbdc67501","{""participantId"":""E2FD2EDFB5BB45DD8EB6702F832F95F8"",""assignmentId"":""8d9efb70-61f0-417f-a3eb-9d452addfa8a"",""projectId"":""a0a8f18c-a66e-4ba7-a170-23efbdc67501""}","https://test12345.live/?participantId=E2FD2EDFB5BB45DD8EB6702F832F95F8&assignmentId=8d9efb70-61f0-417f-a3eb-9d452addfa8a&projectId=a0a8f18c-a66e-4ba7-a170-23efbdc67501","E2FD2EDFB5BB45DD8EB6702F832F95F8-2024-11-24-18-42-29","","null","","[]","null","",""
"","","","","","image-button-response","124","621740","0.0-16.0-1.0-0.1","E2FD2EDFB5BB45DD8EB6702F832F95F8","E2FD2EDFB5BB45DD8EB6702F832F95F8","8d9efb70-61f0-417f-a3eb-9d452addfa8a","a0a8f18c-a66e-4ba7-a170-23efbdc67501","{""participantId"":""E2FD2EDFB5BB45DD8EB6702F832F95F8"",""assignmentId"":""8d9efb70-61f0-417f-a3eb-9d452addfa8a"",""projectId"":""a0a8f18c-a66e-4ba7-a170-23efbdc67501""}","https://test12345.live/?participantId=E2FD2EDFB5BB45DD8EB6702F832F95F8&assignmentId=8d9efb70-61f0-417f-a3eb-9d452addfa8a&projectId=a0a8f18c-a66e-4ba7-a170-23efbdc67501","E2FD2EDFB5BB45DD8EB6702F832F95F8-2024-11-24-18-42-29","","null","","images/semantic_sequence/physical_activity_semantic/physical_activity_semantic_2.png","null","",""
"","","","","","image-button-response","125","622955","0.0-16.0-1.0-1.1","E2FD2EDFB5BB45DD8EB6702F832F95F8","E2FD2EDFB5BB45DD8EB6702F832F95F8","8d9efb70-61f0-417f-a3eb-9d452addfa8a","a0a8f18c-a66e-4ba7-a170-23efbdc67501","{""participantId"":""E2FD2EDFB5BB45DD8EB6702F832F95F8"",""assignmentId"":""8d9efb70-61f0-417f-a3eb-9d452addfa8a"",""projectId"":""a0a8f18c-a66e-4ba7-a170-23efbdc67501""}","https://test12345.live/?participantId=E2FD2EDFB5BB45DD8EB6702F832F95F8&assignmentId=8d9efb70-61f0-417f-a3eb-9d452addfa8a&projectId=a0a8f18c-a66e-4ba7-a170-23efbdc67501","E2FD2EDFB5BB45DD8EB6702F832F95F8-2024-11-24-18-42-29","","1212","","images/semantic_sequence/physical_activity_semantic/physical_activity_semantic_2.png","0","",""
"","","","","","image-button-response","126","624771","0.0-16.0-1.0-2.1","E2FD2EDFB5BB45DD8EB6702F832F95F8","E2FD2EDFB5BB45DD8EB6702F832F95F8","8d9efb70-61f0-417f-a3eb-9d452addfa8a","a0a8f18c-a66e-4ba7-a170-23efbdc67501","{""participantId"":""E2FD2EDFB5BB45DD8EB6702F832F95F8"",""assignmentId"":""8d9efb70-61f0-417f-a3eb-9d452addfa8a"",""projectId"":""a0a8f18c-a66e-4ba7-a170-23efbdc67501""}","https://test12345.live/?participantId=E2FD2EDFB5BB45DD8EB6702F832F95F8&assignmentId=8d9efb70-61f0-417f-a3eb-9d452addfa8a&projectId=a0a8f18c-a66e-4ba7-a170-23efbdc67501","E2FD2EDFB5BB45DD8EB6702F832F95F8-2024-11-24-18-42-29","","null","","[]","null","",""
"","","","","","image-button-response","127","629288","0.0-16.0-1.0-0.2","E2FD2EDFB5BB45DD8EB6702F832F95F8","E2FD2EDFB5BB45DD8EB6702F832F95F8","8d9efb70-61f0-417f-a3eb-9d452addfa8a","a0a8f18c-a66e-4ba7-a170-23efbdc67501","{""participantId"":""E2FD2EDFB5BB45DD8EB6702F832F95F8"",""assignmentId"":""8d9efb70-61f0-417f-a3eb-9d452addfa8a"",""projectId"":""a0a8f18c-a66e-4ba7-a170-23efbdc67501""}","https://test12345.live/?participantId=E2FD2EDFB5BB45DD8EB6702F832F95F8&assignmentId=8d9efb70-61f0-417f-a3eb-9d452addfa8a&projectId=a0a8f18c-a66e-4ba7-a170-23efbdc67501","E2FD2EDFB5BB45DD8EB6702F832F95F8-2024-11-24-18-42-29","","null","","images/semantic_sequence/physical_activity_semantic/physical_activity_semantic_3.png","null","",""
"","","","","","image-button-response","128","630205","0.0-16.0-1.0-1.2","E2FD2EDFB5BB45DD8EB6702F832F95F8","E2FD2EDFB5BB45DD8EB6702F832F95F8","8d9efb70-61f0-417f-a3eb-9d452addfa8a","a0a8f18c-a66e-4ba7-a170-23efbdc67501","{""participantId"":""E2FD2EDFB5BB45DD8EB6702F832F95F8"",""assignmentId"":""8d9efb70-61f0-417f-a3eb-9d452addfa8a"",""projectId"":""a0a8f18c-a66e-4ba7-a170-23efbdc67501""}","https://test12345.live/?participantId=E2FD2EDFB5BB45DD8EB6702F832F95F8&assignmentId=8d9efb70-61f0-417f-a3eb-9d452addfa8a&projectId=a0a8f18c-a66e-4ba7-a170-23efbdc67501","E2FD2EDFB5BB45DD8EB6702F832F95F8-2024-11-24-18-42-29","","914","","images/semantic_sequence/physical_activity_semantic/physical_activity_semantic_3.png","0","",""
"","","","","","image-button-response","129","632009","0.0-16.0-1.0-2.2","E2FD2EDFB5BB45DD8EB6702F832F95F8","E2FD2EDFB5BB45DD8EB6702F832F95F8","8d9efb70-61f0-417f-a3eb-9d452addfa8a","a0a8f18c-a66e-4ba7-a170-23efbdc67501","{""participantId"":""E2FD2EDFB5BB45DD8EB6702F832F95F8"",""assignmentId"":""8d9efb70-61f0-417f-a3eb-9d452addfa8a"",""projectId"":""a0a8f18c-a66e-4ba7-a170-23efbdc67501""}","https://test12345.live/?participantId=E2FD2EDFB5BB45DD8EB6702F832F95F8&assignmentId=8d9efb70-61f0-417f-a3eb-9d452addfa8a&projectId=a0a8f18c-a66e-4ba7-a170-23efbdc67501","E2FD2EDFB5BB45DD8EB6702F832F95F8-2024-11-24-18-42-29","","null","","[]","null","",""
"","","","","","image-button-response","130","636519","0.0-16.0-1.0-0.3","E2FD2EDFB5BB45DD8EB6702F832F95F8","E2FD2EDFB5BB45DD8EB6702F832F95F8","8d9efb70-61f0-417f-a3eb-9d452addfa8a","a0a8f18c-a66e-4ba7-a170-23efbdc67501","{""participantId"":""E2FD2EDFB5BB45DD8EB6702F832F95F8"",""assignmentId"":""8d9efb70-61f0-417f-a3eb-9d452addfa8a"",""projectId"":""a0a8f18c-a66e-4ba7-a170-23efbdc67501""}","https://test12345.live/?participantId=E2FD2EDFB5BB45DD8EB6702F832F95F8&assignmentId=8d9efb70-61f0-417f-a3eb-9d452addfa8a&projectId=a0a8f18c-a66e-4ba7-a170-23efbdc67501","E2FD2EDFB5BB45DD8EB6702F832F95F8-2024-11-24-18-42-29","","null","","images/semantic_sequence/physical_activity_semantic/physical_activity_semantic_4.png","null","",""
"","","","","","image-button-response","131","637749","0.0-16.0-1.0-1.3","E2FD2EDFB5BB45DD8EB6702F832F95F8","E2FD2EDFB5BB45DD8EB6702F832F95F8","8d9efb70-61f0-417f-a3eb-9d452addfa8a","a0a8f18c-a66e-4ba7-a170-23efbdc67501","{""participantId"":""E2FD2EDFB5BB45DD8EB6702F832F95F8"",""assignmentId"":""8d9efb70-61f0-417f-a3eb-9d452addfa8a"",""projectId"":""a0a8f18c-a66e-4ba7-a170-23efbdc67501""}","https://test12345.live/?participantId=E2FD2EDFB5BB45DD8EB6702F832F95F8&assignmentId=8d9efb70-61f0-417f-a3eb-9d452addfa8a&projectId=a0a8f18c-a66e-4ba7-a170-23efbdc67501","E2FD2EDFB5BB45DD8EB6702F832F95F8-2024-11-24-18-42-29","","1228","","images/semantic_sequence/physical_activity_semantic/physical_activity_semantic_4.png","0","",""
"","","","","","image-button-response","132","639559","0.0-16.0-1.0-2.3","E2FD2EDFB5BB45DD8EB6702F832F95F8","E2FD2EDFB5BB45DD8EB6702F832F95F8","8d9efb70-61f0-417f-a3eb-9d452addfa8a","a0a8f18c-a66e-4ba7-a170-23efbdc67501","{""participantId"":""E2FD2EDFB5BB45DD8EB6702F832F95F8"",""assignmentId"":""8d9efb70-61f0-417f-a3eb-9d452addfa8a"",""projectId"":""a0a8f18c-a66e-4ba7-a170-23efbdc67501""}","https://test12345.live/?participantId=E2FD2EDFB5BB45DD8EB6702F832F95F8&assignmentId=8d9efb70-61f0-417f-a3eb-9d452addfa8a&projectId=a0a8f18c-a66e-4ba7-a170-23efbdc67501","E2FD2EDFB5BB45DD8EB6702F832F95F8-2024-11-24-18-42-29","","null","","[]","null","",""
"","","","","","image-button-response","133","644074","0.0-16.0-1.0-0.4","E2FD2EDFB5BB45DD8EB6702F832F95F8","E2FD2EDFB5BB45DD8EB6702F832F95F8","8d9efb70-61f0-417f-a3eb-9d452addfa8a","a0a8f18c-a66e-4ba7-a170-23efbdc67501","{""participantId"":""E2FD2EDFB5BB45DD8EB6702F832F95F8"",""assignmentId"":""8d9efb70-61f0-417f-a3eb-9d452addfa8a"",""projectId"":""a0a8f18c-a66e-4ba7-a170-23efbdc67501""}","https://test12345.live/?participantId=E2FD2EDFB5BB45DD8EB6702F832F95F8&assignmentId=8d9efb70-61f0-417f-a3eb-9d452addfa8a&projectId=a0a8f18c-a66e-4ba7-a170-23efbdc67501","E2FD2EDFB5BB45DD8EB6702F832F95F8-2024-11-24-18-42-29","","null","","images/semantic_sequence/physical_activity_semantic/physical_activity_semantic_5.png","null","",""
"","","","","","image-button-response","134","644939","0.0-16.0-1.0-1.4","E2FD2EDFB5BB45DD8EB6702F832F95F8","E2FD2EDFB5BB45DD8EB6702F832F95F8","8d9efb70-61f0-417f-a3eb-9d452addfa8a","a0a8f18c-a66e-4ba7-a170-23efbdc67501","{""participantId"":""E2FD2EDFB5BB45DD8EB6702F832F95F8"",""assignmentId"":""8d9efb70-61f0-417f-a3eb-9d452addfa8a"",""projectId"":""a0a8f18c-a66e-4ba7-a170-23efbdc67501""}","https://test12345.live/?participantId=E2FD2EDFB5BB45DD8EB6702F832F95F8&assignmentId=8d9efb70-61f0-417f-a3eb-9d452addfa8a&projectId=a0a8f18c-a66e-4ba7-a170-23efbdc67501","E2FD2EDFB5BB45DD8EB6702F832F95F8-2024-11-24-18-42-29","","863","","images/semantic_sequence/physical_activity_semantic/physical_activity_semantic_5.png","0","",""
"","","","","","image-button-response","135","646742","0.0-16.0-1.0-2.4","E2FD2EDFB5BB45DD8EB6702F832F95F8","E2FD2EDFB5BB45DD8EB6702F832F95F8","8d9efb70-61f0-417f-a3eb-9d452addfa8a","a0a8f18c-a66e-4ba7-a170-23efbdc67501","{""participantId"":""E2FD2EDFB5BB45DD8EB6702F832F95F8"",""assignmentId"":""8d9efb70-61f0-417f-a3eb-9d452addfa8a"",""projectId"":""a0a8f18c-a66e-4ba7-a170-23efbdc67501""}","https://test12345.live/?participantId=E2FD2EDFB5BB45DD8EB6702F832F95F8&assignmentId=8d9efb70-61f0-417f-a3eb-9d452addfa8a&projectId=a0a8f18c-a66e-4ba7-a170-23efbdc67501","E2FD2EDFB5BB45DD8EB6702F832F95F8-2024-11-24-18-42-29","","null","","[]","null","",""
"","","","","","image-button-response","136","651254","0.0-16.0-1.0-0.5","E2FD2EDFB5BB45DD8EB6702F832F95F8","E2FD2EDFB5BB45DD8EB6702F832F95F8","8d9efb70-61f0-417f-a3eb-9d452addfa8a","a0a8f18c-a66e-4ba7-a170-23efbdc67501","{""participantId"":""E2FD2EDFB5BB45DD8EB6702F832F95F8"",""assignmentId"":""8d9efb70-61f0-417f-a3eb-9d452addfa8a"",""projectId"":""a0a8f18c-a66e-4ba7-a170-23efbdc67501""}","https://test12345.live/?participantId=E2FD2EDFB5BB45DD8EB6702F832F95F8&assignmentId=8d9efb70-61f0-417f-a3eb-9d452addfa8a&projectId=a0a8f18c-a66e-4ba7-a170-23efbdc67501","E2FD2EDFB5BB45DD8EB6702F832F95F8-2024-11-24-18-42-29","","null","","images/semantic_sequence/physical_activity_semantic/physical_activity_semantic_6.png","null","",""
"","","","","","image-button-response","137","652185","0.0-16.0-1.0-1.5","E2FD2EDFB5BB45DD8EB6702F832F95F8","E2FD2EDFB5BB45DD8EB6702F832F95F8","8d9efb70-61f0-417f-a3eb-9d452addfa8a","a0a8f18c-a66e-4ba7-a170-23efbdc67501","{""participantId"":""E2FD2EDFB5BB45DD8EB6702F832F95F8"",""assignmentId"":""8d9efb70-61f0-417f-a3eb-9d452addfa8a"",""projectId"":""a0a8f18c-a66e-4ba7-a170-23efbdc67501""}","https://test12345.live/?participantId=E2FD2EDFB5BB45DD8EB6702F832F95F8&assignmentId=8d9efb70-61f0-417f-a3eb-9d452addfa8a&projectId=a0a8f18c-a66e-4ba7-a170-23efbdc67501","E2FD2EDFB5BB45DD8EB6702F832F95F8-2024-11-24-18-42-29","","927","","images/semantic_sequence/physical_activity_semantic/physical_activity_semantic_6.png","0","",""
"","","","","","image-button-response","138","653994","0.0-16.0-1.0-2.5","E2FD2EDFB5BB45DD8EB6702F832F95F8","E2FD2EDFB5BB45DD8EB6702F832F95F8","8d9efb70-61f0-417f-a3eb-9d452addfa8a","a0a8f18c-a66e-4ba7-a170-23efbdc67501","{""participantId"":""E2FD2EDFB5BB45DD8EB6702F832F95F8"",""assignmentId"":""8d9efb70-61f0-417f-a3eb-9d452addfa8a"",""projectId"":""a0a8f18c-a66e-4ba7-a170-23efbdc67501""}","https://test12345.live/?participantId=E2FD2EDFB5BB45DD8EB6702F832F95F8&assignmentId=8d9efb70-61f0-417f-a3eb-9d452addfa8a&projectId=a0a8f18c-a66e-4ba7-a170-23efbdc67501","E2FD2EDFB5BB45DD8EB6702F832F95F8-2024-11-24-18-42-29","","null","","[]","null","",""
"","","","","","image-button-response","139","658503","0.0-16.0-1.0-0.6","E2FD2EDFB5BB45DD8EB6702F832F95F8","E2FD2EDFB5BB45DD8EB6702F832F95F8","8d9efb70-61f0-417f-a3eb-9d452addfa8a","a0a8f18c-a66e-4ba7-a170-23efbdc67501","{""participantId"":""E2FD2EDFB5BB45DD8EB6702F832F95F8"",""assignmentId"":""8d9efb70-61f0-417f-a3eb-9d452addfa8a"",""projectId"":""a0a8f18c-a66e-4ba7-a170-23efbdc67501""}","https://test12345.live/?participantId=E2FD2EDFB5BB45DD8EB6702F832F95F8&assignmentId=8d9efb70-61f0-417f-a3eb-9d452addfa8a&projectId=a0a8f18c-a66e-4ba7-a170-23efbdc67501","E2FD2EDFB5BB45DD8EB6702F832F95F8-2024-11-24-18-42-29","","null","","images/semantic_sequence/physical_activity_semantic/physical_activity_semantic_7.png","null","",""
"","","","","","image-button-response","140","659429","0.0-16.0-1.0-1.6","E2FD2EDFB5BB45DD8EB6702F832F95F8","E2FD2EDFB5BB45DD8EB6702F832F95F8","8d9efb70-61f0-417f-a3eb-9d452addfa8a","a0a8f18c-a66e-4ba7-a170-23efbdc67501","{""participantId"":""E2FD2EDFB5BB45DD8EB6702F832F95F8"",""assignmentId"":""8d9efb70-61f0-417f-a3eb-9d452addfa8a"",""projectId"":""a0a8f18c-a66e-4ba7-a170-23efbdc67501""}","https://test12345.live/?participantId=E2FD2EDFB5BB45DD8EB6702F832F95F8&assignmentId=8d9efb70-61f0-417f-a3eb-9d452addfa8a&projectId=a0a8f18c-a66e-4ba7-a170-23efbdc67501","E2FD2EDFB5BB45DD8EB6702F832F95F8-2024-11-24-18-42-29","","924","","images/semantic_sequence/physical_activity_semantic/physical_activity_semantic_7.png","0","",""
"","","","","","image-button-response","141","661235","0.0-16.0-1.0-2.6","E2FD2EDFB5BB45DD8EB6702F832F95F8","E2FD2EDFB5BB45DD8EB6702F832F95F8","8d9efb70-61f0-417f-a3eb-9d452addfa8a","a0a8f18c-a66e-4ba7-a170-23efbdc67501","{""participantId"":""E2FD2EDFB5BB45DD8EB6702F832F95F8"",""assignmentId"":""8d9efb70-61f0-417f-a3eb-9d452addfa8a"",""projectId"":""a0a8f18c-a66e-4ba7-a170-23efbdc67501""}","https://test12345.live/?participantId=E2FD2EDFB5BB45DD8EB6702F832F95F8&assignmentId=8d9efb70-61f0-417f-a3eb-9d452addfa8a&projectId=a0a8f18c-a66e-4ba7-a170-23efbdc67501","E2FD2EDFB5BB45DD8EB6702F832F95F8-2024-11-24-18-42-29","","null","","[]","null","",""
"","","","","","image-button-response","142","665738","0.0-16.0-1.0-0.7","E2FD2EDFB5BB45DD8EB6702F832F95F8","E2FD2EDFB5BB45DD8EB6702F832F95F8","8d9efb70-61f0-417f-a3eb-9d452addfa8a","a0a8f18c-a66e-4ba7-a170-23efbdc67501","{""participantId"":""E2FD2EDFB5BB45DD8EB6702F832F95F8"",""assignmentId"":""8d9efb70-61f0-417f-a3eb-9d452addfa8a"",""projectId"":""a0a8f18c-a66e-4ba7-a170-23efbdc67501""}","https://test12345.live/?participantId=E2FD2EDFB5BB45DD8EB6702F832F95F8&assignmentId=8d9efb70-61f0-417f-a3eb-9d452addfa8a&projectId=a0a8f18c-a66e-4ba7-a170-23efbdc67501","E2FD2EDFB5BB45DD8EB6702F832F95F8-2024-11-24-18-42-29","","null","","images/semantic_sequence/physical_activity_semantic/physical_activity_semantic_8.png","null","",""
"","","","","","image-button-response","143","666389","0.0-16.0-1.0-1.7","E2FD2EDFB5BB45DD8EB6702F832F95F8","E2FD2EDFB5BB45DD8EB6702F832F95F8","8d9efb70-61f0-417f-a3eb-9d452addfa8a","a0a8f18c-a66e-4ba7-a170-23efbdc67501","{""participantId"":""E2FD2EDFB5BB45DD8EB6702F832F95F8"",""assignmentId"":""8d9efb70-61f0-417f-a3eb-9d452addfa8a"",""projectId"":""a0a8f18c-a66e-4ba7-a170-23efbdc67501""}","https://test12345.live/?participantId=E2FD2EDFB5BB45DD8EB6702F832F95F8&assignmentId=8d9efb70-61f0-417f-a3eb-9d452addfa8a&projectId=a0a8f18c-a66e-4ba7-a170-23efbdc67501","E2FD2EDFB5BB45DD8EB6702F832F95F8-2024-11-24-18-42-29","","648","","images/semantic_sequence/physical_activity_semantic/physical_activity_semantic_8.png","0","",""
