"success","timeout","failed_images","failed_audio","failed_video","trial_type","trial_index","time_elapsed","internal_node_id","subject","subject_id","study_id","session_id","urlvar","current_url","audio_id","view_history","rt","device_id","stimulus","response","estimated_stimulus_onset","seq_name"
"true","false","[]","[]","[]","preload","0","8516","0.0-0.0","0194E19996A14812975767C4C7B9EA9E","0194E19996A14812975767C4C7B9EA9E","7c910cca-a022-4748-9209-aac2ad663815","051c06f1-75cc-4548-856d-4923ddaba0dc","{""num_scrambled_semantic"":""8"",""num_scrambled_causal"":""4"",""num_scrambled_schematic"":""4"",""participantId"":""0194E19996A14812975767C4C7B9EA9E"",""assignmentId"":""7c910cca-a022-4748-9209-aac2ad663815"",""projectId"":""051c06f1-75cc-4548-856d-4923ddaba0dc""}","https://test12345.live/?num_scrambled_semantic=8&num_scrambled_causal=4&num_scrambled_schematic=4&participantId=0194E19996A14812975767C4C7B9EA9E&assignmentId=7c910cca-a022-4748-9209-aac2ad663815&projectId=051c06f1-75cc-4548-856d-4923ddaba0dc","0194E19996A14812975767C4C7B9EA9E-2025-05-15-21-16-57","","","","","","",""
"","","","","","instructions","1","93353","0.0-1.0","0194E19996A14812975767C4C7B9EA9E","0194E19996A14812975767C4C7B9EA9E","7c910cca-a022-4748-9209-aac2ad663815","051c06f1-75cc-4548-856d-4923ddaba0dc","{""num_scrambled_semantic"":""8"",""num_scrambled_causal"":""4"",""num_scrambled_schematic"":""4"",""participantId"":""0194E19996A14812975767C4C7B9EA9E"",""assignmentId"":""7c910cca-a022-4748-9209-aac2ad663815"",""projectId"":""051c06f1-75cc-4548-856d-4923ddaba0dc""}","https://test12345.live/?num_scrambled_semantic=8&num_scrambled_causal=4&num_scrambled_schematic=4&participantId=0194E19996A14812975767C4C7B9EA9E&assignmentId=7c910cca-a022-4748-9209-aac2ad663815&projectId=051c06f1-75cc-4548-856d-4923ddaba0dc","0194E19996A14812975767C4C7B9EA9E-2025-05-15-21-16-57","[{""page_index"":0,""viewing_time"":84833}]","84834","","","","",""
"","","","","","instructions","2","168178","0.0-2.0","0194E19996A14812975767C4C7B9EA9E","0194E19996A14812975767C4C7B9EA9E","7c910cca-a022-4748-9209-aac2ad663815","051c06f1-75cc-4548-856d-4923ddaba0dc","{""num_scrambled_semantic"":""8"",""num_scrambled_causal"":""4"",""num_scrambled_schematic"":""4"",""participantId"":""0194E19996A14812975767C4C7B9EA9E"",""assignmentId"":""7c910cca-a022-4748-9209-aac2ad663815"",""projectId"":""051c06f1-75cc-4548-856d-4923ddaba0dc""}","https://test12345.live/?num_scrambled_semantic=8&num_scrambled_causal=4&num_scrambled_schematic=4&participantId=0194E19996A14812975767C4C7B9EA9E&assignmentId=7c910cca-a022-4748-9209-aac2ad663815&projectId=051c06f1-75cc-4548-856d-4923ddaba0dc","0194E19996A14812975767C4C7B9EA9E-2025-05-15-21-16-57","[{""page_index"":0,""viewing_time"":74821}]","74822","","","","",""
"true","","","","","fullscreen","3","171996","0.0-3.0","0194E19996A14812975767C4C7B9EA9E","0194E19996A14812975767C4C7B9EA9E","7c910cca-a022-4748-9209-aac2ad663815","051c06f1-75cc-4548-856d-4923ddaba0dc","{""num_scrambled_semantic"":""8"",""num_scrambled_causal"":""4"",""num_scrambled_schematic"":""4"",""participantId"":""0194E19996A14812975767C4C7B9EA9E"",""assignmentId"":""7c910cca-a022-4748-9209-aac2ad663815"",""projectId"":""051c06f1-75cc-4548-856d-4923ddaba0dc""}","https://test12345.live/?num_scrambled_semantic=8&num_scrambled_causal=4&num_scrambled_schematic=4&participantId=0194E19996A14812975767C4C7B9EA9E&assignmentId=7c910cca-a022-4748-9209-aac2ad663815&projectId=051c06f1-75cc-4548-856d-4923ddaba0dc","0194E19996A14812975767C4C7B9EA9E-2025-05-15-21-16-57","","2815","","","","",""
"","","","","","initialize-microphone","4","183520","0.0-4.0-0.0","0194E19996A14812975767C4C7B9EA9E","0194E19996A14812975767C4C7B9EA9E","7c910cca-a022-4748-9209-aac2ad663815","051c06f1-75cc-4548-856d-4923ddaba0dc","{""num_scrambled_semantic"":""8"",""num_scrambled_causal"":""4"",""num_scrambled_schematic"":""4"",""participantId"":""0194E19996A14812975767C4C7B9EA9E"",""assignmentId"":""7c910cca-a022-4748-9209-aac2ad663815"",""projectId"":""051c06f1-75cc-4548-856d-4923ddaba0dc""}","https://test12345.live/?num_scrambled_semantic=8&num_scrambled_causal=4&num_scrambled_schematic=4&participantId=0194E19996A14812975767C4C7B9EA9E&assignmentId=7c910cca-a022-4748-9209-aac2ad663815&projectId=051c06f1-75cc-4548-856d-4923ddaba0dc","0194E19996A14812975767C4C7B9EA9E-2025-05-15-21-16-57","","","ba0e0ec52a9f8a514bd583f856903e8c2bfe10882eb3dcddc1a9c0844e28b789","","","",""
"","","","","","html-audio-response","5","195684","0.0-4.0-1.0","0194E19996A14812975767C4C7B9EA9E","0194E19996A14812975767C4C7B9EA9E","7c910cca-a022-4748-9209-aac2ad663815","051c06f1-75cc-4548-856d-4923ddaba0dc","{""num_scrambled_semantic"":""8"",""num_scrambled_causal"":""4"",""num_scrambled_schematic"":""4"",""participantId"":""0194E19996A14812975767C4C7B9EA9E"",""assignmentId"":""7c910cca-a022-4748-9209-aac2ad663815"",""projectId"":""051c06f1-75cc-4548-856d-4923ddaba0dc""}","https://test12345.live/?num_scrambled_semantic=8&num_scrambled_causal=4&num_scrambled_schematic=4&participantId=0194E19996A14812975767C4C7B9EA9E&assignmentId=7c910cca-a022-4748-9209-aac2ad663815&projectId=051c06f1-75cc-4548-856d-4923ddaba0dc","0194E19996A14812975767C4C7B9EA9E-2025-05-15-21-16-57","","5077","","<span style=""color: red; font-size: 24px""> NOW RECORDING</span>
        <p>Please test Microphone</p>","","4",""
"","","","","","html-button-response","6","197714","0.0-4.0-2.0","0194E19996A14812975767C4C7B9EA9E","0194E19996A14812975767C4C7B9EA9E","7c910cca-a022-4748-9209-aac2ad663815","051c06f1-75cc-4548-856d-4923ddaba0dc","{""num_scrambled_semantic"":""8"",""num_scrambled_causal"":""4"",""num_scrambled_schematic"":""4"",""participantId"":""0194E19996A14812975767C4C7B9EA9E"",""assignmentId"":""7c910cca-a022-4748-9209-aac2ad663815"",""projectId"":""051c06f1-75cc-4548-856d-4923ddaba0dc""}","https://test12345.live/?num_scrambled_semantic=8&num_scrambled_causal=4&num_scrambled_schematic=4&participantId=0194E19996A14812975767C4C7B9EA9E&assignmentId=7c910cca-a022-4748-9209-aac2ad663815&projectId=051c06f1-75cc-4548-856d-4923ddaba0dc","0194E19996A14812975767C4C7B9EA9E-2025-05-15-21-16-57","","2028","","<p style=""font-size:48px; color:red;"">Is Microphone OK?</p>","1","",""
"","","","","","instructions","7","218583","0.0-5.0","0194E19996A14812975767C4C7B9EA9E","0194E19996A14812975767C4C7B9EA9E","7c910cca-a022-4748-9209-aac2ad663815","051c06f1-75cc-4548-856d-4923ddaba0dc","{""num_scrambled_semantic"":""8"",""num_scrambled_causal"":""4"",""num_scrambled_schematic"":""4"",""participantId"":""0194E19996A14812975767C4C7B9EA9E"",""assignmentId"":""7c910cca-a022-4748-9209-aac2ad663815"",""projectId"":""051c06f1-75cc-4548-856d-4923ddaba0dc""}","https://test12345.live/?num_scrambled_semantic=8&num_scrambled_causal=4&num_scrambled_schematic=4&participantId=0194E19996A14812975767C4C7B9EA9E&assignmentId=7c910cca-a022-4748-9209-aac2ad663815&projectId=051c06f1-75cc-4548-856d-4923ddaba0dc","0194E19996A14812975767C4C7B9EA9E-2025-05-15-21-16-57","[{""page_index"":0,""viewing_time"":10667},{""page_index"":1,""viewing_time"":10201}]","20868","","","","",""
"","","","","","image-button-response","8","224586","0.0-6.0-0.0","0194E19996A14812975767C4C7B9EA9E","0194E19996A14812975767C4C7B9EA9E","7c910cca-a022-4748-9209-aac2ad663815","051c06f1-75cc-4548-856d-4923ddaba0dc","{""num_scrambled_semantic"":""8"",""num_scrambled_causal"":""4"",""num_scrambled_schematic"":""4"",""participantId"":""0194E19996A14812975767C4C7B9EA9E"",""assignmentId"":""7c910cca-a022-4748-9209-aac2ad663815"",""projectId"":""051c06f1-75cc-4548-856d-4923ddaba0dc""}","https://test12345.live/?num_scrambled_semantic=8&num_scrambled_causal=4&num_scrambled_schematic=4&participantId=0194E19996A14812975767C4C7B9EA9E&assignmentId=7c910cca-a022-4748-9209-aac2ad663815&projectId=051c06f1-75cc-4548-856d-4923ddaba0dc","0194E19996A14812975767C4C7B9EA9E-2025-05-15-21-16-57","","null","","images/instructions/movie_0.png","null","",""
"","","","","","image-button-response","9","229089","0.0-6.0-1.0-0.0","0194E19996A14812975767C4C7B9EA9E","0194E19996A14812975767C4C7B9EA9E","7c910cca-a022-4748-9209-aac2ad663815","051c06f1-75cc-4548-856d-4923ddaba0dc","{""num_scrambled_semantic"":""8"",""num_scrambled_causal"":""4"",""num_scrambled_schematic"":""4"",""participantId"":""0194E19996A14812975767C4C7B9EA9E"",""assignmentId"":""7c910cca-a022-4748-9209-aac2ad663815"",""projectId"":""051c06f1-75cc-4548-856d-4923ddaba0dc""}","https://test12345.live/?num_scrambled_semantic=8&num_scrambled_causal=4&num_scrambled_schematic=4&participantId=0194E19996A14812975767C4C7B9EA9E&assignmentId=7c910cca-a022-4748-9209-aac2ad663815&projectId=051c06f1-75cc-4548-856d-4923ddaba0dc","0194E19996A14812975767C4C7B9EA9E-2025-05-15-21-16-57","","null","","images/instructions/movie_1.png","null","",""
"","","","","","image-button-response","10","232417","0.0-6.0-1.0-1.0","0194E19996A14812975767C4C7B9EA9E","0194E19996A14812975767C4C7B9EA9E","7c910cca-a022-4748-9209-aac2ad663815","051c06f1-75cc-4548-856d-4923ddaba0dc","{""num_scrambled_semantic"":""8"",""num_scrambled_causal"":""4"",""num_scrambled_schematic"":""4"",""participantId"":""0194E19996A14812975767C4C7B9EA9E"",""assignmentId"":""7c910cca-a022-4748-9209-aac2ad663815"",""projectId"":""051c06f1-75cc-4548-856d-4923ddaba0dc""}","https://test12345.live/?num_scrambled_semantic=8&num_scrambled_causal=4&num_scrambled_schematic=4&participantId=0194E19996A14812975767C4C7B9EA9E&assignmentId=7c910cca-a022-4748-9209-aac2ad663815&projectId=051c06f1-75cc-4548-856d-4923ddaba0dc","0194E19996A14812975767C4C7B9EA9E-2025-05-15-21-16-57","","3326","","images/instructions/movie_1.png","0","",""
"","","","","","image-button-response","11","234222","0.0-6.0-1.0-2.0","0194E19996A14812975767C4C7B9EA9E","0194E19996A14812975767C4C7B9EA9E","7c910cca-a022-4748-9209-aac2ad663815","051c06f1-75cc-4548-856d-4923ddaba0dc","{""num_scrambled_semantic"":""8"",""num_scrambled_causal"":""4"",""num_scrambled_schematic"":""4"",""participantId"":""0194E19996A14812975767C4C7B9EA9E"",""assignmentId"":""7c910cca-a022-4748-9209-aac2ad663815"",""projectId"":""051c06f1-75cc-4548-856d-4923ddaba0dc""}","https://test12345.live/?num_scrambled_semantic=8&num_scrambled_causal=4&num_scrambled_schematic=4&participantId=0194E19996A14812975767C4C7B9EA9E&assignmentId=7c910cca-a022-4748-9209-aac2ad663815&projectId=051c06f1-75cc-4548-856d-4923ddaba0dc","0194E19996A14812975767C4C7B9EA9E-2025-05-15-21-16-57","","null","","[]","null","",""
"","","","","","image-button-response","12","238725","0.0-6.0-1.0-0.1","0194E19996A14812975767C4C7B9EA9E","0194E19996A14812975767C4C7B9EA9E","7c910cca-a022-4748-9209-aac2ad663815","051c06f1-75cc-4548-856d-4923ddaba0dc","{""num_scrambled_semantic"":""8"",""num_scrambled_causal"":""4"",""num_scrambled_schematic"":""4"",""participantId"":""0194E19996A14812975767C4C7B9EA9E"",""assignmentId"":""7c910cca-a022-4748-9209-aac2ad663815"",""projectId"":""051c06f1-75cc-4548-856d-4923ddaba0dc""}","https://test12345.live/?num_scrambled_semantic=8&num_scrambled_causal=4&num_scrambled_schematic=4&participantId=0194E19996A14812975767C4C7B9EA9E&assignmentId=7c910cca-a022-4748-9209-aac2ad663815&projectId=051c06f1-75cc-4548-856d-4923ddaba0dc","0194E19996A14812975767C4C7B9EA9E-2025-05-15-21-16-57","","null","","images/instructions/movie_2.png","null","",""
"","","","","","image-button-response","13","240818","0.0-6.0-1.0-1.1","0194E19996A14812975767C4C7B9EA9E","0194E19996A14812975767C4C7B9EA9E","7c910cca-a022-4748-9209-aac2ad663815","051c06f1-75cc-4548-856d-4923ddaba0dc","{""num_scrambled_semantic"":""8"",""num_scrambled_causal"":""4"",""num_scrambled_schematic"":""4"",""participantId"":""0194E19996A14812975767C4C7B9EA9E"",""assignmentId"":""7c910cca-a022-4748-9209-aac2ad663815"",""projectId"":""051c06f1-75cc-4548-856d-4923ddaba0dc""}","https://test12345.live/?num_scrambled_semantic=8&num_scrambled_causal=4&num_scrambled_schematic=4&participantId=0194E19996A14812975767C4C7B9EA9E&assignmentId=7c910cca-a022-4748-9209-aac2ad663815&projectId=051c06f1-75cc-4548-856d-4923ddaba0dc","0194E19996A14812975767C4C7B9EA9E-2025-05-15-21-16-57","","2091","","images/instructions/movie_2.png","0","",""
"","","","","","image-button-response","14","242621","0.0-6.0-1.0-2.1","0194E19996A14812975767C4C7B9EA9E","0194E19996A14812975767C4C7B9EA9E","7c910cca-a022-4748-9209-aac2ad663815","051c06f1-75cc-4548-856d-4923ddaba0dc","{""num_scrambled_semantic"":""8"",""num_scrambled_causal"":""4"",""num_scrambled_schematic"":""4"",""participantId"":""0194E19996A14812975767C4C7B9EA9E"",""assignmentId"":""7c910cca-a022-4748-9209-aac2ad663815"",""projectId"":""051c06f1-75cc-4548-856d-4923ddaba0dc""}","https://test12345.live/?num_scrambled_semantic=8&num_scrambled_causal=4&num_scrambled_schematic=4&participantId=0194E19996A14812975767C4C7B9EA9E&assignmentId=7c910cca-a022-4748-9209-aac2ad663815&projectId=051c06f1-75cc-4548-856d-4923ddaba0dc","0194E19996A14812975767C4C7B9EA9E-2025-05-15-21-16-57","","null","","[]","null","",""
"","","","","","image-button-response","15","247122","0.0-6.0-1.0-0.2","0194E19996A14812975767C4C7B9EA9E","0194E19996A14812975767C4C7B9EA9E","7c910cca-a022-4748-9209-aac2ad663815","051c06f1-75cc-4548-856d-4923ddaba0dc","{""num_scrambled_semantic"":""8"",""num_scrambled_causal"":""4"",""num_scrambled_schematic"":""4"",""participantId"":""0194E19996A14812975767C4C7B9EA9E"",""assignmentId"":""7c910cca-a022-4748-9209-aac2ad663815"",""projectId"":""051c06f1-75cc-4548-856d-4923ddaba0dc""}","https://test12345.live/?num_scrambled_semantic=8&num_scrambled_causal=4&num_scrambled_schematic=4&participantId=0194E19996A14812975767C4C7B9EA9E&assignmentId=7c910cca-a022-4748-9209-aac2ad663815&projectId=051c06f1-75cc-4548-856d-4923ddaba0dc","0194E19996A14812975767C4C7B9EA9E-2025-05-15-21-16-57","","null","","images/instructions/movie_3.png","null","",""
"","","","","","image-button-response","16","248602","0.0-6.0-1.0-1.2","0194E19996A14812975767C4C7B9EA9E","0194E19996A14812975767C4C7B9EA9E","7c910cca-a022-4748-9209-aac2ad663815","051c06f1-75cc-4548-856d-4923ddaba0dc","{""num_scrambled_semantic"":""8"",""num_scrambled_causal"":""4"",""num_scrambled_schematic"":""4"",""participantId"":""0194E19996A14812975767C4C7B9EA9E"",""assignmentId"":""7c910cca-a022-4748-9209-aac2ad663815"",""projectId"":""051c06f1-75cc-4548-856d-4923ddaba0dc""}","https://test12345.live/?num_scrambled_semantic=8&num_scrambled_causal=4&num_scrambled_schematic=4&participantId=0194E19996A14812975767C4C7B9EA9E&assignmentId=7c910cca-a022-4748-9209-aac2ad663815&projectId=051c06f1-75cc-4548-856d-4923ddaba0dc","0194E19996A14812975767C4C7B9EA9E-2025-05-15-21-16-57","","1478","","images/instructions/movie_3.png","0","",""
"","","","","","image-button-response","17","250406","0.0-6.0-1.0-2.2","0194E19996A14812975767C4C7B9EA9E","0194E19996A14812975767C4C7B9EA9E","7c910cca-a022-4748-9209-aac2ad663815","051c06f1-75cc-4548-856d-4923ddaba0dc","{""num_scrambled_semantic"":""8"",""num_scrambled_causal"":""4"",""num_scrambled_schematic"":""4"",""participantId"":""0194E19996A14812975767C4C7B9EA9E"",""assignmentId"":""7c910cca-a022-4748-9209-aac2ad663815"",""projectId"":""051c06f1-75cc-4548-856d-4923ddaba0dc""}","https://test12345.live/?num_scrambled_semantic=8&num_scrambled_causal=4&num_scrambled_schematic=4&participantId=0194E19996A14812975767C4C7B9EA9E&assignmentId=7c910cca-a022-4748-9209-aac2ad663815&projectId=051c06f1-75cc-4548-856d-4923ddaba0dc","0194E19996A14812975767C4C7B9EA9E-2025-05-15-21-16-57","","null","","[]","null","",""
"","","","","","image-button-response","18","254907","0.0-6.0-1.0-0.3","0194E19996A14812975767C4C7B9EA9E","0194E19996A14812975767C4C7B9EA9E","7c910cca-a022-4748-9209-aac2ad663815","051c06f1-75cc-4548-856d-4923ddaba0dc","{""num_scrambled_semantic"":""8"",""num_scrambled_causal"":""4"",""num_scrambled_schematic"":""4"",""participantId"":""0194E19996A14812975767C4C7B9EA9E"",""assignmentId"":""7c910cca-a022-4748-9209-aac2ad663815"",""projectId"":""051c06f1-75cc-4548-856d-4923ddaba0dc""}","https://test12345.live/?num_scrambled_semantic=8&num_scrambled_causal=4&num_scrambled_schematic=4&participantId=0194E19996A14812975767C4C7B9EA9E&assignmentId=7c910cca-a022-4748-9209-aac2ad663815&projectId=051c06f1-75cc-4548-856d-4923ddaba0dc","0194E19996A14812975767C4C7B9EA9E-2025-05-15-21-16-57","","null","","images/instructions/movie_4.png","null","",""
"","","","","","image-button-response","19","256486","0.0-6.0-1.0-1.3","0194E19996A14812975767C4C7B9EA9E","0194E19996A14812975767C4C7B9EA9E","7c910cca-a022-4748-9209-aac2ad663815","051c06f1-75cc-4548-856d-4923ddaba0dc","{""num_scrambled_semantic"":""8"",""num_scrambled_causal"":""4"",""num_scrambled_schematic"":""4"",""participantId"":""0194E19996A14812975767C4C7B9EA9E"",""assignmentId"":""7c910cca-a022-4748-9209-aac2ad663815"",""projectId"":""051c06f1-75cc-4548-856d-4923ddaba0dc""}","https://test12345.live/?num_scrambled_semantic=8&num_scrambled_causal=4&num_scrambled_schematic=4&participantId=0194E19996A14812975767C4C7B9EA9E&assignmentId=7c910cca-a022-4748-9209-aac2ad663815&projectId=051c06f1-75cc-4548-856d-4923ddaba0dc","0194E19996A14812975767C4C7B9EA9E-2025-05-15-21-16-57","","1576","","images/instructions/movie_4.png","0","",""
"","","","","","image-button-response","20","258288","0.0-6.0-1.0-2.3","0194E19996A14812975767C4C7B9EA9E","0194E19996A14812975767C4C7B9EA9E","7c910cca-a022-4748-9209-aac2ad663815","051c06f1-75cc-4548-856d-4923ddaba0dc","{""num_scrambled_semantic"":""8"",""num_scrambled_causal"":""4"",""num_scrambled_schematic"":""4"",""participantId"":""0194E19996A14812975767C4C7B9EA9E"",""assignmentId"":""7c910cca-a022-4748-9209-aac2ad663815"",""projectId"":""051c06f1-75cc-4548-856d-4923ddaba0dc""}","https://test12345.live/?num_scrambled_semantic=8&num_scrambled_causal=4&num_scrambled_schematic=4&participantId=0194E19996A14812975767C4C7B9EA9E&assignmentId=7c910cca-a022-4748-9209-aac2ad663815&projectId=051c06f1-75cc-4548-856d-4923ddaba0dc","0194E19996A14812975767C4C7B9EA9E-2025-05-15-21-16-57","","null","","[]","null","",""
"","","","","","instructions","21","268837","0.0-7.0","0194E19996A14812975767C4C7B9EA9E","0194E19996A14812975767C4C7B9EA9E","7c910cca-a022-4748-9209-aac2ad663815","051c06f1-75cc-4548-856d-4923ddaba0dc","{""num_scrambled_semantic"":""8"",""num_scrambled_causal"":""4"",""num_scrambled_schematic"":""4"",""participantId"":""0194E19996A14812975767C4C7B9EA9E"",""assignmentId"":""7c910cca-a022-4748-9209-aac2ad663815"",""projectId"":""051c06f1-75cc-4548-856d-4923ddaba0dc""}","https://test12345.live/?num_scrambled_semantic=8&num_scrambled_causal=4&num_scrambled_schematic=4&participantId=0194E19996A14812975767C4C7B9EA9E&assignmentId=7c910cca-a022-4748-9209-aac2ad663815&projectId=051c06f1-75cc-4548-856d-4923ddaba0dc","0194E19996A14812975767C4C7B9EA9E-2025-05-15-21-16-57","[{""page_index"":0,""viewing_time"":6848},{""page_index"":1,""viewing_time"":3700}]","10549","","","","",""
"","","","","","html-audio-response","22","304475","0.0-8.0","0194E19996A14812975767C4C7B9EA9E","0194E19996A14812975767C4C7B9EA9E","7c910cca-a022-4748-9209-aac2ad663815","051c06f1-75cc-4548-856d-4923ddaba0dc","{""num_scrambled_semantic"":""8"",""num_scrambled_causal"":""4"",""num_scrambled_schematic"":""4"",""participantId"":""0194E19996A14812975767C4C7B9EA9E"",""assignmentId"":""7c910cca-a022-4748-9209-aac2ad663815"",""projectId"":""051c06f1-75cc-4548-856d-4923ddaba0dc""}","https://test12345.live/?num_scrambled_semantic=8&num_scrambled_causal=4&num_scrambled_schematic=4&participantId=0194E19996A14812975767C4C7B9EA9E&assignmentId=7c910cca-a022-4748-9209-aac2ad663815&projectId=051c06f1-75cc-4548-856d-4923ddaba0dc","0194E19996A14812975767C4C7B9EA9E-2025-05-15-21-16-57","","16194","","[""<span style=\""color: red; font-size: 24px\""> NOW RECORDING</span><p>Please say out loud all the images you saw, as many as you can remember. The images can be said in any order.</p>""]","","1",""
"","","","","","instructions","23","306592","0.0-9.0","0194E19996A14812975767C4C7B9EA9E","0194E19996A14812975767C4C7B9EA9E","7c910cca-a022-4748-9209-aac2ad663815","051c06f1-75cc-4548-856d-4923ddaba0dc","{""num_scrambled_semantic"":""8"",""num_scrambled_causal"":""4"",""num_scrambled_schematic"":""4"",""participantId"":""0194E19996A14812975767C4C7B9EA9E"",""assignmentId"":""7c910cca-a022-4748-9209-aac2ad663815"",""projectId"":""051c06f1-75cc-4548-856d-4923ddaba0dc""}","https://test12345.live/?num_scrambled_semantic=8&num_scrambled_causal=4&num_scrambled_schematic=4&participantId=0194E19996A14812975767C4C7B9EA9E&assignmentId=7c910cca-a022-4748-9209-aac2ad663815&projectId=051c06f1-75cc-4548-856d-4923ddaba0dc","0194E19996A14812975767C4C7B9EA9E-2025-05-15-21-16-57","[{""page_index"":0,""viewing_time"":2107}]","2107","","","","",""
"","","","","","image-button-response","24","312598","0.0-10.0-0.0","0194E19996A14812975767C4C7B9EA9E","0194E19996A14812975767C4C7B9EA9E","7c910cca-a022-4748-9209-aac2ad663815","051c06f1-75cc-4548-856d-4923ddaba0dc","{""num_scrambled_semantic"":""8"",""num_scrambled_causal"":""4"",""num_scrambled_schematic"":""4"",""participantId"":""0194E19996A14812975767C4C7B9EA9E"",""assignmentId"":""7c910cca-a022-4748-9209-aac2ad663815"",""projectId"":""051c06f1-75cc-4548-856d-4923ddaba0dc""}","https://test12345.live/?num_scrambled_semantic=8&num_scrambled_causal=4&num_scrambled_schematic=4&participantId=0194E19996A14812975767C4C7B9EA9E&assignmentId=7c910cca-a022-4748-9209-aac2ad663815&projectId=051c06f1-75cc-4548-856d-4923ddaba0dc","0194E19996A14812975767C4C7B9EA9E-2025-05-15-21-16-57","","null","","images/semantic_sequence/creative_activities_semantic/creative_activities_semantic_0.png","null","",""
"","","","","","image-button-response","25","317103","0.0-10.0-1.0-0.0","0194E19996A14812975767C4C7B9EA9E","0194E19996A14812975767C4C7B9EA9E","7c910cca-a022-4748-9209-aac2ad663815","051c06f1-75cc-4548-856d-4923ddaba0dc","{""num_scrambled_semantic"":""8"",""num_scrambled_causal"":""4"",""num_scrambled_schematic"":""4"",""participantId"":""0194E19996A14812975767C4C7B9EA9E"",""assignmentId"":""7c910cca-a022-4748-9209-aac2ad663815"",""projectId"":""051c06f1-75cc-4548-856d-4923ddaba0dc""}","https://test12345.live/?num_scrambled_semantic=8&num_scrambled_causal=4&num_scrambled_schematic=4&participantId=0194E19996A14812975767C4C7B9EA9E&assignmentId=7c910cca-a022-4748-9209-aac2ad663815&projectId=051c06f1-75cc-4548-856d-4923ddaba0dc","0194E19996A14812975767C4C7B9EA9E-2025-05-15-21-16-57","","null","","images/semantic_sequence/creative_activities_semantic/creative_activities_semantic_9.png","null","",""
"","","","","","image-button-response","26","319226","0.0-10.0-1.0-1.0","0194E19996A14812975767C4C7B9EA9E","0194E19996A14812975767C4C7B9EA9E","7c910cca-a022-4748-9209-aac2ad663815","051c06f1-75cc-4548-856d-4923ddaba0dc","{""num_scrambled_semantic"":""8"",""num_scrambled_causal"":""4"",""num_scrambled_schematic"":""4"",""participantId"":""0194E19996A14812975767C4C7B9EA9E"",""assignmentId"":""7c910cca-a022-4748-9209-aac2ad663815"",""projectId"":""051c06f1-75cc-4548-856d-4923ddaba0dc""}","https://test12345.live/?num_scrambled_semantic=8&num_scrambled_causal=4&num_scrambled_schematic=4&participantId=0194E19996A14812975767C4C7B9EA9E&assignmentId=7c910cca-a022-4748-9209-aac2ad663815&projectId=051c06f1-75cc-4548-856d-4923ddaba0dc","0194E19996A14812975767C4C7B9EA9E-2025-05-15-21-16-57","","2121","","images/semantic_sequence/creative_activities_semantic/creative_activities_semantic_9.png","0","",""
"","","","","","image-button-response","27","321027","0.0-10.0-1.0-2.0","0194E19996A14812975767C4C7B9EA9E","0194E19996A14812975767C4C7B9EA9E","7c910cca-a022-4748-9209-aac2ad663815","051c06f1-75cc-4548-856d-4923ddaba0dc","{""num_scrambled_semantic"":""8"",""num_scrambled_causal"":""4"",""num_scrambled_schematic"":""4"",""participantId"":""0194E19996A14812975767C4C7B9EA9E"",""assignmentId"":""7c910cca-a022-4748-9209-aac2ad663815"",""projectId"":""051c06f1-75cc-4548-856d-4923ddaba0dc""}","https://test12345.live/?num_scrambled_semantic=8&num_scrambled_causal=4&num_scrambled_schematic=4&participantId=0194E19996A14812975767C4C7B9EA9E&assignmentId=7c910cca-a022-4748-9209-aac2ad663815&projectId=051c06f1-75cc-4548-856d-4923ddaba0dc","0194E19996A14812975767C4C7B9EA9E-2025-05-15-21-16-57","","null","","[]","null","",""
"","","","","","image-button-response","28","325530","0.0-10.0-1.0-0.1","0194E19996A14812975767C4C7B9EA9E","0194E19996A14812975767C4C7B9EA9E","7c910cca-a022-4748-9209-aac2ad663815","051c06f1-75cc-4548-856d-4923ddaba0dc","{""num_scrambled_semantic"":""8"",""num_scrambled_causal"":""4"",""num_scrambled_schematic"":""4"",""participantId"":""0194E19996A14812975767C4C7B9EA9E"",""assignmentId"":""7c910cca-a022-4748-9209-aac2ad663815"",""projectId"":""051c06f1-75cc-4548-856d-4923ddaba0dc""}","https://test12345.live/?num_scrambled_semantic=8&num_scrambled_causal=4&num_scrambled_schematic=4&participantId=0194E19996A14812975767C4C7B9EA9E&assignmentId=7c910cca-a022-4748-9209-aac2ad663815&projectId=051c06f1-75cc-4548-856d-4923ddaba0dc","0194E19996A14812975767C4C7B9EA9E-2025-05-15-21-16-57","","null","","images/semantic_sequence/creative_activities_semantic/creative_activities_semantic_7.png","null","",""
"","","","","","image-button-response","29","327027","0.0-10.0-1.0-1.1","0194E19996A14812975767C4C7B9EA9E","0194E19996A14812975767C4C7B9EA9E","7c910cca-a022-4748-9209-aac2ad663815","051c06f1-75cc-4548-856d-4923ddaba0dc","{""num_scrambled_semantic"":""8"",""num_scrambled_causal"":""4"",""num_scrambled_schematic"":""4"",""participantId"":""0194E19996A14812975767C4C7B9EA9E"",""assignmentId"":""7c910cca-a022-4748-9209-aac2ad663815"",""projectId"":""051c06f1-75cc-4548-856d-4923ddaba0dc""}","https://test12345.live/?num_scrambled_semantic=8&num_scrambled_causal=4&num_scrambled_schematic=4&participantId=0194E19996A14812975767C4C7B9EA9E&assignmentId=7c910cca-a022-4748-9209-aac2ad663815&projectId=051c06f1-75cc-4548-856d-4923ddaba0dc","0194E19996A14812975767C4C7B9EA9E-2025-05-15-21-16-57","","1494","","images/semantic_sequence/creative_activities_semantic/creative_activities_semantic_7.png","0","",""
"","","","","","image-button-response","30","328828","0.0-10.0-1.0-2.1","0194E19996A14812975767C4C7B9EA9E","0194E19996A14812975767C4C7B9EA9E","7c910cca-a022-4748-9209-aac2ad663815","051c06f1-75cc-4548-856d-4923ddaba0dc","{""num_scrambled_semantic"":""8"",""num_scrambled_causal"":""4"",""num_scrambled_schematic"":""4"",""participantId"":""0194E19996A14812975767C4C7B9EA9E"",""assignmentId"":""7c910cca-a022-4748-9209-aac2ad663815"",""projectId"":""051c06f1-75cc-4548-856d-4923ddaba0dc""}","https://test12345.live/?num_scrambled_semantic=8&num_scrambled_causal=4&num_scrambled_schematic=4&participantId=0194E19996A14812975767C4C7B9EA9E&assignmentId=7c910cca-a022-4748-9209-aac2ad663815&projectId=051c06f1-75cc-4548-856d-4923ddaba0dc","0194E19996A14812975767C4C7B9EA9E-2025-05-15-21-16-57","","null","","[]","null","",""
"","","","","","image-button-response","31","333331","0.0-10.0-1.0-0.2","0194E19996A14812975767C4C7B9EA9E","0194E19996A14812975767C4C7B9EA9E","7c910cca-a022-4748-9209-aac2ad663815","051c06f1-75cc-4548-856d-4923ddaba0dc","{""num_scrambled_semantic"":""8"",""num_scrambled_causal"":""4"",""num_scrambled_schematic"":""4"",""participantId"":""0194E19996A14812975767C4C7B9EA9E"",""assignmentId"":""7c910cca-a022-4748-9209-aac2ad663815"",""projectId"":""051c06f1-75cc-4548-856d-4923ddaba0dc""}","https://test12345.live/?num_scrambled_semantic=8&num_scrambled_causal=4&num_scrambled_schematic=4&participantId=0194E19996A14812975767C4C7B9EA9E&assignmentId=7c910cca-a022-4748-9209-aac2ad663815&projectId=051c06f1-75cc-4548-856d-4923ddaba0dc","0194E19996A14812975767C4C7B9EA9E-2025-05-15-21-16-57","","null","","images/semantic_sequence/creative_activities_semantic/creative_activities_semantic_3.png","null","",""
"","","","","","image-button-response","32","334579","0.0-10.0-1.0-1.2","0194E19996A14812975767C4C7B9EA9E","0194E19996A14812975767C4C7B9EA9E","7c910cca-a022-4748-9209-aac2ad663815","051c06f1-75cc-4548-856d-4923ddaba0dc","{""num_scrambled_semantic"":""8"",""num_scrambled_causal"":""4"",""num_scrambled_schematic"":""4"",""participantId"":""0194E19996A14812975767C4C7B9EA9E"",""assignmentId"":""7c910cca-a022-4748-9209-aac2ad663815"",""projectId"":""051c06f1-75cc-4548-856d-4923ddaba0dc""}","https://test12345.live/?num_scrambled_semantic=8&num_scrambled_causal=4&num_scrambled_schematic=4&participantId=0194E19996A14812975767C4C7B9EA9E&assignmentId=7c910cca-a022-4748-9209-aac2ad663815&projectId=051c06f1-75cc-4548-856d-4923ddaba0dc","0194E19996A14812975767C4C7B9EA9E-2025-05-15-21-16-57","","1247","","images/semantic_sequence/creative_activities_semantic/creative_activities_semantic_3.png","0","",""
"","","","","","image-button-response","33","336384","0.0-10.0-1.0-2.2","0194E19996A14812975767C4C7B9EA9E","0194E19996A14812975767C4C7B9EA9E","7c910cca-a022-4748-9209-aac2ad663815","051c06f1-75cc-4548-856d-4923ddaba0dc","{""num_scrambled_semantic"":""8"",""num_scrambled_causal"":""4"",""num_scrambled_schematic"":""4"",""participantId"":""0194E19996A14812975767C4C7B9EA9E"",""assignmentId"":""7c910cca-a022-4748-9209-aac2ad663815"",""projectId"":""051c06f1-75cc-4548-856d-4923ddaba0dc""}","https://test12345.live/?num_scrambled_semantic=8&num_scrambled_causal=4&num_scrambled_schematic=4&participantId=0194E19996A14812975767C4C7B9EA9E&assignmentId=7c910cca-a022-4748-9209-aac2ad663815&projectId=051c06f1-75cc-4548-856d-4923ddaba0dc","0194E19996A14812975767C4C7B9EA9E-2025-05-15-21-16-57","","null","","[]","null","",""
"","","","","","image-button-response","34","340889","0.0-10.0-1.0-0.3","0194E19996A14812975767C4C7B9EA9E","0194E19996A14812975767C4C7B9EA9E","7c910cca-a022-4748-9209-aac2ad663815","051c06f1-75cc-4548-856d-4923ddaba0dc","{""num_scrambled_semantic"":""8"",""num_scrambled_causal"":""4"",""num_scrambled_schematic"":""4"",""participantId"":""0194E19996A14812975767C4C7B9EA9E"",""assignmentId"":""7c910cca-a022-4748-9209-aac2ad663815"",""projectId"":""051c06f1-75cc-4548-856d-4923ddaba0dc""}","https://test12345.live/?num_scrambled_semantic=8&num_scrambled_causal=4&num_scrambled_schematic=4&participantId=0194E19996A14812975767C4C7B9EA9E&assignmentId=7c910cca-a022-4748-9209-aac2ad663815&projectId=051c06f1-75cc-4548-856d-4923ddaba0dc","0194E19996A14812975767C4C7B9EA9E-2025-05-15-21-16-57","","null","","images/semantic_sequence/creative_activities_semantic/creative_activities_semantic_2.png","null","",""
"","","","","","image-button-response","35","342396","0.0-10.0-1.0-1.3","0194E19996A14812975767C4C7B9EA9E","0194E19996A14812975767C4C7B9EA9E","7c910cca-a022-4748-9209-aac2ad663815","051c06f1-75cc-4548-856d-4923ddaba0dc","{""num_scrambled_semantic"":""8"",""num_scrambled_causal"":""4"",""num_scrambled_schematic"":""4"",""participantId"":""0194E19996A14812975767C4C7B9EA9E"",""assignmentId"":""7c910cca-a022-4748-9209-aac2ad663815"",""projectId"":""051c06f1-75cc-4548-856d-4923ddaba0dc""}","https://test12345.live/?num_scrambled_semantic=8&num_scrambled_causal=4&num_scrambled_schematic=4&participantId=0194E19996A14812975767C4C7B9EA9E&assignmentId=7c910cca-a022-4748-9209-aac2ad663815&projectId=051c06f1-75cc-4548-856d-4923ddaba0dc","0194E19996A14812975767C4C7B9EA9E-2025-05-15-21-16-57","","1506","","images/semantic_sequence/creative_activities_semantic/creative_activities_semantic_2.png","0","",""
"","","","","","image-button-response","36","344199","0.0-10.0-1.0-2.3","0194E19996A14812975767C4C7B9EA9E","0194E19996A14812975767C4C7B9EA9E","7c910cca-a022-4748-9209-aac2ad663815","051c06f1-75cc-4548-856d-4923ddaba0dc","{""num_scrambled_semantic"":""8"",""num_scrambled_causal"":""4"",""num_scrambled_schematic"":""4"",""participantId"":""0194E19996A14812975767C4C7B9EA9E"",""assignmentId"":""7c910cca-a022-4748-9209-aac2ad663815"",""projectId"":""051c06f1-75cc-4548-856d-4923ddaba0dc""}","https://test12345.live/?num_scrambled_semantic=8&num_scrambled_causal=4&num_scrambled_schematic=4&participantId=0194E19996A14812975767C4C7B9EA9E&assignmentId=7c910cca-a022-4748-9209-aac2ad663815&projectId=051c06f1-75cc-4548-856d-4923ddaba0dc","0194E19996A14812975767C4C7B9EA9E-2025-05-15-21-16-57","","null","","[]","null","",""
"","","","","","image-button-response","37","348705","0.0-10.0-1.0-0.4","0194E19996A14812975767C4C7B9EA9E","0194E19996A14812975767C4C7B9EA9E","7c910cca-a022-4748-9209-aac2ad663815","051c06f1-75cc-4548-856d-4923ddaba0dc","{""num_scrambled_semantic"":""8"",""num_scrambled_causal"":""4"",""num_scrambled_schematic"":""4"",""participantId"":""0194E19996A14812975767C4C7B9EA9E"",""assignmentId"":""7c910cca-a022-4748-9209-aac2ad663815"",""projectId"":""051c06f1-75cc-4548-856d-4923ddaba0dc""}","https://test12345.live/?num_scrambled_semantic=8&num_scrambled_causal=4&num_scrambled_schematic=4&participantId=0194E19996A14812975767C4C7B9EA9E&assignmentId=7c910cca-a022-4748-9209-aac2ad663815&projectId=051c06f1-75cc-4548-856d-4923ddaba0dc","0194E19996A14812975767C4C7B9EA9E-2025-05-15-21-16-57","","null","","images/semantic_sequence/creative_activities_semantic/creative_activities_semantic_4.png","null","",""
"","","","","","image-button-response","38","351163","0.0-10.0-1.0-1.4","0194E19996A14812975767C4C7B9EA9E","0194E19996A14812975767C4C7B9EA9E","7c910cca-a022-4748-9209-aac2ad663815","051c06f1-75cc-4548-856d-4923ddaba0dc","{""num_scrambled_semantic"":""8"",""num_scrambled_causal"":""4"",""num_scrambled_schematic"":""4"",""participantId"":""0194E19996A14812975767C4C7B9EA9E"",""assignmentId"":""7c910cca-a022-4748-9209-aac2ad663815"",""projectId"":""051c06f1-75cc-4548-856d-4923ddaba0dc""}","https://test12345.live/?num_scrambled_semantic=8&num_scrambled_causal=4&num_scrambled_schematic=4&participantId=0194E19996A14812975767C4C7B9EA9E&assignmentId=7c910cca-a022-4748-9209-aac2ad663815&projectId=051c06f1-75cc-4548-856d-4923ddaba0dc","0194E19996A14812975767C4C7B9EA9E-2025-05-15-21-16-57","","2457","","images/semantic_sequence/creative_activities_semantic/creative_activities_semantic_4.png","0","",""
"","","","","","image-button-response","39","352969","0.0-10.0-1.0-2.4","0194E19996A14812975767C4C7B9EA9E","0194E19996A14812975767C4C7B9EA9E","7c910cca-a022-4748-9209-aac2ad663815","051c06f1-75cc-4548-856d-4923ddaba0dc","{""num_scrambled_semantic"":""8"",""num_scrambled_causal"":""4"",""num_scrambled_schematic"":""4"",""participantId"":""0194E19996A14812975767C4C7B9EA9E"",""assignmentId"":""7c910cca-a022-4748-9209-aac2ad663815"",""projectId"":""051c06f1-75cc-4548-856d-4923ddaba0dc""}","https://test12345.live/?num_scrambled_semantic=8&num_scrambled_causal=4&num_scrambled_schematic=4&participantId=0194E19996A14812975767C4C7B9EA9E&assignmentId=7c910cca-a022-4748-9209-aac2ad663815&projectId=051c06f1-75cc-4548-856d-4923ddaba0dc","0194E19996A14812975767C4C7B9EA9E-2025-05-15-21-16-57","","null","","[]","null","",""
"","","","","","image-button-response","40","357475","0.0-10.0-1.0-0.5","0194E19996A14812975767C4C7B9EA9E","0194E19996A14812975767C4C7B9EA9E","7c910cca-a022-4748-9209-aac2ad663815","051c06f1-75cc-4548-856d-4923ddaba0dc","{""num_scrambled_semantic"":""8"",""num_scrambled_causal"":""4"",""num_scrambled_schematic"":""4"",""participantId"":""0194E19996A14812975767C4C7B9EA9E"",""assignmentId"":""7c910cca-a022-4748-9209-aac2ad663815"",""projectId"":""051c06f1-75cc-4548-856d-4923ddaba0dc""}","https://test12345.live/?num_scrambled_semantic=8&num_scrambled_causal=4&num_scrambled_schematic=4&participantId=0194E19996A14812975767C4C7B9EA9E&assignmentId=7c910cca-a022-4748-9209-aac2ad663815&projectId=051c06f1-75cc-4548-856d-4923ddaba0dc","0194E19996A14812975767C4C7B9EA9E-2025-05-15-21-16-57","","null","","images/semantic_sequence/creative_activities_semantic/creative_activities_semantic_8.png","null","",""
"","","","","","image-button-response","41","359162","0.0-10.0-1.0-1.5","0194E19996A14812975767C4C7B9EA9E","0194E19996A14812975767C4C7B9EA9E","7c910cca-a022-4748-9209-aac2ad663815","051c06f1-75cc-4548-856d-4923ddaba0dc","{""num_scrambled_semantic"":""8"",""num_scrambled_causal"":""4"",""num_scrambled_schematic"":""4"",""participantId"":""0194E19996A14812975767C4C7B9EA9E"",""assignmentId"":""7c910cca-a022-4748-9209-aac2ad663815"",""projectId"":""051c06f1-75cc-4548-856d-4923ddaba0dc""}","https://test12345.live/?num_scrambled_semantic=8&num_scrambled_causal=4&num_scrambled_schematic=4&participantId=0194E19996A14812975767C4C7B9EA9E&assignmentId=7c910cca-a022-4748-9209-aac2ad663815&projectId=051c06f1-75cc-4548-856d-4923ddaba0dc","0194E19996A14812975767C4C7B9EA9E-2025-05-15-21-16-57","","1686","","images/semantic_sequence/creative_activities_semantic/creative_activities_semantic_8.png","0","",""
"","","","","","image-button-response","42","360964","0.0-10.0-1.0-2.5","0194E19996A14812975767C4C7B9EA9E","0194E19996A14812975767C4C7B9EA9E","7c910cca-a022-4748-9209-aac2ad663815","051c06f1-75cc-4548-856d-4923ddaba0dc","{""num_scrambled_semantic"":""8"",""num_scrambled_causal"":""4"",""num_scrambled_schematic"":""4"",""participantId"":""0194E19996A14812975767C4C7B9EA9E"",""assignmentId"":""7c910cca-a022-4748-9209-aac2ad663815"",""projectId"":""051c06f1-75cc-4548-856d-4923ddaba0dc""}","https://test12345.live/?num_scrambled_semantic=8&num_scrambled_causal=4&num_scrambled_schematic=4&participantId=0194E19996A14812975767C4C7B9EA9E&assignmentId=7c910cca-a022-4748-9209-aac2ad663815&projectId=051c06f1-75cc-4548-856d-4923ddaba0dc","0194E19996A14812975767C4C7B9EA9E-2025-05-15-21-16-57","","null","","[]","null","",""
"","","","","","image-button-response","43","365469","0.0-10.0-1.0-0.6","0194E19996A14812975767C4C7B9EA9E","0194E19996A14812975767C4C7B9EA9E","7c910cca-a022-4748-9209-aac2ad663815","051c06f1-75cc-4548-856d-4923ddaba0dc","{""num_scrambled_semantic"":""8"",""num_scrambled_causal"":""4"",""num_scrambled_schematic"":""4"",""participantId"":""0194E19996A14812975767C4C7B9EA9E"",""assignmentId"":""7c910cca-a022-4748-9209-aac2ad663815"",""projectId"":""051c06f1-75cc-4548-856d-4923ddaba0dc""}","https://test12345.live/?num_scrambled_semantic=8&num_scrambled_causal=4&num_scrambled_schematic=4&participantId=0194E19996A14812975767C4C7B9EA9E&assignmentId=7c910cca-a022-4748-9209-aac2ad663815&projectId=051c06f1-75cc-4548-856d-4923ddaba0dc","0194E19996A14812975767C4C7B9EA9E-2025-05-15-21-16-57","","null","","images/semantic_sequence/creative_activities_semantic/creative_activities_semantic_ten.png","null","",""
"","","","","","image-button-response","44","366613","0.0-10.0-1.0-1.6","0194E19996A14812975767C4C7B9EA9E","0194E19996A14812975767C4C7B9EA9E","7c910cca-a022-4748-9209-aac2ad663815","051c06f1-75cc-4548-856d-4923ddaba0dc","{""num_scrambled_semantic"":""8"",""num_scrambled_causal"":""4"",""num_scrambled_schematic"":""4"",""participantId"":""0194E19996A14812975767C4C7B9EA9E"",""assignmentId"":""7c910cca-a022-4748-9209-aac2ad663815"",""projectId"":""051c06f1-75cc-4548-856d-4923ddaba0dc""}","https://test12345.live/?num_scrambled_semantic=8&num_scrambled_causal=4&num_scrambled_schematic=4&participantId=0194E19996A14812975767C4C7B9EA9E&assignmentId=7c910cca-a022-4748-9209-aac2ad663815&projectId=051c06f1-75cc-4548-856d-4923ddaba0dc","0194E19996A14812975767C4C7B9EA9E-2025-05-15-21-16-57","","1143","","images/semantic_sequence/creative_activities_semantic/creative_activities_semantic_ten.png","0","",""
"","","","","","image-button-response","45","368419","0.0-10.0-1.0-2.6","0194E19996A14812975767C4C7B9EA9E","0194E19996A14812975767C4C7B9EA9E","7c910cca-a022-4748-9209-aac2ad663815","051c06f1-75cc-4548-856d-4923ddaba0dc","{""num_scrambled_semantic"":""8"",""num_scrambled_causal"":""4"",""num_scrambled_schematic"":""4"",""participantId"":""0194E19996A14812975767C4C7B9EA9E"",""assignmentId"":""7c910cca-a022-4748-9209-aac2ad663815"",""projectId"":""051c06f1-75cc-4548-856d-4923ddaba0dc""}","https://test12345.live/?num_scrambled_semantic=8&num_scrambled_causal=4&num_scrambled_schematic=4&participantId=0194E19996A14812975767C4C7B9EA9E&assignmentId=7c910cca-a022-4748-9209-aac2ad663815&projectId=051c06f1-75cc-4548-856d-4923ddaba0dc","0194E19996A14812975767C4C7B9EA9E-2025-05-15-21-16-57","","null","","[]","null","",""
"","","","","","image-button-response","46","372925","0.0-10.0-1.0-0.7","0194E19996A14812975767C4C7B9EA9E","0194E19996A14812975767C4C7B9EA9E","7c910cca-a022-4748-9209-aac2ad663815","051c06f1-75cc-4548-856d-4923ddaba0dc","{""num_scrambled_semantic"":""8"",""num_scrambled_causal"":""4"",""num_scrambled_schematic"":""4"",""participantId"":""0194E19996A14812975767C4C7B9EA9E"",""assignmentId"":""7c910cca-a022-4748-9209-aac2ad663815"",""projectId"":""051c06f1-75cc-4548-856d-4923ddaba0dc""}","https://test12345.live/?num_scrambled_semantic=8&num_scrambled_causal=4&num_scrambled_schematic=4&participantId=0194E19996A14812975767C4C7B9EA9E&assignmentId=7c910cca-a022-4748-9209-aac2ad663815&projectId=051c06f1-75cc-4548-856d-4923ddaba0dc","0194E19996A14812975767C4C7B9EA9E-2025-05-15-21-16-57","","null","","images/semantic_sequence/creative_activities_semantic/creative_activities_semantic_5.png","null","",""
"","","","","","image-button-response","47","374332","0.0-10.0-1.0-1.7","0194E19996A14812975767C4C7B9EA9E","0194E19996A14812975767C4C7B9EA9E","7c910cca-a022-4748-9209-aac2ad663815","051c06f1-75cc-4548-856d-4923ddaba0dc","{""num_scrambled_semantic"":""8"",""num_scrambled_causal"":""4"",""num_scrambled_schematic"":""4"",""participantId"":""0194E19996A14812975767C4C7B9EA9E"",""assignmentId"":""7c910cca-a022-4748-9209-aac2ad663815"",""projectId"":""051c06f1-75cc-4548-856d-4923ddaba0dc""}","https://test12345.live/?num_scrambled_semantic=8&num_scrambled_causal=4&num_scrambled_schematic=4&participantId=0194E19996A14812975767C4C7B9EA9E&assignmentId=7c910cca-a022-4748-9209-aac2ad663815&projectId=051c06f1-75cc-4548-856d-4923ddaba0dc","0194E19996A14812975767C4C7B9EA9E-2025-05-15-21-16-57","","1405","","images/semantic_sequence/creative_activities_semantic/creative_activities_semantic_5.png","0","",""
"","","","","","image-button-response","48","376136","0.0-10.0-1.0-2.7","0194E19996A14812975767C4C7B9EA9E","0194E19996A14812975767C4C7B9EA9E","7c910cca-a022-4748-9209-aac2ad663815","051c06f1-75cc-4548-856d-4923ddaba0dc","{""num_scrambled_semantic"":""8"",""num_scrambled_causal"":""4"",""num_scrambled_schematic"":""4"",""participantId"":""0194E19996A14812975767C4C7B9EA9E"",""assignmentId"":""7c910cca-a022-4748-9209-aac2ad663815"",""projectId"":""051c06f1-75cc-4548-856d-4923ddaba0dc""}","https://test12345.live/?num_scrambled_semantic=8&num_scrambled_causal=4&num_scrambled_schematic=4&participantId=0194E19996A14812975767C4C7B9EA9E&assignmentId=7c910cca-a022-4748-9209-aac2ad663815&projectId=051c06f1-75cc-4548-856d-4923ddaba0dc","0194E19996A14812975767C4C7B9EA9E-2025-05-15-21-16-57","","null","","[]","null","",""
"","","","","","image-button-response","49","380640","0.0-10.0-1.0-0.8","0194E19996A14812975767C4C7B9EA9E","0194E19996A14812975767C4C7B9EA9E","7c910cca-a022-4748-9209-aac2ad663815","051c06f1-75cc-4548-856d-4923ddaba0dc","{""num_scrambled_semantic"":""8"",""num_scrambled_causal"":""4"",""num_scrambled_schematic"":""4"",""participantId"":""0194E19996A14812975767C4C7B9EA9E"",""assignmentId"":""7c910cca-a022-4748-9209-aac2ad663815"",""projectId"":""051c06f1-75cc-4548-856d-4923ddaba0dc""}","https://test12345.live/?num_scrambled_semantic=8&num_scrambled_causal=4&num_scrambled_schematic=4&participantId=0194E19996A14812975767C4C7B9EA9E&assignmentId=7c910cca-a022-4748-9209-aac2ad663815&projectId=051c06f1-75cc-4548-856d-4923ddaba0dc","0194E19996A14812975767C4C7B9EA9E-2025-05-15-21-16-57","","null","","images/semantic_sequence/creative_activities_semantic/creative_activities_semantic_6.png","null","",""
"","","","","","image-button-response","50","383167","0.0-10.0-1.0-1.8","0194E19996A14812975767C4C7B9EA9E","0194E19996A14812975767C4C7B9EA9E","7c910cca-a022-4748-9209-aac2ad663815","051c06f1-75cc-4548-856d-4923ddaba0dc","{""num_scrambled_semantic"":""8"",""num_scrambled_causal"":""4"",""num_scrambled_schematic"":""4"",""participantId"":""0194E19996A14812975767C4C7B9EA9E"",""assignmentId"":""7c910cca-a022-4748-9209-aac2ad663815"",""projectId"":""051c06f1-75cc-4548-856d-4923ddaba0dc""}","https://test12345.live/?num_scrambled_semantic=8&num_scrambled_causal=4&num_scrambled_schematic=4&participantId=0194E19996A14812975767C4C7B9EA9E&assignmentId=7c910cca-a022-4748-9209-aac2ad663815&projectId=051c06f1-75cc-4548-856d-4923ddaba0dc","0194E19996A14812975767C4C7B9EA9E-2025-05-15-21-16-57","","2525","","images/semantic_sequence/creative_activities_semantic/creative_activities_semantic_6.png","0","",""
"","","","","","image-button-response","51","384970","0.0-10.0-1.0-2.8","0194E19996A14812975767C4C7B9EA9E","0194E19996A14812975767C4C7B9EA9E","7c910cca-a022-4748-9209-aac2ad663815","051c06f1-75cc-4548-856d-4923ddaba0dc","{""num_scrambled_semantic"":""8"",""num_scrambled_causal"":""4"",""num_scrambled_schematic"":""4"",""participantId"":""0194E19996A14812975767C4C7B9EA9E"",""assignmentId"":""7c910cca-a022-4748-9209-aac2ad663815"",""projectId"":""051c06f1-75cc-4548-856d-4923ddaba0dc""}","https://test12345.live/?num_scrambled_semantic=8&num_scrambled_causal=4&num_scrambled_schematic=4&participantId=0194E19996A14812975767C4C7B9EA9E&assignmentId=7c910cca-a022-4748-9209-aac2ad663815&projectId=051c06f1-75cc-4548-856d-4923ddaba0dc","0194E19996A14812975767C4C7B9EA9E-2025-05-15-21-16-57","","null","","[]","null","",""
"","","","","","image-button-response","52","389476","0.0-10.0-1.0-0.9","0194E19996A14812975767C4C7B9EA9E","0194E19996A14812975767C4C7B9EA9E","7c910cca-a022-4748-9209-aac2ad663815","051c06f1-75cc-4548-856d-4923ddaba0dc","{""num_scrambled_semantic"":""8"",""num_scrambled_causal"":""4"",""num_scrambled_schematic"":""4"",""participantId"":""0194E19996A14812975767C4C7B9EA9E"",""assignmentId"":""7c910cca-a022-4748-9209-aac2ad663815"",""projectId"":""051c06f1-75cc-4548-856d-4923ddaba0dc""}","https://test12345.live/?num_scrambled_semantic=8&num_scrambled_causal=4&num_scrambled_schematic=4&participantId=0194E19996A14812975767C4C7B9EA9E&assignmentId=7c910cca-a022-4748-9209-aac2ad663815&projectId=051c06f1-75cc-4548-856d-4923ddaba0dc","0194E19996A14812975767C4C7B9EA9E-2025-05-15-21-16-57","","null","","images/semantic_sequence/creative_activities_semantic/creative_activities_semantic_1.png","null","",""
"","","","","","image-button-response","53","391084","0.0-10.0-1.0-1.9","0194E19996A14812975767C4C7B9EA9E","0194E19996A14812975767C4C7B9EA9E","7c910cca-a022-4748-9209-aac2ad663815","051c06f1-75cc-4548-856d-4923ddaba0dc","{""num_scrambled_semantic"":""8"",""num_scrambled_causal"":""4"",""num_scrambled_schematic"":""4"",""participantId"":""0194E19996A14812975767C4C7B9EA9E"",""assignmentId"":""7c910cca-a022-4748-9209-aac2ad663815"",""projectId"":""051c06f1-75cc-4548-856d-4923ddaba0dc""}","https://test12345.live/?num_scrambled_semantic=8&num_scrambled_causal=4&num_scrambled_schematic=4&participantId=0194E19996A14812975767C4C7B9EA9E&assignmentId=7c910cca-a022-4748-9209-aac2ad663815&projectId=051c06f1-75cc-4548-856d-4923ddaba0dc","0194E19996A14812975767C4C7B9EA9E-2025-05-15-21-16-57","","1606","","images/semantic_sequence/creative_activities_semantic/creative_activities_semantic_1.png","0","",""
"","","","","","image-button-response","54","392890","0.0-10.0-1.0-2.9","0194E19996A14812975767C4C7B9EA9E","0194E19996A14812975767C4C7B9EA9E","7c910cca-a022-4748-9209-aac2ad663815","051c06f1-75cc-4548-856d-4923ddaba0dc","{""num_scrambled_semantic"":""8"",""num_scrambled_causal"":""4"",""num_scrambled_schematic"":""4"",""participantId"":""0194E19996A14812975767C4C7B9EA9E"",""assignmentId"":""7c910cca-a022-4748-9209-aac2ad663815"",""projectId"":""051c06f1-75cc-4548-856d-4923ddaba0dc""}","https://test12345.live/?num_scrambled_semantic=8&num_scrambled_causal=4&num_scrambled_schematic=4&participantId=0194E19996A14812975767C4C7B9EA9E&assignmentId=7c910cca-a022-4748-9209-aac2ad663815&projectId=051c06f1-75cc-4548-856d-4923ddaba0dc","0194E19996A14812975767C4C7B9EA9E-2025-05-15-21-16-57","","null","","[]","null","",""
"","","","","","html-audio-response","55","412036","0.0-11.0","0194E19996A14812975767C4C7B9EA9E","0194E19996A14812975767C4C7B9EA9E","7c910cca-a022-4748-9209-aac2ad663815","051c06f1-75cc-4548-856d-4923ddaba0dc","{""num_scrambled_semantic"":""8"",""num_scrambled_causal"":""4"",""num_scrambled_schematic"":""4"",""participantId"":""0194E19996A14812975767C4C7B9EA9E"",""assignmentId"":""7c910cca-a022-4748-9209-aac2ad663815"",""projectId"":""051c06f1-75cc-4548-856d-4923ddaba0dc""}","https://test12345.live/?num_scrambled_semantic=8&num_scrambled_causal=4&num_scrambled_schematic=4&participantId=0194E19996A14812975767C4C7B9EA9E&assignmentId=7c910cca-a022-4748-9209-aac2ad663815&projectId=051c06f1-75cc-4548-856d-4923ddaba0dc","0194E19996A14812975767C4C7B9EA9E-2025-05-15-21-16-57","","17436","","[""<span style=\""color: red; font-size: 24px\""> NOW RECORDING</span><p>Please say out loud all the images you saw, as many as you can remember. The images can be said in any order.</p>""]","","2","creative_activities_semantic"
"","","","","","image-button-response","56","418047","0.0-12.0-0.0","0194E19996A14812975767C4C7B9EA9E","0194E19996A14812975767C4C7B9EA9E","7c910cca-a022-4748-9209-aac2ad663815","051c06f1-75cc-4548-856d-4923ddaba0dc","{""num_scrambled_semantic"":""8"",""num_scrambled_causal"":""4"",""num_scrambled_schematic"":""4"",""participantId"":""0194E19996A14812975767C4C7B9EA9E"",""assignmentId"":""7c910cca-a022-4748-9209-aac2ad663815"",""projectId"":""051c06f1-75cc-4548-856d-4923ddaba0dc""}","https://test12345.live/?num_scrambled_semantic=8&num_scrambled_causal=4&num_scrambled_schematic=4&participantId=0194E19996A14812975767C4C7B9EA9E&assignmentId=7c910cca-a022-4748-9209-aac2ad663815&projectId=051c06f1-75cc-4548-856d-4923ddaba0dc","0194E19996A14812975767C4C7B9EA9E-2025-05-15-21-16-57","","null","","images/causal_sequence/dog_causal/dog_causal_0.png","null","",""
"","","","","","image-button-response","57","422552","0.0-12.0-1.0-0.0","0194E19996A14812975767C4C7B9EA9E","0194E19996A14812975767C4C7B9EA9E","7c910cca-a022-4748-9209-aac2ad663815","051c06f1-75cc-4548-856d-4923ddaba0dc","{""num_scrambled_semantic"":""8"",""num_scrambled_causal"":""4"",""num_scrambled_schematic"":""4"",""participantId"":""0194E19996A14812975767C4C7B9EA9E"",""assignmentId"":""7c910cca-a022-4748-9209-aac2ad663815"",""projectId"":""051c06f1-75cc-4548-856d-4923ddaba0dc""}","https://test12345.live/?num_scrambled_semantic=8&num_scrambled_causal=4&num_scrambled_schematic=4&participantId=0194E19996A14812975767C4C7B9EA9E&assignmentId=7c910cca-a022-4748-9209-aac2ad663815&projectId=051c06f1-75cc-4548-856d-4923ddaba0dc","0194E19996A14812975767C4C7B9EA9E-2025-05-15-21-16-57","","null","","images/causal_sequence/dog_causal/dog_causal_ten.png","null","",""
"","","","","","image-button-response","58","424755","0.0-12.0-1.0-1.0","0194E19996A14812975767C4C7B9EA9E","0194E19996A14812975767C4C7B9EA9E","7c910cca-a022-4748-9209-aac2ad663815","051c06f1-75cc-4548-856d-4923ddaba0dc","{""num_scrambled_semantic"":""8"",""num_scrambled_causal"":""4"",""num_scrambled_schematic"":""4"",""participantId"":""0194E19996A14812975767C4C7B9EA9E"",""assignmentId"":""7c910cca-a022-4748-9209-aac2ad663815"",""projectId"":""051c06f1-75cc-4548-856d-4923ddaba0dc""}","https://test12345.live/?num_scrambled_semantic=8&num_scrambled_causal=4&num_scrambled_schematic=4&participantId=0194E19996A14812975767C4C7B9EA9E&assignmentId=7c910cca-a022-4748-9209-aac2ad663815&projectId=051c06f1-75cc-4548-856d-4923ddaba0dc","0194E19996A14812975767C4C7B9EA9E-2025-05-15-21-16-57","","2201","","images/causal_sequence/dog_causal/dog_causal_ten.png","0","",""
"","","","","","image-button-response","59","426561","0.0-12.0-1.0-2.0","0194E19996A14812975767C4C7B9EA9E","0194E19996A14812975767C4C7B9EA9E","7c910cca-a022-4748-9209-aac2ad663815","051c06f1-75cc-4548-856d-4923ddaba0dc","{""num_scrambled_semantic"":""8"",""num_scrambled_causal"":""4"",""num_scrambled_schematic"":""4"",""participantId"":""0194E19996A14812975767C4C7B9EA9E"",""assignmentId"":""7c910cca-a022-4748-9209-aac2ad663815"",""projectId"":""051c06f1-75cc-4548-856d-4923ddaba0dc""}","https://test12345.live/?num_scrambled_semantic=8&num_scrambled_causal=4&num_scrambled_schematic=4&participantId=0194E19996A14812975767C4C7B9EA9E&assignmentId=7c910cca-a022-4748-9209-aac2ad663815&projectId=051c06f1-75cc-4548-856d-4923ddaba0dc","0194E19996A14812975767C4C7B9EA9E-2025-05-15-21-16-57","","null","","[]","null","",""
"","","","","","image-button-response","60","431067","0.0-12.0-1.0-0.1","0194E19996A14812975767C4C7B9EA9E","0194E19996A14812975767C4C7B9EA9E","7c910cca-a022-4748-9209-aac2ad663815","051c06f1-75cc-4548-856d-4923ddaba0dc","{""num_scrambled_semantic"":""8"",""num_scrambled_causal"":""4"",""num_scrambled_schematic"":""4"",""participantId"":""0194E19996A14812975767C4C7B9EA9E"",""assignmentId"":""7c910cca-a022-4748-9209-aac2ad663815"",""projectId"":""051c06f1-75cc-4548-856d-4923ddaba0dc""}","https://test12345.live/?num_scrambled_semantic=8&num_scrambled_causal=4&num_scrambled_schematic=4&participantId=0194E19996A14812975767C4C7B9EA9E&assignmentId=7c910cca-a022-4748-9209-aac2ad663815&projectId=051c06f1-75cc-4548-856d-4923ddaba0dc","0194E19996A14812975767C4C7B9EA9E-2025-05-15-21-16-57","","null","","images/causal_sequence/dog_causal/dog_causal_6.png","null","",""
"","","","","","image-button-response","61","433005","0.0-12.0-1.0-1.1","0194E19996A14812975767C4C7B9EA9E","0194E19996A14812975767C4C7B9EA9E","7c910cca-a022-4748-9209-aac2ad663815","051c06f1-75cc-4548-856d-4923ddaba0dc","{""num_scrambled_semantic"":""8"",""num_scrambled_causal"":""4"",""num_scrambled_schematic"":""4"",""participantId"":""0194E19996A14812975767C4C7B9EA9E"",""assignmentId"":""7c910cca-a022-4748-9209-aac2ad663815"",""projectId"":""051c06f1-75cc-4548-856d-4923ddaba0dc""}","https://test12345.live/?num_scrambled_semantic=8&num_scrambled_causal=4&num_scrambled_schematic=4&participantId=0194E19996A14812975767C4C7B9EA9E&assignmentId=7c910cca-a022-4748-9209-aac2ad663815&projectId=051c06f1-75cc-4548-856d-4923ddaba0dc","0194E19996A14812975767C4C7B9EA9E-2025-05-15-21-16-57","","1937","","images/causal_sequence/dog_causal/dog_causal_6.png","0","",""
"","","","","","image-button-response","62","434811","0.0-12.0-1.0-2.1","0194E19996A14812975767C4C7B9EA9E","0194E19996A14812975767C4C7B9EA9E","7c910cca-a022-4748-9209-aac2ad663815","051c06f1-75cc-4548-856d-4923ddaba0dc","{""num_scrambled_semantic"":""8"",""num_scrambled_causal"":""4"",""num_scrambled_schematic"":""4"",""participantId"":""0194E19996A14812975767C4C7B9EA9E"",""assignmentId"":""7c910cca-a022-4748-9209-aac2ad663815"",""projectId"":""051c06f1-75cc-4548-856d-4923ddaba0dc""}","https://test12345.live/?num_scrambled_semantic=8&num_scrambled_causal=4&num_scrambled_schematic=4&participantId=0194E19996A14812975767C4C7B9EA9E&assignmentId=7c910cca-a022-4748-9209-aac2ad663815&projectId=051c06f1-75cc-4548-856d-4923ddaba0dc","0194E19996A14812975767C4C7B9EA9E-2025-05-15-21-16-57","","null","","[]","null","",""
"","","","","","image-button-response","63","439317","0.0-12.0-1.0-0.2","0194E19996A14812975767C4C7B9EA9E","0194E19996A14812975767C4C7B9EA9E","7c910cca-a022-4748-9209-aac2ad663815","051c06f1-75cc-4548-856d-4923ddaba0dc","{""num_scrambled_semantic"":""8"",""num_scrambled_causal"":""4"",""num_scrambled_schematic"":""4"",""participantId"":""0194E19996A14812975767C4C7B9EA9E"",""assignmentId"":""7c910cca-a022-4748-9209-aac2ad663815"",""projectId"":""051c06f1-75cc-4548-856d-4923ddaba0dc""}","https://test12345.live/?num_scrambled_semantic=8&num_scrambled_causal=4&num_scrambled_schematic=4&participantId=0194E19996A14812975767C4C7B9EA9E&assignmentId=7c910cca-a022-4748-9209-aac2ad663815&projectId=051c06f1-75cc-4548-856d-4923ddaba0dc","0194E19996A14812975767C4C7B9EA9E-2025-05-15-21-16-57","","null","","images/causal_sequence/dog_causal/dog_causal_8.png","null","",""
"","","","","","image-button-response","64","443322","0.0-12.0-1.0-1.2","0194E19996A14812975767C4C7B9EA9E","0194E19996A14812975767C4C7B9EA9E","7c910cca-a022-4748-9209-aac2ad663815","051c06f1-75cc-4548-856d-4923ddaba0dc","{""num_scrambled_semantic"":""8"",""num_scrambled_causal"":""4"",""num_scrambled_schematic"":""4"",""participantId"":""0194E19996A14812975767C4C7B9EA9E"",""assignmentId"":""7c910cca-a022-4748-9209-aac2ad663815"",""projectId"":""051c06f1-75cc-4548-856d-4923ddaba0dc""}","https://test12345.live/?num_scrambled_semantic=8&num_scrambled_causal=4&num_scrambled_schematic=4&participantId=0194E19996A14812975767C4C7B9EA9E&assignmentId=7c910cca-a022-4748-9209-aac2ad663815&projectId=051c06f1-75cc-4548-856d-4923ddaba0dc","0194E19996A14812975767C4C7B9EA9E-2025-05-15-21-16-57","","null","","images/causal_sequence/dog_causal/dog_causal_8.png","null","",""
"","","","","","image-button-response","65","445127","0.0-12.0-1.0-2.2","0194E19996A14812975767C4C7B9EA9E","0194E19996A14812975767C4C7B9EA9E","7c910cca-a022-4748-9209-aac2ad663815","051c06f1-75cc-4548-856d-4923ddaba0dc","{""num_scrambled_semantic"":""8"",""num_scrambled_causal"":""4"",""num_scrambled_schematic"":""4"",""participantId"":""0194E19996A14812975767C4C7B9EA9E"",""assignmentId"":""7c910cca-a022-4748-9209-aac2ad663815"",""projectId"":""051c06f1-75cc-4548-856d-4923ddaba0dc""}","https://test12345.live/?num_scrambled_semantic=8&num_scrambled_causal=4&num_scrambled_schematic=4&participantId=0194E19996A14812975767C4C7B9EA9E&assignmentId=7c910cca-a022-4748-9209-aac2ad663815&projectId=051c06f1-75cc-4548-856d-4923ddaba0dc","0194E19996A14812975767C4C7B9EA9E-2025-05-15-21-16-57","","null","","[]","null","",""
"","","","","","image-button-response","66","449632","0.0-12.0-1.0-0.3","0194E19996A14812975767C4C7B9EA9E","0194E19996A14812975767C4C7B9EA9E","7c910cca-a022-4748-9209-aac2ad663815","051c06f1-75cc-4548-856d-4923ddaba0dc","{""num_scrambled_semantic"":""8"",""num_scrambled_causal"":""4"",""num_scrambled_schematic"":""4"",""participantId"":""0194E19996A14812975767C4C7B9EA9E"",""assignmentId"":""7c910cca-a022-4748-9209-aac2ad663815"",""projectId"":""051c06f1-75cc-4548-856d-4923ddaba0dc""}","https://test12345.live/?num_scrambled_semantic=8&num_scrambled_causal=4&num_scrambled_schematic=4&participantId=0194E19996A14812975767C4C7B9EA9E&assignmentId=7c910cca-a022-4748-9209-aac2ad663815&projectId=051c06f1-75cc-4548-856d-4923ddaba0dc","0194E19996A14812975767C4C7B9EA9E-2025-05-15-21-16-57","","null","","images/causal_sequence/dog_causal/dog_causal_3.png","null","",""
"","","","","","image-button-response","67","450556","0.0-12.0-1.0-1.3","0194E19996A14812975767C4C7B9EA9E","0194E19996A14812975767C4C7B9EA9E","7c910cca-a022-4748-9209-aac2ad663815","051c06f1-75cc-4548-856d-4923ddaba0dc","{""num_scrambled_semantic"":""8"",""num_scrambled_causal"":""4"",""num_scrambled_schematic"":""4"",""participantId"":""0194E19996A14812975767C4C7B9EA9E"",""assignmentId"":""7c910cca-a022-4748-9209-aac2ad663815"",""projectId"":""051c06f1-75cc-4548-856d-4923ddaba0dc""}","https://test12345.live/?num_scrambled_semantic=8&num_scrambled_causal=4&num_scrambled_schematic=4&participantId=0194E19996A14812975767C4C7B9EA9E&assignmentId=7c910cca-a022-4748-9209-aac2ad663815&projectId=051c06f1-75cc-4548-856d-4923ddaba0dc","0194E19996A14812975767C4C7B9EA9E-2025-05-15-21-16-57","","922","","images/causal_sequence/dog_causal/dog_causal_3.png","0","",""
"","","","","","image-button-response","68","452362","0.0-12.0-1.0-2.3","0194E19996A14812975767C4C7B9EA9E","0194E19996A14812975767C4C7B9EA9E","7c910cca-a022-4748-9209-aac2ad663815","051c06f1-75cc-4548-856d-4923ddaba0dc","{""num_scrambled_semantic"":""8"",""num_scrambled_causal"":""4"",""num_scrambled_schematic"":""4"",""participantId"":""0194E19996A14812975767C4C7B9EA9E"",""assignmentId"":""7c910cca-a022-4748-9209-aac2ad663815"",""projectId"":""051c06f1-75cc-4548-856d-4923ddaba0dc""}","https://test12345.live/?num_scrambled_semantic=8&num_scrambled_causal=4&num_scrambled_schematic=4&participantId=0194E19996A14812975767C4C7B9EA9E&assignmentId=7c910cca-a022-4748-9209-aac2ad663815&projectId=051c06f1-75cc-4548-856d-4923ddaba0dc","0194E19996A14812975767C4C7B9EA9E-2025-05-15-21-16-57","","null","","[]","null","",""
"","","","","","image-button-response","69","456868","0.0-12.0-1.0-0.4","0194E19996A14812975767C4C7B9EA9E","0194E19996A14812975767C4C7B9EA9E","7c910cca-a022-4748-9209-aac2ad663815","051c06f1-75cc-4548-856d-4923ddaba0dc","{""num_scrambled_semantic"":""8"",""num_scrambled_causal"":""4"",""num_scrambled_schematic"":""4"",""participantId"":""0194E19996A14812975767C4C7B9EA9E"",""assignmentId"":""7c910cca-a022-4748-9209-aac2ad663815"",""projectId"":""051c06f1-75cc-4548-856d-4923ddaba0dc""}","https://test12345.live/?num_scrambled_semantic=8&num_scrambled_causal=4&num_scrambled_schematic=4&participantId=0194E19996A14812975767C4C7B9EA9E&assignmentId=7c910cca-a022-4748-9209-aac2ad663815&projectId=051c06f1-75cc-4548-856d-4923ddaba0dc","0194E19996A14812975767C4C7B9EA9E-2025-05-15-21-16-57","","null","","images/causal_sequence/dog_causal/dog_causal_1.png","null","",""
"","","","","","image-button-response","70","458941","0.0-12.0-1.0-1.4","0194E19996A14812975767C4C7B9EA9E","0194E19996A14812975767C4C7B9EA9E","7c910cca-a022-4748-9209-aac2ad663815","051c06f1-75cc-4548-856d-4923ddaba0dc","{""num_scrambled_semantic"":""8"",""num_scrambled_causal"":""4"",""num_scrambled_schematic"":""4"",""participantId"":""0194E19996A14812975767C4C7B9EA9E"",""assignmentId"":""7c910cca-a022-4748-9209-aac2ad663815"",""projectId"":""051c06f1-75cc-4548-856d-4923ddaba0dc""}","https://test12345.live/?num_scrambled_semantic=8&num_scrambled_causal=4&num_scrambled_schematic=4&participantId=0194E19996A14812975767C4C7B9EA9E&assignmentId=7c910cca-a022-4748-9209-aac2ad663815&projectId=051c06f1-75cc-4548-856d-4923ddaba0dc","0194E19996A14812975767C4C7B9EA9E-2025-05-15-21-16-57","","2071","","images/causal_sequence/dog_causal/dog_causal_1.png","0","",""
"","","","","","image-button-response","71","460748","0.0-12.0-1.0-2.4","0194E19996A14812975767C4C7B9EA9E","0194E19996A14812975767C4C7B9EA9E","7c910cca-a022-4748-9209-aac2ad663815","051c06f1-75cc-4548-856d-4923ddaba0dc","{""num_scrambled_semantic"":""8"",""num_scrambled_causal"":""4"",""num_scrambled_schematic"":""4"",""participantId"":""0194E19996A14812975767C4C7B9EA9E"",""assignmentId"":""7c910cca-a022-4748-9209-aac2ad663815"",""projectId"":""051c06f1-75cc-4548-856d-4923ddaba0dc""}","https://test12345.live/?num_scrambled_semantic=8&num_scrambled_causal=4&num_scrambled_schematic=4&participantId=0194E19996A14812975767C4C7B9EA9E&assignmentId=7c910cca-a022-4748-9209-aac2ad663815&projectId=051c06f1-75cc-4548-856d-4923ddaba0dc","0194E19996A14812975767C4C7B9EA9E-2025-05-15-21-16-57","","null","","[]","null","",""
"","","","","","image-button-response","72","465253","0.0-12.0-1.0-0.5","0194E19996A14812975767C4C7B9EA9E","0194E19996A14812975767C4C7B9EA9E","7c910cca-a022-4748-9209-aac2ad663815","051c06f1-75cc-4548-856d-4923ddaba0dc","{""num_scrambled_semantic"":""8"",""num_scrambled_causal"":""4"",""num_scrambled_schematic"":""4"",""participantId"":""0194E19996A14812975767C4C7B9EA9E"",""assignmentId"":""7c910cca-a022-4748-9209-aac2ad663815"",""projectId"":""051c06f1-75cc-4548-856d-4923ddaba0dc""}","https://test12345.live/?num_scrambled_semantic=8&num_scrambled_causal=4&num_scrambled_schematic=4&participantId=0194E19996A14812975767C4C7B9EA9E&assignmentId=7c910cca-a022-4748-9209-aac2ad663815&projectId=051c06f1-75cc-4548-856d-4923ddaba0dc","0194E19996A14812975767C4C7B9EA9E-2025-05-15-21-16-57","","null","","images/causal_sequence/dog_causal/dog_causal_2.png","null","",""
"","","","","","image-button-response","73","466224","0.0-12.0-1.0-1.5","0194E19996A14812975767C4C7B9EA9E","0194E19996A14812975767C4C7B9EA9E","7c910cca-a022-4748-9209-aac2ad663815","051c06f1-75cc-4548-856d-4923ddaba0dc","{""num_scrambled_semantic"":""8"",""num_scrambled_causal"":""4"",""num_scrambled_schematic"":""4"",""participantId"":""0194E19996A14812975767C4C7B9EA9E"",""assignmentId"":""7c910cca-a022-4748-9209-aac2ad663815"",""projectId"":""051c06f1-75cc-4548-856d-4923ddaba0dc""}","https://test12345.live/?num_scrambled_semantic=8&num_scrambled_causal=4&num_scrambled_schematic=4&participantId=0194E19996A14812975767C4C7B9EA9E&assignmentId=7c910cca-a022-4748-9209-aac2ad663815&projectId=051c06f1-75cc-4548-856d-4923ddaba0dc","0194E19996A14812975767C4C7B9EA9E-2025-05-15-21-16-57","","969","","images/causal_sequence/dog_causal/dog_causal_2.png","0","",""
"","","","","","image-button-response","74","468029","0.0-12.0-1.0-2.5","0194E19996A14812975767C4C7B9EA9E","0194E19996A14812975767C4C7B9EA9E","7c910cca-a022-4748-9209-aac2ad663815","051c06f1-75cc-4548-856d-4923ddaba0dc","{""num_scrambled_semantic"":""8"",""num_scrambled_causal"":""4"",""num_scrambled_schematic"":""4"",""participantId"":""0194E19996A14812975767C4C7B9EA9E"",""assignmentId"":""7c910cca-a022-4748-9209-aac2ad663815"",""projectId"":""051c06f1-75cc-4548-856d-4923ddaba0dc""}","https://test12345.live/?num_scrambled_semantic=8&num_scrambled_causal=4&num_scrambled_schematic=4&participantId=0194E19996A14812975767C4C7B9EA9E&assignmentId=7c910cca-a022-4748-9209-aac2ad663815&projectId=051c06f1-75cc-4548-856d-4923ddaba0dc","0194E19996A14812975767C4C7B9EA9E-2025-05-15-21-16-57","","null","","[]","null","",""
"","","","","","image-button-response","75","472533","0.0-12.0-1.0-0.6","0194E19996A14812975767C4C7B9EA9E","0194E19996A14812975767C4C7B9EA9E","7c910cca-a022-4748-9209-aac2ad663815","051c06f1-75cc-4548-856d-4923ddaba0dc","{""num_scrambled_semantic"":""8"",""num_scrambled_causal"":""4"",""num_scrambled_schematic"":""4"",""participantId"":""0194E19996A14812975767C4C7B9EA9E"",""assignmentId"":""7c910cca-a022-4748-9209-aac2ad663815"",""projectId"":""051c06f1-75cc-4548-856d-4923ddaba0dc""}","https://test12345.live/?num_scrambled_semantic=8&num_scrambled_causal=4&num_scrambled_schematic=4&participantId=0194E19996A14812975767C4C7B9EA9E&assignmentId=7c910cca-a022-4748-9209-aac2ad663815&projectId=051c06f1-75cc-4548-856d-4923ddaba0dc","0194E19996A14812975767C4C7B9EA9E-2025-05-15-21-16-57","","null","","images/causal_sequence/dog_causal/dog_causal_4.png","null","",""
"","","","","","image-button-response","76","473993","0.0-12.0-1.0-1.6","0194E19996A14812975767C4C7B9EA9E","0194E19996A14812975767C4C7B9EA9E","7c910cca-a022-4748-9209-aac2ad663815","051c06f1-75cc-4548-856d-4923ddaba0dc","{""num_scrambled_semantic"":""8"",""num_scrambled_causal"":""4"",""num_scrambled_schematic"":""4"",""participantId"":""0194E19996A14812975767C4C7B9EA9E"",""assignmentId"":""7c910cca-a022-4748-9209-aac2ad663815"",""projectId"":""051c06f1-75cc-4548-856d-4923ddaba0dc""}","https://test12345.live/?num_scrambled_semantic=8&num_scrambled_causal=4&num_scrambled_schematic=4&participantId=0194E19996A14812975767C4C7B9EA9E&assignmentId=7c910cca-a022-4748-9209-aac2ad663815&projectId=051c06f1-75cc-4548-856d-4923ddaba0dc","0194E19996A14812975767C4C7B9EA9E-2025-05-15-21-16-57","","1458","","images/causal_sequence/dog_causal/dog_causal_4.png","0","",""
"","","","","","image-button-response","77","475799","0.0-12.0-1.0-2.6","0194E19996A14812975767C4C7B9EA9E","0194E19996A14812975767C4C7B9EA9E","7c910cca-a022-4748-9209-aac2ad663815","051c06f1-75cc-4548-856d-4923ddaba0dc","{""num_scrambled_semantic"":""8"",""num_scrambled_causal"":""4"",""num_scrambled_schematic"":""4"",""participantId"":""0194E19996A14812975767C4C7B9EA9E"",""assignmentId"":""7c910cca-a022-4748-9209-aac2ad663815"",""projectId"":""051c06f1-75cc-4548-856d-4923ddaba0dc""}","https://test12345.live/?num_scrambled_semantic=8&num_scrambled_causal=4&num_scrambled_schematic=4&participantId=0194E19996A14812975767C4C7B9EA9E&assignmentId=7c910cca-a022-4748-9209-aac2ad663815&projectId=051c06f1-75cc-4548-856d-4923ddaba0dc","0194E19996A14812975767C4C7B9EA9E-2025-05-15-21-16-57","","null","","[]","null","",""
"","","","","","image-button-response","78","480303","0.0-12.0-1.0-0.7","0194E19996A14812975767C4C7B9EA9E","0194E19996A14812975767C4C7B9EA9E","7c910cca-a022-4748-9209-aac2ad663815","051c06f1-75cc-4548-856d-4923ddaba0dc","{""num_scrambled_semantic"":""8"",""num_scrambled_causal"":""4"",""num_scrambled_schematic"":""4"",""participantId"":""0194E19996A14812975767C4C7B9EA9E"",""assignmentId"":""7c910cca-a022-4748-9209-aac2ad663815"",""projectId"":""051c06f1-75cc-4548-856d-4923ddaba0dc""}","https://test12345.live/?num_scrambled_semantic=8&num_scrambled_causal=4&num_scrambled_schematic=4&participantId=0194E19996A14812975767C4C7B9EA9E&assignmentId=7c910cca-a022-4748-9209-aac2ad663815&projectId=051c06f1-75cc-4548-856d-4923ddaba0dc","0194E19996A14812975767C4C7B9EA9E-2025-05-15-21-16-57","","null","","images/causal_sequence/dog_causal/dog_causal_7.png","null","",""
"","","","","","image-button-response","79","481244","0.0-12.0-1.0-1.7","0194E19996A14812975767C4C7B9EA9E","0194E19996A14812975767C4C7B9EA9E","7c910cca-a022-4748-9209-aac2ad663815","051c06f1-75cc-4548-856d-4923ddaba0dc","{""num_scrambled_semantic"":""8"",""num_scrambled_causal"":""4"",""num_scrambled_schematic"":""4"",""participantId"":""0194E19996A14812975767C4C7B9EA9E"",""assignmentId"":""7c910cca-a022-4748-9209-aac2ad663815"",""projectId"":""051c06f1-75cc-4548-856d-4923ddaba0dc""}","https://test12345.live/?num_scrambled_semantic=8&num_scrambled_causal=4&num_scrambled_schematic=4&participantId=0194E19996A14812975767C4C7B9EA9E&assignmentId=7c910cca-a022-4748-9209-aac2ad663815&projectId=051c06f1-75cc-4548-856d-4923ddaba0dc","0194E19996A14812975767C4C7B9EA9E-2025-05-15-21-16-57","","940","","images/causal_sequence/dog_causal/dog_causal_7.png","0","",""
"","","","","","image-button-response","80","483049","0.0-12.0-1.0-2.7","0194E19996A14812975767C4C7B9EA9E","0194E19996A14812975767C4C7B9EA9E","7c910cca-a022-4748-9209-aac2ad663815","051c06f1-75cc-4548-856d-4923ddaba0dc","{""num_scrambled_semantic"":""8"",""num_scrambled_causal"":""4"",""num_scrambled_schematic"":""4"",""participantId"":""0194E19996A14812975767C4C7B9EA9E"",""assignmentId"":""7c910cca-a022-4748-9209-aac2ad663815"",""projectId"":""051c06f1-75cc-4548-856d-4923ddaba0dc""}","https://test12345.live/?num_scrambled_semantic=8&num_scrambled_causal=4&num_scrambled_schematic=4&participantId=0194E19996A14812975767C4C7B9EA9E&assignmentId=7c910cca-a022-4748-9209-aac2ad663815&projectId=051c06f1-75cc-4548-856d-4923ddaba0dc","0194E19996A14812975767C4C7B9EA9E-2025-05-15-21-16-57","","null","","[]","null","",""
"","","","","","image-button-response","81","487553","0.0-12.0-1.0-0.8","0194E19996A14812975767C4C7B9EA9E","0194E19996A14812975767C4C7B9EA9E","7c910cca-a022-4748-9209-aac2ad663815","051c06f1-75cc-4548-856d-4923ddaba0dc","{""num_scrambled_semantic"":""8"",""num_scrambled_causal"":""4"",""num_scrambled_schematic"":""4"",""participantId"":""0194E19996A14812975767C4C7B9EA9E"",""assignmentId"":""7c910cca-a022-4748-9209-aac2ad663815"",""projectId"":""051c06f1-75cc-4548-856d-4923ddaba0dc""}","https://test12345.live/?num_scrambled_semantic=8&num_scrambled_causal=4&num_scrambled_schematic=4&participantId=0194E19996A14812975767C4C7B9EA9E&assignmentId=7c910cca-a022-4748-9209-aac2ad663815&projectId=051c06f1-75cc-4548-856d-4923ddaba0dc","0194E19996A14812975767C4C7B9EA9E-2025-05-15-21-16-57","","null","","images/causal_sequence/dog_causal/dog_causal_5.png","null","",""
"","","","","","image-button-response","82","489060","0.0-12.0-1.0-1.8","0194E19996A14812975767C4C7B9EA9E","0194E19996A14812975767C4C7B9EA9E","7c910cca-a022-4748-9209-aac2ad663815","051c06f1-75cc-4548-856d-4923ddaba0dc","{""num_scrambled_semantic"":""8"",""num_scrambled_causal"":""4"",""num_scrambled_schematic"":""4"",""participantId"":""0194E19996A14812975767C4C7B9EA9E"",""assignmentId"":""7c910cca-a022-4748-9209-aac2ad663815"",""projectId"":""051c06f1-75cc-4548-856d-4923ddaba0dc""}","https://test12345.live/?num_scrambled_semantic=8&num_scrambled_causal=4&num_scrambled_schematic=4&participantId=0194E19996A14812975767C4C7B9EA9E&assignmentId=7c910cca-a022-4748-9209-aac2ad663815&projectId=051c06f1-75cc-4548-856d-4923ddaba0dc","0194E19996A14812975767C4C7B9EA9E-2025-05-15-21-16-57","","1505","","images/causal_sequence/dog_causal/dog_causal_5.png","0","",""
"","","","","","image-button-response","83","490863","0.0-12.0-1.0-2.8","0194E19996A14812975767C4C7B9EA9E","0194E19996A14812975767C4C7B9EA9E","7c910cca-a022-4748-9209-aac2ad663815","051c06f1-75cc-4548-856d-4923ddaba0dc","{""num_scrambled_semantic"":""8"",""num_scrambled_causal"":""4"",""num_scrambled_schematic"":""4"",""participantId"":""0194E19996A14812975767C4C7B9EA9E"",""assignmentId"":""7c910cca-a022-4748-9209-aac2ad663815"",""projectId"":""051c06f1-75cc-4548-856d-4923ddaba0dc""}","https://test12345.live/?num_scrambled_semantic=8&num_scrambled_causal=4&num_scrambled_schematic=4&participantId=0194E19996A14812975767C4C7B9EA9E&assignmentId=7c910cca-a022-4748-9209-aac2ad663815&projectId=051c06f1-75cc-4548-856d-4923ddaba0dc","0194E19996A14812975767C4C7B9EA9E-2025-05-15-21-16-57","","null","","[]","null","",""
"","","","","","image-button-response","84","495367","0.0-12.0-1.0-0.9","0194E19996A14812975767C4C7B9EA9E","0194E19996A14812975767C4C7B9EA9E","7c910cca-a022-4748-9209-aac2ad663815","051c06f1-75cc-4548-856d-4923ddaba0dc","{""num_scrambled_semantic"":""8"",""num_scrambled_causal"":""4"",""num_scrambled_schematic"":""4"",""participantId"":""0194E19996A14812975767C4C7B9EA9E"",""assignmentId"":""7c910cca-a022-4748-9209-aac2ad663815"",""projectId"":""051c06f1-75cc-4548-856d-4923ddaba0dc""}","https://test12345.live/?num_scrambled_semantic=8&num_scrambled_causal=4&num_scrambled_schematic=4&participantId=0194E19996A14812975767C4C7B9EA9E&assignmentId=7c910cca-a022-4748-9209-aac2ad663815&projectId=051c06f1-75cc-4548-856d-4923ddaba0dc","0194E19996A14812975767C4C7B9EA9E-2025-05-15-21-16-57","","null","","images/causal_sequence/dog_causal/dog_causal_9.png","null","",""
"","","","","","image-button-response","85","496227","0.0-12.0-1.0-1.9","0194E19996A14812975767C4C7B9EA9E","0194E19996A14812975767C4C7B9EA9E","7c910cca-a022-4748-9209-aac2ad663815","051c06f1-75cc-4548-856d-4923ddaba0dc","{""num_scrambled_semantic"":""8"",""num_scrambled_causal"":""4"",""num_scrambled_schematic"":""4"",""participantId"":""0194E19996A14812975767C4C7B9EA9E"",""assignmentId"":""7c910cca-a022-4748-9209-aac2ad663815"",""projectId"":""051c06f1-75cc-4548-856d-4923ddaba0dc""}","https://test12345.live/?num_scrambled_semantic=8&num_scrambled_causal=4&num_scrambled_schematic=4&participantId=0194E19996A14812975767C4C7B9EA9E&assignmentId=7c910cca-a022-4748-9209-aac2ad663815&projectId=051c06f1-75cc-4548-856d-4923ddaba0dc","0194E19996A14812975767C4C7B9EA9E-2025-05-15-21-16-57","","859","","images/causal_sequence/dog_causal/dog_causal_9.png","0","",""
"","","","","","image-button-response","86","498029","0.0-12.0-1.0-2.9","0194E19996A14812975767C4C7B9EA9E","0194E19996A14812975767C4C7B9EA9E","7c910cca-a022-4748-9209-aac2ad663815","051c06f1-75cc-4548-856d-4923ddaba0dc","{""num_scrambled_semantic"":""8"",""num_scrambled_causal"":""4"",""num_scrambled_schematic"":""4"",""participantId"":""0194E19996A14812975767C4C7B9EA9E"",""assignmentId"":""7c910cca-a022-4748-9209-aac2ad663815"",""projectId"":""051c06f1-75cc-4548-856d-4923ddaba0dc""}","https://test12345.live/?num_scrambled_semantic=8&num_scrambled_causal=4&num_scrambled_schematic=4&participantId=0194E19996A14812975767C4C7B9EA9E&assignmentId=7c910cca-a022-4748-9209-aac2ad663815&projectId=051c06f1-75cc-4548-856d-4923ddaba0dc","0194E19996A14812975767C4C7B9EA9E-2025-05-15-21-16-57","","null","","[]","null","",""
"","","","","","html-audio-response","87","533765","0.0-13.0","0194E19996A14812975767C4C7B9EA9E","0194E19996A14812975767C4C7B9EA9E","7c910cca-a022-4748-9209-aac2ad663815","051c06f1-75cc-4548-856d-4923ddaba0dc","{""num_scrambled_semantic"":""8"",""num_scrambled_causal"":""4"",""num_scrambled_schematic"":""4"",""participantId"":""0194E19996A14812975767C4C7B9EA9E"",""assignmentId"":""7c910cca-a022-4748-9209-aac2ad663815"",""projectId"":""051c06f1-75cc-4548-856d-4923ddaba0dc""}","https://test12345.live/?num_scrambled_semantic=8&num_scrambled_causal=4&num_scrambled_schematic=4&participantId=0194E19996A14812975767C4C7B9EA9E&assignmentId=7c910cca-a022-4748-9209-aac2ad663815&projectId=051c06f1-75cc-4548-856d-4923ddaba0dc","0194E19996A14812975767C4C7B9EA9E-2025-05-15-21-16-57","","34722","","[""<span style=\""color: red; font-size: 24px\""> NOW RECORDING</span><p>Please say out loud all the images you saw, as many as you can remember. The images can be said in any order.</p>""]","","2","dog_causal"
"","","","","","image-button-response","88","539780","0.0-14.0-0.0","0194E19996A14812975767C4C7B9EA9E","0194E19996A14812975767C4C7B9EA9E","7c910cca-a022-4748-9209-aac2ad663815","051c06f1-75cc-4548-856d-4923ddaba0dc","{""num_scrambled_semantic"":""8"",""num_scrambled_causal"":""4"",""num_scrambled_schematic"":""4"",""participantId"":""0194E19996A14812975767C4C7B9EA9E"",""assignmentId"":""7c910cca-a022-4748-9209-aac2ad663815"",""projectId"":""051c06f1-75cc-4548-856d-4923ddaba0dc""}","https://test12345.live/?num_scrambled_semantic=8&num_scrambled_causal=4&num_scrambled_schematic=4&participantId=0194E19996A14812975767C4C7B9EA9E&assignmentId=7c910cca-a022-4748-9209-aac2ad663815&projectId=051c06f1-75cc-4548-856d-4923ddaba0dc","0194E19996A14812975767C4C7B9EA9E-2025-05-15-21-16-57","","null","","images/causal_sequence/coin_causal/coin_causal_0.png","null","",""
"","","","","","image-button-response","89","544285","0.0-14.0-1.0-0.0","0194E19996A14812975767C4C7B9EA9E","0194E19996A14812975767C4C7B9EA9E","7c910cca-a022-4748-9209-aac2ad663815","051c06f1-75cc-4548-856d-4923ddaba0dc","{""num_scrambled_semantic"":""8"",""num_scrambled_causal"":""4"",""num_scrambled_schematic"":""4"",""participantId"":""0194E19996A14812975767C4C7B9EA9E"",""assignmentId"":""7c910cca-a022-4748-9209-aac2ad663815"",""projectId"":""051c06f1-75cc-4548-856d-4923ddaba0dc""}","https://test12345.live/?num_scrambled_semantic=8&num_scrambled_causal=4&num_scrambled_schematic=4&participantId=0194E19996A14812975767C4C7B9EA9E&assignmentId=7c910cca-a022-4748-9209-aac2ad663815&projectId=051c06f1-75cc-4548-856d-4923ddaba0dc","0194E19996A14812975767C4C7B9EA9E-2025-05-15-21-16-57","","null","","images/causal_sequence/coin_causal/coin_causal_1.png","null","",""
"","","","","","image-button-response","90","545801","0.0-14.0-1.0-1.0","0194E19996A14812975767C4C7B9EA9E","0194E19996A14812975767C4C7B9EA9E","7c910cca-a022-4748-9209-aac2ad663815","051c06f1-75cc-4548-856d-4923ddaba0dc","{""num_scrambled_semantic"":""8"",""num_scrambled_causal"":""4"",""num_scrambled_schematic"":""4"",""participantId"":""0194E19996A14812975767C4C7B9EA9E"",""assignmentId"":""7c910cca-a022-4748-9209-aac2ad663815"",""projectId"":""051c06f1-75cc-4548-856d-4923ddaba0dc""}","https://test12345.live/?num_scrambled_semantic=8&num_scrambled_causal=4&num_scrambled_schematic=4&participantId=0194E19996A14812975767C4C7B9EA9E&assignmentId=7c910cca-a022-4748-9209-aac2ad663815&projectId=051c06f1-75cc-4548-856d-4923ddaba0dc","0194E19996A14812975767C4C7B9EA9E-2025-05-15-21-16-57","","1513","","images/causal_sequence/coin_causal/coin_causal_1.png","0","",""
"","","","","","image-button-response","91","547605","0.0-14.0-1.0-2.0","0194E19996A14812975767C4C7B9EA9E","0194E19996A14812975767C4C7B9EA9E","7c910cca-a022-4748-9209-aac2ad663815","051c06f1-75cc-4548-856d-4923ddaba0dc","{""num_scrambled_semantic"":""8"",""num_scrambled_causal"":""4"",""num_scrambled_schematic"":""4"",""participantId"":""0194E19996A14812975767C4C7B9EA9E"",""assignmentId"":""7c910cca-a022-4748-9209-aac2ad663815"",""projectId"":""051c06f1-75cc-4548-856d-4923ddaba0dc""}","https://test12345.live/?num_scrambled_semantic=8&num_scrambled_causal=4&num_scrambled_schematic=4&participantId=0194E19996A14812975767C4C7B9EA9E&assignmentId=7c910cca-a022-4748-9209-aac2ad663815&projectId=051c06f1-75cc-4548-856d-4923ddaba0dc","0194E19996A14812975767C4C7B9EA9E-2025-05-15-21-16-57","","null","","[]","null","",""
"","","","","","image-button-response","92","552111","0.0-14.0-1.0-0.1","0194E19996A14812975767C4C7B9EA9E","0194E19996A14812975767C4C7B9EA9E","7c910cca-a022-4748-9209-aac2ad663815","051c06f1-75cc-4548-856d-4923ddaba0dc","{""num_scrambled_semantic"":""8"",""num_scrambled_causal"":""4"",""num_scrambled_schematic"":""4"",""participantId"":""0194E19996A14812975767C4C7B9EA9E"",""assignmentId"":""7c910cca-a022-4748-9209-aac2ad663815"",""projectId"":""051c06f1-75cc-4548-856d-4923ddaba0dc""}","https://test12345.live/?num_scrambled_semantic=8&num_scrambled_causal=4&num_scrambled_schematic=4&participantId=0194E19996A14812975767C4C7B9EA9E&assignmentId=7c910cca-a022-4748-9209-aac2ad663815&projectId=051c06f1-75cc-4548-856d-4923ddaba0dc","0194E19996A14812975767C4C7B9EA9E-2025-05-15-21-16-57","","null","","images/causal_sequence/coin_causal/coin_causal_2.png","null","",""
"","","","","","image-button-response","93","552868","0.0-14.0-1.0-1.1","0194E19996A14812975767C4C7B9EA9E","0194E19996A14812975767C4C7B9EA9E","7c910cca-a022-4748-9209-aac2ad663815","051c06f1-75cc-4548-856d-4923ddaba0dc","{""num_scrambled_semantic"":""8"",""num_scrambled_causal"":""4"",""num_scrambled_schematic"":""4"",""participantId"":""0194E19996A14812975767C4C7B9EA9E"",""assignmentId"":""7c910cca-a022-4748-9209-aac2ad663815"",""projectId"":""051c06f1-75cc-4548-856d-4923ddaba0dc""}","https://test12345.live/?num_scrambled_semantic=8&num_scrambled_causal=4&num_scrambled_schematic=4&participantId=0194E19996A14812975767C4C7B9EA9E&assignmentId=7c910cca-a022-4748-9209-aac2ad663815&projectId=051c06f1-75cc-4548-856d-4923ddaba0dc","0194E19996A14812975767C4C7B9EA9E-2025-05-15-21-16-57","","754","","images/causal_sequence/coin_causal/coin_causal_2.png","0","",""
"","","","","","image-button-response","94","554675","0.0-14.0-1.0-2.1","0194E19996A14812975767C4C7B9EA9E","0194E19996A14812975767C4C7B9EA9E","7c910cca-a022-4748-9209-aac2ad663815","051c06f1-75cc-4548-856d-4923ddaba0dc","{""num_scrambled_semantic"":""8"",""num_scrambled_causal"":""4"",""num_scrambled_schematic"":""4"",""participantId"":""0194E19996A14812975767C4C7B9EA9E"",""assignmentId"":""7c910cca-a022-4748-9209-aac2ad663815"",""projectId"":""051c06f1-75cc-4548-856d-4923ddaba0dc""}","https://test12345.live/?num_scrambled_semantic=8&num_scrambled_causal=4&num_scrambled_schematic=4&participantId=0194E19996A14812975767C4C7B9EA9E&assignmentId=7c910cca-a022-4748-9209-aac2ad663815&projectId=051c06f1-75cc-4548-856d-4923ddaba0dc","0194E19996A14812975767C4C7B9EA9E-2025-05-15-21-16-57","","null","","[]","null","",""
"","","","","","image-button-response","95","559181","0.0-14.0-1.0-0.2","0194E19996A14812975767C4C7B9EA9E","0194E19996A14812975767C4C7B9EA9E","7c910cca-a022-4748-9209-aac2ad663815","051c06f1-75cc-4548-856d-4923ddaba0dc","{""num_scrambled_semantic"":""8"",""num_scrambled_causal"":""4"",""num_scrambled_schematic"":""4"",""participantId"":""0194E19996A14812975767C4C7B9EA9E"",""assignmentId"":""7c910cca-a022-4748-9209-aac2ad663815"",""projectId"":""051c06f1-75cc-4548-856d-4923ddaba0dc""}","https://test12345.live/?num_scrambled_semantic=8&num_scrambled_causal=4&num_scrambled_schematic=4&participantId=0194E19996A14812975767C4C7B9EA9E&assignmentId=7c910cca-a022-4748-9209-aac2ad663815&projectId=051c06f1-75cc-4548-856d-4923ddaba0dc","0194E19996A14812975767C4C7B9EA9E-2025-05-15-21-16-57","","null","","images/causal_sequence/coin_causal/coin_causal_3.png","null","",""
"","","","","","image-button-response","96","560452","0.0-14.0-1.0-1.2","0194E19996A14812975767C4C7B9EA9E","0194E19996A14812975767C4C7B9EA9E","7c910cca-a022-4748-9209-aac2ad663815","051c06f1-75cc-4548-856d-4923ddaba0dc","{""num_scrambled_semantic"":""8"",""num_scrambled_causal"":""4"",""num_scrambled_schematic"":""4"",""participantId"":""0194E19996A14812975767C4C7B9EA9E"",""assignmentId"":""7c910cca-a022-4748-9209-aac2ad663815"",""projectId"":""051c06f1-75cc-4548-856d-4923ddaba0dc""}","https://test12345.live/?num_scrambled_semantic=8&num_scrambled_causal=4&num_scrambled_schematic=4&participantId=0194E19996A14812975767C4C7B9EA9E&assignmentId=7c910cca-a022-4748-9209-aac2ad663815&projectId=051c06f1-75cc-4548-856d-4923ddaba0dc","0194E19996A14812975767C4C7B9EA9E-2025-05-15-21-16-57","","1269","","images/causal_sequence/coin_causal/coin_causal_3.png","0","",""
"","","","","","image-button-response","97","562255","0.0-14.0-1.0-2.2","0194E19996A14812975767C4C7B9EA9E","0194E19996A14812975767C4C7B9EA9E","7c910cca-a022-4748-9209-aac2ad663815","051c06f1-75cc-4548-856d-4923ddaba0dc","{""num_scrambled_semantic"":""8"",""num_scrambled_causal"":""4"",""num_scrambled_schematic"":""4"",""participantId"":""0194E19996A14812975767C4C7B9EA9E"",""assignmentId"":""7c910cca-a022-4748-9209-aac2ad663815"",""projectId"":""051c06f1-75cc-4548-856d-4923ddaba0dc""}","https://test12345.live/?num_scrambled_semantic=8&num_scrambled_causal=4&num_scrambled_schematic=4&participantId=0194E19996A14812975767C4C7B9EA9E&assignmentId=7c910cca-a022-4748-9209-aac2ad663815&projectId=051c06f1-75cc-4548-856d-4923ddaba0dc","0194E19996A14812975767C4C7B9EA9E-2025-05-15-21-16-57","","null","","[]","null","",""
"","","","","","image-button-response","98","566761","0.0-14.0-1.0-0.3","0194E19996A14812975767C4C7B9EA9E","0194E19996A14812975767C4C7B9EA9E","7c910cca-a022-4748-9209-aac2ad663815","051c06f1-75cc-4548-856d-4923ddaba0dc","{""num_scrambled_semantic"":""8"",""num_scrambled_causal"":""4"",""num_scrambled_schematic"":""4"",""participantId"":""0194E19996A14812975767C4C7B9EA9E"",""assignmentId"":""7c910cca-a022-4748-9209-aac2ad663815"",""projectId"":""051c06f1-75cc-4548-856d-4923ddaba0dc""}","https://test12345.live/?num_scrambled_semantic=8&num_scrambled_causal=4&num_scrambled_schematic=4&participantId=0194E19996A14812975767C4C7B9EA9E&assignmentId=7c910cca-a022-4748-9209-aac2ad663815&projectId=051c06f1-75cc-4548-856d-4923ddaba0dc","0194E19996A14812975767C4C7B9EA9E-2025-05-15-21-16-57","","null","","images/causal_sequence/coin_causal/coin_causal_4.png","null","",""
"","","","","","image-button-response","99","568118","0.0-14.0-1.0-1.3","0194E19996A14812975767C4C7B9EA9E","0194E19996A14812975767C4C7B9EA9E","7c910cca-a022-4748-9209-aac2ad663815","051c06f1-75cc-4548-856d-4923ddaba0dc","{""num_scrambled_semantic"":""8"",""num_scrambled_causal"":""4"",""num_scrambled_schematic"":""4"",""participantId"":""0194E19996A14812975767C4C7B9EA9E"",""assignmentId"":""7c910cca-a022-4748-9209-aac2ad663815"",""projectId"":""051c06f1-75cc-4548-856d-4923ddaba0dc""}","https://test12345.live/?num_scrambled_semantic=8&num_scrambled_causal=4&num_scrambled_schematic=4&participantId=0194E19996A14812975767C4C7B9EA9E&assignmentId=7c910cca-a022-4748-9209-aac2ad663815&projectId=051c06f1-75cc-4548-856d-4923ddaba0dc","0194E19996A14812975767C4C7B9EA9E-2025-05-15-21-16-57","","1355","","images/causal_sequence/coin_causal/coin_causal_4.png","0","",""
"","","","","","image-button-response","100","569921","0.0-14.0-1.0-2.3","0194E19996A14812975767C4C7B9EA9E","0194E19996A14812975767C4C7B9EA9E","7c910cca-a022-4748-9209-aac2ad663815","051c06f1-75cc-4548-856d-4923ddaba0dc","{""num_scrambled_semantic"":""8"",""num_scrambled_causal"":""4"",""num_scrambled_schematic"":""4"",""participantId"":""0194E19996A14812975767C4C7B9EA9E"",""assignmentId"":""7c910cca-a022-4748-9209-aac2ad663815"",""projectId"":""051c06f1-75cc-4548-856d-4923ddaba0dc""}","https://test12345.live/?num_scrambled_semantic=8&num_scrambled_causal=4&num_scrambled_schematic=4&participantId=0194E19996A14812975767C4C7B9EA9E&assignmentId=7c910cca-a022-4748-9209-aac2ad663815&projectId=051c06f1-75cc-4548-856d-4923ddaba0dc","0194E19996A14812975767C4C7B9EA9E-2025-05-15-21-16-57","","null","","[]","null","",""
"","","","","","image-button-response","101","574426","0.0-14.0-1.0-0.4","0194E19996A14812975767C4C7B9EA9E","0194E19996A14812975767C4C7B9EA9E","7c910cca-a022-4748-9209-aac2ad663815","051c06f1-75cc-4548-856d-4923ddaba0dc","{""num_scrambled_semantic"":""8"",""num_scrambled_causal"":""4"",""num_scrambled_schematic"":""4"",""participantId"":""0194E19996A14812975767C4C7B9EA9E"",""assignmentId"":""7c910cca-a022-4748-9209-aac2ad663815"",""projectId"":""051c06f1-75cc-4548-856d-4923ddaba0dc""}","https://test12345.live/?num_scrambled_semantic=8&num_scrambled_causal=4&num_scrambled_schematic=4&participantId=0194E19996A14812975767C4C7B9EA9E&assignmentId=7c910cca-a022-4748-9209-aac2ad663815&projectId=051c06f1-75cc-4548-856d-4923ddaba0dc","0194E19996A14812975767C4C7B9EA9E-2025-05-15-21-16-57","","null","","images/causal_sequence/coin_causal/coin_causal_5.png","null","",""
"","","","","","image-button-response","102","575336","0.0-14.0-1.0-1.4","0194E19996A14812975767C4C7B9EA9E","0194E19996A14812975767C4C7B9EA9E","7c910cca-a022-4748-9209-aac2ad663815","051c06f1-75cc-4548-856d-4923ddaba0dc","{""num_scrambled_semantic"":""8"",""num_scrambled_causal"":""4"",""num_scrambled_schematic"":""4"",""participantId"":""0194E19996A14812975767C4C7B9EA9E"",""assignmentId"":""7c910cca-a022-4748-9209-aac2ad663815"",""projectId"":""051c06f1-75cc-4548-856d-4923ddaba0dc""}","https://test12345.live/?num_scrambled_semantic=8&num_scrambled_causal=4&num_scrambled_schematic=4&participantId=0194E19996A14812975767C4C7B9EA9E&assignmentId=7c910cca-a022-4748-9209-aac2ad663815&projectId=051c06f1-75cc-4548-856d-4923ddaba0dc","0194E19996A14812975767C4C7B9EA9E-2025-05-15-21-16-57","","909","","images/causal_sequence/coin_causal/coin_causal_5.png","0","",""
"","","","","","image-button-response","103","577142","0.0-14.0-1.0-2.4","0194E19996A14812975767C4C7B9EA9E","0194E19996A14812975767C4C7B9EA9E","7c910cca-a022-4748-9209-aac2ad663815","051c06f1-75cc-4548-856d-4923ddaba0dc","{""num_scrambled_semantic"":""8"",""num_scrambled_causal"":""4"",""num_scrambled_schematic"":""4"",""participantId"":""0194E19996A14812975767C4C7B9EA9E"",""assignmentId"":""7c910cca-a022-4748-9209-aac2ad663815"",""projectId"":""051c06f1-75cc-4548-856d-4923ddaba0dc""}","https://test12345.live/?num_scrambled_semantic=8&num_scrambled_causal=4&num_scrambled_schematic=4&participantId=0194E19996A14812975767C4C7B9EA9E&assignmentId=7c910cca-a022-4748-9209-aac2ad663815&projectId=051c06f1-75cc-4548-856d-4923ddaba0dc","0194E19996A14812975767C4C7B9EA9E-2025-05-15-21-16-57","","null","","[]","null","",""
"","","","","","image-button-response","104","581646","0.0-14.0-1.0-0.5","0194E19996A14812975767C4C7B9EA9E","0194E19996A14812975767C4C7B9EA9E","7c910cca-a022-4748-9209-aac2ad663815","051c06f1-75cc-4548-856d-4923ddaba0dc","{""num_scrambled_semantic"":""8"",""num_scrambled_causal"":""4"",""num_scrambled_schematic"":""4"",""participantId"":""0194E19996A14812975767C4C7B9EA9E"",""assignmentId"":""7c910cca-a022-4748-9209-aac2ad663815"",""projectId"":""051c06f1-75cc-4548-856d-4923ddaba0dc""}","https://test12345.live/?num_scrambled_semantic=8&num_scrambled_causal=4&num_scrambled_schematic=4&participantId=0194E19996A14812975767C4C7B9EA9E&assignmentId=7c910cca-a022-4748-9209-aac2ad663815&projectId=051c06f1-75cc-4548-856d-4923ddaba0dc","0194E19996A14812975767C4C7B9EA9E-2025-05-15-21-16-57","","null","","images/causal_sequence/coin_causal/coin_causal_6.png","null","",""
"","","","","","image-button-response","105","582503","0.0-14.0-1.0-1.5","0194E19996A14812975767C4C7B9EA9E","0194E19996A14812975767C4C7B9EA9E","7c910cca-a022-4748-9209-aac2ad663815","051c06f1-75cc-4548-856d-4923ddaba0dc","{""num_scrambled_semantic"":""8"",""num_scrambled_causal"":""4"",""num_scrambled_schematic"":""4"",""participantId"":""0194E19996A14812975767C4C7B9EA9E"",""assignmentId"":""7c910cca-a022-4748-9209-aac2ad663815"",""projectId"":""051c06f1-75cc-4548-856d-4923ddaba0dc""}","https://test12345.live/?num_scrambled_semantic=8&num_scrambled_causal=4&num_scrambled_schematic=4&participantId=0194E19996A14812975767C4C7B9EA9E&assignmentId=7c910cca-a022-4748-9209-aac2ad663815&projectId=051c06f1-75cc-4548-856d-4923ddaba0dc","0194E19996A14812975767C4C7B9EA9E-2025-05-15-21-16-57","","855","","images/causal_sequence/coin_causal/coin_causal_6.png","0","",""
"","","","","","image-button-response","106","584306","0.0-14.0-1.0-2.5","0194E19996A14812975767C4C7B9EA9E","0194E19996A14812975767C4C7B9EA9E","7c910cca-a022-4748-9209-aac2ad663815","051c06f1-75cc-4548-856d-4923ddaba0dc","{""num_scrambled_semantic"":""8"",""num_scrambled_causal"":""4"",""num_scrambled_schematic"":""4"",""participantId"":""0194E19996A14812975767C4C7B9EA9E"",""assignmentId"":""7c910cca-a022-4748-9209-aac2ad663815"",""projectId"":""051c06f1-75cc-4548-856d-4923ddaba0dc""}","https://test12345.live/?num_scrambled_semantic=8&num_scrambled_causal=4&num_scrambled_schematic=4&participantId=0194E19996A14812975767C4C7B9EA9E&assignmentId=7c910cca-a022-4748-9209-aac2ad663815&projectId=051c06f1-75cc-4548-856d-4923ddaba0dc","0194E19996A14812975767C4C7B9EA9E-2025-05-15-21-16-57","","null","","[]","null","",""
"","","","","","image-button-response","107","588812","0.0-14.0-1.0-0.6","0194E19996A14812975767C4C7B9EA9E","0194E19996A14812975767C4C7B9EA9E","7c910cca-a022-4748-9209-aac2ad663815","051c06f1-75cc-4548-856d-4923ddaba0dc","{""num_scrambled_semantic"":""8"",""num_scrambled_causal"":""4"",""num_scrambled_schematic"":""4"",""participantId"":""0194E19996A14812975767C4C7B9EA9E"",""assignmentId"":""7c910cca-a022-4748-9209-aac2ad663815"",""projectId"":""051c06f1-75cc-4548-856d-4923ddaba0dc""}","https://test12345.live/?num_scrambled_semantic=8&num_scrambled_causal=4&num_scrambled_schematic=4&participantId=0194E19996A14812975767C4C7B9EA9E&assignmentId=7c910cca-a022-4748-9209-aac2ad663815&projectId=051c06f1-75cc-4548-856d-4923ddaba0dc","0194E19996A14812975767C4C7B9EA9E-2025-05-15-21-16-57","","null","","images/causal_sequence/coin_causal/coin_causal_7.png","null","",""
"","","","","","image-button-response","108","589638","0.0-14.0-1.0-1.6","0194E19996A14812975767C4C7B9EA9E","0194E19996A14812975767C4C7B9EA9E","7c910cca-a022-4748-9209-aac2ad663815","051c06f1-75cc-4548-856d-4923ddaba0dc","{""num_scrambled_semantic"":""8"",""num_scrambled_causal"":""4"",""num_scrambled_schematic"":""4"",""participantId"":""0194E19996A14812975767C4C7B9EA9E"",""assignmentId"":""7c910cca-a022-4748-9209-aac2ad663815"",""projectId"":""051c06f1-75cc-4548-856d-4923ddaba0dc""}","https://test12345.live/?num_scrambled_semantic=8&num_scrambled_causal=4&num_scrambled_schematic=4&participantId=0194E19996A14812975767C4C7B9EA9E&assignmentId=7c910cca-a022-4748-9209-aac2ad663815&projectId=051c06f1-75cc-4548-856d-4923ddaba0dc","0194E19996A14812975767C4C7B9EA9E-2025-05-15-21-16-57","","824","","images/causal_sequence/coin_causal/coin_causal_7.png","0","",""
"","","","","","image-button-response","109","591442","0.0-14.0-1.0-2.6","0194E19996A14812975767C4C7B9EA9E","0194E19996A14812975767C4C7B9EA9E","7c910cca-a022-4748-9209-aac2ad663815","051c06f1-75cc-4548-856d-4923ddaba0dc","{""num_scrambled_semantic"":""8"",""num_scrambled_causal"":""4"",""num_scrambled_schematic"":""4"",""participantId"":""0194E19996A14812975767C4C7B9EA9E"",""assignmentId"":""7c910cca-a022-4748-9209-aac2ad663815"",""projectId"":""051c06f1-75cc-4548-856d-4923ddaba0dc""}","https://test12345.live/?num_scrambled_semantic=8&num_scrambled_causal=4&num_scrambled_schematic=4&participantId=0194E19996A14812975767C4C7B9EA9E&assignmentId=7c910cca-a022-4748-9209-aac2ad663815&projectId=051c06f1-75cc-4548-856d-4923ddaba0dc","0194E19996A14812975767C4C7B9EA9E-2025-05-15-21-16-57","","null","","[]","null","",""
"","","","","","image-button-response","110","595946","0.0-14.0-1.0-0.7","0194E19996A14812975767C4C7B9EA9E","0194E19996A14812975767C4C7B9EA9E","7c910cca-a022-4748-9209-aac2ad663815","051c06f1-75cc-4548-856d-4923ddaba0dc","{""num_scrambled_semantic"":""8"",""num_scrambled_causal"":""4"",""num_scrambled_schematic"":""4"",""participantId"":""0194E19996A14812975767C4C7B9EA9E"",""assignmentId"":""7c910cca-a022-4748-9209-aac2ad663815"",""projectId"":""051c06f1-75cc-4548-856d-4923ddaba0dc""}","https://test12345.live/?num_scrambled_semantic=8&num_scrambled_causal=4&num_scrambled_schematic=4&participantId=0194E19996A14812975767C4C7B9EA9E&assignmentId=7c910cca-a022-4748-9209-aac2ad663815&projectId=051c06f1-75cc-4548-856d-4923ddaba0dc","0194E19996A14812975767C4C7B9EA9E-2025-05-15-21-16-57","","null","","images/causal_sequence/coin_causal/coin_causal_8.png","null","",""
"","","","","","image-button-response","111","596638","0.0-14.0-1.0-1.7","0194E19996A14812975767C4C7B9EA9E","0194E19996A14812975767C4C7B9EA9E","7c910cca-a022-4748-9209-aac2ad663815","051c06f1-75cc-4548-856d-4923ddaba0dc","{""num_scrambled_semantic"":""8"",""num_scrambled_causal"":""4"",""num_scrambled_schematic"":""4"",""participantId"":""0194E19996A14812975767C4C7B9EA9E"",""assignmentId"":""7c910cca-a022-4748-9209-aac2ad663815"",""projectId"":""051c06f1-75cc-4548-856d-4923ddaba0dc""}","https://test12345.live/?num_scrambled_semantic=8&num_scrambled_causal=4&num_scrambled_schematic=4&participantId=0194E19996A14812975767C4C7B9EA9E&assignmentId=7c910cca-a022-4748-9209-aac2ad663815&projectId=051c06f1-75cc-4548-856d-4923ddaba0dc","0194E19996A14812975767C4C7B9EA9E-2025-05-15-21-16-57","","689","","images/causal_sequence/coin_causal/coin_causal_8.png","0","",""
"","","","","","image-button-response","112","598442","0.0-14.0-1.0-2.7","0194E19996A14812975767C4C7B9EA9E","0194E19996A14812975767C4C7B9EA9E","7c910cca-a022-4748-9209-aac2ad663815","051c06f1-75cc-4548-856d-4923ddaba0dc","{""num_scrambled_semantic"":""8"",""num_scrambled_causal"":""4"",""num_scrambled_schematic"":""4"",""participantId"":""0194E19996A14812975767C4C7B9EA9E"",""assignmentId"":""7c910cca-a022-4748-9209-aac2ad663815"",""projectId"":""051c06f1-75cc-4548-856d-4923ddaba0dc""}","https://test12345.live/?num_scrambled_semantic=8&num_scrambled_causal=4&num_scrambled_schematic=4&participantId=0194E19996A14812975767C4C7B9EA9E&assignmentId=7c910cca-a022-4748-9209-aac2ad663815&projectId=051c06f1-75cc-4548-856d-4923ddaba0dc","0194E19996A14812975767C4C7B9EA9E-2025-05-15-21-16-57","","null","","[]","null","",""
"","","","","","image-button-response","113","602947","0.0-14.0-1.0-0.8","0194E19996A14812975767C4C7B9EA9E","0194E19996A14812975767C4C7B9EA9E","7c910cca-a022-4748-9209-aac2ad663815","051c06f1-75cc-4548-856d-4923ddaba0dc","{""num_scrambled_semantic"":""8"",""num_scrambled_causal"":""4"",""num_scrambled_schematic"":""4"",""participantId"":""0194E19996A14812975767C4C7B9EA9E"",""assignmentId"":""7c910cca-a022-4748-9209-aac2ad663815"",""projectId"":""051c06f1-75cc-4548-856d-4923ddaba0dc""}","https://test12345.live/?num_scrambled_semantic=8&num_scrambled_causal=4&num_scrambled_schematic=4&participantId=0194E19996A14812975767C4C7B9EA9E&assignmentId=7c910cca-a022-4748-9209-aac2ad663815&projectId=051c06f1-75cc-4548-856d-4923ddaba0dc","0194E19996A14812975767C4C7B9EA9E-2025-05-15-21-16-57","","null","","images/causal_sequence/coin_causal/coin_causal_9.png","null","",""
"","","","","","image-button-response","114","603921","0.0-14.0-1.0-1.8","0194E19996A14812975767C4C7B9EA9E","0194E19996A14812975767C4C7B9EA9E","7c910cca-a022-4748-9209-aac2ad663815","051c06f1-75cc-4548-856d-4923ddaba0dc","{""num_scrambled_semantic"":""8"",""num_scrambled_causal"":""4"",""num_scrambled_schematic"":""4"",""participantId"":""0194E19996A14812975767C4C7B9EA9E"",""assignmentId"":""7c910cca-a022-4748-9209-aac2ad663815"",""projectId"":""051c06f1-75cc-4548-856d-4923ddaba0dc""}","https://test12345.live/?num_scrambled_semantic=8&num_scrambled_causal=4&num_scrambled_schematic=4&participantId=0194E19996A14812975767C4C7B9EA9E&assignmentId=7c910cca-a022-4748-9209-aac2ad663815&projectId=051c06f1-75cc-4548-856d-4923ddaba0dc","0194E19996A14812975767C4C7B9EA9E-2025-05-15-21-16-57","","973","","images/causal_sequence/coin_causal/coin_causal_9.png","0","",""
