"success","timeout","failed_images","failed_audio","failed_video","trial_type","trial_index","time_elapsed","internal_node_id","subject","subject_id","study_id","session_id","urlvar","current_url","audio_id","view_history","rt","device_id","stimulus","response","estimated_stimulus_onset","seq_name"
"true","false","[]","[]","[]","preload","0","10264","0.0-0.0","024E7395AC6A492B9B1FE17DCAD596FE","024E7395AC6A492B9B1FE17DCAD596FE","e23633ac-68f6-44f9-ad4d-15ccb472c963","a6b6d205-fa41-4c5b-a7a5-7fc4b51b0cea","{""num_scrambled_semantic"":""8"",""num_scrambled_causal"":""4"",""num_scrambled_schematic"":""4"",""participantId"":""024E7395AC6A492B9B1FE17DCAD596FE"",""assignmentId"":""e23633ac-68f6-44f9-ad4d-15ccb472c963"",""projectId"":""a6b6d205-fa41-4c5b-a7a5-7fc4b51b0cea""}","https://test12345.live/?num_scrambled_semantic=8&num_scrambled_causal=4&num_scrambled_schematic=4&participantId=024E7395AC6A492B9B1FE17DCAD596FE&assignmentId=e23633ac-68f6-44f9-ad4d-15ccb472c963&projectId=a6b6d205-fa41-4c5b-a7a5-7fc4b51b0cea","024E7395AC6A492B9B1FE17DCAD596FE-2025-05-27-17-03-39","","","","","","",""
"","","","","","instructions","1","27672","0.0-1.0","024E7395AC6A492B9B1FE17DCAD596FE","024E7395AC6A492B9B1FE17DCAD596FE","e23633ac-68f6-44f9-ad4d-15ccb472c963","a6b6d205-fa41-4c5b-a7a5-7fc4b51b0cea","{""num_scrambled_semantic"":""8"",""num_scrambled_causal"":""4"",""num_scrambled_schematic"":""4"",""participantId"":""024E7395AC6A492B9B1FE17DCAD596FE"",""assignmentId"":""e23633ac-68f6-44f9-ad4d-15ccb472c963"",""projectId"":""a6b6d205-fa41-4c5b-a7a5-7fc4b51b0cea""}","https://test12345.live/?num_scrambled_semantic=8&num_scrambled_causal=4&num_scrambled_schematic=4&participantId=024E7395AC6A492B9B1FE17DCAD596FE&assignmentId=e23633ac-68f6-44f9-ad4d-15ccb472c963&projectId=a6b6d205-fa41-4c5b-a7a5-7fc4b51b0cea","024E7395AC6A492B9B1FE17DCAD596FE-2025-05-27-17-03-39","[{""page_index"":0,""viewing_time"":17393}]","17394","","","","",""
"","","","","","instructions","2","30665","0.0-2.0","024E7395AC6A492B9B1FE17DCAD596FE","024E7395AC6A492B9B1FE17DCAD596FE","e23633ac-68f6-44f9-ad4d-15ccb472c963","a6b6d205-fa41-4c5b-a7a5-7fc4b51b0cea","{""num_scrambled_semantic"":""8"",""num_scrambled_causal"":""4"",""num_scrambled_schematic"":""4"",""participantId"":""024E7395AC6A492B9B1FE17DCAD596FE"",""assignmentId"":""e23633ac-68f6-44f9-ad4d-15ccb472c963"",""projectId"":""a6b6d205-fa41-4c5b-a7a5-7fc4b51b0cea""}","https://test12345.live/?num_scrambled_semantic=8&num_scrambled_causal=4&num_scrambled_schematic=4&participantId=024E7395AC6A492B9B1FE17DCAD596FE&assignmentId=e23633ac-68f6-44f9-ad4d-15ccb472c963&projectId=a6b6d205-fa41-4c5b-a7a5-7fc4b51b0cea","024E7395AC6A492B9B1FE17DCAD596FE-2025-05-27-17-03-39","[{""page_index"":0,""viewing_time"":2991}]","2991","","","","",""
"true","","","","","fullscreen","3","33985","0.0-3.0","024E7395AC6A492B9B1FE17DCAD596FE","024E7395AC6A492B9B1FE17DCAD596FE","e23633ac-68f6-44f9-ad4d-15ccb472c963","a6b6d205-fa41-4c5b-a7a5-7fc4b51b0cea","{""num_scrambled_semantic"":""8"",""num_scrambled_causal"":""4"",""num_scrambled_schematic"":""4"",""participantId"":""024E7395AC6A492B9B1FE17DCAD596FE"",""assignmentId"":""e23633ac-68f6-44f9-ad4d-15ccb472c963"",""projectId"":""a6b6d205-fa41-4c5b-a7a5-7fc4b51b0cea""}","https://test12345.live/?num_scrambled_semantic=8&num_scrambled_causal=4&num_scrambled_schematic=4&participantId=024E7395AC6A492B9B1FE17DCAD596FE&assignmentId=e23633ac-68f6-44f9-ad4d-15ccb472c963&projectId=a6b6d205-fa41-4c5b-a7a5-7fc4b51b0cea","024E7395AC6A492B9B1FE17DCAD596FE-2025-05-27-17-03-39","","2311","","","","",""
"","","","","","initialize-microphone","4","44362","0.0-4.0-0.0","024E7395AC6A492B9B1FE17DCAD596FE","024E7395AC6A492B9B1FE17DCAD596FE","e23633ac-68f6-44f9-ad4d-15ccb472c963","a6b6d205-fa41-4c5b-a7a5-7fc4b51b0cea","{""num_scrambled_semantic"":""8"",""num_scrambled_causal"":""4"",""num_scrambled_schematic"":""4"",""participantId"":""024E7395AC6A492B9B1FE17DCAD596FE"",""assignmentId"":""e23633ac-68f6-44f9-ad4d-15ccb472c963"",""projectId"":""a6b6d205-fa41-4c5b-a7a5-7fc4b51b0cea""}","https://test12345.live/?num_scrambled_semantic=8&num_scrambled_causal=4&num_scrambled_schematic=4&participantId=024E7395AC6A492B9B1FE17DCAD596FE&assignmentId=e23633ac-68f6-44f9-ad4d-15ccb472c963&projectId=a6b6d205-fa41-4c5b-a7a5-7fc4b51b0cea","024E7395AC6A492B9B1FE17DCAD596FE-2025-05-27-17-03-39","","","408133D0593B9B14864C96B62513D95821E97EFF","","","",""
"","","","","","html-audio-response","5","57730","0.0-4.0-1.0","024E7395AC6A492B9B1FE17DCAD596FE","024E7395AC6A492B9B1FE17DCAD596FE","e23633ac-68f6-44f9-ad4d-15ccb472c963","a6b6d205-fa41-4c5b-a7a5-7fc4b51b0cea","{""num_scrambled_semantic"":""8"",""num_scrambled_causal"":""4"",""num_scrambled_schematic"":""4"",""participantId"":""024E7395AC6A492B9B1FE17DCAD596FE"",""assignmentId"":""e23633ac-68f6-44f9-ad4d-15ccb472c963"",""projectId"":""a6b6d205-fa41-4c5b-a7a5-7fc4b51b0cea""}","https://test12345.live/?num_scrambled_semantic=8&num_scrambled_causal=4&num_scrambled_schematic=4&participantId=024E7395AC6A492B9B1FE17DCAD596FE&assignmentId=e23633ac-68f6-44f9-ad4d-15ccb472c963&projectId=a6b6d205-fa41-4c5b-a7a5-7fc4b51b0cea","024E7395AC6A492B9B1FE17DCAD596FE-2025-05-27-17-03-39","","8774","","<span style=""color: red; font-size: 24px""> NOW RECORDING</span>
        <p>Please test Microphone</p>","","40",""
"","","","","","html-button-response","6","59502","0.0-4.0-2.0","024E7395AC6A492B9B1FE17DCAD596FE","024E7395AC6A492B9B1FE17DCAD596FE","e23633ac-68f6-44f9-ad4d-15ccb472c963","a6b6d205-fa41-4c5b-a7a5-7fc4b51b0cea","{""num_scrambled_semantic"":""8"",""num_scrambled_causal"":""4"",""num_scrambled_schematic"":""4"",""participantId"":""024E7395AC6A492B9B1FE17DCAD596FE"",""assignmentId"":""e23633ac-68f6-44f9-ad4d-15ccb472c963"",""projectId"":""a6b6d205-fa41-4c5b-a7a5-7fc4b51b0cea""}","https://test12345.live/?num_scrambled_semantic=8&num_scrambled_causal=4&num_scrambled_schematic=4&participantId=024E7395AC6A492B9B1FE17DCAD596FE&assignmentId=e23633ac-68f6-44f9-ad4d-15ccb472c963&projectId=a6b6d205-fa41-4c5b-a7a5-7fc4b51b0cea","024E7395AC6A492B9B1FE17DCAD596FE-2025-05-27-17-03-39","","1771","","<p style=""font-size:48px; color:red;"">Is Microphone OK?</p>","1","",""
"","","","","","instructions","7","69180","0.0-5.0","024E7395AC6A492B9B1FE17DCAD596FE","024E7395AC6A492B9B1FE17DCAD596FE","e23633ac-68f6-44f9-ad4d-15ccb472c963","a6b6d205-fa41-4c5b-a7a5-7fc4b51b0cea","{""num_scrambled_semantic"":""8"",""num_scrambled_causal"":""4"",""num_scrambled_schematic"":""4"",""participantId"":""024E7395AC6A492B9B1FE17DCAD596FE"",""assignmentId"":""e23633ac-68f6-44f9-ad4d-15ccb472c963"",""projectId"":""a6b6d205-fa41-4c5b-a7a5-7fc4b51b0cea""}","https://test12345.live/?num_scrambled_semantic=8&num_scrambled_causal=4&num_scrambled_schematic=4&participantId=024E7395AC6A492B9B1FE17DCAD596FE&assignmentId=e23633ac-68f6-44f9-ad4d-15ccb472c963&projectId=a6b6d205-fa41-4c5b-a7a5-7fc4b51b0cea","024E7395AC6A492B9B1FE17DCAD596FE-2025-05-27-17-03-39","[{""page_index"":0,""viewing_time"":3268},{""page_index"":1,""viewing_time"":6408}]","9676","","","","",""
"","","","","","image-button-response","8","75201","0.0-6.0-0.0","024E7395AC6A492B9B1FE17DCAD596FE","024E7395AC6A492B9B1FE17DCAD596FE","e23633ac-68f6-44f9-ad4d-15ccb472c963","a6b6d205-fa41-4c5b-a7a5-7fc4b51b0cea","{""num_scrambled_semantic"":""8"",""num_scrambled_causal"":""4"",""num_scrambled_schematic"":""4"",""participantId"":""024E7395AC6A492B9B1FE17DCAD596FE"",""assignmentId"":""e23633ac-68f6-44f9-ad4d-15ccb472c963"",""projectId"":""a6b6d205-fa41-4c5b-a7a5-7fc4b51b0cea""}","https://test12345.live/?num_scrambled_semantic=8&num_scrambled_causal=4&num_scrambled_schematic=4&participantId=024E7395AC6A492B9B1FE17DCAD596FE&assignmentId=e23633ac-68f6-44f9-ad4d-15ccb472c963&projectId=a6b6d205-fa41-4c5b-a7a5-7fc4b51b0cea","024E7395AC6A492B9B1FE17DCAD596FE-2025-05-27-17-03-39","","null","","images/instructions/movie_0.png","null","",""
"","","","","","image-button-response","9","79729","0.0-6.0-1.0-0.0","024E7395AC6A492B9B1FE17DCAD596FE","024E7395AC6A492B9B1FE17DCAD596FE","e23633ac-68f6-44f9-ad4d-15ccb472c963","a6b6d205-fa41-4c5b-a7a5-7fc4b51b0cea","{""num_scrambled_semantic"":""8"",""num_scrambled_causal"":""4"",""num_scrambled_schematic"":""4"",""participantId"":""024E7395AC6A492B9B1FE17DCAD596FE"",""assignmentId"":""e23633ac-68f6-44f9-ad4d-15ccb472c963"",""projectId"":""a6b6d205-fa41-4c5b-a7a5-7fc4b51b0cea""}","https://test12345.live/?num_scrambled_semantic=8&num_scrambled_causal=4&num_scrambled_schematic=4&participantId=024E7395AC6A492B9B1FE17DCAD596FE&assignmentId=e23633ac-68f6-44f9-ad4d-15ccb472c963&projectId=a6b6d205-fa41-4c5b-a7a5-7fc4b51b0cea","024E7395AC6A492B9B1FE17DCAD596FE-2025-05-27-17-03-39","","null","","images/instructions/movie_1.png","null","",""
"","","","","","image-button-response","10","81831","0.0-6.0-1.0-1.0","024E7395AC6A492B9B1FE17DCAD596FE","024E7395AC6A492B9B1FE17DCAD596FE","e23633ac-68f6-44f9-ad4d-15ccb472c963","a6b6d205-fa41-4c5b-a7a5-7fc4b51b0cea","{""num_scrambled_semantic"":""8"",""num_scrambled_causal"":""4"",""num_scrambled_schematic"":""4"",""participantId"":""024E7395AC6A492B9B1FE17DCAD596FE"",""assignmentId"":""e23633ac-68f6-44f9-ad4d-15ccb472c963"",""projectId"":""a6b6d205-fa41-4c5b-a7a5-7fc4b51b0cea""}","https://test12345.live/?num_scrambled_semantic=8&num_scrambled_causal=4&num_scrambled_schematic=4&participantId=024E7395AC6A492B9B1FE17DCAD596FE&assignmentId=e23633ac-68f6-44f9-ad4d-15ccb472c963&projectId=a6b6d205-fa41-4c5b-a7a5-7fc4b51b0cea","024E7395AC6A492B9B1FE17DCAD596FE-2025-05-27-17-03-39","","2101","","images/instructions/movie_1.png","0","",""
"","","","","","image-button-response","11","83632","0.0-6.0-1.0-2.0","024E7395AC6A492B9B1FE17DCAD596FE","024E7395AC6A492B9B1FE17DCAD596FE","e23633ac-68f6-44f9-ad4d-15ccb472c963","a6b6d205-fa41-4c5b-a7a5-7fc4b51b0cea","{""num_scrambled_semantic"":""8"",""num_scrambled_causal"":""4"",""num_scrambled_schematic"":""4"",""participantId"":""024E7395AC6A492B9B1FE17DCAD596FE"",""assignmentId"":""e23633ac-68f6-44f9-ad4d-15ccb472c963"",""projectId"":""a6b6d205-fa41-4c5b-a7a5-7fc4b51b0cea""}","https://test12345.live/?num_scrambled_semantic=8&num_scrambled_causal=4&num_scrambled_schematic=4&participantId=024E7395AC6A492B9B1FE17DCAD596FE&assignmentId=e23633ac-68f6-44f9-ad4d-15ccb472c963&projectId=a6b6d205-fa41-4c5b-a7a5-7fc4b51b0cea","024E7395AC6A492B9B1FE17DCAD596FE-2025-05-27-17-03-39","","null","","[]","null","",""
"","","","","","image-button-response","12","88157","0.0-6.0-1.0-0.1","024E7395AC6A492B9B1FE17DCAD596FE","024E7395AC6A492B9B1FE17DCAD596FE","e23633ac-68f6-44f9-ad4d-15ccb472c963","a6b6d205-fa41-4c5b-a7a5-7fc4b51b0cea","{""num_scrambled_semantic"":""8"",""num_scrambled_causal"":""4"",""num_scrambled_schematic"":""4"",""participantId"":""024E7395AC6A492B9B1FE17DCAD596FE"",""assignmentId"":""e23633ac-68f6-44f9-ad4d-15ccb472c963"",""projectId"":""a6b6d205-fa41-4c5b-a7a5-7fc4b51b0cea""}","https://test12345.live/?num_scrambled_semantic=8&num_scrambled_causal=4&num_scrambled_schematic=4&participantId=024E7395AC6A492B9B1FE17DCAD596FE&assignmentId=e23633ac-68f6-44f9-ad4d-15ccb472c963&projectId=a6b6d205-fa41-4c5b-a7a5-7fc4b51b0cea","024E7395AC6A492B9B1FE17DCAD596FE-2025-05-27-17-03-39","","null","","images/instructions/movie_2.png","null","",""
"","","","","","image-button-response","13","89614","0.0-6.0-1.0-1.1","024E7395AC6A492B9B1FE17DCAD596FE","024E7395AC6A492B9B1FE17DCAD596FE","e23633ac-68f6-44f9-ad4d-15ccb472c963","a6b6d205-fa41-4c5b-a7a5-7fc4b51b0cea","{""num_scrambled_semantic"":""8"",""num_scrambled_causal"":""4"",""num_scrambled_schematic"":""4"",""participantId"":""024E7395AC6A492B9B1FE17DCAD596FE"",""assignmentId"":""e23633ac-68f6-44f9-ad4d-15ccb472c963"",""projectId"":""a6b6d205-fa41-4c5b-a7a5-7fc4b51b0cea""}","https://test12345.live/?num_scrambled_semantic=8&num_scrambled_causal=4&num_scrambled_schematic=4&participantId=024E7395AC6A492B9B1FE17DCAD596FE&assignmentId=e23633ac-68f6-44f9-ad4d-15ccb472c963&projectId=a6b6d205-fa41-4c5b-a7a5-7fc4b51b0cea","024E7395AC6A492B9B1FE17DCAD596FE-2025-05-27-17-03-39","","1455","","images/instructions/movie_2.png","0","",""
"","","","","","image-button-response","14","91415","0.0-6.0-1.0-2.1","024E7395AC6A492B9B1FE17DCAD596FE","024E7395AC6A492B9B1FE17DCAD596FE","e23633ac-68f6-44f9-ad4d-15ccb472c963","a6b6d205-fa41-4c5b-a7a5-7fc4b51b0cea","{""num_scrambled_semantic"":""8"",""num_scrambled_causal"":""4"",""num_scrambled_schematic"":""4"",""participantId"":""024E7395AC6A492B9B1FE17DCAD596FE"",""assignmentId"":""e23633ac-68f6-44f9-ad4d-15ccb472c963"",""projectId"":""a6b6d205-fa41-4c5b-a7a5-7fc4b51b0cea""}","https://test12345.live/?num_scrambled_semantic=8&num_scrambled_causal=4&num_scrambled_schematic=4&participantId=024E7395AC6A492B9B1FE17DCAD596FE&assignmentId=e23633ac-68f6-44f9-ad4d-15ccb472c963&projectId=a6b6d205-fa41-4c5b-a7a5-7fc4b51b0cea","024E7395AC6A492B9B1FE17DCAD596FE-2025-05-27-17-03-39","","null","","[]","null","",""
"","","","","","image-button-response","15","95940","0.0-6.0-1.0-0.2","024E7395AC6A492B9B1FE17DCAD596FE","024E7395AC6A492B9B1FE17DCAD596FE","e23633ac-68f6-44f9-ad4d-15ccb472c963","a6b6d205-fa41-4c5b-a7a5-7fc4b51b0cea","{""num_scrambled_semantic"":""8"",""num_scrambled_causal"":""4"",""num_scrambled_schematic"":""4"",""participantId"":""024E7395AC6A492B9B1FE17DCAD596FE"",""assignmentId"":""e23633ac-68f6-44f9-ad4d-15ccb472c963"",""projectId"":""a6b6d205-fa41-4c5b-a7a5-7fc4b51b0cea""}","https://test12345.live/?num_scrambled_semantic=8&num_scrambled_causal=4&num_scrambled_schematic=4&participantId=024E7395AC6A492B9B1FE17DCAD596FE&assignmentId=e23633ac-68f6-44f9-ad4d-15ccb472c963&projectId=a6b6d205-fa41-4c5b-a7a5-7fc4b51b0cea","024E7395AC6A492B9B1FE17DCAD596FE-2025-05-27-17-03-39","","null","","images/instructions/movie_3.png","null","",""
"","","","","","image-button-response","16","97099","0.0-6.0-1.0-1.2","024E7395AC6A492B9B1FE17DCAD596FE","024E7395AC6A492B9B1FE17DCAD596FE","e23633ac-68f6-44f9-ad4d-15ccb472c963","a6b6d205-fa41-4c5b-a7a5-7fc4b51b0cea","{""num_scrambled_semantic"":""8"",""num_scrambled_causal"":""4"",""num_scrambled_schematic"":""4"",""participantId"":""024E7395AC6A492B9B1FE17DCAD596FE"",""assignmentId"":""e23633ac-68f6-44f9-ad4d-15ccb472c963"",""projectId"":""a6b6d205-fa41-4c5b-a7a5-7fc4b51b0cea""}","https://test12345.live/?num_scrambled_semantic=8&num_scrambled_causal=4&num_scrambled_schematic=4&participantId=024E7395AC6A492B9B1FE17DCAD596FE&assignmentId=e23633ac-68f6-44f9-ad4d-15ccb472c963&projectId=a6b6d205-fa41-4c5b-a7a5-7fc4b51b0cea","024E7395AC6A492B9B1FE17DCAD596FE-2025-05-27-17-03-39","","1158","","images/instructions/movie_3.png","0","",""
"","","","","","image-button-response","17","98900","0.0-6.0-1.0-2.2","024E7395AC6A492B9B1FE17DCAD596FE","024E7395AC6A492B9B1FE17DCAD596FE","e23633ac-68f6-44f9-ad4d-15ccb472c963","a6b6d205-fa41-4c5b-a7a5-7fc4b51b0cea","{""num_scrambled_semantic"":""8"",""num_scrambled_causal"":""4"",""num_scrambled_schematic"":""4"",""participantId"":""024E7395AC6A492B9B1FE17DCAD596FE"",""assignmentId"":""e23633ac-68f6-44f9-ad4d-15ccb472c963"",""projectId"":""a6b6d205-fa41-4c5b-a7a5-7fc4b51b0cea""}","https://test12345.live/?num_scrambled_semantic=8&num_scrambled_causal=4&num_scrambled_schematic=4&participantId=024E7395AC6A492B9B1FE17DCAD596FE&assignmentId=e23633ac-68f6-44f9-ad4d-15ccb472c963&projectId=a6b6d205-fa41-4c5b-a7a5-7fc4b51b0cea","024E7395AC6A492B9B1FE17DCAD596FE-2025-05-27-17-03-39","","null","","[]","null","",""
"","","","","","image-button-response","18","103425","0.0-6.0-1.0-0.3","024E7395AC6A492B9B1FE17DCAD596FE","024E7395AC6A492B9B1FE17DCAD596FE","e23633ac-68f6-44f9-ad4d-15ccb472c963","a6b6d205-fa41-4c5b-a7a5-7fc4b51b0cea","{""num_scrambled_semantic"":""8"",""num_scrambled_causal"":""4"",""num_scrambled_schematic"":""4"",""participantId"":""024E7395AC6A492B9B1FE17DCAD596FE"",""assignmentId"":""e23633ac-68f6-44f9-ad4d-15ccb472c963"",""projectId"":""a6b6d205-fa41-4c5b-a7a5-7fc4b51b0cea""}","https://test12345.live/?num_scrambled_semantic=8&num_scrambled_causal=4&num_scrambled_schematic=4&participantId=024E7395AC6A492B9B1FE17DCAD596FE&assignmentId=e23633ac-68f6-44f9-ad4d-15ccb472c963&projectId=a6b6d205-fa41-4c5b-a7a5-7fc4b51b0cea","024E7395AC6A492B9B1FE17DCAD596FE-2025-05-27-17-03-39","","null","","images/instructions/movie_4.png","null","",""
"","","","","","image-button-response","19","104701","0.0-6.0-1.0-1.3","024E7395AC6A492B9B1FE17DCAD596FE","024E7395AC6A492B9B1FE17DCAD596FE","e23633ac-68f6-44f9-ad4d-15ccb472c963","a6b6d205-fa41-4c5b-a7a5-7fc4b51b0cea","{""num_scrambled_semantic"":""8"",""num_scrambled_causal"":""4"",""num_scrambled_schematic"":""4"",""participantId"":""024E7395AC6A492B9B1FE17DCAD596FE"",""assignmentId"":""e23633ac-68f6-44f9-ad4d-15ccb472c963"",""projectId"":""a6b6d205-fa41-4c5b-a7a5-7fc4b51b0cea""}","https://test12345.live/?num_scrambled_semantic=8&num_scrambled_causal=4&num_scrambled_schematic=4&participantId=024E7395AC6A492B9B1FE17DCAD596FE&assignmentId=e23633ac-68f6-44f9-ad4d-15ccb472c963&projectId=a6b6d205-fa41-4c5b-a7a5-7fc4b51b0cea","024E7395AC6A492B9B1FE17DCAD596FE-2025-05-27-17-03-39","","1275","","images/instructions/movie_4.png","0","",""
"","","","","","image-button-response","20","106503","0.0-6.0-1.0-2.3","024E7395AC6A492B9B1FE17DCAD596FE","024E7395AC6A492B9B1FE17DCAD596FE","e23633ac-68f6-44f9-ad4d-15ccb472c963","a6b6d205-fa41-4c5b-a7a5-7fc4b51b0cea","{""num_scrambled_semantic"":""8"",""num_scrambled_causal"":""4"",""num_scrambled_schematic"":""4"",""participantId"":""024E7395AC6A492B9B1FE17DCAD596FE"",""assignmentId"":""e23633ac-68f6-44f9-ad4d-15ccb472c963"",""projectId"":""a6b6d205-fa41-4c5b-a7a5-7fc4b51b0cea""}","https://test12345.live/?num_scrambled_semantic=8&num_scrambled_causal=4&num_scrambled_schematic=4&participantId=024E7395AC6A492B9B1FE17DCAD596FE&assignmentId=e23633ac-68f6-44f9-ad4d-15ccb472c963&projectId=a6b6d205-fa41-4c5b-a7a5-7fc4b51b0cea","024E7395AC6A492B9B1FE17DCAD596FE-2025-05-27-17-03-39","","null","","[]","null","",""
"","","","","","instructions","21","113793","0.0-7.0","024E7395AC6A492B9B1FE17DCAD596FE","024E7395AC6A492B9B1FE17DCAD596FE","e23633ac-68f6-44f9-ad4d-15ccb472c963","a6b6d205-fa41-4c5b-a7a5-7fc4b51b0cea","{""num_scrambled_semantic"":""8"",""num_scrambled_causal"":""4"",""num_scrambled_schematic"":""4"",""participantId"":""024E7395AC6A492B9B1FE17DCAD596FE"",""assignmentId"":""e23633ac-68f6-44f9-ad4d-15ccb472c963"",""projectId"":""a6b6d205-fa41-4c5b-a7a5-7fc4b51b0cea""}","https://test12345.live/?num_scrambled_semantic=8&num_scrambled_causal=4&num_scrambled_schematic=4&participantId=024E7395AC6A492B9B1FE17DCAD596FE&assignmentId=e23633ac-68f6-44f9-ad4d-15ccb472c963&projectId=a6b6d205-fa41-4c5b-a7a5-7fc4b51b0cea","024E7395AC6A492B9B1FE17DCAD596FE-2025-05-27-17-03-39","[{""page_index"":0,""viewing_time"":5788},{""page_index"":1,""viewing_time"":1501}]","7290","","","","",""
"","","","","","html-audio-response","22","138225","0.0-8.0","024E7395AC6A492B9B1FE17DCAD596FE","024E7395AC6A492B9B1FE17DCAD596FE","e23633ac-68f6-44f9-ad4d-15ccb472c963","a6b6d205-fa41-4c5b-a7a5-7fc4b51b0cea","{""num_scrambled_semantic"":""8"",""num_scrambled_causal"":""4"",""num_scrambled_schematic"":""4"",""participantId"":""024E7395AC6A492B9B1FE17DCAD596FE"",""assignmentId"":""e23633ac-68f6-44f9-ad4d-15ccb472c963"",""projectId"":""a6b6d205-fa41-4c5b-a7a5-7fc4b51b0cea""}","https://test12345.live/?num_scrambled_semantic=8&num_scrambled_causal=4&num_scrambled_schematic=4&participantId=024E7395AC6A492B9B1FE17DCAD596FE&assignmentId=e23633ac-68f6-44f9-ad4d-15ccb472c963&projectId=a6b6d205-fa41-4c5b-a7a5-7fc4b51b0cea","024E7395AC6A492B9B1FE17DCAD596FE-2025-05-27-17-03-39","","8096","","[""<span style=\""color: red; font-size: 24px\""> NOW RECORDING</span><p>Please say out loud all the images you saw in the exact order you saw them. Try to recall as many images as you can, but remember: getting the order right is more important than the number of images you recall.</p>""]","","16",""
"","","","","","instructions","23","139083","0.0-9.0","024E7395AC6A492B9B1FE17DCAD596FE","024E7395AC6A492B9B1FE17DCAD596FE","e23633ac-68f6-44f9-ad4d-15ccb472c963","a6b6d205-fa41-4c5b-a7a5-7fc4b51b0cea","{""num_scrambled_semantic"":""8"",""num_scrambled_causal"":""4"",""num_scrambled_schematic"":""4"",""participantId"":""024E7395AC6A492B9B1FE17DCAD596FE"",""assignmentId"":""e23633ac-68f6-44f9-ad4d-15ccb472c963"",""projectId"":""a6b6d205-fa41-4c5b-a7a5-7fc4b51b0cea""}","https://test12345.live/?num_scrambled_semantic=8&num_scrambled_causal=4&num_scrambled_schematic=4&participantId=024E7395AC6A492B9B1FE17DCAD596FE&assignmentId=e23633ac-68f6-44f9-ad4d-15ccb472c963&projectId=a6b6d205-fa41-4c5b-a7a5-7fc4b51b0cea","024E7395AC6A492B9B1FE17DCAD596FE-2025-05-27-17-03-39","[{""page_index"":0,""viewing_time"":855}]","856","","","","",""
"","","","","","image-button-response","24","145100","0.0-10.0-0.0","024E7395AC6A492B9B1FE17DCAD596FE","024E7395AC6A492B9B1FE17DCAD596FE","e23633ac-68f6-44f9-ad4d-15ccb472c963","a6b6d205-fa41-4c5b-a7a5-7fc4b51b0cea","{""num_scrambled_semantic"":""8"",""num_scrambled_causal"":""4"",""num_scrambled_schematic"":""4"",""participantId"":""024E7395AC6A492B9B1FE17DCAD596FE"",""assignmentId"":""e23633ac-68f6-44f9-ad4d-15ccb472c963"",""projectId"":""a6b6d205-fa41-4c5b-a7a5-7fc4b51b0cea""}","https://test12345.live/?num_scrambled_semantic=8&num_scrambled_causal=4&num_scrambled_schematic=4&participantId=024E7395AC6A492B9B1FE17DCAD596FE&assignmentId=e23633ac-68f6-44f9-ad4d-15ccb472c963&projectId=a6b6d205-fa41-4c5b-a7a5-7fc4b51b0cea","024E7395AC6A492B9B1FE17DCAD596FE-2025-05-27-17-03-39","","null","","images/schematic_sequence/supermarket_scheme/supermarket_scheme_0.png","null","",""
"","","","","","image-button-response","25","149624","0.0-10.0-1.0-0.0","024E7395AC6A492B9B1FE17DCAD596FE","024E7395AC6A492B9B1FE17DCAD596FE","e23633ac-68f6-44f9-ad4d-15ccb472c963","a6b6d205-fa41-4c5b-a7a5-7fc4b51b0cea","{""num_scrambled_semantic"":""8"",""num_scrambled_causal"":""4"",""num_scrambled_schematic"":""4"",""participantId"":""024E7395AC6A492B9B1FE17DCAD596FE"",""assignmentId"":""e23633ac-68f6-44f9-ad4d-15ccb472c963"",""projectId"":""a6b6d205-fa41-4c5b-a7a5-7fc4b51b0cea""}","https://test12345.live/?num_scrambled_semantic=8&num_scrambled_causal=4&num_scrambled_schematic=4&participantId=024E7395AC6A492B9B1FE17DCAD596FE&assignmentId=e23633ac-68f6-44f9-ad4d-15ccb472c963&projectId=a6b6d205-fa41-4c5b-a7a5-7fc4b51b0cea","024E7395AC6A492B9B1FE17DCAD596FE-2025-05-27-17-03-39","","null","","images/schematic_sequence/supermarket_scheme/supermarket_scheme_1.png","null","",""
"","","","","","image-button-response","26","151848","0.0-10.0-1.0-1.0","024E7395AC6A492B9B1FE17DCAD596FE","024E7395AC6A492B9B1FE17DCAD596FE","e23633ac-68f6-44f9-ad4d-15ccb472c963","a6b6d205-fa41-4c5b-a7a5-7fc4b51b0cea","{""num_scrambled_semantic"":""8"",""num_scrambled_causal"":""4"",""num_scrambled_schematic"":""4"",""participantId"":""024E7395AC6A492B9B1FE17DCAD596FE"",""assignmentId"":""e23633ac-68f6-44f9-ad4d-15ccb472c963"",""projectId"":""a6b6d205-fa41-4c5b-a7a5-7fc4b51b0cea""}","https://test12345.live/?num_scrambled_semantic=8&num_scrambled_causal=4&num_scrambled_schematic=4&participantId=024E7395AC6A492B9B1FE17DCAD596FE&assignmentId=e23633ac-68f6-44f9-ad4d-15ccb472c963&projectId=a6b6d205-fa41-4c5b-a7a5-7fc4b51b0cea","024E7395AC6A492B9B1FE17DCAD596FE-2025-05-27-17-03-39","","2223","","images/schematic_sequence/supermarket_scheme/supermarket_scheme_1.png","1","",""
"","","","","","image-button-response","27","153649","0.0-10.0-1.0-2.0","024E7395AC6A492B9B1FE17DCAD596FE","024E7395AC6A492B9B1FE17DCAD596FE","e23633ac-68f6-44f9-ad4d-15ccb472c963","a6b6d205-fa41-4c5b-a7a5-7fc4b51b0cea","{""num_scrambled_semantic"":""8"",""num_scrambled_causal"":""4"",""num_scrambled_schematic"":""4"",""participantId"":""024E7395AC6A492B9B1FE17DCAD596FE"",""assignmentId"":""e23633ac-68f6-44f9-ad4d-15ccb472c963"",""projectId"":""a6b6d205-fa41-4c5b-a7a5-7fc4b51b0cea""}","https://test12345.live/?num_scrambled_semantic=8&num_scrambled_causal=4&num_scrambled_schematic=4&participantId=024E7395AC6A492B9B1FE17DCAD596FE&assignmentId=e23633ac-68f6-44f9-ad4d-15ccb472c963&projectId=a6b6d205-fa41-4c5b-a7a5-7fc4b51b0cea","024E7395AC6A492B9B1FE17DCAD596FE-2025-05-27-17-03-39","","null","","[]","null","",""
"","","","","","image-button-response","28","158171","0.0-10.0-1.0-0.1","024E7395AC6A492B9B1FE17DCAD596FE","024E7395AC6A492B9B1FE17DCAD596FE","e23633ac-68f6-44f9-ad4d-15ccb472c963","a6b6d205-fa41-4c5b-a7a5-7fc4b51b0cea","{""num_scrambled_semantic"":""8"",""num_scrambled_causal"":""4"",""num_scrambled_schematic"":""4"",""participantId"":""024E7395AC6A492B9B1FE17DCAD596FE"",""assignmentId"":""e23633ac-68f6-44f9-ad4d-15ccb472c963"",""projectId"":""a6b6d205-fa41-4c5b-a7a5-7fc4b51b0cea""}","https://test12345.live/?num_scrambled_semantic=8&num_scrambled_causal=4&num_scrambled_schematic=4&participantId=024E7395AC6A492B9B1FE17DCAD596FE&assignmentId=e23633ac-68f6-44f9-ad4d-15ccb472c963&projectId=a6b6d205-fa41-4c5b-a7a5-7fc4b51b0cea","024E7395AC6A492B9B1FE17DCAD596FE-2025-05-27-17-03-39","","null","","images/schematic_sequence/supermarket_scheme/supermarket_scheme_2.png","null","",""
"","","","","","image-button-response","29","159612","0.0-10.0-1.0-1.1","024E7395AC6A492B9B1FE17DCAD596FE","024E7395AC6A492B9B1FE17DCAD596FE","e23633ac-68f6-44f9-ad4d-15ccb472c963","a6b6d205-fa41-4c5b-a7a5-7fc4b51b0cea","{""num_scrambled_semantic"":""8"",""num_scrambled_causal"":""4"",""num_scrambled_schematic"":""4"",""participantId"":""024E7395AC6A492B9B1FE17DCAD596FE"",""assignmentId"":""e23633ac-68f6-44f9-ad4d-15ccb472c963"",""projectId"":""a6b6d205-fa41-4c5b-a7a5-7fc4b51b0cea""}","https://test12345.live/?num_scrambled_semantic=8&num_scrambled_causal=4&num_scrambled_schematic=4&participantId=024E7395AC6A492B9B1FE17DCAD596FE&assignmentId=e23633ac-68f6-44f9-ad4d-15ccb472c963&projectId=a6b6d205-fa41-4c5b-a7a5-7fc4b51b0cea","024E7395AC6A492B9B1FE17DCAD596FE-2025-05-27-17-03-39","","1440","","images/schematic_sequence/supermarket_scheme/supermarket_scheme_2.png","1","",""
"","","","","","image-button-response","30","161413","0.0-10.0-1.0-2.1","024E7395AC6A492B9B1FE17DCAD596FE","024E7395AC6A492B9B1FE17DCAD596FE","e23633ac-68f6-44f9-ad4d-15ccb472c963","a6b6d205-fa41-4c5b-a7a5-7fc4b51b0cea","{""num_scrambled_semantic"":""8"",""num_scrambled_causal"":""4"",""num_scrambled_schematic"":""4"",""participantId"":""024E7395AC6A492B9B1FE17DCAD596FE"",""assignmentId"":""e23633ac-68f6-44f9-ad4d-15ccb472c963"",""projectId"":""a6b6d205-fa41-4c5b-a7a5-7fc4b51b0cea""}","https://test12345.live/?num_scrambled_semantic=8&num_scrambled_causal=4&num_scrambled_schematic=4&participantId=024E7395AC6A492B9B1FE17DCAD596FE&assignmentId=e23633ac-68f6-44f9-ad4d-15ccb472c963&projectId=a6b6d205-fa41-4c5b-a7a5-7fc4b51b0cea","024E7395AC6A492B9B1FE17DCAD596FE-2025-05-27-17-03-39","","null","","[]","null","",""
"","","","","","image-button-response","31","165938","0.0-10.0-1.0-0.2","024E7395AC6A492B9B1FE17DCAD596FE","024E7395AC6A492B9B1FE17DCAD596FE","e23633ac-68f6-44f9-ad4d-15ccb472c963","a6b6d205-fa41-4c5b-a7a5-7fc4b51b0cea","{""num_scrambled_semantic"":""8"",""num_scrambled_causal"":""4"",""num_scrambled_schematic"":""4"",""participantId"":""024E7395AC6A492B9B1FE17DCAD596FE"",""assignmentId"":""e23633ac-68f6-44f9-ad4d-15ccb472c963"",""projectId"":""a6b6d205-fa41-4c5b-a7a5-7fc4b51b0cea""}","https://test12345.live/?num_scrambled_semantic=8&num_scrambled_causal=4&num_scrambled_schematic=4&participantId=024E7395AC6A492B9B1FE17DCAD596FE&assignmentId=e23633ac-68f6-44f9-ad4d-15ccb472c963&projectId=a6b6d205-fa41-4c5b-a7a5-7fc4b51b0cea","024E7395AC6A492B9B1FE17DCAD596FE-2025-05-27-17-03-39","","null","","images/schematic_sequence/supermarket_scheme/supermarket_scheme_ten.png","null","",""
"","","","","","image-button-response","32","166594","0.0-10.0-1.0-1.2","024E7395AC6A492B9B1FE17DCAD596FE","024E7395AC6A492B9B1FE17DCAD596FE","e23633ac-68f6-44f9-ad4d-15ccb472c963","a6b6d205-fa41-4c5b-a7a5-7fc4b51b0cea","{""num_scrambled_semantic"":""8"",""num_scrambled_causal"":""4"",""num_scrambled_schematic"":""4"",""participantId"":""024E7395AC6A492B9B1FE17DCAD596FE"",""assignmentId"":""e23633ac-68f6-44f9-ad4d-15ccb472c963"",""projectId"":""a6b6d205-fa41-4c5b-a7a5-7fc4b51b0cea""}","https://test12345.live/?num_scrambled_semantic=8&num_scrambled_causal=4&num_scrambled_schematic=4&participantId=024E7395AC6A492B9B1FE17DCAD596FE&assignmentId=e23633ac-68f6-44f9-ad4d-15ccb472c963&projectId=a6b6d205-fa41-4c5b-a7a5-7fc4b51b0cea","024E7395AC6A492B9B1FE17DCAD596FE-2025-05-27-17-03-39","","655","","images/schematic_sequence/supermarket_scheme/supermarket_scheme_ten.png","1","",""
"","","","","","image-button-response","33","168396","0.0-10.0-1.0-2.2","024E7395AC6A492B9B1FE17DCAD596FE","024E7395AC6A492B9B1FE17DCAD596FE","e23633ac-68f6-44f9-ad4d-15ccb472c963","a6b6d205-fa41-4c5b-a7a5-7fc4b51b0cea","{""num_scrambled_semantic"":""8"",""num_scrambled_causal"":""4"",""num_scrambled_schematic"":""4"",""participantId"":""024E7395AC6A492B9B1FE17DCAD596FE"",""assignmentId"":""e23633ac-68f6-44f9-ad4d-15ccb472c963"",""projectId"":""a6b6d205-fa41-4c5b-a7a5-7fc4b51b0cea""}","https://test12345.live/?num_scrambled_semantic=8&num_scrambled_causal=4&num_scrambled_schematic=4&participantId=024E7395AC6A492B9B1FE17DCAD596FE&assignmentId=e23633ac-68f6-44f9-ad4d-15ccb472c963&projectId=a6b6d205-fa41-4c5b-a7a5-7fc4b51b0cea","024E7395AC6A492B9B1FE17DCAD596FE-2025-05-27-17-03-39","","null","","[]","null","",""
"","","","","","image-button-response","34","172924","0.0-10.0-1.0-0.3","024E7395AC6A492B9B1FE17DCAD596FE","024E7395AC6A492B9B1FE17DCAD596FE","e23633ac-68f6-44f9-ad4d-15ccb472c963","a6b6d205-fa41-4c5b-a7a5-7fc4b51b0cea","{""num_scrambled_semantic"":""8"",""num_scrambled_causal"":""4"",""num_scrambled_schematic"":""4"",""participantId"":""024E7395AC6A492B9B1FE17DCAD596FE"",""assignmentId"":""e23633ac-68f6-44f9-ad4d-15ccb472c963"",""projectId"":""a6b6d205-fa41-4c5b-a7a5-7fc4b51b0cea""}","https://test12345.live/?num_scrambled_semantic=8&num_scrambled_causal=4&num_scrambled_schematic=4&participantId=024E7395AC6A492B9B1FE17DCAD596FE&assignmentId=e23633ac-68f6-44f9-ad4d-15ccb472c963&projectId=a6b6d205-fa41-4c5b-a7a5-7fc4b51b0cea","024E7395AC6A492B9B1FE17DCAD596FE-2025-05-27-17-03-39","","null","","images/schematic_sequence/supermarket_scheme/supermarket_scheme_5.png","null","",""
"","","","","","image-button-response","35","174157","0.0-10.0-1.0-1.3","024E7395AC6A492B9B1FE17DCAD596FE","024E7395AC6A492B9B1FE17DCAD596FE","e23633ac-68f6-44f9-ad4d-15ccb472c963","a6b6d205-fa41-4c5b-a7a5-7fc4b51b0cea","{""num_scrambled_semantic"":""8"",""num_scrambled_causal"":""4"",""num_scrambled_schematic"":""4"",""participantId"":""024E7395AC6A492B9B1FE17DCAD596FE"",""assignmentId"":""e23633ac-68f6-44f9-ad4d-15ccb472c963"",""projectId"":""a6b6d205-fa41-4c5b-a7a5-7fc4b51b0cea""}","https://test12345.live/?num_scrambled_semantic=8&num_scrambled_causal=4&num_scrambled_schematic=4&participantId=024E7395AC6A492B9B1FE17DCAD596FE&assignmentId=e23633ac-68f6-44f9-ad4d-15ccb472c963&projectId=a6b6d205-fa41-4c5b-a7a5-7fc4b51b0cea","024E7395AC6A492B9B1FE17DCAD596FE-2025-05-27-17-03-39","","1233","","images/schematic_sequence/supermarket_scheme/supermarket_scheme_5.png","1","",""
"","","","","","image-button-response","36","175959","0.0-10.0-1.0-2.3","024E7395AC6A492B9B1FE17DCAD596FE","024E7395AC6A492B9B1FE17DCAD596FE","e23633ac-68f6-44f9-ad4d-15ccb472c963","a6b6d205-fa41-4c5b-a7a5-7fc4b51b0cea","{""num_scrambled_semantic"":""8"",""num_scrambled_causal"":""4"",""num_scrambled_schematic"":""4"",""participantId"":""024E7395AC6A492B9B1FE17DCAD596FE"",""assignmentId"":""e23633ac-68f6-44f9-ad4d-15ccb472c963"",""projectId"":""a6b6d205-fa41-4c5b-a7a5-7fc4b51b0cea""}","https://test12345.live/?num_scrambled_semantic=8&num_scrambled_causal=4&num_scrambled_schematic=4&participantId=024E7395AC6A492B9B1FE17DCAD596FE&assignmentId=e23633ac-68f6-44f9-ad4d-15ccb472c963&projectId=a6b6d205-fa41-4c5b-a7a5-7fc4b51b0cea","024E7395AC6A492B9B1FE17DCAD596FE-2025-05-27-17-03-39","","null","","[]","null","",""
"","","","","","image-button-response","37","180485","0.0-10.0-1.0-0.4","024E7395AC6A492B9B1FE17DCAD596FE","024E7395AC6A492B9B1FE17DCAD596FE","e23633ac-68f6-44f9-ad4d-15ccb472c963","a6b6d205-fa41-4c5b-a7a5-7fc4b51b0cea","{""num_scrambled_semantic"":""8"",""num_scrambled_causal"":""4"",""num_scrambled_schematic"":""4"",""participantId"":""024E7395AC6A492B9B1FE17DCAD596FE"",""assignmentId"":""e23633ac-68f6-44f9-ad4d-15ccb472c963"",""projectId"":""a6b6d205-fa41-4c5b-a7a5-7fc4b51b0cea""}","https://test12345.live/?num_scrambled_semantic=8&num_scrambled_causal=4&num_scrambled_schematic=4&participantId=024E7395AC6A492B9B1FE17DCAD596FE&assignmentId=e23633ac-68f6-44f9-ad4d-15ccb472c963&projectId=a6b6d205-fa41-4c5b-a7a5-7fc4b51b0cea","024E7395AC6A492B9B1FE17DCAD596FE-2025-05-27-17-03-39","","null","","images/schematic_sequence/supermarket_scheme/supermarket_scheme_3.png","null","",""
"","","","","","image-button-response","38","182378","0.0-10.0-1.0-1.4","024E7395AC6A492B9B1FE17DCAD596FE","024E7395AC6A492B9B1FE17DCAD596FE","e23633ac-68f6-44f9-ad4d-15ccb472c963","a6b6d205-fa41-4c5b-a7a5-7fc4b51b0cea","{""num_scrambled_semantic"":""8"",""num_scrambled_causal"":""4"",""num_scrambled_schematic"":""4"",""participantId"":""024E7395AC6A492B9B1FE17DCAD596FE"",""assignmentId"":""e23633ac-68f6-44f9-ad4d-15ccb472c963"",""projectId"":""a6b6d205-fa41-4c5b-a7a5-7fc4b51b0cea""}","https://test12345.live/?num_scrambled_semantic=8&num_scrambled_causal=4&num_scrambled_schematic=4&participantId=024E7395AC6A492B9B1FE17DCAD596FE&assignmentId=e23633ac-68f6-44f9-ad4d-15ccb472c963&projectId=a6b6d205-fa41-4c5b-a7a5-7fc4b51b0cea","024E7395AC6A492B9B1FE17DCAD596FE-2025-05-27-17-03-39","","1892","","images/schematic_sequence/supermarket_scheme/supermarket_scheme_3.png","1","",""
"","","","","","image-button-response","39","184180","0.0-10.0-1.0-2.4","024E7395AC6A492B9B1FE17DCAD596FE","024E7395AC6A492B9B1FE17DCAD596FE","e23633ac-68f6-44f9-ad4d-15ccb472c963","a6b6d205-fa41-4c5b-a7a5-7fc4b51b0cea","{""num_scrambled_semantic"":""8"",""num_scrambled_causal"":""4"",""num_scrambled_schematic"":""4"",""participantId"":""024E7395AC6A492B9B1FE17DCAD596FE"",""assignmentId"":""e23633ac-68f6-44f9-ad4d-15ccb472c963"",""projectId"":""a6b6d205-fa41-4c5b-a7a5-7fc4b51b0cea""}","https://test12345.live/?num_scrambled_semantic=8&num_scrambled_causal=4&num_scrambled_schematic=4&participantId=024E7395AC6A492B9B1FE17DCAD596FE&assignmentId=e23633ac-68f6-44f9-ad4d-15ccb472c963&projectId=a6b6d205-fa41-4c5b-a7a5-7fc4b51b0cea","024E7395AC6A492B9B1FE17DCAD596FE-2025-05-27-17-03-39","","null","","[]","null","",""
"","","","","","image-button-response","40","188707","0.0-10.0-1.0-0.5","024E7395AC6A492B9B1FE17DCAD596FE","024E7395AC6A492B9B1FE17DCAD596FE","e23633ac-68f6-44f9-ad4d-15ccb472c963","a6b6d205-fa41-4c5b-a7a5-7fc4b51b0cea","{""num_scrambled_semantic"":""8"",""num_scrambled_causal"":""4"",""num_scrambled_schematic"":""4"",""participantId"":""024E7395AC6A492B9B1FE17DCAD596FE"",""assignmentId"":""e23633ac-68f6-44f9-ad4d-15ccb472c963"",""projectId"":""a6b6d205-fa41-4c5b-a7a5-7fc4b51b0cea""}","https://test12345.live/?num_scrambled_semantic=8&num_scrambled_causal=4&num_scrambled_schematic=4&participantId=024E7395AC6A492B9B1FE17DCAD596FE&assignmentId=e23633ac-68f6-44f9-ad4d-15ccb472c963&projectId=a6b6d205-fa41-4c5b-a7a5-7fc4b51b0cea","024E7395AC6A492B9B1FE17DCAD596FE-2025-05-27-17-03-39","","null","","images/schematic_sequence/supermarket_scheme/supermarket_scheme_4.png","null","",""
"","","","","","image-button-response","41","191997","0.0-10.0-1.0-1.5","024E7395AC6A492B9B1FE17DCAD596FE","024E7395AC6A492B9B1FE17DCAD596FE","e23633ac-68f6-44f9-ad4d-15ccb472c963","a6b6d205-fa41-4c5b-a7a5-7fc4b51b0cea","{""num_scrambled_semantic"":""8"",""num_scrambled_causal"":""4"",""num_scrambled_schematic"":""4"",""participantId"":""024E7395AC6A492B9B1FE17DCAD596FE"",""assignmentId"":""e23633ac-68f6-44f9-ad4d-15ccb472c963"",""projectId"":""a6b6d205-fa41-4c5b-a7a5-7fc4b51b0cea""}","https://test12345.live/?num_scrambled_semantic=8&num_scrambled_causal=4&num_scrambled_schematic=4&participantId=024E7395AC6A492B9B1FE17DCAD596FE&assignmentId=e23633ac-68f6-44f9-ad4d-15ccb472c963&projectId=a6b6d205-fa41-4c5b-a7a5-7fc4b51b0cea","024E7395AC6A492B9B1FE17DCAD596FE-2025-05-27-17-03-39","","3290","","images/schematic_sequence/supermarket_scheme/supermarket_scheme_4.png","0","",""
"","","","","","image-button-response","42","193798","0.0-10.0-1.0-2.5","024E7395AC6A492B9B1FE17DCAD596FE","024E7395AC6A492B9B1FE17DCAD596FE","e23633ac-68f6-44f9-ad4d-15ccb472c963","a6b6d205-fa41-4c5b-a7a5-7fc4b51b0cea","{""num_scrambled_semantic"":""8"",""num_scrambled_causal"":""4"",""num_scrambled_schematic"":""4"",""participantId"":""024E7395AC6A492B9B1FE17DCAD596FE"",""assignmentId"":""e23633ac-68f6-44f9-ad4d-15ccb472c963"",""projectId"":""a6b6d205-fa41-4c5b-a7a5-7fc4b51b0cea""}","https://test12345.live/?num_scrambled_semantic=8&num_scrambled_causal=4&num_scrambled_schematic=4&participantId=024E7395AC6A492B9B1FE17DCAD596FE&assignmentId=e23633ac-68f6-44f9-ad4d-15ccb472c963&projectId=a6b6d205-fa41-4c5b-a7a5-7fc4b51b0cea","024E7395AC6A492B9B1FE17DCAD596FE-2025-05-27-17-03-39","","null","","[]","null","",""
"","","","","","image-button-response","43","198326","0.0-10.0-1.0-0.6","024E7395AC6A492B9B1FE17DCAD596FE","024E7395AC6A492B9B1FE17DCAD596FE","e23633ac-68f6-44f9-ad4d-15ccb472c963","a6b6d205-fa41-4c5b-a7a5-7fc4b51b0cea","{""num_scrambled_semantic"":""8"",""num_scrambled_causal"":""4"",""num_scrambled_schematic"":""4"",""participantId"":""024E7395AC6A492B9B1FE17DCAD596FE"",""assignmentId"":""e23633ac-68f6-44f9-ad4d-15ccb472c963"",""projectId"":""a6b6d205-fa41-4c5b-a7a5-7fc4b51b0cea""}","https://test12345.live/?num_scrambled_semantic=8&num_scrambled_causal=4&num_scrambled_schematic=4&participantId=024E7395AC6A492B9B1FE17DCAD596FE&assignmentId=e23633ac-68f6-44f9-ad4d-15ccb472c963&projectId=a6b6d205-fa41-4c5b-a7a5-7fc4b51b0cea","024E7395AC6A492B9B1FE17DCAD596FE-2025-05-27-17-03-39","","null","","images/schematic_sequence/supermarket_scheme/supermarket_scheme_7.png","null","",""
"","","","","","image-button-response","44","198982","0.0-10.0-1.0-1.6","024E7395AC6A492B9B1FE17DCAD596FE","024E7395AC6A492B9B1FE17DCAD596FE","e23633ac-68f6-44f9-ad4d-15ccb472c963","a6b6d205-fa41-4c5b-a7a5-7fc4b51b0cea","{""num_scrambled_semantic"":""8"",""num_scrambled_causal"":""4"",""num_scrambled_schematic"":""4"",""participantId"":""024E7395AC6A492B9B1FE17DCAD596FE"",""assignmentId"":""e23633ac-68f6-44f9-ad4d-15ccb472c963"",""projectId"":""a6b6d205-fa41-4c5b-a7a5-7fc4b51b0cea""}","https://test12345.live/?num_scrambled_semantic=8&num_scrambled_causal=4&num_scrambled_schematic=4&participantId=024E7395AC6A492B9B1FE17DCAD596FE&assignmentId=e23633ac-68f6-44f9-ad4d-15ccb472c963&projectId=a6b6d205-fa41-4c5b-a7a5-7fc4b51b0cea","024E7395AC6A492B9B1FE17DCAD596FE-2025-05-27-17-03-39","","655","","images/schematic_sequence/supermarket_scheme/supermarket_scheme_7.png","0","",""
"","","","","","image-button-response","45","200783","0.0-10.0-1.0-2.6","024E7395AC6A492B9B1FE17DCAD596FE","024E7395AC6A492B9B1FE17DCAD596FE","e23633ac-68f6-44f9-ad4d-15ccb472c963","a6b6d205-fa41-4c5b-a7a5-7fc4b51b0cea","{""num_scrambled_semantic"":""8"",""num_scrambled_causal"":""4"",""num_scrambled_schematic"":""4"",""participantId"":""024E7395AC6A492B9B1FE17DCAD596FE"",""assignmentId"":""e23633ac-68f6-44f9-ad4d-15ccb472c963"",""projectId"":""a6b6d205-fa41-4c5b-a7a5-7fc4b51b0cea""}","https://test12345.live/?num_scrambled_semantic=8&num_scrambled_causal=4&num_scrambled_schematic=4&participantId=024E7395AC6A492B9B1FE17DCAD596FE&assignmentId=e23633ac-68f6-44f9-ad4d-15ccb472c963&projectId=a6b6d205-fa41-4c5b-a7a5-7fc4b51b0cea","024E7395AC6A492B9B1FE17DCAD596FE-2025-05-27-17-03-39","","null","","[]","null","",""
"","","","","","image-button-response","46","205316","0.0-10.0-1.0-0.7","024E7395AC6A492B9B1FE17DCAD596FE","024E7395AC6A492B9B1FE17DCAD596FE","e23633ac-68f6-44f9-ad4d-15ccb472c963","a6b6d205-fa41-4c5b-a7a5-7fc4b51b0cea","{""num_scrambled_semantic"":""8"",""num_scrambled_causal"":""4"",""num_scrambled_schematic"":""4"",""participantId"":""024E7395AC6A492B9B1FE17DCAD596FE"",""assignmentId"":""e23633ac-68f6-44f9-ad4d-15ccb472c963"",""projectId"":""a6b6d205-fa41-4c5b-a7a5-7fc4b51b0cea""}","https://test12345.live/?num_scrambled_semantic=8&num_scrambled_causal=4&num_scrambled_schematic=4&participantId=024E7395AC6A492B9B1FE17DCAD596FE&assignmentId=e23633ac-68f6-44f9-ad4d-15ccb472c963&projectId=a6b6d205-fa41-4c5b-a7a5-7fc4b51b0cea","024E7395AC6A492B9B1FE17DCAD596FE-2025-05-27-17-03-39","","null","","images/schematic_sequence/supermarket_scheme/supermarket_scheme_6.png","null","",""
"","","","","","image-button-response","47","209317","0.0-10.0-1.0-1.7","024E7395AC6A492B9B1FE17DCAD596FE","024E7395AC6A492B9B1FE17DCAD596FE","e23633ac-68f6-44f9-ad4d-15ccb472c963","a6b6d205-fa41-4c5b-a7a5-7fc4b51b0cea","{""num_scrambled_semantic"":""8"",""num_scrambled_causal"":""4"",""num_scrambled_schematic"":""4"",""participantId"":""024E7395AC6A492B9B1FE17DCAD596FE"",""assignmentId"":""e23633ac-68f6-44f9-ad4d-15ccb472c963"",""projectId"":""a6b6d205-fa41-4c5b-a7a5-7fc4b51b0cea""}","https://test12345.live/?num_scrambled_semantic=8&num_scrambled_causal=4&num_scrambled_schematic=4&participantId=024E7395AC6A492B9B1FE17DCAD596FE&assignmentId=e23633ac-68f6-44f9-ad4d-15ccb472c963&projectId=a6b6d205-fa41-4c5b-a7a5-7fc4b51b0cea","024E7395AC6A492B9B1FE17DCAD596FE-2025-05-27-17-03-39","","null","","images/schematic_sequence/supermarket_scheme/supermarket_scheme_6.png","null","",""
"","","","","","image-button-response","48","211118","0.0-10.0-1.0-2.7","024E7395AC6A492B9B1FE17DCAD596FE","024E7395AC6A492B9B1FE17DCAD596FE","e23633ac-68f6-44f9-ad4d-15ccb472c963","a6b6d205-fa41-4c5b-a7a5-7fc4b51b0cea","{""num_scrambled_semantic"":""8"",""num_scrambled_causal"":""4"",""num_scrambled_schematic"":""4"",""participantId"":""024E7395AC6A492B9B1FE17DCAD596FE"",""assignmentId"":""e23633ac-68f6-44f9-ad4d-15ccb472c963"",""projectId"":""a6b6d205-fa41-4c5b-a7a5-7fc4b51b0cea""}","https://test12345.live/?num_scrambled_semantic=8&num_scrambled_causal=4&num_scrambled_schematic=4&participantId=024E7395AC6A492B9B1FE17DCAD596FE&assignmentId=e23633ac-68f6-44f9-ad4d-15ccb472c963&projectId=a6b6d205-fa41-4c5b-a7a5-7fc4b51b0cea","024E7395AC6A492B9B1FE17DCAD596FE-2025-05-27-17-03-39","","null","","[]","null","",""
"","","","","","image-button-response","49","215645","0.0-10.0-1.0-0.8","024E7395AC6A492B9B1FE17DCAD596FE","024E7395AC6A492B9B1FE17DCAD596FE","e23633ac-68f6-44f9-ad4d-15ccb472c963","a6b6d205-fa41-4c5b-a7a5-7fc4b51b0cea","{""num_scrambled_semantic"":""8"",""num_scrambled_causal"":""4"",""num_scrambled_schematic"":""4"",""participantId"":""024E7395AC6A492B9B1FE17DCAD596FE"",""assignmentId"":""e23633ac-68f6-44f9-ad4d-15ccb472c963"",""projectId"":""a6b6d205-fa41-4c5b-a7a5-7fc4b51b0cea""}","https://test12345.live/?num_scrambled_semantic=8&num_scrambled_causal=4&num_scrambled_schematic=4&participantId=024E7395AC6A492B9B1FE17DCAD596FE&assignmentId=e23633ac-68f6-44f9-ad4d-15ccb472c963&projectId=a6b6d205-fa41-4c5b-a7a5-7fc4b51b0cea","024E7395AC6A492B9B1FE17DCAD596FE-2025-05-27-17-03-39","","null","","images/schematic_sequence/supermarket_scheme/supermarket_scheme_8.png","null","",""
"","","","","","image-button-response","50","216822","0.0-10.0-1.0-1.8","024E7395AC6A492B9B1FE17DCAD596FE","024E7395AC6A492B9B1FE17DCAD596FE","e23633ac-68f6-44f9-ad4d-15ccb472c963","a6b6d205-fa41-4c5b-a7a5-7fc4b51b0cea","{""num_scrambled_semantic"":""8"",""num_scrambled_causal"":""4"",""num_scrambled_schematic"":""4"",""participantId"":""024E7395AC6A492B9B1FE17DCAD596FE"",""assignmentId"":""e23633ac-68f6-44f9-ad4d-15ccb472c963"",""projectId"":""a6b6d205-fa41-4c5b-a7a5-7fc4b51b0cea""}","https://test12345.live/?num_scrambled_semantic=8&num_scrambled_causal=4&num_scrambled_schematic=4&participantId=024E7395AC6A492B9B1FE17DCAD596FE&assignmentId=e23633ac-68f6-44f9-ad4d-15ccb472c963&projectId=a6b6d205-fa41-4c5b-a7a5-7fc4b51b0cea","024E7395AC6A492B9B1FE17DCAD596FE-2025-05-27-17-03-39","","1177","","images/schematic_sequence/supermarket_scheme/supermarket_scheme_8.png","0","",""
"","","","","","image-button-response","51","218624","0.0-10.0-1.0-2.8","024E7395AC6A492B9B1FE17DCAD596FE","024E7395AC6A492B9B1FE17DCAD596FE","e23633ac-68f6-44f9-ad4d-15ccb472c963","a6b6d205-fa41-4c5b-a7a5-7fc4b51b0cea","{""num_scrambled_semantic"":""8"",""num_scrambled_causal"":""4"",""num_scrambled_schematic"":""4"",""participantId"":""024E7395AC6A492B9B1FE17DCAD596FE"",""assignmentId"":""e23633ac-68f6-44f9-ad4d-15ccb472c963"",""projectId"":""a6b6d205-fa41-4c5b-a7a5-7fc4b51b0cea""}","https://test12345.live/?num_scrambled_semantic=8&num_scrambled_causal=4&num_scrambled_schematic=4&participantId=024E7395AC6A492B9B1FE17DCAD596FE&assignmentId=e23633ac-68f6-44f9-ad4d-15ccb472c963&projectId=a6b6d205-fa41-4c5b-a7a5-7fc4b51b0cea","024E7395AC6A492B9B1FE17DCAD596FE-2025-05-27-17-03-39","","null","","[]","null","",""
"","","","","","image-button-response","52","223151","0.0-10.0-1.0-0.9","024E7395AC6A492B9B1FE17DCAD596FE","024E7395AC6A492B9B1FE17DCAD596FE","e23633ac-68f6-44f9-ad4d-15ccb472c963","a6b6d205-fa41-4c5b-a7a5-7fc4b51b0cea","{""num_scrambled_semantic"":""8"",""num_scrambled_causal"":""4"",""num_scrambled_schematic"":""4"",""participantId"":""024E7395AC6A492B9B1FE17DCAD596FE"",""assignmentId"":""e23633ac-68f6-44f9-ad4d-15ccb472c963"",""projectId"":""a6b6d205-fa41-4c5b-a7a5-7fc4b51b0cea""}","https://test12345.live/?num_scrambled_semantic=8&num_scrambled_causal=4&num_scrambled_schematic=4&participantId=024E7395AC6A492B9B1FE17DCAD596FE&assignmentId=e23633ac-68f6-44f9-ad4d-15ccb472c963&projectId=a6b6d205-fa41-4c5b-a7a5-7fc4b51b0cea","024E7395AC6A492B9B1FE17DCAD596FE-2025-05-27-17-03-39","","null","","images/schematic_sequence/supermarket_scheme/supermarket_scheme_9.png","null","",""
"","","","","","image-button-response","53","223982","0.0-10.0-1.0-1.9","024E7395AC6A492B9B1FE17DCAD596FE","024E7395AC6A492B9B1FE17DCAD596FE","e23633ac-68f6-44f9-ad4d-15ccb472c963","a6b6d205-fa41-4c5b-a7a5-7fc4b51b0cea","{""num_scrambled_semantic"":""8"",""num_scrambled_causal"":""4"",""num_scrambled_schematic"":""4"",""participantId"":""024E7395AC6A492B9B1FE17DCAD596FE"",""assignmentId"":""e23633ac-68f6-44f9-ad4d-15ccb472c963"",""projectId"":""a6b6d205-fa41-4c5b-a7a5-7fc4b51b0cea""}","https://test12345.live/?num_scrambled_semantic=8&num_scrambled_causal=4&num_scrambled_schematic=4&participantId=024E7395AC6A492B9B1FE17DCAD596FE&assignmentId=e23633ac-68f6-44f9-ad4d-15ccb472c963&projectId=a6b6d205-fa41-4c5b-a7a5-7fc4b51b0cea","024E7395AC6A492B9B1FE17DCAD596FE-2025-05-27-17-03-39","","831","","images/schematic_sequence/supermarket_scheme/supermarket_scheme_9.png","0","",""
"","","","","","image-button-response","54","225783","0.0-10.0-1.0-2.9","024E7395AC6A492B9B1FE17DCAD596FE","024E7395AC6A492B9B1FE17DCAD596FE","e23633ac-68f6-44f9-ad4d-15ccb472c963","a6b6d205-fa41-4c5b-a7a5-7fc4b51b0cea","{""num_scrambled_semantic"":""8"",""num_scrambled_causal"":""4"",""num_scrambled_schematic"":""4"",""participantId"":""024E7395AC6A492B9B1FE17DCAD596FE"",""assignmentId"":""e23633ac-68f6-44f9-ad4d-15ccb472c963"",""projectId"":""a6b6d205-fa41-4c5b-a7a5-7fc4b51b0cea""}","https://test12345.live/?num_scrambled_semantic=8&num_scrambled_causal=4&num_scrambled_schematic=4&participantId=024E7395AC6A492B9B1FE17DCAD596FE&assignmentId=e23633ac-68f6-44f9-ad4d-15ccb472c963&projectId=a6b6d205-fa41-4c5b-a7a5-7fc4b51b0cea","024E7395AC6A492B9B1FE17DCAD596FE-2025-05-27-17-03-39","","null","","[]","null","",""
"","","","","","html-audio-response","55","244758","0.0-11.0","024E7395AC6A492B9B1FE17DCAD596FE","024E7395AC6A492B9B1FE17DCAD596FE","e23633ac-68f6-44f9-ad4d-15ccb472c963","a6b6d205-fa41-4c5b-a7a5-7fc4b51b0cea","{""num_scrambled_semantic"":""8"",""num_scrambled_causal"":""4"",""num_scrambled_schematic"":""4"",""participantId"":""024E7395AC6A492B9B1FE17DCAD596FE"",""assignmentId"":""e23633ac-68f6-44f9-ad4d-15ccb472c963"",""projectId"":""a6b6d205-fa41-4c5b-a7a5-7fc4b51b0cea""}","https://test12345.live/?num_scrambled_semantic=8&num_scrambled_causal=4&num_scrambled_schematic=4&participantId=024E7395AC6A492B9B1FE17DCAD596FE&assignmentId=e23633ac-68f6-44f9-ad4d-15ccb472c963&projectId=a6b6d205-fa41-4c5b-a7a5-7fc4b51b0cea","024E7395AC6A492B9B1FE17DCAD596FE-2025-05-27-17-03-39","","18087","","[""<span style=\""color: red; font-size: 24px\""> NOW RECORDING</span><p>Please say out loud all the images you saw, in the exact order you saw them. Try to recall as many images as you can, but remember: getting the order right is more important than the number of images you recall.</p>""]","","9","supermarket_scheme"
"","","","","","image-button-response","56","250780","0.0-12.0-0.0","024E7395AC6A492B9B1FE17DCAD596FE","024E7395AC6A492B9B1FE17DCAD596FE","e23633ac-68f6-44f9-ad4d-15ccb472c963","a6b6d205-fa41-4c5b-a7a5-7fc4b51b0cea","{""num_scrambled_semantic"":""8"",""num_scrambled_causal"":""4"",""num_scrambled_schematic"":""4"",""participantId"":""024E7395AC6A492B9B1FE17DCAD596FE"",""assignmentId"":""e23633ac-68f6-44f9-ad4d-15ccb472c963"",""projectId"":""a6b6d205-fa41-4c5b-a7a5-7fc4b51b0cea""}","https://test12345.live/?num_scrambled_semantic=8&num_scrambled_causal=4&num_scrambled_schematic=4&participantId=024E7395AC6A492B9B1FE17DCAD596FE&assignmentId=e23633ac-68f6-44f9-ad4d-15ccb472c963&projectId=a6b6d205-fa41-4c5b-a7a5-7fc4b51b0cea","024E7395AC6A492B9B1FE17DCAD596FE-2025-05-27-17-03-39","","null","","images/causal_sequence/the_performance_causal/the_performance_causal_0.png","null","",""
"","","","","","image-button-response","57","255309","0.0-12.0-1.0-0.0","024E7395AC6A492B9B1FE17DCAD596FE","024E7395AC6A492B9B1FE17DCAD596FE","e23633ac-68f6-44f9-ad4d-15ccb472c963","a6b6d205-fa41-4c5b-a7a5-7fc4b51b0cea","{""num_scrambled_semantic"":""8"",""num_scrambled_causal"":""4"",""num_scrambled_schematic"":""4"",""participantId"":""024E7395AC6A492B9B1FE17DCAD596FE"",""assignmentId"":""e23633ac-68f6-44f9-ad4d-15ccb472c963"",""projectId"":""a6b6d205-fa41-4c5b-a7a5-7fc4b51b0cea""}","https://test12345.live/?num_scrambled_semantic=8&num_scrambled_causal=4&num_scrambled_schematic=4&participantId=024E7395AC6A492B9B1FE17DCAD596FE&assignmentId=e23633ac-68f6-44f9-ad4d-15ccb472c963&projectId=a6b6d205-fa41-4c5b-a7a5-7fc4b51b0cea","024E7395AC6A492B9B1FE17DCAD596FE-2025-05-27-17-03-39","","null","","images/causal_sequence/the_performance_causal/the_performance_causal_2.png","null","",""
"","","","","","image-button-response","58","257354","0.0-12.0-1.0-1.0","024E7395AC6A492B9B1FE17DCAD596FE","024E7395AC6A492B9B1FE17DCAD596FE","e23633ac-68f6-44f9-ad4d-15ccb472c963","a6b6d205-fa41-4c5b-a7a5-7fc4b51b0cea","{""num_scrambled_semantic"":""8"",""num_scrambled_causal"":""4"",""num_scrambled_schematic"":""4"",""participantId"":""024E7395AC6A492B9B1FE17DCAD596FE"",""assignmentId"":""e23633ac-68f6-44f9-ad4d-15ccb472c963"",""projectId"":""a6b6d205-fa41-4c5b-a7a5-7fc4b51b0cea""}","https://test12345.live/?num_scrambled_semantic=8&num_scrambled_causal=4&num_scrambled_schematic=4&participantId=024E7395AC6A492B9B1FE17DCAD596FE&assignmentId=e23633ac-68f6-44f9-ad4d-15ccb472c963&projectId=a6b6d205-fa41-4c5b-a7a5-7fc4b51b0cea","024E7395AC6A492B9B1FE17DCAD596FE-2025-05-27-17-03-39","","2044","","images/causal_sequence/the_performance_causal/the_performance_causal_2.png","0","",""
"","","","","","image-button-response","59","259155","0.0-12.0-1.0-2.0","024E7395AC6A492B9B1FE17DCAD596FE","024E7395AC6A492B9B1FE17DCAD596FE","e23633ac-68f6-44f9-ad4d-15ccb472c963","a6b6d205-fa41-4c5b-a7a5-7fc4b51b0cea","{""num_scrambled_semantic"":""8"",""num_scrambled_causal"":""4"",""num_scrambled_schematic"":""4"",""participantId"":""024E7395AC6A492B9B1FE17DCAD596FE"",""assignmentId"":""e23633ac-68f6-44f9-ad4d-15ccb472c963"",""projectId"":""a6b6d205-fa41-4c5b-a7a5-7fc4b51b0cea""}","https://test12345.live/?num_scrambled_semantic=8&num_scrambled_causal=4&num_scrambled_schematic=4&participantId=024E7395AC6A492B9B1FE17DCAD596FE&assignmentId=e23633ac-68f6-44f9-ad4d-15ccb472c963&projectId=a6b6d205-fa41-4c5b-a7a5-7fc4b51b0cea","024E7395AC6A492B9B1FE17DCAD596FE-2025-05-27-17-03-39","","null","","[]","null","",""
"","","","","","image-button-response","60","263686","0.0-12.0-1.0-0.1","024E7395AC6A492B9B1FE17DCAD596FE","024E7395AC6A492B9B1FE17DCAD596FE","e23633ac-68f6-44f9-ad4d-15ccb472c963","a6b6d205-fa41-4c5b-a7a5-7fc4b51b0cea","{""num_scrambled_semantic"":""8"",""num_scrambled_causal"":""4"",""num_scrambled_schematic"":""4"",""participantId"":""024E7395AC6A492B9B1FE17DCAD596FE"",""assignmentId"":""e23633ac-68f6-44f9-ad4d-15ccb472c963"",""projectId"":""a6b6d205-fa41-4c5b-a7a5-7fc4b51b0cea""}","https://test12345.live/?num_scrambled_semantic=8&num_scrambled_causal=4&num_scrambled_schematic=4&participantId=024E7395AC6A492B9B1FE17DCAD596FE&assignmentId=e23633ac-68f6-44f9-ad4d-15ccb472c963&projectId=a6b6d205-fa41-4c5b-a7a5-7fc4b51b0cea","024E7395AC6A492B9B1FE17DCAD596FE-2025-05-27-17-03-39","","null","","images/causal_sequence/the_performance_causal/the_performance_causal_4.png","null","",""
"","","","","","image-button-response","61","264750","0.0-12.0-1.0-1.1","024E7395AC6A492B9B1FE17DCAD596FE","024E7395AC6A492B9B1FE17DCAD596FE","e23633ac-68f6-44f9-ad4d-15ccb472c963","a6b6d205-fa41-4c5b-a7a5-7fc4b51b0cea","{""num_scrambled_semantic"":""8"",""num_scrambled_causal"":""4"",""num_scrambled_schematic"":""4"",""participantId"":""024E7395AC6A492B9B1FE17DCAD596FE"",""assignmentId"":""e23633ac-68f6-44f9-ad4d-15ccb472c963"",""projectId"":""a6b6d205-fa41-4c5b-a7a5-7fc4b51b0cea""}","https://test12345.live/?num_scrambled_semantic=8&num_scrambled_causal=4&num_scrambled_schematic=4&participantId=024E7395AC6A492B9B1FE17DCAD596FE&assignmentId=e23633ac-68f6-44f9-ad4d-15ccb472c963&projectId=a6b6d205-fa41-4c5b-a7a5-7fc4b51b0cea","024E7395AC6A492B9B1FE17DCAD596FE-2025-05-27-17-03-39","","1062","","images/causal_sequence/the_performance_causal/the_performance_causal_4.png","0","",""
"","","","","","image-button-response","62","266551","0.0-12.0-1.0-2.1","024E7395AC6A492B9B1FE17DCAD596FE","024E7395AC6A492B9B1FE17DCAD596FE","e23633ac-68f6-44f9-ad4d-15ccb472c963","a6b6d205-fa41-4c5b-a7a5-7fc4b51b0cea","{""num_scrambled_semantic"":""8"",""num_scrambled_causal"":""4"",""num_scrambled_schematic"":""4"",""participantId"":""024E7395AC6A492B9B1FE17DCAD596FE"",""assignmentId"":""e23633ac-68f6-44f9-ad4d-15ccb472c963"",""projectId"":""a6b6d205-fa41-4c5b-a7a5-7fc4b51b0cea""}","https://test12345.live/?num_scrambled_semantic=8&num_scrambled_causal=4&num_scrambled_schematic=4&participantId=024E7395AC6A492B9B1FE17DCAD596FE&assignmentId=e23633ac-68f6-44f9-ad4d-15ccb472c963&projectId=a6b6d205-fa41-4c5b-a7a5-7fc4b51b0cea","024E7395AC6A492B9B1FE17DCAD596FE-2025-05-27-17-03-39","","null","","[]","null","",""
"","","","","","image-button-response","63","271075","0.0-12.0-1.0-0.2","024E7395AC6A492B9B1FE17DCAD596FE","024E7395AC6A492B9B1FE17DCAD596FE","e23633ac-68f6-44f9-ad4d-15ccb472c963","a6b6d205-fa41-4c5b-a7a5-7fc4b51b0cea","{""num_scrambled_semantic"":""8"",""num_scrambled_causal"":""4"",""num_scrambled_schematic"":""4"",""participantId"":""024E7395AC6A492B9B1FE17DCAD596FE"",""assignmentId"":""e23633ac-68f6-44f9-ad4d-15ccb472c963"",""projectId"":""a6b6d205-fa41-4c5b-a7a5-7fc4b51b0cea""}","https://test12345.live/?num_scrambled_semantic=8&num_scrambled_causal=4&num_scrambled_schematic=4&participantId=024E7395AC6A492B9B1FE17DCAD596FE&assignmentId=e23633ac-68f6-44f9-ad4d-15ccb472c963&projectId=a6b6d205-fa41-4c5b-a7a5-7fc4b51b0cea","024E7395AC6A492B9B1FE17DCAD596FE-2025-05-27-17-03-39","","null","","images/causal_sequence/the_performance_causal/the_performance_causal_ten.png","null","",""
"","","","","","image-button-response","64","274211","0.0-12.0-1.0-1.2","024E7395AC6A492B9B1FE17DCAD596FE","024E7395AC6A492B9B1FE17DCAD596FE","e23633ac-68f6-44f9-ad4d-15ccb472c963","a6b6d205-fa41-4c5b-a7a5-7fc4b51b0cea","{""num_scrambled_semantic"":""8"",""num_scrambled_causal"":""4"",""num_scrambled_schematic"":""4"",""participantId"":""024E7395AC6A492B9B1FE17DCAD596FE"",""assignmentId"":""e23633ac-68f6-44f9-ad4d-15ccb472c963"",""projectId"":""a6b6d205-fa41-4c5b-a7a5-7fc4b51b0cea""}","https://test12345.live/?num_scrambled_semantic=8&num_scrambled_causal=4&num_scrambled_schematic=4&participantId=024E7395AC6A492B9B1FE17DCAD596FE&assignmentId=e23633ac-68f6-44f9-ad4d-15ccb472c963&projectId=a6b6d205-fa41-4c5b-a7a5-7fc4b51b0cea","024E7395AC6A492B9B1FE17DCAD596FE-2025-05-27-17-03-39","","3135","","images/causal_sequence/the_performance_causal/the_performance_causal_ten.png","0","",""
"","","","","","image-button-response","65","276012","0.0-12.0-1.0-2.2","024E7395AC6A492B9B1FE17DCAD596FE","024E7395AC6A492B9B1FE17DCAD596FE","e23633ac-68f6-44f9-ad4d-15ccb472c963","a6b6d205-fa41-4c5b-a7a5-7fc4b51b0cea","{""num_scrambled_semantic"":""8"",""num_scrambled_causal"":""4"",""num_scrambled_schematic"":""4"",""participantId"":""024E7395AC6A492B9B1FE17DCAD596FE"",""assignmentId"":""e23633ac-68f6-44f9-ad4d-15ccb472c963"",""projectId"":""a6b6d205-fa41-4c5b-a7a5-7fc4b51b0cea""}","https://test12345.live/?num_scrambled_semantic=8&num_scrambled_causal=4&num_scrambled_schematic=4&participantId=024E7395AC6A492B9B1FE17DCAD596FE&assignmentId=e23633ac-68f6-44f9-ad4d-15ccb472c963&projectId=a6b6d205-fa41-4c5b-a7a5-7fc4b51b0cea","024E7395AC6A492B9B1FE17DCAD596FE-2025-05-27-17-03-39","","null","","[]","null","",""
"","","","","","image-button-response","66","280539","0.0-12.0-1.0-0.3","024E7395AC6A492B9B1FE17DCAD596FE","024E7395AC6A492B9B1FE17DCAD596FE","e23633ac-68f6-44f9-ad4d-15ccb472c963","a6b6d205-fa41-4c5b-a7a5-7fc4b51b0cea","{""num_scrambled_semantic"":""8"",""num_scrambled_causal"":""4"",""num_scrambled_schematic"":""4"",""participantId"":""024E7395AC6A492B9B1FE17DCAD596FE"",""assignmentId"":""e23633ac-68f6-44f9-ad4d-15ccb472c963"",""projectId"":""a6b6d205-fa41-4c5b-a7a5-7fc4b51b0cea""}","https://test12345.live/?num_scrambled_semantic=8&num_scrambled_causal=4&num_scrambled_schematic=4&participantId=024E7395AC6A492B9B1FE17DCAD596FE&assignmentId=e23633ac-68f6-44f9-ad4d-15ccb472c963&projectId=a6b6d205-fa41-4c5b-a7a5-7fc4b51b0cea","024E7395AC6A492B9B1FE17DCAD596FE-2025-05-27-17-03-39","","null","","images/causal_sequence/the_performance_causal/the_performance_causal_7.png","null","",""
"","","","","","image-button-response","67","281427","0.0-12.0-1.0-1.3","024E7395AC6A492B9B1FE17DCAD596FE","024E7395AC6A492B9B1FE17DCAD596FE","e23633ac-68f6-44f9-ad4d-15ccb472c963","a6b6d205-fa41-4c5b-a7a5-7fc4b51b0cea","{""num_scrambled_semantic"":""8"",""num_scrambled_causal"":""4"",""num_scrambled_schematic"":""4"",""participantId"":""024E7395AC6A492B9B1FE17DCAD596FE"",""assignmentId"":""e23633ac-68f6-44f9-ad4d-15ccb472c963"",""projectId"":""a6b6d205-fa41-4c5b-a7a5-7fc4b51b0cea""}","https://test12345.live/?num_scrambled_semantic=8&num_scrambled_causal=4&num_scrambled_schematic=4&participantId=024E7395AC6A492B9B1FE17DCAD596FE&assignmentId=e23633ac-68f6-44f9-ad4d-15ccb472c963&projectId=a6b6d205-fa41-4c5b-a7a5-7fc4b51b0cea","024E7395AC6A492B9B1FE17DCAD596FE-2025-05-27-17-03-39","","886","","images/causal_sequence/the_performance_causal/the_performance_causal_7.png","0","",""
"","","","","","image-button-response","68","283228","0.0-12.0-1.0-2.3","024E7395AC6A492B9B1FE17DCAD596FE","024E7395AC6A492B9B1FE17DCAD596FE","e23633ac-68f6-44f9-ad4d-15ccb472c963","a6b6d205-fa41-4c5b-a7a5-7fc4b51b0cea","{""num_scrambled_semantic"":""8"",""num_scrambled_causal"":""4"",""num_scrambled_schematic"":""4"",""participantId"":""024E7395AC6A492B9B1FE17DCAD596FE"",""assignmentId"":""e23633ac-68f6-44f9-ad4d-15ccb472c963"",""projectId"":""a6b6d205-fa41-4c5b-a7a5-7fc4b51b0cea""}","https://test12345.live/?num_scrambled_semantic=8&num_scrambled_causal=4&num_scrambled_schematic=4&participantId=024E7395AC6A492B9B1FE17DCAD596FE&assignmentId=e23633ac-68f6-44f9-ad4d-15ccb472c963&projectId=a6b6d205-fa41-4c5b-a7a5-7fc4b51b0cea","024E7395AC6A492B9B1FE17DCAD596FE-2025-05-27-17-03-39","","null","","[]","null","",""
"","","","","","image-button-response","69","287755","0.0-12.0-1.0-0.4","024E7395AC6A492B9B1FE17DCAD596FE","024E7395AC6A492B9B1FE17DCAD596FE","e23633ac-68f6-44f9-ad4d-15ccb472c963","a6b6d205-fa41-4c5b-a7a5-7fc4b51b0cea","{""num_scrambled_semantic"":""8"",""num_scrambled_causal"":""4"",""num_scrambled_schematic"":""4"",""participantId"":""024E7395AC6A492B9B1FE17DCAD596FE"",""assignmentId"":""e23633ac-68f6-44f9-ad4d-15ccb472c963"",""projectId"":""a6b6d205-fa41-4c5b-a7a5-7fc4b51b0cea""}","https://test12345.live/?num_scrambled_semantic=8&num_scrambled_causal=4&num_scrambled_schematic=4&participantId=024E7395AC6A492B9B1FE17DCAD596FE&assignmentId=e23633ac-68f6-44f9-ad4d-15ccb472c963&projectId=a6b6d205-fa41-4c5b-a7a5-7fc4b51b0cea","024E7395AC6A492B9B1FE17DCAD596FE-2025-05-27-17-03-39","","null","","images/causal_sequence/the_performance_causal/the_performance_causal_5.png","null","",""
"","","","","","image-button-response","70","291106","0.0-12.0-1.0-1.4","024E7395AC6A492B9B1FE17DCAD596FE","024E7395AC6A492B9B1FE17DCAD596FE","e23633ac-68f6-44f9-ad4d-15ccb472c963","a6b6d205-fa41-4c5b-a7a5-7fc4b51b0cea","{""num_scrambled_semantic"":""8"",""num_scrambled_causal"":""4"",""num_scrambled_schematic"":""4"",""participantId"":""024E7395AC6A492B9B1FE17DCAD596FE"",""assignmentId"":""e23633ac-68f6-44f9-ad4d-15ccb472c963"",""projectId"":""a6b6d205-fa41-4c5b-a7a5-7fc4b51b0cea""}","https://test12345.live/?num_scrambled_semantic=8&num_scrambled_causal=4&num_scrambled_schematic=4&participantId=024E7395AC6A492B9B1FE17DCAD596FE&assignmentId=e23633ac-68f6-44f9-ad4d-15ccb472c963&projectId=a6b6d205-fa41-4c5b-a7a5-7fc4b51b0cea","024E7395AC6A492B9B1FE17DCAD596FE-2025-05-27-17-03-39","","3351","","images/causal_sequence/the_performance_causal/the_performance_causal_5.png","0","",""
"","","","","","image-button-response","71","292907","0.0-12.0-1.0-2.4","024E7395AC6A492B9B1FE17DCAD596FE","024E7395AC6A492B9B1FE17DCAD596FE","e23633ac-68f6-44f9-ad4d-15ccb472c963","a6b6d205-fa41-4c5b-a7a5-7fc4b51b0cea","{""num_scrambled_semantic"":""8"",""num_scrambled_causal"":""4"",""num_scrambled_schematic"":""4"",""participantId"":""024E7395AC6A492B9B1FE17DCAD596FE"",""assignmentId"":""e23633ac-68f6-44f9-ad4d-15ccb472c963"",""projectId"":""a6b6d205-fa41-4c5b-a7a5-7fc4b51b0cea""}","https://test12345.live/?num_scrambled_semantic=8&num_scrambled_causal=4&num_scrambled_schematic=4&participantId=024E7395AC6A492B9B1FE17DCAD596FE&assignmentId=e23633ac-68f6-44f9-ad4d-15ccb472c963&projectId=a6b6d205-fa41-4c5b-a7a5-7fc4b51b0cea","024E7395AC6A492B9B1FE17DCAD596FE-2025-05-27-17-03-39","","null","","[]","null","",""
"","","","","","image-button-response","72","297433","0.0-12.0-1.0-0.5","024E7395AC6A492B9B1FE17DCAD596FE","024E7395AC6A492B9B1FE17DCAD596FE","e23633ac-68f6-44f9-ad4d-15ccb472c963","a6b6d205-fa41-4c5b-a7a5-7fc4b51b0cea","{""num_scrambled_semantic"":""8"",""num_scrambled_causal"":""4"",""num_scrambled_schematic"":""4"",""participantId"":""024E7395AC6A492B9B1FE17DCAD596FE"",""assignmentId"":""e23633ac-68f6-44f9-ad4d-15ccb472c963"",""projectId"":""a6b6d205-fa41-4c5b-a7a5-7fc4b51b0cea""}","https://test12345.live/?num_scrambled_semantic=8&num_scrambled_causal=4&num_scrambled_schematic=4&participantId=024E7395AC6A492B9B1FE17DCAD596FE&assignmentId=e23633ac-68f6-44f9-ad4d-15ccb472c963&projectId=a6b6d205-fa41-4c5b-a7a5-7fc4b51b0cea","024E7395AC6A492B9B1FE17DCAD596FE-2025-05-27-17-03-39","","null","","images/causal_sequence/the_performance_causal/the_performance_causal_3.png","null","",""
"","","","","","image-button-response","73","299768","0.0-12.0-1.0-1.5","024E7395AC6A492B9B1FE17DCAD596FE","024E7395AC6A492B9B1FE17DCAD596FE","e23633ac-68f6-44f9-ad4d-15ccb472c963","a6b6d205-fa41-4c5b-a7a5-7fc4b51b0cea","{""num_scrambled_semantic"":""8"",""num_scrambled_causal"":""4"",""num_scrambled_schematic"":""4"",""participantId"":""024E7395AC6A492B9B1FE17DCAD596FE"",""assignmentId"":""e23633ac-68f6-44f9-ad4d-15ccb472c963"",""projectId"":""a6b6d205-fa41-4c5b-a7a5-7fc4b51b0cea""}","https://test12345.live/?num_scrambled_semantic=8&num_scrambled_causal=4&num_scrambled_schematic=4&participantId=024E7395AC6A492B9B1FE17DCAD596FE&assignmentId=e23633ac-68f6-44f9-ad4d-15ccb472c963&projectId=a6b6d205-fa41-4c5b-a7a5-7fc4b51b0cea","024E7395AC6A492B9B1FE17DCAD596FE-2025-05-27-17-03-39","","2334","","images/causal_sequence/the_performance_causal/the_performance_causal_3.png","0","",""
"","","","","","image-button-response","74","301569","0.0-12.0-1.0-2.5","024E7395AC6A492B9B1FE17DCAD596FE","024E7395AC6A492B9B1FE17DCAD596FE","e23633ac-68f6-44f9-ad4d-15ccb472c963","a6b6d205-fa41-4c5b-a7a5-7fc4b51b0cea","{""num_scrambled_semantic"":""8"",""num_scrambled_causal"":""4"",""num_scrambled_schematic"":""4"",""participantId"":""024E7395AC6A492B9B1FE17DCAD596FE"",""assignmentId"":""e23633ac-68f6-44f9-ad4d-15ccb472c963"",""projectId"":""a6b6d205-fa41-4c5b-a7a5-7fc4b51b0cea""}","https://test12345.live/?num_scrambled_semantic=8&num_scrambled_causal=4&num_scrambled_schematic=4&participantId=024E7395AC6A492B9B1FE17DCAD596FE&assignmentId=e23633ac-68f6-44f9-ad4d-15ccb472c963&projectId=a6b6d205-fa41-4c5b-a7a5-7fc4b51b0cea","024E7395AC6A492B9B1FE17DCAD596FE-2025-05-27-17-03-39","","null","","[]","null","",""
"","","","","","image-button-response","75","306096","0.0-12.0-1.0-0.6","024E7395AC6A492B9B1FE17DCAD596FE","024E7395AC6A492B9B1FE17DCAD596FE","e23633ac-68f6-44f9-ad4d-15ccb472c963","a6b6d205-fa41-4c5b-a7a5-7fc4b51b0cea","{""num_scrambled_semantic"":""8"",""num_scrambled_causal"":""4"",""num_scrambled_schematic"":""4"",""participantId"":""024E7395AC6A492B9B1FE17DCAD596FE"",""assignmentId"":""e23633ac-68f6-44f9-ad4d-15ccb472c963"",""projectId"":""a6b6d205-fa41-4c5b-a7a5-7fc4b51b0cea""}","https://test12345.live/?num_scrambled_semantic=8&num_scrambled_causal=4&num_scrambled_schematic=4&participantId=024E7395AC6A492B9B1FE17DCAD596FE&assignmentId=e23633ac-68f6-44f9-ad4d-15ccb472c963&projectId=a6b6d205-fa41-4c5b-a7a5-7fc4b51b0cea","024E7395AC6A492B9B1FE17DCAD596FE-2025-05-27-17-03-39","","null","","images/causal_sequence/the_performance_causal/the_performance_causal_1.png","null","",""
"","","","","","image-button-response","76","306783","0.0-12.0-1.0-1.6","024E7395AC6A492B9B1FE17DCAD596FE","024E7395AC6A492B9B1FE17DCAD596FE","e23633ac-68f6-44f9-ad4d-15ccb472c963","a6b6d205-fa41-4c5b-a7a5-7fc4b51b0cea","{""num_scrambled_semantic"":""8"",""num_scrambled_causal"":""4"",""num_scrambled_schematic"":""4"",""participantId"":""024E7395AC6A492B9B1FE17DCAD596FE"",""assignmentId"":""e23633ac-68f6-44f9-ad4d-15ccb472c963"",""projectId"":""a6b6d205-fa41-4c5b-a7a5-7fc4b51b0cea""}","https://test12345.live/?num_scrambled_semantic=8&num_scrambled_causal=4&num_scrambled_schematic=4&participantId=024E7395AC6A492B9B1FE17DCAD596FE&assignmentId=e23633ac-68f6-44f9-ad4d-15ccb472c963&projectId=a6b6d205-fa41-4c5b-a7a5-7fc4b51b0cea","024E7395AC6A492B9B1FE17DCAD596FE-2025-05-27-17-03-39","","686","","images/causal_sequence/the_performance_causal/the_performance_causal_1.png","0","",""
"","","","","","image-button-response","77","308584","0.0-12.0-1.0-2.6","024E7395AC6A492B9B1FE17DCAD596FE","024E7395AC6A492B9B1FE17DCAD596FE","e23633ac-68f6-44f9-ad4d-15ccb472c963","a6b6d205-fa41-4c5b-a7a5-7fc4b51b0cea","{""num_scrambled_semantic"":""8"",""num_scrambled_causal"":""4"",""num_scrambled_schematic"":""4"",""participantId"":""024E7395AC6A492B9B1FE17DCAD596FE"",""assignmentId"":""e23633ac-68f6-44f9-ad4d-15ccb472c963"",""projectId"":""a6b6d205-fa41-4c5b-a7a5-7fc4b51b0cea""}","https://test12345.live/?num_scrambled_semantic=8&num_scrambled_causal=4&num_scrambled_schematic=4&participantId=024E7395AC6A492B9B1FE17DCAD596FE&assignmentId=e23633ac-68f6-44f9-ad4d-15ccb472c963&projectId=a6b6d205-fa41-4c5b-a7a5-7fc4b51b0cea","024E7395AC6A492B9B1FE17DCAD596FE-2025-05-27-17-03-39","","null","","[]","null","",""
"","","","","","image-button-response","78","313109","0.0-12.0-1.0-0.7","024E7395AC6A492B9B1FE17DCAD596FE","024E7395AC6A492B9B1FE17DCAD596FE","e23633ac-68f6-44f9-ad4d-15ccb472c963","a6b6d205-fa41-4c5b-a7a5-7fc4b51b0cea","{""num_scrambled_semantic"":""8"",""num_scrambled_causal"":""4"",""num_scrambled_schematic"":""4"",""participantId"":""024E7395AC6A492B9B1FE17DCAD596FE"",""assignmentId"":""e23633ac-68f6-44f9-ad4d-15ccb472c963"",""projectId"":""a6b6d205-fa41-4c5b-a7a5-7fc4b51b0cea""}","https://test12345.live/?num_scrambled_semantic=8&num_scrambled_causal=4&num_scrambled_schematic=4&participantId=024E7395AC6A492B9B1FE17DCAD596FE&assignmentId=e23633ac-68f6-44f9-ad4d-15ccb472c963&projectId=a6b6d205-fa41-4c5b-a7a5-7fc4b51b0cea","024E7395AC6A492B9B1FE17DCAD596FE-2025-05-27-17-03-39","","null","","images/causal_sequence/the_performance_causal/the_performance_causal_8.png","null","",""
"","","","","","image-button-response","79","313633","0.0-12.0-1.0-1.7","024E7395AC6A492B9B1FE17DCAD596FE","024E7395AC6A492B9B1FE17DCAD596FE","e23633ac-68f6-44f9-ad4d-15ccb472c963","a6b6d205-fa41-4c5b-a7a5-7fc4b51b0cea","{""num_scrambled_semantic"":""8"",""num_scrambled_causal"":""4"",""num_scrambled_schematic"":""4"",""participantId"":""024E7395AC6A492B9B1FE17DCAD596FE"",""assignmentId"":""e23633ac-68f6-44f9-ad4d-15ccb472c963"",""projectId"":""a6b6d205-fa41-4c5b-a7a5-7fc4b51b0cea""}","https://test12345.live/?num_scrambled_semantic=8&num_scrambled_causal=4&num_scrambled_schematic=4&participantId=024E7395AC6A492B9B1FE17DCAD596FE&assignmentId=e23633ac-68f6-44f9-ad4d-15ccb472c963&projectId=a6b6d205-fa41-4c5b-a7a5-7fc4b51b0cea","024E7395AC6A492B9B1FE17DCAD596FE-2025-05-27-17-03-39","","523","","images/causal_sequence/the_performance_causal/the_performance_causal_8.png","0","",""
"","","","","","image-button-response","80","315433","0.0-12.0-1.0-2.7","024E7395AC6A492B9B1FE17DCAD596FE","024E7395AC6A492B9B1FE17DCAD596FE","e23633ac-68f6-44f9-ad4d-15ccb472c963","a6b6d205-fa41-4c5b-a7a5-7fc4b51b0cea","{""num_scrambled_semantic"":""8"",""num_scrambled_causal"":""4"",""num_scrambled_schematic"":""4"",""participantId"":""024E7395AC6A492B9B1FE17DCAD596FE"",""assignmentId"":""e23633ac-68f6-44f9-ad4d-15ccb472c963"",""projectId"":""a6b6d205-fa41-4c5b-a7a5-7fc4b51b0cea""}","https://test12345.live/?num_scrambled_semantic=8&num_scrambled_causal=4&num_scrambled_schematic=4&participantId=024E7395AC6A492B9B1FE17DCAD596FE&assignmentId=e23633ac-68f6-44f9-ad4d-15ccb472c963&projectId=a6b6d205-fa41-4c5b-a7a5-7fc4b51b0cea","024E7395AC6A492B9B1FE17DCAD596FE-2025-05-27-17-03-39","","null","","[]","null","",""
"","","","","","image-button-response","81","319961","0.0-12.0-1.0-0.8","024E7395AC6A492B9B1FE17DCAD596FE","024E7395AC6A492B9B1FE17DCAD596FE","e23633ac-68f6-44f9-ad4d-15ccb472c963","a6b6d205-fa41-4c5b-a7a5-7fc4b51b0cea","{""num_scrambled_semantic"":""8"",""num_scrambled_causal"":""4"",""num_scrambled_schematic"":""4"",""participantId"":""024E7395AC6A492B9B1FE17DCAD596FE"",""assignmentId"":""e23633ac-68f6-44f9-ad4d-15ccb472c963"",""projectId"":""a6b6d205-fa41-4c5b-a7a5-7fc4b51b0cea""}","https://test12345.live/?num_scrambled_semantic=8&num_scrambled_causal=4&num_scrambled_schematic=4&participantId=024E7395AC6A492B9B1FE17DCAD596FE&assignmentId=e23633ac-68f6-44f9-ad4d-15ccb472c963&projectId=a6b6d205-fa41-4c5b-a7a5-7fc4b51b0cea","024E7395AC6A492B9B1FE17DCAD596FE-2025-05-27-17-03-39","","null","","images/causal_sequence/the_performance_causal/the_performance_causal_6.png","null","",""
"","","","","","image-button-response","82","322411","0.0-12.0-1.0-1.8","024E7395AC6A492B9B1FE17DCAD596FE","024E7395AC6A492B9B1FE17DCAD596FE","e23633ac-68f6-44f9-ad4d-15ccb472c963","a6b6d205-fa41-4c5b-a7a5-7fc4b51b0cea","{""num_scrambled_semantic"":""8"",""num_scrambled_causal"":""4"",""num_scrambled_schematic"":""4"",""participantId"":""024E7395AC6A492B9B1FE17DCAD596FE"",""assignmentId"":""e23633ac-68f6-44f9-ad4d-15ccb472c963"",""projectId"":""a6b6d205-fa41-4c5b-a7a5-7fc4b51b0cea""}","https://test12345.live/?num_scrambled_semantic=8&num_scrambled_causal=4&num_scrambled_schematic=4&participantId=024E7395AC6A492B9B1FE17DCAD596FE&assignmentId=e23633ac-68f6-44f9-ad4d-15ccb472c963&projectId=a6b6d205-fa41-4c5b-a7a5-7fc4b51b0cea","024E7395AC6A492B9B1FE17DCAD596FE-2025-05-27-17-03-39","","2449","","images/causal_sequence/the_performance_causal/the_performance_causal_6.png","0","",""
"","","","","","image-button-response","83","324212","0.0-12.0-1.0-2.8","024E7395AC6A492B9B1FE17DCAD596FE","024E7395AC6A492B9B1FE17DCAD596FE","e23633ac-68f6-44f9-ad4d-15ccb472c963","a6b6d205-fa41-4c5b-a7a5-7fc4b51b0cea","{""num_scrambled_semantic"":""8"",""num_scrambled_causal"":""4"",""num_scrambled_schematic"":""4"",""participantId"":""024E7395AC6A492B9B1FE17DCAD596FE"",""assignmentId"":""e23633ac-68f6-44f9-ad4d-15ccb472c963"",""projectId"":""a6b6d205-fa41-4c5b-a7a5-7fc4b51b0cea""}","https://test12345.live/?num_scrambled_semantic=8&num_scrambled_causal=4&num_scrambled_schematic=4&participantId=024E7395AC6A492B9B1FE17DCAD596FE&assignmentId=e23633ac-68f6-44f9-ad4d-15ccb472c963&projectId=a6b6d205-fa41-4c5b-a7a5-7fc4b51b0cea","024E7395AC6A492B9B1FE17DCAD596FE-2025-05-27-17-03-39","","null","","[]","null","",""
"","","","","","image-button-response","84","328737","0.0-12.0-1.0-0.9","024E7395AC6A492B9B1FE17DCAD596FE","024E7395AC6A492B9B1FE17DCAD596FE","e23633ac-68f6-44f9-ad4d-15ccb472c963","a6b6d205-fa41-4c5b-a7a5-7fc4b51b0cea","{""num_scrambled_semantic"":""8"",""num_scrambled_causal"":""4"",""num_scrambled_schematic"":""4"",""participantId"":""024E7395AC6A492B9B1FE17DCAD596FE"",""assignmentId"":""e23633ac-68f6-44f9-ad4d-15ccb472c963"",""projectId"":""a6b6d205-fa41-4c5b-a7a5-7fc4b51b0cea""}","https://test12345.live/?num_scrambled_semantic=8&num_scrambled_causal=4&num_scrambled_schematic=4&participantId=024E7395AC6A492B9B1FE17DCAD596FE&assignmentId=e23633ac-68f6-44f9-ad4d-15ccb472c963&projectId=a6b6d205-fa41-4c5b-a7a5-7fc4b51b0cea","024E7395AC6A492B9B1FE17DCAD596FE-2025-05-27-17-03-39","","null","","images/causal_sequence/the_performance_causal/the_performance_causal_9.png","null","",""
"","","","","","image-button-response","85","329388","0.0-12.0-1.0-1.9","024E7395AC6A492B9B1FE17DCAD596FE","024E7395AC6A492B9B1FE17DCAD596FE","e23633ac-68f6-44f9-ad4d-15ccb472c963","a6b6d205-fa41-4c5b-a7a5-7fc4b51b0cea","{""num_scrambled_semantic"":""8"",""num_scrambled_causal"":""4"",""num_scrambled_schematic"":""4"",""participantId"":""024E7395AC6A492B9B1FE17DCAD596FE"",""assignmentId"":""e23633ac-68f6-44f9-ad4d-15ccb472c963"",""projectId"":""a6b6d205-fa41-4c5b-a7a5-7fc4b51b0cea""}","https://test12345.live/?num_scrambled_semantic=8&num_scrambled_causal=4&num_scrambled_schematic=4&participantId=024E7395AC6A492B9B1FE17DCAD596FE&assignmentId=e23633ac-68f6-44f9-ad4d-15ccb472c963&projectId=a6b6d205-fa41-4c5b-a7a5-7fc4b51b0cea","024E7395AC6A492B9B1FE17DCAD596FE-2025-05-27-17-03-39","","650","","images/causal_sequence/the_performance_causal/the_performance_causal_9.png","0","",""
"","","","","","image-button-response","86","331188","0.0-12.0-1.0-2.9","024E7395AC6A492B9B1FE17DCAD596FE","024E7395AC6A492B9B1FE17DCAD596FE","e23633ac-68f6-44f9-ad4d-15ccb472c963","a6b6d205-fa41-4c5b-a7a5-7fc4b51b0cea","{""num_scrambled_semantic"":""8"",""num_scrambled_causal"":""4"",""num_scrambled_schematic"":""4"",""participantId"":""024E7395AC6A492B9B1FE17DCAD596FE"",""assignmentId"":""e23633ac-68f6-44f9-ad4d-15ccb472c963"",""projectId"":""a6b6d205-fa41-4c5b-a7a5-7fc4b51b0cea""}","https://test12345.live/?num_scrambled_semantic=8&num_scrambled_causal=4&num_scrambled_schematic=4&participantId=024E7395AC6A492B9B1FE17DCAD596FE&assignmentId=e23633ac-68f6-44f9-ad4d-15ccb472c963&projectId=a6b6d205-fa41-4c5b-a7a5-7fc4b51b0cea","024E7395AC6A492B9B1FE17DCAD596FE-2025-05-27-17-03-39","","null","","[]","null","",""
"","","","","","html-audio-response","87","360562","0.0-13.0","024E7395AC6A492B9B1FE17DCAD596FE","024E7395AC6A492B9B1FE17DCAD596FE","e23633ac-68f6-44f9-ad4d-15ccb472c963","a6b6d205-fa41-4c5b-a7a5-7fc4b51b0cea","{""num_scrambled_semantic"":""8"",""num_scrambled_causal"":""4"",""num_scrambled_schematic"":""4"",""participantId"":""024E7395AC6A492B9B1FE17DCAD596FE"",""assignmentId"":""e23633ac-68f6-44f9-ad4d-15ccb472c963"",""projectId"":""a6b6d205-fa41-4c5b-a7a5-7fc4b51b0cea""}","https://test12345.live/?num_scrambled_semantic=8&num_scrambled_causal=4&num_scrambled_schematic=4&participantId=024E7395AC6A492B9B1FE17DCAD596FE&assignmentId=e23633ac-68f6-44f9-ad4d-15ccb472c963&projectId=a6b6d205-fa41-4c5b-a7a5-7fc4b51b0cea","024E7395AC6A492B9B1FE17DCAD596FE-2025-05-27-17-03-39","","24497","","[""<span style=\""color: red; font-size: 24px\""> NOW RECORDING</span><p>Please say out loud all the images you saw, in the exact order you saw them. Try to recall as many images as you can, but remember: getting the order right is more important than the number of images you recall.</p>""]","","13","the_performance_causal"
"","","","","","image-button-response","88","366583","0.0-14.0-0.0","024E7395AC6A492B9B1FE17DCAD596FE","024E7395AC6A492B9B1FE17DCAD596FE","e23633ac-68f6-44f9-ad4d-15ccb472c963","a6b6d205-fa41-4c5b-a7a5-7fc4b51b0cea","{""num_scrambled_semantic"":""8"",""num_scrambled_causal"":""4"",""num_scrambled_schematic"":""4"",""participantId"":""024E7395AC6A492B9B1FE17DCAD596FE"",""assignmentId"":""e23633ac-68f6-44f9-ad4d-15ccb472c963"",""projectId"":""a6b6d205-fa41-4c5b-a7a5-7fc4b51b0cea""}","https://test12345.live/?num_scrambled_semantic=8&num_scrambled_causal=4&num_scrambled_schematic=4&participantId=024E7395AC6A492B9B1FE17DCAD596FE&assignmentId=e23633ac-68f6-44f9-ad4d-15ccb472c963&projectId=a6b6d205-fa41-4c5b-a7a5-7fc4b51b0cea","024E7395AC6A492B9B1FE17DCAD596FE-2025-05-27-17-03-39","","null","","images/causal_sequence/coin_causal/coin_causal_0.png","null","",""
"","","","","","image-button-response","89","371111","0.0-14.0-1.0-0.0","024E7395AC6A492B9B1FE17DCAD596FE","024E7395AC6A492B9B1FE17DCAD596FE","e23633ac-68f6-44f9-ad4d-15ccb472c963","a6b6d205-fa41-4c5b-a7a5-7fc4b51b0cea","{""num_scrambled_semantic"":""8"",""num_scrambled_causal"":""4"",""num_scrambled_schematic"":""4"",""participantId"":""024E7395AC6A492B9B1FE17DCAD596FE"",""assignmentId"":""e23633ac-68f6-44f9-ad4d-15ccb472c963"",""projectId"":""a6b6d205-fa41-4c5b-a7a5-7fc4b51b0cea""}","https://test12345.live/?num_scrambled_semantic=8&num_scrambled_causal=4&num_scrambled_schematic=4&participantId=024E7395AC6A492B9B1FE17DCAD596FE&assignmentId=e23633ac-68f6-44f9-ad4d-15ccb472c963&projectId=a6b6d205-fa41-4c5b-a7a5-7fc4b51b0cea","024E7395AC6A492B9B1FE17DCAD596FE-2025-05-27-17-03-39","","null","","images/causal_sequence/coin_causal/coin_causal_1.png","null","",""
"","","","","","image-button-response","90","375113","0.0-14.0-1.0-1.0","024E7395AC6A492B9B1FE17DCAD596FE","024E7395AC6A492B9B1FE17DCAD596FE","e23633ac-68f6-44f9-ad4d-15ccb472c963","a6b6d205-fa41-4c5b-a7a5-7fc4b51b0cea","{""num_scrambled_semantic"":""8"",""num_scrambled_causal"":""4"",""num_scrambled_schematic"":""4"",""participantId"":""024E7395AC6A492B9B1FE17DCAD596FE"",""assignmentId"":""e23633ac-68f6-44f9-ad4d-15ccb472c963"",""projectId"":""a6b6d205-fa41-4c5b-a7a5-7fc4b51b0cea""}","https://test12345.live/?num_scrambled_semantic=8&num_scrambled_causal=4&num_scrambled_schematic=4&participantId=024E7395AC6A492B9B1FE17DCAD596FE&assignmentId=e23633ac-68f6-44f9-ad4d-15ccb472c963&projectId=a6b6d205-fa41-4c5b-a7a5-7fc4b51b0cea","024E7395AC6A492B9B1FE17DCAD596FE-2025-05-27-17-03-39","","null","","images/causal_sequence/coin_causal/coin_causal_1.png","null","",""
"","","","","","image-button-response","91","376914","0.0-14.0-1.0-2.0","024E7395AC6A492B9B1FE17DCAD596FE","024E7395AC6A492B9B1FE17DCAD596FE","e23633ac-68f6-44f9-ad4d-15ccb472c963","a6b6d205-fa41-4c5b-a7a5-7fc4b51b0cea","{""num_scrambled_semantic"":""8"",""num_scrambled_causal"":""4"",""num_scrambled_schematic"":""4"",""participantId"":""024E7395AC6A492B9B1FE17DCAD596FE"",""assignmentId"":""e23633ac-68f6-44f9-ad4d-15ccb472c963"",""projectId"":""a6b6d205-fa41-4c5b-a7a5-7fc4b51b0cea""}","https://test12345.live/?num_scrambled_semantic=8&num_scrambled_causal=4&num_scrambled_schematic=4&participantId=024E7395AC6A492B9B1FE17DCAD596FE&assignmentId=e23633ac-68f6-44f9-ad4d-15ccb472c963&projectId=a6b6d205-fa41-4c5b-a7a5-7fc4b51b0cea","024E7395AC6A492B9B1FE17DCAD596FE-2025-05-27-17-03-39","","null","","[]","null","",""
"","","","","","image-button-response","92","381443","0.0-14.0-1.0-0.1","024E7395AC6A492B9B1FE17DCAD596FE","024E7395AC6A492B9B1FE17DCAD596FE","e23633ac-68f6-44f9-ad4d-15ccb472c963","a6b6d205-fa41-4c5b-a7a5-7fc4b51b0cea","{""num_scrambled_semantic"":""8"",""num_scrambled_causal"":""4"",""num_scrambled_schematic"":""4"",""participantId"":""024E7395AC6A492B9B1FE17DCAD596FE"",""assignmentId"":""e23633ac-68f6-44f9-ad4d-15ccb472c963"",""projectId"":""a6b6d205-fa41-4c5b-a7a5-7fc4b51b0cea""}","https://test12345.live/?num_scrambled_semantic=8&num_scrambled_causal=4&num_scrambled_schematic=4&participantId=024E7395AC6A492B9B1FE17DCAD596FE&assignmentId=e23633ac-68f6-44f9-ad4d-15ccb472c963&projectId=a6b6d205-fa41-4c5b-a7a5-7fc4b51b0cea","024E7395AC6A492B9B1FE17DCAD596FE-2025-05-27-17-03-39","","null","","images/causal_sequence/coin_causal/coin_causal_2.png","null","",""
"","","","","","image-button-response","93","382569","0.0-14.0-1.0-1.1","024E7395AC6A492B9B1FE17DCAD596FE","024E7395AC6A492B9B1FE17DCAD596FE","e23633ac-68f6-44f9-ad4d-15ccb472c963","a6b6d205-fa41-4c5b-a7a5-7fc4b51b0cea","{""num_scrambled_semantic"":""8"",""num_scrambled_causal"":""4"",""num_scrambled_schematic"":""4"",""participantId"":""024E7395AC6A492B9B1FE17DCAD596FE"",""assignmentId"":""e23633ac-68f6-44f9-ad4d-15ccb472c963"",""projectId"":""a6b6d205-fa41-4c5b-a7a5-7fc4b51b0cea""}","https://test12345.live/?num_scrambled_semantic=8&num_scrambled_causal=4&num_scrambled_schematic=4&participantId=024E7395AC6A492B9B1FE17DCAD596FE&assignmentId=e23633ac-68f6-44f9-ad4d-15ccb472c963&projectId=a6b6d205-fa41-4c5b-a7a5-7fc4b51b0cea","024E7395AC6A492B9B1FE17DCAD596FE-2025-05-27-17-03-39","","1125","","images/causal_sequence/coin_causal/coin_causal_2.png","0","",""
"","","","","","image-button-response","94","384369","0.0-14.0-1.0-2.1","024E7395AC6A492B9B1FE17DCAD596FE","024E7395AC6A492B9B1FE17DCAD596FE","e23633ac-68f6-44f9-ad4d-15ccb472c963","a6b6d205-fa41-4c5b-a7a5-7fc4b51b0cea","{""num_scrambled_semantic"":""8"",""num_scrambled_causal"":""4"",""num_scrambled_schematic"":""4"",""participantId"":""024E7395AC6A492B9B1FE17DCAD596FE"",""assignmentId"":""e23633ac-68f6-44f9-ad4d-15ccb472c963"",""projectId"":""a6b6d205-fa41-4c5b-a7a5-7fc4b51b0cea""}","https://test12345.live/?num_scrambled_semantic=8&num_scrambled_causal=4&num_scrambled_schematic=4&participantId=024E7395AC6A492B9B1FE17DCAD596FE&assignmentId=e23633ac-68f6-44f9-ad4d-15ccb472c963&projectId=a6b6d205-fa41-4c5b-a7a5-7fc4b51b0cea","024E7395AC6A492B9B1FE17DCAD596FE-2025-05-27-17-03-39","","null","","[]","null","",""
"","","","","","image-button-response","95","388896","0.0-14.0-1.0-0.2","024E7395AC6A492B9B1FE17DCAD596FE","024E7395AC6A492B9B1FE17DCAD596FE","e23633ac-68f6-44f9-ad4d-15ccb472c963","a6b6d205-fa41-4c5b-a7a5-7fc4b51b0cea","{""num_scrambled_semantic"":""8"",""num_scrambled_causal"":""4"",""num_scrambled_schematic"":""4"",""participantId"":""024E7395AC6A492B9B1FE17DCAD596FE"",""assignmentId"":""e23633ac-68f6-44f9-ad4d-15ccb472c963"",""projectId"":""a6b6d205-fa41-4c5b-a7a5-7fc4b51b0cea""}","https://test12345.live/?num_scrambled_semantic=8&num_scrambled_causal=4&num_scrambled_schematic=4&participantId=024E7395AC6A492B9B1FE17DCAD596FE&assignmentId=e23633ac-68f6-44f9-ad4d-15ccb472c963&projectId=a6b6d205-fa41-4c5b-a7a5-7fc4b51b0cea","024E7395AC6A492B9B1FE17DCAD596FE-2025-05-27-17-03-39","","null","","images/causal_sequence/coin_causal/coin_causal_3.png","null","",""
"","","","","","image-button-response","96","389687","0.0-14.0-1.0-1.2","024E7395AC6A492B9B1FE17DCAD596FE","024E7395AC6A492B9B1FE17DCAD596FE","e23633ac-68f6-44f9-ad4d-15ccb472c963","a6b6d205-fa41-4c5b-a7a5-7fc4b51b0cea","{""num_scrambled_semantic"":""8"",""num_scrambled_causal"":""4"",""num_scrambled_schematic"":""4"",""participantId"":""024E7395AC6A492B9B1FE17DCAD596FE"",""assignmentId"":""e23633ac-68f6-44f9-ad4d-15ccb472c963"",""projectId"":""a6b6d205-fa41-4c5b-a7a5-7fc4b51b0cea""}","https://test12345.live/?num_scrambled_semantic=8&num_scrambled_causal=4&num_scrambled_schematic=4&participantId=024E7395AC6A492B9B1FE17DCAD596FE&assignmentId=e23633ac-68f6-44f9-ad4d-15ccb472c963&projectId=a6b6d205-fa41-4c5b-a7a5-7fc4b51b0cea","024E7395AC6A492B9B1FE17DCAD596FE-2025-05-27-17-03-39","","789","","images/causal_sequence/coin_causal/coin_causal_3.png","0","",""
"","","","","","image-button-response","97","391488","0.0-14.0-1.0-2.2","024E7395AC6A492B9B1FE17DCAD596FE","024E7395AC6A492B9B1FE17DCAD596FE","e23633ac-68f6-44f9-ad4d-15ccb472c963","a6b6d205-fa41-4c5b-a7a5-7fc4b51b0cea","{""num_scrambled_semantic"":""8"",""num_scrambled_causal"":""4"",""num_scrambled_schematic"":""4"",""participantId"":""024E7395AC6A492B9B1FE17DCAD596FE"",""assignmentId"":""e23633ac-68f6-44f9-ad4d-15ccb472c963"",""projectId"":""a6b6d205-fa41-4c5b-a7a5-7fc4b51b0cea""}","https://test12345.live/?num_scrambled_semantic=8&num_scrambled_causal=4&num_scrambled_schematic=4&participantId=024E7395AC6A492B9B1FE17DCAD596FE&assignmentId=e23633ac-68f6-44f9-ad4d-15ccb472c963&projectId=a6b6d205-fa41-4c5b-a7a5-7fc4b51b0cea","024E7395AC6A492B9B1FE17DCAD596FE-2025-05-27-17-03-39","","null","","[]","null","",""
"","","","","","image-button-response","98","396014","0.0-14.0-1.0-0.3","024E7395AC6A492B9B1FE17DCAD596FE","024E7395AC6A492B9B1FE17DCAD596FE","e23633ac-68f6-44f9-ad4d-15ccb472c963","a6b6d205-fa41-4c5b-a7a5-7fc4b51b0cea","{""num_scrambled_semantic"":""8"",""num_scrambled_causal"":""4"",""num_scrambled_schematic"":""4"",""participantId"":""024E7395AC6A492B9B1FE17DCAD596FE"",""assignmentId"":""e23633ac-68f6-44f9-ad4d-15ccb472c963"",""projectId"":""a6b6d205-fa41-4c5b-a7a5-7fc4b51b0cea""}","https://test12345.live/?num_scrambled_semantic=8&num_scrambled_causal=4&num_scrambled_schematic=4&participantId=024E7395AC6A492B9B1FE17DCAD596FE&assignmentId=e23633ac-68f6-44f9-ad4d-15ccb472c963&projectId=a6b6d205-fa41-4c5b-a7a5-7fc4b51b0cea","024E7395AC6A492B9B1FE17DCAD596FE-2025-05-27-17-03-39","","null","","images/causal_sequence/coin_causal/coin_causal_4.png","null","",""
"","","","","","image-button-response","99","397028","0.0-14.0-1.0-1.3","024E7395AC6A492B9B1FE17DCAD596FE","024E7395AC6A492B9B1FE17DCAD596FE","e23633ac-68f6-44f9-ad4d-15ccb472c963","a6b6d205-fa41-4c5b-a7a5-7fc4b51b0cea","{""num_scrambled_semantic"":""8"",""num_scrambled_causal"":""4"",""num_scrambled_schematic"":""4"",""participantId"":""024E7395AC6A492B9B1FE17DCAD596FE"",""assignmentId"":""e23633ac-68f6-44f9-ad4d-15ccb472c963"",""projectId"":""a6b6d205-fa41-4c5b-a7a5-7fc4b51b0cea""}","https://test12345.live/?num_scrambled_semantic=8&num_scrambled_causal=4&num_scrambled_schematic=4&participantId=024E7395AC6A492B9B1FE17DCAD596FE&assignmentId=e23633ac-68f6-44f9-ad4d-15ccb472c963&projectId=a6b6d205-fa41-4c5b-a7a5-7fc4b51b0cea","024E7395AC6A492B9B1FE17DCAD596FE-2025-05-27-17-03-39","","1013","","images/causal_sequence/coin_causal/coin_causal_4.png","0","",""
"","","","","","image-button-response","100","398829","0.0-14.0-1.0-2.3","024E7395AC6A492B9B1FE17DCAD596FE","024E7395AC6A492B9B1FE17DCAD596FE","e23633ac-68f6-44f9-ad4d-15ccb472c963","a6b6d205-fa41-4c5b-a7a5-7fc4b51b0cea","{""num_scrambled_semantic"":""8"",""num_scrambled_causal"":""4"",""num_scrambled_schematic"":""4"",""participantId"":""024E7395AC6A492B9B1FE17DCAD596FE"",""assignmentId"":""e23633ac-68f6-44f9-ad4d-15ccb472c963"",""projectId"":""a6b6d205-fa41-4c5b-a7a5-7fc4b51b0cea""}","https://test12345.live/?num_scrambled_semantic=8&num_scrambled_causal=4&num_scrambled_schematic=4&participantId=024E7395AC6A492B9B1FE17DCAD596FE&assignmentId=e23633ac-68f6-44f9-ad4d-15ccb472c963&projectId=a6b6d205-fa41-4c5b-a7a5-7fc4b51b0cea","024E7395AC6A492B9B1FE17DCAD596FE-2025-05-27-17-03-39","","null","","[]","null","",""
"","","","","","image-button-response","101","403352","0.0-14.0-1.0-0.4","024E7395AC6A492B9B1FE17DCAD596FE","024E7395AC6A492B9B1FE17DCAD596FE","e23633ac-68f6-44f9-ad4d-15ccb472c963","a6b6d205-fa41-4c5b-a7a5-7fc4b51b0cea","{""num_scrambled_semantic"":""8"",""num_scrambled_causal"":""4"",""num_scrambled_schematic"":""4"",""participantId"":""024E7395AC6A492B9B1FE17DCAD596FE"",""assignmentId"":""e23633ac-68f6-44f9-ad4d-15ccb472c963"",""projectId"":""a6b6d205-fa41-4c5b-a7a5-7fc4b51b0cea""}","https://test12345.live/?num_scrambled_semantic=8&num_scrambled_causal=4&num_scrambled_schematic=4&participantId=024E7395AC6A492B9B1FE17DCAD596FE&assignmentId=e23633ac-68f6-44f9-ad4d-15ccb472c963&projectId=a6b6d205-fa41-4c5b-a7a5-7fc4b51b0cea","024E7395AC6A492B9B1FE17DCAD596FE-2025-05-27-17-03-39","","null","","images/causal_sequence/coin_causal/coin_causal_5.png","null","",""
"","","","","","image-button-response","102","404377","0.0-14.0-1.0-1.4","024E7395AC6A492B9B1FE17DCAD596FE","024E7395AC6A492B9B1FE17DCAD596FE","e23633ac-68f6-44f9-ad4d-15ccb472c963","a6b6d205-fa41-4c5b-a7a5-7fc4b51b0cea","{""num_scrambled_semantic"":""8"",""num_scrambled_causal"":""4"",""num_scrambled_schematic"":""4"",""participantId"":""024E7395AC6A492B9B1FE17DCAD596FE"",""assignmentId"":""e23633ac-68f6-44f9-ad4d-15ccb472c963"",""projectId"":""a6b6d205-fa41-4c5b-a7a5-7fc4b51b0cea""}","https://test12345.live/?num_scrambled_semantic=8&num_scrambled_causal=4&num_scrambled_schematic=4&participantId=024E7395AC6A492B9B1FE17DCAD596FE&assignmentId=e23633ac-68f6-44f9-ad4d-15ccb472c963&projectId=a6b6d205-fa41-4c5b-a7a5-7fc4b51b0cea","024E7395AC6A492B9B1FE17DCAD596FE-2025-05-27-17-03-39","","1023","","images/causal_sequence/coin_causal/coin_causal_5.png","0","",""
"","","","","","image-button-response","103","406178","0.0-14.0-1.0-2.4","024E7395AC6A492B9B1FE17DCAD596FE","024E7395AC6A492B9B1FE17DCAD596FE","e23633ac-68f6-44f9-ad4d-15ccb472c963","a6b6d205-fa41-4c5b-a7a5-7fc4b51b0cea","{""num_scrambled_semantic"":""8"",""num_scrambled_causal"":""4"",""num_scrambled_schematic"":""4"",""participantId"":""024E7395AC6A492B9B1FE17DCAD596FE"",""assignmentId"":""e23633ac-68f6-44f9-ad4d-15ccb472c963"",""projectId"":""a6b6d205-fa41-4c5b-a7a5-7fc4b51b0cea""}","https://test12345.live/?num_scrambled_semantic=8&num_scrambled_causal=4&num_scrambled_schematic=4&participantId=024E7395AC6A492B9B1FE17DCAD596FE&assignmentId=e23633ac-68f6-44f9-ad4d-15ccb472c963&projectId=a6b6d205-fa41-4c5b-a7a5-7fc4b51b0cea","024E7395AC6A492B9B1FE17DCAD596FE-2025-05-27-17-03-39","","null","","[]","null","",""
"","","","","","image-button-response","104","410702","0.0-14.0-1.0-0.5","024E7395AC6A492B9B1FE17DCAD596FE","024E7395AC6A492B9B1FE17DCAD596FE","e23633ac-68f6-44f9-ad4d-15ccb472c963","a6b6d205-fa41-4c5b-a7a5-7fc4b51b0cea","{""num_scrambled_semantic"":""8"",""num_scrambled_causal"":""4"",""num_scrambled_schematic"":""4"",""participantId"":""024E7395AC6A492B9B1FE17DCAD596FE"",""assignmentId"":""e23633ac-68f6-44f9-ad4d-15ccb472c963"",""projectId"":""a6b6d205-fa41-4c5b-a7a5-7fc4b51b0cea""}","https://test12345.live/?num_scrambled_semantic=8&num_scrambled_causal=4&num_scrambled_schematic=4&participantId=024E7395AC6A492B9B1FE17DCAD596FE&assignmentId=e23633ac-68f6-44f9-ad4d-15ccb472c963&projectId=a6b6d205-fa41-4c5b-a7a5-7fc4b51b0cea","024E7395AC6A492B9B1FE17DCAD596FE-2025-05-27-17-03-39","","null","","images/causal_sequence/coin_causal/coin_causal_6.png","null","",""
"","","","","","image-button-response","105","411607","0.0-14.0-1.0-1.5","024E7395AC6A492B9B1FE17DCAD596FE","024E7395AC6A492B9B1FE17DCAD596FE","e23633ac-68f6-44f9-ad4d-15ccb472c963","a6b6d205-fa41-4c5b-a7a5-7fc4b51b0cea","{""num_scrambled_semantic"":""8"",""num_scrambled_causal"":""4"",""num_scrambled_schematic"":""4"",""participantId"":""024E7395AC6A492B9B1FE17DCAD596FE"",""assignmentId"":""e23633ac-68f6-44f9-ad4d-15ccb472c963"",""projectId"":""a6b6d205-fa41-4c5b-a7a5-7fc4b51b0cea""}","https://test12345.live/?num_scrambled_semantic=8&num_scrambled_causal=4&num_scrambled_schematic=4&participantId=024E7395AC6A492B9B1FE17DCAD596FE&assignmentId=e23633ac-68f6-44f9-ad4d-15ccb472c963&projectId=a6b6d205-fa41-4c5b-a7a5-7fc4b51b0cea","024E7395AC6A492B9B1FE17DCAD596FE-2025-05-27-17-03-39","","905","","images/causal_sequence/coin_causal/coin_causal_6.png","0","",""
"","","","","","image-button-response","106","413408","0.0-14.0-1.0-2.5","024E7395AC6A492B9B1FE17DCAD596FE","024E7395AC6A492B9B1FE17DCAD596FE","e23633ac-68f6-44f9-ad4d-15ccb472c963","a6b6d205-fa41-4c5b-a7a5-7fc4b51b0cea","{""num_scrambled_semantic"":""8"",""num_scrambled_causal"":""4"",""num_scrambled_schematic"":""4"",""participantId"":""024E7395AC6A492B9B1FE17DCAD596FE"",""assignmentId"":""e23633ac-68f6-44f9-ad4d-15ccb472c963"",""projectId"":""a6b6d205-fa41-4c5b-a7a5-7fc4b51b0cea""}","https://test12345.live/?num_scrambled_semantic=8&num_scrambled_causal=4&num_scrambled_schematic=4&participantId=024E7395AC6A492B9B1FE17DCAD596FE&assignmentId=e23633ac-68f6-44f9-ad4d-15ccb472c963&projectId=a6b6d205-fa41-4c5b-a7a5-7fc4b51b0cea","024E7395AC6A492B9B1FE17DCAD596FE-2025-05-27-17-03-39","","null","","[]","null","",""
"","","","","","image-button-response","107","417931","0.0-14.0-1.0-0.6","024E7395AC6A492B9B1FE17DCAD596FE","024E7395AC6A492B9B1FE17DCAD596FE","e23633ac-68f6-44f9-ad4d-15ccb472c963","a6b6d205-fa41-4c5b-a7a5-7fc4b51b0cea","{""num_scrambled_semantic"":""8"",""num_scrambled_causal"":""4"",""num_scrambled_schematic"":""4"",""participantId"":""024E7395AC6A492B9B1FE17DCAD596FE"",""assignmentId"":""e23633ac-68f6-44f9-ad4d-15ccb472c963"",""projectId"":""a6b6d205-fa41-4c5b-a7a5-7fc4b51b0cea""}","https://test12345.live/?num_scrambled_semantic=8&num_scrambled_causal=4&num_scrambled_schematic=4&participantId=024E7395AC6A492B9B1FE17DCAD596FE&assignmentId=e23633ac-68f6-44f9-ad4d-15ccb472c963&projectId=a6b6d205-fa41-4c5b-a7a5-7fc4b51b0cea","024E7395AC6A492B9B1FE17DCAD596FE-2025-05-27-17-03-39","","null","","images/causal_sequence/coin_causal/coin_causal_7.png","null","",""
"","","","","","image-button-response","108","418797","0.0-14.0-1.0-1.6","024E7395AC6A492B9B1FE17DCAD596FE","024E7395AC6A492B9B1FE17DCAD596FE","e23633ac-68f6-44f9-ad4d-15ccb472c963","a6b6d205-fa41-4c5b-a7a5-7fc4b51b0cea","{""num_scrambled_semantic"":""8"",""num_scrambled_causal"":""4"",""num_scrambled_schematic"":""4"",""participantId"":""024E7395AC6A492B9B1FE17DCAD596FE"",""assignmentId"":""e23633ac-68f6-44f9-ad4d-15ccb472c963"",""projectId"":""a6b6d205-fa41-4c5b-a7a5-7fc4b51b0cea""}","https://test12345.live/?num_scrambled_semantic=8&num_scrambled_causal=4&num_scrambled_schematic=4&participantId=024E7395AC6A492B9B1FE17DCAD596FE&assignmentId=e23633ac-68f6-44f9-ad4d-15ccb472c963&projectId=a6b6d205-fa41-4c5b-a7a5-7fc4b51b0cea","024E7395AC6A492B9B1FE17DCAD596FE-2025-05-27-17-03-39","","865","","images/causal_sequence/coin_causal/coin_causal_7.png","1","",""
"","","","","","image-button-response","109","420599","0.0-14.0-1.0-2.6","024E7395AC6A492B9B1FE17DCAD596FE","024E7395AC6A492B9B1FE17DCAD596FE","e23633ac-68f6-44f9-ad4d-15ccb472c963","a6b6d205-fa41-4c5b-a7a5-7fc4b51b0cea","{""num_scrambled_semantic"":""8"",""num_scrambled_causal"":""4"",""num_scrambled_schematic"":""4"",""participantId"":""024E7395AC6A492B9B1FE17DCAD596FE"",""assignmentId"":""e23633ac-68f6-44f9-ad4d-15ccb472c963"",""projectId"":""a6b6d205-fa41-4c5b-a7a5-7fc4b51b0cea""}","https://test12345.live/?num_scrambled_semantic=8&num_scrambled_causal=4&num_scrambled_schematic=4&participantId=024E7395AC6A492B9B1FE17DCAD596FE&assignmentId=e23633ac-68f6-44f9-ad4d-15ccb472c963&projectId=a6b6d205-fa41-4c5b-a7a5-7fc4b51b0cea","024E7395AC6A492B9B1FE17DCAD596FE-2025-05-27-17-03-39","","null","","[]","null","",""
"","","","","","image-button-response","110","425124","0.0-14.0-1.0-0.7","024E7395AC6A492B9B1FE17DCAD596FE","024E7395AC6A492B9B1FE17DCAD596FE","e23633ac-68f6-44f9-ad4d-15ccb472c963","a6b6d205-fa41-4c5b-a7a5-7fc4b51b0cea","{""num_scrambled_semantic"":""8"",""num_scrambled_causal"":""4"",""num_scrambled_schematic"":""4"",""participantId"":""024E7395AC6A492B9B1FE17DCAD596FE"",""assignmentId"":""e23633ac-68f6-44f9-ad4d-15ccb472c963"",""projectId"":""a6b6d205-fa41-4c5b-a7a5-7fc4b51b0cea""}","https://test12345.live/?num_scrambled_semantic=8&num_scrambled_causal=4&num_scrambled_schematic=4&participantId=024E7395AC6A492B9B1FE17DCAD596FE&assignmentId=e23633ac-68f6-44f9-ad4d-15ccb472c963&projectId=a6b6d205-fa41-4c5b-a7a5-7fc4b51b0cea","024E7395AC6A492B9B1FE17DCAD596FE-2025-05-27-17-03-39","","null","","images/causal_sequence/coin_causal/coin_causal_8.png","null","",""
"","","","","","image-button-response","111","426214","0.0-14.0-1.0-1.7","024E7395AC6A492B9B1FE17DCAD596FE","024E7395AC6A492B9B1FE17DCAD596FE","e23633ac-68f6-44f9-ad4d-15ccb472c963","a6b6d205-fa41-4c5b-a7a5-7fc4b51b0cea","{""num_scrambled_semantic"":""8"",""num_scrambled_causal"":""4"",""num_scrambled_schematic"":""4"",""participantId"":""024E7395AC6A492B9B1FE17DCAD596FE"",""assignmentId"":""e23633ac-68f6-44f9-ad4d-15ccb472c963"",""projectId"":""a6b6d205-fa41-4c5b-a7a5-7fc4b51b0cea""}","https://test12345.live/?num_scrambled_semantic=8&num_scrambled_causal=4&num_scrambled_schematic=4&participantId=024E7395AC6A492B9B1FE17DCAD596FE&assignmentId=e23633ac-68f6-44f9-ad4d-15ccb472c963&projectId=a6b6d205-fa41-4c5b-a7a5-7fc4b51b0cea","024E7395AC6A492B9B1FE17DCAD596FE-2025-05-27-17-03-39","","1089","","images/causal_sequence/coin_causal/coin_causal_8.png","0","",""
"","","","","","image-button-response","112","428015","0.0-14.0-1.0-2.7","024E7395AC6A492B9B1FE17DCAD596FE","024E7395AC6A492B9B1FE17DCAD596FE","e23633ac-68f6-44f9-ad4d-15ccb472c963","a6b6d205-fa41-4c5b-a7a5-7fc4b51b0cea","{""num_scrambled_semantic"":""8"",""num_scrambled_causal"":""4"",""num_scrambled_schematic"":""4"",""participantId"":""024E7395AC6A492B9B1FE17DCAD596FE"",""assignmentId"":""e23633ac-68f6-44f9-ad4d-15ccb472c963"",""projectId"":""a6b6d205-fa41-4c5b-a7a5-7fc4b51b0cea""}","https://test12345.live/?num_scrambled_semantic=8&num_scrambled_causal=4&num_scrambled_schematic=4&participantId=024E7395AC6A492B9B1FE17DCAD596FE&assignmentId=e23633ac-68f6-44f9-ad4d-15ccb472c963&projectId=a6b6d205-fa41-4c5b-a7a5-7fc4b51b0cea","024E7395AC6A492B9B1FE17DCAD596FE-2025-05-27-17-03-39","","null","","[]","null","",""
"","","","","","image-button-response","113","432541","0.0-14.0-1.0-0.8","024E7395AC6A492B9B1FE17DCAD596FE","024E7395AC6A492B9B1FE17DCAD596FE","e23633ac-68f6-44f9-ad4d-15ccb472c963","a6b6d205-fa41-4c5b-a7a5-7fc4b51b0cea","{""num_scrambled_semantic"":""8"",""num_scrambled_causal"":""4"",""num_scrambled_schematic"":""4"",""participantId"":""024E7395AC6A492B9B1FE17DCAD596FE"",""assignmentId"":""e23633ac-68f6-44f9-ad4d-15ccb472c963"",""projectId"":""a6b6d205-fa41-4c5b-a7a5-7fc4b51b0cea""}","https://test12345.live/?num_scrambled_semantic=8&num_scrambled_causal=4&num_scrambled_schematic=4&participantId=024E7395AC6A492B9B1FE17DCAD596FE&assignmentId=e23633ac-68f6-44f9-ad4d-15ccb472c963&projectId=a6b6d205-fa41-4c5b-a7a5-7fc4b51b0cea","024E7395AC6A492B9B1FE17DCAD596FE-2025-05-27-17-03-39","","null","","images/causal_sequence/coin_causal/coin_causal_9.png","null","",""
"","","","","","image-button-response","114","433251","0.0-14.0-1.0-1.8","024E7395AC6A492B9B1FE17DCAD596FE","024E7395AC6A492B9B1FE17DCAD596FE","e23633ac-68f6-44f9-ad4d-15ccb472c963","a6b6d205-fa41-4c5b-a7a5-7fc4b51b0cea","{""num_scrambled_semantic"":""8"",""num_scrambled_causal"":""4"",""num_scrambled_schematic"":""4"",""participantId"":""024E7395AC6A492B9B1FE17DCAD596FE"",""assignmentId"":""e23633ac-68f6-44f9-ad4d-15ccb472c963"",""projectId"":""a6b6d205-fa41-4c5b-a7a5-7fc4b51b0cea""}","https://test12345.live/?num_scrambled_semantic=8&num_scrambled_causal=4&num_scrambled_schematic=4&participantId=024E7395AC6A492B9B1FE17DCAD596FE&assignmentId=e23633ac-68f6-44f9-ad4d-15ccb472c963&projectId=a6b6d205-fa41-4c5b-a7a5-7fc4b51b0cea","024E7395AC6A492B9B1FE17DCAD596FE-2025-05-27-17-03-39","","708","","images/causal_sequence/coin_causal/coin_causal_9.png","0","",""
