"success","timeout","failed_images","failed_audio","failed_video","trial_type","trial_index","time_elapsed","internal_node_id","subject","subject_id","study_id","session_id","urlvar","current_url","audio_id","view_history","rt","device_id","stimulus","response","estimated_stimulus_onset","seq_name"
"true","false","[]","[]","[]","preload","0","39246","0.0-0.0","0262A6C94291486AAD77E396199DA474","0262A6C94291486AAD77E396199DA474","e8028e34-e15d-4250-bcce-dbe986806b8e","a9f3d40c-5730-405c-b25e-1034c4c56f3f","{""num_scrambled_semantic"":""8"",""num_scrambled_causal"":""4"",""num_scrambled_schematic"":""4"",""participantId"":""0262A6C94291486AAD77E396199DA474"",""assignmentId"":""e8028e34-e15d-4250-bcce-dbe986806b8e"",""projectId"":""a9f3d40c-5730-405c-b25e-1034c4c56f3f""}","https://test12345.live/?num_scrambled_semantic=8&num_scrambled_causal=4&num_scrambled_schematic=4&participantId=0262A6C94291486AAD77E396199DA474&assignmentId=e8028e34-e15d-4250-bcce-dbe986806b8e&projectId=a9f3d40c-5730-405c-b25e-1034c4c56f3f","0262A6C94291486AAD77E396199DA474-2025-08-07-19-01-44","","","","","","",""
"","","","","","instructions","1","60948","0.0-1.0","0262A6C94291486AAD77E396199DA474","0262A6C94291486AAD77E396199DA474","e8028e34-e15d-4250-bcce-dbe986806b8e","a9f3d40c-5730-405c-b25e-1034c4c56f3f","{""num_scrambled_semantic"":""8"",""num_scrambled_causal"":""4"",""num_scrambled_schematic"":""4"",""participantId"":""0262A6C94291486AAD77E396199DA474"",""assignmentId"":""e8028e34-e15d-4250-bcce-dbe986806b8e"",""projectId"":""a9f3d40c-5730-405c-b25e-1034c4c56f3f""}","https://test12345.live/?num_scrambled_semantic=8&num_scrambled_causal=4&num_scrambled_schematic=4&participantId=0262A6C94291486AAD77E396199DA474&assignmentId=e8028e34-e15d-4250-bcce-dbe986806b8e&projectId=a9f3d40c-5730-405c-b25e-1034c4c56f3f","0262A6C94291486AAD77E396199DA474-2025-08-07-19-01-44","[{""page_index"":0,""viewing_time"":21698}]","21700","","","","",""
"","","","","","instructions","2","64230","0.0-2.0","0262A6C94291486AAD77E396199DA474","0262A6C94291486AAD77E396199DA474","e8028e34-e15d-4250-bcce-dbe986806b8e","a9f3d40c-5730-405c-b25e-1034c4c56f3f","{""num_scrambled_semantic"":""8"",""num_scrambled_causal"":""4"",""num_scrambled_schematic"":""4"",""participantId"":""0262A6C94291486AAD77E396199DA474"",""assignmentId"":""e8028e34-e15d-4250-bcce-dbe986806b8e"",""projectId"":""a9f3d40c-5730-405c-b25e-1034c4c56f3f""}","https://test12345.live/?num_scrambled_semantic=8&num_scrambled_causal=4&num_scrambled_schematic=4&participantId=0262A6C94291486AAD77E396199DA474&assignmentId=e8028e34-e15d-4250-bcce-dbe986806b8e&projectId=a9f3d40c-5730-405c-b25e-1034c4c56f3f","0262A6C94291486AAD77E396199DA474-2025-08-07-19-01-44","[{""page_index"":0,""viewing_time"":3280}]","3281","","","","",""
"true","","","","","fullscreen","3","71742","0.0-3.0","0262A6C94291486AAD77E396199DA474","0262A6C94291486AAD77E396199DA474","e8028e34-e15d-4250-bcce-dbe986806b8e","a9f3d40c-5730-405c-b25e-1034c4c56f3f","{""num_scrambled_semantic"":""8"",""num_scrambled_causal"":""4"",""num_scrambled_schematic"":""4"",""participantId"":""0262A6C94291486AAD77E396199DA474"",""assignmentId"":""e8028e34-e15d-4250-bcce-dbe986806b8e"",""projectId"":""a9f3d40c-5730-405c-b25e-1034c4c56f3f""}","https://test12345.live/?num_scrambled_semantic=8&num_scrambled_causal=4&num_scrambled_schematic=4&participantId=0262A6C94291486AAD77E396199DA474&assignmentId=e8028e34-e15d-4250-bcce-dbe986806b8e&projectId=a9f3d40c-5730-405c-b25e-1034c4c56f3f","0262A6C94291486AAD77E396199DA474-2025-08-07-19-01-44","","6500","","","","",""
"","","","","","initialize-microphone","4","361037","0.0-4.0-0.0","0262A6C94291486AAD77E396199DA474","0262A6C94291486AAD77E396199DA474","e8028e34-e15d-4250-bcce-dbe986806b8e","a9f3d40c-5730-405c-b25e-1034c4c56f3f","{""num_scrambled_semantic"":""8"",""num_scrambled_causal"":""4"",""num_scrambled_schematic"":""4"",""participantId"":""0262A6C94291486AAD77E396199DA474"",""assignmentId"":""e8028e34-e15d-4250-bcce-dbe986806b8e"",""projectId"":""a9f3d40c-5730-405c-b25e-1034c4c56f3f""}","https://test12345.live/?num_scrambled_semantic=8&num_scrambled_causal=4&num_scrambled_schematic=4&participantId=0262A6C94291486AAD77E396199DA474&assignmentId=e8028e34-e15d-4250-bcce-dbe986806b8e&projectId=a9f3d40c-5730-405c-b25e-1034c4c56f3f","0262A6C94291486AAD77E396199DA474-2025-08-07-19-01-44","","","3132134061b2d807b7348ebb57725b5091cad31d6b9aed64de3490c85ab6e033","","","",""
"","","","","","html-audio-response","5","372604","0.0-4.0-1.0","0262A6C94291486AAD77E396199DA474","0262A6C94291486AAD77E396199DA474","e8028e34-e15d-4250-bcce-dbe986806b8e","a9f3d40c-5730-405c-b25e-1034c4c56f3f","{""num_scrambled_semantic"":""8"",""num_scrambled_causal"":""4"",""num_scrambled_schematic"":""4"",""participantId"":""0262A6C94291486AAD77E396199DA474"",""assignmentId"":""e8028e34-e15d-4250-bcce-dbe986806b8e"",""projectId"":""a9f3d40c-5730-405c-b25e-1034c4c56f3f""}","https://test12345.live/?num_scrambled_semantic=8&num_scrambled_causal=4&num_scrambled_schematic=4&participantId=0262A6C94291486AAD77E396199DA474&assignmentId=e8028e34-e15d-4250-bcce-dbe986806b8e&projectId=a9f3d40c-5730-405c-b25e-1034c4c56f3f","0262A6C94291486AAD77E396199DA474-2025-08-07-19-01-44","","4228","","<span style=""color: red; font-size: 24px""> NOW RECORDING</span>
        <p>Please test Microphone</p>","","4",""
"","","","","","html-button-response","6","374043","0.0-4.0-2.0","0262A6C94291486AAD77E396199DA474","0262A6C94291486AAD77E396199DA474","e8028e34-e15d-4250-bcce-dbe986806b8e","a9f3d40c-5730-405c-b25e-1034c4c56f3f","{""num_scrambled_semantic"":""8"",""num_scrambled_causal"":""4"",""num_scrambled_schematic"":""4"",""participantId"":""0262A6C94291486AAD77E396199DA474"",""assignmentId"":""e8028e34-e15d-4250-bcce-dbe986806b8e"",""projectId"":""a9f3d40c-5730-405c-b25e-1034c4c56f3f""}","https://test12345.live/?num_scrambled_semantic=8&num_scrambled_causal=4&num_scrambled_schematic=4&participantId=0262A6C94291486AAD77E396199DA474&assignmentId=e8028e34-e15d-4250-bcce-dbe986806b8e&projectId=a9f3d40c-5730-405c-b25e-1034c4c56f3f","0262A6C94291486AAD77E396199DA474-2025-08-07-19-01-44","","1437","","<p style=""font-size:48px; color:red;"">Is Microphone OK?</p>","1","",""
"","","","","","instructions","7","396133","0.0-5.0","0262A6C94291486AAD77E396199DA474","0262A6C94291486AAD77E396199DA474","e8028e34-e15d-4250-bcce-dbe986806b8e","a9f3d40c-5730-405c-b25e-1034c4c56f3f","{""num_scrambled_semantic"":""8"",""num_scrambled_causal"":""4"",""num_scrambled_schematic"":""4"",""participantId"":""0262A6C94291486AAD77E396199DA474"",""assignmentId"":""e8028e34-e15d-4250-bcce-dbe986806b8e"",""projectId"":""a9f3d40c-5730-405c-b25e-1034c4c56f3f""}","https://test12345.live/?num_scrambled_semantic=8&num_scrambled_causal=4&num_scrambled_schematic=4&participantId=0262A6C94291486AAD77E396199DA474&assignmentId=e8028e34-e15d-4250-bcce-dbe986806b8e&projectId=a9f3d40c-5730-405c-b25e-1034c4c56f3f","0262A6C94291486AAD77E396199DA474-2025-08-07-19-01-44","[{""page_index"":0,""viewing_time"":6437},{""page_index"":1,""viewing_time"":15651}]","22089","","","","",""
"","","","","","image-button-response","8","402152","0.0-6.0-0.0","0262A6C94291486AAD77E396199DA474","0262A6C94291486AAD77E396199DA474","e8028e34-e15d-4250-bcce-dbe986806b8e","a9f3d40c-5730-405c-b25e-1034c4c56f3f","{""num_scrambled_semantic"":""8"",""num_scrambled_causal"":""4"",""num_scrambled_schematic"":""4"",""participantId"":""0262A6C94291486AAD77E396199DA474"",""assignmentId"":""e8028e34-e15d-4250-bcce-dbe986806b8e"",""projectId"":""a9f3d40c-5730-405c-b25e-1034c4c56f3f""}","https://test12345.live/?num_scrambled_semantic=8&num_scrambled_causal=4&num_scrambled_schematic=4&participantId=0262A6C94291486AAD77E396199DA474&assignmentId=e8028e34-e15d-4250-bcce-dbe986806b8e&projectId=a9f3d40c-5730-405c-b25e-1034c4c56f3f","0262A6C94291486AAD77E396199DA474-2025-08-07-19-01-44","","null","","images/instructions/movie_0.png","null","",""
"","","","","","image-button-response","9","406662","0.0-6.0-1.0-0.0","0262A6C94291486AAD77E396199DA474","0262A6C94291486AAD77E396199DA474","e8028e34-e15d-4250-bcce-dbe986806b8e","a9f3d40c-5730-405c-b25e-1034c4c56f3f","{""num_scrambled_semantic"":""8"",""num_scrambled_causal"":""4"",""num_scrambled_schematic"":""4"",""participantId"":""0262A6C94291486AAD77E396199DA474"",""assignmentId"":""e8028e34-e15d-4250-bcce-dbe986806b8e"",""projectId"":""a9f3d40c-5730-405c-b25e-1034c4c56f3f""}","https://test12345.live/?num_scrambled_semantic=8&num_scrambled_causal=4&num_scrambled_schematic=4&participantId=0262A6C94291486AAD77E396199DA474&assignmentId=e8028e34-e15d-4250-bcce-dbe986806b8e&projectId=a9f3d40c-5730-405c-b25e-1034c4c56f3f","0262A6C94291486AAD77E396199DA474-2025-08-07-19-01-44","","null","","images/instructions/movie_1.png","null","",""
"","","","","","image-button-response","10","410451","0.0-6.0-1.0-1.0","0262A6C94291486AAD77E396199DA474","0262A6C94291486AAD77E396199DA474","e8028e34-e15d-4250-bcce-dbe986806b8e","a9f3d40c-5730-405c-b25e-1034c4c56f3f","{""num_scrambled_semantic"":""8"",""num_scrambled_causal"":""4"",""num_scrambled_schematic"":""4"",""participantId"":""0262A6C94291486AAD77E396199DA474"",""assignmentId"":""e8028e34-e15d-4250-bcce-dbe986806b8e"",""projectId"":""a9f3d40c-5730-405c-b25e-1034c4c56f3f""}","https://test12345.live/?num_scrambled_semantic=8&num_scrambled_causal=4&num_scrambled_schematic=4&participantId=0262A6C94291486AAD77E396199DA474&assignmentId=e8028e34-e15d-4250-bcce-dbe986806b8e&projectId=a9f3d40c-5730-405c-b25e-1034c4c56f3f","0262A6C94291486AAD77E396199DA474-2025-08-07-19-01-44","","3785","","images/instructions/movie_1.png","0","",""
"","","","","","image-button-response","11","412262","0.0-6.0-1.0-2.0","0262A6C94291486AAD77E396199DA474","0262A6C94291486AAD77E396199DA474","e8028e34-e15d-4250-bcce-dbe986806b8e","a9f3d40c-5730-405c-b25e-1034c4c56f3f","{""num_scrambled_semantic"":""8"",""num_scrambled_causal"":""4"",""num_scrambled_schematic"":""4"",""participantId"":""0262A6C94291486AAD77E396199DA474"",""assignmentId"":""e8028e34-e15d-4250-bcce-dbe986806b8e"",""projectId"":""a9f3d40c-5730-405c-b25e-1034c4c56f3f""}","https://test12345.live/?num_scrambled_semantic=8&num_scrambled_causal=4&num_scrambled_schematic=4&participantId=0262A6C94291486AAD77E396199DA474&assignmentId=e8028e34-e15d-4250-bcce-dbe986806b8e&projectId=a9f3d40c-5730-405c-b25e-1034c4c56f3f","0262A6C94291486AAD77E396199DA474-2025-08-07-19-01-44","","null","","[]","null","",""
"","","","","","image-button-response","12","416773","0.0-6.0-1.0-0.1","0262A6C94291486AAD77E396199DA474","0262A6C94291486AAD77E396199DA474","e8028e34-e15d-4250-bcce-dbe986806b8e","a9f3d40c-5730-405c-b25e-1034c4c56f3f","{""num_scrambled_semantic"":""8"",""num_scrambled_causal"":""4"",""num_scrambled_schematic"":""4"",""participantId"":""0262A6C94291486AAD77E396199DA474"",""assignmentId"":""e8028e34-e15d-4250-bcce-dbe986806b8e"",""projectId"":""a9f3d40c-5730-405c-b25e-1034c4c56f3f""}","https://test12345.live/?num_scrambled_semantic=8&num_scrambled_causal=4&num_scrambled_schematic=4&participantId=0262A6C94291486AAD77E396199DA474&assignmentId=e8028e34-e15d-4250-bcce-dbe986806b8e&projectId=a9f3d40c-5730-405c-b25e-1034c4c56f3f","0262A6C94291486AAD77E396199DA474-2025-08-07-19-01-44","","null","","images/instructions/movie_2.png","null","",""
"","","","","","image-button-response","13","420782","0.0-6.0-1.0-1.1","0262A6C94291486AAD77E396199DA474","0262A6C94291486AAD77E396199DA474","e8028e34-e15d-4250-bcce-dbe986806b8e","a9f3d40c-5730-405c-b25e-1034c4c56f3f","{""num_scrambled_semantic"":""8"",""num_scrambled_causal"":""4"",""num_scrambled_schematic"":""4"",""participantId"":""0262A6C94291486AAD77E396199DA474"",""assignmentId"":""e8028e34-e15d-4250-bcce-dbe986806b8e"",""projectId"":""a9f3d40c-5730-405c-b25e-1034c4c56f3f""}","https://test12345.live/?num_scrambled_semantic=8&num_scrambled_causal=4&num_scrambled_schematic=4&participantId=0262A6C94291486AAD77E396199DA474&assignmentId=e8028e34-e15d-4250-bcce-dbe986806b8e&projectId=a9f3d40c-5730-405c-b25e-1034c4c56f3f","0262A6C94291486AAD77E396199DA474-2025-08-07-19-01-44","","null","","images/instructions/movie_2.png","null","",""
"","","","","","image-button-response","14","422596","0.0-6.0-1.0-2.1","0262A6C94291486AAD77E396199DA474","0262A6C94291486AAD77E396199DA474","e8028e34-e15d-4250-bcce-dbe986806b8e","a9f3d40c-5730-405c-b25e-1034c4c56f3f","{""num_scrambled_semantic"":""8"",""num_scrambled_causal"":""4"",""num_scrambled_schematic"":""4"",""participantId"":""0262A6C94291486AAD77E396199DA474"",""assignmentId"":""e8028e34-e15d-4250-bcce-dbe986806b8e"",""projectId"":""a9f3d40c-5730-405c-b25e-1034c4c56f3f""}","https://test12345.live/?num_scrambled_semantic=8&num_scrambled_causal=4&num_scrambled_schematic=4&participantId=0262A6C94291486AAD77E396199DA474&assignmentId=e8028e34-e15d-4250-bcce-dbe986806b8e&projectId=a9f3d40c-5730-405c-b25e-1034c4c56f3f","0262A6C94291486AAD77E396199DA474-2025-08-07-19-01-44","","null","","[]","null","",""
"","","","","","image-button-response","15","427110","0.0-6.0-1.0-0.2","0262A6C94291486AAD77E396199DA474","0262A6C94291486AAD77E396199DA474","e8028e34-e15d-4250-bcce-dbe986806b8e","a9f3d40c-5730-405c-b25e-1034c4c56f3f","{""num_scrambled_semantic"":""8"",""num_scrambled_causal"":""4"",""num_scrambled_schematic"":""4"",""participantId"":""0262A6C94291486AAD77E396199DA474"",""assignmentId"":""e8028e34-e15d-4250-bcce-dbe986806b8e"",""projectId"":""a9f3d40c-5730-405c-b25e-1034c4c56f3f""}","https://test12345.live/?num_scrambled_semantic=8&num_scrambled_causal=4&num_scrambled_schematic=4&participantId=0262A6C94291486AAD77E396199DA474&assignmentId=e8028e34-e15d-4250-bcce-dbe986806b8e&projectId=a9f3d40c-5730-405c-b25e-1034c4c56f3f","0262A6C94291486AAD77E396199DA474-2025-08-07-19-01-44","","null","","images/instructions/movie_3.png","null","",""
"","","","","","image-button-response","16","428656","0.0-6.0-1.0-1.2","0262A6C94291486AAD77E396199DA474","0262A6C94291486AAD77E396199DA474","e8028e34-e15d-4250-bcce-dbe986806b8e","a9f3d40c-5730-405c-b25e-1034c4c56f3f","{""num_scrambled_semantic"":""8"",""num_scrambled_causal"":""4"",""num_scrambled_schematic"":""4"",""participantId"":""0262A6C94291486AAD77E396199DA474"",""assignmentId"":""e8028e34-e15d-4250-bcce-dbe986806b8e"",""projectId"":""a9f3d40c-5730-405c-b25e-1034c4c56f3f""}","https://test12345.live/?num_scrambled_semantic=8&num_scrambled_causal=4&num_scrambled_schematic=4&participantId=0262A6C94291486AAD77E396199DA474&assignmentId=e8028e34-e15d-4250-bcce-dbe986806b8e&projectId=a9f3d40c-5730-405c-b25e-1034c4c56f3f","0262A6C94291486AAD77E396199DA474-2025-08-07-19-01-44","","1543","","images/instructions/movie_3.png","0","",""
"","","","","","image-button-response","17","430467","0.0-6.0-1.0-2.2","0262A6C94291486AAD77E396199DA474","0262A6C94291486AAD77E396199DA474","e8028e34-e15d-4250-bcce-dbe986806b8e","a9f3d40c-5730-405c-b25e-1034c4c56f3f","{""num_scrambled_semantic"":""8"",""num_scrambled_causal"":""4"",""num_scrambled_schematic"":""4"",""participantId"":""0262A6C94291486AAD77E396199DA474"",""assignmentId"":""e8028e34-e15d-4250-bcce-dbe986806b8e"",""projectId"":""a9f3d40c-5730-405c-b25e-1034c4c56f3f""}","https://test12345.live/?num_scrambled_semantic=8&num_scrambled_causal=4&num_scrambled_schematic=4&participantId=0262A6C94291486AAD77E396199DA474&assignmentId=e8028e34-e15d-4250-bcce-dbe986806b8e&projectId=a9f3d40c-5730-405c-b25e-1034c4c56f3f","0262A6C94291486AAD77E396199DA474-2025-08-07-19-01-44","","null","","[]","null","",""
"","","","","","image-button-response","18","434973","0.0-6.0-1.0-0.3","0262A6C94291486AAD77E396199DA474","0262A6C94291486AAD77E396199DA474","e8028e34-e15d-4250-bcce-dbe986806b8e","a9f3d40c-5730-405c-b25e-1034c4c56f3f","{""num_scrambled_semantic"":""8"",""num_scrambled_causal"":""4"",""num_scrambled_schematic"":""4"",""participantId"":""0262A6C94291486AAD77E396199DA474"",""assignmentId"":""e8028e34-e15d-4250-bcce-dbe986806b8e"",""projectId"":""a9f3d40c-5730-405c-b25e-1034c4c56f3f""}","https://test12345.live/?num_scrambled_semantic=8&num_scrambled_causal=4&num_scrambled_schematic=4&participantId=0262A6C94291486AAD77E396199DA474&assignmentId=e8028e34-e15d-4250-bcce-dbe986806b8e&projectId=a9f3d40c-5730-405c-b25e-1034c4c56f3f","0262A6C94291486AAD77E396199DA474-2025-08-07-19-01-44","","null","","images/instructions/movie_4.png","null","",""
"","","","","","image-button-response","19","436156","0.0-6.0-1.0-1.3","0262A6C94291486AAD77E396199DA474","0262A6C94291486AAD77E396199DA474","e8028e34-e15d-4250-bcce-dbe986806b8e","a9f3d40c-5730-405c-b25e-1034c4c56f3f","{""num_scrambled_semantic"":""8"",""num_scrambled_causal"":""4"",""num_scrambled_schematic"":""4"",""participantId"":""0262A6C94291486AAD77E396199DA474"",""assignmentId"":""e8028e34-e15d-4250-bcce-dbe986806b8e"",""projectId"":""a9f3d40c-5730-405c-b25e-1034c4c56f3f""}","https://test12345.live/?num_scrambled_semantic=8&num_scrambled_causal=4&num_scrambled_schematic=4&participantId=0262A6C94291486AAD77E396199DA474&assignmentId=e8028e34-e15d-4250-bcce-dbe986806b8e&projectId=a9f3d40c-5730-405c-b25e-1034c4c56f3f","0262A6C94291486AAD77E396199DA474-2025-08-07-19-01-44","","1180","","images/instructions/movie_4.png","0","",""
"","","","","","image-button-response","20","437975","0.0-6.0-1.0-2.3","0262A6C94291486AAD77E396199DA474","0262A6C94291486AAD77E396199DA474","e8028e34-e15d-4250-bcce-dbe986806b8e","a9f3d40c-5730-405c-b25e-1034c4c56f3f","{""num_scrambled_semantic"":""8"",""num_scrambled_causal"":""4"",""num_scrambled_schematic"":""4"",""participantId"":""0262A6C94291486AAD77E396199DA474"",""assignmentId"":""e8028e34-e15d-4250-bcce-dbe986806b8e"",""projectId"":""a9f3d40c-5730-405c-b25e-1034c4c56f3f""}","https://test12345.live/?num_scrambled_semantic=8&num_scrambled_causal=4&num_scrambled_schematic=4&participantId=0262A6C94291486AAD77E396199DA474&assignmentId=e8028e34-e15d-4250-bcce-dbe986806b8e&projectId=a9f3d40c-5730-405c-b25e-1034c4c56f3f","0262A6C94291486AAD77E396199DA474-2025-08-07-19-01-44","","null","","[]","null","",""
"","","","","","instructions","21","452007","0.0-7.0","0262A6C94291486AAD77E396199DA474","0262A6C94291486AAD77E396199DA474","e8028e34-e15d-4250-bcce-dbe986806b8e","a9f3d40c-5730-405c-b25e-1034c4c56f3f","{""num_scrambled_semantic"":""8"",""num_scrambled_causal"":""4"",""num_scrambled_schematic"":""4"",""participantId"":""0262A6C94291486AAD77E396199DA474"",""assignmentId"":""e8028e34-e15d-4250-bcce-dbe986806b8e"",""projectId"":""a9f3d40c-5730-405c-b25e-1034c4c56f3f""}","https://test12345.live/?num_scrambled_semantic=8&num_scrambled_causal=4&num_scrambled_schematic=4&participantId=0262A6C94291486AAD77E396199DA474&assignmentId=e8028e34-e15d-4250-bcce-dbe986806b8e&projectId=a9f3d40c-5730-405c-b25e-1034c4c56f3f","0262A6C94291486AAD77E396199DA474-2025-08-07-19-01-44","[{""page_index"":0,""viewing_time"":12589},{""page_index"":1,""viewing_time"":1442}]","14032","","","","",""
"","","","","","html-audio-response","22","466644","0.0-8.0","0262A6C94291486AAD77E396199DA474","0262A6C94291486AAD77E396199DA474","e8028e34-e15d-4250-bcce-dbe986806b8e","a9f3d40c-5730-405c-b25e-1034c4c56f3f","{""num_scrambled_semantic"":""8"",""num_scrambled_causal"":""4"",""num_scrambled_schematic"":""4"",""participantId"":""0262A6C94291486AAD77E396199DA474"",""assignmentId"":""e8028e34-e15d-4250-bcce-dbe986806b8e"",""projectId"":""a9f3d40c-5730-405c-b25e-1034c4c56f3f""}","https://test12345.live/?num_scrambled_semantic=8&num_scrambled_causal=4&num_scrambled_schematic=4&participantId=0262A6C94291486AAD77E396199DA474&assignmentId=e8028e34-e15d-4250-bcce-dbe986806b8e&projectId=a9f3d40c-5730-405c-b25e-1034c4c56f3f","0262A6C94291486AAD77E396199DA474-2025-08-07-19-01-44","","8900","","[""<span style=\""color: red; font-size: 24px\""> NOW RECORDING</span><p>Please say out loud all the images you saw, as many as you can remember. The images can be said in any order.</p>""]","","3",""
"","","","","","instructions","23","483831","0.0-9.0","0262A6C94291486AAD77E396199DA474","0262A6C94291486AAD77E396199DA474","e8028e34-e15d-4250-bcce-dbe986806b8e","a9f3d40c-5730-405c-b25e-1034c4c56f3f","{""num_scrambled_semantic"":""8"",""num_scrambled_causal"":""4"",""num_scrambled_schematic"":""4"",""participantId"":""0262A6C94291486AAD77E396199DA474"",""assignmentId"":""e8028e34-e15d-4250-bcce-dbe986806b8e"",""projectId"":""a9f3d40c-5730-405c-b25e-1034c4c56f3f""}","https://test12345.live/?num_scrambled_semantic=8&num_scrambled_causal=4&num_scrambled_schematic=4&participantId=0262A6C94291486AAD77E396199DA474&assignmentId=e8028e34-e15d-4250-bcce-dbe986806b8e&projectId=a9f3d40c-5730-405c-b25e-1034c4c56f3f","0262A6C94291486AAD77E396199DA474-2025-08-07-19-01-44","[{""page_index"":0,""viewing_time"":17177}]","17178","","","","",""
"","","","","","image-button-response","24","489838","0.0-10.0-0.0","0262A6C94291486AAD77E396199DA474","0262A6C94291486AAD77E396199DA474","e8028e34-e15d-4250-bcce-dbe986806b8e","a9f3d40c-5730-405c-b25e-1034c4c56f3f","{""num_scrambled_semantic"":""8"",""num_scrambled_causal"":""4"",""num_scrambled_schematic"":""4"",""participantId"":""0262A6C94291486AAD77E396199DA474"",""assignmentId"":""e8028e34-e15d-4250-bcce-dbe986806b8e"",""projectId"":""a9f3d40c-5730-405c-b25e-1034c4c56f3f""}","https://test12345.live/?num_scrambled_semantic=8&num_scrambled_causal=4&num_scrambled_schematic=4&participantId=0262A6C94291486AAD77E396199DA474&assignmentId=e8028e34-e15d-4250-bcce-dbe986806b8e&projectId=a9f3d40c-5730-405c-b25e-1034c4c56f3f","0262A6C94291486AAD77E396199DA474-2025-08-07-19-01-44","","null","","images/semantic_sequence/housework_semantic/housework_semantic_0.png","null","",""
"","","","","","image-button-response","25","494342","0.0-10.0-1.0-0.0","0262A6C94291486AAD77E396199DA474","0262A6C94291486AAD77E396199DA474","e8028e34-e15d-4250-bcce-dbe986806b8e","a9f3d40c-5730-405c-b25e-1034c4c56f3f","{""num_scrambled_semantic"":""8"",""num_scrambled_causal"":""4"",""num_scrambled_schematic"":""4"",""participantId"":""0262A6C94291486AAD77E396199DA474"",""assignmentId"":""e8028e34-e15d-4250-bcce-dbe986806b8e"",""projectId"":""a9f3d40c-5730-405c-b25e-1034c4c56f3f""}","https://test12345.live/?num_scrambled_semantic=8&num_scrambled_causal=4&num_scrambled_schematic=4&participantId=0262A6C94291486AAD77E396199DA474&assignmentId=e8028e34-e15d-4250-bcce-dbe986806b8e&projectId=a9f3d40c-5730-405c-b25e-1034c4c56f3f","0262A6C94291486AAD77E396199DA474-2025-08-07-19-01-44","","null","","images/semantic_sequence/housework_semantic/housework_semantic_7.png","null","",""
"","","","","","image-button-response","26","496426","0.0-10.0-1.0-1.0","0262A6C94291486AAD77E396199DA474","0262A6C94291486AAD77E396199DA474","e8028e34-e15d-4250-bcce-dbe986806b8e","a9f3d40c-5730-405c-b25e-1034c4c56f3f","{""num_scrambled_semantic"":""8"",""num_scrambled_causal"":""4"",""num_scrambled_schematic"":""4"",""participantId"":""0262A6C94291486AAD77E396199DA474"",""assignmentId"":""e8028e34-e15d-4250-bcce-dbe986806b8e"",""projectId"":""a9f3d40c-5730-405c-b25e-1034c4c56f3f""}","https://test12345.live/?num_scrambled_semantic=8&num_scrambled_causal=4&num_scrambled_schematic=4&participantId=0262A6C94291486AAD77E396199DA474&assignmentId=e8028e34-e15d-4250-bcce-dbe986806b8e&projectId=a9f3d40c-5730-405c-b25e-1034c4c56f3f","0262A6C94291486AAD77E396199DA474-2025-08-07-19-01-44","","2081","","images/semantic_sequence/housework_semantic/housework_semantic_7.png","0","",""
"","","","","","image-button-response","27","498237","0.0-10.0-1.0-2.0","0262A6C94291486AAD77E396199DA474","0262A6C94291486AAD77E396199DA474","e8028e34-e15d-4250-bcce-dbe986806b8e","a9f3d40c-5730-405c-b25e-1034c4c56f3f","{""num_scrambled_semantic"":""8"",""num_scrambled_causal"":""4"",""num_scrambled_schematic"":""4"",""participantId"":""0262A6C94291486AAD77E396199DA474"",""assignmentId"":""e8028e34-e15d-4250-bcce-dbe986806b8e"",""projectId"":""a9f3d40c-5730-405c-b25e-1034c4c56f3f""}","https://test12345.live/?num_scrambled_semantic=8&num_scrambled_causal=4&num_scrambled_schematic=4&participantId=0262A6C94291486AAD77E396199DA474&assignmentId=e8028e34-e15d-4250-bcce-dbe986806b8e&projectId=a9f3d40c-5730-405c-b25e-1034c4c56f3f","0262A6C94291486AAD77E396199DA474-2025-08-07-19-01-44","","null","","[]","null","",""
"","","","","","image-button-response","28","502745","0.0-10.0-1.0-0.1","0262A6C94291486AAD77E396199DA474","0262A6C94291486AAD77E396199DA474","e8028e34-e15d-4250-bcce-dbe986806b8e","a9f3d40c-5730-405c-b25e-1034c4c56f3f","{""num_scrambled_semantic"":""8"",""num_scrambled_causal"":""4"",""num_scrambled_schematic"":""4"",""participantId"":""0262A6C94291486AAD77E396199DA474"",""assignmentId"":""e8028e34-e15d-4250-bcce-dbe986806b8e"",""projectId"":""a9f3d40c-5730-405c-b25e-1034c4c56f3f""}","https://test12345.live/?num_scrambled_semantic=8&num_scrambled_causal=4&num_scrambled_schematic=4&participantId=0262A6C94291486AAD77E396199DA474&assignmentId=e8028e34-e15d-4250-bcce-dbe986806b8e&projectId=a9f3d40c-5730-405c-b25e-1034c4c56f3f","0262A6C94291486AAD77E396199DA474-2025-08-07-19-01-44","","null","","images/semantic_sequence/housework_semantic/housework_semantic_3.png","null","",""
"","","","","","image-button-response","29","504206","0.0-10.0-1.0-1.1","0262A6C94291486AAD77E396199DA474","0262A6C94291486AAD77E396199DA474","e8028e34-e15d-4250-bcce-dbe986806b8e","a9f3d40c-5730-405c-b25e-1034c4c56f3f","{""num_scrambled_semantic"":""8"",""num_scrambled_causal"":""4"",""num_scrambled_schematic"":""4"",""participantId"":""0262A6C94291486AAD77E396199DA474"",""assignmentId"":""e8028e34-e15d-4250-bcce-dbe986806b8e"",""projectId"":""a9f3d40c-5730-405c-b25e-1034c4c56f3f""}","https://test12345.live/?num_scrambled_semantic=8&num_scrambled_causal=4&num_scrambled_schematic=4&participantId=0262A6C94291486AAD77E396199DA474&assignmentId=e8028e34-e15d-4250-bcce-dbe986806b8e&projectId=a9f3d40c-5730-405c-b25e-1034c4c56f3f","0262A6C94291486AAD77E396199DA474-2025-08-07-19-01-44","","1459","","images/semantic_sequence/housework_semantic/housework_semantic_3.png","0","",""
"","","","","","image-button-response","30","506021","0.0-10.0-1.0-2.1","0262A6C94291486AAD77E396199DA474","0262A6C94291486AAD77E396199DA474","e8028e34-e15d-4250-bcce-dbe986806b8e","a9f3d40c-5730-405c-b25e-1034c4c56f3f","{""num_scrambled_semantic"":""8"",""num_scrambled_causal"":""4"",""num_scrambled_schematic"":""4"",""participantId"":""0262A6C94291486AAD77E396199DA474"",""assignmentId"":""e8028e34-e15d-4250-bcce-dbe986806b8e"",""projectId"":""a9f3d40c-5730-405c-b25e-1034c4c56f3f""}","https://test12345.live/?num_scrambled_semantic=8&num_scrambled_causal=4&num_scrambled_schematic=4&participantId=0262A6C94291486AAD77E396199DA474&assignmentId=e8028e34-e15d-4250-bcce-dbe986806b8e&projectId=a9f3d40c-5730-405c-b25e-1034c4c56f3f","0262A6C94291486AAD77E396199DA474-2025-08-07-19-01-44","","null","","[]","null","",""
"","","","","","image-button-response","31","510533","0.0-10.0-1.0-0.2","0262A6C94291486AAD77E396199DA474","0262A6C94291486AAD77E396199DA474","e8028e34-e15d-4250-bcce-dbe986806b8e","a9f3d40c-5730-405c-b25e-1034c4c56f3f","{""num_scrambled_semantic"":""8"",""num_scrambled_causal"":""4"",""num_scrambled_schematic"":""4"",""participantId"":""0262A6C94291486AAD77E396199DA474"",""assignmentId"":""e8028e34-e15d-4250-bcce-dbe986806b8e"",""projectId"":""a9f3d40c-5730-405c-b25e-1034c4c56f3f""}","https://test12345.live/?num_scrambled_semantic=8&num_scrambled_causal=4&num_scrambled_schematic=4&participantId=0262A6C94291486AAD77E396199DA474&assignmentId=e8028e34-e15d-4250-bcce-dbe986806b8e&projectId=a9f3d40c-5730-405c-b25e-1034c4c56f3f","0262A6C94291486AAD77E396199DA474-2025-08-07-19-01-44","","null","","images/semantic_sequence/housework_semantic/housework_semantic_5.png","null","",""
"","","","","","image-button-response","32","511730","0.0-10.0-1.0-1.2","0262A6C94291486AAD77E396199DA474","0262A6C94291486AAD77E396199DA474","e8028e34-e15d-4250-bcce-dbe986806b8e","a9f3d40c-5730-405c-b25e-1034c4c56f3f","{""num_scrambled_semantic"":""8"",""num_scrambled_causal"":""4"",""num_scrambled_schematic"":""4"",""participantId"":""0262A6C94291486AAD77E396199DA474"",""assignmentId"":""e8028e34-e15d-4250-bcce-dbe986806b8e"",""projectId"":""a9f3d40c-5730-405c-b25e-1034c4c56f3f""}","https://test12345.live/?num_scrambled_semantic=8&num_scrambled_causal=4&num_scrambled_schematic=4&participantId=0262A6C94291486AAD77E396199DA474&assignmentId=e8028e34-e15d-4250-bcce-dbe986806b8e&projectId=a9f3d40c-5730-405c-b25e-1034c4c56f3f","0262A6C94291486AAD77E396199DA474-2025-08-07-19-01-44","","1194","","images/semantic_sequence/housework_semantic/housework_semantic_5.png","0","",""
"","","","","","image-button-response","33","513534","0.0-10.0-1.0-2.2","0262A6C94291486AAD77E396199DA474","0262A6C94291486AAD77E396199DA474","e8028e34-e15d-4250-bcce-dbe986806b8e","a9f3d40c-5730-405c-b25e-1034c4c56f3f","{""num_scrambled_semantic"":""8"",""num_scrambled_causal"":""4"",""num_scrambled_schematic"":""4"",""participantId"":""0262A6C94291486AAD77E396199DA474"",""assignmentId"":""e8028e34-e15d-4250-bcce-dbe986806b8e"",""projectId"":""a9f3d40c-5730-405c-b25e-1034c4c56f3f""}","https://test12345.live/?num_scrambled_semantic=8&num_scrambled_causal=4&num_scrambled_schematic=4&participantId=0262A6C94291486AAD77E396199DA474&assignmentId=e8028e34-e15d-4250-bcce-dbe986806b8e&projectId=a9f3d40c-5730-405c-b25e-1034c4c56f3f","0262A6C94291486AAD77E396199DA474-2025-08-07-19-01-44","","null","","[]","null","",""
"","","","","","image-button-response","34","518047","0.0-10.0-1.0-0.3","0262A6C94291486AAD77E396199DA474","0262A6C94291486AAD77E396199DA474","e8028e34-e15d-4250-bcce-dbe986806b8e","a9f3d40c-5730-405c-b25e-1034c4c56f3f","{""num_scrambled_semantic"":""8"",""num_scrambled_causal"":""4"",""num_scrambled_schematic"":""4"",""participantId"":""0262A6C94291486AAD77E396199DA474"",""assignmentId"":""e8028e34-e15d-4250-bcce-dbe986806b8e"",""projectId"":""a9f3d40c-5730-405c-b25e-1034c4c56f3f""}","https://test12345.live/?num_scrambled_semantic=8&num_scrambled_causal=4&num_scrambled_schematic=4&participantId=0262A6C94291486AAD77E396199DA474&assignmentId=e8028e34-e15d-4250-bcce-dbe986806b8e&projectId=a9f3d40c-5730-405c-b25e-1034c4c56f3f","0262A6C94291486AAD77E396199DA474-2025-08-07-19-01-44","","null","","images/semantic_sequence/housework_semantic/housework_semantic_9.png","null","",""
"","","","","","image-button-response","35","518748","0.0-10.0-1.0-1.3","0262A6C94291486AAD77E396199DA474","0262A6C94291486AAD77E396199DA474","e8028e34-e15d-4250-bcce-dbe986806b8e","a9f3d40c-5730-405c-b25e-1034c4c56f3f","{""num_scrambled_semantic"":""8"",""num_scrambled_causal"":""4"",""num_scrambled_schematic"":""4"",""participantId"":""0262A6C94291486AAD77E396199DA474"",""assignmentId"":""e8028e34-e15d-4250-bcce-dbe986806b8e"",""projectId"":""a9f3d40c-5730-405c-b25e-1034c4c56f3f""}","https://test12345.live/?num_scrambled_semantic=8&num_scrambled_causal=4&num_scrambled_schematic=4&participantId=0262A6C94291486AAD77E396199DA474&assignmentId=e8028e34-e15d-4250-bcce-dbe986806b8e&projectId=a9f3d40c-5730-405c-b25e-1034c4c56f3f","0262A6C94291486AAD77E396199DA474-2025-08-07-19-01-44","","700","","images/semantic_sequence/housework_semantic/housework_semantic_9.png","0","",""
"","","","","","image-button-response","36","520551","0.0-10.0-1.0-2.3","0262A6C94291486AAD77E396199DA474","0262A6C94291486AAD77E396199DA474","e8028e34-e15d-4250-bcce-dbe986806b8e","a9f3d40c-5730-405c-b25e-1034c4c56f3f","{""num_scrambled_semantic"":""8"",""num_scrambled_causal"":""4"",""num_scrambled_schematic"":""4"",""participantId"":""0262A6C94291486AAD77E396199DA474"",""assignmentId"":""e8028e34-e15d-4250-bcce-dbe986806b8e"",""projectId"":""a9f3d40c-5730-405c-b25e-1034c4c56f3f""}","https://test12345.live/?num_scrambled_semantic=8&num_scrambled_causal=4&num_scrambled_schematic=4&participantId=0262A6C94291486AAD77E396199DA474&assignmentId=e8028e34-e15d-4250-bcce-dbe986806b8e&projectId=a9f3d40c-5730-405c-b25e-1034c4c56f3f","0262A6C94291486AAD77E396199DA474-2025-08-07-19-01-44","","null","","[]","null","",""
"","","","","","image-button-response","37","525059","0.0-10.0-1.0-0.4","0262A6C94291486AAD77E396199DA474","0262A6C94291486AAD77E396199DA474","e8028e34-e15d-4250-bcce-dbe986806b8e","a9f3d40c-5730-405c-b25e-1034c4c56f3f","{""num_scrambled_semantic"":""8"",""num_scrambled_causal"":""4"",""num_scrambled_schematic"":""4"",""participantId"":""0262A6C94291486AAD77E396199DA474"",""assignmentId"":""e8028e34-e15d-4250-bcce-dbe986806b8e"",""projectId"":""a9f3d40c-5730-405c-b25e-1034c4c56f3f""}","https://test12345.live/?num_scrambled_semantic=8&num_scrambled_causal=4&num_scrambled_schematic=4&participantId=0262A6C94291486AAD77E396199DA474&assignmentId=e8028e34-e15d-4250-bcce-dbe986806b8e&projectId=a9f3d40c-5730-405c-b25e-1034c4c56f3f","0262A6C94291486AAD77E396199DA474-2025-08-07-19-01-44","","null","","images/semantic_sequence/housework_semantic/housework_semantic_6.png","null","",""
"","","","","","image-button-response","38","525958","0.0-10.0-1.0-1.4","0262A6C94291486AAD77E396199DA474","0262A6C94291486AAD77E396199DA474","e8028e34-e15d-4250-bcce-dbe986806b8e","a9f3d40c-5730-405c-b25e-1034c4c56f3f","{""num_scrambled_semantic"":""8"",""num_scrambled_causal"":""4"",""num_scrambled_schematic"":""4"",""participantId"":""0262A6C94291486AAD77E396199DA474"",""assignmentId"":""e8028e34-e15d-4250-bcce-dbe986806b8e"",""projectId"":""a9f3d40c-5730-405c-b25e-1034c4c56f3f""}","https://test12345.live/?num_scrambled_semantic=8&num_scrambled_causal=4&num_scrambled_schematic=4&participantId=0262A6C94291486AAD77E396199DA474&assignmentId=e8028e34-e15d-4250-bcce-dbe986806b8e&projectId=a9f3d40c-5730-405c-b25e-1034c4c56f3f","0262A6C94291486AAD77E396199DA474-2025-08-07-19-01-44","","898","","images/semantic_sequence/housework_semantic/housework_semantic_6.png","0","",""
"","","","","","image-button-response","39","527778","0.0-10.0-1.0-2.4","0262A6C94291486AAD77E396199DA474","0262A6C94291486AAD77E396199DA474","e8028e34-e15d-4250-bcce-dbe986806b8e","a9f3d40c-5730-405c-b25e-1034c4c56f3f","{""num_scrambled_semantic"":""8"",""num_scrambled_causal"":""4"",""num_scrambled_schematic"":""4"",""participantId"":""0262A6C94291486AAD77E396199DA474"",""assignmentId"":""e8028e34-e15d-4250-bcce-dbe986806b8e"",""projectId"":""a9f3d40c-5730-405c-b25e-1034c4c56f3f""}","https://test12345.live/?num_scrambled_semantic=8&num_scrambled_causal=4&num_scrambled_schematic=4&participantId=0262A6C94291486AAD77E396199DA474&assignmentId=e8028e34-e15d-4250-bcce-dbe986806b8e&projectId=a9f3d40c-5730-405c-b25e-1034c4c56f3f","0262A6C94291486AAD77E396199DA474-2025-08-07-19-01-44","","null","","[]","null","",""
"","","","","","image-button-response","40","532291","0.0-10.0-1.0-0.5","0262A6C94291486AAD77E396199DA474","0262A6C94291486AAD77E396199DA474","e8028e34-e15d-4250-bcce-dbe986806b8e","a9f3d40c-5730-405c-b25e-1034c4c56f3f","{""num_scrambled_semantic"":""8"",""num_scrambled_causal"":""4"",""num_scrambled_schematic"":""4"",""participantId"":""0262A6C94291486AAD77E396199DA474"",""assignmentId"":""e8028e34-e15d-4250-bcce-dbe986806b8e"",""projectId"":""a9f3d40c-5730-405c-b25e-1034c4c56f3f""}","https://test12345.live/?num_scrambled_semantic=8&num_scrambled_causal=4&num_scrambled_schematic=4&participantId=0262A6C94291486AAD77E396199DA474&assignmentId=e8028e34-e15d-4250-bcce-dbe986806b8e&projectId=a9f3d40c-5730-405c-b25e-1034c4c56f3f","0262A6C94291486AAD77E396199DA474-2025-08-07-19-01-44","","null","","images/semantic_sequence/housework_semantic/housework_semantic_2.png","null","",""
"","","","","","image-button-response","41","532911","0.0-10.0-1.0-1.5","0262A6C94291486AAD77E396199DA474","0262A6C94291486AAD77E396199DA474","e8028e34-e15d-4250-bcce-dbe986806b8e","a9f3d40c-5730-405c-b25e-1034c4c56f3f","{""num_scrambled_semantic"":""8"",""num_scrambled_causal"":""4"",""num_scrambled_schematic"":""4"",""participantId"":""0262A6C94291486AAD77E396199DA474"",""assignmentId"":""e8028e34-e15d-4250-bcce-dbe986806b8e"",""projectId"":""a9f3d40c-5730-405c-b25e-1034c4c56f3f""}","https://test12345.live/?num_scrambled_semantic=8&num_scrambled_causal=4&num_scrambled_schematic=4&participantId=0262A6C94291486AAD77E396199DA474&assignmentId=e8028e34-e15d-4250-bcce-dbe986806b8e&projectId=a9f3d40c-5730-405c-b25e-1034c4c56f3f","0262A6C94291486AAD77E396199DA474-2025-08-07-19-01-44","","618","","images/semantic_sequence/housework_semantic/housework_semantic_2.png","0","",""
"","","","","","image-button-response","42","534721","0.0-10.0-1.0-2.5","0262A6C94291486AAD77E396199DA474","0262A6C94291486AAD77E396199DA474","e8028e34-e15d-4250-bcce-dbe986806b8e","a9f3d40c-5730-405c-b25e-1034c4c56f3f","{""num_scrambled_semantic"":""8"",""num_scrambled_causal"":""4"",""num_scrambled_schematic"":""4"",""participantId"":""0262A6C94291486AAD77E396199DA474"",""assignmentId"":""e8028e34-e15d-4250-bcce-dbe986806b8e"",""projectId"":""a9f3d40c-5730-405c-b25e-1034c4c56f3f""}","https://test12345.live/?num_scrambled_semantic=8&num_scrambled_causal=4&num_scrambled_schematic=4&participantId=0262A6C94291486AAD77E396199DA474&assignmentId=e8028e34-e15d-4250-bcce-dbe986806b8e&projectId=a9f3d40c-5730-405c-b25e-1034c4c56f3f","0262A6C94291486AAD77E396199DA474-2025-08-07-19-01-44","","null","","[]","null","",""
"","","","","","image-button-response","43","539236","0.0-10.0-1.0-0.6","0262A6C94291486AAD77E396199DA474","0262A6C94291486AAD77E396199DA474","e8028e34-e15d-4250-bcce-dbe986806b8e","a9f3d40c-5730-405c-b25e-1034c4c56f3f","{""num_scrambled_semantic"":""8"",""num_scrambled_causal"":""4"",""num_scrambled_schematic"":""4"",""participantId"":""0262A6C94291486AAD77E396199DA474"",""assignmentId"":""e8028e34-e15d-4250-bcce-dbe986806b8e"",""projectId"":""a9f3d40c-5730-405c-b25e-1034c4c56f3f""}","https://test12345.live/?num_scrambled_semantic=8&num_scrambled_causal=4&num_scrambled_schematic=4&participantId=0262A6C94291486AAD77E396199DA474&assignmentId=e8028e34-e15d-4250-bcce-dbe986806b8e&projectId=a9f3d40c-5730-405c-b25e-1034c4c56f3f","0262A6C94291486AAD77E396199DA474-2025-08-07-19-01-44","","null","","images/semantic_sequence/housework_semantic/housework_semantic_8.png","null","",""
"","","","","","image-button-response","44","540059","0.0-10.0-1.0-1.6","0262A6C94291486AAD77E396199DA474","0262A6C94291486AAD77E396199DA474","e8028e34-e15d-4250-bcce-dbe986806b8e","a9f3d40c-5730-405c-b25e-1034c4c56f3f","{""num_scrambled_semantic"":""8"",""num_scrambled_causal"":""4"",""num_scrambled_schematic"":""4"",""participantId"":""0262A6C94291486AAD77E396199DA474"",""assignmentId"":""e8028e34-e15d-4250-bcce-dbe986806b8e"",""projectId"":""a9f3d40c-5730-405c-b25e-1034c4c56f3f""}","https://test12345.live/?num_scrambled_semantic=8&num_scrambled_causal=4&num_scrambled_schematic=4&participantId=0262A6C94291486AAD77E396199DA474&assignmentId=e8028e34-e15d-4250-bcce-dbe986806b8e&projectId=a9f3d40c-5730-405c-b25e-1034c4c56f3f","0262A6C94291486AAD77E396199DA474-2025-08-07-19-01-44","","820","","images/semantic_sequence/housework_semantic/housework_semantic_8.png","0","",""
"","","","","","image-button-response","45","541869","0.0-10.0-1.0-2.6","0262A6C94291486AAD77E396199DA474","0262A6C94291486AAD77E396199DA474","e8028e34-e15d-4250-bcce-dbe986806b8e","a9f3d40c-5730-405c-b25e-1034c4c56f3f","{""num_scrambled_semantic"":""8"",""num_scrambled_causal"":""4"",""num_scrambled_schematic"":""4"",""participantId"":""0262A6C94291486AAD77E396199DA474"",""assignmentId"":""e8028e34-e15d-4250-bcce-dbe986806b8e"",""projectId"":""a9f3d40c-5730-405c-b25e-1034c4c56f3f""}","https://test12345.live/?num_scrambled_semantic=8&num_scrambled_causal=4&num_scrambled_schematic=4&participantId=0262A6C94291486AAD77E396199DA474&assignmentId=e8028e34-e15d-4250-bcce-dbe986806b8e&projectId=a9f3d40c-5730-405c-b25e-1034c4c56f3f","0262A6C94291486AAD77E396199DA474-2025-08-07-19-01-44","","null","","[]","null","",""
"","","","","","image-button-response","46","546379","0.0-10.0-1.0-0.7","0262A6C94291486AAD77E396199DA474","0262A6C94291486AAD77E396199DA474","e8028e34-e15d-4250-bcce-dbe986806b8e","a9f3d40c-5730-405c-b25e-1034c4c56f3f","{""num_scrambled_semantic"":""8"",""num_scrambled_causal"":""4"",""num_scrambled_schematic"":""4"",""participantId"":""0262A6C94291486AAD77E396199DA474"",""assignmentId"":""e8028e34-e15d-4250-bcce-dbe986806b8e"",""projectId"":""a9f3d40c-5730-405c-b25e-1034c4c56f3f""}","https://test12345.live/?num_scrambled_semantic=8&num_scrambled_causal=4&num_scrambled_schematic=4&participantId=0262A6C94291486AAD77E396199DA474&assignmentId=e8028e34-e15d-4250-bcce-dbe986806b8e&projectId=a9f3d40c-5730-405c-b25e-1034c4c56f3f","0262A6C94291486AAD77E396199DA474-2025-08-07-19-01-44","","null","","images/semantic_sequence/housework_semantic/housework_semantic_1.png","null","",""
"","","","","","image-button-response","47","546927","0.0-10.0-1.0-1.7","0262A6C94291486AAD77E396199DA474","0262A6C94291486AAD77E396199DA474","e8028e34-e15d-4250-bcce-dbe986806b8e","a9f3d40c-5730-405c-b25e-1034c4c56f3f","{""num_scrambled_semantic"":""8"",""num_scrambled_causal"":""4"",""num_scrambled_schematic"":""4"",""participantId"":""0262A6C94291486AAD77E396199DA474"",""assignmentId"":""e8028e34-e15d-4250-bcce-dbe986806b8e"",""projectId"":""a9f3d40c-5730-405c-b25e-1034c4c56f3f""}","https://test12345.live/?num_scrambled_semantic=8&num_scrambled_causal=4&num_scrambled_schematic=4&participantId=0262A6C94291486AAD77E396199DA474&assignmentId=e8028e34-e15d-4250-bcce-dbe986806b8e&projectId=a9f3d40c-5730-405c-b25e-1034c4c56f3f","0262A6C94291486AAD77E396199DA474-2025-08-07-19-01-44","","547","","images/semantic_sequence/housework_semantic/housework_semantic_1.png","0","",""
"","","","","","image-button-response","48","548738","0.0-10.0-1.0-2.7","0262A6C94291486AAD77E396199DA474","0262A6C94291486AAD77E396199DA474","e8028e34-e15d-4250-bcce-dbe986806b8e","a9f3d40c-5730-405c-b25e-1034c4c56f3f","{""num_scrambled_semantic"":""8"",""num_scrambled_causal"":""4"",""num_scrambled_schematic"":""4"",""participantId"":""0262A6C94291486AAD77E396199DA474"",""assignmentId"":""e8028e34-e15d-4250-bcce-dbe986806b8e"",""projectId"":""a9f3d40c-5730-405c-b25e-1034c4c56f3f""}","https://test12345.live/?num_scrambled_semantic=8&num_scrambled_causal=4&num_scrambled_schematic=4&participantId=0262A6C94291486AAD77E396199DA474&assignmentId=e8028e34-e15d-4250-bcce-dbe986806b8e&projectId=a9f3d40c-5730-405c-b25e-1034c4c56f3f","0262A6C94291486AAD77E396199DA474-2025-08-07-19-01-44","","null","","[]","null","",""
"","","","","","image-button-response","49","553253","0.0-10.0-1.0-0.8","0262A6C94291486AAD77E396199DA474","0262A6C94291486AAD77E396199DA474","e8028e34-e15d-4250-bcce-dbe986806b8e","a9f3d40c-5730-405c-b25e-1034c4c56f3f","{""num_scrambled_semantic"":""8"",""num_scrambled_causal"":""4"",""num_scrambled_schematic"":""4"",""participantId"":""0262A6C94291486AAD77E396199DA474"",""assignmentId"":""e8028e34-e15d-4250-bcce-dbe986806b8e"",""projectId"":""a9f3d40c-5730-405c-b25e-1034c4c56f3f""}","https://test12345.live/?num_scrambled_semantic=8&num_scrambled_causal=4&num_scrambled_schematic=4&participantId=0262A6C94291486AAD77E396199DA474&assignmentId=e8028e34-e15d-4250-bcce-dbe986806b8e&projectId=a9f3d40c-5730-405c-b25e-1034c4c56f3f","0262A6C94291486AAD77E396199DA474-2025-08-07-19-01-44","","null","","images/semantic_sequence/housework_semantic/housework_semantic_4.png","null","",""
"","","","","","image-button-response","50","554002","0.0-10.0-1.0-1.8","0262A6C94291486AAD77E396199DA474","0262A6C94291486AAD77E396199DA474","e8028e34-e15d-4250-bcce-dbe986806b8e","a9f3d40c-5730-405c-b25e-1034c4c56f3f","{""num_scrambled_semantic"":""8"",""num_scrambled_causal"":""4"",""num_scrambled_schematic"":""4"",""participantId"":""0262A6C94291486AAD77E396199DA474"",""assignmentId"":""e8028e34-e15d-4250-bcce-dbe986806b8e"",""projectId"":""a9f3d40c-5730-405c-b25e-1034c4c56f3f""}","https://test12345.live/?num_scrambled_semantic=8&num_scrambled_causal=4&num_scrambled_schematic=4&participantId=0262A6C94291486AAD77E396199DA474&assignmentId=e8028e34-e15d-4250-bcce-dbe986806b8e&projectId=a9f3d40c-5730-405c-b25e-1034c4c56f3f","0262A6C94291486AAD77E396199DA474-2025-08-07-19-01-44","","747","","images/semantic_sequence/housework_semantic/housework_semantic_4.png","0","",""
"","","","","","image-button-response","51","555824","0.0-10.0-1.0-2.8","0262A6C94291486AAD77E396199DA474","0262A6C94291486AAD77E396199DA474","e8028e34-e15d-4250-bcce-dbe986806b8e","a9f3d40c-5730-405c-b25e-1034c4c56f3f","{""num_scrambled_semantic"":""8"",""num_scrambled_causal"":""4"",""num_scrambled_schematic"":""4"",""participantId"":""0262A6C94291486AAD77E396199DA474"",""assignmentId"":""e8028e34-e15d-4250-bcce-dbe986806b8e"",""projectId"":""a9f3d40c-5730-405c-b25e-1034c4c56f3f""}","https://test12345.live/?num_scrambled_semantic=8&num_scrambled_causal=4&num_scrambled_schematic=4&participantId=0262A6C94291486AAD77E396199DA474&assignmentId=e8028e34-e15d-4250-bcce-dbe986806b8e&projectId=a9f3d40c-5730-405c-b25e-1034c4c56f3f","0262A6C94291486AAD77E396199DA474-2025-08-07-19-01-44","","null","","[]","null","",""
"","","","","","image-button-response","52","560339","0.0-10.0-1.0-0.9","0262A6C94291486AAD77E396199DA474","0262A6C94291486AAD77E396199DA474","e8028e34-e15d-4250-bcce-dbe986806b8e","a9f3d40c-5730-405c-b25e-1034c4c56f3f","{""num_scrambled_semantic"":""8"",""num_scrambled_causal"":""4"",""num_scrambled_schematic"":""4"",""participantId"":""0262A6C94291486AAD77E396199DA474"",""assignmentId"":""e8028e34-e15d-4250-bcce-dbe986806b8e"",""projectId"":""a9f3d40c-5730-405c-b25e-1034c4c56f3f""}","https://test12345.live/?num_scrambled_semantic=8&num_scrambled_causal=4&num_scrambled_schematic=4&participantId=0262A6C94291486AAD77E396199DA474&assignmentId=e8028e34-e15d-4250-bcce-dbe986806b8e&projectId=a9f3d40c-5730-405c-b25e-1034c4c56f3f","0262A6C94291486AAD77E396199DA474-2025-08-07-19-01-44","","null","","images/semantic_sequence/housework_semantic/housework_semantic_ten.png","null","",""
"","","","","","image-button-response","53","561106","0.0-10.0-1.0-1.9","0262A6C94291486AAD77E396199DA474","0262A6C94291486AAD77E396199DA474","e8028e34-e15d-4250-bcce-dbe986806b8e","a9f3d40c-5730-405c-b25e-1034c4c56f3f","{""num_scrambled_semantic"":""8"",""num_scrambled_causal"":""4"",""num_scrambled_schematic"":""4"",""participantId"":""0262A6C94291486AAD77E396199DA474"",""assignmentId"":""e8028e34-e15d-4250-bcce-dbe986806b8e"",""projectId"":""a9f3d40c-5730-405c-b25e-1034c4c56f3f""}","https://test12345.live/?num_scrambled_semantic=8&num_scrambled_causal=4&num_scrambled_schematic=4&participantId=0262A6C94291486AAD77E396199DA474&assignmentId=e8028e34-e15d-4250-bcce-dbe986806b8e&projectId=a9f3d40c-5730-405c-b25e-1034c4c56f3f","0262A6C94291486AAD77E396199DA474-2025-08-07-19-01-44","","766","","images/semantic_sequence/housework_semantic/housework_semantic_ten.png","0","",""
"","","","","","image-button-response","54","562923","0.0-10.0-1.0-2.9","0262A6C94291486AAD77E396199DA474","0262A6C94291486AAD77E396199DA474","e8028e34-e15d-4250-bcce-dbe986806b8e","a9f3d40c-5730-405c-b25e-1034c4c56f3f","{""num_scrambled_semantic"":""8"",""num_scrambled_causal"":""4"",""num_scrambled_schematic"":""4"",""participantId"":""0262A6C94291486AAD77E396199DA474"",""assignmentId"":""e8028e34-e15d-4250-bcce-dbe986806b8e"",""projectId"":""a9f3d40c-5730-405c-b25e-1034c4c56f3f""}","https://test12345.live/?num_scrambled_semantic=8&num_scrambled_causal=4&num_scrambled_schematic=4&participantId=0262A6C94291486AAD77E396199DA474&assignmentId=e8028e34-e15d-4250-bcce-dbe986806b8e&projectId=a9f3d40c-5730-405c-b25e-1034c4c56f3f","0262A6C94291486AAD77E396199DA474-2025-08-07-19-01-44","","null","","[]","null","",""
"","","","","","html-audio-response","55","598637","0.0-11.0","0262A6C94291486AAD77E396199DA474","0262A6C94291486AAD77E396199DA474","e8028e34-e15d-4250-bcce-dbe986806b8e","a9f3d40c-5730-405c-b25e-1034c4c56f3f","{""num_scrambled_semantic"":""8"",""num_scrambled_causal"":""4"",""num_scrambled_schematic"":""4"",""participantId"":""0262A6C94291486AAD77E396199DA474"",""assignmentId"":""e8028e34-e15d-4250-bcce-dbe986806b8e"",""projectId"":""a9f3d40c-5730-405c-b25e-1034c4c56f3f""}","https://test12345.live/?num_scrambled_semantic=8&num_scrambled_causal=4&num_scrambled_schematic=4&participantId=0262A6C94291486AAD77E396199DA474&assignmentId=e8028e34-e15d-4250-bcce-dbe986806b8e&projectId=a9f3d40c-5730-405c-b25e-1034c4c56f3f","0262A6C94291486AAD77E396199DA474-2025-08-07-19-01-44","","23481","","[""<span style=\""color: red; font-size: 24px\""> NOW RECORDING</span><p>Please say out loud all the images you saw, as many as you can remember. The images can be said in any order.</p>""]","","3","housework_semantic"
"","","","","","image-button-response","56","604658","0.0-12.0-0.0","0262A6C94291486AAD77E396199DA474","0262A6C94291486AAD77E396199DA474","e8028e34-e15d-4250-bcce-dbe986806b8e","a9f3d40c-5730-405c-b25e-1034c4c56f3f","{""num_scrambled_semantic"":""8"",""num_scrambled_causal"":""4"",""num_scrambled_schematic"":""4"",""participantId"":""0262A6C94291486AAD77E396199DA474"",""assignmentId"":""e8028e34-e15d-4250-bcce-dbe986806b8e"",""projectId"":""a9f3d40c-5730-405c-b25e-1034c4c56f3f""}","https://test12345.live/?num_scrambled_semantic=8&num_scrambled_causal=4&num_scrambled_schematic=4&participantId=0262A6C94291486AAD77E396199DA474&assignmentId=e8028e34-e15d-4250-bcce-dbe986806b8e&projectId=a9f3d40c-5730-405c-b25e-1034c4c56f3f","0262A6C94291486AAD77E396199DA474-2025-08-07-19-01-44","","null","","images/causal_sequence/saving_a_cat_causal/saving_a_cat_causal_0.png","null","",""
"","","","","","image-button-response","57","609173","0.0-12.0-1.0-0.0","0262A6C94291486AAD77E396199DA474","0262A6C94291486AAD77E396199DA474","e8028e34-e15d-4250-bcce-dbe986806b8e","a9f3d40c-5730-405c-b25e-1034c4c56f3f","{""num_scrambled_semantic"":""8"",""num_scrambled_causal"":""4"",""num_scrambled_schematic"":""4"",""participantId"":""0262A6C94291486AAD77E396199DA474"",""assignmentId"":""e8028e34-e15d-4250-bcce-dbe986806b8e"",""projectId"":""a9f3d40c-5730-405c-b25e-1034c4c56f3f""}","https://test12345.live/?num_scrambled_semantic=8&num_scrambled_causal=4&num_scrambled_schematic=4&participantId=0262A6C94291486AAD77E396199DA474&assignmentId=e8028e34-e15d-4250-bcce-dbe986806b8e&projectId=a9f3d40c-5730-405c-b25e-1034c4c56f3f","0262A6C94291486AAD77E396199DA474-2025-08-07-19-01-44","","null","","images/causal_sequence/saving_a_cat_causal/saving_a_cat_causal_6.png","null","",""
"","","","","","image-button-response","58","610437","0.0-12.0-1.0-1.0","0262A6C94291486AAD77E396199DA474","0262A6C94291486AAD77E396199DA474","e8028e34-e15d-4250-bcce-dbe986806b8e","a9f3d40c-5730-405c-b25e-1034c4c56f3f","{""num_scrambled_semantic"":""8"",""num_scrambled_causal"":""4"",""num_scrambled_schematic"":""4"",""participantId"":""0262A6C94291486AAD77E396199DA474"",""assignmentId"":""e8028e34-e15d-4250-bcce-dbe986806b8e"",""projectId"":""a9f3d40c-5730-405c-b25e-1034c4c56f3f""}","https://test12345.live/?num_scrambled_semantic=8&num_scrambled_causal=4&num_scrambled_schematic=4&participantId=0262A6C94291486AAD77E396199DA474&assignmentId=e8028e34-e15d-4250-bcce-dbe986806b8e&projectId=a9f3d40c-5730-405c-b25e-1034c4c56f3f","0262A6C94291486AAD77E396199DA474-2025-08-07-19-01-44","","1261","","images/causal_sequence/saving_a_cat_causal/saving_a_cat_causal_6.png","0","",""
"","","","","","image-button-response","59","612257","0.0-12.0-1.0-2.0","0262A6C94291486AAD77E396199DA474","0262A6C94291486AAD77E396199DA474","e8028e34-e15d-4250-bcce-dbe986806b8e","a9f3d40c-5730-405c-b25e-1034c4c56f3f","{""num_scrambled_semantic"":""8"",""num_scrambled_causal"":""4"",""num_scrambled_schematic"":""4"",""participantId"":""0262A6C94291486AAD77E396199DA474"",""assignmentId"":""e8028e34-e15d-4250-bcce-dbe986806b8e"",""projectId"":""a9f3d40c-5730-405c-b25e-1034c4c56f3f""}","https://test12345.live/?num_scrambled_semantic=8&num_scrambled_causal=4&num_scrambled_schematic=4&participantId=0262A6C94291486AAD77E396199DA474&assignmentId=e8028e34-e15d-4250-bcce-dbe986806b8e&projectId=a9f3d40c-5730-405c-b25e-1034c4c56f3f","0262A6C94291486AAD77E396199DA474-2025-08-07-19-01-44","","null","","[]","null","",""
"","","","","","image-button-response","60","616771","0.0-12.0-1.0-0.1","0262A6C94291486AAD77E396199DA474","0262A6C94291486AAD77E396199DA474","e8028e34-e15d-4250-bcce-dbe986806b8e","a9f3d40c-5730-405c-b25e-1034c4c56f3f","{""num_scrambled_semantic"":""8"",""num_scrambled_causal"":""4"",""num_scrambled_schematic"":""4"",""participantId"":""0262A6C94291486AAD77E396199DA474"",""assignmentId"":""e8028e34-e15d-4250-bcce-dbe986806b8e"",""projectId"":""a9f3d40c-5730-405c-b25e-1034c4c56f3f""}","https://test12345.live/?num_scrambled_semantic=8&num_scrambled_causal=4&num_scrambled_schematic=4&participantId=0262A6C94291486AAD77E396199DA474&assignmentId=e8028e34-e15d-4250-bcce-dbe986806b8e&projectId=a9f3d40c-5730-405c-b25e-1034c4c56f3f","0262A6C94291486AAD77E396199DA474-2025-08-07-19-01-44","","null","","images/causal_sequence/saving_a_cat_causal/saving_a_cat_causal_3.png","null","",""
"","","","","","image-button-response","61","618982","0.0-12.0-1.0-1.1","0262A6C94291486AAD77E396199DA474","0262A6C94291486AAD77E396199DA474","e8028e34-e15d-4250-bcce-dbe986806b8e","a9f3d40c-5730-405c-b25e-1034c4c56f3f","{""num_scrambled_semantic"":""8"",""num_scrambled_causal"":""4"",""num_scrambled_schematic"":""4"",""participantId"":""0262A6C94291486AAD77E396199DA474"",""assignmentId"":""e8028e34-e15d-4250-bcce-dbe986806b8e"",""projectId"":""a9f3d40c-5730-405c-b25e-1034c4c56f3f""}","https://test12345.live/?num_scrambled_semantic=8&num_scrambled_causal=4&num_scrambled_schematic=4&participantId=0262A6C94291486AAD77E396199DA474&assignmentId=e8028e34-e15d-4250-bcce-dbe986806b8e&projectId=a9f3d40c-5730-405c-b25e-1034c4c56f3f","0262A6C94291486AAD77E396199DA474-2025-08-07-19-01-44","","2209","","images/causal_sequence/saving_a_cat_causal/saving_a_cat_causal_3.png","1","",""
"","","","","","image-button-response","62","620802","0.0-12.0-1.0-2.1","0262A6C94291486AAD77E396199DA474","0262A6C94291486AAD77E396199DA474","e8028e34-e15d-4250-bcce-dbe986806b8e","a9f3d40c-5730-405c-b25e-1034c4c56f3f","{""num_scrambled_semantic"":""8"",""num_scrambled_causal"":""4"",""num_scrambled_schematic"":""4"",""participantId"":""0262A6C94291486AAD77E396199DA474"",""assignmentId"":""e8028e34-e15d-4250-bcce-dbe986806b8e"",""projectId"":""a9f3d40c-5730-405c-b25e-1034c4c56f3f""}","https://test12345.live/?num_scrambled_semantic=8&num_scrambled_causal=4&num_scrambled_schematic=4&participantId=0262A6C94291486AAD77E396199DA474&assignmentId=e8028e34-e15d-4250-bcce-dbe986806b8e&projectId=a9f3d40c-5730-405c-b25e-1034c4c56f3f","0262A6C94291486AAD77E396199DA474-2025-08-07-19-01-44","","null","","[]","null","",""
"","","","","","image-button-response","63","625304","0.0-12.0-1.0-0.2","0262A6C94291486AAD77E396199DA474","0262A6C94291486AAD77E396199DA474","e8028e34-e15d-4250-bcce-dbe986806b8e","a9f3d40c-5730-405c-b25e-1034c4c56f3f","{""num_scrambled_semantic"":""8"",""num_scrambled_causal"":""4"",""num_scrambled_schematic"":""4"",""participantId"":""0262A6C94291486AAD77E396199DA474"",""assignmentId"":""e8028e34-e15d-4250-bcce-dbe986806b8e"",""projectId"":""a9f3d40c-5730-405c-b25e-1034c4c56f3f""}","https://test12345.live/?num_scrambled_semantic=8&num_scrambled_causal=4&num_scrambled_schematic=4&participantId=0262A6C94291486AAD77E396199DA474&assignmentId=e8028e34-e15d-4250-bcce-dbe986806b8e&projectId=a9f3d40c-5730-405c-b25e-1034c4c56f3f","0262A6C94291486AAD77E396199DA474-2025-08-07-19-01-44","","null","","images/causal_sequence/saving_a_cat_causal/saving_a_cat_causal_1.png","null","",""
"","","","","","image-button-response","64","626818","0.0-12.0-1.0-1.2","0262A6C94291486AAD77E396199DA474","0262A6C94291486AAD77E396199DA474","e8028e34-e15d-4250-bcce-dbe986806b8e","a9f3d40c-5730-405c-b25e-1034c4c56f3f","{""num_scrambled_semantic"":""8"",""num_scrambled_causal"":""4"",""num_scrambled_schematic"":""4"",""participantId"":""0262A6C94291486AAD77E396199DA474"",""assignmentId"":""e8028e34-e15d-4250-bcce-dbe986806b8e"",""projectId"":""a9f3d40c-5730-405c-b25e-1034c4c56f3f""}","https://test12345.live/?num_scrambled_semantic=8&num_scrambled_causal=4&num_scrambled_schematic=4&participantId=0262A6C94291486AAD77E396199DA474&assignmentId=e8028e34-e15d-4250-bcce-dbe986806b8e&projectId=a9f3d40c-5730-405c-b25e-1034c4c56f3f","0262A6C94291486AAD77E396199DA474-2025-08-07-19-01-44","","1512","","images/causal_sequence/saving_a_cat_causal/saving_a_cat_causal_1.png","0","",""
"","","","","","image-button-response","65","628623","0.0-12.0-1.0-2.2","0262A6C94291486AAD77E396199DA474","0262A6C94291486AAD77E396199DA474","e8028e34-e15d-4250-bcce-dbe986806b8e","a9f3d40c-5730-405c-b25e-1034c4c56f3f","{""num_scrambled_semantic"":""8"",""num_scrambled_causal"":""4"",""num_scrambled_schematic"":""4"",""participantId"":""0262A6C94291486AAD77E396199DA474"",""assignmentId"":""e8028e34-e15d-4250-bcce-dbe986806b8e"",""projectId"":""a9f3d40c-5730-405c-b25e-1034c4c56f3f""}","https://test12345.live/?num_scrambled_semantic=8&num_scrambled_causal=4&num_scrambled_schematic=4&participantId=0262A6C94291486AAD77E396199DA474&assignmentId=e8028e34-e15d-4250-bcce-dbe986806b8e&projectId=a9f3d40c-5730-405c-b25e-1034c4c56f3f","0262A6C94291486AAD77E396199DA474-2025-08-07-19-01-44","","null","","[]","null","",""
"","","","","","image-button-response","66","633126","0.0-12.0-1.0-0.3","0262A6C94291486AAD77E396199DA474","0262A6C94291486AAD77E396199DA474","e8028e34-e15d-4250-bcce-dbe986806b8e","a9f3d40c-5730-405c-b25e-1034c4c56f3f","{""num_scrambled_semantic"":""8"",""num_scrambled_causal"":""4"",""num_scrambled_schematic"":""4"",""participantId"":""0262A6C94291486AAD77E396199DA474"",""assignmentId"":""e8028e34-e15d-4250-bcce-dbe986806b8e"",""projectId"":""a9f3d40c-5730-405c-b25e-1034c4c56f3f""}","https://test12345.live/?num_scrambled_semantic=8&num_scrambled_causal=4&num_scrambled_schematic=4&participantId=0262A6C94291486AAD77E396199DA474&assignmentId=e8028e34-e15d-4250-bcce-dbe986806b8e&projectId=a9f3d40c-5730-405c-b25e-1034c4c56f3f","0262A6C94291486AAD77E396199DA474-2025-08-07-19-01-44","","null","","images/causal_sequence/saving_a_cat_causal/saving_a_cat_causal_8.png","null","",""
"","","","","","image-button-response","67","636636","0.0-12.0-1.0-1.3","0262A6C94291486AAD77E396199DA474","0262A6C94291486AAD77E396199DA474","e8028e34-e15d-4250-bcce-dbe986806b8e","a9f3d40c-5730-405c-b25e-1034c4c56f3f","{""num_scrambled_semantic"":""8"",""num_scrambled_causal"":""4"",""num_scrambled_schematic"":""4"",""participantId"":""0262A6C94291486AAD77E396199DA474"",""assignmentId"":""e8028e34-e15d-4250-bcce-dbe986806b8e"",""projectId"":""a9f3d40c-5730-405c-b25e-1034c4c56f3f""}","https://test12345.live/?num_scrambled_semantic=8&num_scrambled_causal=4&num_scrambled_schematic=4&participantId=0262A6C94291486AAD77E396199DA474&assignmentId=e8028e34-e15d-4250-bcce-dbe986806b8e&projectId=a9f3d40c-5730-405c-b25e-1034c4c56f3f","0262A6C94291486AAD77E396199DA474-2025-08-07-19-01-44","","3508","","images/causal_sequence/saving_a_cat_causal/saving_a_cat_causal_8.png","0","",""
"","","","","","image-button-response","68","638444","0.0-12.0-1.0-2.3","0262A6C94291486AAD77E396199DA474","0262A6C94291486AAD77E396199DA474","e8028e34-e15d-4250-bcce-dbe986806b8e","a9f3d40c-5730-405c-b25e-1034c4c56f3f","{""num_scrambled_semantic"":""8"",""num_scrambled_causal"":""4"",""num_scrambled_schematic"":""4"",""participantId"":""0262A6C94291486AAD77E396199DA474"",""assignmentId"":""e8028e34-e15d-4250-bcce-dbe986806b8e"",""projectId"":""a9f3d40c-5730-405c-b25e-1034c4c56f3f""}","https://test12345.live/?num_scrambled_semantic=8&num_scrambled_causal=4&num_scrambled_schematic=4&participantId=0262A6C94291486AAD77E396199DA474&assignmentId=e8028e34-e15d-4250-bcce-dbe986806b8e&projectId=a9f3d40c-5730-405c-b25e-1034c4c56f3f","0262A6C94291486AAD77E396199DA474-2025-08-07-19-01-44","","null","","[]","null","",""
"","","","","","image-button-response","69","642962","0.0-12.0-1.0-0.4","0262A6C94291486AAD77E396199DA474","0262A6C94291486AAD77E396199DA474","e8028e34-e15d-4250-bcce-dbe986806b8e","a9f3d40c-5730-405c-b25e-1034c4c56f3f","{""num_scrambled_semantic"":""8"",""num_scrambled_causal"":""4"",""num_scrambled_schematic"":""4"",""participantId"":""0262A6C94291486AAD77E396199DA474"",""assignmentId"":""e8028e34-e15d-4250-bcce-dbe986806b8e"",""projectId"":""a9f3d40c-5730-405c-b25e-1034c4c56f3f""}","https://test12345.live/?num_scrambled_semantic=8&num_scrambled_causal=4&num_scrambled_schematic=4&participantId=0262A6C94291486AAD77E396199DA474&assignmentId=e8028e34-e15d-4250-bcce-dbe986806b8e&projectId=a9f3d40c-5730-405c-b25e-1034c4c56f3f","0262A6C94291486AAD77E396199DA474-2025-08-07-19-01-44","","null","","images/causal_sequence/saving_a_cat_causal/saving_a_cat_causal_7.png","null","",""
"","","","","","image-button-response","70","643664","0.0-12.0-1.0-1.4","0262A6C94291486AAD77E396199DA474","0262A6C94291486AAD77E396199DA474","e8028e34-e15d-4250-bcce-dbe986806b8e","a9f3d40c-5730-405c-b25e-1034c4c56f3f","{""num_scrambled_semantic"":""8"",""num_scrambled_causal"":""4"",""num_scrambled_schematic"":""4"",""participantId"":""0262A6C94291486AAD77E396199DA474"",""assignmentId"":""e8028e34-e15d-4250-bcce-dbe986806b8e"",""projectId"":""a9f3d40c-5730-405c-b25e-1034c4c56f3f""}","https://test12345.live/?num_scrambled_semantic=8&num_scrambled_causal=4&num_scrambled_schematic=4&participantId=0262A6C94291486AAD77E396199DA474&assignmentId=e8028e34-e15d-4250-bcce-dbe986806b8e&projectId=a9f3d40c-5730-405c-b25e-1034c4c56f3f","0262A6C94291486AAD77E396199DA474-2025-08-07-19-01-44","","699","","images/causal_sequence/saving_a_cat_causal/saving_a_cat_causal_7.png","0","",""
"","","","","","image-button-response","71","645480","0.0-12.0-1.0-2.4","0262A6C94291486AAD77E396199DA474","0262A6C94291486AAD77E396199DA474","e8028e34-e15d-4250-bcce-dbe986806b8e","a9f3d40c-5730-405c-b25e-1034c4c56f3f","{""num_scrambled_semantic"":""8"",""num_scrambled_causal"":""4"",""num_scrambled_schematic"":""4"",""participantId"":""0262A6C94291486AAD77E396199DA474"",""assignmentId"":""e8028e34-e15d-4250-bcce-dbe986806b8e"",""projectId"":""a9f3d40c-5730-405c-b25e-1034c4c56f3f""}","https://test12345.live/?num_scrambled_semantic=8&num_scrambled_causal=4&num_scrambled_schematic=4&participantId=0262A6C94291486AAD77E396199DA474&assignmentId=e8028e34-e15d-4250-bcce-dbe986806b8e&projectId=a9f3d40c-5730-405c-b25e-1034c4c56f3f","0262A6C94291486AAD77E396199DA474-2025-08-07-19-01-44","","null","","[]","null","",""
"","","","","","image-button-response","72","649993","0.0-12.0-1.0-0.5","0262A6C94291486AAD77E396199DA474","0262A6C94291486AAD77E396199DA474","e8028e34-e15d-4250-bcce-dbe986806b8e","a9f3d40c-5730-405c-b25e-1034c4c56f3f","{""num_scrambled_semantic"":""8"",""num_scrambled_causal"":""4"",""num_scrambled_schematic"":""4"",""participantId"":""0262A6C94291486AAD77E396199DA474"",""assignmentId"":""e8028e34-e15d-4250-bcce-dbe986806b8e"",""projectId"":""a9f3d40c-5730-405c-b25e-1034c4c56f3f""}","https://test12345.live/?num_scrambled_semantic=8&num_scrambled_causal=4&num_scrambled_schematic=4&participantId=0262A6C94291486AAD77E396199DA474&assignmentId=e8028e34-e15d-4250-bcce-dbe986806b8e&projectId=a9f3d40c-5730-405c-b25e-1034c4c56f3f","0262A6C94291486AAD77E396199DA474-2025-08-07-19-01-44","","null","","images/causal_sequence/saving_a_cat_causal/saving_a_cat_causal_4.png","null","",""
"","","","","","image-button-response","73","651554","0.0-12.0-1.0-1.5","0262A6C94291486AAD77E396199DA474","0262A6C94291486AAD77E396199DA474","e8028e34-e15d-4250-bcce-dbe986806b8e","a9f3d40c-5730-405c-b25e-1034c4c56f3f","{""num_scrambled_semantic"":""8"",""num_scrambled_causal"":""4"",""num_scrambled_schematic"":""4"",""participantId"":""0262A6C94291486AAD77E396199DA474"",""assignmentId"":""e8028e34-e15d-4250-bcce-dbe986806b8e"",""projectId"":""a9f3d40c-5730-405c-b25e-1034c4c56f3f""}","https://test12345.live/?num_scrambled_semantic=8&num_scrambled_causal=4&num_scrambled_schematic=4&participantId=0262A6C94291486AAD77E396199DA474&assignmentId=e8028e34-e15d-4250-bcce-dbe986806b8e&projectId=a9f3d40c-5730-405c-b25e-1034c4c56f3f","0262A6C94291486AAD77E396199DA474-2025-08-07-19-01-44","","1545","","images/causal_sequence/saving_a_cat_causal/saving_a_cat_causal_4.png","0","",""
"","","","","","image-button-response","74","653365","0.0-12.0-1.0-2.5","0262A6C94291486AAD77E396199DA474","0262A6C94291486AAD77E396199DA474","e8028e34-e15d-4250-bcce-dbe986806b8e","a9f3d40c-5730-405c-b25e-1034c4c56f3f","{""num_scrambled_semantic"":""8"",""num_scrambled_causal"":""4"",""num_scrambled_schematic"":""4"",""participantId"":""0262A6C94291486AAD77E396199DA474"",""assignmentId"":""e8028e34-e15d-4250-bcce-dbe986806b8e"",""projectId"":""a9f3d40c-5730-405c-b25e-1034c4c56f3f""}","https://test12345.live/?num_scrambled_semantic=8&num_scrambled_causal=4&num_scrambled_schematic=4&participantId=0262A6C94291486AAD77E396199DA474&assignmentId=e8028e34-e15d-4250-bcce-dbe986806b8e&projectId=a9f3d40c-5730-405c-b25e-1034c4c56f3f","0262A6C94291486AAD77E396199DA474-2025-08-07-19-01-44","","null","","[]","null","",""
"","","","","","image-button-response","75","657868","0.0-12.0-1.0-0.6","0262A6C94291486AAD77E396199DA474","0262A6C94291486AAD77E396199DA474","e8028e34-e15d-4250-bcce-dbe986806b8e","a9f3d40c-5730-405c-b25e-1034c4c56f3f","{""num_scrambled_semantic"":""8"",""num_scrambled_causal"":""4"",""num_scrambled_schematic"":""4"",""participantId"":""0262A6C94291486AAD77E396199DA474"",""assignmentId"":""e8028e34-e15d-4250-bcce-dbe986806b8e"",""projectId"":""a9f3d40c-5730-405c-b25e-1034c4c56f3f""}","https://test12345.live/?num_scrambled_semantic=8&num_scrambled_causal=4&num_scrambled_schematic=4&participantId=0262A6C94291486AAD77E396199DA474&assignmentId=e8028e34-e15d-4250-bcce-dbe986806b8e&projectId=a9f3d40c-5730-405c-b25e-1034c4c56f3f","0262A6C94291486AAD77E396199DA474-2025-08-07-19-01-44","","null","","images/causal_sequence/saving_a_cat_causal/saving_a_cat_causal_9.png","null","",""
"","","","","","image-button-response","76","658703","0.0-12.0-1.0-1.6","0262A6C94291486AAD77E396199DA474","0262A6C94291486AAD77E396199DA474","e8028e34-e15d-4250-bcce-dbe986806b8e","a9f3d40c-5730-405c-b25e-1034c4c56f3f","{""num_scrambled_semantic"":""8"",""num_scrambled_causal"":""4"",""num_scrambled_schematic"":""4"",""participantId"":""0262A6C94291486AAD77E396199DA474"",""assignmentId"":""e8028e34-e15d-4250-bcce-dbe986806b8e"",""projectId"":""a9f3d40c-5730-405c-b25e-1034c4c56f3f""}","https://test12345.live/?num_scrambled_semantic=8&num_scrambled_causal=4&num_scrambled_schematic=4&participantId=0262A6C94291486AAD77E396199DA474&assignmentId=e8028e34-e15d-4250-bcce-dbe986806b8e&projectId=a9f3d40c-5730-405c-b25e-1034c4c56f3f","0262A6C94291486AAD77E396199DA474-2025-08-07-19-01-44","","832","","images/causal_sequence/saving_a_cat_causal/saving_a_cat_causal_9.png","0","",""
"","","","","","image-button-response","77","660513","0.0-12.0-1.0-2.6","0262A6C94291486AAD77E396199DA474","0262A6C94291486AAD77E396199DA474","e8028e34-e15d-4250-bcce-dbe986806b8e","a9f3d40c-5730-405c-b25e-1034c4c56f3f","{""num_scrambled_semantic"":""8"",""num_scrambled_causal"":""4"",""num_scrambled_schematic"":""4"",""participantId"":""0262A6C94291486AAD77E396199DA474"",""assignmentId"":""e8028e34-e15d-4250-bcce-dbe986806b8e"",""projectId"":""a9f3d40c-5730-405c-b25e-1034c4c56f3f""}","https://test12345.live/?num_scrambled_semantic=8&num_scrambled_causal=4&num_scrambled_schematic=4&participantId=0262A6C94291486AAD77E396199DA474&assignmentId=e8028e34-e15d-4250-bcce-dbe986806b8e&projectId=a9f3d40c-5730-405c-b25e-1034c4c56f3f","0262A6C94291486AAD77E396199DA474-2025-08-07-19-01-44","","null","","[]","null","",""
"","","","","","image-button-response","78","665026","0.0-12.0-1.0-0.7","0262A6C94291486AAD77E396199DA474","0262A6C94291486AAD77E396199DA474","e8028e34-e15d-4250-bcce-dbe986806b8e","a9f3d40c-5730-405c-b25e-1034c4c56f3f","{""num_scrambled_semantic"":""8"",""num_scrambled_causal"":""4"",""num_scrambled_schematic"":""4"",""participantId"":""0262A6C94291486AAD77E396199DA474"",""assignmentId"":""e8028e34-e15d-4250-bcce-dbe986806b8e"",""projectId"":""a9f3d40c-5730-405c-b25e-1034c4c56f3f""}","https://test12345.live/?num_scrambled_semantic=8&num_scrambled_causal=4&num_scrambled_schematic=4&participantId=0262A6C94291486AAD77E396199DA474&assignmentId=e8028e34-e15d-4250-bcce-dbe986806b8e&projectId=a9f3d40c-5730-405c-b25e-1034c4c56f3f","0262A6C94291486AAD77E396199DA474-2025-08-07-19-01-44","","null","","images/causal_sequence/saving_a_cat_causal/saving_a_cat_causal_ten.png","null","",""
"","","","","","image-button-response","79","665993","0.0-12.0-1.0-1.7","0262A6C94291486AAD77E396199DA474","0262A6C94291486AAD77E396199DA474","e8028e34-e15d-4250-bcce-dbe986806b8e","a9f3d40c-5730-405c-b25e-1034c4c56f3f","{""num_scrambled_semantic"":""8"",""num_scrambled_causal"":""4"",""num_scrambled_schematic"":""4"",""participantId"":""0262A6C94291486AAD77E396199DA474"",""assignmentId"":""e8028e34-e15d-4250-bcce-dbe986806b8e"",""projectId"":""a9f3d40c-5730-405c-b25e-1034c4c56f3f""}","https://test12345.live/?num_scrambled_semantic=8&num_scrambled_causal=4&num_scrambled_schematic=4&participantId=0262A6C94291486AAD77E396199DA474&assignmentId=e8028e34-e15d-4250-bcce-dbe986806b8e&projectId=a9f3d40c-5730-405c-b25e-1034c4c56f3f","0262A6C94291486AAD77E396199DA474-2025-08-07-19-01-44","","965","","images/causal_sequence/saving_a_cat_causal/saving_a_cat_causal_ten.png","0","",""
"","","","","","image-button-response","80","667812","0.0-12.0-1.0-2.7","0262A6C94291486AAD77E396199DA474","0262A6C94291486AAD77E396199DA474","e8028e34-e15d-4250-bcce-dbe986806b8e","a9f3d40c-5730-405c-b25e-1034c4c56f3f","{""num_scrambled_semantic"":""8"",""num_scrambled_causal"":""4"",""num_scrambled_schematic"":""4"",""participantId"":""0262A6C94291486AAD77E396199DA474"",""assignmentId"":""e8028e34-e15d-4250-bcce-dbe986806b8e"",""projectId"":""a9f3d40c-5730-405c-b25e-1034c4c56f3f""}","https://test12345.live/?num_scrambled_semantic=8&num_scrambled_causal=4&num_scrambled_schematic=4&participantId=0262A6C94291486AAD77E396199DA474&assignmentId=e8028e34-e15d-4250-bcce-dbe986806b8e&projectId=a9f3d40c-5730-405c-b25e-1034c4c56f3f","0262A6C94291486AAD77E396199DA474-2025-08-07-19-01-44","","null","","[]","null","",""
"","","","","","image-button-response","81","672317","0.0-12.0-1.0-0.8","0262A6C94291486AAD77E396199DA474","0262A6C94291486AAD77E396199DA474","e8028e34-e15d-4250-bcce-dbe986806b8e","a9f3d40c-5730-405c-b25e-1034c4c56f3f","{""num_scrambled_semantic"":""8"",""num_scrambled_causal"":""4"",""num_scrambled_schematic"":""4"",""participantId"":""0262A6C94291486AAD77E396199DA474"",""assignmentId"":""e8028e34-e15d-4250-bcce-dbe986806b8e"",""projectId"":""a9f3d40c-5730-405c-b25e-1034c4c56f3f""}","https://test12345.live/?num_scrambled_semantic=8&num_scrambled_causal=4&num_scrambled_schematic=4&participantId=0262A6C94291486AAD77E396199DA474&assignmentId=e8028e34-e15d-4250-bcce-dbe986806b8e&projectId=a9f3d40c-5730-405c-b25e-1034c4c56f3f","0262A6C94291486AAD77E396199DA474-2025-08-07-19-01-44","","null","","images/causal_sequence/saving_a_cat_causal/saving_a_cat_causal_2.png","null","",""
"","","","","","image-button-response","82","673242","0.0-12.0-1.0-1.8","0262A6C94291486AAD77E396199DA474","0262A6C94291486AAD77E396199DA474","e8028e34-e15d-4250-bcce-dbe986806b8e","a9f3d40c-5730-405c-b25e-1034c4c56f3f","{""num_scrambled_semantic"":""8"",""num_scrambled_causal"":""4"",""num_scrambled_schematic"":""4"",""participantId"":""0262A6C94291486AAD77E396199DA474"",""assignmentId"":""e8028e34-e15d-4250-bcce-dbe986806b8e"",""projectId"":""a9f3d40c-5730-405c-b25e-1034c4c56f3f""}","https://test12345.live/?num_scrambled_semantic=8&num_scrambled_causal=4&num_scrambled_schematic=4&participantId=0262A6C94291486AAD77E396199DA474&assignmentId=e8028e34-e15d-4250-bcce-dbe986806b8e&projectId=a9f3d40c-5730-405c-b25e-1034c4c56f3f","0262A6C94291486AAD77E396199DA474-2025-08-07-19-01-44","","922","","images/causal_sequence/saving_a_cat_causal/saving_a_cat_causal_2.png","1","",""
"","","","","","image-button-response","83","675062","0.0-12.0-1.0-2.8","0262A6C94291486AAD77E396199DA474","0262A6C94291486AAD77E396199DA474","e8028e34-e15d-4250-bcce-dbe986806b8e","a9f3d40c-5730-405c-b25e-1034c4c56f3f","{""num_scrambled_semantic"":""8"",""num_scrambled_causal"":""4"",""num_scrambled_schematic"":""4"",""participantId"":""0262A6C94291486AAD77E396199DA474"",""assignmentId"":""e8028e34-e15d-4250-bcce-dbe986806b8e"",""projectId"":""a9f3d40c-5730-405c-b25e-1034c4c56f3f""}","https://test12345.live/?num_scrambled_semantic=8&num_scrambled_causal=4&num_scrambled_schematic=4&participantId=0262A6C94291486AAD77E396199DA474&assignmentId=e8028e34-e15d-4250-bcce-dbe986806b8e&projectId=a9f3d40c-5730-405c-b25e-1034c4c56f3f","0262A6C94291486AAD77E396199DA474-2025-08-07-19-01-44","","null","","[]","null","",""
"","","","","","image-button-response","84","679572","0.0-12.0-1.0-0.9","0262A6C94291486AAD77E396199DA474","0262A6C94291486AAD77E396199DA474","e8028e34-e15d-4250-bcce-dbe986806b8e","a9f3d40c-5730-405c-b25e-1034c4c56f3f","{""num_scrambled_semantic"":""8"",""num_scrambled_causal"":""4"",""num_scrambled_schematic"":""4"",""participantId"":""0262A6C94291486AAD77E396199DA474"",""assignmentId"":""e8028e34-e15d-4250-bcce-dbe986806b8e"",""projectId"":""a9f3d40c-5730-405c-b25e-1034c4c56f3f""}","https://test12345.live/?num_scrambled_semantic=8&num_scrambled_causal=4&num_scrambled_schematic=4&participantId=0262A6C94291486AAD77E396199DA474&assignmentId=e8028e34-e15d-4250-bcce-dbe986806b8e&projectId=a9f3d40c-5730-405c-b25e-1034c4c56f3f","0262A6C94291486AAD77E396199DA474-2025-08-07-19-01-44","","null","","images/causal_sequence/saving_a_cat_causal/saving_a_cat_causal_5.png","null","",""
"","","","","","image-button-response","85","680369","0.0-12.0-1.0-1.9","0262A6C94291486AAD77E396199DA474","0262A6C94291486AAD77E396199DA474","e8028e34-e15d-4250-bcce-dbe986806b8e","a9f3d40c-5730-405c-b25e-1034c4c56f3f","{""num_scrambled_semantic"":""8"",""num_scrambled_causal"":""4"",""num_scrambled_schematic"":""4"",""participantId"":""0262A6C94291486AAD77E396199DA474"",""assignmentId"":""e8028e34-e15d-4250-bcce-dbe986806b8e"",""projectId"":""a9f3d40c-5730-405c-b25e-1034c4c56f3f""}","https://test12345.live/?num_scrambled_semantic=8&num_scrambled_causal=4&num_scrambled_schematic=4&participantId=0262A6C94291486AAD77E396199DA474&assignmentId=e8028e34-e15d-4250-bcce-dbe986806b8e&projectId=a9f3d40c-5730-405c-b25e-1034c4c56f3f","0262A6C94291486AAD77E396199DA474-2025-08-07-19-01-44","","794","","images/causal_sequence/saving_a_cat_causal/saving_a_cat_causal_5.png","0","",""
"","","","","","image-button-response","86","682172","0.0-12.0-1.0-2.9","0262A6C94291486AAD77E396199DA474","0262A6C94291486AAD77E396199DA474","e8028e34-e15d-4250-bcce-dbe986806b8e","a9f3d40c-5730-405c-b25e-1034c4c56f3f","{""num_scrambled_semantic"":""8"",""num_scrambled_causal"":""4"",""num_scrambled_schematic"":""4"",""participantId"":""0262A6C94291486AAD77E396199DA474"",""assignmentId"":""e8028e34-e15d-4250-bcce-dbe986806b8e"",""projectId"":""a9f3d40c-5730-405c-b25e-1034c4c56f3f""}","https://test12345.live/?num_scrambled_semantic=8&num_scrambled_causal=4&num_scrambled_schematic=4&participantId=0262A6C94291486AAD77E396199DA474&assignmentId=e8028e34-e15d-4250-bcce-dbe986806b8e&projectId=a9f3d40c-5730-405c-b25e-1034c4c56f3f","0262A6C94291486AAD77E396199DA474-2025-08-07-19-01-44","","null","","[]","null","",""
"","","","","","html-audio-response","87","696732","0.0-13.0","0262A6C94291486AAD77E396199DA474","0262A6C94291486AAD77E396199DA474","e8028e34-e15d-4250-bcce-dbe986806b8e","a9f3d40c-5730-405c-b25e-1034c4c56f3f","{""num_scrambled_semantic"":""8"",""num_scrambled_causal"":""4"",""num_scrambled_schematic"":""4"",""participantId"":""0262A6C94291486AAD77E396199DA474"",""assignmentId"":""e8028e34-e15d-4250-bcce-dbe986806b8e"",""projectId"":""a9f3d40c-5730-405c-b25e-1034c4c56f3f""}","https://test12345.live/?num_scrambled_semantic=8&num_scrambled_causal=4&num_scrambled_schematic=4&participantId=0262A6C94291486AAD77E396199DA474&assignmentId=e8028e34-e15d-4250-bcce-dbe986806b8e&projectId=a9f3d40c-5730-405c-b25e-1034c4c56f3f","0262A6C94291486AAD77E396199DA474-2025-08-07-19-01-44","","13814","","[""<span style=\""color: red; font-size: 24px\""> NOW RECORDING</span><p>Please say out loud all the images you saw, as many as you can remember. The images can be said in any order.</p>""]","","2","saving_a_cat_causal"
"","","","","","image-button-response","88","702739","0.0-14.0-0.0","0262A6C94291486AAD77E396199DA474","0262A6C94291486AAD77E396199DA474","e8028e34-e15d-4250-bcce-dbe986806b8e","a9f3d40c-5730-405c-b25e-1034c4c56f3f","{""num_scrambled_semantic"":""8"",""num_scrambled_causal"":""4"",""num_scrambled_schematic"":""4"",""participantId"":""0262A6C94291486AAD77E396199DA474"",""assignmentId"":""e8028e34-e15d-4250-bcce-dbe986806b8e"",""projectId"":""a9f3d40c-5730-405c-b25e-1034c4c56f3f""}","https://test12345.live/?num_scrambled_semantic=8&num_scrambled_causal=4&num_scrambled_schematic=4&participantId=0262A6C94291486AAD77E396199DA474&assignmentId=e8028e34-e15d-4250-bcce-dbe986806b8e&projectId=a9f3d40c-5730-405c-b25e-1034c4c56f3f","0262A6C94291486AAD77E396199DA474-2025-08-07-19-01-44","","null","","images/semantic_sequence/using_technology_semantic/using_technology_semantic_0.png","null","",""
"","","","","","image-button-response","89","707251","0.0-14.0-1.0-0.0","0262A6C94291486AAD77E396199DA474","0262A6C94291486AAD77E396199DA474","e8028e34-e15d-4250-bcce-dbe986806b8e","a9f3d40c-5730-405c-b25e-1034c4c56f3f","{""num_scrambled_semantic"":""8"",""num_scrambled_causal"":""4"",""num_scrambled_schematic"":""4"",""participantId"":""0262A6C94291486AAD77E396199DA474"",""assignmentId"":""e8028e34-e15d-4250-bcce-dbe986806b8e"",""projectId"":""a9f3d40c-5730-405c-b25e-1034c4c56f3f""}","https://test12345.live/?num_scrambled_semantic=8&num_scrambled_causal=4&num_scrambled_schematic=4&participantId=0262A6C94291486AAD77E396199DA474&assignmentId=e8028e34-e15d-4250-bcce-dbe986806b8e&projectId=a9f3d40c-5730-405c-b25e-1034c4c56f3f","0262A6C94291486AAD77E396199DA474-2025-08-07-19-01-44","","null","","images/semantic_sequence/using_technology_semantic/using_technology_semantic_9.png","null","",""
"","","","","","image-button-response","90","708014","0.0-14.0-1.0-1.0","0262A6C94291486AAD77E396199DA474","0262A6C94291486AAD77E396199DA474","e8028e34-e15d-4250-bcce-dbe986806b8e","a9f3d40c-5730-405c-b25e-1034c4c56f3f","{""num_scrambled_semantic"":""8"",""num_scrambled_causal"":""4"",""num_scrambled_schematic"":""4"",""participantId"":""0262A6C94291486AAD77E396199DA474"",""assignmentId"":""e8028e34-e15d-4250-bcce-dbe986806b8e"",""projectId"":""a9f3d40c-5730-405c-b25e-1034c4c56f3f""}","https://test12345.live/?num_scrambled_semantic=8&num_scrambled_causal=4&num_scrambled_schematic=4&participantId=0262A6C94291486AAD77E396199DA474&assignmentId=e8028e34-e15d-4250-bcce-dbe986806b8e&projectId=a9f3d40c-5730-405c-b25e-1034c4c56f3f","0262A6C94291486AAD77E396199DA474-2025-08-07-19-01-44","","760","","images/semantic_sequence/using_technology_semantic/using_technology_semantic_9.png","0","",""
"","","","","","image-button-response","91","709819","0.0-14.0-1.0-2.0","0262A6C94291486AAD77E396199DA474","0262A6C94291486AAD77E396199DA474","e8028e34-e15d-4250-bcce-dbe986806b8e","a9f3d40c-5730-405c-b25e-1034c4c56f3f","{""num_scrambled_semantic"":""8"",""num_scrambled_causal"":""4"",""num_scrambled_schematic"":""4"",""participantId"":""0262A6C94291486AAD77E396199DA474"",""assignmentId"":""e8028e34-e15d-4250-bcce-dbe986806b8e"",""projectId"":""a9f3d40c-5730-405c-b25e-1034c4c56f3f""}","https://test12345.live/?num_scrambled_semantic=8&num_scrambled_causal=4&num_scrambled_schematic=4&participantId=0262A6C94291486AAD77E396199DA474&assignmentId=e8028e34-e15d-4250-bcce-dbe986806b8e&projectId=a9f3d40c-5730-405c-b25e-1034c4c56f3f","0262A6C94291486AAD77E396199DA474-2025-08-07-19-01-44","","null","","[]","null","",""
"","","","","","image-button-response","92","714333","0.0-14.0-1.0-0.1","0262A6C94291486AAD77E396199DA474","0262A6C94291486AAD77E396199DA474","e8028e34-e15d-4250-bcce-dbe986806b8e","a9f3d40c-5730-405c-b25e-1034c4c56f3f","{""num_scrambled_semantic"":""8"",""num_scrambled_causal"":""4"",""num_scrambled_schematic"":""4"",""participantId"":""0262A6C94291486AAD77E396199DA474"",""assignmentId"":""e8028e34-e15d-4250-bcce-dbe986806b8e"",""projectId"":""a9f3d40c-5730-405c-b25e-1034c4c56f3f""}","https://test12345.live/?num_scrambled_semantic=8&num_scrambled_causal=4&num_scrambled_schematic=4&participantId=0262A6C94291486AAD77E396199DA474&assignmentId=e8028e34-e15d-4250-bcce-dbe986806b8e&projectId=a9f3d40c-5730-405c-b25e-1034c4c56f3f","0262A6C94291486AAD77E396199DA474-2025-08-07-19-01-44","","null","","images/semantic_sequence/using_technology_semantic/using_technology_semantic_2.png","null","",""
"","","","","","image-button-response","93","714742","0.0-14.0-1.0-1.1","0262A6C94291486AAD77E396199DA474","0262A6C94291486AAD77E396199DA474","e8028e34-e15d-4250-bcce-dbe986806b8e","a9f3d40c-5730-405c-b25e-1034c4c56f3f","{""num_scrambled_semantic"":""8"",""num_scrambled_causal"":""4"",""num_scrambled_schematic"":""4"",""participantId"":""0262A6C94291486AAD77E396199DA474"",""assignmentId"":""e8028e34-e15d-4250-bcce-dbe986806b8e"",""projectId"":""a9f3d40c-5730-405c-b25e-1034c4c56f3f""}","https://test12345.live/?num_scrambled_semantic=8&num_scrambled_causal=4&num_scrambled_schematic=4&participantId=0262A6C94291486AAD77E396199DA474&assignmentId=e8028e34-e15d-4250-bcce-dbe986806b8e&projectId=a9f3d40c-5730-405c-b25e-1034c4c56f3f","0262A6C94291486AAD77E396199DA474-2025-08-07-19-01-44","","407","","images/semantic_sequence/using_technology_semantic/using_technology_semantic_2.png","0","",""
"","","","","","image-button-response","94","716548","0.0-14.0-1.0-2.1","0262A6C94291486AAD77E396199DA474","0262A6C94291486AAD77E396199DA474","e8028e34-e15d-4250-bcce-dbe986806b8e","a9f3d40c-5730-405c-b25e-1034c4c56f3f","{""num_scrambled_semantic"":""8"",""num_scrambled_causal"":""4"",""num_scrambled_schematic"":""4"",""participantId"":""0262A6C94291486AAD77E396199DA474"",""assignmentId"":""e8028e34-e15d-4250-bcce-dbe986806b8e"",""projectId"":""a9f3d40c-5730-405c-b25e-1034c4c56f3f""}","https://test12345.live/?num_scrambled_semantic=8&num_scrambled_causal=4&num_scrambled_schematic=4&participantId=0262A6C94291486AAD77E396199DA474&assignmentId=e8028e34-e15d-4250-bcce-dbe986806b8e&projectId=a9f3d40c-5730-405c-b25e-1034c4c56f3f","0262A6C94291486AAD77E396199DA474-2025-08-07-19-01-44","","null","","[]","null","",""
"","","","","","image-button-response","95","721064","0.0-14.0-1.0-0.2","0262A6C94291486AAD77E396199DA474","0262A6C94291486AAD77E396199DA474","e8028e34-e15d-4250-bcce-dbe986806b8e","a9f3d40c-5730-405c-b25e-1034c4c56f3f","{""num_scrambled_semantic"":""8"",""num_scrambled_causal"":""4"",""num_scrambled_schematic"":""4"",""participantId"":""0262A6C94291486AAD77E396199DA474"",""assignmentId"":""e8028e34-e15d-4250-bcce-dbe986806b8e"",""projectId"":""a9f3d40c-5730-405c-b25e-1034c4c56f3f""}","https://test12345.live/?num_scrambled_semantic=8&num_scrambled_causal=4&num_scrambled_schematic=4&participantId=0262A6C94291486AAD77E396199DA474&assignmentId=e8028e34-e15d-4250-bcce-dbe986806b8e&projectId=a9f3d40c-5730-405c-b25e-1034c4c56f3f","0262A6C94291486AAD77E396199DA474-2025-08-07-19-01-44","","null","","images/semantic_sequence/using_technology_semantic/using_technology_semantic_6.png","null","",""
"","","","","","image-button-response","96","721487","0.0-14.0-1.0-1.2","0262A6C94291486AAD77E396199DA474","0262A6C94291486AAD77E396199DA474","e8028e34-e15d-4250-bcce-dbe986806b8e","a9f3d40c-5730-405c-b25e-1034c4c56f3f","{""num_scrambled_semantic"":""8"",""num_scrambled_causal"":""4"",""num_scrambled_schematic"":""4"",""participantId"":""0262A6C94291486AAD77E396199DA474"",""assignmentId"":""e8028e34-e15d-4250-bcce-dbe986806b8e"",""projectId"":""a9f3d40c-5730-405c-b25e-1034c4c56f3f""}","https://test12345.live/?num_scrambled_semantic=8&num_scrambled_causal=4&num_scrambled_schematic=4&participantId=0262A6C94291486AAD77E396199DA474&assignmentId=e8028e34-e15d-4250-bcce-dbe986806b8e&projectId=a9f3d40c-5730-405c-b25e-1034c4c56f3f","0262A6C94291486AAD77E396199DA474-2025-08-07-19-01-44","","421","","images/semantic_sequence/using_technology_semantic/using_technology_semantic_6.png","0","",""
"","","","","","image-button-response","97","723298","0.0-14.0-1.0-2.2","0262A6C94291486AAD77E396199DA474","0262A6C94291486AAD77E396199DA474","e8028e34-e15d-4250-bcce-dbe986806b8e","a9f3d40c-5730-405c-b25e-1034c4c56f3f","{""num_scrambled_semantic"":""8"",""num_scrambled_causal"":""4"",""num_scrambled_schematic"":""4"",""participantId"":""0262A6C94291486AAD77E396199DA474"",""assignmentId"":""e8028e34-e15d-4250-bcce-dbe986806b8e"",""projectId"":""a9f3d40c-5730-405c-b25e-1034c4c56f3f""}","https://test12345.live/?num_scrambled_semantic=8&num_scrambled_causal=4&num_scrambled_schematic=4&participantId=0262A6C94291486AAD77E396199DA474&assignmentId=e8028e34-e15d-4250-bcce-dbe986806b8e&projectId=a9f3d40c-5730-405c-b25e-1034c4c56f3f","0262A6C94291486AAD77E396199DA474-2025-08-07-19-01-44","","null","","[]","null","",""
"","","","","","image-button-response","98","727804","0.0-14.0-1.0-0.3","0262A6C94291486AAD77E396199DA474","0262A6C94291486AAD77E396199DA474","e8028e34-e15d-4250-bcce-dbe986806b8e","a9f3d40c-5730-405c-b25e-1034c4c56f3f","{""num_scrambled_semantic"":""8"",""num_scrambled_causal"":""4"",""num_scrambled_schematic"":""4"",""participantId"":""0262A6C94291486AAD77E396199DA474"",""assignmentId"":""e8028e34-e15d-4250-bcce-dbe986806b8e"",""projectId"":""a9f3d40c-5730-405c-b25e-1034c4c56f3f""}","https://test12345.live/?num_scrambled_semantic=8&num_scrambled_causal=4&num_scrambled_schematic=4&participantId=0262A6C94291486AAD77E396199DA474&assignmentId=e8028e34-e15d-4250-bcce-dbe986806b8e&projectId=a9f3d40c-5730-405c-b25e-1034c4c56f3f","0262A6C94291486AAD77E396199DA474-2025-08-07-19-01-44","","null","","images/semantic_sequence/using_technology_semantic/using_technology_semantic_4.png","null","",""
"","","","","","image-button-response","99","728561","0.0-14.0-1.0-1.3","0262A6C94291486AAD77E396199DA474","0262A6C94291486AAD77E396199DA474","e8028e34-e15d-4250-bcce-dbe986806b8e","a9f3d40c-5730-405c-b25e-1034c4c56f3f","{""num_scrambled_semantic"":""8"",""num_scrambled_causal"":""4"",""num_scrambled_schematic"":""4"",""participantId"":""0262A6C94291486AAD77E396199DA474"",""assignmentId"":""e8028e34-e15d-4250-bcce-dbe986806b8e"",""projectId"":""a9f3d40c-5730-405c-b25e-1034c4c56f3f""}","https://test12345.live/?num_scrambled_semantic=8&num_scrambled_causal=4&num_scrambled_schematic=4&participantId=0262A6C94291486AAD77E396199DA474&assignmentId=e8028e34-e15d-4250-bcce-dbe986806b8e&projectId=a9f3d40c-5730-405c-b25e-1034c4c56f3f","0262A6C94291486AAD77E396199DA474-2025-08-07-19-01-44","","755","","images/semantic_sequence/using_technology_semantic/using_technology_semantic_4.png","0","",""
"","","","","","image-button-response","100","730377","0.0-14.0-1.0-2.3","0262A6C94291486AAD77E396199DA474","0262A6C94291486AAD77E396199DA474","e8028e34-e15d-4250-bcce-dbe986806b8e","a9f3d40c-5730-405c-b25e-1034c4c56f3f","{""num_scrambled_semantic"":""8"",""num_scrambled_causal"":""4"",""num_scrambled_schematic"":""4"",""participantId"":""0262A6C94291486AAD77E396199DA474"",""assignmentId"":""e8028e34-e15d-4250-bcce-dbe986806b8e"",""projectId"":""a9f3d40c-5730-405c-b25e-1034c4c56f3f""}","https://test12345.live/?num_scrambled_semantic=8&num_scrambled_causal=4&num_scrambled_schematic=4&participantId=0262A6C94291486AAD77E396199DA474&assignmentId=e8028e34-e15d-4250-bcce-dbe986806b8e&projectId=a9f3d40c-5730-405c-b25e-1034c4c56f3f","0262A6C94291486AAD77E396199DA474-2025-08-07-19-01-44","","null","","[]","null","",""
"","","","","","image-button-response","101","734884","0.0-14.0-1.0-0.4","0262A6C94291486AAD77E396199DA474","0262A6C94291486AAD77E396199DA474","e8028e34-e15d-4250-bcce-dbe986806b8e","a9f3d40c-5730-405c-b25e-1034c4c56f3f","{""num_scrambled_semantic"":""8"",""num_scrambled_causal"":""4"",""num_scrambled_schematic"":""4"",""participantId"":""0262A6C94291486AAD77E396199DA474"",""assignmentId"":""e8028e34-e15d-4250-bcce-dbe986806b8e"",""projectId"":""a9f3d40c-5730-405c-b25e-1034c4c56f3f""}","https://test12345.live/?num_scrambled_semantic=8&num_scrambled_causal=4&num_scrambled_schematic=4&participantId=0262A6C94291486AAD77E396199DA474&assignmentId=e8028e34-e15d-4250-bcce-dbe986806b8e&projectId=a9f3d40c-5730-405c-b25e-1034c4c56f3f","0262A6C94291486AAD77E396199DA474-2025-08-07-19-01-44","","null","","images/semantic_sequence/using_technology_semantic/using_technology_semantic_1.png","null","",""
"","","","","","image-button-response","102","736220","0.0-14.0-1.0-1.4","0262A6C94291486AAD77E396199DA474","0262A6C94291486AAD77E396199DA474","e8028e34-e15d-4250-bcce-dbe986806b8e","a9f3d40c-5730-405c-b25e-1034c4c56f3f","{""num_scrambled_semantic"":""8"",""num_scrambled_causal"":""4"",""num_scrambled_schematic"":""4"",""participantId"":""0262A6C94291486AAD77E396199DA474"",""assignmentId"":""e8028e34-e15d-4250-bcce-dbe986806b8e"",""projectId"":""a9f3d40c-5730-405c-b25e-1034c4c56f3f""}","https://test12345.live/?num_scrambled_semantic=8&num_scrambled_causal=4&num_scrambled_schematic=4&participantId=0262A6C94291486AAD77E396199DA474&assignmentId=e8028e34-e15d-4250-bcce-dbe986806b8e&projectId=a9f3d40c-5730-405c-b25e-1034c4c56f3f","0262A6C94291486AAD77E396199DA474-2025-08-07-19-01-44","","1334","","images/semantic_sequence/using_technology_semantic/using_technology_semantic_1.png","0","",""
"","","","","","image-button-response","103","738034","0.0-14.0-1.0-2.4","0262A6C94291486AAD77E396199DA474","0262A6C94291486AAD77E396199DA474","e8028e34-e15d-4250-bcce-dbe986806b8e","a9f3d40c-5730-405c-b25e-1034c4c56f3f","{""num_scrambled_semantic"":""8"",""num_scrambled_causal"":""4"",""num_scrambled_schematic"":""4"",""participantId"":""0262A6C94291486AAD77E396199DA474"",""assignmentId"":""e8028e34-e15d-4250-bcce-dbe986806b8e"",""projectId"":""a9f3d40c-5730-405c-b25e-1034c4c56f3f""}","https://test12345.live/?num_scrambled_semantic=8&num_scrambled_causal=4&num_scrambled_schematic=4&participantId=0262A6C94291486AAD77E396199DA474&assignmentId=e8028e34-e15d-4250-bcce-dbe986806b8e&projectId=a9f3d40c-5730-405c-b25e-1034c4c56f3f","0262A6C94291486AAD77E396199DA474-2025-08-07-19-01-44","","null","","[]","null","",""
"","","","","","image-button-response","104","742540","0.0-14.0-1.0-0.5","0262A6C94291486AAD77E396199DA474","0262A6C94291486AAD77E396199DA474","e8028e34-e15d-4250-bcce-dbe986806b8e","a9f3d40c-5730-405c-b25e-1034c4c56f3f","{""num_scrambled_semantic"":""8"",""num_scrambled_causal"":""4"",""num_scrambled_schematic"":""4"",""participantId"":""0262A6C94291486AAD77E396199DA474"",""assignmentId"":""e8028e34-e15d-4250-bcce-dbe986806b8e"",""projectId"":""a9f3d40c-5730-405c-b25e-1034c4c56f3f""}","https://test12345.live/?num_scrambled_semantic=8&num_scrambled_causal=4&num_scrambled_schematic=4&participantId=0262A6C94291486AAD77E396199DA474&assignmentId=e8028e34-e15d-4250-bcce-dbe986806b8e&projectId=a9f3d40c-5730-405c-b25e-1034c4c56f3f","0262A6C94291486AAD77E396199DA474-2025-08-07-19-01-44","","null","","images/semantic_sequence/using_technology_semantic/using_technology_semantic_ten.png","null","",""
"","","","","","image-button-response","105","742919","0.0-14.0-1.0-1.5","0262A6C94291486AAD77E396199DA474","0262A6C94291486AAD77E396199DA474","e8028e34-e15d-4250-bcce-dbe986806b8e","a9f3d40c-5730-405c-b25e-1034c4c56f3f","{""num_scrambled_semantic"":""8"",""num_scrambled_causal"":""4"",""num_scrambled_schematic"":""4"",""participantId"":""0262A6C94291486AAD77E396199DA474"",""assignmentId"":""e8028e34-e15d-4250-bcce-dbe986806b8e"",""projectId"":""a9f3d40c-5730-405c-b25e-1034c4c56f3f""}","https://test12345.live/?num_scrambled_semantic=8&num_scrambled_causal=4&num_scrambled_schematic=4&participantId=0262A6C94291486AAD77E396199DA474&assignmentId=e8028e34-e15d-4250-bcce-dbe986806b8e&projectId=a9f3d40c-5730-405c-b25e-1034c4c56f3f","0262A6C94291486AAD77E396199DA474-2025-08-07-19-01-44","","375","","images/semantic_sequence/using_technology_semantic/using_technology_semantic_ten.png","0","",""
"","","","","","image-button-response","106","744727","0.0-14.0-1.0-2.5","0262A6C94291486AAD77E396199DA474","0262A6C94291486AAD77E396199DA474","e8028e34-e15d-4250-bcce-dbe986806b8e","a9f3d40c-5730-405c-b25e-1034c4c56f3f","{""num_scrambled_semantic"":""8"",""num_scrambled_causal"":""4"",""num_scrambled_schematic"":""4"",""participantId"":""0262A6C94291486AAD77E396199DA474"",""assignmentId"":""e8028e34-e15d-4250-bcce-dbe986806b8e"",""projectId"":""a9f3d40c-5730-405c-b25e-1034c4c56f3f""}","https://test12345.live/?num_scrambled_semantic=8&num_scrambled_causal=4&num_scrambled_schematic=4&participantId=0262A6C94291486AAD77E396199DA474&assignmentId=e8028e34-e15d-4250-bcce-dbe986806b8e&projectId=a9f3d40c-5730-405c-b25e-1034c4c56f3f","0262A6C94291486AAD77E396199DA474-2025-08-07-19-01-44","","null","","[]","null","",""
"","","","","","image-button-response","107","749234","0.0-14.0-1.0-0.6","0262A6C94291486AAD77E396199DA474","0262A6C94291486AAD77E396199DA474","e8028e34-e15d-4250-bcce-dbe986806b8e","a9f3d40c-5730-405c-b25e-1034c4c56f3f","{""num_scrambled_semantic"":""8"",""num_scrambled_causal"":""4"",""num_scrambled_schematic"":""4"",""participantId"":""0262A6C94291486AAD77E396199DA474"",""assignmentId"":""e8028e34-e15d-4250-bcce-dbe986806b8e"",""projectId"":""a9f3d40c-5730-405c-b25e-1034c4c56f3f""}","https://test12345.live/?num_scrambled_semantic=8&num_scrambled_causal=4&num_scrambled_schematic=4&participantId=0262A6C94291486AAD77E396199DA474&assignmentId=e8028e34-e15d-4250-bcce-dbe986806b8e&projectId=a9f3d40c-5730-405c-b25e-1034c4c56f3f","0262A6C94291486AAD77E396199DA474-2025-08-07-19-01-44","","null","","images/semantic_sequence/using_technology_semantic/using_technology_semantic_8.png","null","",""
"","","","","","image-button-response","108","750239","0.0-14.0-1.0-1.6","0262A6C94291486AAD77E396199DA474","0262A6C94291486AAD77E396199DA474","e8028e34-e15d-4250-bcce-dbe986806b8e","a9f3d40c-5730-405c-b25e-1034c4c56f3f","{""num_scrambled_semantic"":""8"",""num_scrambled_causal"":""4"",""num_scrambled_schematic"":""4"",""participantId"":""0262A6C94291486AAD77E396199DA474"",""assignmentId"":""e8028e34-e15d-4250-bcce-dbe986806b8e"",""projectId"":""a9f3d40c-5730-405c-b25e-1034c4c56f3f""}","https://test12345.live/?num_scrambled_semantic=8&num_scrambled_causal=4&num_scrambled_schematic=4&participantId=0262A6C94291486AAD77E396199DA474&assignmentId=e8028e34-e15d-4250-bcce-dbe986806b8e&projectId=a9f3d40c-5730-405c-b25e-1034c4c56f3f","0262A6C94291486AAD77E396199DA474-2025-08-07-19-01-44","","1003","","images/semantic_sequence/using_technology_semantic/using_technology_semantic_8.png","0","",""
"","","","","","image-button-response","109","752054","0.0-14.0-1.0-2.6","0262A6C94291486AAD77E396199DA474","0262A6C94291486AAD77E396199DA474","e8028e34-e15d-4250-bcce-dbe986806b8e","a9f3d40c-5730-405c-b25e-1034c4c56f3f","{""num_scrambled_semantic"":""8"",""num_scrambled_causal"":""4"",""num_scrambled_schematic"":""4"",""participantId"":""0262A6C94291486AAD77E396199DA474"",""assignmentId"":""e8028e34-e15d-4250-bcce-dbe986806b8e"",""projectId"":""a9f3d40c-5730-405c-b25e-1034c4c56f3f""}","https://test12345.live/?num_scrambled_semantic=8&num_scrambled_causal=4&num_scrambled_schematic=4&participantId=0262A6C94291486AAD77E396199DA474&assignmentId=e8028e34-e15d-4250-bcce-dbe986806b8e&projectId=a9f3d40c-5730-405c-b25e-1034c4c56f3f","0262A6C94291486AAD77E396199DA474-2025-08-07-19-01-44","","null","","[]","null","",""
"","","","","","image-button-response","110","756573","0.0-14.0-1.0-0.7","0262A6C94291486AAD77E396199DA474","0262A6C94291486AAD77E396199DA474","e8028e34-e15d-4250-bcce-dbe986806b8e","a9f3d40c-5730-405c-b25e-1034c4c56f3f","{""num_scrambled_semantic"":""8"",""num_scrambled_causal"":""4"",""num_scrambled_schematic"":""4"",""participantId"":""0262A6C94291486AAD77E396199DA474"",""assignmentId"":""e8028e34-e15d-4250-bcce-dbe986806b8e"",""projectId"":""a9f3d40c-5730-405c-b25e-1034c4c56f3f""}","https://test12345.live/?num_scrambled_semantic=8&num_scrambled_causal=4&num_scrambled_schematic=4&participantId=0262A6C94291486AAD77E396199DA474&assignmentId=e8028e34-e15d-4250-bcce-dbe986806b8e&projectId=a9f3d40c-5730-405c-b25e-1034c4c56f3f","0262A6C94291486AAD77E396199DA474-2025-08-07-19-01-44","","null","","images/semantic_sequence/using_technology_semantic/using_technology_semantic_3.png","null","",""
"","","","","","image-button-response","111","757193","0.0-14.0-1.0-1.7","0262A6C94291486AAD77E396199DA474","0262A6C94291486AAD77E396199DA474","e8028e34-e15d-4250-bcce-dbe986806b8e","a9f3d40c-5730-405c-b25e-1034c4c56f3f","{""num_scrambled_semantic"":""8"",""num_scrambled_causal"":""4"",""num_scrambled_schematic"":""4"",""participantId"":""0262A6C94291486AAD77E396199DA474"",""assignmentId"":""e8028e34-e15d-4250-bcce-dbe986806b8e"",""projectId"":""a9f3d40c-5730-405c-b25e-1034c4c56f3f""}","https://test12345.live/?num_scrambled_semantic=8&num_scrambled_causal=4&num_scrambled_schematic=4&participantId=0262A6C94291486AAD77E396199DA474&assignmentId=e8028e34-e15d-4250-bcce-dbe986806b8e&projectId=a9f3d40c-5730-405c-b25e-1034c4c56f3f","0262A6C94291486AAD77E396199DA474-2025-08-07-19-01-44","","618","","images/semantic_sequence/using_technology_semantic/using_technology_semantic_3.png","0","",""
"","","","","","image-button-response","112","759000","0.0-14.0-1.0-2.7","0262A6C94291486AAD77E396199DA474","0262A6C94291486AAD77E396199DA474","e8028e34-e15d-4250-bcce-dbe986806b8e","a9f3d40c-5730-405c-b25e-1034c4c56f3f","{""num_scrambled_semantic"":""8"",""num_scrambled_causal"":""4"",""num_scrambled_schematic"":""4"",""participantId"":""0262A6C94291486AAD77E396199DA474"",""assignmentId"":""e8028e34-e15d-4250-bcce-dbe986806b8e"",""projectId"":""a9f3d40c-5730-405c-b25e-1034c4c56f3f""}","https://test12345.live/?num_scrambled_semantic=8&num_scrambled_causal=4&num_scrambled_schematic=4&participantId=0262A6C94291486AAD77E396199DA474&assignmentId=e8028e34-e15d-4250-bcce-dbe986806b8e&projectId=a9f3d40c-5730-405c-b25e-1034c4c56f3f","0262A6C94291486AAD77E396199DA474-2025-08-07-19-01-44","","null","","[]","null","",""
"","","","","","image-button-response","113","763510","0.0-14.0-1.0-0.8","0262A6C94291486AAD77E396199DA474","0262A6C94291486AAD77E396199DA474","e8028e34-e15d-4250-bcce-dbe986806b8e","a9f3d40c-5730-405c-b25e-1034c4c56f3f","{""num_scrambled_semantic"":""8"",""num_scrambled_causal"":""4"",""num_scrambled_schematic"":""4"",""participantId"":""0262A6C94291486AAD77E396199DA474"",""assignmentId"":""e8028e34-e15d-4250-bcce-dbe986806b8e"",""projectId"":""a9f3d40c-5730-405c-b25e-1034c4c56f3f""}","https://test12345.live/?num_scrambled_semantic=8&num_scrambled_causal=4&num_scrambled_schematic=4&participantId=0262A6C94291486AAD77E396199DA474&assignmentId=e8028e34-e15d-4250-bcce-dbe986806b8e&projectId=a9f3d40c-5730-405c-b25e-1034c4c56f3f","0262A6C94291486AAD77E396199DA474-2025-08-07-19-01-44","","null","","images/semantic_sequence/using_technology_semantic/using_technology_semantic_5.png","null","",""
