"success","timeout","failed_images","failed_audio","failed_video","trial_type","trial_index","time_elapsed","internal_node_id","subject","subject_id","study_id","session_id","urlvar","current_url","audio_id","view_history","rt","device_id","stimulus","response","estimated_stimulus_onset","seq_name"
"true","false","[]","[]","[]","preload","0","5317","0.0-0.0","059CFA9B63DD4F2A896E14D75DACB6BF","059CFA9B63DD4F2A896E14D75DACB6BF","8e2eeacd-88ce-4cc2-b82e-2cb27d9c8ae9","a9f3d40c-5730-405c-b25e-1034c4c56f3f","{""num_scrambled_semantic"":""8"",""num_scrambled_causal"":""4"",""num_scrambled_schematic"":""4"",""participantId"":""059CFA9B63DD4F2A896E14D75DACB6BF"",""assignmentId"":""8e2eeacd-88ce-4cc2-b82e-2cb27d9c8ae9"",""projectId"":""a9f3d40c-5730-405c-b25e-1034c4c56f3f""}","https://test12345.live/?num_scrambled_semantic=8&num_scrambled_causal=4&num_scrambled_schematic=4&participantId=059CFA9B63DD4F2A896E14D75DACB6BF&assignmentId=8e2eeacd-88ce-4cc2-b82e-2cb27d9c8ae9&projectId=a9f3d40c-5730-405c-b25e-1034c4c56f3f","059CFA9B63DD4F2A896E14D75DACB6BF-2025-08-07-19-05-36","","","","","","",""
"","","","","","instructions","1","20199","0.0-1.0","059CFA9B63DD4F2A896E14D75DACB6BF","059CFA9B63DD4F2A896E14D75DACB6BF","8e2eeacd-88ce-4cc2-b82e-2cb27d9c8ae9","a9f3d40c-5730-405c-b25e-1034c4c56f3f","{""num_scrambled_semantic"":""8"",""num_scrambled_causal"":""4"",""num_scrambled_schematic"":""4"",""participantId"":""059CFA9B63DD4F2A896E14D75DACB6BF"",""assignmentId"":""8e2eeacd-88ce-4cc2-b82e-2cb27d9c8ae9"",""projectId"":""a9f3d40c-5730-405c-b25e-1034c4c56f3f""}","https://test12345.live/?num_scrambled_semantic=8&num_scrambled_causal=4&num_scrambled_schematic=4&participantId=059CFA9B63DD4F2A896E14D75DACB6BF&assignmentId=8e2eeacd-88ce-4cc2-b82e-2cb27d9c8ae9&projectId=a9f3d40c-5730-405c-b25e-1034c4c56f3f","059CFA9B63DD4F2A896E14D75DACB6BF-2025-08-07-19-05-36","[{""page_index"":0,""viewing_time"":14880}]","14881","","","","",""
"","","","","","instructions","2","23081","0.0-2.0","059CFA9B63DD4F2A896E14D75DACB6BF","059CFA9B63DD4F2A896E14D75DACB6BF","8e2eeacd-88ce-4cc2-b82e-2cb27d9c8ae9","a9f3d40c-5730-405c-b25e-1034c4c56f3f","{""num_scrambled_semantic"":""8"",""num_scrambled_causal"":""4"",""num_scrambled_schematic"":""4"",""participantId"":""059CFA9B63DD4F2A896E14D75DACB6BF"",""assignmentId"":""8e2eeacd-88ce-4cc2-b82e-2cb27d9c8ae9"",""projectId"":""a9f3d40c-5730-405c-b25e-1034c4c56f3f""}","https://test12345.live/?num_scrambled_semantic=8&num_scrambled_causal=4&num_scrambled_schematic=4&participantId=059CFA9B63DD4F2A896E14D75DACB6BF&assignmentId=8e2eeacd-88ce-4cc2-b82e-2cb27d9c8ae9&projectId=a9f3d40c-5730-405c-b25e-1034c4c56f3f","059CFA9B63DD4F2A896E14D75DACB6BF-2025-08-07-19-05-36","[{""page_index"":0,""viewing_time"":2880}]","2881","","","","",""
"true","","","","","fullscreen","3","26129","0.0-3.0","059CFA9B63DD4F2A896E14D75DACB6BF","059CFA9B63DD4F2A896E14D75DACB6BF","8e2eeacd-88ce-4cc2-b82e-2cb27d9c8ae9","a9f3d40c-5730-405c-b25e-1034c4c56f3f","{""num_scrambled_semantic"":""8"",""num_scrambled_causal"":""4"",""num_scrambled_schematic"":""4"",""participantId"":""059CFA9B63DD4F2A896E14D75DACB6BF"",""assignmentId"":""8e2eeacd-88ce-4cc2-b82e-2cb27d9c8ae9"",""projectId"":""a9f3d40c-5730-405c-b25e-1034c4c56f3f""}","https://test12345.live/?num_scrambled_semantic=8&num_scrambled_causal=4&num_scrambled_schematic=4&participantId=059CFA9B63DD4F2A896E14D75DACB6BF&assignmentId=8e2eeacd-88ce-4cc2-b82e-2cb27d9c8ae9&projectId=a9f3d40c-5730-405c-b25e-1034c4c56f3f","059CFA9B63DD4F2A896E14D75DACB6BF-2025-08-07-19-05-36","","2045","","","","",""
"","","","","","initialize-microphone","4","32532","0.0-4.0-0.0","059CFA9B63DD4F2A896E14D75DACB6BF","059CFA9B63DD4F2A896E14D75DACB6BF","8e2eeacd-88ce-4cc2-b82e-2cb27d9c8ae9","a9f3d40c-5730-405c-b25e-1034c4c56f3f","{""num_scrambled_semantic"":""8"",""num_scrambled_causal"":""4"",""num_scrambled_schematic"":""4"",""participantId"":""059CFA9B63DD4F2A896E14D75DACB6BF"",""assignmentId"":""8e2eeacd-88ce-4cc2-b82e-2cb27d9c8ae9"",""projectId"":""a9f3d40c-5730-405c-b25e-1034c4c56f3f""}","https://test12345.live/?num_scrambled_semantic=8&num_scrambled_causal=4&num_scrambled_schematic=4&participantId=059CFA9B63DD4F2A896E14D75DACB6BF&assignmentId=8e2eeacd-88ce-4cc2-b82e-2cb27d9c8ae9&projectId=a9f3d40c-5730-405c-b25e-1034c4c56f3f","059CFA9B63DD4F2A896E14D75DACB6BF-2025-08-07-19-05-36","","","44e4045853e78b92f686d538d586ecf048bdfa4df77de2a9ed2cdddde75be1e7","","","",""
"","","","","","html-audio-response","5","49255","0.0-4.0-1.0","059CFA9B63DD4F2A896E14D75DACB6BF","059CFA9B63DD4F2A896E14D75DACB6BF","8e2eeacd-88ce-4cc2-b82e-2cb27d9c8ae9","a9f3d40c-5730-405c-b25e-1034c4c56f3f","{""num_scrambled_semantic"":""8"",""num_scrambled_causal"":""4"",""num_scrambled_schematic"":""4"",""participantId"":""059CFA9B63DD4F2A896E14D75DACB6BF"",""assignmentId"":""8e2eeacd-88ce-4cc2-b82e-2cb27d9c8ae9"",""projectId"":""a9f3d40c-5730-405c-b25e-1034c4c56f3f""}","https://test12345.live/?num_scrambled_semantic=8&num_scrambled_causal=4&num_scrambled_schematic=4&participantId=059CFA9B63DD4F2A896E14D75DACB6BF&assignmentId=8e2eeacd-88ce-4cc2-b82e-2cb27d9c8ae9&projectId=a9f3d40c-5730-405c-b25e-1034c4c56f3f","059CFA9B63DD4F2A896E14D75DACB6BF-2025-08-07-19-05-36","","3258","","<span style=""color: red; font-size: 24px""> NOW RECORDING</span>
        <p>Please test Microphone</p>","","10",""
"","","","","","html-button-response","6","50848","0.0-4.0-2.0","059CFA9B63DD4F2A896E14D75DACB6BF","059CFA9B63DD4F2A896E14D75DACB6BF","8e2eeacd-88ce-4cc2-b82e-2cb27d9c8ae9","a9f3d40c-5730-405c-b25e-1034c4c56f3f","{""num_scrambled_semantic"":""8"",""num_scrambled_causal"":""4"",""num_scrambled_schematic"":""4"",""participantId"":""059CFA9B63DD4F2A896E14D75DACB6BF"",""assignmentId"":""8e2eeacd-88ce-4cc2-b82e-2cb27d9c8ae9"",""projectId"":""a9f3d40c-5730-405c-b25e-1034c4c56f3f""}","https://test12345.live/?num_scrambled_semantic=8&num_scrambled_causal=4&num_scrambled_schematic=4&participantId=059CFA9B63DD4F2A896E14D75DACB6BF&assignmentId=8e2eeacd-88ce-4cc2-b82e-2cb27d9c8ae9&projectId=a9f3d40c-5730-405c-b25e-1034c4c56f3f","059CFA9B63DD4F2A896E14D75DACB6BF-2025-08-07-19-05-36","","1591","","<p style=""font-size:48px; color:red;"">Is Microphone OK?</p>","1","",""
"","","","","","instructions","7","61135","0.0-5.0","059CFA9B63DD4F2A896E14D75DACB6BF","059CFA9B63DD4F2A896E14D75DACB6BF","8e2eeacd-88ce-4cc2-b82e-2cb27d9c8ae9","a9f3d40c-5730-405c-b25e-1034c4c56f3f","{""num_scrambled_semantic"":""8"",""num_scrambled_causal"":""4"",""num_scrambled_schematic"":""4"",""participantId"":""059CFA9B63DD4F2A896E14D75DACB6BF"",""assignmentId"":""8e2eeacd-88ce-4cc2-b82e-2cb27d9c8ae9"",""projectId"":""a9f3d40c-5730-405c-b25e-1034c4c56f3f""}","https://test12345.live/?num_scrambled_semantic=8&num_scrambled_causal=4&num_scrambled_schematic=4&participantId=059CFA9B63DD4F2A896E14D75DACB6BF&assignmentId=8e2eeacd-88ce-4cc2-b82e-2cb27d9c8ae9&projectId=a9f3d40c-5730-405c-b25e-1034c4c56f3f","059CFA9B63DD4F2A896E14D75DACB6BF-2025-08-07-19-05-36","[{""page_index"":0,""viewing_time"":4071},{""page_index"":1,""viewing_time"":6214}]","10285","","","","",""
"","","","","","image-button-response","8","67152","0.0-6.0-0.0","059CFA9B63DD4F2A896E14D75DACB6BF","059CFA9B63DD4F2A896E14D75DACB6BF","8e2eeacd-88ce-4cc2-b82e-2cb27d9c8ae9","a9f3d40c-5730-405c-b25e-1034c4c56f3f","{""num_scrambled_semantic"":""8"",""num_scrambled_causal"":""4"",""num_scrambled_schematic"":""4"",""participantId"":""059CFA9B63DD4F2A896E14D75DACB6BF"",""assignmentId"":""8e2eeacd-88ce-4cc2-b82e-2cb27d9c8ae9"",""projectId"":""a9f3d40c-5730-405c-b25e-1034c4c56f3f""}","https://test12345.live/?num_scrambled_semantic=8&num_scrambled_causal=4&num_scrambled_schematic=4&participantId=059CFA9B63DD4F2A896E14D75DACB6BF&assignmentId=8e2eeacd-88ce-4cc2-b82e-2cb27d9c8ae9&projectId=a9f3d40c-5730-405c-b25e-1034c4c56f3f","059CFA9B63DD4F2A896E14D75DACB6BF-2025-08-07-19-05-36","","null","","images/instructions/movie_0.png","null","",""
"","","","","","image-button-response","9","71655","0.0-6.0-1.0-0.0","059CFA9B63DD4F2A896E14D75DACB6BF","059CFA9B63DD4F2A896E14D75DACB6BF","8e2eeacd-88ce-4cc2-b82e-2cb27d9c8ae9","a9f3d40c-5730-405c-b25e-1034c4c56f3f","{""num_scrambled_semantic"":""8"",""num_scrambled_causal"":""4"",""num_scrambled_schematic"":""4"",""participantId"":""059CFA9B63DD4F2A896E14D75DACB6BF"",""assignmentId"":""8e2eeacd-88ce-4cc2-b82e-2cb27d9c8ae9"",""projectId"":""a9f3d40c-5730-405c-b25e-1034c4c56f3f""}","https://test12345.live/?num_scrambled_semantic=8&num_scrambled_causal=4&num_scrambled_schematic=4&participantId=059CFA9B63DD4F2A896E14D75DACB6BF&assignmentId=8e2eeacd-88ce-4cc2-b82e-2cb27d9c8ae9&projectId=a9f3d40c-5730-405c-b25e-1034c4c56f3f","059CFA9B63DD4F2A896E14D75DACB6BF-2025-08-07-19-05-36","","null","","images/instructions/movie_1.png","null","",""
"","","","","","image-button-response","10","74166","0.0-6.0-1.0-1.0","059CFA9B63DD4F2A896E14D75DACB6BF","059CFA9B63DD4F2A896E14D75DACB6BF","8e2eeacd-88ce-4cc2-b82e-2cb27d9c8ae9","a9f3d40c-5730-405c-b25e-1034c4c56f3f","{""num_scrambled_semantic"":""8"",""num_scrambled_causal"":""4"",""num_scrambled_schematic"":""4"",""participantId"":""059CFA9B63DD4F2A896E14D75DACB6BF"",""assignmentId"":""8e2eeacd-88ce-4cc2-b82e-2cb27d9c8ae9"",""projectId"":""a9f3d40c-5730-405c-b25e-1034c4c56f3f""}","https://test12345.live/?num_scrambled_semantic=8&num_scrambled_causal=4&num_scrambled_schematic=4&participantId=059CFA9B63DD4F2A896E14D75DACB6BF&assignmentId=8e2eeacd-88ce-4cc2-b82e-2cb27d9c8ae9&projectId=a9f3d40c-5730-405c-b25e-1034c4c56f3f","059CFA9B63DD4F2A896E14D75DACB6BF-2025-08-07-19-05-36","","2508","","images/instructions/movie_1.png","0","",""
"","","","","","image-button-response","11","75969","0.0-6.0-1.0-2.0","059CFA9B63DD4F2A896E14D75DACB6BF","059CFA9B63DD4F2A896E14D75DACB6BF","8e2eeacd-88ce-4cc2-b82e-2cb27d9c8ae9","a9f3d40c-5730-405c-b25e-1034c4c56f3f","{""num_scrambled_semantic"":""8"",""num_scrambled_causal"":""4"",""num_scrambled_schematic"":""4"",""participantId"":""059CFA9B63DD4F2A896E14D75DACB6BF"",""assignmentId"":""8e2eeacd-88ce-4cc2-b82e-2cb27d9c8ae9"",""projectId"":""a9f3d40c-5730-405c-b25e-1034c4c56f3f""}","https://test12345.live/?num_scrambled_semantic=8&num_scrambled_causal=4&num_scrambled_schematic=4&participantId=059CFA9B63DD4F2A896E14D75DACB6BF&assignmentId=8e2eeacd-88ce-4cc2-b82e-2cb27d9c8ae9&projectId=a9f3d40c-5730-405c-b25e-1034c4c56f3f","059CFA9B63DD4F2A896E14D75DACB6BF-2025-08-07-19-05-36","","null","","[]","null","",""
"","","","","","image-button-response","12","80471","0.0-6.0-1.0-0.1","059CFA9B63DD4F2A896E14D75DACB6BF","059CFA9B63DD4F2A896E14D75DACB6BF","8e2eeacd-88ce-4cc2-b82e-2cb27d9c8ae9","a9f3d40c-5730-405c-b25e-1034c4c56f3f","{""num_scrambled_semantic"":""8"",""num_scrambled_causal"":""4"",""num_scrambled_schematic"":""4"",""participantId"":""059CFA9B63DD4F2A896E14D75DACB6BF"",""assignmentId"":""8e2eeacd-88ce-4cc2-b82e-2cb27d9c8ae9"",""projectId"":""a9f3d40c-5730-405c-b25e-1034c4c56f3f""}","https://test12345.live/?num_scrambled_semantic=8&num_scrambled_causal=4&num_scrambled_schematic=4&participantId=059CFA9B63DD4F2A896E14D75DACB6BF&assignmentId=8e2eeacd-88ce-4cc2-b82e-2cb27d9c8ae9&projectId=a9f3d40c-5730-405c-b25e-1034c4c56f3f","059CFA9B63DD4F2A896E14D75DACB6BF-2025-08-07-19-05-36","","null","","images/instructions/movie_2.png","null","",""
"","","","","","image-button-response","13","82193","0.0-6.0-1.0-1.1","059CFA9B63DD4F2A896E14D75DACB6BF","059CFA9B63DD4F2A896E14D75DACB6BF","8e2eeacd-88ce-4cc2-b82e-2cb27d9c8ae9","a9f3d40c-5730-405c-b25e-1034c4c56f3f","{""num_scrambled_semantic"":""8"",""num_scrambled_causal"":""4"",""num_scrambled_schematic"":""4"",""participantId"":""059CFA9B63DD4F2A896E14D75DACB6BF"",""assignmentId"":""8e2eeacd-88ce-4cc2-b82e-2cb27d9c8ae9"",""projectId"":""a9f3d40c-5730-405c-b25e-1034c4c56f3f""}","https://test12345.live/?num_scrambled_semantic=8&num_scrambled_causal=4&num_scrambled_schematic=4&participantId=059CFA9B63DD4F2A896E14D75DACB6BF&assignmentId=8e2eeacd-88ce-4cc2-b82e-2cb27d9c8ae9&projectId=a9f3d40c-5730-405c-b25e-1034c4c56f3f","059CFA9B63DD4F2A896E14D75DACB6BF-2025-08-07-19-05-36","","1720","","images/instructions/movie_2.png","1","",""
"","","","","","image-button-response","14","83995","0.0-6.0-1.0-2.1","059CFA9B63DD4F2A896E14D75DACB6BF","059CFA9B63DD4F2A896E14D75DACB6BF","8e2eeacd-88ce-4cc2-b82e-2cb27d9c8ae9","a9f3d40c-5730-405c-b25e-1034c4c56f3f","{""num_scrambled_semantic"":""8"",""num_scrambled_causal"":""4"",""num_scrambled_schematic"":""4"",""participantId"":""059CFA9B63DD4F2A896E14D75DACB6BF"",""assignmentId"":""8e2eeacd-88ce-4cc2-b82e-2cb27d9c8ae9"",""projectId"":""a9f3d40c-5730-405c-b25e-1034c4c56f3f""}","https://test12345.live/?num_scrambled_semantic=8&num_scrambled_causal=4&num_scrambled_schematic=4&participantId=059CFA9B63DD4F2A896E14D75DACB6BF&assignmentId=8e2eeacd-88ce-4cc2-b82e-2cb27d9c8ae9&projectId=a9f3d40c-5730-405c-b25e-1034c4c56f3f","059CFA9B63DD4F2A896E14D75DACB6BF-2025-08-07-19-05-36","","null","","[]","null","",""
"","","","","","image-button-response","15","88499","0.0-6.0-1.0-0.2","059CFA9B63DD4F2A896E14D75DACB6BF","059CFA9B63DD4F2A896E14D75DACB6BF","8e2eeacd-88ce-4cc2-b82e-2cb27d9c8ae9","a9f3d40c-5730-405c-b25e-1034c4c56f3f","{""num_scrambled_semantic"":""8"",""num_scrambled_causal"":""4"",""num_scrambled_schematic"":""4"",""participantId"":""059CFA9B63DD4F2A896E14D75DACB6BF"",""assignmentId"":""8e2eeacd-88ce-4cc2-b82e-2cb27d9c8ae9"",""projectId"":""a9f3d40c-5730-405c-b25e-1034c4c56f3f""}","https://test12345.live/?num_scrambled_semantic=8&num_scrambled_causal=4&num_scrambled_schematic=4&participantId=059CFA9B63DD4F2A896E14D75DACB6BF&assignmentId=8e2eeacd-88ce-4cc2-b82e-2cb27d9c8ae9&projectId=a9f3d40c-5730-405c-b25e-1034c4c56f3f","059CFA9B63DD4F2A896E14D75DACB6BF-2025-08-07-19-05-36","","null","","images/instructions/movie_3.png","null","",""
"","","","","","image-button-response","16","89324","0.0-6.0-1.0-1.2","059CFA9B63DD4F2A896E14D75DACB6BF","059CFA9B63DD4F2A896E14D75DACB6BF","8e2eeacd-88ce-4cc2-b82e-2cb27d9c8ae9","a9f3d40c-5730-405c-b25e-1034c4c56f3f","{""num_scrambled_semantic"":""8"",""num_scrambled_causal"":""4"",""num_scrambled_schematic"":""4"",""participantId"":""059CFA9B63DD4F2A896E14D75DACB6BF"",""assignmentId"":""8e2eeacd-88ce-4cc2-b82e-2cb27d9c8ae9"",""projectId"":""a9f3d40c-5730-405c-b25e-1034c4c56f3f""}","https://test12345.live/?num_scrambled_semantic=8&num_scrambled_causal=4&num_scrambled_schematic=4&participantId=059CFA9B63DD4F2A896E14D75DACB6BF&assignmentId=8e2eeacd-88ce-4cc2-b82e-2cb27d9c8ae9&projectId=a9f3d40c-5730-405c-b25e-1034c4c56f3f","059CFA9B63DD4F2A896E14D75DACB6BF-2025-08-07-19-05-36","","823","","images/instructions/movie_3.png","0","",""
"","","","","","image-button-response","17","91126","0.0-6.0-1.0-2.2","059CFA9B63DD4F2A896E14D75DACB6BF","059CFA9B63DD4F2A896E14D75DACB6BF","8e2eeacd-88ce-4cc2-b82e-2cb27d9c8ae9","a9f3d40c-5730-405c-b25e-1034c4c56f3f","{""num_scrambled_semantic"":""8"",""num_scrambled_causal"":""4"",""num_scrambled_schematic"":""4"",""participantId"":""059CFA9B63DD4F2A896E14D75DACB6BF"",""assignmentId"":""8e2eeacd-88ce-4cc2-b82e-2cb27d9c8ae9"",""projectId"":""a9f3d40c-5730-405c-b25e-1034c4c56f3f""}","https://test12345.live/?num_scrambled_semantic=8&num_scrambled_causal=4&num_scrambled_schematic=4&participantId=059CFA9B63DD4F2A896E14D75DACB6BF&assignmentId=8e2eeacd-88ce-4cc2-b82e-2cb27d9c8ae9&projectId=a9f3d40c-5730-405c-b25e-1034c4c56f3f","059CFA9B63DD4F2A896E14D75DACB6BF-2025-08-07-19-05-36","","null","","[]","null","",""
"","","","","","image-button-response","18","95629","0.0-6.0-1.0-0.3","059CFA9B63DD4F2A896E14D75DACB6BF","059CFA9B63DD4F2A896E14D75DACB6BF","8e2eeacd-88ce-4cc2-b82e-2cb27d9c8ae9","a9f3d40c-5730-405c-b25e-1034c4c56f3f","{""num_scrambled_semantic"":""8"",""num_scrambled_causal"":""4"",""num_scrambled_schematic"":""4"",""participantId"":""059CFA9B63DD4F2A896E14D75DACB6BF"",""assignmentId"":""8e2eeacd-88ce-4cc2-b82e-2cb27d9c8ae9"",""projectId"":""a9f3d40c-5730-405c-b25e-1034c4c56f3f""}","https://test12345.live/?num_scrambled_semantic=8&num_scrambled_causal=4&num_scrambled_schematic=4&participantId=059CFA9B63DD4F2A896E14D75DACB6BF&assignmentId=8e2eeacd-88ce-4cc2-b82e-2cb27d9c8ae9&projectId=a9f3d40c-5730-405c-b25e-1034c4c56f3f","059CFA9B63DD4F2A896E14D75DACB6BF-2025-08-07-19-05-36","","null","","images/instructions/movie_4.png","null","",""
"","","","","","image-button-response","19","96152","0.0-6.0-1.0-1.3","059CFA9B63DD4F2A896E14D75DACB6BF","059CFA9B63DD4F2A896E14D75DACB6BF","8e2eeacd-88ce-4cc2-b82e-2cb27d9c8ae9","a9f3d40c-5730-405c-b25e-1034c4c56f3f","{""num_scrambled_semantic"":""8"",""num_scrambled_causal"":""4"",""num_scrambled_schematic"":""4"",""participantId"":""059CFA9B63DD4F2A896E14D75DACB6BF"",""assignmentId"":""8e2eeacd-88ce-4cc2-b82e-2cb27d9c8ae9"",""projectId"":""a9f3d40c-5730-405c-b25e-1034c4c56f3f""}","https://test12345.live/?num_scrambled_semantic=8&num_scrambled_causal=4&num_scrambled_schematic=4&participantId=059CFA9B63DD4F2A896E14D75DACB6BF&assignmentId=8e2eeacd-88ce-4cc2-b82e-2cb27d9c8ae9&projectId=a9f3d40c-5730-405c-b25e-1034c4c56f3f","059CFA9B63DD4F2A896E14D75DACB6BF-2025-08-07-19-05-36","","520","","images/instructions/movie_4.png","0","",""
"","","","","","image-button-response","20","97954","0.0-6.0-1.0-2.3","059CFA9B63DD4F2A896E14D75DACB6BF","059CFA9B63DD4F2A896E14D75DACB6BF","8e2eeacd-88ce-4cc2-b82e-2cb27d9c8ae9","a9f3d40c-5730-405c-b25e-1034c4c56f3f","{""num_scrambled_semantic"":""8"",""num_scrambled_causal"":""4"",""num_scrambled_schematic"":""4"",""participantId"":""059CFA9B63DD4F2A896E14D75DACB6BF"",""assignmentId"":""8e2eeacd-88ce-4cc2-b82e-2cb27d9c8ae9"",""projectId"":""a9f3d40c-5730-405c-b25e-1034c4c56f3f""}","https://test12345.live/?num_scrambled_semantic=8&num_scrambled_causal=4&num_scrambled_schematic=4&participantId=059CFA9B63DD4F2A896E14D75DACB6BF&assignmentId=8e2eeacd-88ce-4cc2-b82e-2cb27d9c8ae9&projectId=a9f3d40c-5730-405c-b25e-1034c4c56f3f","059CFA9B63DD4F2A896E14D75DACB6BF-2025-08-07-19-05-36","","null","","[]","null","",""
"","","","","","instructions","21","103665","0.0-7.0","059CFA9B63DD4F2A896E14D75DACB6BF","059CFA9B63DD4F2A896E14D75DACB6BF","8e2eeacd-88ce-4cc2-b82e-2cb27d9c8ae9","a9f3d40c-5730-405c-b25e-1034c4c56f3f","{""num_scrambled_semantic"":""8"",""num_scrambled_causal"":""4"",""num_scrambled_schematic"":""4"",""participantId"":""059CFA9B63DD4F2A896E14D75DACB6BF"",""assignmentId"":""8e2eeacd-88ce-4cc2-b82e-2cb27d9c8ae9"",""projectId"":""a9f3d40c-5730-405c-b25e-1034c4c56f3f""}","https://test12345.live/?num_scrambled_semantic=8&num_scrambled_causal=4&num_scrambled_schematic=4&participantId=059CFA9B63DD4F2A896E14D75DACB6BF&assignmentId=8e2eeacd-88ce-4cc2-b82e-2cb27d9c8ae9&projectId=a9f3d40c-5730-405c-b25e-1034c4c56f3f","059CFA9B63DD4F2A896E14D75DACB6BF-2025-08-07-19-05-36","[{""page_index"":0,""viewing_time"":4552},{""page_index"":1,""viewing_time"":1159}]","5711","","","","",""
"","","","","","html-audio-response","22","122727","0.0-8.0","059CFA9B63DD4F2A896E14D75DACB6BF","059CFA9B63DD4F2A896E14D75DACB6BF","8e2eeacd-88ce-4cc2-b82e-2cb27d9c8ae9","a9f3d40c-5730-405c-b25e-1034c4c56f3f","{""num_scrambled_semantic"":""8"",""num_scrambled_causal"":""4"",""num_scrambled_schematic"":""4"",""participantId"":""059CFA9B63DD4F2A896E14D75DACB6BF"",""assignmentId"":""8e2eeacd-88ce-4cc2-b82e-2cb27d9c8ae9"",""projectId"":""a9f3d40c-5730-405c-b25e-1034c4c56f3f""}","https://test12345.live/?num_scrambled_semantic=8&num_scrambled_causal=4&num_scrambled_schematic=4&participantId=059CFA9B63DD4F2A896E14D75DACB6BF&assignmentId=8e2eeacd-88ce-4cc2-b82e-2cb27d9c8ae9&projectId=a9f3d40c-5730-405c-b25e-1034c4c56f3f","059CFA9B63DD4F2A896E14D75DACB6BF-2025-08-07-19-05-36","","17589","","[""<span style=\""color: red; font-size: 24px\""> NOW RECORDING</span><p>Please say out loud all the images you saw, as many as you can remember. The images can be said in any order.</p>""]","","8",""
"","","","","","instructions","23","124209","0.0-9.0","059CFA9B63DD4F2A896E14D75DACB6BF","059CFA9B63DD4F2A896E14D75DACB6BF","8e2eeacd-88ce-4cc2-b82e-2cb27d9c8ae9","a9f3d40c-5730-405c-b25e-1034c4c56f3f","{""num_scrambled_semantic"":""8"",""num_scrambled_causal"":""4"",""num_scrambled_schematic"":""4"",""participantId"":""059CFA9B63DD4F2A896E14D75DACB6BF"",""assignmentId"":""8e2eeacd-88ce-4cc2-b82e-2cb27d9c8ae9"",""projectId"":""a9f3d40c-5730-405c-b25e-1034c4c56f3f""}","https://test12345.live/?num_scrambled_semantic=8&num_scrambled_causal=4&num_scrambled_schematic=4&participantId=059CFA9B63DD4F2A896E14D75DACB6BF&assignmentId=8e2eeacd-88ce-4cc2-b82e-2cb27d9c8ae9&projectId=a9f3d40c-5730-405c-b25e-1034c4c56f3f","059CFA9B63DD4F2A896E14D75DACB6BF-2025-08-07-19-05-36","[{""page_index"":0,""viewing_time"":1473}]","1473","","","","",""
"","","","","","image-button-response","24","130212","0.0-10.0-0.0","059CFA9B63DD4F2A896E14D75DACB6BF","059CFA9B63DD4F2A896E14D75DACB6BF","8e2eeacd-88ce-4cc2-b82e-2cb27d9c8ae9","a9f3d40c-5730-405c-b25e-1034c4c56f3f","{""num_scrambled_semantic"":""8"",""num_scrambled_causal"":""4"",""num_scrambled_schematic"":""4"",""participantId"":""059CFA9B63DD4F2A896E14D75DACB6BF"",""assignmentId"":""8e2eeacd-88ce-4cc2-b82e-2cb27d9c8ae9"",""projectId"":""a9f3d40c-5730-405c-b25e-1034c4c56f3f""}","https://test12345.live/?num_scrambled_semantic=8&num_scrambled_causal=4&num_scrambled_schematic=4&participantId=059CFA9B63DD4F2A896E14D75DACB6BF&assignmentId=8e2eeacd-88ce-4cc2-b82e-2cb27d9c8ae9&projectId=a9f3d40c-5730-405c-b25e-1034c4c56f3f","059CFA9B63DD4F2A896E14D75DACB6BF-2025-08-07-19-05-36","","null","","images/causal_sequence/dog_causal/dog_causal_0.png","null","",""
"","","","","","image-button-response","25","134714","0.0-10.0-1.0-0.0","059CFA9B63DD4F2A896E14D75DACB6BF","059CFA9B63DD4F2A896E14D75DACB6BF","8e2eeacd-88ce-4cc2-b82e-2cb27d9c8ae9","a9f3d40c-5730-405c-b25e-1034c4c56f3f","{""num_scrambled_semantic"":""8"",""num_scrambled_causal"":""4"",""num_scrambled_schematic"":""4"",""participantId"":""059CFA9B63DD4F2A896E14D75DACB6BF"",""assignmentId"":""8e2eeacd-88ce-4cc2-b82e-2cb27d9c8ae9"",""projectId"":""a9f3d40c-5730-405c-b25e-1034c4c56f3f""}","https://test12345.live/?num_scrambled_semantic=8&num_scrambled_causal=4&num_scrambled_schematic=4&participantId=059CFA9B63DD4F2A896E14D75DACB6BF&assignmentId=8e2eeacd-88ce-4cc2-b82e-2cb27d9c8ae9&projectId=a9f3d40c-5730-405c-b25e-1034c4c56f3f","059CFA9B63DD4F2A896E14D75DACB6BF-2025-08-07-19-05-36","","null","","images/causal_sequence/dog_causal/dog_causal_4.png","null","",""
"","","","","","image-button-response","26","136663","0.0-10.0-1.0-1.0","059CFA9B63DD4F2A896E14D75DACB6BF","059CFA9B63DD4F2A896E14D75DACB6BF","8e2eeacd-88ce-4cc2-b82e-2cb27d9c8ae9","a9f3d40c-5730-405c-b25e-1034c4c56f3f","{""num_scrambled_semantic"":""8"",""num_scrambled_causal"":""4"",""num_scrambled_schematic"":""4"",""participantId"":""059CFA9B63DD4F2A896E14D75DACB6BF"",""assignmentId"":""8e2eeacd-88ce-4cc2-b82e-2cb27d9c8ae9"",""projectId"":""a9f3d40c-5730-405c-b25e-1034c4c56f3f""}","https://test12345.live/?num_scrambled_semantic=8&num_scrambled_causal=4&num_scrambled_schematic=4&participantId=059CFA9B63DD4F2A896E14D75DACB6BF&assignmentId=8e2eeacd-88ce-4cc2-b82e-2cb27d9c8ae9&projectId=a9f3d40c-5730-405c-b25e-1034c4c56f3f","059CFA9B63DD4F2A896E14D75DACB6BF-2025-08-07-19-05-36","","1947","","images/causal_sequence/dog_causal/dog_causal_4.png","0","",""
"","","","","","image-button-response","27","138465","0.0-10.0-1.0-2.0","059CFA9B63DD4F2A896E14D75DACB6BF","059CFA9B63DD4F2A896E14D75DACB6BF","8e2eeacd-88ce-4cc2-b82e-2cb27d9c8ae9","a9f3d40c-5730-405c-b25e-1034c4c56f3f","{""num_scrambled_semantic"":""8"",""num_scrambled_causal"":""4"",""num_scrambled_schematic"":""4"",""participantId"":""059CFA9B63DD4F2A896E14D75DACB6BF"",""assignmentId"":""8e2eeacd-88ce-4cc2-b82e-2cb27d9c8ae9"",""projectId"":""a9f3d40c-5730-405c-b25e-1034c4c56f3f""}","https://test12345.live/?num_scrambled_semantic=8&num_scrambled_causal=4&num_scrambled_schematic=4&participantId=059CFA9B63DD4F2A896E14D75DACB6BF&assignmentId=8e2eeacd-88ce-4cc2-b82e-2cb27d9c8ae9&projectId=a9f3d40c-5730-405c-b25e-1034c4c56f3f","059CFA9B63DD4F2A896E14D75DACB6BF-2025-08-07-19-05-36","","null","","[]","null","",""
"","","","","","image-button-response","28","142967","0.0-10.0-1.0-0.1","059CFA9B63DD4F2A896E14D75DACB6BF","059CFA9B63DD4F2A896E14D75DACB6BF","8e2eeacd-88ce-4cc2-b82e-2cb27d9c8ae9","a9f3d40c-5730-405c-b25e-1034c4c56f3f","{""num_scrambled_semantic"":""8"",""num_scrambled_causal"":""4"",""num_scrambled_schematic"":""4"",""participantId"":""059CFA9B63DD4F2A896E14D75DACB6BF"",""assignmentId"":""8e2eeacd-88ce-4cc2-b82e-2cb27d9c8ae9"",""projectId"":""a9f3d40c-5730-405c-b25e-1034c4c56f3f""}","https://test12345.live/?num_scrambled_semantic=8&num_scrambled_causal=4&num_scrambled_schematic=4&participantId=059CFA9B63DD4F2A896E14D75DACB6BF&assignmentId=8e2eeacd-88ce-4cc2-b82e-2cb27d9c8ae9&projectId=a9f3d40c-5730-405c-b25e-1034c4c56f3f","059CFA9B63DD4F2A896E14D75DACB6BF-2025-08-07-19-05-36","","null","","images/causal_sequence/dog_causal/dog_causal_ten.png","null","",""
"","","","","","image-button-response","29","144458","0.0-10.0-1.0-1.1","059CFA9B63DD4F2A896E14D75DACB6BF","059CFA9B63DD4F2A896E14D75DACB6BF","8e2eeacd-88ce-4cc2-b82e-2cb27d9c8ae9","a9f3d40c-5730-405c-b25e-1034c4c56f3f","{""num_scrambled_semantic"":""8"",""num_scrambled_causal"":""4"",""num_scrambled_schematic"":""4"",""participantId"":""059CFA9B63DD4F2A896E14D75DACB6BF"",""assignmentId"":""8e2eeacd-88ce-4cc2-b82e-2cb27d9c8ae9"",""projectId"":""a9f3d40c-5730-405c-b25e-1034c4c56f3f""}","https://test12345.live/?num_scrambled_semantic=8&num_scrambled_causal=4&num_scrambled_schematic=4&participantId=059CFA9B63DD4F2A896E14D75DACB6BF&assignmentId=8e2eeacd-88ce-4cc2-b82e-2cb27d9c8ae9&projectId=a9f3d40c-5730-405c-b25e-1034c4c56f3f","059CFA9B63DD4F2A896E14D75DACB6BF-2025-08-07-19-05-36","","1488","","images/causal_sequence/dog_causal/dog_causal_ten.png","0","",""
"","","","","","image-button-response","30","146260","0.0-10.0-1.0-2.1","059CFA9B63DD4F2A896E14D75DACB6BF","059CFA9B63DD4F2A896E14D75DACB6BF","8e2eeacd-88ce-4cc2-b82e-2cb27d9c8ae9","a9f3d40c-5730-405c-b25e-1034c4c56f3f","{""num_scrambled_semantic"":""8"",""num_scrambled_causal"":""4"",""num_scrambled_schematic"":""4"",""participantId"":""059CFA9B63DD4F2A896E14D75DACB6BF"",""assignmentId"":""8e2eeacd-88ce-4cc2-b82e-2cb27d9c8ae9"",""projectId"":""a9f3d40c-5730-405c-b25e-1034c4c56f3f""}","https://test12345.live/?num_scrambled_semantic=8&num_scrambled_causal=4&num_scrambled_schematic=4&participantId=059CFA9B63DD4F2A896E14D75DACB6BF&assignmentId=8e2eeacd-88ce-4cc2-b82e-2cb27d9c8ae9&projectId=a9f3d40c-5730-405c-b25e-1034c4c56f3f","059CFA9B63DD4F2A896E14D75DACB6BF-2025-08-07-19-05-36","","null","","[]","null","",""
"","","","","","image-button-response","31","150762","0.0-10.0-1.0-0.2","059CFA9B63DD4F2A896E14D75DACB6BF","059CFA9B63DD4F2A896E14D75DACB6BF","8e2eeacd-88ce-4cc2-b82e-2cb27d9c8ae9","a9f3d40c-5730-405c-b25e-1034c4c56f3f","{""num_scrambled_semantic"":""8"",""num_scrambled_causal"":""4"",""num_scrambled_schematic"":""4"",""participantId"":""059CFA9B63DD4F2A896E14D75DACB6BF"",""assignmentId"":""8e2eeacd-88ce-4cc2-b82e-2cb27d9c8ae9"",""projectId"":""a9f3d40c-5730-405c-b25e-1034c4c56f3f""}","https://test12345.live/?num_scrambled_semantic=8&num_scrambled_causal=4&num_scrambled_schematic=4&participantId=059CFA9B63DD4F2A896E14D75DACB6BF&assignmentId=8e2eeacd-88ce-4cc2-b82e-2cb27d9c8ae9&projectId=a9f3d40c-5730-405c-b25e-1034c4c56f3f","059CFA9B63DD4F2A896E14D75DACB6BF-2025-08-07-19-05-36","","null","","images/causal_sequence/dog_causal/dog_causal_2.png","null","",""
"","","","","","image-button-response","32","152545","0.0-10.0-1.0-1.2","059CFA9B63DD4F2A896E14D75DACB6BF","059CFA9B63DD4F2A896E14D75DACB6BF","8e2eeacd-88ce-4cc2-b82e-2cb27d9c8ae9","a9f3d40c-5730-405c-b25e-1034c4c56f3f","{""num_scrambled_semantic"":""8"",""num_scrambled_causal"":""4"",""num_scrambled_schematic"":""4"",""participantId"":""059CFA9B63DD4F2A896E14D75DACB6BF"",""assignmentId"":""8e2eeacd-88ce-4cc2-b82e-2cb27d9c8ae9"",""projectId"":""a9f3d40c-5730-405c-b25e-1034c4c56f3f""}","https://test12345.live/?num_scrambled_semantic=8&num_scrambled_causal=4&num_scrambled_schematic=4&participantId=059CFA9B63DD4F2A896E14D75DACB6BF&assignmentId=8e2eeacd-88ce-4cc2-b82e-2cb27d9c8ae9&projectId=a9f3d40c-5730-405c-b25e-1034c4c56f3f","059CFA9B63DD4F2A896E14D75DACB6BF-2025-08-07-19-05-36","","1782","","images/causal_sequence/dog_causal/dog_causal_2.png","0","",""
"","","","","","image-button-response","33","154348","0.0-10.0-1.0-2.2","059CFA9B63DD4F2A896E14D75DACB6BF","059CFA9B63DD4F2A896E14D75DACB6BF","8e2eeacd-88ce-4cc2-b82e-2cb27d9c8ae9","a9f3d40c-5730-405c-b25e-1034c4c56f3f","{""num_scrambled_semantic"":""8"",""num_scrambled_causal"":""4"",""num_scrambled_schematic"":""4"",""participantId"":""059CFA9B63DD4F2A896E14D75DACB6BF"",""assignmentId"":""8e2eeacd-88ce-4cc2-b82e-2cb27d9c8ae9"",""projectId"":""a9f3d40c-5730-405c-b25e-1034c4c56f3f""}","https://test12345.live/?num_scrambled_semantic=8&num_scrambled_causal=4&num_scrambled_schematic=4&participantId=059CFA9B63DD4F2A896E14D75DACB6BF&assignmentId=8e2eeacd-88ce-4cc2-b82e-2cb27d9c8ae9&projectId=a9f3d40c-5730-405c-b25e-1034c4c56f3f","059CFA9B63DD4F2A896E14D75DACB6BF-2025-08-07-19-05-36","","null","","[]","null","",""
"","","","","","image-button-response","34","158850","0.0-10.0-1.0-0.3","059CFA9B63DD4F2A896E14D75DACB6BF","059CFA9B63DD4F2A896E14D75DACB6BF","8e2eeacd-88ce-4cc2-b82e-2cb27d9c8ae9","a9f3d40c-5730-405c-b25e-1034c4c56f3f","{""num_scrambled_semantic"":""8"",""num_scrambled_causal"":""4"",""num_scrambled_schematic"":""4"",""participantId"":""059CFA9B63DD4F2A896E14D75DACB6BF"",""assignmentId"":""8e2eeacd-88ce-4cc2-b82e-2cb27d9c8ae9"",""projectId"":""a9f3d40c-5730-405c-b25e-1034c4c56f3f""}","https://test12345.live/?num_scrambled_semantic=8&num_scrambled_causal=4&num_scrambled_schematic=4&participantId=059CFA9B63DD4F2A896E14D75DACB6BF&assignmentId=8e2eeacd-88ce-4cc2-b82e-2cb27d9c8ae9&projectId=a9f3d40c-5730-405c-b25e-1034c4c56f3f","059CFA9B63DD4F2A896E14D75DACB6BF-2025-08-07-19-05-36","","null","","images/causal_sequence/dog_causal/dog_causal_9.png","null","",""
"","","","","","image-button-response","35","162853","0.0-10.0-1.0-1.3","059CFA9B63DD4F2A896E14D75DACB6BF","059CFA9B63DD4F2A896E14D75DACB6BF","8e2eeacd-88ce-4cc2-b82e-2cb27d9c8ae9","a9f3d40c-5730-405c-b25e-1034c4c56f3f","{""num_scrambled_semantic"":""8"",""num_scrambled_causal"":""4"",""num_scrambled_schematic"":""4"",""participantId"":""059CFA9B63DD4F2A896E14D75DACB6BF"",""assignmentId"":""8e2eeacd-88ce-4cc2-b82e-2cb27d9c8ae9"",""projectId"":""a9f3d40c-5730-405c-b25e-1034c4c56f3f""}","https://test12345.live/?num_scrambled_semantic=8&num_scrambled_causal=4&num_scrambled_schematic=4&participantId=059CFA9B63DD4F2A896E14D75DACB6BF&assignmentId=8e2eeacd-88ce-4cc2-b82e-2cb27d9c8ae9&projectId=a9f3d40c-5730-405c-b25e-1034c4c56f3f","059CFA9B63DD4F2A896E14D75DACB6BF-2025-08-07-19-05-36","","null","","images/causal_sequence/dog_causal/dog_causal_9.png","null","",""
"","","","","","image-button-response","36","164654","0.0-10.0-1.0-2.3","059CFA9B63DD4F2A896E14D75DACB6BF","059CFA9B63DD4F2A896E14D75DACB6BF","8e2eeacd-88ce-4cc2-b82e-2cb27d9c8ae9","a9f3d40c-5730-405c-b25e-1034c4c56f3f","{""num_scrambled_semantic"":""8"",""num_scrambled_causal"":""4"",""num_scrambled_schematic"":""4"",""participantId"":""059CFA9B63DD4F2A896E14D75DACB6BF"",""assignmentId"":""8e2eeacd-88ce-4cc2-b82e-2cb27d9c8ae9"",""projectId"":""a9f3d40c-5730-405c-b25e-1034c4c56f3f""}","https://test12345.live/?num_scrambled_semantic=8&num_scrambled_causal=4&num_scrambled_schematic=4&participantId=059CFA9B63DD4F2A896E14D75DACB6BF&assignmentId=8e2eeacd-88ce-4cc2-b82e-2cb27d9c8ae9&projectId=a9f3d40c-5730-405c-b25e-1034c4c56f3f","059CFA9B63DD4F2A896E14D75DACB6BF-2025-08-07-19-05-36","","null","","[]","null","",""
"","","","","","image-button-response","37","169156","0.0-10.0-1.0-0.4","059CFA9B63DD4F2A896E14D75DACB6BF","059CFA9B63DD4F2A896E14D75DACB6BF","8e2eeacd-88ce-4cc2-b82e-2cb27d9c8ae9","a9f3d40c-5730-405c-b25e-1034c4c56f3f","{""num_scrambled_semantic"":""8"",""num_scrambled_causal"":""4"",""num_scrambled_schematic"":""4"",""participantId"":""059CFA9B63DD4F2A896E14D75DACB6BF"",""assignmentId"":""8e2eeacd-88ce-4cc2-b82e-2cb27d9c8ae9"",""projectId"":""a9f3d40c-5730-405c-b25e-1034c4c56f3f""}","https://test12345.live/?num_scrambled_semantic=8&num_scrambled_causal=4&num_scrambled_schematic=4&participantId=059CFA9B63DD4F2A896E14D75DACB6BF&assignmentId=8e2eeacd-88ce-4cc2-b82e-2cb27d9c8ae9&projectId=a9f3d40c-5730-405c-b25e-1034c4c56f3f","059CFA9B63DD4F2A896E14D75DACB6BF-2025-08-07-19-05-36","","null","","images/causal_sequence/dog_causal/dog_causal_3.png","null","",""
"","","","","","image-button-response","38","170977","0.0-10.0-1.0-1.4","059CFA9B63DD4F2A896E14D75DACB6BF","059CFA9B63DD4F2A896E14D75DACB6BF","8e2eeacd-88ce-4cc2-b82e-2cb27d9c8ae9","a9f3d40c-5730-405c-b25e-1034c4c56f3f","{""num_scrambled_semantic"":""8"",""num_scrambled_causal"":""4"",""num_scrambled_schematic"":""4"",""participantId"":""059CFA9B63DD4F2A896E14D75DACB6BF"",""assignmentId"":""8e2eeacd-88ce-4cc2-b82e-2cb27d9c8ae9"",""projectId"":""a9f3d40c-5730-405c-b25e-1034c4c56f3f""}","https://test12345.live/?num_scrambled_semantic=8&num_scrambled_causal=4&num_scrambled_schematic=4&participantId=059CFA9B63DD4F2A896E14D75DACB6BF&assignmentId=8e2eeacd-88ce-4cc2-b82e-2cb27d9c8ae9&projectId=a9f3d40c-5730-405c-b25e-1034c4c56f3f","059CFA9B63DD4F2A896E14D75DACB6BF-2025-08-07-19-05-36","","1818","","images/causal_sequence/dog_causal/dog_causal_3.png","0","",""
"","","","","","image-button-response","39","172779","0.0-10.0-1.0-2.4","059CFA9B63DD4F2A896E14D75DACB6BF","059CFA9B63DD4F2A896E14D75DACB6BF","8e2eeacd-88ce-4cc2-b82e-2cb27d9c8ae9","a9f3d40c-5730-405c-b25e-1034c4c56f3f","{""num_scrambled_semantic"":""8"",""num_scrambled_causal"":""4"",""num_scrambled_schematic"":""4"",""participantId"":""059CFA9B63DD4F2A896E14D75DACB6BF"",""assignmentId"":""8e2eeacd-88ce-4cc2-b82e-2cb27d9c8ae9"",""projectId"":""a9f3d40c-5730-405c-b25e-1034c4c56f3f""}","https://test12345.live/?num_scrambled_semantic=8&num_scrambled_causal=4&num_scrambled_schematic=4&participantId=059CFA9B63DD4F2A896E14D75DACB6BF&assignmentId=8e2eeacd-88ce-4cc2-b82e-2cb27d9c8ae9&projectId=a9f3d40c-5730-405c-b25e-1034c4c56f3f","059CFA9B63DD4F2A896E14D75DACB6BF-2025-08-07-19-05-36","","null","","[]","null","",""
"","","","","","image-button-response","40","177281","0.0-10.0-1.0-0.5","059CFA9B63DD4F2A896E14D75DACB6BF","059CFA9B63DD4F2A896E14D75DACB6BF","8e2eeacd-88ce-4cc2-b82e-2cb27d9c8ae9","a9f3d40c-5730-405c-b25e-1034c4c56f3f","{""num_scrambled_semantic"":""8"",""num_scrambled_causal"":""4"",""num_scrambled_schematic"":""4"",""participantId"":""059CFA9B63DD4F2A896E14D75DACB6BF"",""assignmentId"":""8e2eeacd-88ce-4cc2-b82e-2cb27d9c8ae9"",""projectId"":""a9f3d40c-5730-405c-b25e-1034c4c56f3f""}","https://test12345.live/?num_scrambled_semantic=8&num_scrambled_causal=4&num_scrambled_schematic=4&participantId=059CFA9B63DD4F2A896E14D75DACB6BF&assignmentId=8e2eeacd-88ce-4cc2-b82e-2cb27d9c8ae9&projectId=a9f3d40c-5730-405c-b25e-1034c4c56f3f","059CFA9B63DD4F2A896E14D75DACB6BF-2025-08-07-19-05-36","","null","","images/causal_sequence/dog_causal/dog_causal_5.png","null","",""
"","","","","","image-button-response","41","181231","0.0-10.0-1.0-1.5","059CFA9B63DD4F2A896E14D75DACB6BF","059CFA9B63DD4F2A896E14D75DACB6BF","8e2eeacd-88ce-4cc2-b82e-2cb27d9c8ae9","a9f3d40c-5730-405c-b25e-1034c4c56f3f","{""num_scrambled_semantic"":""8"",""num_scrambled_causal"":""4"",""num_scrambled_schematic"":""4"",""participantId"":""059CFA9B63DD4F2A896E14D75DACB6BF"",""assignmentId"":""8e2eeacd-88ce-4cc2-b82e-2cb27d9c8ae9"",""projectId"":""a9f3d40c-5730-405c-b25e-1034c4c56f3f""}","https://test12345.live/?num_scrambled_semantic=8&num_scrambled_causal=4&num_scrambled_schematic=4&participantId=059CFA9B63DD4F2A896E14D75DACB6BF&assignmentId=8e2eeacd-88ce-4cc2-b82e-2cb27d9c8ae9&projectId=a9f3d40c-5730-405c-b25e-1034c4c56f3f","059CFA9B63DD4F2A896E14D75DACB6BF-2025-08-07-19-05-36","","3948","","images/causal_sequence/dog_causal/dog_causal_5.png","0","",""
"","","","","","image-button-response","42","183033","0.0-10.0-1.0-2.5","059CFA9B63DD4F2A896E14D75DACB6BF","059CFA9B63DD4F2A896E14D75DACB6BF","8e2eeacd-88ce-4cc2-b82e-2cb27d9c8ae9","a9f3d40c-5730-405c-b25e-1034c4c56f3f","{""num_scrambled_semantic"":""8"",""num_scrambled_causal"":""4"",""num_scrambled_schematic"":""4"",""participantId"":""059CFA9B63DD4F2A896E14D75DACB6BF"",""assignmentId"":""8e2eeacd-88ce-4cc2-b82e-2cb27d9c8ae9"",""projectId"":""a9f3d40c-5730-405c-b25e-1034c4c56f3f""}","https://test12345.live/?num_scrambled_semantic=8&num_scrambled_causal=4&num_scrambled_schematic=4&participantId=059CFA9B63DD4F2A896E14D75DACB6BF&assignmentId=8e2eeacd-88ce-4cc2-b82e-2cb27d9c8ae9&projectId=a9f3d40c-5730-405c-b25e-1034c4c56f3f","059CFA9B63DD4F2A896E14D75DACB6BF-2025-08-07-19-05-36","","null","","[]","null","",""
"","","","","","image-button-response","43","187535","0.0-10.0-1.0-0.6","059CFA9B63DD4F2A896E14D75DACB6BF","059CFA9B63DD4F2A896E14D75DACB6BF","8e2eeacd-88ce-4cc2-b82e-2cb27d9c8ae9","a9f3d40c-5730-405c-b25e-1034c4c56f3f","{""num_scrambled_semantic"":""8"",""num_scrambled_causal"":""4"",""num_scrambled_schematic"":""4"",""participantId"":""059CFA9B63DD4F2A896E14D75DACB6BF"",""assignmentId"":""8e2eeacd-88ce-4cc2-b82e-2cb27d9c8ae9"",""projectId"":""a9f3d40c-5730-405c-b25e-1034c4c56f3f""}","https://test12345.live/?num_scrambled_semantic=8&num_scrambled_causal=4&num_scrambled_schematic=4&participantId=059CFA9B63DD4F2A896E14D75DACB6BF&assignmentId=8e2eeacd-88ce-4cc2-b82e-2cb27d9c8ae9&projectId=a9f3d40c-5730-405c-b25e-1034c4c56f3f","059CFA9B63DD4F2A896E14D75DACB6BF-2025-08-07-19-05-36","","null","","images/causal_sequence/dog_causal/dog_causal_7.png","null","",""
"","","","","","image-button-response","44","188269","0.0-10.0-1.0-1.6","059CFA9B63DD4F2A896E14D75DACB6BF","059CFA9B63DD4F2A896E14D75DACB6BF","8e2eeacd-88ce-4cc2-b82e-2cb27d9c8ae9","a9f3d40c-5730-405c-b25e-1034c4c56f3f","{""num_scrambled_semantic"":""8"",""num_scrambled_causal"":""4"",""num_scrambled_schematic"":""4"",""participantId"":""059CFA9B63DD4F2A896E14D75DACB6BF"",""assignmentId"":""8e2eeacd-88ce-4cc2-b82e-2cb27d9c8ae9"",""projectId"":""a9f3d40c-5730-405c-b25e-1034c4c56f3f""}","https://test12345.live/?num_scrambled_semantic=8&num_scrambled_causal=4&num_scrambled_schematic=4&participantId=059CFA9B63DD4F2A896E14D75DACB6BF&assignmentId=8e2eeacd-88ce-4cc2-b82e-2cb27d9c8ae9&projectId=a9f3d40c-5730-405c-b25e-1034c4c56f3f","059CFA9B63DD4F2A896E14D75DACB6BF-2025-08-07-19-05-36","","731","","images/causal_sequence/dog_causal/dog_causal_7.png","0","",""
"","","","","","image-button-response","45","190070","0.0-10.0-1.0-2.6","059CFA9B63DD4F2A896E14D75DACB6BF","059CFA9B63DD4F2A896E14D75DACB6BF","8e2eeacd-88ce-4cc2-b82e-2cb27d9c8ae9","a9f3d40c-5730-405c-b25e-1034c4c56f3f","{""num_scrambled_semantic"":""8"",""num_scrambled_causal"":""4"",""num_scrambled_schematic"":""4"",""participantId"":""059CFA9B63DD4F2A896E14D75DACB6BF"",""assignmentId"":""8e2eeacd-88ce-4cc2-b82e-2cb27d9c8ae9"",""projectId"":""a9f3d40c-5730-405c-b25e-1034c4c56f3f""}","https://test12345.live/?num_scrambled_semantic=8&num_scrambled_causal=4&num_scrambled_schematic=4&participantId=059CFA9B63DD4F2A896E14D75DACB6BF&assignmentId=8e2eeacd-88ce-4cc2-b82e-2cb27d9c8ae9&projectId=a9f3d40c-5730-405c-b25e-1034c4c56f3f","059CFA9B63DD4F2A896E14D75DACB6BF-2025-08-07-19-05-36","","null","","[]","null","",""
"","","","","","image-button-response","46","194572","0.0-10.0-1.0-0.7","059CFA9B63DD4F2A896E14D75DACB6BF","059CFA9B63DD4F2A896E14D75DACB6BF","8e2eeacd-88ce-4cc2-b82e-2cb27d9c8ae9","a9f3d40c-5730-405c-b25e-1034c4c56f3f","{""num_scrambled_semantic"":""8"",""num_scrambled_causal"":""4"",""num_scrambled_schematic"":""4"",""participantId"":""059CFA9B63DD4F2A896E14D75DACB6BF"",""assignmentId"":""8e2eeacd-88ce-4cc2-b82e-2cb27d9c8ae9"",""projectId"":""a9f3d40c-5730-405c-b25e-1034c4c56f3f""}","https://test12345.live/?num_scrambled_semantic=8&num_scrambled_causal=4&num_scrambled_schematic=4&participantId=059CFA9B63DD4F2A896E14D75DACB6BF&assignmentId=8e2eeacd-88ce-4cc2-b82e-2cb27d9c8ae9&projectId=a9f3d40c-5730-405c-b25e-1034c4c56f3f","059CFA9B63DD4F2A896E14D75DACB6BF-2025-08-07-19-05-36","","null","","images/causal_sequence/dog_causal/dog_causal_1.png","null","",""
"","","","","","image-button-response","47","195933","0.0-10.0-1.0-1.7","059CFA9B63DD4F2A896E14D75DACB6BF","059CFA9B63DD4F2A896E14D75DACB6BF","8e2eeacd-88ce-4cc2-b82e-2cb27d9c8ae9","a9f3d40c-5730-405c-b25e-1034c4c56f3f","{""num_scrambled_semantic"":""8"",""num_scrambled_causal"":""4"",""num_scrambled_schematic"":""4"",""participantId"":""059CFA9B63DD4F2A896E14D75DACB6BF"",""assignmentId"":""8e2eeacd-88ce-4cc2-b82e-2cb27d9c8ae9"",""projectId"":""a9f3d40c-5730-405c-b25e-1034c4c56f3f""}","https://test12345.live/?num_scrambled_semantic=8&num_scrambled_causal=4&num_scrambled_schematic=4&participantId=059CFA9B63DD4F2A896E14D75DACB6BF&assignmentId=8e2eeacd-88ce-4cc2-b82e-2cb27d9c8ae9&projectId=a9f3d40c-5730-405c-b25e-1034c4c56f3f","059CFA9B63DD4F2A896E14D75DACB6BF-2025-08-07-19-05-36","","1359","","images/causal_sequence/dog_causal/dog_causal_1.png","0","",""
"","","","","","image-button-response","48","197735","0.0-10.0-1.0-2.7","059CFA9B63DD4F2A896E14D75DACB6BF","059CFA9B63DD4F2A896E14D75DACB6BF","8e2eeacd-88ce-4cc2-b82e-2cb27d9c8ae9","a9f3d40c-5730-405c-b25e-1034c4c56f3f","{""num_scrambled_semantic"":""8"",""num_scrambled_causal"":""4"",""num_scrambled_schematic"":""4"",""participantId"":""059CFA9B63DD4F2A896E14D75DACB6BF"",""assignmentId"":""8e2eeacd-88ce-4cc2-b82e-2cb27d9c8ae9"",""projectId"":""a9f3d40c-5730-405c-b25e-1034c4c56f3f""}","https://test12345.live/?num_scrambled_semantic=8&num_scrambled_causal=4&num_scrambled_schematic=4&participantId=059CFA9B63DD4F2A896E14D75DACB6BF&assignmentId=8e2eeacd-88ce-4cc2-b82e-2cb27d9c8ae9&projectId=a9f3d40c-5730-405c-b25e-1034c4c56f3f","059CFA9B63DD4F2A896E14D75DACB6BF-2025-08-07-19-05-36","","null","","[]","null","",""
"","","","","","image-button-response","49","202237","0.0-10.0-1.0-0.8","059CFA9B63DD4F2A896E14D75DACB6BF","059CFA9B63DD4F2A896E14D75DACB6BF","8e2eeacd-88ce-4cc2-b82e-2cb27d9c8ae9","a9f3d40c-5730-405c-b25e-1034c4c56f3f","{""num_scrambled_semantic"":""8"",""num_scrambled_causal"":""4"",""num_scrambled_schematic"":""4"",""participantId"":""059CFA9B63DD4F2A896E14D75DACB6BF"",""assignmentId"":""8e2eeacd-88ce-4cc2-b82e-2cb27d9c8ae9"",""projectId"":""a9f3d40c-5730-405c-b25e-1034c4c56f3f""}","https://test12345.live/?num_scrambled_semantic=8&num_scrambled_causal=4&num_scrambled_schematic=4&participantId=059CFA9B63DD4F2A896E14D75DACB6BF&assignmentId=8e2eeacd-88ce-4cc2-b82e-2cb27d9c8ae9&projectId=a9f3d40c-5730-405c-b25e-1034c4c56f3f","059CFA9B63DD4F2A896E14D75DACB6BF-2025-08-07-19-05-36","","null","","images/causal_sequence/dog_causal/dog_causal_8.png","null","",""
"","","","","","image-button-response","50","203395","0.0-10.0-1.0-1.8","059CFA9B63DD4F2A896E14D75DACB6BF","059CFA9B63DD4F2A896E14D75DACB6BF","8e2eeacd-88ce-4cc2-b82e-2cb27d9c8ae9","a9f3d40c-5730-405c-b25e-1034c4c56f3f","{""num_scrambled_semantic"":""8"",""num_scrambled_causal"":""4"",""num_scrambled_schematic"":""4"",""participantId"":""059CFA9B63DD4F2A896E14D75DACB6BF"",""assignmentId"":""8e2eeacd-88ce-4cc2-b82e-2cb27d9c8ae9"",""projectId"":""a9f3d40c-5730-405c-b25e-1034c4c56f3f""}","https://test12345.live/?num_scrambled_semantic=8&num_scrambled_causal=4&num_scrambled_schematic=4&participantId=059CFA9B63DD4F2A896E14D75DACB6BF&assignmentId=8e2eeacd-88ce-4cc2-b82e-2cb27d9c8ae9&projectId=a9f3d40c-5730-405c-b25e-1034c4c56f3f","059CFA9B63DD4F2A896E14D75DACB6BF-2025-08-07-19-05-36","","1156","","images/causal_sequence/dog_causal/dog_causal_8.png","0","",""
"","","","","","image-button-response","51","205198","0.0-10.0-1.0-2.8","059CFA9B63DD4F2A896E14D75DACB6BF","059CFA9B63DD4F2A896E14D75DACB6BF","8e2eeacd-88ce-4cc2-b82e-2cb27d9c8ae9","a9f3d40c-5730-405c-b25e-1034c4c56f3f","{""num_scrambled_semantic"":""8"",""num_scrambled_causal"":""4"",""num_scrambled_schematic"":""4"",""participantId"":""059CFA9B63DD4F2A896E14D75DACB6BF"",""assignmentId"":""8e2eeacd-88ce-4cc2-b82e-2cb27d9c8ae9"",""projectId"":""a9f3d40c-5730-405c-b25e-1034c4c56f3f""}","https://test12345.live/?num_scrambled_semantic=8&num_scrambled_causal=4&num_scrambled_schematic=4&participantId=059CFA9B63DD4F2A896E14D75DACB6BF&assignmentId=8e2eeacd-88ce-4cc2-b82e-2cb27d9c8ae9&projectId=a9f3d40c-5730-405c-b25e-1034c4c56f3f","059CFA9B63DD4F2A896E14D75DACB6BF-2025-08-07-19-05-36","","null","","[]","null","",""
"","","","","","image-button-response","52","209700","0.0-10.0-1.0-0.9","059CFA9B63DD4F2A896E14D75DACB6BF","059CFA9B63DD4F2A896E14D75DACB6BF","8e2eeacd-88ce-4cc2-b82e-2cb27d9c8ae9","a9f3d40c-5730-405c-b25e-1034c4c56f3f","{""num_scrambled_semantic"":""8"",""num_scrambled_causal"":""4"",""num_scrambled_schematic"":""4"",""participantId"":""059CFA9B63DD4F2A896E14D75DACB6BF"",""assignmentId"":""8e2eeacd-88ce-4cc2-b82e-2cb27d9c8ae9"",""projectId"":""a9f3d40c-5730-405c-b25e-1034c4c56f3f""}","https://test12345.live/?num_scrambled_semantic=8&num_scrambled_causal=4&num_scrambled_schematic=4&participantId=059CFA9B63DD4F2A896E14D75DACB6BF&assignmentId=8e2eeacd-88ce-4cc2-b82e-2cb27d9c8ae9&projectId=a9f3d40c-5730-405c-b25e-1034c4c56f3f","059CFA9B63DD4F2A896E14D75DACB6BF-2025-08-07-19-05-36","","null","","images/causal_sequence/dog_causal/dog_causal_6.png","null","",""
"","","","","","image-button-response","53","210647","0.0-10.0-1.0-1.9","059CFA9B63DD4F2A896E14D75DACB6BF","059CFA9B63DD4F2A896E14D75DACB6BF","8e2eeacd-88ce-4cc2-b82e-2cb27d9c8ae9","a9f3d40c-5730-405c-b25e-1034c4c56f3f","{""num_scrambled_semantic"":""8"",""num_scrambled_causal"":""4"",""num_scrambled_schematic"":""4"",""participantId"":""059CFA9B63DD4F2A896E14D75DACB6BF"",""assignmentId"":""8e2eeacd-88ce-4cc2-b82e-2cb27d9c8ae9"",""projectId"":""a9f3d40c-5730-405c-b25e-1034c4c56f3f""}","https://test12345.live/?num_scrambled_semantic=8&num_scrambled_causal=4&num_scrambled_schematic=4&participantId=059CFA9B63DD4F2A896E14D75DACB6BF&assignmentId=8e2eeacd-88ce-4cc2-b82e-2cb27d9c8ae9&projectId=a9f3d40c-5730-405c-b25e-1034c4c56f3f","059CFA9B63DD4F2A896E14D75DACB6BF-2025-08-07-19-05-36","","946","","images/causal_sequence/dog_causal/dog_causal_6.png","0","",""
"","","","","","image-button-response","54","212449","0.0-10.0-1.0-2.9","059CFA9B63DD4F2A896E14D75DACB6BF","059CFA9B63DD4F2A896E14D75DACB6BF","8e2eeacd-88ce-4cc2-b82e-2cb27d9c8ae9","a9f3d40c-5730-405c-b25e-1034c4c56f3f","{""num_scrambled_semantic"":""8"",""num_scrambled_causal"":""4"",""num_scrambled_schematic"":""4"",""participantId"":""059CFA9B63DD4F2A896E14D75DACB6BF"",""assignmentId"":""8e2eeacd-88ce-4cc2-b82e-2cb27d9c8ae9"",""projectId"":""a9f3d40c-5730-405c-b25e-1034c4c56f3f""}","https://test12345.live/?num_scrambled_semantic=8&num_scrambled_causal=4&num_scrambled_schematic=4&participantId=059CFA9B63DD4F2A896E14D75DACB6BF&assignmentId=8e2eeacd-88ce-4cc2-b82e-2cb27d9c8ae9&projectId=a9f3d40c-5730-405c-b25e-1034c4c56f3f","059CFA9B63DD4F2A896E14D75DACB6BF-2025-08-07-19-05-36","","null","","[]","null","",""
"","","","","","html-audio-response","55","251227","0.0-11.0","059CFA9B63DD4F2A896E14D75DACB6BF","059CFA9B63DD4F2A896E14D75DACB6BF","8e2eeacd-88ce-4cc2-b82e-2cb27d9c8ae9","a9f3d40c-5730-405c-b25e-1034c4c56f3f","{""num_scrambled_semantic"":""8"",""num_scrambled_causal"":""4"",""num_scrambled_schematic"":""4"",""participantId"":""059CFA9B63DD4F2A896E14D75DACB6BF"",""assignmentId"":""8e2eeacd-88ce-4cc2-b82e-2cb27d9c8ae9"",""projectId"":""a9f3d40c-5730-405c-b25e-1034c4c56f3f""}","https://test12345.live/?num_scrambled_semantic=8&num_scrambled_causal=4&num_scrambled_schematic=4&participantId=059CFA9B63DD4F2A896E14D75DACB6BF&assignmentId=8e2eeacd-88ce-4cc2-b82e-2cb27d9c8ae9&projectId=a9f3d40c-5730-405c-b25e-1034c4c56f3f","059CFA9B63DD4F2A896E14D75DACB6BF-2025-08-07-19-05-36","","33222","","[""<span style=\""color: red; font-size: 24px\""> NOW RECORDING</span><p>Please say out loud all the images you saw, as many as you can remember. The images can be said in any order.</p>""]","","7","dog_causal"
"","","","","","image-button-response","56","257239","0.0-12.0-0.0","059CFA9B63DD4F2A896E14D75DACB6BF","059CFA9B63DD4F2A896E14D75DACB6BF","8e2eeacd-88ce-4cc2-b82e-2cb27d9c8ae9","a9f3d40c-5730-405c-b25e-1034c4c56f3f","{""num_scrambled_semantic"":""8"",""num_scrambled_causal"":""4"",""num_scrambled_schematic"":""4"",""participantId"":""059CFA9B63DD4F2A896E14D75DACB6BF"",""assignmentId"":""8e2eeacd-88ce-4cc2-b82e-2cb27d9c8ae9"",""projectId"":""a9f3d40c-5730-405c-b25e-1034c4c56f3f""}","https://test12345.live/?num_scrambled_semantic=8&num_scrambled_causal=4&num_scrambled_schematic=4&participantId=059CFA9B63DD4F2A896E14D75DACB6BF&assignmentId=8e2eeacd-88ce-4cc2-b82e-2cb27d9c8ae9&projectId=a9f3d40c-5730-405c-b25e-1034c4c56f3f","059CFA9B63DD4F2A896E14D75DACB6BF-2025-08-07-19-05-36","","null","","images/causal_sequence/museum_causal/museum_causal_0.png","null","",""
"","","","","","image-button-response","57","261742","0.0-12.0-1.0-0.0","059CFA9B63DD4F2A896E14D75DACB6BF","059CFA9B63DD4F2A896E14D75DACB6BF","8e2eeacd-88ce-4cc2-b82e-2cb27d9c8ae9","a9f3d40c-5730-405c-b25e-1034c4c56f3f","{""num_scrambled_semantic"":""8"",""num_scrambled_causal"":""4"",""num_scrambled_schematic"":""4"",""participantId"":""059CFA9B63DD4F2A896E14D75DACB6BF"",""assignmentId"":""8e2eeacd-88ce-4cc2-b82e-2cb27d9c8ae9"",""projectId"":""a9f3d40c-5730-405c-b25e-1034c4c56f3f""}","https://test12345.live/?num_scrambled_semantic=8&num_scrambled_causal=4&num_scrambled_schematic=4&participantId=059CFA9B63DD4F2A896E14D75DACB6BF&assignmentId=8e2eeacd-88ce-4cc2-b82e-2cb27d9c8ae9&projectId=a9f3d40c-5730-405c-b25e-1034c4c56f3f","059CFA9B63DD4F2A896E14D75DACB6BF-2025-08-07-19-05-36","","null","","images/causal_sequence/museum_causal/museum_causal_1.png","null","",""
"","","","","","image-button-response","58","262689","0.0-12.0-1.0-1.0","059CFA9B63DD4F2A896E14D75DACB6BF","059CFA9B63DD4F2A896E14D75DACB6BF","8e2eeacd-88ce-4cc2-b82e-2cb27d9c8ae9","a9f3d40c-5730-405c-b25e-1034c4c56f3f","{""num_scrambled_semantic"":""8"",""num_scrambled_causal"":""4"",""num_scrambled_schematic"":""4"",""participantId"":""059CFA9B63DD4F2A896E14D75DACB6BF"",""assignmentId"":""8e2eeacd-88ce-4cc2-b82e-2cb27d9c8ae9"",""projectId"":""a9f3d40c-5730-405c-b25e-1034c4c56f3f""}","https://test12345.live/?num_scrambled_semantic=8&num_scrambled_causal=4&num_scrambled_schematic=4&participantId=059CFA9B63DD4F2A896E14D75DACB6BF&assignmentId=8e2eeacd-88ce-4cc2-b82e-2cb27d9c8ae9&projectId=a9f3d40c-5730-405c-b25e-1034c4c56f3f","059CFA9B63DD4F2A896E14D75DACB6BF-2025-08-07-19-05-36","","945","","images/causal_sequence/museum_causal/museum_causal_1.png","0","",""
"","","","","","image-button-response","59","264491","0.0-12.0-1.0-2.0","059CFA9B63DD4F2A896E14D75DACB6BF","059CFA9B63DD4F2A896E14D75DACB6BF","8e2eeacd-88ce-4cc2-b82e-2cb27d9c8ae9","a9f3d40c-5730-405c-b25e-1034c4c56f3f","{""num_scrambled_semantic"":""8"",""num_scrambled_causal"":""4"",""num_scrambled_schematic"":""4"",""participantId"":""059CFA9B63DD4F2A896E14D75DACB6BF"",""assignmentId"":""8e2eeacd-88ce-4cc2-b82e-2cb27d9c8ae9"",""projectId"":""a9f3d40c-5730-405c-b25e-1034c4c56f3f""}","https://test12345.live/?num_scrambled_semantic=8&num_scrambled_causal=4&num_scrambled_schematic=4&participantId=059CFA9B63DD4F2A896E14D75DACB6BF&assignmentId=8e2eeacd-88ce-4cc2-b82e-2cb27d9c8ae9&projectId=a9f3d40c-5730-405c-b25e-1034c4c56f3f","059CFA9B63DD4F2A896E14D75DACB6BF-2025-08-07-19-05-36","","null","","[]","null","",""
"","","","","","image-button-response","60","268994","0.0-12.0-1.0-0.1","059CFA9B63DD4F2A896E14D75DACB6BF","059CFA9B63DD4F2A896E14D75DACB6BF","8e2eeacd-88ce-4cc2-b82e-2cb27d9c8ae9","a9f3d40c-5730-405c-b25e-1034c4c56f3f","{""num_scrambled_semantic"":""8"",""num_scrambled_causal"":""4"",""num_scrambled_schematic"":""4"",""participantId"":""059CFA9B63DD4F2A896E14D75DACB6BF"",""assignmentId"":""8e2eeacd-88ce-4cc2-b82e-2cb27d9c8ae9"",""projectId"":""a9f3d40c-5730-405c-b25e-1034c4c56f3f""}","https://test12345.live/?num_scrambled_semantic=8&num_scrambled_causal=4&num_scrambled_schematic=4&participantId=059CFA9B63DD4F2A896E14D75DACB6BF&assignmentId=8e2eeacd-88ce-4cc2-b82e-2cb27d9c8ae9&projectId=a9f3d40c-5730-405c-b25e-1034c4c56f3f","059CFA9B63DD4F2A896E14D75DACB6BF-2025-08-07-19-05-36","","null","","images/causal_sequence/museum_causal/museum_causal_2.png","null","",""
"","","","","","image-button-response","61","269420","0.0-12.0-1.0-1.1","059CFA9B63DD4F2A896E14D75DACB6BF","059CFA9B63DD4F2A896E14D75DACB6BF","8e2eeacd-88ce-4cc2-b82e-2cb27d9c8ae9","a9f3d40c-5730-405c-b25e-1034c4c56f3f","{""num_scrambled_semantic"":""8"",""num_scrambled_causal"":""4"",""num_scrambled_schematic"":""4"",""participantId"":""059CFA9B63DD4F2A896E14D75DACB6BF"",""assignmentId"":""8e2eeacd-88ce-4cc2-b82e-2cb27d9c8ae9"",""projectId"":""a9f3d40c-5730-405c-b25e-1034c4c56f3f""}","https://test12345.live/?num_scrambled_semantic=8&num_scrambled_causal=4&num_scrambled_schematic=4&participantId=059CFA9B63DD4F2A896E14D75DACB6BF&assignmentId=8e2eeacd-88ce-4cc2-b82e-2cb27d9c8ae9&projectId=a9f3d40c-5730-405c-b25e-1034c4c56f3f","059CFA9B63DD4F2A896E14D75DACB6BF-2025-08-07-19-05-36","","425","","images/causal_sequence/museum_causal/museum_causal_2.png","0","",""
"","","","","","image-button-response","62","271223","0.0-12.0-1.0-2.1","059CFA9B63DD4F2A896E14D75DACB6BF","059CFA9B63DD4F2A896E14D75DACB6BF","8e2eeacd-88ce-4cc2-b82e-2cb27d9c8ae9","a9f3d40c-5730-405c-b25e-1034c4c56f3f","{""num_scrambled_semantic"":""8"",""num_scrambled_causal"":""4"",""num_scrambled_schematic"":""4"",""participantId"":""059CFA9B63DD4F2A896E14D75DACB6BF"",""assignmentId"":""8e2eeacd-88ce-4cc2-b82e-2cb27d9c8ae9"",""projectId"":""a9f3d40c-5730-405c-b25e-1034c4c56f3f""}","https://test12345.live/?num_scrambled_semantic=8&num_scrambled_causal=4&num_scrambled_schematic=4&participantId=059CFA9B63DD4F2A896E14D75DACB6BF&assignmentId=8e2eeacd-88ce-4cc2-b82e-2cb27d9c8ae9&projectId=a9f3d40c-5730-405c-b25e-1034c4c56f3f","059CFA9B63DD4F2A896E14D75DACB6BF-2025-08-07-19-05-36","","null","","[]","null","",""
"","","","","","image-button-response","63","275727","0.0-12.0-1.0-0.2","059CFA9B63DD4F2A896E14D75DACB6BF","059CFA9B63DD4F2A896E14D75DACB6BF","8e2eeacd-88ce-4cc2-b82e-2cb27d9c8ae9","a9f3d40c-5730-405c-b25e-1034c4c56f3f","{""num_scrambled_semantic"":""8"",""num_scrambled_causal"":""4"",""num_scrambled_schematic"":""4"",""participantId"":""059CFA9B63DD4F2A896E14D75DACB6BF"",""assignmentId"":""8e2eeacd-88ce-4cc2-b82e-2cb27d9c8ae9"",""projectId"":""a9f3d40c-5730-405c-b25e-1034c4c56f3f""}","https://test12345.live/?num_scrambled_semantic=8&num_scrambled_causal=4&num_scrambled_schematic=4&participantId=059CFA9B63DD4F2A896E14D75DACB6BF&assignmentId=8e2eeacd-88ce-4cc2-b82e-2cb27d9c8ae9&projectId=a9f3d40c-5730-405c-b25e-1034c4c56f3f","059CFA9B63DD4F2A896E14D75DACB6BF-2025-08-07-19-05-36","","null","","images/causal_sequence/museum_causal/museum_causal_3.png","null","",""
"","","","","","image-button-response","64","276324","0.0-12.0-1.0-1.2","059CFA9B63DD4F2A896E14D75DACB6BF","059CFA9B63DD4F2A896E14D75DACB6BF","8e2eeacd-88ce-4cc2-b82e-2cb27d9c8ae9","a9f3d40c-5730-405c-b25e-1034c4c56f3f","{""num_scrambled_semantic"":""8"",""num_scrambled_causal"":""4"",""num_scrambled_schematic"":""4"",""participantId"":""059CFA9B63DD4F2A896E14D75DACB6BF"",""assignmentId"":""8e2eeacd-88ce-4cc2-b82e-2cb27d9c8ae9"",""projectId"":""a9f3d40c-5730-405c-b25e-1034c4c56f3f""}","https://test12345.live/?num_scrambled_semantic=8&num_scrambled_causal=4&num_scrambled_schematic=4&participantId=059CFA9B63DD4F2A896E14D75DACB6BF&assignmentId=8e2eeacd-88ce-4cc2-b82e-2cb27d9c8ae9&projectId=a9f3d40c-5730-405c-b25e-1034c4c56f3f","059CFA9B63DD4F2A896E14D75DACB6BF-2025-08-07-19-05-36","","594","","images/causal_sequence/museum_causal/museum_causal_3.png","0","",""
"","","","","","image-button-response","65","278125","0.0-12.0-1.0-2.2","059CFA9B63DD4F2A896E14D75DACB6BF","059CFA9B63DD4F2A896E14D75DACB6BF","8e2eeacd-88ce-4cc2-b82e-2cb27d9c8ae9","a9f3d40c-5730-405c-b25e-1034c4c56f3f","{""num_scrambled_semantic"":""8"",""num_scrambled_causal"":""4"",""num_scrambled_schematic"":""4"",""participantId"":""059CFA9B63DD4F2A896E14D75DACB6BF"",""assignmentId"":""8e2eeacd-88ce-4cc2-b82e-2cb27d9c8ae9"",""projectId"":""a9f3d40c-5730-405c-b25e-1034c4c56f3f""}","https://test12345.live/?num_scrambled_semantic=8&num_scrambled_causal=4&num_scrambled_schematic=4&participantId=059CFA9B63DD4F2A896E14D75DACB6BF&assignmentId=8e2eeacd-88ce-4cc2-b82e-2cb27d9c8ae9&projectId=a9f3d40c-5730-405c-b25e-1034c4c56f3f","059CFA9B63DD4F2A896E14D75DACB6BF-2025-08-07-19-05-36","","null","","[]","null","",""
"","","","","","image-button-response","66","282628","0.0-12.0-1.0-0.3","059CFA9B63DD4F2A896E14D75DACB6BF","059CFA9B63DD4F2A896E14D75DACB6BF","8e2eeacd-88ce-4cc2-b82e-2cb27d9c8ae9","a9f3d40c-5730-405c-b25e-1034c4c56f3f","{""num_scrambled_semantic"":""8"",""num_scrambled_causal"":""4"",""num_scrambled_schematic"":""4"",""participantId"":""059CFA9B63DD4F2A896E14D75DACB6BF"",""assignmentId"":""8e2eeacd-88ce-4cc2-b82e-2cb27d9c8ae9"",""projectId"":""a9f3d40c-5730-405c-b25e-1034c4c56f3f""}","https://test12345.live/?num_scrambled_semantic=8&num_scrambled_causal=4&num_scrambled_schematic=4&participantId=059CFA9B63DD4F2A896E14D75DACB6BF&assignmentId=8e2eeacd-88ce-4cc2-b82e-2cb27d9c8ae9&projectId=a9f3d40c-5730-405c-b25e-1034c4c56f3f","059CFA9B63DD4F2A896E14D75DACB6BF-2025-08-07-19-05-36","","null","","images/causal_sequence/museum_causal/museum_causal_4.png","null","",""
"","","","","","image-button-response","67","283237","0.0-12.0-1.0-1.3","059CFA9B63DD4F2A896E14D75DACB6BF","059CFA9B63DD4F2A896E14D75DACB6BF","8e2eeacd-88ce-4cc2-b82e-2cb27d9c8ae9","a9f3d40c-5730-405c-b25e-1034c4c56f3f","{""num_scrambled_semantic"":""8"",""num_scrambled_causal"":""4"",""num_scrambled_schematic"":""4"",""participantId"":""059CFA9B63DD4F2A896E14D75DACB6BF"",""assignmentId"":""8e2eeacd-88ce-4cc2-b82e-2cb27d9c8ae9"",""projectId"":""a9f3d40c-5730-405c-b25e-1034c4c56f3f""}","https://test12345.live/?num_scrambled_semantic=8&num_scrambled_causal=4&num_scrambled_schematic=4&participantId=059CFA9B63DD4F2A896E14D75DACB6BF&assignmentId=8e2eeacd-88ce-4cc2-b82e-2cb27d9c8ae9&projectId=a9f3d40c-5730-405c-b25e-1034c4c56f3f","059CFA9B63DD4F2A896E14D75DACB6BF-2025-08-07-19-05-36","","607","","images/causal_sequence/museum_causal/museum_causal_4.png","1","",""
"","","","","","image-button-response","68","285039","0.0-12.0-1.0-2.3","059CFA9B63DD4F2A896E14D75DACB6BF","059CFA9B63DD4F2A896E14D75DACB6BF","8e2eeacd-88ce-4cc2-b82e-2cb27d9c8ae9","a9f3d40c-5730-405c-b25e-1034c4c56f3f","{""num_scrambled_semantic"":""8"",""num_scrambled_causal"":""4"",""num_scrambled_schematic"":""4"",""participantId"":""059CFA9B63DD4F2A896E14D75DACB6BF"",""assignmentId"":""8e2eeacd-88ce-4cc2-b82e-2cb27d9c8ae9"",""projectId"":""a9f3d40c-5730-405c-b25e-1034c4c56f3f""}","https://test12345.live/?num_scrambled_semantic=8&num_scrambled_causal=4&num_scrambled_schematic=4&participantId=059CFA9B63DD4F2A896E14D75DACB6BF&assignmentId=8e2eeacd-88ce-4cc2-b82e-2cb27d9c8ae9&projectId=a9f3d40c-5730-405c-b25e-1034c4c56f3f","059CFA9B63DD4F2A896E14D75DACB6BF-2025-08-07-19-05-36","","null","","[]","null","",""
"","","","","","image-button-response","69","289541","0.0-12.0-1.0-0.4","059CFA9B63DD4F2A896E14D75DACB6BF","059CFA9B63DD4F2A896E14D75DACB6BF","8e2eeacd-88ce-4cc2-b82e-2cb27d9c8ae9","a9f3d40c-5730-405c-b25e-1034c4c56f3f","{""num_scrambled_semantic"":""8"",""num_scrambled_causal"":""4"",""num_scrambled_schematic"":""4"",""participantId"":""059CFA9B63DD4F2A896E14D75DACB6BF"",""assignmentId"":""8e2eeacd-88ce-4cc2-b82e-2cb27d9c8ae9"",""projectId"":""a9f3d40c-5730-405c-b25e-1034c4c56f3f""}","https://test12345.live/?num_scrambled_semantic=8&num_scrambled_causal=4&num_scrambled_schematic=4&participantId=059CFA9B63DD4F2A896E14D75DACB6BF&assignmentId=8e2eeacd-88ce-4cc2-b82e-2cb27d9c8ae9&projectId=a9f3d40c-5730-405c-b25e-1034c4c56f3f","059CFA9B63DD4F2A896E14D75DACB6BF-2025-08-07-19-05-36","","null","","images/causal_sequence/museum_causal/museum_causal_5.png","null","",""
"","","","","","image-button-response","70","290129","0.0-12.0-1.0-1.4","059CFA9B63DD4F2A896E14D75DACB6BF","059CFA9B63DD4F2A896E14D75DACB6BF","8e2eeacd-88ce-4cc2-b82e-2cb27d9c8ae9","a9f3d40c-5730-405c-b25e-1034c4c56f3f","{""num_scrambled_semantic"":""8"",""num_scrambled_causal"":""4"",""num_scrambled_schematic"":""4"",""participantId"":""059CFA9B63DD4F2A896E14D75DACB6BF"",""assignmentId"":""8e2eeacd-88ce-4cc2-b82e-2cb27d9c8ae9"",""projectId"":""a9f3d40c-5730-405c-b25e-1034c4c56f3f""}","https://test12345.live/?num_scrambled_semantic=8&num_scrambled_causal=4&num_scrambled_schematic=4&participantId=059CFA9B63DD4F2A896E14D75DACB6BF&assignmentId=8e2eeacd-88ce-4cc2-b82e-2cb27d9c8ae9&projectId=a9f3d40c-5730-405c-b25e-1034c4c56f3f","059CFA9B63DD4F2A896E14D75DACB6BF-2025-08-07-19-05-36","","586","","images/causal_sequence/museum_causal/museum_causal_5.png","0","",""
"","","","","","image-button-response","71","291931","0.0-12.0-1.0-2.4","059CFA9B63DD4F2A896E14D75DACB6BF","059CFA9B63DD4F2A896E14D75DACB6BF","8e2eeacd-88ce-4cc2-b82e-2cb27d9c8ae9","a9f3d40c-5730-405c-b25e-1034c4c56f3f","{""num_scrambled_semantic"":""8"",""num_scrambled_causal"":""4"",""num_scrambled_schematic"":""4"",""participantId"":""059CFA9B63DD4F2A896E14D75DACB6BF"",""assignmentId"":""8e2eeacd-88ce-4cc2-b82e-2cb27d9c8ae9"",""projectId"":""a9f3d40c-5730-405c-b25e-1034c4c56f3f""}","https://test12345.live/?num_scrambled_semantic=8&num_scrambled_causal=4&num_scrambled_schematic=4&participantId=059CFA9B63DD4F2A896E14D75DACB6BF&assignmentId=8e2eeacd-88ce-4cc2-b82e-2cb27d9c8ae9&projectId=a9f3d40c-5730-405c-b25e-1034c4c56f3f","059CFA9B63DD4F2A896E14D75DACB6BF-2025-08-07-19-05-36","","null","","[]","null","",""
"","","","","","image-button-response","72","296432","0.0-12.0-1.0-0.5","059CFA9B63DD4F2A896E14D75DACB6BF","059CFA9B63DD4F2A896E14D75DACB6BF","8e2eeacd-88ce-4cc2-b82e-2cb27d9c8ae9","a9f3d40c-5730-405c-b25e-1034c4c56f3f","{""num_scrambled_semantic"":""8"",""num_scrambled_causal"":""4"",""num_scrambled_schematic"":""4"",""participantId"":""059CFA9B63DD4F2A896E14D75DACB6BF"",""assignmentId"":""8e2eeacd-88ce-4cc2-b82e-2cb27d9c8ae9"",""projectId"":""a9f3d40c-5730-405c-b25e-1034c4c56f3f""}","https://test12345.live/?num_scrambled_semantic=8&num_scrambled_causal=4&num_scrambled_schematic=4&participantId=059CFA9B63DD4F2A896E14D75DACB6BF&assignmentId=8e2eeacd-88ce-4cc2-b82e-2cb27d9c8ae9&projectId=a9f3d40c-5730-405c-b25e-1034c4c56f3f","059CFA9B63DD4F2A896E14D75DACB6BF-2025-08-07-19-05-36","","null","","images/causal_sequence/museum_causal/museum_causal_6.png","null","",""
"","","","","","image-button-response","73","297026","0.0-12.0-1.0-1.5","059CFA9B63DD4F2A896E14D75DACB6BF","059CFA9B63DD4F2A896E14D75DACB6BF","8e2eeacd-88ce-4cc2-b82e-2cb27d9c8ae9","a9f3d40c-5730-405c-b25e-1034c4c56f3f","{""num_scrambled_semantic"":""8"",""num_scrambled_causal"":""4"",""num_scrambled_schematic"":""4"",""participantId"":""059CFA9B63DD4F2A896E14D75DACB6BF"",""assignmentId"":""8e2eeacd-88ce-4cc2-b82e-2cb27d9c8ae9"",""projectId"":""a9f3d40c-5730-405c-b25e-1034c4c56f3f""}","https://test12345.live/?num_scrambled_semantic=8&num_scrambled_causal=4&num_scrambled_schematic=4&participantId=059CFA9B63DD4F2A896E14D75DACB6BF&assignmentId=8e2eeacd-88ce-4cc2-b82e-2cb27d9c8ae9&projectId=a9f3d40c-5730-405c-b25e-1034c4c56f3f","059CFA9B63DD4F2A896E14D75DACB6BF-2025-08-07-19-05-36","","592","","images/causal_sequence/museum_causal/museum_causal_6.png","0","",""
"","","","","","image-button-response","74","298829","0.0-12.0-1.0-2.5","059CFA9B63DD4F2A896E14D75DACB6BF","059CFA9B63DD4F2A896E14D75DACB6BF","8e2eeacd-88ce-4cc2-b82e-2cb27d9c8ae9","a9f3d40c-5730-405c-b25e-1034c4c56f3f","{""num_scrambled_semantic"":""8"",""num_scrambled_causal"":""4"",""num_scrambled_schematic"":""4"",""participantId"":""059CFA9B63DD4F2A896E14D75DACB6BF"",""assignmentId"":""8e2eeacd-88ce-4cc2-b82e-2cb27d9c8ae9"",""projectId"":""a9f3d40c-5730-405c-b25e-1034c4c56f3f""}","https://test12345.live/?num_scrambled_semantic=8&num_scrambled_causal=4&num_scrambled_schematic=4&participantId=059CFA9B63DD4F2A896E14D75DACB6BF&assignmentId=8e2eeacd-88ce-4cc2-b82e-2cb27d9c8ae9&projectId=a9f3d40c-5730-405c-b25e-1034c4c56f3f","059CFA9B63DD4F2A896E14D75DACB6BF-2025-08-07-19-05-36","","null","","[]","null","",""
"","","","","","image-button-response","75","303331","0.0-12.0-1.0-0.6","059CFA9B63DD4F2A896E14D75DACB6BF","059CFA9B63DD4F2A896E14D75DACB6BF","8e2eeacd-88ce-4cc2-b82e-2cb27d9c8ae9","a9f3d40c-5730-405c-b25e-1034c4c56f3f","{""num_scrambled_semantic"":""8"",""num_scrambled_causal"":""4"",""num_scrambled_schematic"":""4"",""participantId"":""059CFA9B63DD4F2A896E14D75DACB6BF"",""assignmentId"":""8e2eeacd-88ce-4cc2-b82e-2cb27d9c8ae9"",""projectId"":""a9f3d40c-5730-405c-b25e-1034c4c56f3f""}","https://test12345.live/?num_scrambled_semantic=8&num_scrambled_causal=4&num_scrambled_schematic=4&participantId=059CFA9B63DD4F2A896E14D75DACB6BF&assignmentId=8e2eeacd-88ce-4cc2-b82e-2cb27d9c8ae9&projectId=a9f3d40c-5730-405c-b25e-1034c4c56f3f","059CFA9B63DD4F2A896E14D75DACB6BF-2025-08-07-19-05-36","","null","","images/causal_sequence/museum_causal/museum_causal_7.png","null","",""
"","","","","","image-button-response","76","304189","0.0-12.0-1.0-1.6","059CFA9B63DD4F2A896E14D75DACB6BF","059CFA9B63DD4F2A896E14D75DACB6BF","8e2eeacd-88ce-4cc2-b82e-2cb27d9c8ae9","a9f3d40c-5730-405c-b25e-1034c4c56f3f","{""num_scrambled_semantic"":""8"",""num_scrambled_causal"":""4"",""num_scrambled_schematic"":""4"",""participantId"":""059CFA9B63DD4F2A896E14D75DACB6BF"",""assignmentId"":""8e2eeacd-88ce-4cc2-b82e-2cb27d9c8ae9"",""projectId"":""a9f3d40c-5730-405c-b25e-1034c4c56f3f""}","https://test12345.live/?num_scrambled_semantic=8&num_scrambled_causal=4&num_scrambled_schematic=4&participantId=059CFA9B63DD4F2A896E14D75DACB6BF&assignmentId=8e2eeacd-88ce-4cc2-b82e-2cb27d9c8ae9&projectId=a9f3d40c-5730-405c-b25e-1034c4c56f3f","059CFA9B63DD4F2A896E14D75DACB6BF-2025-08-07-19-05-36","","857","","images/causal_sequence/museum_causal/museum_causal_7.png","1","",""
"","","","","","image-button-response","77","305991","0.0-12.0-1.0-2.6","059CFA9B63DD4F2A896E14D75DACB6BF","059CFA9B63DD4F2A896E14D75DACB6BF","8e2eeacd-88ce-4cc2-b82e-2cb27d9c8ae9","a9f3d40c-5730-405c-b25e-1034c4c56f3f","{""num_scrambled_semantic"":""8"",""num_scrambled_causal"":""4"",""num_scrambled_schematic"":""4"",""participantId"":""059CFA9B63DD4F2A896E14D75DACB6BF"",""assignmentId"":""8e2eeacd-88ce-4cc2-b82e-2cb27d9c8ae9"",""projectId"":""a9f3d40c-5730-405c-b25e-1034c4c56f3f""}","https://test12345.live/?num_scrambled_semantic=8&num_scrambled_causal=4&num_scrambled_schematic=4&participantId=059CFA9B63DD4F2A896E14D75DACB6BF&assignmentId=8e2eeacd-88ce-4cc2-b82e-2cb27d9c8ae9&projectId=a9f3d40c-5730-405c-b25e-1034c4c56f3f","059CFA9B63DD4F2A896E14D75DACB6BF-2025-08-07-19-05-36","","null","","[]","null","",""
"","","","","","image-button-response","78","310493","0.0-12.0-1.0-0.7","059CFA9B63DD4F2A896E14D75DACB6BF","059CFA9B63DD4F2A896E14D75DACB6BF","8e2eeacd-88ce-4cc2-b82e-2cb27d9c8ae9","a9f3d40c-5730-405c-b25e-1034c4c56f3f","{""num_scrambled_semantic"":""8"",""num_scrambled_causal"":""4"",""num_scrambled_schematic"":""4"",""participantId"":""059CFA9B63DD4F2A896E14D75DACB6BF"",""assignmentId"":""8e2eeacd-88ce-4cc2-b82e-2cb27d9c8ae9"",""projectId"":""a9f3d40c-5730-405c-b25e-1034c4c56f3f""}","https://test12345.live/?num_scrambled_semantic=8&num_scrambled_causal=4&num_scrambled_schematic=4&participantId=059CFA9B63DD4F2A896E14D75DACB6BF&assignmentId=8e2eeacd-88ce-4cc2-b82e-2cb27d9c8ae9&projectId=a9f3d40c-5730-405c-b25e-1034c4c56f3f","059CFA9B63DD4F2A896E14D75DACB6BF-2025-08-07-19-05-36","","null","","images/causal_sequence/museum_causal/museum_causal_8.png","null","",""
"","","","","","image-button-response","79","311592","0.0-12.0-1.0-1.7","059CFA9B63DD4F2A896E14D75DACB6BF","059CFA9B63DD4F2A896E14D75DACB6BF","8e2eeacd-88ce-4cc2-b82e-2cb27d9c8ae9","a9f3d40c-5730-405c-b25e-1034c4c56f3f","{""num_scrambled_semantic"":""8"",""num_scrambled_causal"":""4"",""num_scrambled_schematic"":""4"",""participantId"":""059CFA9B63DD4F2A896E14D75DACB6BF"",""assignmentId"":""8e2eeacd-88ce-4cc2-b82e-2cb27d9c8ae9"",""projectId"":""a9f3d40c-5730-405c-b25e-1034c4c56f3f""}","https://test12345.live/?num_scrambled_semantic=8&num_scrambled_causal=4&num_scrambled_schematic=4&participantId=059CFA9B63DD4F2A896E14D75DACB6BF&assignmentId=8e2eeacd-88ce-4cc2-b82e-2cb27d9c8ae9&projectId=a9f3d40c-5730-405c-b25e-1034c4c56f3f","059CFA9B63DD4F2A896E14D75DACB6BF-2025-08-07-19-05-36","","1097","","images/causal_sequence/museum_causal/museum_causal_8.png","0","",""
"","","","","","image-button-response","80","313394","0.0-12.0-1.0-2.7","059CFA9B63DD4F2A896E14D75DACB6BF","059CFA9B63DD4F2A896E14D75DACB6BF","8e2eeacd-88ce-4cc2-b82e-2cb27d9c8ae9","a9f3d40c-5730-405c-b25e-1034c4c56f3f","{""num_scrambled_semantic"":""8"",""num_scrambled_causal"":""4"",""num_scrambled_schematic"":""4"",""participantId"":""059CFA9B63DD4F2A896E14D75DACB6BF"",""assignmentId"":""8e2eeacd-88ce-4cc2-b82e-2cb27d9c8ae9"",""projectId"":""a9f3d40c-5730-405c-b25e-1034c4c56f3f""}","https://test12345.live/?num_scrambled_semantic=8&num_scrambled_causal=4&num_scrambled_schematic=4&participantId=059CFA9B63DD4F2A896E14D75DACB6BF&assignmentId=8e2eeacd-88ce-4cc2-b82e-2cb27d9c8ae9&projectId=a9f3d40c-5730-405c-b25e-1034c4c56f3f","059CFA9B63DD4F2A896E14D75DACB6BF-2025-08-07-19-05-36","","null","","[]","null","",""
"","","","","","image-button-response","81","317897","0.0-12.0-1.0-0.8","059CFA9B63DD4F2A896E14D75DACB6BF","059CFA9B63DD4F2A896E14D75DACB6BF","8e2eeacd-88ce-4cc2-b82e-2cb27d9c8ae9","a9f3d40c-5730-405c-b25e-1034c4c56f3f","{""num_scrambled_semantic"":""8"",""num_scrambled_causal"":""4"",""num_scrambled_schematic"":""4"",""participantId"":""059CFA9B63DD4F2A896E14D75DACB6BF"",""assignmentId"":""8e2eeacd-88ce-4cc2-b82e-2cb27d9c8ae9"",""projectId"":""a9f3d40c-5730-405c-b25e-1034c4c56f3f""}","https://test12345.live/?num_scrambled_semantic=8&num_scrambled_causal=4&num_scrambled_schematic=4&participantId=059CFA9B63DD4F2A896E14D75DACB6BF&assignmentId=8e2eeacd-88ce-4cc2-b82e-2cb27d9c8ae9&projectId=a9f3d40c-5730-405c-b25e-1034c4c56f3f","059CFA9B63DD4F2A896E14D75DACB6BF-2025-08-07-19-05-36","","null","","images/causal_sequence/museum_causal/museum_causal_9.png","null","",""
"","","","","","image-button-response","82","319210","0.0-12.0-1.0-1.8","059CFA9B63DD4F2A896E14D75DACB6BF","059CFA9B63DD4F2A896E14D75DACB6BF","8e2eeacd-88ce-4cc2-b82e-2cb27d9c8ae9","a9f3d40c-5730-405c-b25e-1034c4c56f3f","{""num_scrambled_semantic"":""8"",""num_scrambled_causal"":""4"",""num_scrambled_schematic"":""4"",""participantId"":""059CFA9B63DD4F2A896E14D75DACB6BF"",""assignmentId"":""8e2eeacd-88ce-4cc2-b82e-2cb27d9c8ae9"",""projectId"":""a9f3d40c-5730-405c-b25e-1034c4c56f3f""}","https://test12345.live/?num_scrambled_semantic=8&num_scrambled_causal=4&num_scrambled_schematic=4&participantId=059CFA9B63DD4F2A896E14D75DACB6BF&assignmentId=8e2eeacd-88ce-4cc2-b82e-2cb27d9c8ae9&projectId=a9f3d40c-5730-405c-b25e-1034c4c56f3f","059CFA9B63DD4F2A896E14D75DACB6BF-2025-08-07-19-05-36","","1311","","images/causal_sequence/museum_causal/museum_causal_9.png","1","",""
"","","","","","image-button-response","83","321012","0.0-12.0-1.0-2.8","059CFA9B63DD4F2A896E14D75DACB6BF","059CFA9B63DD4F2A896E14D75DACB6BF","8e2eeacd-88ce-4cc2-b82e-2cb27d9c8ae9","a9f3d40c-5730-405c-b25e-1034c4c56f3f","{""num_scrambled_semantic"":""8"",""num_scrambled_causal"":""4"",""num_scrambled_schematic"":""4"",""participantId"":""059CFA9B63DD4F2A896E14D75DACB6BF"",""assignmentId"":""8e2eeacd-88ce-4cc2-b82e-2cb27d9c8ae9"",""projectId"":""a9f3d40c-5730-405c-b25e-1034c4c56f3f""}","https://test12345.live/?num_scrambled_semantic=8&num_scrambled_causal=4&num_scrambled_schematic=4&participantId=059CFA9B63DD4F2A896E14D75DACB6BF&assignmentId=8e2eeacd-88ce-4cc2-b82e-2cb27d9c8ae9&projectId=a9f3d40c-5730-405c-b25e-1034c4c56f3f","059CFA9B63DD4F2A896E14D75DACB6BF-2025-08-07-19-05-36","","null","","[]","null","",""
"","","","","","image-button-response","84","325515","0.0-12.0-1.0-0.9","059CFA9B63DD4F2A896E14D75DACB6BF","059CFA9B63DD4F2A896E14D75DACB6BF","8e2eeacd-88ce-4cc2-b82e-2cb27d9c8ae9","a9f3d40c-5730-405c-b25e-1034c4c56f3f","{""num_scrambled_semantic"":""8"",""num_scrambled_causal"":""4"",""num_scrambled_schematic"":""4"",""participantId"":""059CFA9B63DD4F2A896E14D75DACB6BF"",""assignmentId"":""8e2eeacd-88ce-4cc2-b82e-2cb27d9c8ae9"",""projectId"":""a9f3d40c-5730-405c-b25e-1034c4c56f3f""}","https://test12345.live/?num_scrambled_semantic=8&num_scrambled_causal=4&num_scrambled_schematic=4&participantId=059CFA9B63DD4F2A896E14D75DACB6BF&assignmentId=8e2eeacd-88ce-4cc2-b82e-2cb27d9c8ae9&projectId=a9f3d40c-5730-405c-b25e-1034c4c56f3f","059CFA9B63DD4F2A896E14D75DACB6BF-2025-08-07-19-05-36","","null","","images/causal_sequence/museum_causal/museum_causal_ten.png","null","",""
"","","","","","image-button-response","85","326503","0.0-12.0-1.0-1.9","059CFA9B63DD4F2A896E14D75DACB6BF","059CFA9B63DD4F2A896E14D75DACB6BF","8e2eeacd-88ce-4cc2-b82e-2cb27d9c8ae9","a9f3d40c-5730-405c-b25e-1034c4c56f3f","{""num_scrambled_semantic"":""8"",""num_scrambled_causal"":""4"",""num_scrambled_schematic"":""4"",""participantId"":""059CFA9B63DD4F2A896E14D75DACB6BF"",""assignmentId"":""8e2eeacd-88ce-4cc2-b82e-2cb27d9c8ae9"",""projectId"":""a9f3d40c-5730-405c-b25e-1034c4c56f3f""}","https://test12345.live/?num_scrambled_semantic=8&num_scrambled_causal=4&num_scrambled_schematic=4&participantId=059CFA9B63DD4F2A896E14D75DACB6BF&assignmentId=8e2eeacd-88ce-4cc2-b82e-2cb27d9c8ae9&projectId=a9f3d40c-5730-405c-b25e-1034c4c56f3f","059CFA9B63DD4F2A896E14D75DACB6BF-2025-08-07-19-05-36","","987","","images/causal_sequence/museum_causal/museum_causal_ten.png","0","",""
"","","","","","image-button-response","86","328305","0.0-12.0-1.0-2.9","059CFA9B63DD4F2A896E14D75DACB6BF","059CFA9B63DD4F2A896E14D75DACB6BF","8e2eeacd-88ce-4cc2-b82e-2cb27d9c8ae9","a9f3d40c-5730-405c-b25e-1034c4c56f3f","{""num_scrambled_semantic"":""8"",""num_scrambled_causal"":""4"",""num_scrambled_schematic"":""4"",""participantId"":""059CFA9B63DD4F2A896E14D75DACB6BF"",""assignmentId"":""8e2eeacd-88ce-4cc2-b82e-2cb27d9c8ae9"",""projectId"":""a9f3d40c-5730-405c-b25e-1034c4c56f3f""}","https://test12345.live/?num_scrambled_semantic=8&num_scrambled_causal=4&num_scrambled_schematic=4&participantId=059CFA9B63DD4F2A896E14D75DACB6BF&assignmentId=8e2eeacd-88ce-4cc2-b82e-2cb27d9c8ae9&projectId=a9f3d40c-5730-405c-b25e-1034c4c56f3f","059CFA9B63DD4F2A896E14D75DACB6BF-2025-08-07-19-05-36","","null","","[]","null","",""
"","","","","","html-audio-response","87","363331","0.0-13.0","059CFA9B63DD4F2A896E14D75DACB6BF","059CFA9B63DD4F2A896E14D75DACB6BF","8e2eeacd-88ce-4cc2-b82e-2cb27d9c8ae9","a9f3d40c-5730-405c-b25e-1034c4c56f3f","{""num_scrambled_semantic"":""8"",""num_scrambled_causal"":""4"",""num_scrambled_schematic"":""4"",""participantId"":""059CFA9B63DD4F2A896E14D75DACB6BF"",""assignmentId"":""8e2eeacd-88ce-4cc2-b82e-2cb27d9c8ae9"",""projectId"":""a9f3d40c-5730-405c-b25e-1034c4c56f3f""}","https://test12345.live/?num_scrambled_semantic=8&num_scrambled_causal=4&num_scrambled_schematic=4&participantId=059CFA9B63DD4F2A896E14D75DACB6BF&assignmentId=8e2eeacd-88ce-4cc2-b82e-2cb27d9c8ae9&projectId=a9f3d40c-5730-405c-b25e-1034c4c56f3f","059CFA9B63DD4F2A896E14D75DACB6BF-2025-08-07-19-05-36","","27198","","[""<span style=\""color: red; font-size: 24px\""> NOW RECORDING</span><p>Please say out loud all the images you saw, as many as you can remember. The images can be said in any order.</p>""]","","3","museum_causal"
"","","","","","image-button-response","88","369342","0.0-14.0-0.0","059CFA9B63DD4F2A896E14D75DACB6BF","059CFA9B63DD4F2A896E14D75DACB6BF","8e2eeacd-88ce-4cc2-b82e-2cb27d9c8ae9","a9f3d40c-5730-405c-b25e-1034c4c56f3f","{""num_scrambled_semantic"":""8"",""num_scrambled_causal"":""4"",""num_scrambled_schematic"":""4"",""participantId"":""059CFA9B63DD4F2A896E14D75DACB6BF"",""assignmentId"":""8e2eeacd-88ce-4cc2-b82e-2cb27d9c8ae9"",""projectId"":""a9f3d40c-5730-405c-b25e-1034c4c56f3f""}","https://test12345.live/?num_scrambled_semantic=8&num_scrambled_causal=4&num_scrambled_schematic=4&participantId=059CFA9B63DD4F2A896E14D75DACB6BF&assignmentId=8e2eeacd-88ce-4cc2-b82e-2cb27d9c8ae9&projectId=a9f3d40c-5730-405c-b25e-1034c4c56f3f","059CFA9B63DD4F2A896E14D75DACB6BF-2025-08-07-19-05-36","","null","","images/causal_sequence/coin_causal/coin_causal_0.png","null","",""
"","","","","","image-button-response","89","373844","0.0-14.0-1.0-0.0","059CFA9B63DD4F2A896E14D75DACB6BF","059CFA9B63DD4F2A896E14D75DACB6BF","8e2eeacd-88ce-4cc2-b82e-2cb27d9c8ae9","a9f3d40c-5730-405c-b25e-1034c4c56f3f","{""num_scrambled_semantic"":""8"",""num_scrambled_causal"":""4"",""num_scrambled_schematic"":""4"",""participantId"":""059CFA9B63DD4F2A896E14D75DACB6BF"",""assignmentId"":""8e2eeacd-88ce-4cc2-b82e-2cb27d9c8ae9"",""projectId"":""a9f3d40c-5730-405c-b25e-1034c4c56f3f""}","https://test12345.live/?num_scrambled_semantic=8&num_scrambled_causal=4&num_scrambled_schematic=4&participantId=059CFA9B63DD4F2A896E14D75DACB6BF&assignmentId=8e2eeacd-88ce-4cc2-b82e-2cb27d9c8ae9&projectId=a9f3d40c-5730-405c-b25e-1034c4c56f3f","059CFA9B63DD4F2A896E14D75DACB6BF-2025-08-07-19-05-36","","null","","images/causal_sequence/coin_causal/coin_causal_8.png","null","",""
"","","","","","image-button-response","90","375570","0.0-14.0-1.0-1.0","059CFA9B63DD4F2A896E14D75DACB6BF","059CFA9B63DD4F2A896E14D75DACB6BF","8e2eeacd-88ce-4cc2-b82e-2cb27d9c8ae9","a9f3d40c-5730-405c-b25e-1034c4c56f3f","{""num_scrambled_semantic"":""8"",""num_scrambled_causal"":""4"",""num_scrambled_schematic"":""4"",""participantId"":""059CFA9B63DD4F2A896E14D75DACB6BF"",""assignmentId"":""8e2eeacd-88ce-4cc2-b82e-2cb27d9c8ae9"",""projectId"":""a9f3d40c-5730-405c-b25e-1034c4c56f3f""}","https://test12345.live/?num_scrambled_semantic=8&num_scrambled_causal=4&num_scrambled_schematic=4&participantId=059CFA9B63DD4F2A896E14D75DACB6BF&assignmentId=8e2eeacd-88ce-4cc2-b82e-2cb27d9c8ae9&projectId=a9f3d40c-5730-405c-b25e-1034c4c56f3f","059CFA9B63DD4F2A896E14D75DACB6BF-2025-08-07-19-05-36","","1724","","images/causal_sequence/coin_causal/coin_causal_8.png","0","",""
"","","","","","image-button-response","91","377372","0.0-14.0-1.0-2.0","059CFA9B63DD4F2A896E14D75DACB6BF","059CFA9B63DD4F2A896E14D75DACB6BF","8e2eeacd-88ce-4cc2-b82e-2cb27d9c8ae9","a9f3d40c-5730-405c-b25e-1034c4c56f3f","{""num_scrambled_semantic"":""8"",""num_scrambled_causal"":""4"",""num_scrambled_schematic"":""4"",""participantId"":""059CFA9B63DD4F2A896E14D75DACB6BF"",""assignmentId"":""8e2eeacd-88ce-4cc2-b82e-2cb27d9c8ae9"",""projectId"":""a9f3d40c-5730-405c-b25e-1034c4c56f3f""}","https://test12345.live/?num_scrambled_semantic=8&num_scrambled_causal=4&num_scrambled_schematic=4&participantId=059CFA9B63DD4F2A896E14D75DACB6BF&assignmentId=8e2eeacd-88ce-4cc2-b82e-2cb27d9c8ae9&projectId=a9f3d40c-5730-405c-b25e-1034c4c56f3f","059CFA9B63DD4F2A896E14D75DACB6BF-2025-08-07-19-05-36","","null","","[]","null","",""
"","","","","","image-button-response","92","381875","0.0-14.0-1.0-0.1","059CFA9B63DD4F2A896E14D75DACB6BF","059CFA9B63DD4F2A896E14D75DACB6BF","8e2eeacd-88ce-4cc2-b82e-2cb27d9c8ae9","a9f3d40c-5730-405c-b25e-1034c4c56f3f","{""num_scrambled_semantic"":""8"",""num_scrambled_causal"":""4"",""num_scrambled_schematic"":""4"",""participantId"":""059CFA9B63DD4F2A896E14D75DACB6BF"",""assignmentId"":""8e2eeacd-88ce-4cc2-b82e-2cb27d9c8ae9"",""projectId"":""a9f3d40c-5730-405c-b25e-1034c4c56f3f""}","https://test12345.live/?num_scrambled_semantic=8&num_scrambled_causal=4&num_scrambled_schematic=4&participantId=059CFA9B63DD4F2A896E14D75DACB6BF&assignmentId=8e2eeacd-88ce-4cc2-b82e-2cb27d9c8ae9&projectId=a9f3d40c-5730-405c-b25e-1034c4c56f3f","059CFA9B63DD4F2A896E14D75DACB6BF-2025-08-07-19-05-36","","null","","images/causal_sequence/coin_causal/coin_causal_1.png","null","",""
"","","","","","image-button-response","93","382529","0.0-14.0-1.0-1.1","059CFA9B63DD4F2A896E14D75DACB6BF","059CFA9B63DD4F2A896E14D75DACB6BF","8e2eeacd-88ce-4cc2-b82e-2cb27d9c8ae9","a9f3d40c-5730-405c-b25e-1034c4c56f3f","{""num_scrambled_semantic"":""8"",""num_scrambled_causal"":""4"",""num_scrambled_schematic"":""4"",""participantId"":""059CFA9B63DD4F2A896E14D75DACB6BF"",""assignmentId"":""8e2eeacd-88ce-4cc2-b82e-2cb27d9c8ae9"",""projectId"":""a9f3d40c-5730-405c-b25e-1034c4c56f3f""}","https://test12345.live/?num_scrambled_semantic=8&num_scrambled_causal=4&num_scrambled_schematic=4&participantId=059CFA9B63DD4F2A896E14D75DACB6BF&assignmentId=8e2eeacd-88ce-4cc2-b82e-2cb27d9c8ae9&projectId=a9f3d40c-5730-405c-b25e-1034c4c56f3f","059CFA9B63DD4F2A896E14D75DACB6BF-2025-08-07-19-05-36","","653","","images/causal_sequence/coin_causal/coin_causal_1.png","0","",""
"","","","","","image-button-response","94","384331","0.0-14.0-1.0-2.1","059CFA9B63DD4F2A896E14D75DACB6BF","059CFA9B63DD4F2A896E14D75DACB6BF","8e2eeacd-88ce-4cc2-b82e-2cb27d9c8ae9","a9f3d40c-5730-405c-b25e-1034c4c56f3f","{""num_scrambled_semantic"":""8"",""num_scrambled_causal"":""4"",""num_scrambled_schematic"":""4"",""participantId"":""059CFA9B63DD4F2A896E14D75DACB6BF"",""assignmentId"":""8e2eeacd-88ce-4cc2-b82e-2cb27d9c8ae9"",""projectId"":""a9f3d40c-5730-405c-b25e-1034c4c56f3f""}","https://test12345.live/?num_scrambled_semantic=8&num_scrambled_causal=4&num_scrambled_schematic=4&participantId=059CFA9B63DD4F2A896E14D75DACB6BF&assignmentId=8e2eeacd-88ce-4cc2-b82e-2cb27d9c8ae9&projectId=a9f3d40c-5730-405c-b25e-1034c4c56f3f","059CFA9B63DD4F2A896E14D75DACB6BF-2025-08-07-19-05-36","","null","","[]","null","",""
"","","","","","image-button-response","95","388833","0.0-14.0-1.0-0.2","059CFA9B63DD4F2A896E14D75DACB6BF","059CFA9B63DD4F2A896E14D75DACB6BF","8e2eeacd-88ce-4cc2-b82e-2cb27d9c8ae9","a9f3d40c-5730-405c-b25e-1034c4c56f3f","{""num_scrambled_semantic"":""8"",""num_scrambled_causal"":""4"",""num_scrambled_schematic"":""4"",""participantId"":""059CFA9B63DD4F2A896E14D75DACB6BF"",""assignmentId"":""8e2eeacd-88ce-4cc2-b82e-2cb27d9c8ae9"",""projectId"":""a9f3d40c-5730-405c-b25e-1034c4c56f3f""}","https://test12345.live/?num_scrambled_semantic=8&num_scrambled_causal=4&num_scrambled_schematic=4&participantId=059CFA9B63DD4F2A896E14D75DACB6BF&assignmentId=8e2eeacd-88ce-4cc2-b82e-2cb27d9c8ae9&projectId=a9f3d40c-5730-405c-b25e-1034c4c56f3f","059CFA9B63DD4F2A896E14D75DACB6BF-2025-08-07-19-05-36","","null","","images/causal_sequence/coin_causal/coin_causal_6.png","null","",""
"","","","","","image-button-response","96","389489","0.0-14.0-1.0-1.2","059CFA9B63DD4F2A896E14D75DACB6BF","059CFA9B63DD4F2A896E14D75DACB6BF","8e2eeacd-88ce-4cc2-b82e-2cb27d9c8ae9","a9f3d40c-5730-405c-b25e-1034c4c56f3f","{""num_scrambled_semantic"":""8"",""num_scrambled_causal"":""4"",""num_scrambled_schematic"":""4"",""participantId"":""059CFA9B63DD4F2A896E14D75DACB6BF"",""assignmentId"":""8e2eeacd-88ce-4cc2-b82e-2cb27d9c8ae9"",""projectId"":""a9f3d40c-5730-405c-b25e-1034c4c56f3f""}","https://test12345.live/?num_scrambled_semantic=8&num_scrambled_causal=4&num_scrambled_schematic=4&participantId=059CFA9B63DD4F2A896E14D75DACB6BF&assignmentId=8e2eeacd-88ce-4cc2-b82e-2cb27d9c8ae9&projectId=a9f3d40c-5730-405c-b25e-1034c4c56f3f","059CFA9B63DD4F2A896E14D75DACB6BF-2025-08-07-19-05-36","","654","","images/causal_sequence/coin_causal/coin_causal_6.png","0","",""
"","","","","","image-button-response","97","391292","0.0-14.0-1.0-2.2","059CFA9B63DD4F2A896E14D75DACB6BF","059CFA9B63DD4F2A896E14D75DACB6BF","8e2eeacd-88ce-4cc2-b82e-2cb27d9c8ae9","a9f3d40c-5730-405c-b25e-1034c4c56f3f","{""num_scrambled_semantic"":""8"",""num_scrambled_causal"":""4"",""num_scrambled_schematic"":""4"",""participantId"":""059CFA9B63DD4F2A896E14D75DACB6BF"",""assignmentId"":""8e2eeacd-88ce-4cc2-b82e-2cb27d9c8ae9"",""projectId"":""a9f3d40c-5730-405c-b25e-1034c4c56f3f""}","https://test12345.live/?num_scrambled_semantic=8&num_scrambled_causal=4&num_scrambled_schematic=4&participantId=059CFA9B63DD4F2A896E14D75DACB6BF&assignmentId=8e2eeacd-88ce-4cc2-b82e-2cb27d9c8ae9&projectId=a9f3d40c-5730-405c-b25e-1034c4c56f3f","059CFA9B63DD4F2A896E14D75DACB6BF-2025-08-07-19-05-36","","null","","[]","null","",""
"","","","","","image-button-response","98","395794","0.0-14.0-1.0-0.3","059CFA9B63DD4F2A896E14D75DACB6BF","059CFA9B63DD4F2A896E14D75DACB6BF","8e2eeacd-88ce-4cc2-b82e-2cb27d9c8ae9","a9f3d40c-5730-405c-b25e-1034c4c56f3f","{""num_scrambled_semantic"":""8"",""num_scrambled_causal"":""4"",""num_scrambled_schematic"":""4"",""participantId"":""059CFA9B63DD4F2A896E14D75DACB6BF"",""assignmentId"":""8e2eeacd-88ce-4cc2-b82e-2cb27d9c8ae9"",""projectId"":""a9f3d40c-5730-405c-b25e-1034c4c56f3f""}","https://test12345.live/?num_scrambled_semantic=8&num_scrambled_causal=4&num_scrambled_schematic=4&participantId=059CFA9B63DD4F2A896E14D75DACB6BF&assignmentId=8e2eeacd-88ce-4cc2-b82e-2cb27d9c8ae9&projectId=a9f3d40c-5730-405c-b25e-1034c4c56f3f","059CFA9B63DD4F2A896E14D75DACB6BF-2025-08-07-19-05-36","","null","","images/causal_sequence/coin_causal/coin_causal_9.png","null","",""
"","","","","","image-button-response","99","396429","0.0-14.0-1.0-1.3","059CFA9B63DD4F2A896E14D75DACB6BF","059CFA9B63DD4F2A896E14D75DACB6BF","8e2eeacd-88ce-4cc2-b82e-2cb27d9c8ae9","a9f3d40c-5730-405c-b25e-1034c4c56f3f","{""num_scrambled_semantic"":""8"",""num_scrambled_causal"":""4"",""num_scrambled_schematic"":""4"",""participantId"":""059CFA9B63DD4F2A896E14D75DACB6BF"",""assignmentId"":""8e2eeacd-88ce-4cc2-b82e-2cb27d9c8ae9"",""projectId"":""a9f3d40c-5730-405c-b25e-1034c4c56f3f""}","https://test12345.live/?num_scrambled_semantic=8&num_scrambled_causal=4&num_scrambled_schematic=4&participantId=059CFA9B63DD4F2A896E14D75DACB6BF&assignmentId=8e2eeacd-88ce-4cc2-b82e-2cb27d9c8ae9&projectId=a9f3d40c-5730-405c-b25e-1034c4c56f3f","059CFA9B63DD4F2A896E14D75DACB6BF-2025-08-07-19-05-36","","634","","images/causal_sequence/coin_causal/coin_causal_9.png","0","",""
"","","","","","image-button-response","100","398231","0.0-14.0-1.0-2.3","059CFA9B63DD4F2A896E14D75DACB6BF","059CFA9B63DD4F2A896E14D75DACB6BF","8e2eeacd-88ce-4cc2-b82e-2cb27d9c8ae9","a9f3d40c-5730-405c-b25e-1034c4c56f3f","{""num_scrambled_semantic"":""8"",""num_scrambled_causal"":""4"",""num_scrambled_schematic"":""4"",""participantId"":""059CFA9B63DD4F2A896E14D75DACB6BF"",""assignmentId"":""8e2eeacd-88ce-4cc2-b82e-2cb27d9c8ae9"",""projectId"":""a9f3d40c-5730-405c-b25e-1034c4c56f3f""}","https://test12345.live/?num_scrambled_semantic=8&num_scrambled_causal=4&num_scrambled_schematic=4&participantId=059CFA9B63DD4F2A896E14D75DACB6BF&assignmentId=8e2eeacd-88ce-4cc2-b82e-2cb27d9c8ae9&projectId=a9f3d40c-5730-405c-b25e-1034c4c56f3f","059CFA9B63DD4F2A896E14D75DACB6BF-2025-08-07-19-05-36","","null","","[]","null","",""
"","","","","","image-button-response","101","402732","0.0-14.0-1.0-0.4","059CFA9B63DD4F2A896E14D75DACB6BF","059CFA9B63DD4F2A896E14D75DACB6BF","8e2eeacd-88ce-4cc2-b82e-2cb27d9c8ae9","a9f3d40c-5730-405c-b25e-1034c4c56f3f","{""num_scrambled_semantic"":""8"",""num_scrambled_causal"":""4"",""num_scrambled_schematic"":""4"",""participantId"":""059CFA9B63DD4F2A896E14D75DACB6BF"",""assignmentId"":""8e2eeacd-88ce-4cc2-b82e-2cb27d9c8ae9"",""projectId"":""a9f3d40c-5730-405c-b25e-1034c4c56f3f""}","https://test12345.live/?num_scrambled_semantic=8&num_scrambled_causal=4&num_scrambled_schematic=4&participantId=059CFA9B63DD4F2A896E14D75DACB6BF&assignmentId=8e2eeacd-88ce-4cc2-b82e-2cb27d9c8ae9&projectId=a9f3d40c-5730-405c-b25e-1034c4c56f3f","059CFA9B63DD4F2A896E14D75DACB6BF-2025-08-07-19-05-36","","null","","images/causal_sequence/coin_causal/coin_causal_7.png","null","",""
"","","","","","image-button-response","102","403382","0.0-14.0-1.0-1.4","059CFA9B63DD4F2A896E14D75DACB6BF","059CFA9B63DD4F2A896E14D75DACB6BF","8e2eeacd-88ce-4cc2-b82e-2cb27d9c8ae9","a9f3d40c-5730-405c-b25e-1034c4c56f3f","{""num_scrambled_semantic"":""8"",""num_scrambled_causal"":""4"",""num_scrambled_schematic"":""4"",""participantId"":""059CFA9B63DD4F2A896E14D75DACB6BF"",""assignmentId"":""8e2eeacd-88ce-4cc2-b82e-2cb27d9c8ae9"",""projectId"":""a9f3d40c-5730-405c-b25e-1034c4c56f3f""}","https://test12345.live/?num_scrambled_semantic=8&num_scrambled_causal=4&num_scrambled_schematic=4&participantId=059CFA9B63DD4F2A896E14D75DACB6BF&assignmentId=8e2eeacd-88ce-4cc2-b82e-2cb27d9c8ae9&projectId=a9f3d40c-5730-405c-b25e-1034c4c56f3f","059CFA9B63DD4F2A896E14D75DACB6BF-2025-08-07-19-05-36","","647","","images/causal_sequence/coin_causal/coin_causal_7.png","0","",""
"","","","","","image-button-response","103","405184","0.0-14.0-1.0-2.4","059CFA9B63DD4F2A896E14D75DACB6BF","059CFA9B63DD4F2A896E14D75DACB6BF","8e2eeacd-88ce-4cc2-b82e-2cb27d9c8ae9","a9f3d40c-5730-405c-b25e-1034c4c56f3f","{""num_scrambled_semantic"":""8"",""num_scrambled_causal"":""4"",""num_scrambled_schematic"":""4"",""participantId"":""059CFA9B63DD4F2A896E14D75DACB6BF"",""assignmentId"":""8e2eeacd-88ce-4cc2-b82e-2cb27d9c8ae9"",""projectId"":""a9f3d40c-5730-405c-b25e-1034c4c56f3f""}","https://test12345.live/?num_scrambled_semantic=8&num_scrambled_causal=4&num_scrambled_schematic=4&participantId=059CFA9B63DD4F2A896E14D75DACB6BF&assignmentId=8e2eeacd-88ce-4cc2-b82e-2cb27d9c8ae9&projectId=a9f3d40c-5730-405c-b25e-1034c4c56f3f","059CFA9B63DD4F2A896E14D75DACB6BF-2025-08-07-19-05-36","","null","","[]","null","",""
"","","","","","image-button-response","104","409686","0.0-14.0-1.0-0.5","059CFA9B63DD4F2A896E14D75DACB6BF","059CFA9B63DD4F2A896E14D75DACB6BF","8e2eeacd-88ce-4cc2-b82e-2cb27d9c8ae9","a9f3d40c-5730-405c-b25e-1034c4c56f3f","{""num_scrambled_semantic"":""8"",""num_scrambled_causal"":""4"",""num_scrambled_schematic"":""4"",""participantId"":""059CFA9B63DD4F2A896E14D75DACB6BF"",""assignmentId"":""8e2eeacd-88ce-4cc2-b82e-2cb27d9c8ae9"",""projectId"":""a9f3d40c-5730-405c-b25e-1034c4c56f3f""}","https://test12345.live/?num_scrambled_semantic=8&num_scrambled_causal=4&num_scrambled_schematic=4&participantId=059CFA9B63DD4F2A896E14D75DACB6BF&assignmentId=8e2eeacd-88ce-4cc2-b82e-2cb27d9c8ae9&projectId=a9f3d40c-5730-405c-b25e-1034c4c56f3f","059CFA9B63DD4F2A896E14D75DACB6BF-2025-08-07-19-05-36","","null","","images/causal_sequence/coin_causal/coin_causal_5.png","null","",""
"","","","","","image-button-response","105","410314","0.0-14.0-1.0-1.5","059CFA9B63DD4F2A896E14D75DACB6BF","059CFA9B63DD4F2A896E14D75DACB6BF","8e2eeacd-88ce-4cc2-b82e-2cb27d9c8ae9","a9f3d40c-5730-405c-b25e-1034c4c56f3f","{""num_scrambled_semantic"":""8"",""num_scrambled_causal"":""4"",""num_scrambled_schematic"":""4"",""participantId"":""059CFA9B63DD4F2A896E14D75DACB6BF"",""assignmentId"":""8e2eeacd-88ce-4cc2-b82e-2cb27d9c8ae9"",""projectId"":""a9f3d40c-5730-405c-b25e-1034c4c56f3f""}","https://test12345.live/?num_scrambled_semantic=8&num_scrambled_causal=4&num_scrambled_schematic=4&participantId=059CFA9B63DD4F2A896E14D75DACB6BF&assignmentId=8e2eeacd-88ce-4cc2-b82e-2cb27d9c8ae9&projectId=a9f3d40c-5730-405c-b25e-1034c4c56f3f","059CFA9B63DD4F2A896E14D75DACB6BF-2025-08-07-19-05-36","","626","","images/causal_sequence/coin_causal/coin_causal_5.png","0","",""
"","","","","","image-button-response","106","412116","0.0-14.0-1.0-2.5","059CFA9B63DD4F2A896E14D75DACB6BF","059CFA9B63DD4F2A896E14D75DACB6BF","8e2eeacd-88ce-4cc2-b82e-2cb27d9c8ae9","a9f3d40c-5730-405c-b25e-1034c4c56f3f","{""num_scrambled_semantic"":""8"",""num_scrambled_causal"":""4"",""num_scrambled_schematic"":""4"",""participantId"":""059CFA9B63DD4F2A896E14D75DACB6BF"",""assignmentId"":""8e2eeacd-88ce-4cc2-b82e-2cb27d9c8ae9"",""projectId"":""a9f3d40c-5730-405c-b25e-1034c4c56f3f""}","https://test12345.live/?num_scrambled_semantic=8&num_scrambled_causal=4&num_scrambled_schematic=4&participantId=059CFA9B63DD4F2A896E14D75DACB6BF&assignmentId=8e2eeacd-88ce-4cc2-b82e-2cb27d9c8ae9&projectId=a9f3d40c-5730-405c-b25e-1034c4c56f3f","059CFA9B63DD4F2A896E14D75DACB6BF-2025-08-07-19-05-36","","null","","[]","null","",""
"","","","","","image-button-response","107","416618","0.0-14.0-1.0-0.6","059CFA9B63DD4F2A896E14D75DACB6BF","059CFA9B63DD4F2A896E14D75DACB6BF","8e2eeacd-88ce-4cc2-b82e-2cb27d9c8ae9","a9f3d40c-5730-405c-b25e-1034c4c56f3f","{""num_scrambled_semantic"":""8"",""num_scrambled_causal"":""4"",""num_scrambled_schematic"":""4"",""participantId"":""059CFA9B63DD4F2A896E14D75DACB6BF"",""assignmentId"":""8e2eeacd-88ce-4cc2-b82e-2cb27d9c8ae9"",""projectId"":""a9f3d40c-5730-405c-b25e-1034c4c56f3f""}","https://test12345.live/?num_scrambled_semantic=8&num_scrambled_causal=4&num_scrambled_schematic=4&participantId=059CFA9B63DD4F2A896E14D75DACB6BF&assignmentId=8e2eeacd-88ce-4cc2-b82e-2cb27d9c8ae9&projectId=a9f3d40c-5730-405c-b25e-1034c4c56f3f","059CFA9B63DD4F2A896E14D75DACB6BF-2025-08-07-19-05-36","","null","","images/causal_sequence/coin_causal/coin_causal_4.png","null","",""
"","","","","","image-button-response","108","417229","0.0-14.0-1.0-1.6","059CFA9B63DD4F2A896E14D75DACB6BF","059CFA9B63DD4F2A896E14D75DACB6BF","8e2eeacd-88ce-4cc2-b82e-2cb27d9c8ae9","a9f3d40c-5730-405c-b25e-1034c4c56f3f","{""num_scrambled_semantic"":""8"",""num_scrambled_causal"":""4"",""num_scrambled_schematic"":""4"",""participantId"":""059CFA9B63DD4F2A896E14D75DACB6BF"",""assignmentId"":""8e2eeacd-88ce-4cc2-b82e-2cb27d9c8ae9"",""projectId"":""a9f3d40c-5730-405c-b25e-1034c4c56f3f""}","https://test12345.live/?num_scrambled_semantic=8&num_scrambled_causal=4&num_scrambled_schematic=4&participantId=059CFA9B63DD4F2A896E14D75DACB6BF&assignmentId=8e2eeacd-88ce-4cc2-b82e-2cb27d9c8ae9&projectId=a9f3d40c-5730-405c-b25e-1034c4c56f3f","059CFA9B63DD4F2A896E14D75DACB6BF-2025-08-07-19-05-36","","608","","images/causal_sequence/coin_causal/coin_causal_4.png","0","",""
"","","","","","image-button-response","109","419031","0.0-14.0-1.0-2.6","059CFA9B63DD4F2A896E14D75DACB6BF","059CFA9B63DD4F2A896E14D75DACB6BF","8e2eeacd-88ce-4cc2-b82e-2cb27d9c8ae9","a9f3d40c-5730-405c-b25e-1034c4c56f3f","{""num_scrambled_semantic"":""8"",""num_scrambled_causal"":""4"",""num_scrambled_schematic"":""4"",""participantId"":""059CFA9B63DD4F2A896E14D75DACB6BF"",""assignmentId"":""8e2eeacd-88ce-4cc2-b82e-2cb27d9c8ae9"",""projectId"":""a9f3d40c-5730-405c-b25e-1034c4c56f3f""}","https://test12345.live/?num_scrambled_semantic=8&num_scrambled_causal=4&num_scrambled_schematic=4&participantId=059CFA9B63DD4F2A896E14D75DACB6BF&assignmentId=8e2eeacd-88ce-4cc2-b82e-2cb27d9c8ae9&projectId=a9f3d40c-5730-405c-b25e-1034c4c56f3f","059CFA9B63DD4F2A896E14D75DACB6BF-2025-08-07-19-05-36","","null","","[]","null","",""
"","","","","","image-button-response","110","423534","0.0-14.0-1.0-0.7","059CFA9B63DD4F2A896E14D75DACB6BF","059CFA9B63DD4F2A896E14D75DACB6BF","8e2eeacd-88ce-4cc2-b82e-2cb27d9c8ae9","a9f3d40c-5730-405c-b25e-1034c4c56f3f","{""num_scrambled_semantic"":""8"",""num_scrambled_causal"":""4"",""num_scrambled_schematic"":""4"",""participantId"":""059CFA9B63DD4F2A896E14D75DACB6BF"",""assignmentId"":""8e2eeacd-88ce-4cc2-b82e-2cb27d9c8ae9"",""projectId"":""a9f3d40c-5730-405c-b25e-1034c4c56f3f""}","https://test12345.live/?num_scrambled_semantic=8&num_scrambled_causal=4&num_scrambled_schematic=4&participantId=059CFA9B63DD4F2A896E14D75DACB6BF&assignmentId=8e2eeacd-88ce-4cc2-b82e-2cb27d9c8ae9&projectId=a9f3d40c-5730-405c-b25e-1034c4c56f3f","059CFA9B63DD4F2A896E14D75DACB6BF-2025-08-07-19-05-36","","null","","images/causal_sequence/coin_causal/coin_causal_3.png","null","",""
"","","","","","image-button-response","111","423989","0.0-14.0-1.0-1.7","059CFA9B63DD4F2A896E14D75DACB6BF","059CFA9B63DD4F2A896E14D75DACB6BF","8e2eeacd-88ce-4cc2-b82e-2cb27d9c8ae9","a9f3d40c-5730-405c-b25e-1034c4c56f3f","{""num_scrambled_semantic"":""8"",""num_scrambled_causal"":""4"",""num_scrambled_schematic"":""4"",""participantId"":""059CFA9B63DD4F2A896E14D75DACB6BF"",""assignmentId"":""8e2eeacd-88ce-4cc2-b82e-2cb27d9c8ae9"",""projectId"":""a9f3d40c-5730-405c-b25e-1034c4c56f3f""}","https://test12345.live/?num_scrambled_semantic=8&num_scrambled_causal=4&num_scrambled_schematic=4&participantId=059CFA9B63DD4F2A896E14D75DACB6BF&assignmentId=8e2eeacd-88ce-4cc2-b82e-2cb27d9c8ae9&projectId=a9f3d40c-5730-405c-b25e-1034c4c56f3f","059CFA9B63DD4F2A896E14D75DACB6BF-2025-08-07-19-05-36","","453","","images/causal_sequence/coin_causal/coin_causal_3.png","0","",""
"","","","","","image-button-response","112","425791","0.0-14.0-1.0-2.7","059CFA9B63DD4F2A896E14D75DACB6BF","059CFA9B63DD4F2A896E14D75DACB6BF","8e2eeacd-88ce-4cc2-b82e-2cb27d9c8ae9","a9f3d40c-5730-405c-b25e-1034c4c56f3f","{""num_scrambled_semantic"":""8"",""num_scrambled_causal"":""4"",""num_scrambled_schematic"":""4"",""participantId"":""059CFA9B63DD4F2A896E14D75DACB6BF"",""assignmentId"":""8e2eeacd-88ce-4cc2-b82e-2cb27d9c8ae9"",""projectId"":""a9f3d40c-5730-405c-b25e-1034c4c56f3f""}","https://test12345.live/?num_scrambled_semantic=8&num_scrambled_causal=4&num_scrambled_schematic=4&participantId=059CFA9B63DD4F2A896E14D75DACB6BF&assignmentId=8e2eeacd-88ce-4cc2-b82e-2cb27d9c8ae9&projectId=a9f3d40c-5730-405c-b25e-1034c4c56f3f","059CFA9B63DD4F2A896E14D75DACB6BF-2025-08-07-19-05-36","","null","","[]","null","",""
"","","","","","image-button-response","113","430294","0.0-14.0-1.0-0.8","059CFA9B63DD4F2A896E14D75DACB6BF","059CFA9B63DD4F2A896E14D75DACB6BF","8e2eeacd-88ce-4cc2-b82e-2cb27d9c8ae9","a9f3d40c-5730-405c-b25e-1034c4c56f3f","{""num_scrambled_semantic"":""8"",""num_scrambled_causal"":""4"",""num_scrambled_schematic"":""4"",""participantId"":""059CFA9B63DD4F2A896E14D75DACB6BF"",""assignmentId"":""8e2eeacd-88ce-4cc2-b82e-2cb27d9c8ae9"",""projectId"":""a9f3d40c-5730-405c-b25e-1034c4c56f3f""}","https://test12345.live/?num_scrambled_semantic=8&num_scrambled_causal=4&num_scrambled_schematic=4&participantId=059CFA9B63DD4F2A896E14D75DACB6BF&assignmentId=8e2eeacd-88ce-4cc2-b82e-2cb27d9c8ae9&projectId=a9f3d40c-5730-405c-b25e-1034c4c56f3f","059CFA9B63DD4F2A896E14D75DACB6BF-2025-08-07-19-05-36","","null","","images/causal_sequence/coin_causal/coin_causal_ten.png","null","",""
"","","","","","image-button-response","114","430869","0.0-14.0-1.0-1.8","059CFA9B63DD4F2A896E14D75DACB6BF","059CFA9B63DD4F2A896E14D75DACB6BF","8e2eeacd-88ce-4cc2-b82e-2cb27d9c8ae9","a9f3d40c-5730-405c-b25e-1034c4c56f3f","{""num_scrambled_semantic"":""8"",""num_scrambled_causal"":""4"",""num_scrambled_schematic"":""4"",""participantId"":""059CFA9B63DD4F2A896E14D75DACB6BF"",""assignmentId"":""8e2eeacd-88ce-4cc2-b82e-2cb27d9c8ae9"",""projectId"":""a9f3d40c-5730-405c-b25e-1034c4c56f3f""}","https://test12345.live/?num_scrambled_semantic=8&num_scrambled_causal=4&num_scrambled_schematic=4&participantId=059CFA9B63DD4F2A896E14D75DACB6BF&assignmentId=8e2eeacd-88ce-4cc2-b82e-2cb27d9c8ae9&projectId=a9f3d40c-5730-405c-b25e-1034c4c56f3f","059CFA9B63DD4F2A896E14D75DACB6BF-2025-08-07-19-05-36","","573","","images/causal_sequence/coin_causal/coin_causal_ten.png","0","",""
"","","","","","image-button-response","115","432671","0.0-14.0-1.0-2.8","059CFA9B63DD4F2A896E14D75DACB6BF","059CFA9B63DD4F2A896E14D75DACB6BF","8e2eeacd-88ce-4cc2-b82e-2cb27d9c8ae9","a9f3d40c-5730-405c-b25e-1034c4c56f3f","{""num_scrambled_semantic"":""8"",""num_scrambled_causal"":""4"",""num_scrambled_schematic"":""4"",""participantId"":""059CFA9B63DD4F2A896E14D75DACB6BF"",""assignmentId"":""8e2eeacd-88ce-4cc2-b82e-2cb27d9c8ae9"",""projectId"":""a9f3d40c-5730-405c-b25e-1034c4c56f3f""}","https://test12345.live/?num_scrambled_semantic=8&num_scrambled_causal=4&num_scrambled_schematic=4&participantId=059CFA9B63DD4F2A896E14D75DACB6BF&assignmentId=8e2eeacd-88ce-4cc2-b82e-2cb27d9c8ae9&projectId=a9f3d40c-5730-405c-b25e-1034c4c56f3f","059CFA9B63DD4F2A896E14D75DACB6BF-2025-08-07-19-05-36","","null","","[]","null","",""
