"success","timeout","failed_images","failed_audio","failed_video","trial_type","trial_index","time_elapsed","internal_node_id","subject","subject_id","study_id","session_id","urlvar","current_url","audio_id","view_history","rt","device_id","stimulus","response","estimated_stimulus_onset","seq_name"
"true","false","[]","[]","[]","preload","0","13460","0.0-0.0","069217458ECC4F47A267B9494114F939","069217458ECC4F47A267B9494114F939","0198ee70-a724-7702-8873-99aed0aa5b10","0198ee3c-27ac-7803-a9ea-f3b4ad4ad678","{""num_scrambled_semantic"":""8"",""num_scrambled_causal"":""4"",""num_scrambled_schematic"":""4"",""participantId"":""069217458ECC4F47A267B9494114F939"",""assignmentId"":""0198ee70-a724-7702-8873-99aed0aa5b10"",""projectId"":""0198ee3c-27ac-7803-a9ea-f3b4ad4ad678""}","https://test12345.live/?num_scrambled_semantic=8&num_scrambled_causal=4&num_scrambled_schematic=4&participantId=069217458ECC4F47A267B9494114F939&assignmentId=0198ee70-a724-7702-8873-99aed0aa5b10&projectId=0198ee3c-27ac-7803-a9ea-f3b4ad4ad678","069217458ECC4F47A267B9494114F939-2025-08-28-03-00-24","","","","","","",""
"","","","","","instructions","1","107857","0.0-1.0","069217458ECC4F47A267B9494114F939","069217458ECC4F47A267B9494114F939","0198ee70-a724-7702-8873-99aed0aa5b10","0198ee3c-27ac-7803-a9ea-f3b4ad4ad678","{""num_scrambled_semantic"":""8"",""num_scrambled_causal"":""4"",""num_scrambled_schematic"":""4"",""participantId"":""069217458ECC4F47A267B9494114F939"",""assignmentId"":""0198ee70-a724-7702-8873-99aed0aa5b10"",""projectId"":""0198ee3c-27ac-7803-a9ea-f3b4ad4ad678""}","https://test12345.live/?num_scrambled_semantic=8&num_scrambled_causal=4&num_scrambled_schematic=4&participantId=069217458ECC4F47A267B9494114F939&assignmentId=0198ee70-a724-7702-8873-99aed0aa5b10&projectId=0198ee3c-27ac-7803-a9ea-f3b4ad4ad678","069217458ECC4F47A267B9494114F939-2025-08-28-03-00-24","[{""page_index"":0,""viewing_time"":94397}]","94397","","","","",""
"","","","","","instructions","2","111804","0.0-2.0","069217458ECC4F47A267B9494114F939","069217458ECC4F47A267B9494114F939","0198ee70-a724-7702-8873-99aed0aa5b10","0198ee3c-27ac-7803-a9ea-f3b4ad4ad678","{""num_scrambled_semantic"":""8"",""num_scrambled_causal"":""4"",""num_scrambled_schematic"":""4"",""participantId"":""069217458ECC4F47A267B9494114F939"",""assignmentId"":""0198ee70-a724-7702-8873-99aed0aa5b10"",""projectId"":""0198ee3c-27ac-7803-a9ea-f3b4ad4ad678""}","https://test12345.live/?num_scrambled_semantic=8&num_scrambled_causal=4&num_scrambled_schematic=4&participantId=069217458ECC4F47A267B9494114F939&assignmentId=0198ee70-a724-7702-8873-99aed0aa5b10&projectId=0198ee3c-27ac-7803-a9ea-f3b4ad4ad678","069217458ECC4F47A267B9494114F939-2025-08-28-03-00-24","[{""page_index"":0,""viewing_time"":3946}]","3946","","","","",""
"true","","","","","fullscreen","3","114524","0.0-3.0","069217458ECC4F47A267B9494114F939","069217458ECC4F47A267B9494114F939","0198ee70-a724-7702-8873-99aed0aa5b10","0198ee3c-27ac-7803-a9ea-f3b4ad4ad678","{""num_scrambled_semantic"":""8"",""num_scrambled_causal"":""4"",""num_scrambled_schematic"":""4"",""participantId"":""069217458ECC4F47A267B9494114F939"",""assignmentId"":""0198ee70-a724-7702-8873-99aed0aa5b10"",""projectId"":""0198ee3c-27ac-7803-a9ea-f3b4ad4ad678""}","https://test12345.live/?num_scrambled_semantic=8&num_scrambled_causal=4&num_scrambled_schematic=4&participantId=069217458ECC4F47A267B9494114F939&assignmentId=0198ee70-a724-7702-8873-99aed0aa5b10&projectId=0198ee3c-27ac-7803-a9ea-f3b4ad4ad678","069217458ECC4F47A267B9494114F939-2025-08-28-03-00-24","","1717","","","","",""
"","","","","","initialize-microphone","4","122375","0.0-4.0-0.0","069217458ECC4F47A267B9494114F939","069217458ECC4F47A267B9494114F939","0198ee70-a724-7702-8873-99aed0aa5b10","0198ee3c-27ac-7803-a9ea-f3b4ad4ad678","{""num_scrambled_semantic"":""8"",""num_scrambled_causal"":""4"",""num_scrambled_schematic"":""4"",""participantId"":""069217458ECC4F47A267B9494114F939"",""assignmentId"":""0198ee70-a724-7702-8873-99aed0aa5b10"",""projectId"":""0198ee3c-27ac-7803-a9ea-f3b4ad4ad678""}","https://test12345.live/?num_scrambled_semantic=8&num_scrambled_causal=4&num_scrambled_schematic=4&participantId=069217458ECC4F47A267B9494114F939&assignmentId=0198ee70-a724-7702-8873-99aed0aa5b10&projectId=0198ee3c-27ac-7803-a9ea-f3b4ad4ad678","069217458ECC4F47A267B9494114F939-2025-08-28-03-00-24","","","ca675872238668302a2eef96c24b2c90c813667c8c6400dd24a07742ca8ceb01","","","",""
"","","","","","html-audio-response","5","129138","0.0-4.0-1.0","069217458ECC4F47A267B9494114F939","069217458ECC4F47A267B9494114F939","0198ee70-a724-7702-8873-99aed0aa5b10","0198ee3c-27ac-7803-a9ea-f3b4ad4ad678","{""num_scrambled_semantic"":""8"",""num_scrambled_causal"":""4"",""num_scrambled_schematic"":""4"",""participantId"":""069217458ECC4F47A267B9494114F939"",""assignmentId"":""0198ee70-a724-7702-8873-99aed0aa5b10"",""projectId"":""0198ee3c-27ac-7803-a9ea-f3b4ad4ad678""}","https://test12345.live/?num_scrambled_semantic=8&num_scrambled_causal=4&num_scrambled_schematic=4&participantId=069217458ECC4F47A267B9494114F939&assignmentId=0198ee70-a724-7702-8873-99aed0aa5b10&projectId=0198ee3c-27ac-7803-a9ea-f3b4ad4ad678","069217458ECC4F47A267B9494114F939-2025-08-28-03-00-24","","2154","","<span style=""color: red; font-size: 24px""> NOW RECORDING</span>
        <p>Please test Microphone</p>","","1",""
"","","","","","html-button-response","6","131203","0.0-4.0-2.0","069217458ECC4F47A267B9494114F939","069217458ECC4F47A267B9494114F939","0198ee70-a724-7702-8873-99aed0aa5b10","0198ee3c-27ac-7803-a9ea-f3b4ad4ad678","{""num_scrambled_semantic"":""8"",""num_scrambled_causal"":""4"",""num_scrambled_schematic"":""4"",""participantId"":""069217458ECC4F47A267B9494114F939"",""assignmentId"":""0198ee70-a724-7702-8873-99aed0aa5b10"",""projectId"":""0198ee3c-27ac-7803-a9ea-f3b4ad4ad678""}","https://test12345.live/?num_scrambled_semantic=8&num_scrambled_causal=4&num_scrambled_schematic=4&participantId=069217458ECC4F47A267B9494114F939&assignmentId=0198ee70-a724-7702-8873-99aed0aa5b10&projectId=0198ee3c-27ac-7803-a9ea-f3b4ad4ad678","069217458ECC4F47A267B9494114F939-2025-08-28-03-00-24","","2065","","<p style=""font-size:48px; color:red;"">Is Microphone OK?</p>","1","",""
"","","","","","instructions","7","160649","0.0-5.0","069217458ECC4F47A267B9494114F939","069217458ECC4F47A267B9494114F939","0198ee70-a724-7702-8873-99aed0aa5b10","0198ee3c-27ac-7803-a9ea-f3b4ad4ad678","{""num_scrambled_semantic"":""8"",""num_scrambled_causal"":""4"",""num_scrambled_schematic"":""4"",""participantId"":""069217458ECC4F47A267B9494114F939"",""assignmentId"":""0198ee70-a724-7702-8873-99aed0aa5b10"",""projectId"":""0198ee3c-27ac-7803-a9ea-f3b4ad4ad678""}","https://test12345.live/?num_scrambled_semantic=8&num_scrambled_causal=4&num_scrambled_schematic=4&participantId=069217458ECC4F47A267B9494114F939&assignmentId=0198ee70-a724-7702-8873-99aed0aa5b10&projectId=0198ee3c-27ac-7803-a9ea-f3b4ad4ad678","069217458ECC4F47A267B9494114F939-2025-08-28-03-00-24","[{""page_index"":0,""viewing_time"":24371},{""page_index"":1,""viewing_time"":5075}]","29446","","","","",""
"","","","","","image-button-response","8","166654","0.0-6.0-0.0","069217458ECC4F47A267B9494114F939","069217458ECC4F47A267B9494114F939","0198ee70-a724-7702-8873-99aed0aa5b10","0198ee3c-27ac-7803-a9ea-f3b4ad4ad678","{""num_scrambled_semantic"":""8"",""num_scrambled_causal"":""4"",""num_scrambled_schematic"":""4"",""participantId"":""069217458ECC4F47A267B9494114F939"",""assignmentId"":""0198ee70-a724-7702-8873-99aed0aa5b10"",""projectId"":""0198ee3c-27ac-7803-a9ea-f3b4ad4ad678""}","https://test12345.live/?num_scrambled_semantic=8&num_scrambled_causal=4&num_scrambled_schematic=4&participantId=069217458ECC4F47A267B9494114F939&assignmentId=0198ee70-a724-7702-8873-99aed0aa5b10&projectId=0198ee3c-27ac-7803-a9ea-f3b4ad4ad678","069217458ECC4F47A267B9494114F939-2025-08-28-03-00-24","","null","","images/instructions/movie_0.png","null","",""
"","","","","","image-button-response","9","171155","0.0-6.0-1.0-0.0","069217458ECC4F47A267B9494114F939","069217458ECC4F47A267B9494114F939","0198ee70-a724-7702-8873-99aed0aa5b10","0198ee3c-27ac-7803-a9ea-f3b4ad4ad678","{""num_scrambled_semantic"":""8"",""num_scrambled_causal"":""4"",""num_scrambled_schematic"":""4"",""participantId"":""069217458ECC4F47A267B9494114F939"",""assignmentId"":""0198ee70-a724-7702-8873-99aed0aa5b10"",""projectId"":""0198ee3c-27ac-7803-a9ea-f3b4ad4ad678""}","https://test12345.live/?num_scrambled_semantic=8&num_scrambled_causal=4&num_scrambled_schematic=4&participantId=069217458ECC4F47A267B9494114F939&assignmentId=0198ee70-a724-7702-8873-99aed0aa5b10&projectId=0198ee3c-27ac-7803-a9ea-f3b4ad4ad678","069217458ECC4F47A267B9494114F939-2025-08-28-03-00-24","","null","","images/instructions/movie_1.png","null","",""
"","","","","","image-button-response","10","174316","0.0-6.0-1.0-1.0","069217458ECC4F47A267B9494114F939","069217458ECC4F47A267B9494114F939","0198ee70-a724-7702-8873-99aed0aa5b10","0198ee3c-27ac-7803-a9ea-f3b4ad4ad678","{""num_scrambled_semantic"":""8"",""num_scrambled_causal"":""4"",""num_scrambled_schematic"":""4"",""participantId"":""069217458ECC4F47A267B9494114F939"",""assignmentId"":""0198ee70-a724-7702-8873-99aed0aa5b10"",""projectId"":""0198ee3c-27ac-7803-a9ea-f3b4ad4ad678""}","https://test12345.live/?num_scrambled_semantic=8&num_scrambled_causal=4&num_scrambled_schematic=4&participantId=069217458ECC4F47A267B9494114F939&assignmentId=0198ee70-a724-7702-8873-99aed0aa5b10&projectId=0198ee3c-27ac-7803-a9ea-f3b4ad4ad678","069217458ECC4F47A267B9494114F939-2025-08-28-03-00-24","","3160","","images/instructions/movie_1.png","0","",""
"","","","","","image-button-response","11","176118","0.0-6.0-1.0-2.0","069217458ECC4F47A267B9494114F939","069217458ECC4F47A267B9494114F939","0198ee70-a724-7702-8873-99aed0aa5b10","0198ee3c-27ac-7803-a9ea-f3b4ad4ad678","{""num_scrambled_semantic"":""8"",""num_scrambled_causal"":""4"",""num_scrambled_schematic"":""4"",""participantId"":""069217458ECC4F47A267B9494114F939"",""assignmentId"":""0198ee70-a724-7702-8873-99aed0aa5b10"",""projectId"":""0198ee3c-27ac-7803-a9ea-f3b4ad4ad678""}","https://test12345.live/?num_scrambled_semantic=8&num_scrambled_causal=4&num_scrambled_schematic=4&participantId=069217458ECC4F47A267B9494114F939&assignmentId=0198ee70-a724-7702-8873-99aed0aa5b10&projectId=0198ee3c-27ac-7803-a9ea-f3b4ad4ad678","069217458ECC4F47A267B9494114F939-2025-08-28-03-00-24","","null","","[]","null","",""
"","","","","","image-button-response","12","180621","0.0-6.0-1.0-0.1","069217458ECC4F47A267B9494114F939","069217458ECC4F47A267B9494114F939","0198ee70-a724-7702-8873-99aed0aa5b10","0198ee3c-27ac-7803-a9ea-f3b4ad4ad678","{""num_scrambled_semantic"":""8"",""num_scrambled_causal"":""4"",""num_scrambled_schematic"":""4"",""participantId"":""069217458ECC4F47A267B9494114F939"",""assignmentId"":""0198ee70-a724-7702-8873-99aed0aa5b10"",""projectId"":""0198ee3c-27ac-7803-a9ea-f3b4ad4ad678""}","https://test12345.live/?num_scrambled_semantic=8&num_scrambled_causal=4&num_scrambled_schematic=4&participantId=069217458ECC4F47A267B9494114F939&assignmentId=0198ee70-a724-7702-8873-99aed0aa5b10&projectId=0198ee3c-27ac-7803-a9ea-f3b4ad4ad678","069217458ECC4F47A267B9494114F939-2025-08-28-03-00-24","","null","","images/instructions/movie_2.png","null","",""
"","","","","","image-button-response","13","182009","0.0-6.0-1.0-1.1","069217458ECC4F47A267B9494114F939","069217458ECC4F47A267B9494114F939","0198ee70-a724-7702-8873-99aed0aa5b10","0198ee3c-27ac-7803-a9ea-f3b4ad4ad678","{""num_scrambled_semantic"":""8"",""num_scrambled_causal"":""4"",""num_scrambled_schematic"":""4"",""participantId"":""069217458ECC4F47A267B9494114F939"",""assignmentId"":""0198ee70-a724-7702-8873-99aed0aa5b10"",""projectId"":""0198ee3c-27ac-7803-a9ea-f3b4ad4ad678""}","https://test12345.live/?num_scrambled_semantic=8&num_scrambled_causal=4&num_scrambled_schematic=4&participantId=069217458ECC4F47A267B9494114F939&assignmentId=0198ee70-a724-7702-8873-99aed0aa5b10&projectId=0198ee3c-27ac-7803-a9ea-f3b4ad4ad678","069217458ECC4F47A267B9494114F939-2025-08-28-03-00-24","","1387","","images/instructions/movie_2.png","0","",""
"","","","","","image-button-response","14","183816","0.0-6.0-1.0-2.1","069217458ECC4F47A267B9494114F939","069217458ECC4F47A267B9494114F939","0198ee70-a724-7702-8873-99aed0aa5b10","0198ee3c-27ac-7803-a9ea-f3b4ad4ad678","{""num_scrambled_semantic"":""8"",""num_scrambled_causal"":""4"",""num_scrambled_schematic"":""4"",""participantId"":""069217458ECC4F47A267B9494114F939"",""assignmentId"":""0198ee70-a724-7702-8873-99aed0aa5b10"",""projectId"":""0198ee3c-27ac-7803-a9ea-f3b4ad4ad678""}","https://test12345.live/?num_scrambled_semantic=8&num_scrambled_causal=4&num_scrambled_schematic=4&participantId=069217458ECC4F47A267B9494114F939&assignmentId=0198ee70-a724-7702-8873-99aed0aa5b10&projectId=0198ee3c-27ac-7803-a9ea-f3b4ad4ad678","069217458ECC4F47A267B9494114F939-2025-08-28-03-00-24","","null","","[]","null","",""
"","","","","","image-button-response","15","188322","0.0-6.0-1.0-0.2","069217458ECC4F47A267B9494114F939","069217458ECC4F47A267B9494114F939","0198ee70-a724-7702-8873-99aed0aa5b10","0198ee3c-27ac-7803-a9ea-f3b4ad4ad678","{""num_scrambled_semantic"":""8"",""num_scrambled_causal"":""4"",""num_scrambled_schematic"":""4"",""participantId"":""069217458ECC4F47A267B9494114F939"",""assignmentId"":""0198ee70-a724-7702-8873-99aed0aa5b10"",""projectId"":""0198ee3c-27ac-7803-a9ea-f3b4ad4ad678""}","https://test12345.live/?num_scrambled_semantic=8&num_scrambled_causal=4&num_scrambled_schematic=4&participantId=069217458ECC4F47A267B9494114F939&assignmentId=0198ee70-a724-7702-8873-99aed0aa5b10&projectId=0198ee3c-27ac-7803-a9ea-f3b4ad4ad678","069217458ECC4F47A267B9494114F939-2025-08-28-03-00-24","","null","","images/instructions/movie_3.png","null","",""
"","","","","","image-button-response","16","189551","0.0-6.0-1.0-1.2","069217458ECC4F47A267B9494114F939","069217458ECC4F47A267B9494114F939","0198ee70-a724-7702-8873-99aed0aa5b10","0198ee3c-27ac-7803-a9ea-f3b4ad4ad678","{""num_scrambled_semantic"":""8"",""num_scrambled_causal"":""4"",""num_scrambled_schematic"":""4"",""participantId"":""069217458ECC4F47A267B9494114F939"",""assignmentId"":""0198ee70-a724-7702-8873-99aed0aa5b10"",""projectId"":""0198ee3c-27ac-7803-a9ea-f3b4ad4ad678""}","https://test12345.live/?num_scrambled_semantic=8&num_scrambled_causal=4&num_scrambled_schematic=4&participantId=069217458ECC4F47A267B9494114F939&assignmentId=0198ee70-a724-7702-8873-99aed0aa5b10&projectId=0198ee3c-27ac-7803-a9ea-f3b4ad4ad678","069217458ECC4F47A267B9494114F939-2025-08-28-03-00-24","","1229","","images/instructions/movie_3.png","0","",""
"","","","","","image-button-response","17","191356","0.0-6.0-1.0-2.2","069217458ECC4F47A267B9494114F939","069217458ECC4F47A267B9494114F939","0198ee70-a724-7702-8873-99aed0aa5b10","0198ee3c-27ac-7803-a9ea-f3b4ad4ad678","{""num_scrambled_semantic"":""8"",""num_scrambled_causal"":""4"",""num_scrambled_schematic"":""4"",""participantId"":""069217458ECC4F47A267B9494114F939"",""assignmentId"":""0198ee70-a724-7702-8873-99aed0aa5b10"",""projectId"":""0198ee3c-27ac-7803-a9ea-f3b4ad4ad678""}","https://test12345.live/?num_scrambled_semantic=8&num_scrambled_causal=4&num_scrambled_schematic=4&participantId=069217458ECC4F47A267B9494114F939&assignmentId=0198ee70-a724-7702-8873-99aed0aa5b10&projectId=0198ee3c-27ac-7803-a9ea-f3b4ad4ad678","069217458ECC4F47A267B9494114F939-2025-08-28-03-00-24","","null","","[]","null","",""
"","","","","","image-button-response","18","195858","0.0-6.0-1.0-0.3","069217458ECC4F47A267B9494114F939","069217458ECC4F47A267B9494114F939","0198ee70-a724-7702-8873-99aed0aa5b10","0198ee3c-27ac-7803-a9ea-f3b4ad4ad678","{""num_scrambled_semantic"":""8"",""num_scrambled_causal"":""4"",""num_scrambled_schematic"":""4"",""participantId"":""069217458ECC4F47A267B9494114F939"",""assignmentId"":""0198ee70-a724-7702-8873-99aed0aa5b10"",""projectId"":""0198ee3c-27ac-7803-a9ea-f3b4ad4ad678""}","https://test12345.live/?num_scrambled_semantic=8&num_scrambled_causal=4&num_scrambled_schematic=4&participantId=069217458ECC4F47A267B9494114F939&assignmentId=0198ee70-a724-7702-8873-99aed0aa5b10&projectId=0198ee3c-27ac-7803-a9ea-f3b4ad4ad678","069217458ECC4F47A267B9494114F939-2025-08-28-03-00-24","","null","","images/instructions/movie_4.png","null","",""
"","","","","","image-button-response","19","196637","0.0-6.0-1.0-1.3","069217458ECC4F47A267B9494114F939","069217458ECC4F47A267B9494114F939","0198ee70-a724-7702-8873-99aed0aa5b10","0198ee3c-27ac-7803-a9ea-f3b4ad4ad678","{""num_scrambled_semantic"":""8"",""num_scrambled_causal"":""4"",""num_scrambled_schematic"":""4"",""participantId"":""069217458ECC4F47A267B9494114F939"",""assignmentId"":""0198ee70-a724-7702-8873-99aed0aa5b10"",""projectId"":""0198ee3c-27ac-7803-a9ea-f3b4ad4ad678""}","https://test12345.live/?num_scrambled_semantic=8&num_scrambled_causal=4&num_scrambled_schematic=4&participantId=069217458ECC4F47A267B9494114F939&assignmentId=0198ee70-a724-7702-8873-99aed0aa5b10&projectId=0198ee3c-27ac-7803-a9ea-f3b4ad4ad678","069217458ECC4F47A267B9494114F939-2025-08-28-03-00-24","","778","","images/instructions/movie_4.png","0","",""
"","","","","","image-button-response","20","198442","0.0-6.0-1.0-2.3","069217458ECC4F47A267B9494114F939","069217458ECC4F47A267B9494114F939","0198ee70-a724-7702-8873-99aed0aa5b10","0198ee3c-27ac-7803-a9ea-f3b4ad4ad678","{""num_scrambled_semantic"":""8"",""num_scrambled_causal"":""4"",""num_scrambled_schematic"":""4"",""participantId"":""069217458ECC4F47A267B9494114F939"",""assignmentId"":""0198ee70-a724-7702-8873-99aed0aa5b10"",""projectId"":""0198ee3c-27ac-7803-a9ea-f3b4ad4ad678""}","https://test12345.live/?num_scrambled_semantic=8&num_scrambled_causal=4&num_scrambled_schematic=4&participantId=069217458ECC4F47A267B9494114F939&assignmentId=0198ee70-a724-7702-8873-99aed0aa5b10&projectId=0198ee3c-27ac-7803-a9ea-f3b4ad4ad678","069217458ECC4F47A267B9494114F939-2025-08-28-03-00-24","","null","","[]","null","",""
"","","","","","instructions","21","223579","0.0-7.0","069217458ECC4F47A267B9494114F939","069217458ECC4F47A267B9494114F939","0198ee70-a724-7702-8873-99aed0aa5b10","0198ee3c-27ac-7803-a9ea-f3b4ad4ad678","{""num_scrambled_semantic"":""8"",""num_scrambled_causal"":""4"",""num_scrambled_schematic"":""4"",""participantId"":""069217458ECC4F47A267B9494114F939"",""assignmentId"":""0198ee70-a724-7702-8873-99aed0aa5b10"",""projectId"":""0198ee3c-27ac-7803-a9ea-f3b4ad4ad678""}","https://test12345.live/?num_scrambled_semantic=8&num_scrambled_causal=4&num_scrambled_schematic=4&participantId=069217458ECC4F47A267B9494114F939&assignmentId=0198ee70-a724-7702-8873-99aed0aa5b10&projectId=0198ee3c-27ac-7803-a9ea-f3b4ad4ad678","069217458ECC4F47A267B9494114F939-2025-08-28-03-00-24","[{""page_index"":0,""viewing_time"":25137}]","25137","","","","",""
"","","","","","html-audio-response","22","271958","0.0-8.0","069217458ECC4F47A267B9494114F939","069217458ECC4F47A267B9494114F939","0198ee70-a724-7702-8873-99aed0aa5b10","0198ee3c-27ac-7803-a9ea-f3b4ad4ad678","{""num_scrambled_semantic"":""8"",""num_scrambled_causal"":""4"",""num_scrambled_schematic"":""4"",""participantId"":""069217458ECC4F47A267B9494114F939"",""assignmentId"":""0198ee70-a724-7702-8873-99aed0aa5b10"",""projectId"":""0198ee3c-27ac-7803-a9ea-f3b4ad4ad678""}","https://test12345.live/?num_scrambled_semantic=8&num_scrambled_causal=4&num_scrambled_schematic=4&participantId=069217458ECC4F47A267B9494114F939&assignmentId=0198ee70-a724-7702-8873-99aed0aa5b10&projectId=0198ee3c-27ac-7803-a9ea-f3b4ad4ad678","069217458ECC4F47A267B9494114F939-2025-08-28-03-00-24","","21719","","[""<span style=\""color: red; font-size: 24px\""> NOW RECORDING</span><p>Please say out loud all the images you saw, in the order of the story they create. Try to recall the sequence of events as they appeared in the story, not necessarily the order they were presented on the screen.</p>""]","","6",""
"","","","","","instructions","23","272927","0.0-9.0","069217458ECC4F47A267B9494114F939","069217458ECC4F47A267B9494114F939","0198ee70-a724-7702-8873-99aed0aa5b10","0198ee3c-27ac-7803-a9ea-f3b4ad4ad678","{""num_scrambled_semantic"":""8"",""num_scrambled_causal"":""4"",""num_scrambled_schematic"":""4"",""participantId"":""069217458ECC4F47A267B9494114F939"",""assignmentId"":""0198ee70-a724-7702-8873-99aed0aa5b10"",""projectId"":""0198ee3c-27ac-7803-a9ea-f3b4ad4ad678""}","https://test12345.live/?num_scrambled_semantic=8&num_scrambled_causal=4&num_scrambled_schematic=4&participantId=069217458ECC4F47A267B9494114F939&assignmentId=0198ee70-a724-7702-8873-99aed0aa5b10&projectId=0198ee3c-27ac-7803-a9ea-f3b4ad4ad678","069217458ECC4F47A267B9494114F939-2025-08-28-03-00-24","[{""page_index"":0,""viewing_time"":965}]","965","","","","",""
"","","","","","image-button-response","24","278931","0.0-10.0-0.0","069217458ECC4F47A267B9494114F939","069217458ECC4F47A267B9494114F939","0198ee70-a724-7702-8873-99aed0aa5b10","0198ee3c-27ac-7803-a9ea-f3b4ad4ad678","{""num_scrambled_semantic"":""8"",""num_scrambled_causal"":""4"",""num_scrambled_schematic"":""4"",""participantId"":""069217458ECC4F47A267B9494114F939"",""assignmentId"":""0198ee70-a724-7702-8873-99aed0aa5b10"",""projectId"":""0198ee3c-27ac-7803-a9ea-f3b4ad4ad678""}","https://test12345.live/?num_scrambled_semantic=8&num_scrambled_causal=4&num_scrambled_schematic=4&participantId=069217458ECC4F47A267B9494114F939&assignmentId=0198ee70-a724-7702-8873-99aed0aa5b10&projectId=0198ee3c-27ac-7803-a9ea-f3b4ad4ad678","069217458ECC4F47A267B9494114F939-2025-08-28-03-00-24","","null","","images/semantic_sequence/market_semantic/market_semantic_0.png","null","",""
"","","","","","image-button-response","25","283436","0.0-10.0-1.0-0.0","069217458ECC4F47A267B9494114F939","069217458ECC4F47A267B9494114F939","0198ee70-a724-7702-8873-99aed0aa5b10","0198ee3c-27ac-7803-a9ea-f3b4ad4ad678","{""num_scrambled_semantic"":""8"",""num_scrambled_causal"":""4"",""num_scrambled_schematic"":""4"",""participantId"":""069217458ECC4F47A267B9494114F939"",""assignmentId"":""0198ee70-a724-7702-8873-99aed0aa5b10"",""projectId"":""0198ee3c-27ac-7803-a9ea-f3b4ad4ad678""}","https://test12345.live/?num_scrambled_semantic=8&num_scrambled_causal=4&num_scrambled_schematic=4&participantId=069217458ECC4F47A267B9494114F939&assignmentId=0198ee70-a724-7702-8873-99aed0aa5b10&projectId=0198ee3c-27ac-7803-a9ea-f3b4ad4ad678","069217458ECC4F47A267B9494114F939-2025-08-28-03-00-24","","null","","images/semantic_sequence/market_semantic/market_semantic_1.png","null","",""
"","","","","","image-button-response","26","285057","0.0-10.0-1.0-1.0","069217458ECC4F47A267B9494114F939","069217458ECC4F47A267B9494114F939","0198ee70-a724-7702-8873-99aed0aa5b10","0198ee3c-27ac-7803-a9ea-f3b4ad4ad678","{""num_scrambled_semantic"":""8"",""num_scrambled_causal"":""4"",""num_scrambled_schematic"":""4"",""participantId"":""069217458ECC4F47A267B9494114F939"",""assignmentId"":""0198ee70-a724-7702-8873-99aed0aa5b10"",""projectId"":""0198ee3c-27ac-7803-a9ea-f3b4ad4ad678""}","https://test12345.live/?num_scrambled_semantic=8&num_scrambled_causal=4&num_scrambled_schematic=4&participantId=069217458ECC4F47A267B9494114F939&assignmentId=0198ee70-a724-7702-8873-99aed0aa5b10&projectId=0198ee3c-27ac-7803-a9ea-f3b4ad4ad678","069217458ECC4F47A267B9494114F939-2025-08-28-03-00-24","","1620","","images/semantic_sequence/market_semantic/market_semantic_1.png","1","",""
"","","","","","image-button-response","27","286860","0.0-10.0-1.0-2.0","069217458ECC4F47A267B9494114F939","069217458ECC4F47A267B9494114F939","0198ee70-a724-7702-8873-99aed0aa5b10","0198ee3c-27ac-7803-a9ea-f3b4ad4ad678","{""num_scrambled_semantic"":""8"",""num_scrambled_causal"":""4"",""num_scrambled_schematic"":""4"",""participantId"":""069217458ECC4F47A267B9494114F939"",""assignmentId"":""0198ee70-a724-7702-8873-99aed0aa5b10"",""projectId"":""0198ee3c-27ac-7803-a9ea-f3b4ad4ad678""}","https://test12345.live/?num_scrambled_semantic=8&num_scrambled_causal=4&num_scrambled_schematic=4&participantId=069217458ECC4F47A267B9494114F939&assignmentId=0198ee70-a724-7702-8873-99aed0aa5b10&projectId=0198ee3c-27ac-7803-a9ea-f3b4ad4ad678","069217458ECC4F47A267B9494114F939-2025-08-28-03-00-24","","null","","[]","null","",""
"","","","","","image-button-response","28","291366","0.0-10.0-1.0-0.1","069217458ECC4F47A267B9494114F939","069217458ECC4F47A267B9494114F939","0198ee70-a724-7702-8873-99aed0aa5b10","0198ee3c-27ac-7803-a9ea-f3b4ad4ad678","{""num_scrambled_semantic"":""8"",""num_scrambled_causal"":""4"",""num_scrambled_schematic"":""4"",""participantId"":""069217458ECC4F47A267B9494114F939"",""assignmentId"":""0198ee70-a724-7702-8873-99aed0aa5b10"",""projectId"":""0198ee3c-27ac-7803-a9ea-f3b4ad4ad678""}","https://test12345.live/?num_scrambled_semantic=8&num_scrambled_causal=4&num_scrambled_schematic=4&participantId=069217458ECC4F47A267B9494114F939&assignmentId=0198ee70-a724-7702-8873-99aed0aa5b10&projectId=0198ee3c-27ac-7803-a9ea-f3b4ad4ad678","069217458ECC4F47A267B9494114F939-2025-08-28-03-00-24","","null","","images/semantic_sequence/market_semantic/market_semantic_2.png","null","",""
"","","","","","image-button-response","29","292595","0.0-10.0-1.0-1.1","069217458ECC4F47A267B9494114F939","069217458ECC4F47A267B9494114F939","0198ee70-a724-7702-8873-99aed0aa5b10","0198ee3c-27ac-7803-a9ea-f3b4ad4ad678","{""num_scrambled_semantic"":""8"",""num_scrambled_causal"":""4"",""num_scrambled_schematic"":""4"",""participantId"":""069217458ECC4F47A267B9494114F939"",""assignmentId"":""0198ee70-a724-7702-8873-99aed0aa5b10"",""projectId"":""0198ee3c-27ac-7803-a9ea-f3b4ad4ad678""}","https://test12345.live/?num_scrambled_semantic=8&num_scrambled_causal=4&num_scrambled_schematic=4&participantId=069217458ECC4F47A267B9494114F939&assignmentId=0198ee70-a724-7702-8873-99aed0aa5b10&projectId=0198ee3c-27ac-7803-a9ea-f3b4ad4ad678","069217458ECC4F47A267B9494114F939-2025-08-28-03-00-24","","1229","","images/semantic_sequence/market_semantic/market_semantic_2.png","1","",""
"","","","","","image-button-response","30","294396","0.0-10.0-1.0-2.1","069217458ECC4F47A267B9494114F939","069217458ECC4F47A267B9494114F939","0198ee70-a724-7702-8873-99aed0aa5b10","0198ee3c-27ac-7803-a9ea-f3b4ad4ad678","{""num_scrambled_semantic"":""8"",""num_scrambled_causal"":""4"",""num_scrambled_schematic"":""4"",""participantId"":""069217458ECC4F47A267B9494114F939"",""assignmentId"":""0198ee70-a724-7702-8873-99aed0aa5b10"",""projectId"":""0198ee3c-27ac-7803-a9ea-f3b4ad4ad678""}","https://test12345.live/?num_scrambled_semantic=8&num_scrambled_causal=4&num_scrambled_schematic=4&participantId=069217458ECC4F47A267B9494114F939&assignmentId=0198ee70-a724-7702-8873-99aed0aa5b10&projectId=0198ee3c-27ac-7803-a9ea-f3b4ad4ad678","069217458ECC4F47A267B9494114F939-2025-08-28-03-00-24","","null","","[]","null","",""
"","","","","","image-button-response","31","298897","0.0-10.0-1.0-0.2","069217458ECC4F47A267B9494114F939","069217458ECC4F47A267B9494114F939","0198ee70-a724-7702-8873-99aed0aa5b10","0198ee3c-27ac-7803-a9ea-f3b4ad4ad678","{""num_scrambled_semantic"":""8"",""num_scrambled_causal"":""4"",""num_scrambled_schematic"":""4"",""participantId"":""069217458ECC4F47A267B9494114F939"",""assignmentId"":""0198ee70-a724-7702-8873-99aed0aa5b10"",""projectId"":""0198ee3c-27ac-7803-a9ea-f3b4ad4ad678""}","https://test12345.live/?num_scrambled_semantic=8&num_scrambled_causal=4&num_scrambled_schematic=4&participantId=069217458ECC4F47A267B9494114F939&assignmentId=0198ee70-a724-7702-8873-99aed0aa5b10&projectId=0198ee3c-27ac-7803-a9ea-f3b4ad4ad678","069217458ECC4F47A267B9494114F939-2025-08-28-03-00-24","","null","","images/semantic_sequence/market_semantic/market_semantic_3.png","null","",""
"","","","","","image-button-response","32","300151","0.0-10.0-1.0-1.2","069217458ECC4F47A267B9494114F939","069217458ECC4F47A267B9494114F939","0198ee70-a724-7702-8873-99aed0aa5b10","0198ee3c-27ac-7803-a9ea-f3b4ad4ad678","{""num_scrambled_semantic"":""8"",""num_scrambled_causal"":""4"",""num_scrambled_schematic"":""4"",""participantId"":""069217458ECC4F47A267B9494114F939"",""assignmentId"":""0198ee70-a724-7702-8873-99aed0aa5b10"",""projectId"":""0198ee3c-27ac-7803-a9ea-f3b4ad4ad678""}","https://test12345.live/?num_scrambled_semantic=8&num_scrambled_causal=4&num_scrambled_schematic=4&participantId=069217458ECC4F47A267B9494114F939&assignmentId=0198ee70-a724-7702-8873-99aed0aa5b10&projectId=0198ee3c-27ac-7803-a9ea-f3b4ad4ad678","069217458ECC4F47A267B9494114F939-2025-08-28-03-00-24","","1253","","images/semantic_sequence/market_semantic/market_semantic_3.png","1","",""
"","","","","","image-button-response","33","301953","0.0-10.0-1.0-2.2","069217458ECC4F47A267B9494114F939","069217458ECC4F47A267B9494114F939","0198ee70-a724-7702-8873-99aed0aa5b10","0198ee3c-27ac-7803-a9ea-f3b4ad4ad678","{""num_scrambled_semantic"":""8"",""num_scrambled_causal"":""4"",""num_scrambled_schematic"":""4"",""participantId"":""069217458ECC4F47A267B9494114F939"",""assignmentId"":""0198ee70-a724-7702-8873-99aed0aa5b10"",""projectId"":""0198ee3c-27ac-7803-a9ea-f3b4ad4ad678""}","https://test12345.live/?num_scrambled_semantic=8&num_scrambled_causal=4&num_scrambled_schematic=4&participantId=069217458ECC4F47A267B9494114F939&assignmentId=0198ee70-a724-7702-8873-99aed0aa5b10&projectId=0198ee3c-27ac-7803-a9ea-f3b4ad4ad678","069217458ECC4F47A267B9494114F939-2025-08-28-03-00-24","","null","","[]","null","",""
"","","","","","image-button-response","34","306454","0.0-10.0-1.0-0.3","069217458ECC4F47A267B9494114F939","069217458ECC4F47A267B9494114F939","0198ee70-a724-7702-8873-99aed0aa5b10","0198ee3c-27ac-7803-a9ea-f3b4ad4ad678","{""num_scrambled_semantic"":""8"",""num_scrambled_causal"":""4"",""num_scrambled_schematic"":""4"",""participantId"":""069217458ECC4F47A267B9494114F939"",""assignmentId"":""0198ee70-a724-7702-8873-99aed0aa5b10"",""projectId"":""0198ee3c-27ac-7803-a9ea-f3b4ad4ad678""}","https://test12345.live/?num_scrambled_semantic=8&num_scrambled_causal=4&num_scrambled_schematic=4&participantId=069217458ECC4F47A267B9494114F939&assignmentId=0198ee70-a724-7702-8873-99aed0aa5b10&projectId=0198ee3c-27ac-7803-a9ea-f3b4ad4ad678","069217458ECC4F47A267B9494114F939-2025-08-28-03-00-24","","null","","images/semantic_sequence/market_semantic/market_semantic_4.png","null","",""
"","","","","","image-button-response","35","307423","0.0-10.0-1.0-1.3","069217458ECC4F47A267B9494114F939","069217458ECC4F47A267B9494114F939","0198ee70-a724-7702-8873-99aed0aa5b10","0198ee3c-27ac-7803-a9ea-f3b4ad4ad678","{""num_scrambled_semantic"":""8"",""num_scrambled_causal"":""4"",""num_scrambled_schematic"":""4"",""participantId"":""069217458ECC4F47A267B9494114F939"",""assignmentId"":""0198ee70-a724-7702-8873-99aed0aa5b10"",""projectId"":""0198ee3c-27ac-7803-a9ea-f3b4ad4ad678""}","https://test12345.live/?num_scrambled_semantic=8&num_scrambled_causal=4&num_scrambled_schematic=4&participantId=069217458ECC4F47A267B9494114F939&assignmentId=0198ee70-a724-7702-8873-99aed0aa5b10&projectId=0198ee3c-27ac-7803-a9ea-f3b4ad4ad678","069217458ECC4F47A267B9494114F939-2025-08-28-03-00-24","","968","","images/semantic_sequence/market_semantic/market_semantic_4.png","1","",""
"","","","","","image-button-response","36","309229","0.0-10.0-1.0-2.3","069217458ECC4F47A267B9494114F939","069217458ECC4F47A267B9494114F939","0198ee70-a724-7702-8873-99aed0aa5b10","0198ee3c-27ac-7803-a9ea-f3b4ad4ad678","{""num_scrambled_semantic"":""8"",""num_scrambled_causal"":""4"",""num_scrambled_schematic"":""4"",""participantId"":""069217458ECC4F47A267B9494114F939"",""assignmentId"":""0198ee70-a724-7702-8873-99aed0aa5b10"",""projectId"":""0198ee3c-27ac-7803-a9ea-f3b4ad4ad678""}","https://test12345.live/?num_scrambled_semantic=8&num_scrambled_causal=4&num_scrambled_schematic=4&participantId=069217458ECC4F47A267B9494114F939&assignmentId=0198ee70-a724-7702-8873-99aed0aa5b10&projectId=0198ee3c-27ac-7803-a9ea-f3b4ad4ad678","069217458ECC4F47A267B9494114F939-2025-08-28-03-00-24","","null","","[]","null","",""
"","","","","","image-button-response","37","313731","0.0-10.0-1.0-0.4","069217458ECC4F47A267B9494114F939","069217458ECC4F47A267B9494114F939","0198ee70-a724-7702-8873-99aed0aa5b10","0198ee3c-27ac-7803-a9ea-f3b4ad4ad678","{""num_scrambled_semantic"":""8"",""num_scrambled_causal"":""4"",""num_scrambled_schematic"":""4"",""participantId"":""069217458ECC4F47A267B9494114F939"",""assignmentId"":""0198ee70-a724-7702-8873-99aed0aa5b10"",""projectId"":""0198ee3c-27ac-7803-a9ea-f3b4ad4ad678""}","https://test12345.live/?num_scrambled_semantic=8&num_scrambled_causal=4&num_scrambled_schematic=4&participantId=069217458ECC4F47A267B9494114F939&assignmentId=0198ee70-a724-7702-8873-99aed0aa5b10&projectId=0198ee3c-27ac-7803-a9ea-f3b4ad4ad678","069217458ECC4F47A267B9494114F939-2025-08-28-03-00-24","","null","","images/semantic_sequence/market_semantic/market_semantic_5.png","null","",""
"","","","","","image-button-response","38","314728","0.0-10.0-1.0-1.4","069217458ECC4F47A267B9494114F939","069217458ECC4F47A267B9494114F939","0198ee70-a724-7702-8873-99aed0aa5b10","0198ee3c-27ac-7803-a9ea-f3b4ad4ad678","{""num_scrambled_semantic"":""8"",""num_scrambled_causal"":""4"",""num_scrambled_schematic"":""4"",""participantId"":""069217458ECC4F47A267B9494114F939"",""assignmentId"":""0198ee70-a724-7702-8873-99aed0aa5b10"",""projectId"":""0198ee3c-27ac-7803-a9ea-f3b4ad4ad678""}","https://test12345.live/?num_scrambled_semantic=8&num_scrambled_causal=4&num_scrambled_schematic=4&participantId=069217458ECC4F47A267B9494114F939&assignmentId=0198ee70-a724-7702-8873-99aed0aa5b10&projectId=0198ee3c-27ac-7803-a9ea-f3b4ad4ad678","069217458ECC4F47A267B9494114F939-2025-08-28-03-00-24","","996","","images/semantic_sequence/market_semantic/market_semantic_5.png","1","",""
"","","","","","image-button-response","39","316533","0.0-10.0-1.0-2.4","069217458ECC4F47A267B9494114F939","069217458ECC4F47A267B9494114F939","0198ee70-a724-7702-8873-99aed0aa5b10","0198ee3c-27ac-7803-a9ea-f3b4ad4ad678","{""num_scrambled_semantic"":""8"",""num_scrambled_causal"":""4"",""num_scrambled_schematic"":""4"",""participantId"":""069217458ECC4F47A267B9494114F939"",""assignmentId"":""0198ee70-a724-7702-8873-99aed0aa5b10"",""projectId"":""0198ee3c-27ac-7803-a9ea-f3b4ad4ad678""}","https://test12345.live/?num_scrambled_semantic=8&num_scrambled_causal=4&num_scrambled_schematic=4&participantId=069217458ECC4F47A267B9494114F939&assignmentId=0198ee70-a724-7702-8873-99aed0aa5b10&projectId=0198ee3c-27ac-7803-a9ea-f3b4ad4ad678","069217458ECC4F47A267B9494114F939-2025-08-28-03-00-24","","null","","[]","null","",""
"","","","","","image-button-response","40","321035","0.0-10.0-1.0-0.5","069217458ECC4F47A267B9494114F939","069217458ECC4F47A267B9494114F939","0198ee70-a724-7702-8873-99aed0aa5b10","0198ee3c-27ac-7803-a9ea-f3b4ad4ad678","{""num_scrambled_semantic"":""8"",""num_scrambled_causal"":""4"",""num_scrambled_schematic"":""4"",""participantId"":""069217458ECC4F47A267B9494114F939"",""assignmentId"":""0198ee70-a724-7702-8873-99aed0aa5b10"",""projectId"":""0198ee3c-27ac-7803-a9ea-f3b4ad4ad678""}","https://test12345.live/?num_scrambled_semantic=8&num_scrambled_causal=4&num_scrambled_schematic=4&participantId=069217458ECC4F47A267B9494114F939&assignmentId=0198ee70-a724-7702-8873-99aed0aa5b10&projectId=0198ee3c-27ac-7803-a9ea-f3b4ad4ad678","069217458ECC4F47A267B9494114F939-2025-08-28-03-00-24","","null","","images/semantic_sequence/market_semantic/market_semantic_6.png","null","",""
"","","","","","image-button-response","41","323329","0.0-10.0-1.0-1.5","069217458ECC4F47A267B9494114F939","069217458ECC4F47A267B9494114F939","0198ee70-a724-7702-8873-99aed0aa5b10","0198ee3c-27ac-7803-a9ea-f3b4ad4ad678","{""num_scrambled_semantic"":""8"",""num_scrambled_causal"":""4"",""num_scrambled_schematic"":""4"",""participantId"":""069217458ECC4F47A267B9494114F939"",""assignmentId"":""0198ee70-a724-7702-8873-99aed0aa5b10"",""projectId"":""0198ee3c-27ac-7803-a9ea-f3b4ad4ad678""}","https://test12345.live/?num_scrambled_semantic=8&num_scrambled_causal=4&num_scrambled_schematic=4&participantId=069217458ECC4F47A267B9494114F939&assignmentId=0198ee70-a724-7702-8873-99aed0aa5b10&projectId=0198ee3c-27ac-7803-a9ea-f3b4ad4ad678","069217458ECC4F47A267B9494114F939-2025-08-28-03-00-24","","2293","","images/semantic_sequence/market_semantic/market_semantic_6.png","1","",""
"","","","","","image-button-response","42","325135","0.0-10.0-1.0-2.5","069217458ECC4F47A267B9494114F939","069217458ECC4F47A267B9494114F939","0198ee70-a724-7702-8873-99aed0aa5b10","0198ee3c-27ac-7803-a9ea-f3b4ad4ad678","{""num_scrambled_semantic"":""8"",""num_scrambled_causal"":""4"",""num_scrambled_schematic"":""4"",""participantId"":""069217458ECC4F47A267B9494114F939"",""assignmentId"":""0198ee70-a724-7702-8873-99aed0aa5b10"",""projectId"":""0198ee3c-27ac-7803-a9ea-f3b4ad4ad678""}","https://test12345.live/?num_scrambled_semantic=8&num_scrambled_causal=4&num_scrambled_schematic=4&participantId=069217458ECC4F47A267B9494114F939&assignmentId=0198ee70-a724-7702-8873-99aed0aa5b10&projectId=0198ee3c-27ac-7803-a9ea-f3b4ad4ad678","069217458ECC4F47A267B9494114F939-2025-08-28-03-00-24","","null","","[]","null","",""
"","","","","","image-button-response","43","329640","0.0-10.0-1.0-0.6","069217458ECC4F47A267B9494114F939","069217458ECC4F47A267B9494114F939","0198ee70-a724-7702-8873-99aed0aa5b10","0198ee3c-27ac-7803-a9ea-f3b4ad4ad678","{""num_scrambled_semantic"":""8"",""num_scrambled_causal"":""4"",""num_scrambled_schematic"":""4"",""participantId"":""069217458ECC4F47A267B9494114F939"",""assignmentId"":""0198ee70-a724-7702-8873-99aed0aa5b10"",""projectId"":""0198ee3c-27ac-7803-a9ea-f3b4ad4ad678""}","https://test12345.live/?num_scrambled_semantic=8&num_scrambled_causal=4&num_scrambled_schematic=4&participantId=069217458ECC4F47A267B9494114F939&assignmentId=0198ee70-a724-7702-8873-99aed0aa5b10&projectId=0198ee3c-27ac-7803-a9ea-f3b4ad4ad678","069217458ECC4F47A267B9494114F939-2025-08-28-03-00-24","","null","","images/semantic_sequence/market_semantic/market_semantic_7.png","null","",""
"","","","","","image-button-response","44","331785","0.0-10.0-1.0-1.6","069217458ECC4F47A267B9494114F939","069217458ECC4F47A267B9494114F939","0198ee70-a724-7702-8873-99aed0aa5b10","0198ee3c-27ac-7803-a9ea-f3b4ad4ad678","{""num_scrambled_semantic"":""8"",""num_scrambled_causal"":""4"",""num_scrambled_schematic"":""4"",""participantId"":""069217458ECC4F47A267B9494114F939"",""assignmentId"":""0198ee70-a724-7702-8873-99aed0aa5b10"",""projectId"":""0198ee3c-27ac-7803-a9ea-f3b4ad4ad678""}","https://test12345.live/?num_scrambled_semantic=8&num_scrambled_causal=4&num_scrambled_schematic=4&participantId=069217458ECC4F47A267B9494114F939&assignmentId=0198ee70-a724-7702-8873-99aed0aa5b10&projectId=0198ee3c-27ac-7803-a9ea-f3b4ad4ad678","069217458ECC4F47A267B9494114F939-2025-08-28-03-00-24","","2145","","images/semantic_sequence/market_semantic/market_semantic_7.png","0","",""
"","","","","","image-button-response","45","333590","0.0-10.0-1.0-2.6","069217458ECC4F47A267B9494114F939","069217458ECC4F47A267B9494114F939","0198ee70-a724-7702-8873-99aed0aa5b10","0198ee3c-27ac-7803-a9ea-f3b4ad4ad678","{""num_scrambled_semantic"":""8"",""num_scrambled_causal"":""4"",""num_scrambled_schematic"":""4"",""participantId"":""069217458ECC4F47A267B9494114F939"",""assignmentId"":""0198ee70-a724-7702-8873-99aed0aa5b10"",""projectId"":""0198ee3c-27ac-7803-a9ea-f3b4ad4ad678""}","https://test12345.live/?num_scrambled_semantic=8&num_scrambled_causal=4&num_scrambled_schematic=4&participantId=069217458ECC4F47A267B9494114F939&assignmentId=0198ee70-a724-7702-8873-99aed0aa5b10&projectId=0198ee3c-27ac-7803-a9ea-f3b4ad4ad678","069217458ECC4F47A267B9494114F939-2025-08-28-03-00-24","","null","","[]","null","",""
"","","","","","image-button-response","46","338092","0.0-10.0-1.0-0.7","069217458ECC4F47A267B9494114F939","069217458ECC4F47A267B9494114F939","0198ee70-a724-7702-8873-99aed0aa5b10","0198ee3c-27ac-7803-a9ea-f3b4ad4ad678","{""num_scrambled_semantic"":""8"",""num_scrambled_causal"":""4"",""num_scrambled_schematic"":""4"",""participantId"":""069217458ECC4F47A267B9494114F939"",""assignmentId"":""0198ee70-a724-7702-8873-99aed0aa5b10"",""projectId"":""0198ee3c-27ac-7803-a9ea-f3b4ad4ad678""}","https://test12345.live/?num_scrambled_semantic=8&num_scrambled_causal=4&num_scrambled_schematic=4&participantId=069217458ECC4F47A267B9494114F939&assignmentId=0198ee70-a724-7702-8873-99aed0aa5b10&projectId=0198ee3c-27ac-7803-a9ea-f3b4ad4ad678","069217458ECC4F47A267B9494114F939-2025-08-28-03-00-24","","null","","images/semantic_sequence/market_semantic/market_semantic_8.png","null","",""
"","","","","","image-button-response","47","339631","0.0-10.0-1.0-1.7","069217458ECC4F47A267B9494114F939","069217458ECC4F47A267B9494114F939","0198ee70-a724-7702-8873-99aed0aa5b10","0198ee3c-27ac-7803-a9ea-f3b4ad4ad678","{""num_scrambled_semantic"":""8"",""num_scrambled_causal"":""4"",""num_scrambled_schematic"":""4"",""participantId"":""069217458ECC4F47A267B9494114F939"",""assignmentId"":""0198ee70-a724-7702-8873-99aed0aa5b10"",""projectId"":""0198ee3c-27ac-7803-a9ea-f3b4ad4ad678""}","https://test12345.live/?num_scrambled_semantic=8&num_scrambled_causal=4&num_scrambled_schematic=4&participantId=069217458ECC4F47A267B9494114F939&assignmentId=0198ee70-a724-7702-8873-99aed0aa5b10&projectId=0198ee3c-27ac-7803-a9ea-f3b4ad4ad678","069217458ECC4F47A267B9494114F939-2025-08-28-03-00-24","","1538","","images/semantic_sequence/market_semantic/market_semantic_8.png","1","",""
"","","","","","image-button-response","48","341435","0.0-10.0-1.0-2.7","069217458ECC4F47A267B9494114F939","069217458ECC4F47A267B9494114F939","0198ee70-a724-7702-8873-99aed0aa5b10","0198ee3c-27ac-7803-a9ea-f3b4ad4ad678","{""num_scrambled_semantic"":""8"",""num_scrambled_causal"":""4"",""num_scrambled_schematic"":""4"",""participantId"":""069217458ECC4F47A267B9494114F939"",""assignmentId"":""0198ee70-a724-7702-8873-99aed0aa5b10"",""projectId"":""0198ee3c-27ac-7803-a9ea-f3b4ad4ad678""}","https://test12345.live/?num_scrambled_semantic=8&num_scrambled_causal=4&num_scrambled_schematic=4&participantId=069217458ECC4F47A267B9494114F939&assignmentId=0198ee70-a724-7702-8873-99aed0aa5b10&projectId=0198ee3c-27ac-7803-a9ea-f3b4ad4ad678","069217458ECC4F47A267B9494114F939-2025-08-28-03-00-24","","null","","[]","null","",""
"","","","","","image-button-response","49","345941","0.0-10.0-1.0-0.8","069217458ECC4F47A267B9494114F939","069217458ECC4F47A267B9494114F939","0198ee70-a724-7702-8873-99aed0aa5b10","0198ee3c-27ac-7803-a9ea-f3b4ad4ad678","{""num_scrambled_semantic"":""8"",""num_scrambled_causal"":""4"",""num_scrambled_schematic"":""4"",""participantId"":""069217458ECC4F47A267B9494114F939"",""assignmentId"":""0198ee70-a724-7702-8873-99aed0aa5b10"",""projectId"":""0198ee3c-27ac-7803-a9ea-f3b4ad4ad678""}","https://test12345.live/?num_scrambled_semantic=8&num_scrambled_causal=4&num_scrambled_schematic=4&participantId=069217458ECC4F47A267B9494114F939&assignmentId=0198ee70-a724-7702-8873-99aed0aa5b10&projectId=0198ee3c-27ac-7803-a9ea-f3b4ad4ad678","069217458ECC4F47A267B9494114F939-2025-08-28-03-00-24","","null","","images/semantic_sequence/market_semantic/market_semantic_9.png","null","",""
"","","","","","image-button-response","50","346754","0.0-10.0-1.0-1.8","069217458ECC4F47A267B9494114F939","069217458ECC4F47A267B9494114F939","0198ee70-a724-7702-8873-99aed0aa5b10","0198ee3c-27ac-7803-a9ea-f3b4ad4ad678","{""num_scrambled_semantic"":""8"",""num_scrambled_causal"":""4"",""num_scrambled_schematic"":""4"",""participantId"":""069217458ECC4F47A267B9494114F939"",""assignmentId"":""0198ee70-a724-7702-8873-99aed0aa5b10"",""projectId"":""0198ee3c-27ac-7803-a9ea-f3b4ad4ad678""}","https://test12345.live/?num_scrambled_semantic=8&num_scrambled_causal=4&num_scrambled_schematic=4&participantId=069217458ECC4F47A267B9494114F939&assignmentId=0198ee70-a724-7702-8873-99aed0aa5b10&projectId=0198ee3c-27ac-7803-a9ea-f3b4ad4ad678","069217458ECC4F47A267B9494114F939-2025-08-28-03-00-24","","812","","images/semantic_sequence/market_semantic/market_semantic_9.png","0","",""
"","","","","","image-button-response","51","348558","0.0-10.0-1.0-2.8","069217458ECC4F47A267B9494114F939","069217458ECC4F47A267B9494114F939","0198ee70-a724-7702-8873-99aed0aa5b10","0198ee3c-27ac-7803-a9ea-f3b4ad4ad678","{""num_scrambled_semantic"":""8"",""num_scrambled_causal"":""4"",""num_scrambled_schematic"":""4"",""participantId"":""069217458ECC4F47A267B9494114F939"",""assignmentId"":""0198ee70-a724-7702-8873-99aed0aa5b10"",""projectId"":""0198ee3c-27ac-7803-a9ea-f3b4ad4ad678""}","https://test12345.live/?num_scrambled_semantic=8&num_scrambled_causal=4&num_scrambled_schematic=4&participantId=069217458ECC4F47A267B9494114F939&assignmentId=0198ee70-a724-7702-8873-99aed0aa5b10&projectId=0198ee3c-27ac-7803-a9ea-f3b4ad4ad678","069217458ECC4F47A267B9494114F939-2025-08-28-03-00-24","","null","","[]","null","",""
"","","","","","image-button-response","52","353060","0.0-10.0-1.0-0.9","069217458ECC4F47A267B9494114F939","069217458ECC4F47A267B9494114F939","0198ee70-a724-7702-8873-99aed0aa5b10","0198ee3c-27ac-7803-a9ea-f3b4ad4ad678","{""num_scrambled_semantic"":""8"",""num_scrambled_causal"":""4"",""num_scrambled_schematic"":""4"",""participantId"":""069217458ECC4F47A267B9494114F939"",""assignmentId"":""0198ee70-a724-7702-8873-99aed0aa5b10"",""projectId"":""0198ee3c-27ac-7803-a9ea-f3b4ad4ad678""}","https://test12345.live/?num_scrambled_semantic=8&num_scrambled_causal=4&num_scrambled_schematic=4&participantId=069217458ECC4F47A267B9494114F939&assignmentId=0198ee70-a724-7702-8873-99aed0aa5b10&projectId=0198ee3c-27ac-7803-a9ea-f3b4ad4ad678","069217458ECC4F47A267B9494114F939-2025-08-28-03-00-24","","null","","images/semantic_sequence/market_semantic/market_semantic_ten.png","null","",""
"","","","","","image-button-response","53","354771","0.0-10.0-1.0-1.9","069217458ECC4F47A267B9494114F939","069217458ECC4F47A267B9494114F939","0198ee70-a724-7702-8873-99aed0aa5b10","0198ee3c-27ac-7803-a9ea-f3b4ad4ad678","{""num_scrambled_semantic"":""8"",""num_scrambled_causal"":""4"",""num_scrambled_schematic"":""4"",""participantId"":""069217458ECC4F47A267B9494114F939"",""assignmentId"":""0198ee70-a724-7702-8873-99aed0aa5b10"",""projectId"":""0198ee3c-27ac-7803-a9ea-f3b4ad4ad678""}","https://test12345.live/?num_scrambled_semantic=8&num_scrambled_causal=4&num_scrambled_schematic=4&participantId=069217458ECC4F47A267B9494114F939&assignmentId=0198ee70-a724-7702-8873-99aed0aa5b10&projectId=0198ee3c-27ac-7803-a9ea-f3b4ad4ad678","069217458ECC4F47A267B9494114F939-2025-08-28-03-00-24","","1710","","images/semantic_sequence/market_semantic/market_semantic_ten.png","1","",""
"","","","","","image-button-response","54","356576","0.0-10.0-1.0-2.9","069217458ECC4F47A267B9494114F939","069217458ECC4F47A267B9494114F939","0198ee70-a724-7702-8873-99aed0aa5b10","0198ee3c-27ac-7803-a9ea-f3b4ad4ad678","{""num_scrambled_semantic"":""8"",""num_scrambled_causal"":""4"",""num_scrambled_schematic"":""4"",""participantId"":""069217458ECC4F47A267B9494114F939"",""assignmentId"":""0198ee70-a724-7702-8873-99aed0aa5b10"",""projectId"":""0198ee3c-27ac-7803-a9ea-f3b4ad4ad678""}","https://test12345.live/?num_scrambled_semantic=8&num_scrambled_causal=4&num_scrambled_schematic=4&participantId=069217458ECC4F47A267B9494114F939&assignmentId=0198ee70-a724-7702-8873-99aed0aa5b10&projectId=0198ee3c-27ac-7803-a9ea-f3b4ad4ad678","069217458ECC4F47A267B9494114F939-2025-08-28-03-00-24","","null","","[]","null","",""
"","","","","","html-audio-response","55","390541","0.0-11.0","069217458ECC4F47A267B9494114F939","069217458ECC4F47A267B9494114F939","0198ee70-a724-7702-8873-99aed0aa5b10","0198ee3c-27ac-7803-a9ea-f3b4ad4ad678","{""num_scrambled_semantic"":""8"",""num_scrambled_causal"":""4"",""num_scrambled_schematic"":""4"",""participantId"":""069217458ECC4F47A267B9494114F939"",""assignmentId"":""0198ee70-a724-7702-8873-99aed0aa5b10"",""projectId"":""0198ee3c-27ac-7803-a9ea-f3b4ad4ad678""}","https://test12345.live/?num_scrambled_semantic=8&num_scrambled_causal=4&num_scrambled_schematic=4&participantId=069217458ECC4F47A267B9494114F939&assignmentId=0198ee70-a724-7702-8873-99aed0aa5b10&projectId=0198ee3c-27ac-7803-a9ea-f3b4ad4ad678","069217458ECC4F47A267B9494114F939-2025-08-28-03-00-24","","27526","","[""<span style=\""color: red; font-size: 24px\""> NOW RECORDING</span><p>Please say out loud all the images you saw, in the order of the story they create. Try to recall the sequence of events as they appeared in the story, not necessarily the order they were presented on the screen.</p>""]","","1","market_semantic"
"","","","","","image-button-response","56","396548","0.0-12.0-0.0","069217458ECC4F47A267B9494114F939","069217458ECC4F47A267B9494114F939","0198ee70-a724-7702-8873-99aed0aa5b10","0198ee3c-27ac-7803-a9ea-f3b4ad4ad678","{""num_scrambled_semantic"":""8"",""num_scrambled_causal"":""4"",""num_scrambled_schematic"":""4"",""participantId"":""069217458ECC4F47A267B9494114F939"",""assignmentId"":""0198ee70-a724-7702-8873-99aed0aa5b10"",""projectId"":""0198ee3c-27ac-7803-a9ea-f3b4ad4ad678""}","https://test12345.live/?num_scrambled_semantic=8&num_scrambled_causal=4&num_scrambled_schematic=4&participantId=069217458ECC4F47A267B9494114F939&assignmentId=0198ee70-a724-7702-8873-99aed0aa5b10&projectId=0198ee3c-27ac-7803-a9ea-f3b4ad4ad678","069217458ECC4F47A267B9494114F939-2025-08-28-03-00-24","","null","","images/causal_sequence/dog_causal/dog_causal_0.png","null","",""
"","","","","","image-button-response","57","401049","0.0-12.0-1.0-0.0","069217458ECC4F47A267B9494114F939","069217458ECC4F47A267B9494114F939","0198ee70-a724-7702-8873-99aed0aa5b10","0198ee3c-27ac-7803-a9ea-f3b4ad4ad678","{""num_scrambled_semantic"":""8"",""num_scrambled_causal"":""4"",""num_scrambled_schematic"":""4"",""participantId"":""069217458ECC4F47A267B9494114F939"",""assignmentId"":""0198ee70-a724-7702-8873-99aed0aa5b10"",""projectId"":""0198ee3c-27ac-7803-a9ea-f3b4ad4ad678""}","https://test12345.live/?num_scrambled_semantic=8&num_scrambled_causal=4&num_scrambled_schematic=4&participantId=069217458ECC4F47A267B9494114F939&assignmentId=0198ee70-a724-7702-8873-99aed0aa5b10&projectId=0198ee3c-27ac-7803-a9ea-f3b4ad4ad678","069217458ECC4F47A267B9494114F939-2025-08-28-03-00-24","","null","","images/causal_sequence/dog_causal/dog_causal_1.png","null","",""
"","","","","","image-button-response","58","402387","0.0-12.0-1.0-1.0","069217458ECC4F47A267B9494114F939","069217458ECC4F47A267B9494114F939","0198ee70-a724-7702-8873-99aed0aa5b10","0198ee3c-27ac-7803-a9ea-f3b4ad4ad678","{""num_scrambled_semantic"":""8"",""num_scrambled_causal"":""4"",""num_scrambled_schematic"":""4"",""participantId"":""069217458ECC4F47A267B9494114F939"",""assignmentId"":""0198ee70-a724-7702-8873-99aed0aa5b10"",""projectId"":""0198ee3c-27ac-7803-a9ea-f3b4ad4ad678""}","https://test12345.live/?num_scrambled_semantic=8&num_scrambled_causal=4&num_scrambled_schematic=4&participantId=069217458ECC4F47A267B9494114F939&assignmentId=0198ee70-a724-7702-8873-99aed0aa5b10&projectId=0198ee3c-27ac-7803-a9ea-f3b4ad4ad678","069217458ECC4F47A267B9494114F939-2025-08-28-03-00-24","","1338","","images/causal_sequence/dog_causal/dog_causal_1.png","0","",""
"","","","","","image-button-response","59","404189","0.0-12.0-1.0-2.0","069217458ECC4F47A267B9494114F939","069217458ECC4F47A267B9494114F939","0198ee70-a724-7702-8873-99aed0aa5b10","0198ee3c-27ac-7803-a9ea-f3b4ad4ad678","{""num_scrambled_semantic"":""8"",""num_scrambled_causal"":""4"",""num_scrambled_schematic"":""4"",""participantId"":""069217458ECC4F47A267B9494114F939"",""assignmentId"":""0198ee70-a724-7702-8873-99aed0aa5b10"",""projectId"":""0198ee3c-27ac-7803-a9ea-f3b4ad4ad678""}","https://test12345.live/?num_scrambled_semantic=8&num_scrambled_causal=4&num_scrambled_schematic=4&participantId=069217458ECC4F47A267B9494114F939&assignmentId=0198ee70-a724-7702-8873-99aed0aa5b10&projectId=0198ee3c-27ac-7803-a9ea-f3b4ad4ad678","069217458ECC4F47A267B9494114F939-2025-08-28-03-00-24","","null","","[]","null","",""
"","","","","","image-button-response","60","408692","0.0-12.0-1.0-0.1","069217458ECC4F47A267B9494114F939","069217458ECC4F47A267B9494114F939","0198ee70-a724-7702-8873-99aed0aa5b10","0198ee3c-27ac-7803-a9ea-f3b4ad4ad678","{""num_scrambled_semantic"":""8"",""num_scrambled_causal"":""4"",""num_scrambled_schematic"":""4"",""participantId"":""069217458ECC4F47A267B9494114F939"",""assignmentId"":""0198ee70-a724-7702-8873-99aed0aa5b10"",""projectId"":""0198ee3c-27ac-7803-a9ea-f3b4ad4ad678""}","https://test12345.live/?num_scrambled_semantic=8&num_scrambled_causal=4&num_scrambled_schematic=4&participantId=069217458ECC4F47A267B9494114F939&assignmentId=0198ee70-a724-7702-8873-99aed0aa5b10&projectId=0198ee3c-27ac-7803-a9ea-f3b4ad4ad678","069217458ECC4F47A267B9494114F939-2025-08-28-03-00-24","","null","","images/causal_sequence/dog_causal/dog_causal_2.png","null","",""
"","","","","","image-button-response","61","409795","0.0-12.0-1.0-1.1","069217458ECC4F47A267B9494114F939","069217458ECC4F47A267B9494114F939","0198ee70-a724-7702-8873-99aed0aa5b10","0198ee3c-27ac-7803-a9ea-f3b4ad4ad678","{""num_scrambled_semantic"":""8"",""num_scrambled_causal"":""4"",""num_scrambled_schematic"":""4"",""participantId"":""069217458ECC4F47A267B9494114F939"",""assignmentId"":""0198ee70-a724-7702-8873-99aed0aa5b10"",""projectId"":""0198ee3c-27ac-7803-a9ea-f3b4ad4ad678""}","https://test12345.live/?num_scrambled_semantic=8&num_scrambled_causal=4&num_scrambled_schematic=4&participantId=069217458ECC4F47A267B9494114F939&assignmentId=0198ee70-a724-7702-8873-99aed0aa5b10&projectId=0198ee3c-27ac-7803-a9ea-f3b4ad4ad678","069217458ECC4F47A267B9494114F939-2025-08-28-03-00-24","","1103","","images/causal_sequence/dog_causal/dog_causal_2.png","0","",""
"","","","","","image-button-response","62","411597","0.0-12.0-1.0-2.1","069217458ECC4F47A267B9494114F939","069217458ECC4F47A267B9494114F939","0198ee70-a724-7702-8873-99aed0aa5b10","0198ee3c-27ac-7803-a9ea-f3b4ad4ad678","{""num_scrambled_semantic"":""8"",""num_scrambled_causal"":""4"",""num_scrambled_schematic"":""4"",""participantId"":""069217458ECC4F47A267B9494114F939"",""assignmentId"":""0198ee70-a724-7702-8873-99aed0aa5b10"",""projectId"":""0198ee3c-27ac-7803-a9ea-f3b4ad4ad678""}","https://test12345.live/?num_scrambled_semantic=8&num_scrambled_causal=4&num_scrambled_schematic=4&participantId=069217458ECC4F47A267B9494114F939&assignmentId=0198ee70-a724-7702-8873-99aed0aa5b10&projectId=0198ee3c-27ac-7803-a9ea-f3b4ad4ad678","069217458ECC4F47A267B9494114F939-2025-08-28-03-00-24","","null","","[]","null","",""
"","","","","","image-button-response","63","416101","0.0-12.0-1.0-0.2","069217458ECC4F47A267B9494114F939","069217458ECC4F47A267B9494114F939","0198ee70-a724-7702-8873-99aed0aa5b10","0198ee3c-27ac-7803-a9ea-f3b4ad4ad678","{""num_scrambled_semantic"":""8"",""num_scrambled_causal"":""4"",""num_scrambled_schematic"":""4"",""participantId"":""069217458ECC4F47A267B9494114F939"",""assignmentId"":""0198ee70-a724-7702-8873-99aed0aa5b10"",""projectId"":""0198ee3c-27ac-7803-a9ea-f3b4ad4ad678""}","https://test12345.live/?num_scrambled_semantic=8&num_scrambled_causal=4&num_scrambled_schematic=4&participantId=069217458ECC4F47A267B9494114F939&assignmentId=0198ee70-a724-7702-8873-99aed0aa5b10&projectId=0198ee3c-27ac-7803-a9ea-f3b4ad4ad678","069217458ECC4F47A267B9494114F939-2025-08-28-03-00-24","","null","","images/causal_sequence/dog_causal/dog_causal_3.png","null","",""
"","","","","","image-button-response","64","417311","0.0-12.0-1.0-1.2","069217458ECC4F47A267B9494114F939","069217458ECC4F47A267B9494114F939","0198ee70-a724-7702-8873-99aed0aa5b10","0198ee3c-27ac-7803-a9ea-f3b4ad4ad678","{""num_scrambled_semantic"":""8"",""num_scrambled_causal"":""4"",""num_scrambled_schematic"":""4"",""participantId"":""069217458ECC4F47A267B9494114F939"",""assignmentId"":""0198ee70-a724-7702-8873-99aed0aa5b10"",""projectId"":""0198ee3c-27ac-7803-a9ea-f3b4ad4ad678""}","https://test12345.live/?num_scrambled_semantic=8&num_scrambled_causal=4&num_scrambled_schematic=4&participantId=069217458ECC4F47A267B9494114F939&assignmentId=0198ee70-a724-7702-8873-99aed0aa5b10&projectId=0198ee3c-27ac-7803-a9ea-f3b4ad4ad678","069217458ECC4F47A267B9494114F939-2025-08-28-03-00-24","","1210","","images/causal_sequence/dog_causal/dog_causal_3.png","0","",""
"","","","","","image-button-response","65","419111","0.0-12.0-1.0-2.2","069217458ECC4F47A267B9494114F939","069217458ECC4F47A267B9494114F939","0198ee70-a724-7702-8873-99aed0aa5b10","0198ee3c-27ac-7803-a9ea-f3b4ad4ad678","{""num_scrambled_semantic"":""8"",""num_scrambled_causal"":""4"",""num_scrambled_schematic"":""4"",""participantId"":""069217458ECC4F47A267B9494114F939"",""assignmentId"":""0198ee70-a724-7702-8873-99aed0aa5b10"",""projectId"":""0198ee3c-27ac-7803-a9ea-f3b4ad4ad678""}","https://test12345.live/?num_scrambled_semantic=8&num_scrambled_causal=4&num_scrambled_schematic=4&participantId=069217458ECC4F47A267B9494114F939&assignmentId=0198ee70-a724-7702-8873-99aed0aa5b10&projectId=0198ee3c-27ac-7803-a9ea-f3b4ad4ad678","069217458ECC4F47A267B9494114F939-2025-08-28-03-00-24","","null","","[]","null","",""
"","","","","","image-button-response","66","423615","0.0-12.0-1.0-0.3","069217458ECC4F47A267B9494114F939","069217458ECC4F47A267B9494114F939","0198ee70-a724-7702-8873-99aed0aa5b10","0198ee3c-27ac-7803-a9ea-f3b4ad4ad678","{""num_scrambled_semantic"":""8"",""num_scrambled_causal"":""4"",""num_scrambled_schematic"":""4"",""participantId"":""069217458ECC4F47A267B9494114F939"",""assignmentId"":""0198ee70-a724-7702-8873-99aed0aa5b10"",""projectId"":""0198ee3c-27ac-7803-a9ea-f3b4ad4ad678""}","https://test12345.live/?num_scrambled_semantic=8&num_scrambled_causal=4&num_scrambled_schematic=4&participantId=069217458ECC4F47A267B9494114F939&assignmentId=0198ee70-a724-7702-8873-99aed0aa5b10&projectId=0198ee3c-27ac-7803-a9ea-f3b4ad4ad678","069217458ECC4F47A267B9494114F939-2025-08-28-03-00-24","","null","","images/causal_sequence/dog_causal/dog_causal_4.png","null","",""
"","","","","","image-button-response","67","425057","0.0-12.0-1.0-1.3","069217458ECC4F47A267B9494114F939","069217458ECC4F47A267B9494114F939","0198ee70-a724-7702-8873-99aed0aa5b10","0198ee3c-27ac-7803-a9ea-f3b4ad4ad678","{""num_scrambled_semantic"":""8"",""num_scrambled_causal"":""4"",""num_scrambled_schematic"":""4"",""participantId"":""069217458ECC4F47A267B9494114F939"",""assignmentId"":""0198ee70-a724-7702-8873-99aed0aa5b10"",""projectId"":""0198ee3c-27ac-7803-a9ea-f3b4ad4ad678""}","https://test12345.live/?num_scrambled_semantic=8&num_scrambled_causal=4&num_scrambled_schematic=4&participantId=069217458ECC4F47A267B9494114F939&assignmentId=0198ee70-a724-7702-8873-99aed0aa5b10&projectId=0198ee3c-27ac-7803-a9ea-f3b4ad4ad678","069217458ECC4F47A267B9494114F939-2025-08-28-03-00-24","","1441","","images/causal_sequence/dog_causal/dog_causal_4.png","0","",""
"","","","","","image-button-response","68","426863","0.0-12.0-1.0-2.3","069217458ECC4F47A267B9494114F939","069217458ECC4F47A267B9494114F939","0198ee70-a724-7702-8873-99aed0aa5b10","0198ee3c-27ac-7803-a9ea-f3b4ad4ad678","{""num_scrambled_semantic"":""8"",""num_scrambled_causal"":""4"",""num_scrambled_schematic"":""4"",""participantId"":""069217458ECC4F47A267B9494114F939"",""assignmentId"":""0198ee70-a724-7702-8873-99aed0aa5b10"",""projectId"":""0198ee3c-27ac-7803-a9ea-f3b4ad4ad678""}","https://test12345.live/?num_scrambled_semantic=8&num_scrambled_causal=4&num_scrambled_schematic=4&participantId=069217458ECC4F47A267B9494114F939&assignmentId=0198ee70-a724-7702-8873-99aed0aa5b10&projectId=0198ee3c-27ac-7803-a9ea-f3b4ad4ad678","069217458ECC4F47A267B9494114F939-2025-08-28-03-00-24","","null","","[]","null","",""
"","","","","","image-button-response","69","431364","0.0-12.0-1.0-0.4","069217458ECC4F47A267B9494114F939","069217458ECC4F47A267B9494114F939","0198ee70-a724-7702-8873-99aed0aa5b10","0198ee3c-27ac-7803-a9ea-f3b4ad4ad678","{""num_scrambled_semantic"":""8"",""num_scrambled_causal"":""4"",""num_scrambled_schematic"":""4"",""participantId"":""069217458ECC4F47A267B9494114F939"",""assignmentId"":""0198ee70-a724-7702-8873-99aed0aa5b10"",""projectId"":""0198ee3c-27ac-7803-a9ea-f3b4ad4ad678""}","https://test12345.live/?num_scrambled_semantic=8&num_scrambled_causal=4&num_scrambled_schematic=4&participantId=069217458ECC4F47A267B9494114F939&assignmentId=0198ee70-a724-7702-8873-99aed0aa5b10&projectId=0198ee3c-27ac-7803-a9ea-f3b4ad4ad678","069217458ECC4F47A267B9494114F939-2025-08-28-03-00-24","","null","","images/causal_sequence/dog_causal/dog_causal_5.png","null","",""
"","","","","","image-button-response","70","432250","0.0-12.0-1.0-1.4","069217458ECC4F47A267B9494114F939","069217458ECC4F47A267B9494114F939","0198ee70-a724-7702-8873-99aed0aa5b10","0198ee3c-27ac-7803-a9ea-f3b4ad4ad678","{""num_scrambled_semantic"":""8"",""num_scrambled_causal"":""4"",""num_scrambled_schematic"":""4"",""participantId"":""069217458ECC4F47A267B9494114F939"",""assignmentId"":""0198ee70-a724-7702-8873-99aed0aa5b10"",""projectId"":""0198ee3c-27ac-7803-a9ea-f3b4ad4ad678""}","https://test12345.live/?num_scrambled_semantic=8&num_scrambled_causal=4&num_scrambled_schematic=4&participantId=069217458ECC4F47A267B9494114F939&assignmentId=0198ee70-a724-7702-8873-99aed0aa5b10&projectId=0198ee3c-27ac-7803-a9ea-f3b4ad4ad678","069217458ECC4F47A267B9494114F939-2025-08-28-03-00-24","","885","","images/causal_sequence/dog_causal/dog_causal_5.png","0","",""
"","","","","","image-button-response","71","434053","0.0-12.0-1.0-2.4","069217458ECC4F47A267B9494114F939","069217458ECC4F47A267B9494114F939","0198ee70-a724-7702-8873-99aed0aa5b10","0198ee3c-27ac-7803-a9ea-f3b4ad4ad678","{""num_scrambled_semantic"":""8"",""num_scrambled_causal"":""4"",""num_scrambled_schematic"":""4"",""participantId"":""069217458ECC4F47A267B9494114F939"",""assignmentId"":""0198ee70-a724-7702-8873-99aed0aa5b10"",""projectId"":""0198ee3c-27ac-7803-a9ea-f3b4ad4ad678""}","https://test12345.live/?num_scrambled_semantic=8&num_scrambled_causal=4&num_scrambled_schematic=4&participantId=069217458ECC4F47A267B9494114F939&assignmentId=0198ee70-a724-7702-8873-99aed0aa5b10&projectId=0198ee3c-27ac-7803-a9ea-f3b4ad4ad678","069217458ECC4F47A267B9494114F939-2025-08-28-03-00-24","","null","","[]","null","",""
"","","","","","image-button-response","72","438553","0.0-12.0-1.0-0.5","069217458ECC4F47A267B9494114F939","069217458ECC4F47A267B9494114F939","0198ee70-a724-7702-8873-99aed0aa5b10","0198ee3c-27ac-7803-a9ea-f3b4ad4ad678","{""num_scrambled_semantic"":""8"",""num_scrambled_causal"":""4"",""num_scrambled_schematic"":""4"",""participantId"":""069217458ECC4F47A267B9494114F939"",""assignmentId"":""0198ee70-a724-7702-8873-99aed0aa5b10"",""projectId"":""0198ee3c-27ac-7803-a9ea-f3b4ad4ad678""}","https://test12345.live/?num_scrambled_semantic=8&num_scrambled_causal=4&num_scrambled_schematic=4&participantId=069217458ECC4F47A267B9494114F939&assignmentId=0198ee70-a724-7702-8873-99aed0aa5b10&projectId=0198ee3c-27ac-7803-a9ea-f3b4ad4ad678","069217458ECC4F47A267B9494114F939-2025-08-28-03-00-24","","null","","images/causal_sequence/dog_causal/dog_causal_6.png","null","",""
"","","","","","image-button-response","73","439076","0.0-12.0-1.0-1.5","069217458ECC4F47A267B9494114F939","069217458ECC4F47A267B9494114F939","0198ee70-a724-7702-8873-99aed0aa5b10","0198ee3c-27ac-7803-a9ea-f3b4ad4ad678","{""num_scrambled_semantic"":""8"",""num_scrambled_causal"":""4"",""num_scrambled_schematic"":""4"",""participantId"":""069217458ECC4F47A267B9494114F939"",""assignmentId"":""0198ee70-a724-7702-8873-99aed0aa5b10"",""projectId"":""0198ee3c-27ac-7803-a9ea-f3b4ad4ad678""}","https://test12345.live/?num_scrambled_semantic=8&num_scrambled_causal=4&num_scrambled_schematic=4&participantId=069217458ECC4F47A267B9494114F939&assignmentId=0198ee70-a724-7702-8873-99aed0aa5b10&projectId=0198ee3c-27ac-7803-a9ea-f3b4ad4ad678","069217458ECC4F47A267B9494114F939-2025-08-28-03-00-24","","522","","images/causal_sequence/dog_causal/dog_causal_6.png","0","",""
"","","","","","image-button-response","74","440878","0.0-12.0-1.0-2.5","069217458ECC4F47A267B9494114F939","069217458ECC4F47A267B9494114F939","0198ee70-a724-7702-8873-99aed0aa5b10","0198ee3c-27ac-7803-a9ea-f3b4ad4ad678","{""num_scrambled_semantic"":""8"",""num_scrambled_causal"":""4"",""num_scrambled_schematic"":""4"",""participantId"":""069217458ECC4F47A267B9494114F939"",""assignmentId"":""0198ee70-a724-7702-8873-99aed0aa5b10"",""projectId"":""0198ee3c-27ac-7803-a9ea-f3b4ad4ad678""}","https://test12345.live/?num_scrambled_semantic=8&num_scrambled_causal=4&num_scrambled_schematic=4&participantId=069217458ECC4F47A267B9494114F939&assignmentId=0198ee70-a724-7702-8873-99aed0aa5b10&projectId=0198ee3c-27ac-7803-a9ea-f3b4ad4ad678","069217458ECC4F47A267B9494114F939-2025-08-28-03-00-24","","null","","[]","null","",""
"","","","","","image-button-response","75","445379","0.0-12.0-1.0-0.6","069217458ECC4F47A267B9494114F939","069217458ECC4F47A267B9494114F939","0198ee70-a724-7702-8873-99aed0aa5b10","0198ee3c-27ac-7803-a9ea-f3b4ad4ad678","{""num_scrambled_semantic"":""8"",""num_scrambled_causal"":""4"",""num_scrambled_schematic"":""4"",""participantId"":""069217458ECC4F47A267B9494114F939"",""assignmentId"":""0198ee70-a724-7702-8873-99aed0aa5b10"",""projectId"":""0198ee3c-27ac-7803-a9ea-f3b4ad4ad678""}","https://test12345.live/?num_scrambled_semantic=8&num_scrambled_causal=4&num_scrambled_schematic=4&participantId=069217458ECC4F47A267B9494114F939&assignmentId=0198ee70-a724-7702-8873-99aed0aa5b10&projectId=0198ee3c-27ac-7803-a9ea-f3b4ad4ad678","069217458ECC4F47A267B9494114F939-2025-08-28-03-00-24","","null","","images/causal_sequence/dog_causal/dog_causal_7.png","null","",""
"","","","","","image-button-response","76","446719","0.0-12.0-1.0-1.6","069217458ECC4F47A267B9494114F939","069217458ECC4F47A267B9494114F939","0198ee70-a724-7702-8873-99aed0aa5b10","0198ee3c-27ac-7803-a9ea-f3b4ad4ad678","{""num_scrambled_semantic"":""8"",""num_scrambled_causal"":""4"",""num_scrambled_schematic"":""4"",""participantId"":""069217458ECC4F47A267B9494114F939"",""assignmentId"":""0198ee70-a724-7702-8873-99aed0aa5b10"",""projectId"":""0198ee3c-27ac-7803-a9ea-f3b4ad4ad678""}","https://test12345.live/?num_scrambled_semantic=8&num_scrambled_causal=4&num_scrambled_schematic=4&participantId=069217458ECC4F47A267B9494114F939&assignmentId=0198ee70-a724-7702-8873-99aed0aa5b10&projectId=0198ee3c-27ac-7803-a9ea-f3b4ad4ad678","069217458ECC4F47A267B9494114F939-2025-08-28-03-00-24","","1339","","images/causal_sequence/dog_causal/dog_causal_7.png","0","",""
"","","","","","image-button-response","77","448524","0.0-12.0-1.0-2.6","069217458ECC4F47A267B9494114F939","069217458ECC4F47A267B9494114F939","0198ee70-a724-7702-8873-99aed0aa5b10","0198ee3c-27ac-7803-a9ea-f3b4ad4ad678","{""num_scrambled_semantic"":""8"",""num_scrambled_causal"":""4"",""num_scrambled_schematic"":""4"",""participantId"":""069217458ECC4F47A267B9494114F939"",""assignmentId"":""0198ee70-a724-7702-8873-99aed0aa5b10"",""projectId"":""0198ee3c-27ac-7803-a9ea-f3b4ad4ad678""}","https://test12345.live/?num_scrambled_semantic=8&num_scrambled_causal=4&num_scrambled_schematic=4&participantId=069217458ECC4F47A267B9494114F939&assignmentId=0198ee70-a724-7702-8873-99aed0aa5b10&projectId=0198ee3c-27ac-7803-a9ea-f3b4ad4ad678","069217458ECC4F47A267B9494114F939-2025-08-28-03-00-24","","null","","[]","null","",""
"","","","","","image-button-response","78","453028","0.0-12.0-1.0-0.7","069217458ECC4F47A267B9494114F939","069217458ECC4F47A267B9494114F939","0198ee70-a724-7702-8873-99aed0aa5b10","0198ee3c-27ac-7803-a9ea-f3b4ad4ad678","{""num_scrambled_semantic"":""8"",""num_scrambled_causal"":""4"",""num_scrambled_schematic"":""4"",""participantId"":""069217458ECC4F47A267B9494114F939"",""assignmentId"":""0198ee70-a724-7702-8873-99aed0aa5b10"",""projectId"":""0198ee3c-27ac-7803-a9ea-f3b4ad4ad678""}","https://test12345.live/?num_scrambled_semantic=8&num_scrambled_causal=4&num_scrambled_schematic=4&participantId=069217458ECC4F47A267B9494114F939&assignmentId=0198ee70-a724-7702-8873-99aed0aa5b10&projectId=0198ee3c-27ac-7803-a9ea-f3b4ad4ad678","069217458ECC4F47A267B9494114F939-2025-08-28-03-00-24","","null","","images/causal_sequence/dog_causal/dog_causal_8.png","null","",""
"","","","","","image-button-response","79","453680","0.0-12.0-1.0-1.7","069217458ECC4F47A267B9494114F939","069217458ECC4F47A267B9494114F939","0198ee70-a724-7702-8873-99aed0aa5b10","0198ee3c-27ac-7803-a9ea-f3b4ad4ad678","{""num_scrambled_semantic"":""8"",""num_scrambled_causal"":""4"",""num_scrambled_schematic"":""4"",""participantId"":""069217458ECC4F47A267B9494114F939"",""assignmentId"":""0198ee70-a724-7702-8873-99aed0aa5b10"",""projectId"":""0198ee3c-27ac-7803-a9ea-f3b4ad4ad678""}","https://test12345.live/?num_scrambled_semantic=8&num_scrambled_causal=4&num_scrambled_schematic=4&participantId=069217458ECC4F47A267B9494114F939&assignmentId=0198ee70-a724-7702-8873-99aed0aa5b10&projectId=0198ee3c-27ac-7803-a9ea-f3b4ad4ad678","069217458ECC4F47A267B9494114F939-2025-08-28-03-00-24","","652","","images/causal_sequence/dog_causal/dog_causal_8.png","0","",""
"","","","","","image-button-response","80","455481","0.0-12.0-1.0-2.7","069217458ECC4F47A267B9494114F939","069217458ECC4F47A267B9494114F939","0198ee70-a724-7702-8873-99aed0aa5b10","0198ee3c-27ac-7803-a9ea-f3b4ad4ad678","{""num_scrambled_semantic"":""8"",""num_scrambled_causal"":""4"",""num_scrambled_schematic"":""4"",""participantId"":""069217458ECC4F47A267B9494114F939"",""assignmentId"":""0198ee70-a724-7702-8873-99aed0aa5b10"",""projectId"":""0198ee3c-27ac-7803-a9ea-f3b4ad4ad678""}","https://test12345.live/?num_scrambled_semantic=8&num_scrambled_causal=4&num_scrambled_schematic=4&participantId=069217458ECC4F47A267B9494114F939&assignmentId=0198ee70-a724-7702-8873-99aed0aa5b10&projectId=0198ee3c-27ac-7803-a9ea-f3b4ad4ad678","069217458ECC4F47A267B9494114F939-2025-08-28-03-00-24","","null","","[]","null","",""
"","","","","","image-button-response","81","459987","0.0-12.0-1.0-0.8","069217458ECC4F47A267B9494114F939","069217458ECC4F47A267B9494114F939","0198ee70-a724-7702-8873-99aed0aa5b10","0198ee3c-27ac-7803-a9ea-f3b4ad4ad678","{""num_scrambled_semantic"":""8"",""num_scrambled_causal"":""4"",""num_scrambled_schematic"":""4"",""participantId"":""069217458ECC4F47A267B9494114F939"",""assignmentId"":""0198ee70-a724-7702-8873-99aed0aa5b10"",""projectId"":""0198ee3c-27ac-7803-a9ea-f3b4ad4ad678""}","https://test12345.live/?num_scrambled_semantic=8&num_scrambled_causal=4&num_scrambled_schematic=4&participantId=069217458ECC4F47A267B9494114F939&assignmentId=0198ee70-a724-7702-8873-99aed0aa5b10&projectId=0198ee3c-27ac-7803-a9ea-f3b4ad4ad678","069217458ECC4F47A267B9494114F939-2025-08-28-03-00-24","","null","","images/causal_sequence/dog_causal/dog_causal_9.png","null","",""
"","","","","","image-button-response","82","460627","0.0-12.0-1.0-1.8","069217458ECC4F47A267B9494114F939","069217458ECC4F47A267B9494114F939","0198ee70-a724-7702-8873-99aed0aa5b10","0198ee3c-27ac-7803-a9ea-f3b4ad4ad678","{""num_scrambled_semantic"":""8"",""num_scrambled_causal"":""4"",""num_scrambled_schematic"":""4"",""participantId"":""069217458ECC4F47A267B9494114F939"",""assignmentId"":""0198ee70-a724-7702-8873-99aed0aa5b10"",""projectId"":""0198ee3c-27ac-7803-a9ea-f3b4ad4ad678""}","https://test12345.live/?num_scrambled_semantic=8&num_scrambled_causal=4&num_scrambled_schematic=4&participantId=069217458ECC4F47A267B9494114F939&assignmentId=0198ee70-a724-7702-8873-99aed0aa5b10&projectId=0198ee3c-27ac-7803-a9ea-f3b4ad4ad678","069217458ECC4F47A267B9494114F939-2025-08-28-03-00-24","","639","","images/causal_sequence/dog_causal/dog_causal_9.png","0","",""
"","","","","","image-button-response","83","462433","0.0-12.0-1.0-2.8","069217458ECC4F47A267B9494114F939","069217458ECC4F47A267B9494114F939","0198ee70-a724-7702-8873-99aed0aa5b10","0198ee3c-27ac-7803-a9ea-f3b4ad4ad678","{""num_scrambled_semantic"":""8"",""num_scrambled_causal"":""4"",""num_scrambled_schematic"":""4"",""participantId"":""069217458ECC4F47A267B9494114F939"",""assignmentId"":""0198ee70-a724-7702-8873-99aed0aa5b10"",""projectId"":""0198ee3c-27ac-7803-a9ea-f3b4ad4ad678""}","https://test12345.live/?num_scrambled_semantic=8&num_scrambled_causal=4&num_scrambled_schematic=4&participantId=069217458ECC4F47A267B9494114F939&assignmentId=0198ee70-a724-7702-8873-99aed0aa5b10&projectId=0198ee3c-27ac-7803-a9ea-f3b4ad4ad678","069217458ECC4F47A267B9494114F939-2025-08-28-03-00-24","","null","","[]","null","",""
"","","","","","image-button-response","84","466939","0.0-12.0-1.0-0.9","069217458ECC4F47A267B9494114F939","069217458ECC4F47A267B9494114F939","0198ee70-a724-7702-8873-99aed0aa5b10","0198ee3c-27ac-7803-a9ea-f3b4ad4ad678","{""num_scrambled_semantic"":""8"",""num_scrambled_causal"":""4"",""num_scrambled_schematic"":""4"",""participantId"":""069217458ECC4F47A267B9494114F939"",""assignmentId"":""0198ee70-a724-7702-8873-99aed0aa5b10"",""projectId"":""0198ee3c-27ac-7803-a9ea-f3b4ad4ad678""}","https://test12345.live/?num_scrambled_semantic=8&num_scrambled_causal=4&num_scrambled_schematic=4&participantId=069217458ECC4F47A267B9494114F939&assignmentId=0198ee70-a724-7702-8873-99aed0aa5b10&projectId=0198ee3c-27ac-7803-a9ea-f3b4ad4ad678","069217458ECC4F47A267B9494114F939-2025-08-28-03-00-24","","null","","images/causal_sequence/dog_causal/dog_causal_ten.png","null","",""
"","","","","","image-button-response","85","469186","0.0-12.0-1.0-1.9","069217458ECC4F47A267B9494114F939","069217458ECC4F47A267B9494114F939","0198ee70-a724-7702-8873-99aed0aa5b10","0198ee3c-27ac-7803-a9ea-f3b4ad4ad678","{""num_scrambled_semantic"":""8"",""num_scrambled_causal"":""4"",""num_scrambled_schematic"":""4"",""participantId"":""069217458ECC4F47A267B9494114F939"",""assignmentId"":""0198ee70-a724-7702-8873-99aed0aa5b10"",""projectId"":""0198ee3c-27ac-7803-a9ea-f3b4ad4ad678""}","https://test12345.live/?num_scrambled_semantic=8&num_scrambled_causal=4&num_scrambled_schematic=4&participantId=069217458ECC4F47A267B9494114F939&assignmentId=0198ee70-a724-7702-8873-99aed0aa5b10&projectId=0198ee3c-27ac-7803-a9ea-f3b4ad4ad678","069217458ECC4F47A267B9494114F939-2025-08-28-03-00-24","","2247","","images/causal_sequence/dog_causal/dog_causal_ten.png","0","",""
"","","","","","image-button-response","86","470993","0.0-12.0-1.0-2.9","069217458ECC4F47A267B9494114F939","069217458ECC4F47A267B9494114F939","0198ee70-a724-7702-8873-99aed0aa5b10","0198ee3c-27ac-7803-a9ea-f3b4ad4ad678","{""num_scrambled_semantic"":""8"",""num_scrambled_causal"":""4"",""num_scrambled_schematic"":""4"",""participantId"":""069217458ECC4F47A267B9494114F939"",""assignmentId"":""0198ee70-a724-7702-8873-99aed0aa5b10"",""projectId"":""0198ee3c-27ac-7803-a9ea-f3b4ad4ad678""}","https://test12345.live/?num_scrambled_semantic=8&num_scrambled_causal=4&num_scrambled_schematic=4&participantId=069217458ECC4F47A267B9494114F939&assignmentId=0198ee70-a724-7702-8873-99aed0aa5b10&projectId=0198ee3c-27ac-7803-a9ea-f3b4ad4ad678","069217458ECC4F47A267B9494114F939-2025-08-28-03-00-24","","null","","[]","null","",""
"","","","","","html-audio-response","87","493184","0.0-13.0","069217458ECC4F47A267B9494114F939","069217458ECC4F47A267B9494114F939","0198ee70-a724-7702-8873-99aed0aa5b10","0198ee3c-27ac-7803-a9ea-f3b4ad4ad678","{""num_scrambled_semantic"":""8"",""num_scrambled_causal"":""4"",""num_scrambled_schematic"":""4"",""participantId"":""069217458ECC4F47A267B9494114F939"",""assignmentId"":""0198ee70-a724-7702-8873-99aed0aa5b10"",""projectId"":""0198ee3c-27ac-7803-a9ea-f3b4ad4ad678""}","https://test12345.live/?num_scrambled_semantic=8&num_scrambled_causal=4&num_scrambled_schematic=4&participantId=069217458ECC4F47A267B9494114F939&assignmentId=0198ee70-a724-7702-8873-99aed0aa5b10&projectId=0198ee3c-27ac-7803-a9ea-f3b4ad4ad678","069217458ECC4F47A267B9494114F939-2025-08-28-03-00-24","","20897","","[""<span style=\""color: red; font-size: 24px\""> NOW RECORDING</span><p>Please say out loud all the images you saw, in the order of the story they create. Try to recall the sequence of events as they appeared in the story, not necessarily the order they were presented on the screen.</p>""]","","1","dog_causal"
"","","","","","image-button-response","88","499189","0.0-14.0-0.0","069217458ECC4F47A267B9494114F939","069217458ECC4F47A267B9494114F939","0198ee70-a724-7702-8873-99aed0aa5b10","0198ee3c-27ac-7803-a9ea-f3b4ad4ad678","{""num_scrambled_semantic"":""8"",""num_scrambled_causal"":""4"",""num_scrambled_schematic"":""4"",""participantId"":""069217458ECC4F47A267B9494114F939"",""assignmentId"":""0198ee70-a724-7702-8873-99aed0aa5b10"",""projectId"":""0198ee3c-27ac-7803-a9ea-f3b4ad4ad678""}","https://test12345.live/?num_scrambled_semantic=8&num_scrambled_causal=4&num_scrambled_schematic=4&participantId=069217458ECC4F47A267B9494114F939&assignmentId=0198ee70-a724-7702-8873-99aed0aa5b10&projectId=0198ee3c-27ac-7803-a9ea-f3b4ad4ad678","069217458ECC4F47A267B9494114F939-2025-08-28-03-00-24","","null","","images/schematic_sequence/restaurant_scheme/restaurant_scheme_0.png","null","",""
"","","","","","image-button-response","89","503696","0.0-14.0-1.0-0.0","069217458ECC4F47A267B9494114F939","069217458ECC4F47A267B9494114F939","0198ee70-a724-7702-8873-99aed0aa5b10","0198ee3c-27ac-7803-a9ea-f3b4ad4ad678","{""num_scrambled_semantic"":""8"",""num_scrambled_causal"":""4"",""num_scrambled_schematic"":""4"",""participantId"":""069217458ECC4F47A267B9494114F939"",""assignmentId"":""0198ee70-a724-7702-8873-99aed0aa5b10"",""projectId"":""0198ee3c-27ac-7803-a9ea-f3b4ad4ad678""}","https://test12345.live/?num_scrambled_semantic=8&num_scrambled_causal=4&num_scrambled_schematic=4&participantId=069217458ECC4F47A267B9494114F939&assignmentId=0198ee70-a724-7702-8873-99aed0aa5b10&projectId=0198ee3c-27ac-7803-a9ea-f3b4ad4ad678","069217458ECC4F47A267B9494114F939-2025-08-28-03-00-24","","null","","images/schematic_sequence/restaurant_scheme/restaurant_scheme_8.png","null","",""
"","","","","","image-button-response","90","505446","0.0-14.0-1.0-1.0","069217458ECC4F47A267B9494114F939","069217458ECC4F47A267B9494114F939","0198ee70-a724-7702-8873-99aed0aa5b10","0198ee3c-27ac-7803-a9ea-f3b4ad4ad678","{""num_scrambled_semantic"":""8"",""num_scrambled_causal"":""4"",""num_scrambled_schematic"":""4"",""participantId"":""069217458ECC4F47A267B9494114F939"",""assignmentId"":""0198ee70-a724-7702-8873-99aed0aa5b10"",""projectId"":""0198ee3c-27ac-7803-a9ea-f3b4ad4ad678""}","https://test12345.live/?num_scrambled_semantic=8&num_scrambled_causal=4&num_scrambled_schematic=4&participantId=069217458ECC4F47A267B9494114F939&assignmentId=0198ee70-a724-7702-8873-99aed0aa5b10&projectId=0198ee3c-27ac-7803-a9ea-f3b4ad4ad678","069217458ECC4F47A267B9494114F939-2025-08-28-03-00-24","","1750","","images/schematic_sequence/restaurant_scheme/restaurant_scheme_8.png","1","",""
"","","","","","image-button-response","91","507249","0.0-14.0-1.0-2.0","069217458ECC4F47A267B9494114F939","069217458ECC4F47A267B9494114F939","0198ee70-a724-7702-8873-99aed0aa5b10","0198ee3c-27ac-7803-a9ea-f3b4ad4ad678","{""num_scrambled_semantic"":""8"",""num_scrambled_causal"":""4"",""num_scrambled_schematic"":""4"",""participantId"":""069217458ECC4F47A267B9494114F939"",""assignmentId"":""0198ee70-a724-7702-8873-99aed0aa5b10"",""projectId"":""0198ee3c-27ac-7803-a9ea-f3b4ad4ad678""}","https://test12345.live/?num_scrambled_semantic=8&num_scrambled_causal=4&num_scrambled_schematic=4&participantId=069217458ECC4F47A267B9494114F939&assignmentId=0198ee70-a724-7702-8873-99aed0aa5b10&projectId=0198ee3c-27ac-7803-a9ea-f3b4ad4ad678","069217458ECC4F47A267B9494114F939-2025-08-28-03-00-24","","null","","[]","null","",""
"","","","","","image-button-response","92","511752","0.0-14.0-1.0-0.1","069217458ECC4F47A267B9494114F939","069217458ECC4F47A267B9494114F939","0198ee70-a724-7702-8873-99aed0aa5b10","0198ee3c-27ac-7803-a9ea-f3b4ad4ad678","{""num_scrambled_semantic"":""8"",""num_scrambled_causal"":""4"",""num_scrambled_schematic"":""4"",""participantId"":""069217458ECC4F47A267B9494114F939"",""assignmentId"":""0198ee70-a724-7702-8873-99aed0aa5b10"",""projectId"":""0198ee3c-27ac-7803-a9ea-f3b4ad4ad678""}","https://test12345.live/?num_scrambled_semantic=8&num_scrambled_causal=4&num_scrambled_schematic=4&participantId=069217458ECC4F47A267B9494114F939&assignmentId=0198ee70-a724-7702-8873-99aed0aa5b10&projectId=0198ee3c-27ac-7803-a9ea-f3b4ad4ad678","069217458ECC4F47A267B9494114F939-2025-08-28-03-00-24","","null","","images/schematic_sequence/restaurant_scheme/restaurant_scheme_1.png","null","",""
"","","","","","image-button-response","93","513897","0.0-14.0-1.0-1.1","069217458ECC4F47A267B9494114F939","069217458ECC4F47A267B9494114F939","0198ee70-a724-7702-8873-99aed0aa5b10","0198ee3c-27ac-7803-a9ea-f3b4ad4ad678","{""num_scrambled_semantic"":""8"",""num_scrambled_causal"":""4"",""num_scrambled_schematic"":""4"",""participantId"":""069217458ECC4F47A267B9494114F939"",""assignmentId"":""0198ee70-a724-7702-8873-99aed0aa5b10"",""projectId"":""0198ee3c-27ac-7803-a9ea-f3b4ad4ad678""}","https://test12345.live/?num_scrambled_semantic=8&num_scrambled_causal=4&num_scrambled_schematic=4&participantId=069217458ECC4F47A267B9494114F939&assignmentId=0198ee70-a724-7702-8873-99aed0aa5b10&projectId=0198ee3c-27ac-7803-a9ea-f3b4ad4ad678","069217458ECC4F47A267B9494114F939-2025-08-28-03-00-24","","2144","","images/schematic_sequence/restaurant_scheme/restaurant_scheme_1.png","0","",""
"","","","","","image-button-response","94","515702","0.0-14.0-1.0-2.1","069217458ECC4F47A267B9494114F939","069217458ECC4F47A267B9494114F939","0198ee70-a724-7702-8873-99aed0aa5b10","0198ee3c-27ac-7803-a9ea-f3b4ad4ad678","{""num_scrambled_semantic"":""8"",""num_scrambled_causal"":""4"",""num_scrambled_schematic"":""4"",""participantId"":""069217458ECC4F47A267B9494114F939"",""assignmentId"":""0198ee70-a724-7702-8873-99aed0aa5b10"",""projectId"":""0198ee3c-27ac-7803-a9ea-f3b4ad4ad678""}","https://test12345.live/?num_scrambled_semantic=8&num_scrambled_causal=4&num_scrambled_schematic=4&participantId=069217458ECC4F47A267B9494114F939&assignmentId=0198ee70-a724-7702-8873-99aed0aa5b10&projectId=0198ee3c-27ac-7803-a9ea-f3b4ad4ad678","069217458ECC4F47A267B9494114F939-2025-08-28-03-00-24","","null","","[]","null","",""
"","","","","","image-button-response","95","520203","0.0-14.0-1.0-0.2","069217458ECC4F47A267B9494114F939","069217458ECC4F47A267B9494114F939","0198ee70-a724-7702-8873-99aed0aa5b10","0198ee3c-27ac-7803-a9ea-f3b4ad4ad678","{""num_scrambled_semantic"":""8"",""num_scrambled_causal"":""4"",""num_scrambled_schematic"":""4"",""participantId"":""069217458ECC4F47A267B9494114F939"",""assignmentId"":""0198ee70-a724-7702-8873-99aed0aa5b10"",""projectId"":""0198ee3c-27ac-7803-a9ea-f3b4ad4ad678""}","https://test12345.live/?num_scrambled_semantic=8&num_scrambled_causal=4&num_scrambled_schematic=4&participantId=069217458ECC4F47A267B9494114F939&assignmentId=0198ee70-a724-7702-8873-99aed0aa5b10&projectId=0198ee3c-27ac-7803-a9ea-f3b4ad4ad678","069217458ECC4F47A267B9494114F939-2025-08-28-03-00-24","","null","","images/schematic_sequence/restaurant_scheme/restaurant_scheme_2.png","null","",""
"","","","","","image-button-response","96","521298","0.0-14.0-1.0-1.2","069217458ECC4F47A267B9494114F939","069217458ECC4F47A267B9494114F939","0198ee70-a724-7702-8873-99aed0aa5b10","0198ee3c-27ac-7803-a9ea-f3b4ad4ad678","{""num_scrambled_semantic"":""8"",""num_scrambled_causal"":""4"",""num_scrambled_schematic"":""4"",""participantId"":""069217458ECC4F47A267B9494114F939"",""assignmentId"":""0198ee70-a724-7702-8873-99aed0aa5b10"",""projectId"":""0198ee3c-27ac-7803-a9ea-f3b4ad4ad678""}","https://test12345.live/?num_scrambled_semantic=8&num_scrambled_causal=4&num_scrambled_schematic=4&participantId=069217458ECC4F47A267B9494114F939&assignmentId=0198ee70-a724-7702-8873-99aed0aa5b10&projectId=0198ee3c-27ac-7803-a9ea-f3b4ad4ad678","069217458ECC4F47A267B9494114F939-2025-08-28-03-00-24","","1094","","images/schematic_sequence/restaurant_scheme/restaurant_scheme_2.png","1","",""
"","","","","","image-button-response","97","523102","0.0-14.0-1.0-2.2","069217458ECC4F47A267B9494114F939","069217458ECC4F47A267B9494114F939","0198ee70-a724-7702-8873-99aed0aa5b10","0198ee3c-27ac-7803-a9ea-f3b4ad4ad678","{""num_scrambled_semantic"":""8"",""num_scrambled_causal"":""4"",""num_scrambled_schematic"":""4"",""participantId"":""069217458ECC4F47A267B9494114F939"",""assignmentId"":""0198ee70-a724-7702-8873-99aed0aa5b10"",""projectId"":""0198ee3c-27ac-7803-a9ea-f3b4ad4ad678""}","https://test12345.live/?num_scrambled_semantic=8&num_scrambled_causal=4&num_scrambled_schematic=4&participantId=069217458ECC4F47A267B9494114F939&assignmentId=0198ee70-a724-7702-8873-99aed0aa5b10&projectId=0198ee3c-27ac-7803-a9ea-f3b4ad4ad678","069217458ECC4F47A267B9494114F939-2025-08-28-03-00-24","","null","","[]","null","",""
"","","","","","image-button-response","98","527605","0.0-14.0-1.0-0.3","069217458ECC4F47A267B9494114F939","069217458ECC4F47A267B9494114F939","0198ee70-a724-7702-8873-99aed0aa5b10","0198ee3c-27ac-7803-a9ea-f3b4ad4ad678","{""num_scrambled_semantic"":""8"",""num_scrambled_causal"":""4"",""num_scrambled_schematic"":""4"",""participantId"":""069217458ECC4F47A267B9494114F939"",""assignmentId"":""0198ee70-a724-7702-8873-99aed0aa5b10"",""projectId"":""0198ee3c-27ac-7803-a9ea-f3b4ad4ad678""}","https://test12345.live/?num_scrambled_semantic=8&num_scrambled_causal=4&num_scrambled_schematic=4&participantId=069217458ECC4F47A267B9494114F939&assignmentId=0198ee70-a724-7702-8873-99aed0aa5b10&projectId=0198ee3c-27ac-7803-a9ea-f3b4ad4ad678","069217458ECC4F47A267B9494114F939-2025-08-28-03-00-24","","null","","images/schematic_sequence/restaurant_scheme/restaurant_scheme_ten.png","null","",""
"","","","","","image-button-response","99","528361","0.0-14.0-1.0-1.3","069217458ECC4F47A267B9494114F939","069217458ECC4F47A267B9494114F939","0198ee70-a724-7702-8873-99aed0aa5b10","0198ee3c-27ac-7803-a9ea-f3b4ad4ad678","{""num_scrambled_semantic"":""8"",""num_scrambled_causal"":""4"",""num_scrambled_schematic"":""4"",""participantId"":""069217458ECC4F47A267B9494114F939"",""assignmentId"":""0198ee70-a724-7702-8873-99aed0aa5b10"",""projectId"":""0198ee3c-27ac-7803-a9ea-f3b4ad4ad678""}","https://test12345.live/?num_scrambled_semantic=8&num_scrambled_causal=4&num_scrambled_schematic=4&participantId=069217458ECC4F47A267B9494114F939&assignmentId=0198ee70-a724-7702-8873-99aed0aa5b10&projectId=0198ee3c-27ac-7803-a9ea-f3b4ad4ad678","069217458ECC4F47A267B9494114F939-2025-08-28-03-00-24","","756","","images/schematic_sequence/restaurant_scheme/restaurant_scheme_ten.png","0","",""
"","","","","","image-button-response","100","530163","0.0-14.0-1.0-2.3","069217458ECC4F47A267B9494114F939","069217458ECC4F47A267B9494114F939","0198ee70-a724-7702-8873-99aed0aa5b10","0198ee3c-27ac-7803-a9ea-f3b4ad4ad678","{""num_scrambled_semantic"":""8"",""num_scrambled_causal"":""4"",""num_scrambled_schematic"":""4"",""participantId"":""069217458ECC4F47A267B9494114F939"",""assignmentId"":""0198ee70-a724-7702-8873-99aed0aa5b10"",""projectId"":""0198ee3c-27ac-7803-a9ea-f3b4ad4ad678""}","https://test12345.live/?num_scrambled_semantic=8&num_scrambled_causal=4&num_scrambled_schematic=4&participantId=069217458ECC4F47A267B9494114F939&assignmentId=0198ee70-a724-7702-8873-99aed0aa5b10&projectId=0198ee3c-27ac-7803-a9ea-f3b4ad4ad678","069217458ECC4F47A267B9494114F939-2025-08-28-03-00-24","","null","","[]","null","",""
"","","","","","image-button-response","101","534664","0.0-14.0-1.0-0.4","069217458ECC4F47A267B9494114F939","069217458ECC4F47A267B9494114F939","0198ee70-a724-7702-8873-99aed0aa5b10","0198ee3c-27ac-7803-a9ea-f3b4ad4ad678","{""num_scrambled_semantic"":""8"",""num_scrambled_causal"":""4"",""num_scrambled_schematic"":""4"",""participantId"":""069217458ECC4F47A267B9494114F939"",""assignmentId"":""0198ee70-a724-7702-8873-99aed0aa5b10"",""projectId"":""0198ee3c-27ac-7803-a9ea-f3b4ad4ad678""}","https://test12345.live/?num_scrambled_semantic=8&num_scrambled_causal=4&num_scrambled_schematic=4&participantId=069217458ECC4F47A267B9494114F939&assignmentId=0198ee70-a724-7702-8873-99aed0aa5b10&projectId=0198ee3c-27ac-7803-a9ea-f3b4ad4ad678","069217458ECC4F47A267B9494114F939-2025-08-28-03-00-24","","null","","images/schematic_sequence/restaurant_scheme/restaurant_scheme_6.png","null","",""
"","","","","","image-button-response","102","535967","0.0-14.0-1.0-1.4","069217458ECC4F47A267B9494114F939","069217458ECC4F47A267B9494114F939","0198ee70-a724-7702-8873-99aed0aa5b10","0198ee3c-27ac-7803-a9ea-f3b4ad4ad678","{""num_scrambled_semantic"":""8"",""num_scrambled_causal"":""4"",""num_scrambled_schematic"":""4"",""participantId"":""069217458ECC4F47A267B9494114F939"",""assignmentId"":""0198ee70-a724-7702-8873-99aed0aa5b10"",""projectId"":""0198ee3c-27ac-7803-a9ea-f3b4ad4ad678""}","https://test12345.live/?num_scrambled_semantic=8&num_scrambled_causal=4&num_scrambled_schematic=4&participantId=069217458ECC4F47A267B9494114F939&assignmentId=0198ee70-a724-7702-8873-99aed0aa5b10&projectId=0198ee3c-27ac-7803-a9ea-f3b4ad4ad678","069217458ECC4F47A267B9494114F939-2025-08-28-03-00-24","","1302","","images/schematic_sequence/restaurant_scheme/restaurant_scheme_6.png","1","",""
"","","","","","image-button-response","103","537768","0.0-14.0-1.0-2.4","069217458ECC4F47A267B9494114F939","069217458ECC4F47A267B9494114F939","0198ee70-a724-7702-8873-99aed0aa5b10","0198ee3c-27ac-7803-a9ea-f3b4ad4ad678","{""num_scrambled_semantic"":""8"",""num_scrambled_causal"":""4"",""num_scrambled_schematic"":""4"",""participantId"":""069217458ECC4F47A267B9494114F939"",""assignmentId"":""0198ee70-a724-7702-8873-99aed0aa5b10"",""projectId"":""0198ee3c-27ac-7803-a9ea-f3b4ad4ad678""}","https://test12345.live/?num_scrambled_semantic=8&num_scrambled_causal=4&num_scrambled_schematic=4&participantId=069217458ECC4F47A267B9494114F939&assignmentId=0198ee70-a724-7702-8873-99aed0aa5b10&projectId=0198ee3c-27ac-7803-a9ea-f3b4ad4ad678","069217458ECC4F47A267B9494114F939-2025-08-28-03-00-24","","null","","[]","null","",""
"","","","","","image-button-response","104","542269","0.0-14.0-1.0-0.5","069217458ECC4F47A267B9494114F939","069217458ECC4F47A267B9494114F939","0198ee70-a724-7702-8873-99aed0aa5b10","0198ee3c-27ac-7803-a9ea-f3b4ad4ad678","{""num_scrambled_semantic"":""8"",""num_scrambled_causal"":""4"",""num_scrambled_schematic"":""4"",""participantId"":""069217458ECC4F47A267B9494114F939"",""assignmentId"":""0198ee70-a724-7702-8873-99aed0aa5b10"",""projectId"":""0198ee3c-27ac-7803-a9ea-f3b4ad4ad678""}","https://test12345.live/?num_scrambled_semantic=8&num_scrambled_causal=4&num_scrambled_schematic=4&participantId=069217458ECC4F47A267B9494114F939&assignmentId=0198ee70-a724-7702-8873-99aed0aa5b10&projectId=0198ee3c-27ac-7803-a9ea-f3b4ad4ad678","069217458ECC4F47A267B9494114F939-2025-08-28-03-00-24","","null","","images/schematic_sequence/restaurant_scheme/restaurant_scheme_7.png","null","",""
"","","","","","image-button-response","105","542832","0.0-14.0-1.0-1.5","069217458ECC4F47A267B9494114F939","069217458ECC4F47A267B9494114F939","0198ee70-a724-7702-8873-99aed0aa5b10","0198ee3c-27ac-7803-a9ea-f3b4ad4ad678","{""num_scrambled_semantic"":""8"",""num_scrambled_causal"":""4"",""num_scrambled_schematic"":""4"",""participantId"":""069217458ECC4F47A267B9494114F939"",""assignmentId"":""0198ee70-a724-7702-8873-99aed0aa5b10"",""projectId"":""0198ee3c-27ac-7803-a9ea-f3b4ad4ad678""}","https://test12345.live/?num_scrambled_semantic=8&num_scrambled_causal=4&num_scrambled_schematic=4&participantId=069217458ECC4F47A267B9494114F939&assignmentId=0198ee70-a724-7702-8873-99aed0aa5b10&projectId=0198ee3c-27ac-7803-a9ea-f3b4ad4ad678","069217458ECC4F47A267B9494114F939-2025-08-28-03-00-24","","562","","images/schematic_sequence/restaurant_scheme/restaurant_scheme_7.png","1","",""
"","","","","","image-button-response","106","544636","0.0-14.0-1.0-2.5","069217458ECC4F47A267B9494114F939","069217458ECC4F47A267B9494114F939","0198ee70-a724-7702-8873-99aed0aa5b10","0198ee3c-27ac-7803-a9ea-f3b4ad4ad678","{""num_scrambled_semantic"":""8"",""num_scrambled_causal"":""4"",""num_scrambled_schematic"":""4"",""participantId"":""069217458ECC4F47A267B9494114F939"",""assignmentId"":""0198ee70-a724-7702-8873-99aed0aa5b10"",""projectId"":""0198ee3c-27ac-7803-a9ea-f3b4ad4ad678""}","https://test12345.live/?num_scrambled_semantic=8&num_scrambled_causal=4&num_scrambled_schematic=4&participantId=069217458ECC4F47A267B9494114F939&assignmentId=0198ee70-a724-7702-8873-99aed0aa5b10&projectId=0198ee3c-27ac-7803-a9ea-f3b4ad4ad678","069217458ECC4F47A267B9494114F939-2025-08-28-03-00-24","","null","","[]","null","",""
"","","","","","image-button-response","107","549139","0.0-14.0-1.0-0.6","069217458ECC4F47A267B9494114F939","069217458ECC4F47A267B9494114F939","0198ee70-a724-7702-8873-99aed0aa5b10","0198ee3c-27ac-7803-a9ea-f3b4ad4ad678","{""num_scrambled_semantic"":""8"",""num_scrambled_causal"":""4"",""num_scrambled_schematic"":""4"",""participantId"":""069217458ECC4F47A267B9494114F939"",""assignmentId"":""0198ee70-a724-7702-8873-99aed0aa5b10"",""projectId"":""0198ee3c-27ac-7803-a9ea-f3b4ad4ad678""}","https://test12345.live/?num_scrambled_semantic=8&num_scrambled_causal=4&num_scrambled_schematic=4&participantId=069217458ECC4F47A267B9494114F939&assignmentId=0198ee70-a724-7702-8873-99aed0aa5b10&projectId=0198ee3c-27ac-7803-a9ea-f3b4ad4ad678","069217458ECC4F47A267B9494114F939-2025-08-28-03-00-24","","null","","images/schematic_sequence/restaurant_scheme/restaurant_scheme_4.png","null","",""
"","","","","","image-button-response","108","550210","0.0-14.0-1.0-1.6","069217458ECC4F47A267B9494114F939","069217458ECC4F47A267B9494114F939","0198ee70-a724-7702-8873-99aed0aa5b10","0198ee3c-27ac-7803-a9ea-f3b4ad4ad678","{""num_scrambled_semantic"":""8"",""num_scrambled_causal"":""4"",""num_scrambled_schematic"":""4"",""participantId"":""069217458ECC4F47A267B9494114F939"",""assignmentId"":""0198ee70-a724-7702-8873-99aed0aa5b10"",""projectId"":""0198ee3c-27ac-7803-a9ea-f3b4ad4ad678""}","https://test12345.live/?num_scrambled_semantic=8&num_scrambled_causal=4&num_scrambled_schematic=4&participantId=069217458ECC4F47A267B9494114F939&assignmentId=0198ee70-a724-7702-8873-99aed0aa5b10&projectId=0198ee3c-27ac-7803-a9ea-f3b4ad4ad678","069217458ECC4F47A267B9494114F939-2025-08-28-03-00-24","","1071","","images/schematic_sequence/restaurant_scheme/restaurant_scheme_4.png","0","",""
"","","","","","image-button-response","109","552011","0.0-14.0-1.0-2.6","069217458ECC4F47A267B9494114F939","069217458ECC4F47A267B9494114F939","0198ee70-a724-7702-8873-99aed0aa5b10","0198ee3c-27ac-7803-a9ea-f3b4ad4ad678","{""num_scrambled_semantic"":""8"",""num_scrambled_causal"":""4"",""num_scrambled_schematic"":""4"",""participantId"":""069217458ECC4F47A267B9494114F939"",""assignmentId"":""0198ee70-a724-7702-8873-99aed0aa5b10"",""projectId"":""0198ee3c-27ac-7803-a9ea-f3b4ad4ad678""}","https://test12345.live/?num_scrambled_semantic=8&num_scrambled_causal=4&num_scrambled_schematic=4&participantId=069217458ECC4F47A267B9494114F939&assignmentId=0198ee70-a724-7702-8873-99aed0aa5b10&projectId=0198ee3c-27ac-7803-a9ea-f3b4ad4ad678","069217458ECC4F47A267B9494114F939-2025-08-28-03-00-24","","null","","[]","null","",""
"","","","","","image-button-response","110","556514","0.0-14.0-1.0-0.7","069217458ECC4F47A267B9494114F939","069217458ECC4F47A267B9494114F939","0198ee70-a724-7702-8873-99aed0aa5b10","0198ee3c-27ac-7803-a9ea-f3b4ad4ad678","{""num_scrambled_semantic"":""8"",""num_scrambled_causal"":""4"",""num_scrambled_schematic"":""4"",""participantId"":""069217458ECC4F47A267B9494114F939"",""assignmentId"":""0198ee70-a724-7702-8873-99aed0aa5b10"",""projectId"":""0198ee3c-27ac-7803-a9ea-f3b4ad4ad678""}","https://test12345.live/?num_scrambled_semantic=8&num_scrambled_causal=4&num_scrambled_schematic=4&participantId=069217458ECC4F47A267B9494114F939&assignmentId=0198ee70-a724-7702-8873-99aed0aa5b10&projectId=0198ee3c-27ac-7803-a9ea-f3b4ad4ad678","069217458ECC4F47A267B9494114F939-2025-08-28-03-00-24","","null","","images/schematic_sequence/restaurant_scheme/restaurant_scheme_5.png","null","",""
"","","","","","image-button-response","111","557415","0.0-14.0-1.0-1.7","069217458ECC4F47A267B9494114F939","069217458ECC4F47A267B9494114F939","0198ee70-a724-7702-8873-99aed0aa5b10","0198ee3c-27ac-7803-a9ea-f3b4ad4ad678","{""num_scrambled_semantic"":""8"",""num_scrambled_causal"":""4"",""num_scrambled_schematic"":""4"",""participantId"":""069217458ECC4F47A267B9494114F939"",""assignmentId"":""0198ee70-a724-7702-8873-99aed0aa5b10"",""projectId"":""0198ee3c-27ac-7803-a9ea-f3b4ad4ad678""}","https://test12345.live/?num_scrambled_semantic=8&num_scrambled_causal=4&num_scrambled_schematic=4&participantId=069217458ECC4F47A267B9494114F939&assignmentId=0198ee70-a724-7702-8873-99aed0aa5b10&projectId=0198ee3c-27ac-7803-a9ea-f3b4ad4ad678","069217458ECC4F47A267B9494114F939-2025-08-28-03-00-24","","901","","images/schematic_sequence/restaurant_scheme/restaurant_scheme_5.png","0","",""
"","","","","","image-button-response","112","559221","0.0-14.0-1.0-2.7","069217458ECC4F47A267B9494114F939","069217458ECC4F47A267B9494114F939","0198ee70-a724-7702-8873-99aed0aa5b10","0198ee3c-27ac-7803-a9ea-f3b4ad4ad678","{""num_scrambled_semantic"":""8"",""num_scrambled_causal"":""4"",""num_scrambled_schematic"":""4"",""participantId"":""069217458ECC4F47A267B9494114F939"",""assignmentId"":""0198ee70-a724-7702-8873-99aed0aa5b10"",""projectId"":""0198ee3c-27ac-7803-a9ea-f3b4ad4ad678""}","https://test12345.live/?num_scrambled_semantic=8&num_scrambled_causal=4&num_scrambled_schematic=4&participantId=069217458ECC4F47A267B9494114F939&assignmentId=0198ee70-a724-7702-8873-99aed0aa5b10&projectId=0198ee3c-27ac-7803-a9ea-f3b4ad4ad678","069217458ECC4F47A267B9494114F939-2025-08-28-03-00-24","","null","","[]","null","",""
"","","","","","image-button-response","113","563724","0.0-14.0-1.0-0.8","069217458ECC4F47A267B9494114F939","069217458ECC4F47A267B9494114F939","0198ee70-a724-7702-8873-99aed0aa5b10","0198ee3c-27ac-7803-a9ea-f3b4ad4ad678","{""num_scrambled_semantic"":""8"",""num_scrambled_causal"":""4"",""num_scrambled_schematic"":""4"",""participantId"":""069217458ECC4F47A267B9494114F939"",""assignmentId"":""0198ee70-a724-7702-8873-99aed0aa5b10"",""projectId"":""0198ee3c-27ac-7803-a9ea-f3b4ad4ad678""}","https://test12345.live/?num_scrambled_semantic=8&num_scrambled_causal=4&num_scrambled_schematic=4&participantId=069217458ECC4F47A267B9494114F939&assignmentId=0198ee70-a724-7702-8873-99aed0aa5b10&projectId=0198ee3c-27ac-7803-a9ea-f3b4ad4ad678","069217458ECC4F47A267B9494114F939-2025-08-28-03-00-24","","null","","images/schematic_sequence/restaurant_scheme/restaurant_scheme_9.png","null","",""
"","","","","","image-button-response","114","564223","0.0-14.0-1.0-1.8","069217458ECC4F47A267B9494114F939","069217458ECC4F47A267B9494114F939","0198ee70-a724-7702-8873-99aed0aa5b10","0198ee3c-27ac-7803-a9ea-f3b4ad4ad678","{""num_scrambled_semantic"":""8"",""num_scrambled_causal"":""4"",""num_scrambled_schematic"":""4"",""participantId"":""069217458ECC4F47A267B9494114F939"",""assignmentId"":""0198ee70-a724-7702-8873-99aed0aa5b10"",""projectId"":""0198ee3c-27ac-7803-a9ea-f3b4ad4ad678""}","https://test12345.live/?num_scrambled_semantic=8&num_scrambled_causal=4&num_scrambled_schematic=4&participantId=069217458ECC4F47A267B9494114F939&assignmentId=0198ee70-a724-7702-8873-99aed0aa5b10&projectId=0198ee3c-27ac-7803-a9ea-f3b4ad4ad678","069217458ECC4F47A267B9494114F939-2025-08-28-03-00-24","","499","","images/schematic_sequence/restaurant_scheme/restaurant_scheme_9.png","0","",""
