"success","timeout","failed_images","failed_audio","failed_video","trial_type","trial_index","time_elapsed","internal_node_id","subject","subject_id","study_id","session_id","urlvar","current_url","audio_id","view_history","rt","device_id","stimulus","response","estimated_stimulus_onset","seq_name"
"true","false","[]","[]","[]","preload","0","5203","0.0-0.0","0806AF6DA36A42189200AF58F574B929","0806AF6DA36A42189200AF58F574B929","0198bd57-974f-7164-bea3-8c8f26b3c0e4","0198bbb8-fd11-701d-9147-68794ad37298","{""num_scrambled_semantic"":""8"",""num_scrambled_causal"":""4"",""num_scrambled_schematic"":""4"",""participantId"":""0806AF6DA36A42189200AF58F574B929"",""assignmentId"":""0198bd57-974f-7164-bea3-8c8f26b3c0e4"",""projectId"":""0198bbb8-fd11-701d-9147-68794ad37298""}","https://test12345.live/?num_scrambled_semantic=8&num_scrambled_causal=4&num_scrambled_schematic=4&participantId=0806AF6DA36A42189200AF58F574B929&assignmentId=0198bd57-974f-7164-bea3-8c8f26b3c0e4&projectId=0198bbb8-fd11-701d-9147-68794ad37298","0806AF6DA36A42189200AF58F574B929-2025-08-18-14-04-04","","","","","","",""
"","","","","","instructions","1","377571","0.0-1.0","0806AF6DA36A42189200AF58F574B929","0806AF6DA36A42189200AF58F574B929","0198bd57-974f-7164-bea3-8c8f26b3c0e4","0198bbb8-fd11-701d-9147-68794ad37298","{""num_scrambled_semantic"":""8"",""num_scrambled_causal"":""4"",""num_scrambled_schematic"":""4"",""participantId"":""0806AF6DA36A42189200AF58F574B929"",""assignmentId"":""0198bd57-974f-7164-bea3-8c8f26b3c0e4"",""projectId"":""0198bbb8-fd11-701d-9147-68794ad37298""}","https://test12345.live/?num_scrambled_semantic=8&num_scrambled_causal=4&num_scrambled_schematic=4&participantId=0806AF6DA36A42189200AF58F574B929&assignmentId=0198bd57-974f-7164-bea3-8c8f26b3c0e4&projectId=0198bbb8-fd11-701d-9147-68794ad37298","0806AF6DA36A42189200AF58F574B929-2025-08-18-14-04-04","[{""page_index"":0,""viewing_time"":372347}]","372347","","","","",""
"","","","","","instructions","2","408630","0.0-2.0","0806AF6DA36A42189200AF58F574B929","0806AF6DA36A42189200AF58F574B929","0198bd57-974f-7164-bea3-8c8f26b3c0e4","0198bbb8-fd11-701d-9147-68794ad37298","{""num_scrambled_semantic"":""8"",""num_scrambled_causal"":""4"",""num_scrambled_schematic"":""4"",""participantId"":""0806AF6DA36A42189200AF58F574B929"",""assignmentId"":""0198bd57-974f-7164-bea3-8c8f26b3c0e4"",""projectId"":""0198bbb8-fd11-701d-9147-68794ad37298""}","https://test12345.live/?num_scrambled_semantic=8&num_scrambled_causal=4&num_scrambled_schematic=4&participantId=0806AF6DA36A42189200AF58F574B929&assignmentId=0198bd57-974f-7164-bea3-8c8f26b3c0e4&projectId=0198bbb8-fd11-701d-9147-68794ad37298","0806AF6DA36A42189200AF58F574B929-2025-08-18-14-04-04","[{""page_index"":0,""viewing_time"":31053}]","31054","","","","",""
"true","","","","","fullscreen","3","413588","0.0-3.0","0806AF6DA36A42189200AF58F574B929","0806AF6DA36A42189200AF58F574B929","0198bd57-974f-7164-bea3-8c8f26b3c0e4","0198bbb8-fd11-701d-9147-68794ad37298","{""num_scrambled_semantic"":""8"",""num_scrambled_causal"":""4"",""num_scrambled_schematic"":""4"",""participantId"":""0806AF6DA36A42189200AF58F574B929"",""assignmentId"":""0198bd57-974f-7164-bea3-8c8f26b3c0e4"",""projectId"":""0198bbb8-fd11-701d-9147-68794ad37298""}","https://test12345.live/?num_scrambled_semantic=8&num_scrambled_causal=4&num_scrambled_schematic=4&participantId=0806AF6DA36A42189200AF58F574B929&assignmentId=0198bd57-974f-7164-bea3-8c8f26b3c0e4&projectId=0198bbb8-fd11-701d-9147-68794ad37298","0806AF6DA36A42189200AF58F574B929-2025-08-18-14-04-04","","3936","","","","",""
"","","","","","initialize-microphone","4","527153","0.0-4.0-0.0","0806AF6DA36A42189200AF58F574B929","0806AF6DA36A42189200AF58F574B929","0198bd57-974f-7164-bea3-8c8f26b3c0e4","0198bbb8-fd11-701d-9147-68794ad37298","{""num_scrambled_semantic"":""8"",""num_scrambled_causal"":""4"",""num_scrambled_schematic"":""4"",""participantId"":""0806AF6DA36A42189200AF58F574B929"",""assignmentId"":""0198bd57-974f-7164-bea3-8c8f26b3c0e4"",""projectId"":""0198bbb8-fd11-701d-9147-68794ad37298""}","https://test12345.live/?num_scrambled_semantic=8&num_scrambled_causal=4&num_scrambled_schematic=4&participantId=0806AF6DA36A42189200AF58F574B929&assignmentId=0198bd57-974f-7164-bea3-8c8f26b3c0e4&projectId=0198bbb8-fd11-701d-9147-68794ad37298","0806AF6DA36A42189200AF58F574B929-2025-08-18-14-04-04","","","a415cadd7d583c4d546d7b2cddddaf376acbd83fb3eaf5941c14dd6828a85cbc","","","",""
"","","","","","html-audio-response","5","568526","0.0-4.0-1.0","0806AF6DA36A42189200AF58F574B929","0806AF6DA36A42189200AF58F574B929","0198bd57-974f-7164-bea3-8c8f26b3c0e4","0198bbb8-fd11-701d-9147-68794ad37298","{""num_scrambled_semantic"":""8"",""num_scrambled_causal"":""4"",""num_scrambled_schematic"":""4"",""participantId"":""0806AF6DA36A42189200AF58F574B929"",""assignmentId"":""0198bd57-974f-7164-bea3-8c8f26b3c0e4"",""projectId"":""0198bbb8-fd11-701d-9147-68794ad37298""}","https://test12345.live/?num_scrambled_semantic=8&num_scrambled_causal=4&num_scrambled_schematic=4&participantId=0806AF6DA36A42189200AF58F574B929&assignmentId=0198bd57-974f-7164-bea3-8c8f26b3c0e4&projectId=0198bbb8-fd11-701d-9147-68794ad37298","0806AF6DA36A42189200AF58F574B929-2025-08-18-14-04-04","","3775","","<span style=""color: red; font-size: 24px""> NOW RECORDING</span>
        <p>Please test Microphone</p>","","3",""
"","","","","","html-button-response","6","571516","0.0-4.0-2.0","0806AF6DA36A42189200AF58F574B929","0806AF6DA36A42189200AF58F574B929","0198bd57-974f-7164-bea3-8c8f26b3c0e4","0198bbb8-fd11-701d-9147-68794ad37298","{""num_scrambled_semantic"":""8"",""num_scrambled_causal"":""4"",""num_scrambled_schematic"":""4"",""participantId"":""0806AF6DA36A42189200AF58F574B929"",""assignmentId"":""0198bd57-974f-7164-bea3-8c8f26b3c0e4"",""projectId"":""0198bbb8-fd11-701d-9147-68794ad37298""}","https://test12345.live/?num_scrambled_semantic=8&num_scrambled_causal=4&num_scrambled_schematic=4&participantId=0806AF6DA36A42189200AF58F574B929&assignmentId=0198bd57-974f-7164-bea3-8c8f26b3c0e4&projectId=0198bbb8-fd11-701d-9147-68794ad37298","0806AF6DA36A42189200AF58F574B929-2025-08-18-14-04-04","","2986","","<p style=""font-size:48px; color:red;"">Is Microphone OK?</p>","1","",""
"","","","","","instructions","7","595254","0.0-5.0","0806AF6DA36A42189200AF58F574B929","0806AF6DA36A42189200AF58F574B929","0198bd57-974f-7164-bea3-8c8f26b3c0e4","0198bbb8-fd11-701d-9147-68794ad37298","{""num_scrambled_semantic"":""8"",""num_scrambled_causal"":""4"",""num_scrambled_schematic"":""4"",""participantId"":""0806AF6DA36A42189200AF58F574B929"",""assignmentId"":""0198bd57-974f-7164-bea3-8c8f26b3c0e4"",""projectId"":""0198bbb8-fd11-701d-9147-68794ad37298""}","https://test12345.live/?num_scrambled_semantic=8&num_scrambled_causal=4&num_scrambled_schematic=4&participantId=0806AF6DA36A42189200AF58F574B929&assignmentId=0198bd57-974f-7164-bea3-8c8f26b3c0e4&projectId=0198bbb8-fd11-701d-9147-68794ad37298","0806AF6DA36A42189200AF58F574B929-2025-08-18-14-04-04","[{""page_index"":0,""viewing_time"":13579},{""page_index"":1,""viewing_time"":10154}]","23733","","","","",""
"","","","","","image-button-response","8","601267","0.0-6.0-0.0","0806AF6DA36A42189200AF58F574B929","0806AF6DA36A42189200AF58F574B929","0198bd57-974f-7164-bea3-8c8f26b3c0e4","0198bbb8-fd11-701d-9147-68794ad37298","{""num_scrambled_semantic"":""8"",""num_scrambled_causal"":""4"",""num_scrambled_schematic"":""4"",""participantId"":""0806AF6DA36A42189200AF58F574B929"",""assignmentId"":""0198bd57-974f-7164-bea3-8c8f26b3c0e4"",""projectId"":""0198bbb8-fd11-701d-9147-68794ad37298""}","https://test12345.live/?num_scrambled_semantic=8&num_scrambled_causal=4&num_scrambled_schematic=4&participantId=0806AF6DA36A42189200AF58F574B929&assignmentId=0198bd57-974f-7164-bea3-8c8f26b3c0e4&projectId=0198bbb8-fd11-701d-9147-68794ad37298","0806AF6DA36A42189200AF58F574B929-2025-08-18-14-04-04","","null","","images/instructions/movie_0.png","null","",""
"","","","","","image-button-response","9","605778","0.0-6.0-1.0-0.0","0806AF6DA36A42189200AF58F574B929","0806AF6DA36A42189200AF58F574B929","0198bd57-974f-7164-bea3-8c8f26b3c0e4","0198bbb8-fd11-701d-9147-68794ad37298","{""num_scrambled_semantic"":""8"",""num_scrambled_causal"":""4"",""num_scrambled_schematic"":""4"",""participantId"":""0806AF6DA36A42189200AF58F574B929"",""assignmentId"":""0198bd57-974f-7164-bea3-8c8f26b3c0e4"",""projectId"":""0198bbb8-fd11-701d-9147-68794ad37298""}","https://test12345.live/?num_scrambled_semantic=8&num_scrambled_causal=4&num_scrambled_schematic=4&participantId=0806AF6DA36A42189200AF58F574B929&assignmentId=0198bd57-974f-7164-bea3-8c8f26b3c0e4&projectId=0198bbb8-fd11-701d-9147-68794ad37298","0806AF6DA36A42189200AF58F574B929-2025-08-18-14-04-04","","null","","images/instructions/movie_1.png","null","",""
"","","","","","image-button-response","10","608571","0.0-6.0-1.0-1.0","0806AF6DA36A42189200AF58F574B929","0806AF6DA36A42189200AF58F574B929","0198bd57-974f-7164-bea3-8c8f26b3c0e4","0198bbb8-fd11-701d-9147-68794ad37298","{""num_scrambled_semantic"":""8"",""num_scrambled_causal"":""4"",""num_scrambled_schematic"":""4"",""participantId"":""0806AF6DA36A42189200AF58F574B929"",""assignmentId"":""0198bd57-974f-7164-bea3-8c8f26b3c0e4"",""projectId"":""0198bbb8-fd11-701d-9147-68794ad37298""}","https://test12345.live/?num_scrambled_semantic=8&num_scrambled_causal=4&num_scrambled_schematic=4&participantId=0806AF6DA36A42189200AF58F574B929&assignmentId=0198bd57-974f-7164-bea3-8c8f26b3c0e4&projectId=0198bbb8-fd11-701d-9147-68794ad37298","0806AF6DA36A42189200AF58F574B929-2025-08-18-14-04-04","","2790","","images/instructions/movie_1.png","0","",""
"","","","","","image-button-response","11","619386","0.0-6.0-1.0-2.0","0806AF6DA36A42189200AF58F574B929","0806AF6DA36A42189200AF58F574B929","0198bd57-974f-7164-bea3-8c8f26b3c0e4","0198bbb8-fd11-701d-9147-68794ad37298","{""num_scrambled_semantic"":""8"",""num_scrambled_causal"":""4"",""num_scrambled_schematic"":""4"",""participantId"":""0806AF6DA36A42189200AF58F574B929"",""assignmentId"":""0198bd57-974f-7164-bea3-8c8f26b3c0e4"",""projectId"":""0198bbb8-fd11-701d-9147-68794ad37298""}","https://test12345.live/?num_scrambled_semantic=8&num_scrambled_causal=4&num_scrambled_schematic=4&participantId=0806AF6DA36A42189200AF58F574B929&assignmentId=0198bd57-974f-7164-bea3-8c8f26b3c0e4&projectId=0198bbb8-fd11-701d-9147-68794ad37298","0806AF6DA36A42189200AF58F574B929-2025-08-18-14-04-04","","null","","[]","null","",""
"","","","","","image-button-response","12","623899","0.0-6.0-1.0-0.1","0806AF6DA36A42189200AF58F574B929","0806AF6DA36A42189200AF58F574B929","0198bd57-974f-7164-bea3-8c8f26b3c0e4","0198bbb8-fd11-701d-9147-68794ad37298","{""num_scrambled_semantic"":""8"",""num_scrambled_causal"":""4"",""num_scrambled_schematic"":""4"",""participantId"":""0806AF6DA36A42189200AF58F574B929"",""assignmentId"":""0198bd57-974f-7164-bea3-8c8f26b3c0e4"",""projectId"":""0198bbb8-fd11-701d-9147-68794ad37298""}","https://test12345.live/?num_scrambled_semantic=8&num_scrambled_causal=4&num_scrambled_schematic=4&participantId=0806AF6DA36A42189200AF58F574B929&assignmentId=0198bd57-974f-7164-bea3-8c8f26b3c0e4&projectId=0198bbb8-fd11-701d-9147-68794ad37298","0806AF6DA36A42189200AF58F574B929-2025-08-18-14-04-04","","null","","images/instructions/movie_2.png","null","",""
"","","","","","image-button-response","13","626200","0.0-6.0-1.0-1.1","0806AF6DA36A42189200AF58F574B929","0806AF6DA36A42189200AF58F574B929","0198bd57-974f-7164-bea3-8c8f26b3c0e4","0198bbb8-fd11-701d-9147-68794ad37298","{""num_scrambled_semantic"":""8"",""num_scrambled_causal"":""4"",""num_scrambled_schematic"":""4"",""participantId"":""0806AF6DA36A42189200AF58F574B929"",""assignmentId"":""0198bd57-974f-7164-bea3-8c8f26b3c0e4"",""projectId"":""0198bbb8-fd11-701d-9147-68794ad37298""}","https://test12345.live/?num_scrambled_semantic=8&num_scrambled_causal=4&num_scrambled_schematic=4&participantId=0806AF6DA36A42189200AF58F574B929&assignmentId=0198bd57-974f-7164-bea3-8c8f26b3c0e4&projectId=0198bbb8-fd11-701d-9147-68794ad37298","0806AF6DA36A42189200AF58F574B929-2025-08-18-14-04-04","","2298","","images/instructions/movie_2.png","1","",""
"","","","","","image-button-response","14","637006","0.0-6.0-1.0-2.1","0806AF6DA36A42189200AF58F574B929","0806AF6DA36A42189200AF58F574B929","0198bd57-974f-7164-bea3-8c8f26b3c0e4","0198bbb8-fd11-701d-9147-68794ad37298","{""num_scrambled_semantic"":""8"",""num_scrambled_causal"":""4"",""num_scrambled_schematic"":""4"",""participantId"":""0806AF6DA36A42189200AF58F574B929"",""assignmentId"":""0198bd57-974f-7164-bea3-8c8f26b3c0e4"",""projectId"":""0198bbb8-fd11-701d-9147-68794ad37298""}","https://test12345.live/?num_scrambled_semantic=8&num_scrambled_causal=4&num_scrambled_schematic=4&participantId=0806AF6DA36A42189200AF58F574B929&assignmentId=0198bd57-974f-7164-bea3-8c8f26b3c0e4&projectId=0198bbb8-fd11-701d-9147-68794ad37298","0806AF6DA36A42189200AF58F574B929-2025-08-18-14-04-04","","null","","[]","null","",""
"","","","","","image-button-response","15","641516","0.0-6.0-1.0-0.2","0806AF6DA36A42189200AF58F574B929","0806AF6DA36A42189200AF58F574B929","0198bd57-974f-7164-bea3-8c8f26b3c0e4","0198bbb8-fd11-701d-9147-68794ad37298","{""num_scrambled_semantic"":""8"",""num_scrambled_causal"":""4"",""num_scrambled_schematic"":""4"",""participantId"":""0806AF6DA36A42189200AF58F574B929"",""assignmentId"":""0198bd57-974f-7164-bea3-8c8f26b3c0e4"",""projectId"":""0198bbb8-fd11-701d-9147-68794ad37298""}","https://test12345.live/?num_scrambled_semantic=8&num_scrambled_causal=4&num_scrambled_schematic=4&participantId=0806AF6DA36A42189200AF58F574B929&assignmentId=0198bd57-974f-7164-bea3-8c8f26b3c0e4&projectId=0198bbb8-fd11-701d-9147-68794ad37298","0806AF6DA36A42189200AF58F574B929-2025-08-18-14-04-04","","null","","images/instructions/movie_3.png","null","",""
"","","","","","image-button-response","16","643922","0.0-6.0-1.0-1.2","0806AF6DA36A42189200AF58F574B929","0806AF6DA36A42189200AF58F574B929","0198bd57-974f-7164-bea3-8c8f26b3c0e4","0198bbb8-fd11-701d-9147-68794ad37298","{""num_scrambled_semantic"":""8"",""num_scrambled_causal"":""4"",""num_scrambled_schematic"":""4"",""participantId"":""0806AF6DA36A42189200AF58F574B929"",""assignmentId"":""0198bd57-974f-7164-bea3-8c8f26b3c0e4"",""projectId"":""0198bbb8-fd11-701d-9147-68794ad37298""}","https://test12345.live/?num_scrambled_semantic=8&num_scrambled_causal=4&num_scrambled_schematic=4&participantId=0806AF6DA36A42189200AF58F574B929&assignmentId=0198bd57-974f-7164-bea3-8c8f26b3c0e4&projectId=0198bbb8-fd11-701d-9147-68794ad37298","0806AF6DA36A42189200AF58F574B929-2025-08-18-14-04-04","","2403","","images/instructions/movie_3.png","0","",""
"","","","","","image-button-response","17","654738","0.0-6.0-1.0-2.2","0806AF6DA36A42189200AF58F574B929","0806AF6DA36A42189200AF58F574B929","0198bd57-974f-7164-bea3-8c8f26b3c0e4","0198bbb8-fd11-701d-9147-68794ad37298","{""num_scrambled_semantic"":""8"",""num_scrambled_causal"":""4"",""num_scrambled_schematic"":""4"",""participantId"":""0806AF6DA36A42189200AF58F574B929"",""assignmentId"":""0198bd57-974f-7164-bea3-8c8f26b3c0e4"",""projectId"":""0198bbb8-fd11-701d-9147-68794ad37298""}","https://test12345.live/?num_scrambled_semantic=8&num_scrambled_causal=4&num_scrambled_schematic=4&participantId=0806AF6DA36A42189200AF58F574B929&assignmentId=0198bd57-974f-7164-bea3-8c8f26b3c0e4&projectId=0198bbb8-fd11-701d-9147-68794ad37298","0806AF6DA36A42189200AF58F574B929-2025-08-18-14-04-04","","null","","[]","null","",""
"","","","","","image-button-response","18","659247","0.0-6.0-1.0-0.3","0806AF6DA36A42189200AF58F574B929","0806AF6DA36A42189200AF58F574B929","0198bd57-974f-7164-bea3-8c8f26b3c0e4","0198bbb8-fd11-701d-9147-68794ad37298","{""num_scrambled_semantic"":""8"",""num_scrambled_causal"":""4"",""num_scrambled_schematic"":""4"",""participantId"":""0806AF6DA36A42189200AF58F574B929"",""assignmentId"":""0198bd57-974f-7164-bea3-8c8f26b3c0e4"",""projectId"":""0198bbb8-fd11-701d-9147-68794ad37298""}","https://test12345.live/?num_scrambled_semantic=8&num_scrambled_causal=4&num_scrambled_schematic=4&participantId=0806AF6DA36A42189200AF58F574B929&assignmentId=0198bd57-974f-7164-bea3-8c8f26b3c0e4&projectId=0198bbb8-fd11-701d-9147-68794ad37298","0806AF6DA36A42189200AF58F574B929-2025-08-18-14-04-04","","null","","images/instructions/movie_4.png","null","",""
"","","","","","image-button-response","19","661223","0.0-6.0-1.0-1.3","0806AF6DA36A42189200AF58F574B929","0806AF6DA36A42189200AF58F574B929","0198bd57-974f-7164-bea3-8c8f26b3c0e4","0198bbb8-fd11-701d-9147-68794ad37298","{""num_scrambled_semantic"":""8"",""num_scrambled_causal"":""4"",""num_scrambled_schematic"":""4"",""participantId"":""0806AF6DA36A42189200AF58F574B929"",""assignmentId"":""0198bd57-974f-7164-bea3-8c8f26b3c0e4"",""projectId"":""0198bbb8-fd11-701d-9147-68794ad37298""}","https://test12345.live/?num_scrambled_semantic=8&num_scrambled_causal=4&num_scrambled_schematic=4&participantId=0806AF6DA36A42189200AF58F574B929&assignmentId=0198bd57-974f-7164-bea3-8c8f26b3c0e4&projectId=0198bbb8-fd11-701d-9147-68794ad37298","0806AF6DA36A42189200AF58F574B929-2025-08-18-14-04-04","","1973","","images/instructions/movie_4.png","0","",""
"","","","","","image-button-response","20","672038","0.0-6.0-1.0-2.3","0806AF6DA36A42189200AF58F574B929","0806AF6DA36A42189200AF58F574B929","0198bd57-974f-7164-bea3-8c8f26b3c0e4","0198bbb8-fd11-701d-9147-68794ad37298","{""num_scrambled_semantic"":""8"",""num_scrambled_causal"":""4"",""num_scrambled_schematic"":""4"",""participantId"":""0806AF6DA36A42189200AF58F574B929"",""assignmentId"":""0198bd57-974f-7164-bea3-8c8f26b3c0e4"",""projectId"":""0198bbb8-fd11-701d-9147-68794ad37298""}","https://test12345.live/?num_scrambled_semantic=8&num_scrambled_causal=4&num_scrambled_schematic=4&participantId=0806AF6DA36A42189200AF58F574B929&assignmentId=0198bd57-974f-7164-bea3-8c8f26b3c0e4&projectId=0198bbb8-fd11-701d-9147-68794ad37298","0806AF6DA36A42189200AF58F574B929-2025-08-18-14-04-04","","null","","[]","null","",""
"","","","","","instructions","21","689982","0.0-7.0","0806AF6DA36A42189200AF58F574B929","0806AF6DA36A42189200AF58F574B929","0198bd57-974f-7164-bea3-8c8f26b3c0e4","0198bbb8-fd11-701d-9147-68794ad37298","{""num_scrambled_semantic"":""8"",""num_scrambled_causal"":""4"",""num_scrambled_schematic"":""4"",""participantId"":""0806AF6DA36A42189200AF58F574B929"",""assignmentId"":""0198bd57-974f-7164-bea3-8c8f26b3c0e4"",""projectId"":""0198bbb8-fd11-701d-9147-68794ad37298""}","https://test12345.live/?num_scrambled_semantic=8&num_scrambled_causal=4&num_scrambled_schematic=4&participantId=0806AF6DA36A42189200AF58F574B929&assignmentId=0198bd57-974f-7164-bea3-8c8f26b3c0e4&projectId=0198bbb8-fd11-701d-9147-68794ad37298","0806AF6DA36A42189200AF58F574B929-2025-08-18-14-04-04","[{""page_index"":0,""viewing_time"":16780},{""page_index"":1,""viewing_time"":1163}]","17943","","","","",""
"","","","","","html-audio-response","22","724927","0.0-8.0","0806AF6DA36A42189200AF58F574B929","0806AF6DA36A42189200AF58F574B929","0198bd57-974f-7164-bea3-8c8f26b3c0e4","0198bbb8-fd11-701d-9147-68794ad37298","{""num_scrambled_semantic"":""8"",""num_scrambled_causal"":""4"",""num_scrambled_schematic"":""4"",""participantId"":""0806AF6DA36A42189200AF58F574B929"",""assignmentId"":""0198bd57-974f-7164-bea3-8c8f26b3c0e4"",""projectId"":""0198bbb8-fd11-701d-9147-68794ad37298""}","https://test12345.live/?num_scrambled_semantic=8&num_scrambled_causal=4&num_scrambled_schematic=4&participantId=0806AF6DA36A42189200AF58F574B929&assignmentId=0198bd57-974f-7164-bea3-8c8f26b3c0e4&projectId=0198bbb8-fd11-701d-9147-68794ad37298","0806AF6DA36A42189200AF58F574B929-2025-08-18-14-04-04","","24300","","[""<span style=\""color: red; font-size: 24px\""> NOW RECORDING</span><p>Please say out loud all the images you saw, as many as you can remember. The images can be said in any order.</p>""]","","5",""
"","","","","","instructions","23","727659","0.0-9.0","0806AF6DA36A42189200AF58F574B929","0806AF6DA36A42189200AF58F574B929","0198bd57-974f-7164-bea3-8c8f26b3c0e4","0198bbb8-fd11-701d-9147-68794ad37298","{""num_scrambled_semantic"":""8"",""num_scrambled_causal"":""4"",""num_scrambled_schematic"":""4"",""participantId"":""0806AF6DA36A42189200AF58F574B929"",""assignmentId"":""0198bd57-974f-7164-bea3-8c8f26b3c0e4"",""projectId"":""0198bbb8-fd11-701d-9147-68794ad37298""}","https://test12345.live/?num_scrambled_semantic=8&num_scrambled_causal=4&num_scrambled_schematic=4&participantId=0806AF6DA36A42189200AF58F574B929&assignmentId=0198bd57-974f-7164-bea3-8c8f26b3c0e4&projectId=0198bbb8-fd11-701d-9147-68794ad37298","0806AF6DA36A42189200AF58F574B929-2025-08-18-14-04-04","[{""page_index"":0,""viewing_time"":2718}]","2719","","","","",""
"","","","","","image-button-response","24","733678","0.0-10.0-0.0","0806AF6DA36A42189200AF58F574B929","0806AF6DA36A42189200AF58F574B929","0198bd57-974f-7164-bea3-8c8f26b3c0e4","0198bbb8-fd11-701d-9147-68794ad37298","{""num_scrambled_semantic"":""8"",""num_scrambled_causal"":""4"",""num_scrambled_schematic"":""4"",""participantId"":""0806AF6DA36A42189200AF58F574B929"",""assignmentId"":""0198bd57-974f-7164-bea3-8c8f26b3c0e4"",""projectId"":""0198bbb8-fd11-701d-9147-68794ad37298""}","https://test12345.live/?num_scrambled_semantic=8&num_scrambled_causal=4&num_scrambled_schematic=4&participantId=0806AF6DA36A42189200AF58F574B929&assignmentId=0198bd57-974f-7164-bea3-8c8f26b3c0e4&projectId=0198bbb8-fd11-701d-9147-68794ad37298","0806AF6DA36A42189200AF58F574B929-2025-08-18-14-04-04","","null","","images/causal_sequence/package_causal/package_causal_0.png","null","",""
"","","","","","image-button-response","25","738190","0.0-10.0-1.0-0.0","0806AF6DA36A42189200AF58F574B929","0806AF6DA36A42189200AF58F574B929","0198bd57-974f-7164-bea3-8c8f26b3c0e4","0198bbb8-fd11-701d-9147-68794ad37298","{""num_scrambled_semantic"":""8"",""num_scrambled_causal"":""4"",""num_scrambled_schematic"":""4"",""participantId"":""0806AF6DA36A42189200AF58F574B929"",""assignmentId"":""0198bd57-974f-7164-bea3-8c8f26b3c0e4"",""projectId"":""0198bbb8-fd11-701d-9147-68794ad37298""}","https://test12345.live/?num_scrambled_semantic=8&num_scrambled_causal=4&num_scrambled_schematic=4&participantId=0806AF6DA36A42189200AF58F574B929&assignmentId=0198bd57-974f-7164-bea3-8c8f26b3c0e4&projectId=0198bbb8-fd11-701d-9147-68794ad37298","0806AF6DA36A42189200AF58F574B929-2025-08-18-14-04-04","","null","","images/causal_sequence/package_causal/package_causal_1.png","null","",""
"","","","","","image-button-response","26","740421","0.0-10.0-1.0-1.0","0806AF6DA36A42189200AF58F574B929","0806AF6DA36A42189200AF58F574B929","0198bd57-974f-7164-bea3-8c8f26b3c0e4","0198bbb8-fd11-701d-9147-68794ad37298","{""num_scrambled_semantic"":""8"",""num_scrambled_causal"":""4"",""num_scrambled_schematic"":""4"",""participantId"":""0806AF6DA36A42189200AF58F574B929"",""assignmentId"":""0198bd57-974f-7164-bea3-8c8f26b3c0e4"",""projectId"":""0198bbb8-fd11-701d-9147-68794ad37298""}","https://test12345.live/?num_scrambled_semantic=8&num_scrambled_causal=4&num_scrambled_schematic=4&participantId=0806AF6DA36A42189200AF58F574B929&assignmentId=0198bd57-974f-7164-bea3-8c8f26b3c0e4&projectId=0198bbb8-fd11-701d-9147-68794ad37298","0806AF6DA36A42189200AF58F574B929-2025-08-18-14-04-04","","2227","","images/causal_sequence/package_causal/package_causal_1.png","0","",""
"","","","","","image-button-response","27","751230","0.0-10.0-1.0-2.0","0806AF6DA36A42189200AF58F574B929","0806AF6DA36A42189200AF58F574B929","0198bd57-974f-7164-bea3-8c8f26b3c0e4","0198bbb8-fd11-701d-9147-68794ad37298","{""num_scrambled_semantic"":""8"",""num_scrambled_causal"":""4"",""num_scrambled_schematic"":""4"",""participantId"":""0806AF6DA36A42189200AF58F574B929"",""assignmentId"":""0198bd57-974f-7164-bea3-8c8f26b3c0e4"",""projectId"":""0198bbb8-fd11-701d-9147-68794ad37298""}","https://test12345.live/?num_scrambled_semantic=8&num_scrambled_causal=4&num_scrambled_schematic=4&participantId=0806AF6DA36A42189200AF58F574B929&assignmentId=0198bd57-974f-7164-bea3-8c8f26b3c0e4&projectId=0198bbb8-fd11-701d-9147-68794ad37298","0806AF6DA36A42189200AF58F574B929-2025-08-18-14-04-04","","null","","[]","null","",""
"","","","","","image-button-response","28","755740","0.0-10.0-1.0-0.1","0806AF6DA36A42189200AF58F574B929","0806AF6DA36A42189200AF58F574B929","0198bd57-974f-7164-bea3-8c8f26b3c0e4","0198bbb8-fd11-701d-9147-68794ad37298","{""num_scrambled_semantic"":""8"",""num_scrambled_causal"":""4"",""num_scrambled_schematic"":""4"",""participantId"":""0806AF6DA36A42189200AF58F574B929"",""assignmentId"":""0198bd57-974f-7164-bea3-8c8f26b3c0e4"",""projectId"":""0198bbb8-fd11-701d-9147-68794ad37298""}","https://test12345.live/?num_scrambled_semantic=8&num_scrambled_causal=4&num_scrambled_schematic=4&participantId=0806AF6DA36A42189200AF58F574B929&assignmentId=0198bd57-974f-7164-bea3-8c8f26b3c0e4&projectId=0198bbb8-fd11-701d-9147-68794ad37298","0806AF6DA36A42189200AF58F574B929-2025-08-18-14-04-04","","null","","images/causal_sequence/package_causal/package_causal_8.png","null","",""
"","","","","","image-button-response","29","758302","0.0-10.0-1.0-1.1","0806AF6DA36A42189200AF58F574B929","0806AF6DA36A42189200AF58F574B929","0198bd57-974f-7164-bea3-8c8f26b3c0e4","0198bbb8-fd11-701d-9147-68794ad37298","{""num_scrambled_semantic"":""8"",""num_scrambled_causal"":""4"",""num_scrambled_schematic"":""4"",""participantId"":""0806AF6DA36A42189200AF58F574B929"",""assignmentId"":""0198bd57-974f-7164-bea3-8c8f26b3c0e4"",""projectId"":""0198bbb8-fd11-701d-9147-68794ad37298""}","https://test12345.live/?num_scrambled_semantic=8&num_scrambled_causal=4&num_scrambled_schematic=4&participantId=0806AF6DA36A42189200AF58F574B929&assignmentId=0198bd57-974f-7164-bea3-8c8f26b3c0e4&projectId=0198bbb8-fd11-701d-9147-68794ad37298","0806AF6DA36A42189200AF58F574B929-2025-08-18-14-04-04","","2558","","images/causal_sequence/package_causal/package_causal_8.png","0","",""
"","","","","","image-button-response","30","769119","0.0-10.0-1.0-2.1","0806AF6DA36A42189200AF58F574B929","0806AF6DA36A42189200AF58F574B929","0198bd57-974f-7164-bea3-8c8f26b3c0e4","0198bbb8-fd11-701d-9147-68794ad37298","{""num_scrambled_semantic"":""8"",""num_scrambled_causal"":""4"",""num_scrambled_schematic"":""4"",""participantId"":""0806AF6DA36A42189200AF58F574B929"",""assignmentId"":""0198bd57-974f-7164-bea3-8c8f26b3c0e4"",""projectId"":""0198bbb8-fd11-701d-9147-68794ad37298""}","https://test12345.live/?num_scrambled_semantic=8&num_scrambled_causal=4&num_scrambled_schematic=4&participantId=0806AF6DA36A42189200AF58F574B929&assignmentId=0198bd57-974f-7164-bea3-8c8f26b3c0e4&projectId=0198bbb8-fd11-701d-9147-68794ad37298","0806AF6DA36A42189200AF58F574B929-2025-08-18-14-04-04","","null","","[]","null","",""
"","","","","","image-button-response","31","773622","0.0-10.0-1.0-0.2","0806AF6DA36A42189200AF58F574B929","0806AF6DA36A42189200AF58F574B929","0198bd57-974f-7164-bea3-8c8f26b3c0e4","0198bbb8-fd11-701d-9147-68794ad37298","{""num_scrambled_semantic"":""8"",""num_scrambled_causal"":""4"",""num_scrambled_schematic"":""4"",""participantId"":""0806AF6DA36A42189200AF58F574B929"",""assignmentId"":""0198bd57-974f-7164-bea3-8c8f26b3c0e4"",""projectId"":""0198bbb8-fd11-701d-9147-68794ad37298""}","https://test12345.live/?num_scrambled_semantic=8&num_scrambled_causal=4&num_scrambled_schematic=4&participantId=0806AF6DA36A42189200AF58F574B929&assignmentId=0198bd57-974f-7164-bea3-8c8f26b3c0e4&projectId=0198bbb8-fd11-701d-9147-68794ad37298","0806AF6DA36A42189200AF58F574B929-2025-08-18-14-04-04","","null","","images/causal_sequence/package_causal/package_causal_5.png","null","",""
"","","","","","image-button-response","32","774711","0.0-10.0-1.0-1.2","0806AF6DA36A42189200AF58F574B929","0806AF6DA36A42189200AF58F574B929","0198bd57-974f-7164-bea3-8c8f26b3c0e4","0198bbb8-fd11-701d-9147-68794ad37298","{""num_scrambled_semantic"":""8"",""num_scrambled_causal"":""4"",""num_scrambled_schematic"":""4"",""participantId"":""0806AF6DA36A42189200AF58F574B929"",""assignmentId"":""0198bd57-974f-7164-bea3-8c8f26b3c0e4"",""projectId"":""0198bbb8-fd11-701d-9147-68794ad37298""}","https://test12345.live/?num_scrambled_semantic=8&num_scrambled_causal=4&num_scrambled_schematic=4&participantId=0806AF6DA36A42189200AF58F574B929&assignmentId=0198bd57-974f-7164-bea3-8c8f26b3c0e4&projectId=0198bbb8-fd11-701d-9147-68794ad37298","0806AF6DA36A42189200AF58F574B929-2025-08-18-14-04-04","","1087","","images/causal_sequence/package_causal/package_causal_5.png","0","",""
"","","","","","image-button-response","33","785527","0.0-10.0-1.0-2.2","0806AF6DA36A42189200AF58F574B929","0806AF6DA36A42189200AF58F574B929","0198bd57-974f-7164-bea3-8c8f26b3c0e4","0198bbb8-fd11-701d-9147-68794ad37298","{""num_scrambled_semantic"":""8"",""num_scrambled_causal"":""4"",""num_scrambled_schematic"":""4"",""participantId"":""0806AF6DA36A42189200AF58F574B929"",""assignmentId"":""0198bd57-974f-7164-bea3-8c8f26b3c0e4"",""projectId"":""0198bbb8-fd11-701d-9147-68794ad37298""}","https://test12345.live/?num_scrambled_semantic=8&num_scrambled_causal=4&num_scrambled_schematic=4&participantId=0806AF6DA36A42189200AF58F574B929&assignmentId=0198bd57-974f-7164-bea3-8c8f26b3c0e4&projectId=0198bbb8-fd11-701d-9147-68794ad37298","0806AF6DA36A42189200AF58F574B929-2025-08-18-14-04-04","","null","","[]","null","",""
"","","","","","image-button-response","34","790046","0.0-10.0-1.0-0.3","0806AF6DA36A42189200AF58F574B929","0806AF6DA36A42189200AF58F574B929","0198bd57-974f-7164-bea3-8c8f26b3c0e4","0198bbb8-fd11-701d-9147-68794ad37298","{""num_scrambled_semantic"":""8"",""num_scrambled_causal"":""4"",""num_scrambled_schematic"":""4"",""participantId"":""0806AF6DA36A42189200AF58F574B929"",""assignmentId"":""0198bd57-974f-7164-bea3-8c8f26b3c0e4"",""projectId"":""0198bbb8-fd11-701d-9147-68794ad37298""}","https://test12345.live/?num_scrambled_semantic=8&num_scrambled_causal=4&num_scrambled_schematic=4&participantId=0806AF6DA36A42189200AF58F574B929&assignmentId=0198bd57-974f-7164-bea3-8c8f26b3c0e4&projectId=0198bbb8-fd11-701d-9147-68794ad37298","0806AF6DA36A42189200AF58F574B929-2025-08-18-14-04-04","","null","","images/causal_sequence/package_causal/package_causal_7.png","null","",""
"","","","","","image-button-response","35","791824","0.0-10.0-1.0-1.3","0806AF6DA36A42189200AF58F574B929","0806AF6DA36A42189200AF58F574B929","0198bd57-974f-7164-bea3-8c8f26b3c0e4","0198bbb8-fd11-701d-9147-68794ad37298","{""num_scrambled_semantic"":""8"",""num_scrambled_causal"":""4"",""num_scrambled_schematic"":""4"",""participantId"":""0806AF6DA36A42189200AF58F574B929"",""assignmentId"":""0198bd57-974f-7164-bea3-8c8f26b3c0e4"",""projectId"":""0198bbb8-fd11-701d-9147-68794ad37298""}","https://test12345.live/?num_scrambled_semantic=8&num_scrambled_causal=4&num_scrambled_schematic=4&participantId=0806AF6DA36A42189200AF58F574B929&assignmentId=0198bd57-974f-7164-bea3-8c8f26b3c0e4&projectId=0198bbb8-fd11-701d-9147-68794ad37298","0806AF6DA36A42189200AF58F574B929-2025-08-18-14-04-04","","1776","","images/causal_sequence/package_causal/package_causal_7.png","0","",""
"","","","","","image-button-response","36","802632","0.0-10.0-1.0-2.3","0806AF6DA36A42189200AF58F574B929","0806AF6DA36A42189200AF58F574B929","0198bd57-974f-7164-bea3-8c8f26b3c0e4","0198bbb8-fd11-701d-9147-68794ad37298","{""num_scrambled_semantic"":""8"",""num_scrambled_causal"":""4"",""num_scrambled_schematic"":""4"",""participantId"":""0806AF6DA36A42189200AF58F574B929"",""assignmentId"":""0198bd57-974f-7164-bea3-8c8f26b3c0e4"",""projectId"":""0198bbb8-fd11-701d-9147-68794ad37298""}","https://test12345.live/?num_scrambled_semantic=8&num_scrambled_causal=4&num_scrambled_schematic=4&participantId=0806AF6DA36A42189200AF58F574B929&assignmentId=0198bd57-974f-7164-bea3-8c8f26b3c0e4&projectId=0198bbb8-fd11-701d-9147-68794ad37298","0806AF6DA36A42189200AF58F574B929-2025-08-18-14-04-04","","null","","[]","null","",""
"","","","","","image-button-response","37","807143","0.0-10.0-1.0-0.4","0806AF6DA36A42189200AF58F574B929","0806AF6DA36A42189200AF58F574B929","0198bd57-974f-7164-bea3-8c8f26b3c0e4","0198bbb8-fd11-701d-9147-68794ad37298","{""num_scrambled_semantic"":""8"",""num_scrambled_causal"":""4"",""num_scrambled_schematic"":""4"",""participantId"":""0806AF6DA36A42189200AF58F574B929"",""assignmentId"":""0198bd57-974f-7164-bea3-8c8f26b3c0e4"",""projectId"":""0198bbb8-fd11-701d-9147-68794ad37298""}","https://test12345.live/?num_scrambled_semantic=8&num_scrambled_causal=4&num_scrambled_schematic=4&participantId=0806AF6DA36A42189200AF58F574B929&assignmentId=0198bd57-974f-7164-bea3-8c8f26b3c0e4&projectId=0198bbb8-fd11-701d-9147-68794ad37298","0806AF6DA36A42189200AF58F574B929-2025-08-18-14-04-04","","null","","images/causal_sequence/package_causal/package_causal_6.png","null","",""
"","","","","","image-button-response","38","809074","0.0-10.0-1.0-1.4","0806AF6DA36A42189200AF58F574B929","0806AF6DA36A42189200AF58F574B929","0198bd57-974f-7164-bea3-8c8f26b3c0e4","0198bbb8-fd11-701d-9147-68794ad37298","{""num_scrambled_semantic"":""8"",""num_scrambled_causal"":""4"",""num_scrambled_schematic"":""4"",""participantId"":""0806AF6DA36A42189200AF58F574B929"",""assignmentId"":""0198bd57-974f-7164-bea3-8c8f26b3c0e4"",""projectId"":""0198bbb8-fd11-701d-9147-68794ad37298""}","https://test12345.live/?num_scrambled_semantic=8&num_scrambled_causal=4&num_scrambled_schematic=4&participantId=0806AF6DA36A42189200AF58F574B929&assignmentId=0198bd57-974f-7164-bea3-8c8f26b3c0e4&projectId=0198bbb8-fd11-701d-9147-68794ad37298","0806AF6DA36A42189200AF58F574B929-2025-08-18-14-04-04","","1927","","images/causal_sequence/package_causal/package_causal_6.png","0","",""
"","","","","","image-button-response","39","819888","0.0-10.0-1.0-2.4","0806AF6DA36A42189200AF58F574B929","0806AF6DA36A42189200AF58F574B929","0198bd57-974f-7164-bea3-8c8f26b3c0e4","0198bbb8-fd11-701d-9147-68794ad37298","{""num_scrambled_semantic"":""8"",""num_scrambled_causal"":""4"",""num_scrambled_schematic"":""4"",""participantId"":""0806AF6DA36A42189200AF58F574B929"",""assignmentId"":""0198bd57-974f-7164-bea3-8c8f26b3c0e4"",""projectId"":""0198bbb8-fd11-701d-9147-68794ad37298""}","https://test12345.live/?num_scrambled_semantic=8&num_scrambled_causal=4&num_scrambled_schematic=4&participantId=0806AF6DA36A42189200AF58F574B929&assignmentId=0198bd57-974f-7164-bea3-8c8f26b3c0e4&projectId=0198bbb8-fd11-701d-9147-68794ad37298","0806AF6DA36A42189200AF58F574B929-2025-08-18-14-04-04","","null","","[]","null","",""
"","","","","","image-button-response","40","824394","0.0-10.0-1.0-0.5","0806AF6DA36A42189200AF58F574B929","0806AF6DA36A42189200AF58F574B929","0198bd57-974f-7164-bea3-8c8f26b3c0e4","0198bbb8-fd11-701d-9147-68794ad37298","{""num_scrambled_semantic"":""8"",""num_scrambled_causal"":""4"",""num_scrambled_schematic"":""4"",""participantId"":""0806AF6DA36A42189200AF58F574B929"",""assignmentId"":""0198bd57-974f-7164-bea3-8c8f26b3c0e4"",""projectId"":""0198bbb8-fd11-701d-9147-68794ad37298""}","https://test12345.live/?num_scrambled_semantic=8&num_scrambled_causal=4&num_scrambled_schematic=4&participantId=0806AF6DA36A42189200AF58F574B929&assignmentId=0198bd57-974f-7164-bea3-8c8f26b3c0e4&projectId=0198bbb8-fd11-701d-9147-68794ad37298","0806AF6DA36A42189200AF58F574B929-2025-08-18-14-04-04","","null","","images/causal_sequence/package_causal/package_causal_ten.png","null","",""
"","","","","","image-button-response","41","825515","0.0-10.0-1.0-1.5","0806AF6DA36A42189200AF58F574B929","0806AF6DA36A42189200AF58F574B929","0198bd57-974f-7164-bea3-8c8f26b3c0e4","0198bbb8-fd11-701d-9147-68794ad37298","{""num_scrambled_semantic"":""8"",""num_scrambled_causal"":""4"",""num_scrambled_schematic"":""4"",""participantId"":""0806AF6DA36A42189200AF58F574B929"",""assignmentId"":""0198bd57-974f-7164-bea3-8c8f26b3c0e4"",""projectId"":""0198bbb8-fd11-701d-9147-68794ad37298""}","https://test12345.live/?num_scrambled_semantic=8&num_scrambled_causal=4&num_scrambled_schematic=4&participantId=0806AF6DA36A42189200AF58F574B929&assignmentId=0198bd57-974f-7164-bea3-8c8f26b3c0e4&projectId=0198bbb8-fd11-701d-9147-68794ad37298","0806AF6DA36A42189200AF58F574B929-2025-08-18-14-04-04","","1117","","images/causal_sequence/package_causal/package_causal_ten.png","0","",""
"","","","","","image-button-response","42","836324","0.0-10.0-1.0-2.5","0806AF6DA36A42189200AF58F574B929","0806AF6DA36A42189200AF58F574B929","0198bd57-974f-7164-bea3-8c8f26b3c0e4","0198bbb8-fd11-701d-9147-68794ad37298","{""num_scrambled_semantic"":""8"",""num_scrambled_causal"":""4"",""num_scrambled_schematic"":""4"",""participantId"":""0806AF6DA36A42189200AF58F574B929"",""assignmentId"":""0198bd57-974f-7164-bea3-8c8f26b3c0e4"",""projectId"":""0198bbb8-fd11-701d-9147-68794ad37298""}","https://test12345.live/?num_scrambled_semantic=8&num_scrambled_causal=4&num_scrambled_schematic=4&participantId=0806AF6DA36A42189200AF58F574B929&assignmentId=0198bd57-974f-7164-bea3-8c8f26b3c0e4&projectId=0198bbb8-fd11-701d-9147-68794ad37298","0806AF6DA36A42189200AF58F574B929-2025-08-18-14-04-04","","null","","[]","null","",""
"","","","","","image-button-response","43","840840","0.0-10.0-1.0-0.6","0806AF6DA36A42189200AF58F574B929","0806AF6DA36A42189200AF58F574B929","0198bd57-974f-7164-bea3-8c8f26b3c0e4","0198bbb8-fd11-701d-9147-68794ad37298","{""num_scrambled_semantic"":""8"",""num_scrambled_causal"":""4"",""num_scrambled_schematic"":""4"",""participantId"":""0806AF6DA36A42189200AF58F574B929"",""assignmentId"":""0198bd57-974f-7164-bea3-8c8f26b3c0e4"",""projectId"":""0198bbb8-fd11-701d-9147-68794ad37298""}","https://test12345.live/?num_scrambled_semantic=8&num_scrambled_causal=4&num_scrambled_schematic=4&participantId=0806AF6DA36A42189200AF58F574B929&assignmentId=0198bd57-974f-7164-bea3-8c8f26b3c0e4&projectId=0198bbb8-fd11-701d-9147-68794ad37298","0806AF6DA36A42189200AF58F574B929-2025-08-18-14-04-04","","null","","images/causal_sequence/package_causal/package_causal_4.png","null","",""
"","","","","","image-button-response","44","842945","0.0-10.0-1.0-1.6","0806AF6DA36A42189200AF58F574B929","0806AF6DA36A42189200AF58F574B929","0198bd57-974f-7164-bea3-8c8f26b3c0e4","0198bbb8-fd11-701d-9147-68794ad37298","{""num_scrambled_semantic"":""8"",""num_scrambled_causal"":""4"",""num_scrambled_schematic"":""4"",""participantId"":""0806AF6DA36A42189200AF58F574B929"",""assignmentId"":""0198bd57-974f-7164-bea3-8c8f26b3c0e4"",""projectId"":""0198bbb8-fd11-701d-9147-68794ad37298""}","https://test12345.live/?num_scrambled_semantic=8&num_scrambled_causal=4&num_scrambled_schematic=4&participantId=0806AF6DA36A42189200AF58F574B929&assignmentId=0198bd57-974f-7164-bea3-8c8f26b3c0e4&projectId=0198bbb8-fd11-701d-9147-68794ad37298","0806AF6DA36A42189200AF58F574B929-2025-08-18-14-04-04","","2101","","images/causal_sequence/package_causal/package_causal_4.png","1","",""
"","","","","","image-button-response","45","853752","0.0-10.0-1.0-2.6","0806AF6DA36A42189200AF58F574B929","0806AF6DA36A42189200AF58F574B929","0198bd57-974f-7164-bea3-8c8f26b3c0e4","0198bbb8-fd11-701d-9147-68794ad37298","{""num_scrambled_semantic"":""8"",""num_scrambled_causal"":""4"",""num_scrambled_schematic"":""4"",""participantId"":""0806AF6DA36A42189200AF58F574B929"",""assignmentId"":""0198bd57-974f-7164-bea3-8c8f26b3c0e4"",""projectId"":""0198bbb8-fd11-701d-9147-68794ad37298""}","https://test12345.live/?num_scrambled_semantic=8&num_scrambled_causal=4&num_scrambled_schematic=4&participantId=0806AF6DA36A42189200AF58F574B929&assignmentId=0198bd57-974f-7164-bea3-8c8f26b3c0e4&projectId=0198bbb8-fd11-701d-9147-68794ad37298","0806AF6DA36A42189200AF58F574B929-2025-08-18-14-04-04","","null","","[]","null","",""
"","","","","","image-button-response","46","858268","0.0-10.0-1.0-0.7","0806AF6DA36A42189200AF58F574B929","0806AF6DA36A42189200AF58F574B929","0198bd57-974f-7164-bea3-8c8f26b3c0e4","0198bbb8-fd11-701d-9147-68794ad37298","{""num_scrambled_semantic"":""8"",""num_scrambled_causal"":""4"",""num_scrambled_schematic"":""4"",""participantId"":""0806AF6DA36A42189200AF58F574B929"",""assignmentId"":""0198bd57-974f-7164-bea3-8c8f26b3c0e4"",""projectId"":""0198bbb8-fd11-701d-9147-68794ad37298""}","https://test12345.live/?num_scrambled_semantic=8&num_scrambled_causal=4&num_scrambled_schematic=4&participantId=0806AF6DA36A42189200AF58F574B929&assignmentId=0198bd57-974f-7164-bea3-8c8f26b3c0e4&projectId=0198bbb8-fd11-701d-9147-68794ad37298","0806AF6DA36A42189200AF58F574B929-2025-08-18-14-04-04","","null","","images/causal_sequence/package_causal/package_causal_9.png","null","",""
"","","","","","image-button-response","47","860357","0.0-10.0-1.0-1.7","0806AF6DA36A42189200AF58F574B929","0806AF6DA36A42189200AF58F574B929","0198bd57-974f-7164-bea3-8c8f26b3c0e4","0198bbb8-fd11-701d-9147-68794ad37298","{""num_scrambled_semantic"":""8"",""num_scrambled_causal"":""4"",""num_scrambled_schematic"":""4"",""participantId"":""0806AF6DA36A42189200AF58F574B929"",""assignmentId"":""0198bd57-974f-7164-bea3-8c8f26b3c0e4"",""projectId"":""0198bbb8-fd11-701d-9147-68794ad37298""}","https://test12345.live/?num_scrambled_semantic=8&num_scrambled_causal=4&num_scrambled_schematic=4&participantId=0806AF6DA36A42189200AF58F574B929&assignmentId=0198bd57-974f-7164-bea3-8c8f26b3c0e4&projectId=0198bbb8-fd11-701d-9147-68794ad37298","0806AF6DA36A42189200AF58F574B929-2025-08-18-14-04-04","","2086","","images/causal_sequence/package_causal/package_causal_9.png","0","",""
"","","","","","image-button-response","48","871163","0.0-10.0-1.0-2.7","0806AF6DA36A42189200AF58F574B929","0806AF6DA36A42189200AF58F574B929","0198bd57-974f-7164-bea3-8c8f26b3c0e4","0198bbb8-fd11-701d-9147-68794ad37298","{""num_scrambled_semantic"":""8"",""num_scrambled_causal"":""4"",""num_scrambled_schematic"":""4"",""participantId"":""0806AF6DA36A42189200AF58F574B929"",""assignmentId"":""0198bd57-974f-7164-bea3-8c8f26b3c0e4"",""projectId"":""0198bbb8-fd11-701d-9147-68794ad37298""}","https://test12345.live/?num_scrambled_semantic=8&num_scrambled_causal=4&num_scrambled_schematic=4&participantId=0806AF6DA36A42189200AF58F574B929&assignmentId=0198bd57-974f-7164-bea3-8c8f26b3c0e4&projectId=0198bbb8-fd11-701d-9147-68794ad37298","0806AF6DA36A42189200AF58F574B929-2025-08-18-14-04-04","","null","","[]","null","",""
"","","","","","image-button-response","49","875667","0.0-10.0-1.0-0.8","0806AF6DA36A42189200AF58F574B929","0806AF6DA36A42189200AF58F574B929","0198bd57-974f-7164-bea3-8c8f26b3c0e4","0198bbb8-fd11-701d-9147-68794ad37298","{""num_scrambled_semantic"":""8"",""num_scrambled_causal"":""4"",""num_scrambled_schematic"":""4"",""participantId"":""0806AF6DA36A42189200AF58F574B929"",""assignmentId"":""0198bd57-974f-7164-bea3-8c8f26b3c0e4"",""projectId"":""0198bbb8-fd11-701d-9147-68794ad37298""}","https://test12345.live/?num_scrambled_semantic=8&num_scrambled_causal=4&num_scrambled_schematic=4&participantId=0806AF6DA36A42189200AF58F574B929&assignmentId=0198bd57-974f-7164-bea3-8c8f26b3c0e4&projectId=0198bbb8-fd11-701d-9147-68794ad37298","0806AF6DA36A42189200AF58F574B929-2025-08-18-14-04-04","","null","","images/causal_sequence/package_causal/package_causal_3.png","null","",""
"","","","","","image-button-response","50","879671","0.0-10.0-1.0-1.8","0806AF6DA36A42189200AF58F574B929","0806AF6DA36A42189200AF58F574B929","0198bd57-974f-7164-bea3-8c8f26b3c0e4","0198bbb8-fd11-701d-9147-68794ad37298","{""num_scrambled_semantic"":""8"",""num_scrambled_causal"":""4"",""num_scrambled_schematic"":""4"",""participantId"":""0806AF6DA36A42189200AF58F574B929"",""assignmentId"":""0198bd57-974f-7164-bea3-8c8f26b3c0e4"",""projectId"":""0198bbb8-fd11-701d-9147-68794ad37298""}","https://test12345.live/?num_scrambled_semantic=8&num_scrambled_causal=4&num_scrambled_schematic=4&participantId=0806AF6DA36A42189200AF58F574B929&assignmentId=0198bd57-974f-7164-bea3-8c8f26b3c0e4&projectId=0198bbb8-fd11-701d-9147-68794ad37298","0806AF6DA36A42189200AF58F574B929-2025-08-18-14-04-04","","null","","images/causal_sequence/package_causal/package_causal_3.png","null","",""
"","","","","","image-button-response","51","890477","0.0-10.0-1.0-2.8","0806AF6DA36A42189200AF58F574B929","0806AF6DA36A42189200AF58F574B929","0198bd57-974f-7164-bea3-8c8f26b3c0e4","0198bbb8-fd11-701d-9147-68794ad37298","{""num_scrambled_semantic"":""8"",""num_scrambled_causal"":""4"",""num_scrambled_schematic"":""4"",""participantId"":""0806AF6DA36A42189200AF58F574B929"",""assignmentId"":""0198bd57-974f-7164-bea3-8c8f26b3c0e4"",""projectId"":""0198bbb8-fd11-701d-9147-68794ad37298""}","https://test12345.live/?num_scrambled_semantic=8&num_scrambled_causal=4&num_scrambled_schematic=4&participantId=0806AF6DA36A42189200AF58F574B929&assignmentId=0198bd57-974f-7164-bea3-8c8f26b3c0e4&projectId=0198bbb8-fd11-701d-9147-68794ad37298","0806AF6DA36A42189200AF58F574B929-2025-08-18-14-04-04","","null","","[]","null","",""
"","","","","","image-button-response","52","894980","0.0-10.0-1.0-0.9","0806AF6DA36A42189200AF58F574B929","0806AF6DA36A42189200AF58F574B929","0198bd57-974f-7164-bea3-8c8f26b3c0e4","0198bbb8-fd11-701d-9147-68794ad37298","{""num_scrambled_semantic"":""8"",""num_scrambled_causal"":""4"",""num_scrambled_schematic"":""4"",""participantId"":""0806AF6DA36A42189200AF58F574B929"",""assignmentId"":""0198bd57-974f-7164-bea3-8c8f26b3c0e4"",""projectId"":""0198bbb8-fd11-701d-9147-68794ad37298""}","https://test12345.live/?num_scrambled_semantic=8&num_scrambled_causal=4&num_scrambled_schematic=4&participantId=0806AF6DA36A42189200AF58F574B929&assignmentId=0198bd57-974f-7164-bea3-8c8f26b3c0e4&projectId=0198bbb8-fd11-701d-9147-68794ad37298","0806AF6DA36A42189200AF58F574B929-2025-08-18-14-04-04","","null","","images/causal_sequence/package_causal/package_causal_2.png","null","",""
"","","","","","image-button-response","53","897078","0.0-10.0-1.0-1.9","0806AF6DA36A42189200AF58F574B929","0806AF6DA36A42189200AF58F574B929","0198bd57-974f-7164-bea3-8c8f26b3c0e4","0198bbb8-fd11-701d-9147-68794ad37298","{""num_scrambled_semantic"":""8"",""num_scrambled_causal"":""4"",""num_scrambled_schematic"":""4"",""participantId"":""0806AF6DA36A42189200AF58F574B929"",""assignmentId"":""0198bd57-974f-7164-bea3-8c8f26b3c0e4"",""projectId"":""0198bbb8-fd11-701d-9147-68794ad37298""}","https://test12345.live/?num_scrambled_semantic=8&num_scrambled_causal=4&num_scrambled_schematic=4&participantId=0806AF6DA36A42189200AF58F574B929&assignmentId=0198bd57-974f-7164-bea3-8c8f26b3c0e4&projectId=0198bbb8-fd11-701d-9147-68794ad37298","0806AF6DA36A42189200AF58F574B929-2025-08-18-14-04-04","","2093","","images/causal_sequence/package_causal/package_causal_2.png","0","",""
"","","","","","image-button-response","54","907894","0.0-10.0-1.0-2.9","0806AF6DA36A42189200AF58F574B929","0806AF6DA36A42189200AF58F574B929","0198bd57-974f-7164-bea3-8c8f26b3c0e4","0198bbb8-fd11-701d-9147-68794ad37298","{""num_scrambled_semantic"":""8"",""num_scrambled_causal"":""4"",""num_scrambled_schematic"":""4"",""participantId"":""0806AF6DA36A42189200AF58F574B929"",""assignmentId"":""0198bd57-974f-7164-bea3-8c8f26b3c0e4"",""projectId"":""0198bbb8-fd11-701d-9147-68794ad37298""}","https://test12345.live/?num_scrambled_semantic=8&num_scrambled_causal=4&num_scrambled_schematic=4&participantId=0806AF6DA36A42189200AF58F574B929&assignmentId=0198bd57-974f-7164-bea3-8c8f26b3c0e4&projectId=0198bbb8-fd11-701d-9147-68794ad37298","0806AF6DA36A42189200AF58F574B929-2025-08-18-14-04-04","","null","","[]","null","",""
"","","","","","html-audio-response","55","991137","0.0-11.0","0806AF6DA36A42189200AF58F574B929","0806AF6DA36A42189200AF58F574B929","0198bd57-974f-7164-bea3-8c8f26b3c0e4","0198bbb8-fd11-701d-9147-68794ad37298","{""num_scrambled_semantic"":""8"",""num_scrambled_causal"":""4"",""num_scrambled_schematic"":""4"",""participantId"":""0806AF6DA36A42189200AF58F574B929"",""assignmentId"":""0198bd57-974f-7164-bea3-8c8f26b3c0e4"",""projectId"":""0198bbb8-fd11-701d-9147-68794ad37298""}","https://test12345.live/?num_scrambled_semantic=8&num_scrambled_causal=4&num_scrambled_schematic=4&participantId=0806AF6DA36A42189200AF58F574B929&assignmentId=0198bd57-974f-7164-bea3-8c8f26b3c0e4&projectId=0198bbb8-fd11-701d-9147-68794ad37298","0806AF6DA36A42189200AF58F574B929-2025-08-18-14-04-04","","47740","","[""<span style=\""color: red; font-size: 24px\""> NOW RECORDING</span><p>Please say out loud all the images you saw, as many as you can remember. The images can be said in any order.</p>""]","","3","package_causal"
"","","","","","image-button-response","56","997164","0.0-12.0-0.0","0806AF6DA36A42189200AF58F574B929","0806AF6DA36A42189200AF58F574B929","0198bd57-974f-7164-bea3-8c8f26b3c0e4","0198bbb8-fd11-701d-9147-68794ad37298","{""num_scrambled_semantic"":""8"",""num_scrambled_causal"":""4"",""num_scrambled_schematic"":""4"",""participantId"":""0806AF6DA36A42189200AF58F574B929"",""assignmentId"":""0198bd57-974f-7164-bea3-8c8f26b3c0e4"",""projectId"":""0198bbb8-fd11-701d-9147-68794ad37298""}","https://test12345.live/?num_scrambled_semantic=8&num_scrambled_causal=4&num_scrambled_schematic=4&participantId=0806AF6DA36A42189200AF58F574B929&assignmentId=0198bd57-974f-7164-bea3-8c8f26b3c0e4&projectId=0198bbb8-fd11-701d-9147-68794ad37298","0806AF6DA36A42189200AF58F574B929-2025-08-18-14-04-04","","null","","images/causal_sequence/coin_causal/coin_causal_0.png","null","",""
"","","","","","image-button-response","57","1001676","0.0-12.0-1.0-0.0","0806AF6DA36A42189200AF58F574B929","0806AF6DA36A42189200AF58F574B929","0198bd57-974f-7164-bea3-8c8f26b3c0e4","0198bbb8-fd11-701d-9147-68794ad37298","{""num_scrambled_semantic"":""8"",""num_scrambled_causal"":""4"",""num_scrambled_schematic"":""4"",""participantId"":""0806AF6DA36A42189200AF58F574B929"",""assignmentId"":""0198bd57-974f-7164-bea3-8c8f26b3c0e4"",""projectId"":""0198bbb8-fd11-701d-9147-68794ad37298""}","https://test12345.live/?num_scrambled_semantic=8&num_scrambled_causal=4&num_scrambled_schematic=4&participantId=0806AF6DA36A42189200AF58F574B929&assignmentId=0198bd57-974f-7164-bea3-8c8f26b3c0e4&projectId=0198bbb8-fd11-701d-9147-68794ad37298","0806AF6DA36A42189200AF58F574B929-2025-08-18-14-04-04","","null","","images/causal_sequence/coin_causal/coin_causal_4.png","null","",""
"","","","","","image-button-response","58","1004701","0.0-12.0-1.0-1.0","0806AF6DA36A42189200AF58F574B929","0806AF6DA36A42189200AF58F574B929","0198bd57-974f-7164-bea3-8c8f26b3c0e4","0198bbb8-fd11-701d-9147-68794ad37298","{""num_scrambled_semantic"":""8"",""num_scrambled_causal"":""4"",""num_scrambled_schematic"":""4"",""participantId"":""0806AF6DA36A42189200AF58F574B929"",""assignmentId"":""0198bd57-974f-7164-bea3-8c8f26b3c0e4"",""projectId"":""0198bbb8-fd11-701d-9147-68794ad37298""}","https://test12345.live/?num_scrambled_semantic=8&num_scrambled_causal=4&num_scrambled_schematic=4&participantId=0806AF6DA36A42189200AF58F574B929&assignmentId=0198bd57-974f-7164-bea3-8c8f26b3c0e4&projectId=0198bbb8-fd11-701d-9147-68794ad37298","0806AF6DA36A42189200AF58F574B929-2025-08-18-14-04-04","","3021","","images/causal_sequence/coin_causal/coin_causal_4.png","0","",""
"","","","","","image-button-response","59","1015511","0.0-12.0-1.0-2.0","0806AF6DA36A42189200AF58F574B929","0806AF6DA36A42189200AF58F574B929","0198bd57-974f-7164-bea3-8c8f26b3c0e4","0198bbb8-fd11-701d-9147-68794ad37298","{""num_scrambled_semantic"":""8"",""num_scrambled_causal"":""4"",""num_scrambled_schematic"":""4"",""participantId"":""0806AF6DA36A42189200AF58F574B929"",""assignmentId"":""0198bd57-974f-7164-bea3-8c8f26b3c0e4"",""projectId"":""0198bbb8-fd11-701d-9147-68794ad37298""}","https://test12345.live/?num_scrambled_semantic=8&num_scrambled_causal=4&num_scrambled_schematic=4&participantId=0806AF6DA36A42189200AF58F574B929&assignmentId=0198bd57-974f-7164-bea3-8c8f26b3c0e4&projectId=0198bbb8-fd11-701d-9147-68794ad37298","0806AF6DA36A42189200AF58F574B929-2025-08-18-14-04-04","","null","","[]","null","",""
"","","","","","image-button-response","60","1020020","0.0-12.0-1.0-0.1","0806AF6DA36A42189200AF58F574B929","0806AF6DA36A42189200AF58F574B929","0198bd57-974f-7164-bea3-8c8f26b3c0e4","0198bbb8-fd11-701d-9147-68794ad37298","{""num_scrambled_semantic"":""8"",""num_scrambled_causal"":""4"",""num_scrambled_schematic"":""4"",""participantId"":""0806AF6DA36A42189200AF58F574B929"",""assignmentId"":""0198bd57-974f-7164-bea3-8c8f26b3c0e4"",""projectId"":""0198bbb8-fd11-701d-9147-68794ad37298""}","https://test12345.live/?num_scrambled_semantic=8&num_scrambled_causal=4&num_scrambled_schematic=4&participantId=0806AF6DA36A42189200AF58F574B929&assignmentId=0198bd57-974f-7164-bea3-8c8f26b3c0e4&projectId=0198bbb8-fd11-701d-9147-68794ad37298","0806AF6DA36A42189200AF58F574B929-2025-08-18-14-04-04","","null","","images/causal_sequence/coin_causal/coin_causal_3.png","null","",""
"","","","","","image-button-response","61","1022480","0.0-12.0-1.0-1.1","0806AF6DA36A42189200AF58F574B929","0806AF6DA36A42189200AF58F574B929","0198bd57-974f-7164-bea3-8c8f26b3c0e4","0198bbb8-fd11-701d-9147-68794ad37298","{""num_scrambled_semantic"":""8"",""num_scrambled_causal"":""4"",""num_scrambled_schematic"":""4"",""participantId"":""0806AF6DA36A42189200AF58F574B929"",""assignmentId"":""0198bd57-974f-7164-bea3-8c8f26b3c0e4"",""projectId"":""0198bbb8-fd11-701d-9147-68794ad37298""}","https://test12345.live/?num_scrambled_semantic=8&num_scrambled_causal=4&num_scrambled_schematic=4&participantId=0806AF6DA36A42189200AF58F574B929&assignmentId=0198bd57-974f-7164-bea3-8c8f26b3c0e4&projectId=0198bbb8-fd11-701d-9147-68794ad37298","0806AF6DA36A42189200AF58F574B929-2025-08-18-14-04-04","","2457","","images/causal_sequence/coin_causal/coin_causal_3.png","0","",""
"","","","","","image-button-response","62","1033295","0.0-12.0-1.0-2.1","0806AF6DA36A42189200AF58F574B929","0806AF6DA36A42189200AF58F574B929","0198bd57-974f-7164-bea3-8c8f26b3c0e4","0198bbb8-fd11-701d-9147-68794ad37298","{""num_scrambled_semantic"":""8"",""num_scrambled_causal"":""4"",""num_scrambled_schematic"":""4"",""participantId"":""0806AF6DA36A42189200AF58F574B929"",""assignmentId"":""0198bd57-974f-7164-bea3-8c8f26b3c0e4"",""projectId"":""0198bbb8-fd11-701d-9147-68794ad37298""}","https://test12345.live/?num_scrambled_semantic=8&num_scrambled_causal=4&num_scrambled_schematic=4&participantId=0806AF6DA36A42189200AF58F574B929&assignmentId=0198bd57-974f-7164-bea3-8c8f26b3c0e4&projectId=0198bbb8-fd11-701d-9147-68794ad37298","0806AF6DA36A42189200AF58F574B929-2025-08-18-14-04-04","","null","","[]","null","",""
"","","","","","image-button-response","63","1037798","0.0-12.0-1.0-0.2","0806AF6DA36A42189200AF58F574B929","0806AF6DA36A42189200AF58F574B929","0198bd57-974f-7164-bea3-8c8f26b3c0e4","0198bbb8-fd11-701d-9147-68794ad37298","{""num_scrambled_semantic"":""8"",""num_scrambled_causal"":""4"",""num_scrambled_schematic"":""4"",""participantId"":""0806AF6DA36A42189200AF58F574B929"",""assignmentId"":""0198bd57-974f-7164-bea3-8c8f26b3c0e4"",""projectId"":""0198bbb8-fd11-701d-9147-68794ad37298""}","https://test12345.live/?num_scrambled_semantic=8&num_scrambled_causal=4&num_scrambled_schematic=4&participantId=0806AF6DA36A42189200AF58F574B929&assignmentId=0198bd57-974f-7164-bea3-8c8f26b3c0e4&projectId=0198bbb8-fd11-701d-9147-68794ad37298","0806AF6DA36A42189200AF58F574B929-2025-08-18-14-04-04","","null","","images/causal_sequence/coin_causal/coin_causal_2.png","null","",""
"","","","","","image-button-response","64","1039119","0.0-12.0-1.0-1.2","0806AF6DA36A42189200AF58F574B929","0806AF6DA36A42189200AF58F574B929","0198bd57-974f-7164-bea3-8c8f26b3c0e4","0198bbb8-fd11-701d-9147-68794ad37298","{""num_scrambled_semantic"":""8"",""num_scrambled_causal"":""4"",""num_scrambled_schematic"":""4"",""participantId"":""0806AF6DA36A42189200AF58F574B929"",""assignmentId"":""0198bd57-974f-7164-bea3-8c8f26b3c0e4"",""projectId"":""0198bbb8-fd11-701d-9147-68794ad37298""}","https://test12345.live/?num_scrambled_semantic=8&num_scrambled_causal=4&num_scrambled_schematic=4&participantId=0806AF6DA36A42189200AF58F574B929&assignmentId=0198bd57-974f-7164-bea3-8c8f26b3c0e4&projectId=0198bbb8-fd11-701d-9147-68794ad37298","0806AF6DA36A42189200AF58F574B929-2025-08-18-14-04-04","","1319","","images/causal_sequence/coin_causal/coin_causal_2.png","0","",""
"","","","","","image-button-response","65","1049932","0.0-12.0-1.0-2.2","0806AF6DA36A42189200AF58F574B929","0806AF6DA36A42189200AF58F574B929","0198bd57-974f-7164-bea3-8c8f26b3c0e4","0198bbb8-fd11-701d-9147-68794ad37298","{""num_scrambled_semantic"":""8"",""num_scrambled_causal"":""4"",""num_scrambled_schematic"":""4"",""participantId"":""0806AF6DA36A42189200AF58F574B929"",""assignmentId"":""0198bd57-974f-7164-bea3-8c8f26b3c0e4"",""projectId"":""0198bbb8-fd11-701d-9147-68794ad37298""}","https://test12345.live/?num_scrambled_semantic=8&num_scrambled_causal=4&num_scrambled_schematic=4&participantId=0806AF6DA36A42189200AF58F574B929&assignmentId=0198bd57-974f-7164-bea3-8c8f26b3c0e4&projectId=0198bbb8-fd11-701d-9147-68794ad37298","0806AF6DA36A42189200AF58F574B929-2025-08-18-14-04-04","","null","","[]","null","",""
"","","","","","image-button-response","66","1054437","0.0-12.0-1.0-0.3","0806AF6DA36A42189200AF58F574B929","0806AF6DA36A42189200AF58F574B929","0198bd57-974f-7164-bea3-8c8f26b3c0e4","0198bbb8-fd11-701d-9147-68794ad37298","{""num_scrambled_semantic"":""8"",""num_scrambled_causal"":""4"",""num_scrambled_schematic"":""4"",""participantId"":""0806AF6DA36A42189200AF58F574B929"",""assignmentId"":""0198bd57-974f-7164-bea3-8c8f26b3c0e4"",""projectId"":""0198bbb8-fd11-701d-9147-68794ad37298""}","https://test12345.live/?num_scrambled_semantic=8&num_scrambled_causal=4&num_scrambled_schematic=4&participantId=0806AF6DA36A42189200AF58F574B929&assignmentId=0198bd57-974f-7164-bea3-8c8f26b3c0e4&projectId=0198bbb8-fd11-701d-9147-68794ad37298","0806AF6DA36A42189200AF58F574B929-2025-08-18-14-04-04","","null","","images/causal_sequence/coin_causal/coin_causal_1.png","null","",""
"","","","","","image-button-response","67","1055431","0.0-12.0-1.0-1.3","0806AF6DA36A42189200AF58F574B929","0806AF6DA36A42189200AF58F574B929","0198bd57-974f-7164-bea3-8c8f26b3c0e4","0198bbb8-fd11-701d-9147-68794ad37298","{""num_scrambled_semantic"":""8"",""num_scrambled_causal"":""4"",""num_scrambled_schematic"":""4"",""participantId"":""0806AF6DA36A42189200AF58F574B929"",""assignmentId"":""0198bd57-974f-7164-bea3-8c8f26b3c0e4"",""projectId"":""0198bbb8-fd11-701d-9147-68794ad37298""}","https://test12345.live/?num_scrambled_semantic=8&num_scrambled_causal=4&num_scrambled_schematic=4&participantId=0806AF6DA36A42189200AF58F574B929&assignmentId=0198bd57-974f-7164-bea3-8c8f26b3c0e4&projectId=0198bbb8-fd11-701d-9147-68794ad37298","0806AF6DA36A42189200AF58F574B929-2025-08-18-14-04-04","","992","","images/causal_sequence/coin_causal/coin_causal_1.png","0","",""
"","","","","","image-button-response","68","1066252","0.0-12.0-1.0-2.3","0806AF6DA36A42189200AF58F574B929","0806AF6DA36A42189200AF58F574B929","0198bd57-974f-7164-bea3-8c8f26b3c0e4","0198bbb8-fd11-701d-9147-68794ad37298","{""num_scrambled_semantic"":""8"",""num_scrambled_causal"":""4"",""num_scrambled_schematic"":""4"",""participantId"":""0806AF6DA36A42189200AF58F574B929"",""assignmentId"":""0198bd57-974f-7164-bea3-8c8f26b3c0e4"",""projectId"":""0198bbb8-fd11-701d-9147-68794ad37298""}","https://test12345.live/?num_scrambled_semantic=8&num_scrambled_causal=4&num_scrambled_schematic=4&participantId=0806AF6DA36A42189200AF58F574B929&assignmentId=0198bd57-974f-7164-bea3-8c8f26b3c0e4&projectId=0198bbb8-fd11-701d-9147-68794ad37298","0806AF6DA36A42189200AF58F574B929-2025-08-18-14-04-04","","null","","[]","null","",""
"","","","","","image-button-response","69","1070753","0.0-12.0-1.0-0.4","0806AF6DA36A42189200AF58F574B929","0806AF6DA36A42189200AF58F574B929","0198bd57-974f-7164-bea3-8c8f26b3c0e4","0198bbb8-fd11-701d-9147-68794ad37298","{""num_scrambled_semantic"":""8"",""num_scrambled_causal"":""4"",""num_scrambled_schematic"":""4"",""participantId"":""0806AF6DA36A42189200AF58F574B929"",""assignmentId"":""0198bd57-974f-7164-bea3-8c8f26b3c0e4"",""projectId"":""0198bbb8-fd11-701d-9147-68794ad37298""}","https://test12345.live/?num_scrambled_semantic=8&num_scrambled_causal=4&num_scrambled_schematic=4&participantId=0806AF6DA36A42189200AF58F574B929&assignmentId=0198bd57-974f-7164-bea3-8c8f26b3c0e4&projectId=0198bbb8-fd11-701d-9147-68794ad37298","0806AF6DA36A42189200AF58F574B929-2025-08-18-14-04-04","","null","","images/causal_sequence/coin_causal/coin_causal_5.png","null","",""
"","","","","","image-button-response","70","1071660","0.0-12.0-1.0-1.4","0806AF6DA36A42189200AF58F574B929","0806AF6DA36A42189200AF58F574B929","0198bd57-974f-7164-bea3-8c8f26b3c0e4","0198bbb8-fd11-701d-9147-68794ad37298","{""num_scrambled_semantic"":""8"",""num_scrambled_causal"":""4"",""num_scrambled_schematic"":""4"",""participantId"":""0806AF6DA36A42189200AF58F574B929"",""assignmentId"":""0198bd57-974f-7164-bea3-8c8f26b3c0e4"",""projectId"":""0198bbb8-fd11-701d-9147-68794ad37298""}","https://test12345.live/?num_scrambled_semantic=8&num_scrambled_causal=4&num_scrambled_schematic=4&participantId=0806AF6DA36A42189200AF58F574B929&assignmentId=0198bd57-974f-7164-bea3-8c8f26b3c0e4&projectId=0198bbb8-fd11-701d-9147-68794ad37298","0806AF6DA36A42189200AF58F574B929-2025-08-18-14-04-04","","905","","images/causal_sequence/coin_causal/coin_causal_5.png","0","",""
"","","","","","image-button-response","71","1082468","0.0-12.0-1.0-2.4","0806AF6DA36A42189200AF58F574B929","0806AF6DA36A42189200AF58F574B929","0198bd57-974f-7164-bea3-8c8f26b3c0e4","0198bbb8-fd11-701d-9147-68794ad37298","{""num_scrambled_semantic"":""8"",""num_scrambled_causal"":""4"",""num_scrambled_schematic"":""4"",""participantId"":""0806AF6DA36A42189200AF58F574B929"",""assignmentId"":""0198bd57-974f-7164-bea3-8c8f26b3c0e4"",""projectId"":""0198bbb8-fd11-701d-9147-68794ad37298""}","https://test12345.live/?num_scrambled_semantic=8&num_scrambled_causal=4&num_scrambled_schematic=4&participantId=0806AF6DA36A42189200AF58F574B929&assignmentId=0198bd57-974f-7164-bea3-8c8f26b3c0e4&projectId=0198bbb8-fd11-701d-9147-68794ad37298","0806AF6DA36A42189200AF58F574B929-2025-08-18-14-04-04","","null","","[]","null","",""
"","","","","","image-button-response","72","1086970","0.0-12.0-1.0-0.5","0806AF6DA36A42189200AF58F574B929","0806AF6DA36A42189200AF58F574B929","0198bd57-974f-7164-bea3-8c8f26b3c0e4","0198bbb8-fd11-701d-9147-68794ad37298","{""num_scrambled_semantic"":""8"",""num_scrambled_causal"":""4"",""num_scrambled_schematic"":""4"",""participantId"":""0806AF6DA36A42189200AF58F574B929"",""assignmentId"":""0198bd57-974f-7164-bea3-8c8f26b3c0e4"",""projectId"":""0198bbb8-fd11-701d-9147-68794ad37298""}","https://test12345.live/?num_scrambled_semantic=8&num_scrambled_causal=4&num_scrambled_schematic=4&participantId=0806AF6DA36A42189200AF58F574B929&assignmentId=0198bd57-974f-7164-bea3-8c8f26b3c0e4&projectId=0198bbb8-fd11-701d-9147-68794ad37298","0806AF6DA36A42189200AF58F574B929-2025-08-18-14-04-04","","null","","images/causal_sequence/coin_causal/coin_causal_6.png","null","",""
"","","","","","image-button-response","73","1088371","0.0-12.0-1.0-1.5","0806AF6DA36A42189200AF58F574B929","0806AF6DA36A42189200AF58F574B929","0198bd57-974f-7164-bea3-8c8f26b3c0e4","0198bbb8-fd11-701d-9147-68794ad37298","{""num_scrambled_semantic"":""8"",""num_scrambled_causal"":""4"",""num_scrambled_schematic"":""4"",""participantId"":""0806AF6DA36A42189200AF58F574B929"",""assignmentId"":""0198bd57-974f-7164-bea3-8c8f26b3c0e4"",""projectId"":""0198bbb8-fd11-701d-9147-68794ad37298""}","https://test12345.live/?num_scrambled_semantic=8&num_scrambled_causal=4&num_scrambled_schematic=4&participantId=0806AF6DA36A42189200AF58F574B929&assignmentId=0198bd57-974f-7164-bea3-8c8f26b3c0e4&projectId=0198bbb8-fd11-701d-9147-68794ad37298","0806AF6DA36A42189200AF58F574B929-2025-08-18-14-04-04","","1399","","images/causal_sequence/coin_causal/coin_causal_6.png","0","",""
"","","","","","image-button-response","74","1099188","0.0-12.0-1.0-2.5","0806AF6DA36A42189200AF58F574B929","0806AF6DA36A42189200AF58F574B929","0198bd57-974f-7164-bea3-8c8f26b3c0e4","0198bbb8-fd11-701d-9147-68794ad37298","{""num_scrambled_semantic"":""8"",""num_scrambled_causal"":""4"",""num_scrambled_schematic"":""4"",""participantId"":""0806AF6DA36A42189200AF58F574B929"",""assignmentId"":""0198bd57-974f-7164-bea3-8c8f26b3c0e4"",""projectId"":""0198bbb8-fd11-701d-9147-68794ad37298""}","https://test12345.live/?num_scrambled_semantic=8&num_scrambled_causal=4&num_scrambled_schematic=4&participantId=0806AF6DA36A42189200AF58F574B929&assignmentId=0198bd57-974f-7164-bea3-8c8f26b3c0e4&projectId=0198bbb8-fd11-701d-9147-68794ad37298","0806AF6DA36A42189200AF58F574B929-2025-08-18-14-04-04","","null","","[]","null","",""
"","","","","","image-button-response","75","1103689","0.0-12.0-1.0-0.6","0806AF6DA36A42189200AF58F574B929","0806AF6DA36A42189200AF58F574B929","0198bd57-974f-7164-bea3-8c8f26b3c0e4","0198bbb8-fd11-701d-9147-68794ad37298","{""num_scrambled_semantic"":""8"",""num_scrambled_causal"":""4"",""num_scrambled_schematic"":""4"",""participantId"":""0806AF6DA36A42189200AF58F574B929"",""assignmentId"":""0198bd57-974f-7164-bea3-8c8f26b3c0e4"",""projectId"":""0198bbb8-fd11-701d-9147-68794ad37298""}","https://test12345.live/?num_scrambled_semantic=8&num_scrambled_causal=4&num_scrambled_schematic=4&participantId=0806AF6DA36A42189200AF58F574B929&assignmentId=0198bd57-974f-7164-bea3-8c8f26b3c0e4&projectId=0198bbb8-fd11-701d-9147-68794ad37298","0806AF6DA36A42189200AF58F574B929-2025-08-18-14-04-04","","null","","images/causal_sequence/coin_causal/coin_causal_9.png","null","",""
"","","","","","image-button-response","76","1104565","0.0-12.0-1.0-1.6","0806AF6DA36A42189200AF58F574B929","0806AF6DA36A42189200AF58F574B929","0198bd57-974f-7164-bea3-8c8f26b3c0e4","0198bbb8-fd11-701d-9147-68794ad37298","{""num_scrambled_semantic"":""8"",""num_scrambled_causal"":""4"",""num_scrambled_schematic"":""4"",""participantId"":""0806AF6DA36A42189200AF58F574B929"",""assignmentId"":""0198bd57-974f-7164-bea3-8c8f26b3c0e4"",""projectId"":""0198bbb8-fd11-701d-9147-68794ad37298""}","https://test12345.live/?num_scrambled_semantic=8&num_scrambled_causal=4&num_scrambled_schematic=4&participantId=0806AF6DA36A42189200AF58F574B929&assignmentId=0198bd57-974f-7164-bea3-8c8f26b3c0e4&projectId=0198bbb8-fd11-701d-9147-68794ad37298","0806AF6DA36A42189200AF58F574B929-2025-08-18-14-04-04","","874","","images/causal_sequence/coin_causal/coin_causal_9.png","0","",""
"","","","","","image-button-response","77","1115376","0.0-12.0-1.0-2.6","0806AF6DA36A42189200AF58F574B929","0806AF6DA36A42189200AF58F574B929","0198bd57-974f-7164-bea3-8c8f26b3c0e4","0198bbb8-fd11-701d-9147-68794ad37298","{""num_scrambled_semantic"":""8"",""num_scrambled_causal"":""4"",""num_scrambled_schematic"":""4"",""participantId"":""0806AF6DA36A42189200AF58F574B929"",""assignmentId"":""0198bd57-974f-7164-bea3-8c8f26b3c0e4"",""projectId"":""0198bbb8-fd11-701d-9147-68794ad37298""}","https://test12345.live/?num_scrambled_semantic=8&num_scrambled_causal=4&num_scrambled_schematic=4&participantId=0806AF6DA36A42189200AF58F574B929&assignmentId=0198bd57-974f-7164-bea3-8c8f26b3c0e4&projectId=0198bbb8-fd11-701d-9147-68794ad37298","0806AF6DA36A42189200AF58F574B929-2025-08-18-14-04-04","","null","","[]","null","",""
"","","","","","image-button-response","78","1119894","0.0-12.0-1.0-0.7","0806AF6DA36A42189200AF58F574B929","0806AF6DA36A42189200AF58F574B929","0198bd57-974f-7164-bea3-8c8f26b3c0e4","0198bbb8-fd11-701d-9147-68794ad37298","{""num_scrambled_semantic"":""8"",""num_scrambled_causal"":""4"",""num_scrambled_schematic"":""4"",""participantId"":""0806AF6DA36A42189200AF58F574B929"",""assignmentId"":""0198bd57-974f-7164-bea3-8c8f26b3c0e4"",""projectId"":""0198bbb8-fd11-701d-9147-68794ad37298""}","https://test12345.live/?num_scrambled_semantic=8&num_scrambled_causal=4&num_scrambled_schematic=4&participantId=0806AF6DA36A42189200AF58F574B929&assignmentId=0198bd57-974f-7164-bea3-8c8f26b3c0e4&projectId=0198bbb8-fd11-701d-9147-68794ad37298","0806AF6DA36A42189200AF58F574B929-2025-08-18-14-04-04","","null","","images/causal_sequence/coin_causal/coin_causal_7.png","null","",""
"","","","","","image-button-response","79","1121532","0.0-12.0-1.0-1.7","0806AF6DA36A42189200AF58F574B929","0806AF6DA36A42189200AF58F574B929","0198bd57-974f-7164-bea3-8c8f26b3c0e4","0198bbb8-fd11-701d-9147-68794ad37298","{""num_scrambled_semantic"":""8"",""num_scrambled_causal"":""4"",""num_scrambled_schematic"":""4"",""participantId"":""0806AF6DA36A42189200AF58F574B929"",""assignmentId"":""0198bd57-974f-7164-bea3-8c8f26b3c0e4"",""projectId"":""0198bbb8-fd11-701d-9147-68794ad37298""}","https://test12345.live/?num_scrambled_semantic=8&num_scrambled_causal=4&num_scrambled_schematic=4&participantId=0806AF6DA36A42189200AF58F574B929&assignmentId=0198bd57-974f-7164-bea3-8c8f26b3c0e4&projectId=0198bbb8-fd11-701d-9147-68794ad37298","0806AF6DA36A42189200AF58F574B929-2025-08-18-14-04-04","","1636","","images/causal_sequence/coin_causal/coin_causal_7.png","1","",""
"","","","","","image-button-response","80","1132342","0.0-12.0-1.0-2.7","0806AF6DA36A42189200AF58F574B929","0806AF6DA36A42189200AF58F574B929","0198bd57-974f-7164-bea3-8c8f26b3c0e4","0198bbb8-fd11-701d-9147-68794ad37298","{""num_scrambled_semantic"":""8"",""num_scrambled_causal"":""4"",""num_scrambled_schematic"":""4"",""participantId"":""0806AF6DA36A42189200AF58F574B929"",""assignmentId"":""0198bd57-974f-7164-bea3-8c8f26b3c0e4"",""projectId"":""0198bbb8-fd11-701d-9147-68794ad37298""}","https://test12345.live/?num_scrambled_semantic=8&num_scrambled_causal=4&num_scrambled_schematic=4&participantId=0806AF6DA36A42189200AF58F574B929&assignmentId=0198bd57-974f-7164-bea3-8c8f26b3c0e4&projectId=0198bbb8-fd11-701d-9147-68794ad37298","0806AF6DA36A42189200AF58F574B929-2025-08-18-14-04-04","","null","","[]","null","",""
"","","","","","image-button-response","81","1136859","0.0-12.0-1.0-0.8","0806AF6DA36A42189200AF58F574B929","0806AF6DA36A42189200AF58F574B929","0198bd57-974f-7164-bea3-8c8f26b3c0e4","0198bbb8-fd11-701d-9147-68794ad37298","{""num_scrambled_semantic"":""8"",""num_scrambled_causal"":""4"",""num_scrambled_schematic"":""4"",""participantId"":""0806AF6DA36A42189200AF58F574B929"",""assignmentId"":""0198bd57-974f-7164-bea3-8c8f26b3c0e4"",""projectId"":""0198bbb8-fd11-701d-9147-68794ad37298""}","https://test12345.live/?num_scrambled_semantic=8&num_scrambled_causal=4&num_scrambled_schematic=4&participantId=0806AF6DA36A42189200AF58F574B929&assignmentId=0198bd57-974f-7164-bea3-8c8f26b3c0e4&projectId=0198bbb8-fd11-701d-9147-68794ad37298","0806AF6DA36A42189200AF58F574B929-2025-08-18-14-04-04","","null","","images/causal_sequence/coin_causal/coin_causal_ten.png","null","",""
"","","","","","image-button-response","82","1138185","0.0-12.0-1.0-1.8","0806AF6DA36A42189200AF58F574B929","0806AF6DA36A42189200AF58F574B929","0198bd57-974f-7164-bea3-8c8f26b3c0e4","0198bbb8-fd11-701d-9147-68794ad37298","{""num_scrambled_semantic"":""8"",""num_scrambled_causal"":""4"",""num_scrambled_schematic"":""4"",""participantId"":""0806AF6DA36A42189200AF58F574B929"",""assignmentId"":""0198bd57-974f-7164-bea3-8c8f26b3c0e4"",""projectId"":""0198bbb8-fd11-701d-9147-68794ad37298""}","https://test12345.live/?num_scrambled_semantic=8&num_scrambled_causal=4&num_scrambled_schematic=4&participantId=0806AF6DA36A42189200AF58F574B929&assignmentId=0198bd57-974f-7164-bea3-8c8f26b3c0e4&projectId=0198bbb8-fd11-701d-9147-68794ad37298","0806AF6DA36A42189200AF58F574B929-2025-08-18-14-04-04","","1322","","images/causal_sequence/coin_causal/coin_causal_ten.png","0","",""
"","","","","","image-button-response","83","1148993","0.0-12.0-1.0-2.8","0806AF6DA36A42189200AF58F574B929","0806AF6DA36A42189200AF58F574B929","0198bd57-974f-7164-bea3-8c8f26b3c0e4","0198bbb8-fd11-701d-9147-68794ad37298","{""num_scrambled_semantic"":""8"",""num_scrambled_causal"":""4"",""num_scrambled_schematic"":""4"",""participantId"":""0806AF6DA36A42189200AF58F574B929"",""assignmentId"":""0198bd57-974f-7164-bea3-8c8f26b3c0e4"",""projectId"":""0198bbb8-fd11-701d-9147-68794ad37298""}","https://test12345.live/?num_scrambled_semantic=8&num_scrambled_causal=4&num_scrambled_schematic=4&participantId=0806AF6DA36A42189200AF58F574B929&assignmentId=0198bd57-974f-7164-bea3-8c8f26b3c0e4&projectId=0198bbb8-fd11-701d-9147-68794ad37298","0806AF6DA36A42189200AF58F574B929-2025-08-18-14-04-04","","null","","[]","null","",""
"","","","","","image-button-response","84","1153503","0.0-12.0-1.0-0.9","0806AF6DA36A42189200AF58F574B929","0806AF6DA36A42189200AF58F574B929","0198bd57-974f-7164-bea3-8c8f26b3c0e4","0198bbb8-fd11-701d-9147-68794ad37298","{""num_scrambled_semantic"":""8"",""num_scrambled_causal"":""4"",""num_scrambled_schematic"":""4"",""participantId"":""0806AF6DA36A42189200AF58F574B929"",""assignmentId"":""0198bd57-974f-7164-bea3-8c8f26b3c0e4"",""projectId"":""0198bbb8-fd11-701d-9147-68794ad37298""}","https://test12345.live/?num_scrambled_semantic=8&num_scrambled_causal=4&num_scrambled_schematic=4&participantId=0806AF6DA36A42189200AF58F574B929&assignmentId=0198bd57-974f-7164-bea3-8c8f26b3c0e4&projectId=0198bbb8-fd11-701d-9147-68794ad37298","0806AF6DA36A42189200AF58F574B929-2025-08-18-14-04-04","","null","","images/causal_sequence/coin_causal/coin_causal_8.png","null","",""
"","","","","","image-button-response","85","1157506","0.0-12.0-1.0-1.9","0806AF6DA36A42189200AF58F574B929","0806AF6DA36A42189200AF58F574B929","0198bd57-974f-7164-bea3-8c8f26b3c0e4","0198bbb8-fd11-701d-9147-68794ad37298","{""num_scrambled_semantic"":""8"",""num_scrambled_causal"":""4"",""num_scrambled_schematic"":""4"",""participantId"":""0806AF6DA36A42189200AF58F574B929"",""assignmentId"":""0198bd57-974f-7164-bea3-8c8f26b3c0e4"",""projectId"":""0198bbb8-fd11-701d-9147-68794ad37298""}","https://test12345.live/?num_scrambled_semantic=8&num_scrambled_causal=4&num_scrambled_schematic=4&participantId=0806AF6DA36A42189200AF58F574B929&assignmentId=0198bd57-974f-7164-bea3-8c8f26b3c0e4&projectId=0198bbb8-fd11-701d-9147-68794ad37298","0806AF6DA36A42189200AF58F574B929-2025-08-18-14-04-04","","null","","images/causal_sequence/coin_causal/coin_causal_8.png","null","",""
"","","","","","image-button-response","86","1168322","0.0-12.0-1.0-2.9","0806AF6DA36A42189200AF58F574B929","0806AF6DA36A42189200AF58F574B929","0198bd57-974f-7164-bea3-8c8f26b3c0e4","0198bbb8-fd11-701d-9147-68794ad37298","{""num_scrambled_semantic"":""8"",""num_scrambled_causal"":""4"",""num_scrambled_schematic"":""4"",""participantId"":""0806AF6DA36A42189200AF58F574B929"",""assignmentId"":""0198bd57-974f-7164-bea3-8c8f26b3c0e4"",""projectId"":""0198bbb8-fd11-701d-9147-68794ad37298""}","https://test12345.live/?num_scrambled_semantic=8&num_scrambled_causal=4&num_scrambled_schematic=4&participantId=0806AF6DA36A42189200AF58F574B929&assignmentId=0198bd57-974f-7164-bea3-8c8f26b3c0e4&projectId=0198bbb8-fd11-701d-9147-68794ad37298","0806AF6DA36A42189200AF58F574B929-2025-08-18-14-04-04","","null","","[]","null","",""
"","","","","","html-audio-response","87","1232245","0.0-13.0","0806AF6DA36A42189200AF58F574B929","0806AF6DA36A42189200AF58F574B929","0198bd57-974f-7164-bea3-8c8f26b3c0e4","0198bbb8-fd11-701d-9147-68794ad37298","{""num_scrambled_semantic"":""8"",""num_scrambled_causal"":""4"",""num_scrambled_schematic"":""4"",""participantId"":""0806AF6DA36A42189200AF58F574B929"",""assignmentId"":""0198bd57-974f-7164-bea3-8c8f26b3c0e4"",""projectId"":""0198bbb8-fd11-701d-9147-68794ad37298""}","https://test12345.live/?num_scrambled_semantic=8&num_scrambled_causal=4&num_scrambled_schematic=4&participantId=0806AF6DA36A42189200AF58F574B929&assignmentId=0198bd57-974f-7164-bea3-8c8f26b3c0e4&projectId=0198bbb8-fd11-701d-9147-68794ad37298","0806AF6DA36A42189200AF58F574B929-2025-08-18-14-04-04","","54025","","[""<span style=\""color: red; font-size: 24px\""> NOW RECORDING</span><p>Please say out loud all the images you saw, as many as you can remember. The images can be said in any order.</p>""]","","1","coin_causal"
"","","","","","image-button-response","88","1238268","0.0-14.0-0.0","0806AF6DA36A42189200AF58F574B929","0806AF6DA36A42189200AF58F574B929","0198bd57-974f-7164-bea3-8c8f26b3c0e4","0198bbb8-fd11-701d-9147-68794ad37298","{""num_scrambled_semantic"":""8"",""num_scrambled_causal"":""4"",""num_scrambled_schematic"":""4"",""participantId"":""0806AF6DA36A42189200AF58F574B929"",""assignmentId"":""0198bd57-974f-7164-bea3-8c8f26b3c0e4"",""projectId"":""0198bbb8-fd11-701d-9147-68794ad37298""}","https://test12345.live/?num_scrambled_semantic=8&num_scrambled_causal=4&num_scrambled_schematic=4&participantId=0806AF6DA36A42189200AF58F574B929&assignmentId=0198bd57-974f-7164-bea3-8c8f26b3c0e4&projectId=0198bbb8-fd11-701d-9147-68794ad37298","0806AF6DA36A42189200AF58F574B929-2025-08-18-14-04-04","","null","","images/causal_sequence/the_performance_causal/the_performance_causal_0.png","null","",""
"","","","","","image-button-response","89","1242785","0.0-14.0-1.0-0.0","0806AF6DA36A42189200AF58F574B929","0806AF6DA36A42189200AF58F574B929","0198bd57-974f-7164-bea3-8c8f26b3c0e4","0198bbb8-fd11-701d-9147-68794ad37298","{""num_scrambled_semantic"":""8"",""num_scrambled_causal"":""4"",""num_scrambled_schematic"":""4"",""participantId"":""0806AF6DA36A42189200AF58F574B929"",""assignmentId"":""0198bd57-974f-7164-bea3-8c8f26b3c0e4"",""projectId"":""0198bbb8-fd11-701d-9147-68794ad37298""}","https://test12345.live/?num_scrambled_semantic=8&num_scrambled_causal=4&num_scrambled_schematic=4&participantId=0806AF6DA36A42189200AF58F574B929&assignmentId=0198bd57-974f-7164-bea3-8c8f26b3c0e4&projectId=0198bbb8-fd11-701d-9147-68794ad37298","0806AF6DA36A42189200AF58F574B929-2025-08-18-14-04-04","","null","","images/causal_sequence/the_performance_causal/the_performance_causal_4.png","null","",""
"","","","","","image-button-response","90","1245260","0.0-14.0-1.0-1.0","0806AF6DA36A42189200AF58F574B929","0806AF6DA36A42189200AF58F574B929","0198bd57-974f-7164-bea3-8c8f26b3c0e4","0198bbb8-fd11-701d-9147-68794ad37298","{""num_scrambled_semantic"":""8"",""num_scrambled_causal"":""4"",""num_scrambled_schematic"":""4"",""participantId"":""0806AF6DA36A42189200AF58F574B929"",""assignmentId"":""0198bd57-974f-7164-bea3-8c8f26b3c0e4"",""projectId"":""0198bbb8-fd11-701d-9147-68794ad37298""}","https://test12345.live/?num_scrambled_semantic=8&num_scrambled_causal=4&num_scrambled_schematic=4&participantId=0806AF6DA36A42189200AF58F574B929&assignmentId=0198bd57-974f-7164-bea3-8c8f26b3c0e4&projectId=0198bbb8-fd11-701d-9147-68794ad37298","0806AF6DA36A42189200AF58F574B929-2025-08-18-14-04-04","","2473","","images/causal_sequence/the_performance_causal/the_performance_causal_4.png","0","",""
"","","","","","image-button-response","91","1256078","0.0-14.0-1.0-2.0","0806AF6DA36A42189200AF58F574B929","0806AF6DA36A42189200AF58F574B929","0198bd57-974f-7164-bea3-8c8f26b3c0e4","0198bbb8-fd11-701d-9147-68794ad37298","{""num_scrambled_semantic"":""8"",""num_scrambled_causal"":""4"",""num_scrambled_schematic"":""4"",""participantId"":""0806AF6DA36A42189200AF58F574B929"",""assignmentId"":""0198bd57-974f-7164-bea3-8c8f26b3c0e4"",""projectId"":""0198bbb8-fd11-701d-9147-68794ad37298""}","https://test12345.live/?num_scrambled_semantic=8&num_scrambled_causal=4&num_scrambled_schematic=4&participantId=0806AF6DA36A42189200AF58F574B929&assignmentId=0198bd57-974f-7164-bea3-8c8f26b3c0e4&projectId=0198bbb8-fd11-701d-9147-68794ad37298","0806AF6DA36A42189200AF58F574B929-2025-08-18-14-04-04","","null","","[]","null","",""
"","","","","","image-button-response","92","1260585","0.0-14.0-1.0-0.1","0806AF6DA36A42189200AF58F574B929","0806AF6DA36A42189200AF58F574B929","0198bd57-974f-7164-bea3-8c8f26b3c0e4","0198bbb8-fd11-701d-9147-68794ad37298","{""num_scrambled_semantic"":""8"",""num_scrambled_causal"":""4"",""num_scrambled_schematic"":""4"",""participantId"":""0806AF6DA36A42189200AF58F574B929"",""assignmentId"":""0198bd57-974f-7164-bea3-8c8f26b3c0e4"",""projectId"":""0198bbb8-fd11-701d-9147-68794ad37298""}","https://test12345.live/?num_scrambled_semantic=8&num_scrambled_causal=4&num_scrambled_schematic=4&participantId=0806AF6DA36A42189200AF58F574B929&assignmentId=0198bd57-974f-7164-bea3-8c8f26b3c0e4&projectId=0198bbb8-fd11-701d-9147-68794ad37298","0806AF6DA36A42189200AF58F574B929-2025-08-18-14-04-04","","null","","images/causal_sequence/the_performance_causal/the_performance_causal_ten.png","null","",""
"","","","","","image-button-response","93","1262259","0.0-14.0-1.0-1.1","0806AF6DA36A42189200AF58F574B929","0806AF6DA36A42189200AF58F574B929","0198bd57-974f-7164-bea3-8c8f26b3c0e4","0198bbb8-fd11-701d-9147-68794ad37298","{""num_scrambled_semantic"":""8"",""num_scrambled_causal"":""4"",""num_scrambled_schematic"":""4"",""participantId"":""0806AF6DA36A42189200AF58F574B929"",""assignmentId"":""0198bd57-974f-7164-bea3-8c8f26b3c0e4"",""projectId"":""0198bbb8-fd11-701d-9147-68794ad37298""}","https://test12345.live/?num_scrambled_semantic=8&num_scrambled_causal=4&num_scrambled_schematic=4&participantId=0806AF6DA36A42189200AF58F574B929&assignmentId=0198bd57-974f-7164-bea3-8c8f26b3c0e4&projectId=0198bbb8-fd11-701d-9147-68794ad37298","0806AF6DA36A42189200AF58F574B929-2025-08-18-14-04-04","","1672","","images/causal_sequence/the_performance_causal/the_performance_causal_ten.png","0","",""
"","","","","","image-button-response","94","1273064","0.0-14.0-1.0-2.1","0806AF6DA36A42189200AF58F574B929","0806AF6DA36A42189200AF58F574B929","0198bd57-974f-7164-bea3-8c8f26b3c0e4","0198bbb8-fd11-701d-9147-68794ad37298","{""num_scrambled_semantic"":""8"",""num_scrambled_causal"":""4"",""num_scrambled_schematic"":""4"",""participantId"":""0806AF6DA36A42189200AF58F574B929"",""assignmentId"":""0198bd57-974f-7164-bea3-8c8f26b3c0e4"",""projectId"":""0198bbb8-fd11-701d-9147-68794ad37298""}","https://test12345.live/?num_scrambled_semantic=8&num_scrambled_causal=4&num_scrambled_schematic=4&participantId=0806AF6DA36A42189200AF58F574B929&assignmentId=0198bd57-974f-7164-bea3-8c8f26b3c0e4&projectId=0198bbb8-fd11-701d-9147-68794ad37298","0806AF6DA36A42189200AF58F574B929-2025-08-18-14-04-04","","null","","[]","null","",""
"","","","","","image-button-response","95","1277575","0.0-14.0-1.0-0.2","0806AF6DA36A42189200AF58F574B929","0806AF6DA36A42189200AF58F574B929","0198bd57-974f-7164-bea3-8c8f26b3c0e4","0198bbb8-fd11-701d-9147-68794ad37298","{""num_scrambled_semantic"":""8"",""num_scrambled_causal"":""4"",""num_scrambled_schematic"":""4"",""participantId"":""0806AF6DA36A42189200AF58F574B929"",""assignmentId"":""0198bd57-974f-7164-bea3-8c8f26b3c0e4"",""projectId"":""0198bbb8-fd11-701d-9147-68794ad37298""}","https://test12345.live/?num_scrambled_semantic=8&num_scrambled_causal=4&num_scrambled_schematic=4&participantId=0806AF6DA36A42189200AF58F574B929&assignmentId=0198bd57-974f-7164-bea3-8c8f26b3c0e4&projectId=0198bbb8-fd11-701d-9147-68794ad37298","0806AF6DA36A42189200AF58F574B929-2025-08-18-14-04-04","","null","","images/causal_sequence/the_performance_causal/the_performance_causal_8.png","null","",""
"","","","","","image-button-response","96","1278926","0.0-14.0-1.0-1.2","0806AF6DA36A42189200AF58F574B929","0806AF6DA36A42189200AF58F574B929","0198bd57-974f-7164-bea3-8c8f26b3c0e4","0198bbb8-fd11-701d-9147-68794ad37298","{""num_scrambled_semantic"":""8"",""num_scrambled_causal"":""4"",""num_scrambled_schematic"":""4"",""participantId"":""0806AF6DA36A42189200AF58F574B929"",""assignmentId"":""0198bd57-974f-7164-bea3-8c8f26b3c0e4"",""projectId"":""0198bbb8-fd11-701d-9147-68794ad37298""}","https://test12345.live/?num_scrambled_semantic=8&num_scrambled_causal=4&num_scrambled_schematic=4&participantId=0806AF6DA36A42189200AF58F574B929&assignmentId=0198bd57-974f-7164-bea3-8c8f26b3c0e4&projectId=0198bbb8-fd11-701d-9147-68794ad37298","0806AF6DA36A42189200AF58F574B929-2025-08-18-14-04-04","","1348","","images/causal_sequence/the_performance_causal/the_performance_causal_8.png","0","",""
"","","","","","image-button-response","97","1289740","0.0-14.0-1.0-2.2","0806AF6DA36A42189200AF58F574B929","0806AF6DA36A42189200AF58F574B929","0198bd57-974f-7164-bea3-8c8f26b3c0e4","0198bbb8-fd11-701d-9147-68794ad37298","{""num_scrambled_semantic"":""8"",""num_scrambled_causal"":""4"",""num_scrambled_schematic"":""4"",""participantId"":""0806AF6DA36A42189200AF58F574B929"",""assignmentId"":""0198bd57-974f-7164-bea3-8c8f26b3c0e4"",""projectId"":""0198bbb8-fd11-701d-9147-68794ad37298""}","https://test12345.live/?num_scrambled_semantic=8&num_scrambled_causal=4&num_scrambled_schematic=4&participantId=0806AF6DA36A42189200AF58F574B929&assignmentId=0198bd57-974f-7164-bea3-8c8f26b3c0e4&projectId=0198bbb8-fd11-701d-9147-68794ad37298","0806AF6DA36A42189200AF58F574B929-2025-08-18-14-04-04","","null","","[]","null","",""
"","","","","","image-button-response","98","1294255","0.0-14.0-1.0-0.3","0806AF6DA36A42189200AF58F574B929","0806AF6DA36A42189200AF58F574B929","0198bd57-974f-7164-bea3-8c8f26b3c0e4","0198bbb8-fd11-701d-9147-68794ad37298","{""num_scrambled_semantic"":""8"",""num_scrambled_causal"":""4"",""num_scrambled_schematic"":""4"",""participantId"":""0806AF6DA36A42189200AF58F574B929"",""assignmentId"":""0198bd57-974f-7164-bea3-8c8f26b3c0e4"",""projectId"":""0198bbb8-fd11-701d-9147-68794ad37298""}","https://test12345.live/?num_scrambled_semantic=8&num_scrambled_causal=4&num_scrambled_schematic=4&participantId=0806AF6DA36A42189200AF58F574B929&assignmentId=0198bd57-974f-7164-bea3-8c8f26b3c0e4&projectId=0198bbb8-fd11-701d-9147-68794ad37298","0806AF6DA36A42189200AF58F574B929-2025-08-18-14-04-04","","null","","images/causal_sequence/the_performance_causal/the_performance_causal_6.png","null","",""
"","","","","","image-button-response","99","1295795","0.0-14.0-1.0-1.3","0806AF6DA36A42189200AF58F574B929","0806AF6DA36A42189200AF58F574B929","0198bd57-974f-7164-bea3-8c8f26b3c0e4","0198bbb8-fd11-701d-9147-68794ad37298","{""num_scrambled_semantic"":""8"",""num_scrambled_causal"":""4"",""num_scrambled_schematic"":""4"",""participantId"":""0806AF6DA36A42189200AF58F574B929"",""assignmentId"":""0198bd57-974f-7164-bea3-8c8f26b3c0e4"",""projectId"":""0198bbb8-fd11-701d-9147-68794ad37298""}","https://test12345.live/?num_scrambled_semantic=8&num_scrambled_causal=4&num_scrambled_schematic=4&participantId=0806AF6DA36A42189200AF58F574B929&assignmentId=0198bd57-974f-7164-bea3-8c8f26b3c0e4&projectId=0198bbb8-fd11-701d-9147-68794ad37298","0806AF6DA36A42189200AF58F574B929-2025-08-18-14-04-04","","1538","","images/causal_sequence/the_performance_causal/the_performance_causal_6.png","0","",""
"","","","","","image-button-response","100","1306607","0.0-14.0-1.0-2.3","0806AF6DA36A42189200AF58F574B929","0806AF6DA36A42189200AF58F574B929","0198bd57-974f-7164-bea3-8c8f26b3c0e4","0198bbb8-fd11-701d-9147-68794ad37298","{""num_scrambled_semantic"":""8"",""num_scrambled_causal"":""4"",""num_scrambled_schematic"":""4"",""participantId"":""0806AF6DA36A42189200AF58F574B929"",""assignmentId"":""0198bd57-974f-7164-bea3-8c8f26b3c0e4"",""projectId"":""0198bbb8-fd11-701d-9147-68794ad37298""}","https://test12345.live/?num_scrambled_semantic=8&num_scrambled_causal=4&num_scrambled_schematic=4&participantId=0806AF6DA36A42189200AF58F574B929&assignmentId=0198bd57-974f-7164-bea3-8c8f26b3c0e4&projectId=0198bbb8-fd11-701d-9147-68794ad37298","0806AF6DA36A42189200AF58F574B929-2025-08-18-14-04-04","","null","","[]","null","",""
"","","","","","image-button-response","101","1311120","0.0-14.0-1.0-0.4","0806AF6DA36A42189200AF58F574B929","0806AF6DA36A42189200AF58F574B929","0198bd57-974f-7164-bea3-8c8f26b3c0e4","0198bbb8-fd11-701d-9147-68794ad37298","{""num_scrambled_semantic"":""8"",""num_scrambled_causal"":""4"",""num_scrambled_schematic"":""4"",""participantId"":""0806AF6DA36A42189200AF58F574B929"",""assignmentId"":""0198bd57-974f-7164-bea3-8c8f26b3c0e4"",""projectId"":""0198bbb8-fd11-701d-9147-68794ad37298""}","https://test12345.live/?num_scrambled_semantic=8&num_scrambled_causal=4&num_scrambled_schematic=4&participantId=0806AF6DA36A42189200AF58F574B929&assignmentId=0198bd57-974f-7164-bea3-8c8f26b3c0e4&projectId=0198bbb8-fd11-701d-9147-68794ad37298","0806AF6DA36A42189200AF58F574B929-2025-08-18-14-04-04","","null","","images/causal_sequence/the_performance_causal/the_performance_causal_3.png","null","",""
"","","","","","image-button-response","102","1312554","0.0-14.0-1.0-1.4","0806AF6DA36A42189200AF58F574B929","0806AF6DA36A42189200AF58F574B929","0198bd57-974f-7164-bea3-8c8f26b3c0e4","0198bbb8-fd11-701d-9147-68794ad37298","{""num_scrambled_semantic"":""8"",""num_scrambled_causal"":""4"",""num_scrambled_schematic"":""4"",""participantId"":""0806AF6DA36A42189200AF58F574B929"",""assignmentId"":""0198bd57-974f-7164-bea3-8c8f26b3c0e4"",""projectId"":""0198bbb8-fd11-701d-9147-68794ad37298""}","https://test12345.live/?num_scrambled_semantic=8&num_scrambled_causal=4&num_scrambled_schematic=4&participantId=0806AF6DA36A42189200AF58F574B929&assignmentId=0198bd57-974f-7164-bea3-8c8f26b3c0e4&projectId=0198bbb8-fd11-701d-9147-68794ad37298","0806AF6DA36A42189200AF58F574B929-2025-08-18-14-04-04","","1431","","images/causal_sequence/the_performance_causal/the_performance_causal_3.png","0","",""
"","","","","","image-button-response","103","1323368","0.0-14.0-1.0-2.4","0806AF6DA36A42189200AF58F574B929","0806AF6DA36A42189200AF58F574B929","0198bd57-974f-7164-bea3-8c8f26b3c0e4","0198bbb8-fd11-701d-9147-68794ad37298","{""num_scrambled_semantic"":""8"",""num_scrambled_causal"":""4"",""num_scrambled_schematic"":""4"",""participantId"":""0806AF6DA36A42189200AF58F574B929"",""assignmentId"":""0198bd57-974f-7164-bea3-8c8f26b3c0e4"",""projectId"":""0198bbb8-fd11-701d-9147-68794ad37298""}","https://test12345.live/?num_scrambled_semantic=8&num_scrambled_causal=4&num_scrambled_schematic=4&participantId=0806AF6DA36A42189200AF58F574B929&assignmentId=0198bd57-974f-7164-bea3-8c8f26b3c0e4&projectId=0198bbb8-fd11-701d-9147-68794ad37298","0806AF6DA36A42189200AF58F574B929-2025-08-18-14-04-04","","null","","[]","null","",""
"","","","","","image-button-response","104","1327877","0.0-14.0-1.0-0.5","0806AF6DA36A42189200AF58F574B929","0806AF6DA36A42189200AF58F574B929","0198bd57-974f-7164-bea3-8c8f26b3c0e4","0198bbb8-fd11-701d-9147-68794ad37298","{""num_scrambled_semantic"":""8"",""num_scrambled_causal"":""4"",""num_scrambled_schematic"":""4"",""participantId"":""0806AF6DA36A42189200AF58F574B929"",""assignmentId"":""0198bd57-974f-7164-bea3-8c8f26b3c0e4"",""projectId"":""0198bbb8-fd11-701d-9147-68794ad37298""}","https://test12345.live/?num_scrambled_semantic=8&num_scrambled_causal=4&num_scrambled_schematic=4&participantId=0806AF6DA36A42189200AF58F574B929&assignmentId=0198bd57-974f-7164-bea3-8c8f26b3c0e4&projectId=0198bbb8-fd11-701d-9147-68794ad37298","0806AF6DA36A42189200AF58F574B929-2025-08-18-14-04-04","","null","","images/causal_sequence/the_performance_causal/the_performance_causal_1.png","null","",""
"","","","","","image-button-response","105","1329481","0.0-14.0-1.0-1.5","0806AF6DA36A42189200AF58F574B929","0806AF6DA36A42189200AF58F574B929","0198bd57-974f-7164-bea3-8c8f26b3c0e4","0198bbb8-fd11-701d-9147-68794ad37298","{""num_scrambled_semantic"":""8"",""num_scrambled_causal"":""4"",""num_scrambled_schematic"":""4"",""participantId"":""0806AF6DA36A42189200AF58F574B929"",""assignmentId"":""0198bd57-974f-7164-bea3-8c8f26b3c0e4"",""projectId"":""0198bbb8-fd11-701d-9147-68794ad37298""}","https://test12345.live/?num_scrambled_semantic=8&num_scrambled_causal=4&num_scrambled_schematic=4&participantId=0806AF6DA36A42189200AF58F574B929&assignmentId=0198bd57-974f-7164-bea3-8c8f26b3c0e4&projectId=0198bbb8-fd11-701d-9147-68794ad37298","0806AF6DA36A42189200AF58F574B929-2025-08-18-14-04-04","","1597","","images/causal_sequence/the_performance_causal/the_performance_causal_1.png","0","",""
"","","","","","image-button-response","106","1340298","0.0-14.0-1.0-2.5","0806AF6DA36A42189200AF58F574B929","0806AF6DA36A42189200AF58F574B929","0198bd57-974f-7164-bea3-8c8f26b3c0e4","0198bbb8-fd11-701d-9147-68794ad37298","{""num_scrambled_semantic"":""8"",""num_scrambled_causal"":""4"",""num_scrambled_schematic"":""4"",""participantId"":""0806AF6DA36A42189200AF58F574B929"",""assignmentId"":""0198bd57-974f-7164-bea3-8c8f26b3c0e4"",""projectId"":""0198bbb8-fd11-701d-9147-68794ad37298""}","https://test12345.live/?num_scrambled_semantic=8&num_scrambled_causal=4&num_scrambled_schematic=4&participantId=0806AF6DA36A42189200AF58F574B929&assignmentId=0198bd57-974f-7164-bea3-8c8f26b3c0e4&projectId=0198bbb8-fd11-701d-9147-68794ad37298","0806AF6DA36A42189200AF58F574B929-2025-08-18-14-04-04","","null","","[]","null","",""
"","","","","","image-button-response","107","1344799","0.0-14.0-1.0-0.6","0806AF6DA36A42189200AF58F574B929","0806AF6DA36A42189200AF58F574B929","0198bd57-974f-7164-bea3-8c8f26b3c0e4","0198bbb8-fd11-701d-9147-68794ad37298","{""num_scrambled_semantic"":""8"",""num_scrambled_causal"":""4"",""num_scrambled_schematic"":""4"",""participantId"":""0806AF6DA36A42189200AF58F574B929"",""assignmentId"":""0198bd57-974f-7164-bea3-8c8f26b3c0e4"",""projectId"":""0198bbb8-fd11-701d-9147-68794ad37298""}","https://test12345.live/?num_scrambled_semantic=8&num_scrambled_causal=4&num_scrambled_schematic=4&participantId=0806AF6DA36A42189200AF58F574B929&assignmentId=0198bd57-974f-7164-bea3-8c8f26b3c0e4&projectId=0198bbb8-fd11-701d-9147-68794ad37298","0806AF6DA36A42189200AF58F574B929-2025-08-18-14-04-04","","null","","images/causal_sequence/the_performance_causal/the_performance_causal_2.png","null","",""
"","","","","","image-button-response","108","1347524","0.0-14.0-1.0-1.6","0806AF6DA36A42189200AF58F574B929","0806AF6DA36A42189200AF58F574B929","0198bd57-974f-7164-bea3-8c8f26b3c0e4","0198bbb8-fd11-701d-9147-68794ad37298","{""num_scrambled_semantic"":""8"",""num_scrambled_causal"":""4"",""num_scrambled_schematic"":""4"",""participantId"":""0806AF6DA36A42189200AF58F574B929"",""assignmentId"":""0198bd57-974f-7164-bea3-8c8f26b3c0e4"",""projectId"":""0198bbb8-fd11-701d-9147-68794ad37298""}","https://test12345.live/?num_scrambled_semantic=8&num_scrambled_causal=4&num_scrambled_schematic=4&participantId=0806AF6DA36A42189200AF58F574B929&assignmentId=0198bd57-974f-7164-bea3-8c8f26b3c0e4&projectId=0198bbb8-fd11-701d-9147-68794ad37298","0806AF6DA36A42189200AF58F574B929-2025-08-18-14-04-04","","2722","","images/causal_sequence/the_performance_causal/the_performance_causal_2.png","0","",""
"","","","","","image-button-response","109","1358333","0.0-14.0-1.0-2.6","0806AF6DA36A42189200AF58F574B929","0806AF6DA36A42189200AF58F574B929","0198bd57-974f-7164-bea3-8c8f26b3c0e4","0198bbb8-fd11-701d-9147-68794ad37298","{""num_scrambled_semantic"":""8"",""num_scrambled_causal"":""4"",""num_scrambled_schematic"":""4"",""participantId"":""0806AF6DA36A42189200AF58F574B929"",""assignmentId"":""0198bd57-974f-7164-bea3-8c8f26b3c0e4"",""projectId"":""0198bbb8-fd11-701d-9147-68794ad37298""}","https://test12345.live/?num_scrambled_semantic=8&num_scrambled_causal=4&num_scrambled_schematic=4&participantId=0806AF6DA36A42189200AF58F574B929&assignmentId=0198bd57-974f-7164-bea3-8c8f26b3c0e4&projectId=0198bbb8-fd11-701d-9147-68794ad37298","0806AF6DA36A42189200AF58F574B929-2025-08-18-14-04-04","","null","","[]","null","",""
"","","","","","image-button-response","110","1362840","0.0-14.0-1.0-0.7","0806AF6DA36A42189200AF58F574B929","0806AF6DA36A42189200AF58F574B929","0198bd57-974f-7164-bea3-8c8f26b3c0e4","0198bbb8-fd11-701d-9147-68794ad37298","{""num_scrambled_semantic"":""8"",""num_scrambled_causal"":""4"",""num_scrambled_schematic"":""4"",""participantId"":""0806AF6DA36A42189200AF58F574B929"",""assignmentId"":""0198bd57-974f-7164-bea3-8c8f26b3c0e4"",""projectId"":""0198bbb8-fd11-701d-9147-68794ad37298""}","https://test12345.live/?num_scrambled_semantic=8&num_scrambled_causal=4&num_scrambled_schematic=4&participantId=0806AF6DA36A42189200AF58F574B929&assignmentId=0198bd57-974f-7164-bea3-8c8f26b3c0e4&projectId=0198bbb8-fd11-701d-9147-68794ad37298","0806AF6DA36A42189200AF58F574B929-2025-08-18-14-04-04","","null","","images/causal_sequence/the_performance_causal/the_performance_causal_7.png","null","",""
"","","","","","image-button-response","111","1363997","0.0-14.0-1.0-1.7","0806AF6DA36A42189200AF58F574B929","0806AF6DA36A42189200AF58F574B929","0198bd57-974f-7164-bea3-8c8f26b3c0e4","0198bbb8-fd11-701d-9147-68794ad37298","{""num_scrambled_semantic"":""8"",""num_scrambled_causal"":""4"",""num_scrambled_schematic"":""4"",""participantId"":""0806AF6DA36A42189200AF58F574B929"",""assignmentId"":""0198bd57-974f-7164-bea3-8c8f26b3c0e4"",""projectId"":""0198bbb8-fd11-701d-9147-68794ad37298""}","https://test12345.live/?num_scrambled_semantic=8&num_scrambled_causal=4&num_scrambled_schematic=4&participantId=0806AF6DA36A42189200AF58F574B929&assignmentId=0198bd57-974f-7164-bea3-8c8f26b3c0e4&projectId=0198bbb8-fd11-701d-9147-68794ad37298","0806AF6DA36A42189200AF58F574B929-2025-08-18-14-04-04","","1156","","images/causal_sequence/the_performance_causal/the_performance_causal_7.png","0","",""
"","","","","","image-button-response","112","1374801","0.0-14.0-1.0-2.7","0806AF6DA36A42189200AF58F574B929","0806AF6DA36A42189200AF58F574B929","0198bd57-974f-7164-bea3-8c8f26b3c0e4","0198bbb8-fd11-701d-9147-68794ad37298","{""num_scrambled_semantic"":""8"",""num_scrambled_causal"":""4"",""num_scrambled_schematic"":""4"",""participantId"":""0806AF6DA36A42189200AF58F574B929"",""assignmentId"":""0198bd57-974f-7164-bea3-8c8f26b3c0e4"",""projectId"":""0198bbb8-fd11-701d-9147-68794ad37298""}","https://test12345.live/?num_scrambled_semantic=8&num_scrambled_causal=4&num_scrambled_schematic=4&participantId=0806AF6DA36A42189200AF58F574B929&assignmentId=0198bd57-974f-7164-bea3-8c8f26b3c0e4&projectId=0198bbb8-fd11-701d-9147-68794ad37298","0806AF6DA36A42189200AF58F574B929-2025-08-18-14-04-04","","null","","[]","null","",""
"","","","","","image-button-response","113","1379313","0.0-14.0-1.0-0.8","0806AF6DA36A42189200AF58F574B929","0806AF6DA36A42189200AF58F574B929","0198bd57-974f-7164-bea3-8c8f26b3c0e4","0198bbb8-fd11-701d-9147-68794ad37298","{""num_scrambled_semantic"":""8"",""num_scrambled_causal"":""4"",""num_scrambled_schematic"":""4"",""participantId"":""0806AF6DA36A42189200AF58F574B929"",""assignmentId"":""0198bd57-974f-7164-bea3-8c8f26b3c0e4"",""projectId"":""0198bbb8-fd11-701d-9147-68794ad37298""}","https://test12345.live/?num_scrambled_semantic=8&num_scrambled_causal=4&num_scrambled_schematic=4&participantId=0806AF6DA36A42189200AF58F574B929&assignmentId=0198bd57-974f-7164-bea3-8c8f26b3c0e4&projectId=0198bbb8-fd11-701d-9147-68794ad37298","0806AF6DA36A42189200AF58F574B929-2025-08-18-14-04-04","","null","","images/causal_sequence/the_performance_causal/the_performance_causal_9.png","null","",""
"","","","","","image-button-response","114","1380330","0.0-14.0-1.0-1.8","0806AF6DA36A42189200AF58F574B929","0806AF6DA36A42189200AF58F574B929","0198bd57-974f-7164-bea3-8c8f26b3c0e4","0198bbb8-fd11-701d-9147-68794ad37298","{""num_scrambled_semantic"":""8"",""num_scrambled_causal"":""4"",""num_scrambled_schematic"":""4"",""participantId"":""0806AF6DA36A42189200AF58F574B929"",""assignmentId"":""0198bd57-974f-7164-bea3-8c8f26b3c0e4"",""projectId"":""0198bbb8-fd11-701d-9147-68794ad37298""}","https://test12345.live/?num_scrambled_semantic=8&num_scrambled_causal=4&num_scrambled_schematic=4&participantId=0806AF6DA36A42189200AF58F574B929&assignmentId=0198bd57-974f-7164-bea3-8c8f26b3c0e4&projectId=0198bbb8-fd11-701d-9147-68794ad37298","0806AF6DA36A42189200AF58F574B929-2025-08-18-14-04-04","","1016","","images/causal_sequence/the_performance_causal/the_performance_causal_9.png","0","",""
