"success","timeout","failed_images","failed_audio","failed_video","trial_type","trial_index","time_elapsed","internal_node_id","subject","subject_id","study_id","session_id","urlvar","current_url","audio_id","view_history","rt","device_id","stimulus","response","estimated_stimulus_onset","seq_name"
"true","false","[]","[]","[]","preload","0","4476","0.0-0.0","0A107DA056AD49E289FBA3922D72F56E","0A107DA056AD49E289FBA3922D72F56E","10476929-7c19-4785-8046-97cb175aa076","5e631737-0fa4-44a6-b227-7ba1d7345015","{""num_scrambled_semantic"":""8"",""num_scrambled_causal"":""4"",""num_scrambled_schematic"":""4"",""participantId"":""0A107DA056AD49E289FBA3922D72F56E"",""assignmentId"":""10476929-7c19-4785-8046-97cb175aa076"",""projectId"":""5e631737-0fa4-44a6-b227-7ba1d7345015""}","https://test12345.live/?num_scrambled_semantic=8&num_scrambled_causal=4&num_scrambled_schematic=4&participantId=0A107DA056AD49E289FBA3922D72F56E&assignmentId=10476929-7c19-4785-8046-97cb175aa076&projectId=5e631737-0fa4-44a6-b227-7ba1d7345015","0A107DA056AD49E289FBA3922D72F56E-2025-05-27-18-51-23","","","","","","",""
"","","","","","instructions","1","125933","0.0-1.0","0A107DA056AD49E289FBA3922D72F56E","0A107DA056AD49E289FBA3922D72F56E","10476929-7c19-4785-8046-97cb175aa076","5e631737-0fa4-44a6-b227-7ba1d7345015","{""num_scrambled_semantic"":""8"",""num_scrambled_causal"":""4"",""num_scrambled_schematic"":""4"",""participantId"":""0A107DA056AD49E289FBA3922D72F56E"",""assignmentId"":""10476929-7c19-4785-8046-97cb175aa076"",""projectId"":""5e631737-0fa4-44a6-b227-7ba1d7345015""}","https://test12345.live/?num_scrambled_semantic=8&num_scrambled_causal=4&num_scrambled_schematic=4&participantId=0A107DA056AD49E289FBA3922D72F56E&assignmentId=10476929-7c19-4785-8046-97cb175aa076&projectId=5e631737-0fa4-44a6-b227-7ba1d7345015","0A107DA056AD49E289FBA3922D72F56E-2025-05-27-18-51-23","[{""page_index"":0,""viewing_time"":121455}]","121455","","","","",""
"","","","","","instructions","2","130271","0.0-2.0","0A107DA056AD49E289FBA3922D72F56E","0A107DA056AD49E289FBA3922D72F56E","10476929-7c19-4785-8046-97cb175aa076","5e631737-0fa4-44a6-b227-7ba1d7345015","{""num_scrambled_semantic"":""8"",""num_scrambled_causal"":""4"",""num_scrambled_schematic"":""4"",""participantId"":""0A107DA056AD49E289FBA3922D72F56E"",""assignmentId"":""10476929-7c19-4785-8046-97cb175aa076"",""projectId"":""5e631737-0fa4-44a6-b227-7ba1d7345015""}","https://test12345.live/?num_scrambled_semantic=8&num_scrambled_causal=4&num_scrambled_schematic=4&participantId=0A107DA056AD49E289FBA3922D72F56E&assignmentId=10476929-7c19-4785-8046-97cb175aa076&projectId=5e631737-0fa4-44a6-b227-7ba1d7345015","0A107DA056AD49E289FBA3922D72F56E-2025-05-27-18-51-23","[{""page_index"":0,""viewing_time"":4332}]","4332","","","","",""
"true","","","","","fullscreen","3","170347","0.0-3.0","0A107DA056AD49E289FBA3922D72F56E","0A107DA056AD49E289FBA3922D72F56E","10476929-7c19-4785-8046-97cb175aa076","5e631737-0fa4-44a6-b227-7ba1d7345015","{""num_scrambled_semantic"":""8"",""num_scrambled_causal"":""4"",""num_scrambled_schematic"":""4"",""participantId"":""0A107DA056AD49E289FBA3922D72F56E"",""assignmentId"":""10476929-7c19-4785-8046-97cb175aa076"",""projectId"":""5e631737-0fa4-44a6-b227-7ba1d7345015""}","https://test12345.live/?num_scrambled_semantic=8&num_scrambled_causal=4&num_scrambled_schematic=4&participantId=0A107DA056AD49E289FBA3922D72F56E&assignmentId=10476929-7c19-4785-8046-97cb175aa076&projectId=5e631737-0fa4-44a6-b227-7ba1d7345015","0A107DA056AD49E289FBA3922D72F56E-2025-05-27-18-51-23","","39070","","","","",""
"","","","","","initialize-microphone","4","183602","0.0-4.0-0.0","0A107DA056AD49E289FBA3922D72F56E","0A107DA056AD49E289FBA3922D72F56E","10476929-7c19-4785-8046-97cb175aa076","5e631737-0fa4-44a6-b227-7ba1d7345015","{""num_scrambled_semantic"":""8"",""num_scrambled_causal"":""4"",""num_scrambled_schematic"":""4"",""participantId"":""0A107DA056AD49E289FBA3922D72F56E"",""assignmentId"":""10476929-7c19-4785-8046-97cb175aa076"",""projectId"":""5e631737-0fa4-44a6-b227-7ba1d7345015""}","https://test12345.live/?num_scrambled_semantic=8&num_scrambled_causal=4&num_scrambled_schematic=4&participantId=0A107DA056AD49E289FBA3922D72F56E&assignmentId=10476929-7c19-4785-8046-97cb175aa076&projectId=5e631737-0fa4-44a6-b227-7ba1d7345015","0A107DA056AD49E289FBA3922D72F56E-2025-05-27-18-51-23","","","59bd3f5d74ee531fb9a892f92c0413a3a8033d777a08aed108c6c73b5debf386","","","",""
"","","","","","html-audio-response","5","198705","0.0-4.0-1.0","0A107DA056AD49E289FBA3922D72F56E","0A107DA056AD49E289FBA3922D72F56E","10476929-7c19-4785-8046-97cb175aa076","5e631737-0fa4-44a6-b227-7ba1d7345015","{""num_scrambled_semantic"":""8"",""num_scrambled_causal"":""4"",""num_scrambled_schematic"":""4"",""participantId"":""0A107DA056AD49E289FBA3922D72F56E"",""assignmentId"":""10476929-7c19-4785-8046-97cb175aa076"",""projectId"":""5e631737-0fa4-44a6-b227-7ba1d7345015""}","https://test12345.live/?num_scrambled_semantic=8&num_scrambled_causal=4&num_scrambled_schematic=4&participantId=0A107DA056AD49E289FBA3922D72F56E&assignmentId=10476929-7c19-4785-8046-97cb175aa076&projectId=5e631737-0fa4-44a6-b227-7ba1d7345015","0A107DA056AD49E289FBA3922D72F56E-2025-05-27-18-51-23","","2707","","<span style=""color: red; font-size: 24px""> NOW RECORDING</span>
        <p>Please test Microphone</p>","","234",""
"","","","","","html-button-response","6","200295","0.0-4.0-2.0","0A107DA056AD49E289FBA3922D72F56E","0A107DA056AD49E289FBA3922D72F56E","10476929-7c19-4785-8046-97cb175aa076","5e631737-0fa4-44a6-b227-7ba1d7345015","{""num_scrambled_semantic"":""8"",""num_scrambled_causal"":""4"",""num_scrambled_schematic"":""4"",""participantId"":""0A107DA056AD49E289FBA3922D72F56E"",""assignmentId"":""10476929-7c19-4785-8046-97cb175aa076"",""projectId"":""5e631737-0fa4-44a6-b227-7ba1d7345015""}","https://test12345.live/?num_scrambled_semantic=8&num_scrambled_causal=4&num_scrambled_schematic=4&participantId=0A107DA056AD49E289FBA3922D72F56E&assignmentId=10476929-7c19-4785-8046-97cb175aa076&projectId=5e631737-0fa4-44a6-b227-7ba1d7345015","0A107DA056AD49E289FBA3922D72F56E-2025-05-27-18-51-23","","1580","","<p style=""font-size:48px; color:red;"">Is Microphone OK?</p>","1","",""
"","","","","","instructions","7","224098","0.0-5.0","0A107DA056AD49E289FBA3922D72F56E","0A107DA056AD49E289FBA3922D72F56E","10476929-7c19-4785-8046-97cb175aa076","5e631737-0fa4-44a6-b227-7ba1d7345015","{""num_scrambled_semantic"":""8"",""num_scrambled_causal"":""4"",""num_scrambled_schematic"":""4"",""participantId"":""0A107DA056AD49E289FBA3922D72F56E"",""assignmentId"":""10476929-7c19-4785-8046-97cb175aa076"",""projectId"":""5e631737-0fa4-44a6-b227-7ba1d7345015""}","https://test12345.live/?num_scrambled_semantic=8&num_scrambled_causal=4&num_scrambled_schematic=4&participantId=0A107DA056AD49E289FBA3922D72F56E&assignmentId=10476929-7c19-4785-8046-97cb175aa076&projectId=5e631737-0fa4-44a6-b227-7ba1d7345015","0A107DA056AD49E289FBA3922D72F56E-2025-05-27-18-51-23","[{""page_index"":0,""viewing_time"":9804},{""page_index"":1,""viewing_time"":13996}]","23800","","","","",""
"","","","","","image-button-response","8","230111","0.0-6.0-0.0","0A107DA056AD49E289FBA3922D72F56E","0A107DA056AD49E289FBA3922D72F56E","10476929-7c19-4785-8046-97cb175aa076","5e631737-0fa4-44a6-b227-7ba1d7345015","{""num_scrambled_semantic"":""8"",""num_scrambled_causal"":""4"",""num_scrambled_schematic"":""4"",""participantId"":""0A107DA056AD49E289FBA3922D72F56E"",""assignmentId"":""10476929-7c19-4785-8046-97cb175aa076"",""projectId"":""5e631737-0fa4-44a6-b227-7ba1d7345015""}","https://test12345.live/?num_scrambled_semantic=8&num_scrambled_causal=4&num_scrambled_schematic=4&participantId=0A107DA056AD49E289FBA3922D72F56E&assignmentId=10476929-7c19-4785-8046-97cb175aa076&projectId=5e631737-0fa4-44a6-b227-7ba1d7345015","0A107DA056AD49E289FBA3922D72F56E-2025-05-27-18-51-23","","null","","images/instructions/movie_0.png","null","",""
"","","","","","image-button-response","9","234614","0.0-6.0-1.0-0.0","0A107DA056AD49E289FBA3922D72F56E","0A107DA056AD49E289FBA3922D72F56E","10476929-7c19-4785-8046-97cb175aa076","5e631737-0fa4-44a6-b227-7ba1d7345015","{""num_scrambled_semantic"":""8"",""num_scrambled_causal"":""4"",""num_scrambled_schematic"":""4"",""participantId"":""0A107DA056AD49E289FBA3922D72F56E"",""assignmentId"":""10476929-7c19-4785-8046-97cb175aa076"",""projectId"":""5e631737-0fa4-44a6-b227-7ba1d7345015""}","https://test12345.live/?num_scrambled_semantic=8&num_scrambled_causal=4&num_scrambled_schematic=4&participantId=0A107DA056AD49E289FBA3922D72F56E&assignmentId=10476929-7c19-4785-8046-97cb175aa076&projectId=5e631737-0fa4-44a6-b227-7ba1d7345015","0A107DA056AD49E289FBA3922D72F56E-2025-05-27-18-51-23","","null","","images/instructions/movie_1.png","null","",""
"","","","","","image-button-response","10","237335","0.0-6.0-1.0-1.0","0A107DA056AD49E289FBA3922D72F56E","0A107DA056AD49E289FBA3922D72F56E","10476929-7c19-4785-8046-97cb175aa076","5e631737-0fa4-44a6-b227-7ba1d7345015","{""num_scrambled_semantic"":""8"",""num_scrambled_causal"":""4"",""num_scrambled_schematic"":""4"",""participantId"":""0A107DA056AD49E289FBA3922D72F56E"",""assignmentId"":""10476929-7c19-4785-8046-97cb175aa076"",""projectId"":""5e631737-0fa4-44a6-b227-7ba1d7345015""}","https://test12345.live/?num_scrambled_semantic=8&num_scrambled_causal=4&num_scrambled_schematic=4&participantId=0A107DA056AD49E289FBA3922D72F56E&assignmentId=10476929-7c19-4785-8046-97cb175aa076&projectId=5e631737-0fa4-44a6-b227-7ba1d7345015","0A107DA056AD49E289FBA3922D72F56E-2025-05-27-18-51-23","","2719","","images/instructions/movie_1.png","0","",""
"","","","","","image-button-response","11","239146","0.0-6.0-1.0-2.0","0A107DA056AD49E289FBA3922D72F56E","0A107DA056AD49E289FBA3922D72F56E","10476929-7c19-4785-8046-97cb175aa076","5e631737-0fa4-44a6-b227-7ba1d7345015","{""num_scrambled_semantic"":""8"",""num_scrambled_causal"":""4"",""num_scrambled_schematic"":""4"",""participantId"":""0A107DA056AD49E289FBA3922D72F56E"",""assignmentId"":""10476929-7c19-4785-8046-97cb175aa076"",""projectId"":""5e631737-0fa4-44a6-b227-7ba1d7345015""}","https://test12345.live/?num_scrambled_semantic=8&num_scrambled_causal=4&num_scrambled_schematic=4&participantId=0A107DA056AD49E289FBA3922D72F56E&assignmentId=10476929-7c19-4785-8046-97cb175aa076&projectId=5e631737-0fa4-44a6-b227-7ba1d7345015","0A107DA056AD49E289FBA3922D72F56E-2025-05-27-18-51-23","","null","","[]","null","",""
"","","","","","image-button-response","12","243653","0.0-6.0-1.0-0.1","0A107DA056AD49E289FBA3922D72F56E","0A107DA056AD49E289FBA3922D72F56E","10476929-7c19-4785-8046-97cb175aa076","5e631737-0fa4-44a6-b227-7ba1d7345015","{""num_scrambled_semantic"":""8"",""num_scrambled_causal"":""4"",""num_scrambled_schematic"":""4"",""participantId"":""0A107DA056AD49E289FBA3922D72F56E"",""assignmentId"":""10476929-7c19-4785-8046-97cb175aa076"",""projectId"":""5e631737-0fa4-44a6-b227-7ba1d7345015""}","https://test12345.live/?num_scrambled_semantic=8&num_scrambled_causal=4&num_scrambled_schematic=4&participantId=0A107DA056AD49E289FBA3922D72F56E&assignmentId=10476929-7c19-4785-8046-97cb175aa076&projectId=5e631737-0fa4-44a6-b227-7ba1d7345015","0A107DA056AD49E289FBA3922D72F56E-2025-05-27-18-51-23","","null","","images/instructions/movie_2.png","null","",""
"","","","","","image-button-response","13","246165","0.0-6.0-1.0-1.1","0A107DA056AD49E289FBA3922D72F56E","0A107DA056AD49E289FBA3922D72F56E","10476929-7c19-4785-8046-97cb175aa076","5e631737-0fa4-44a6-b227-7ba1d7345015","{""num_scrambled_semantic"":""8"",""num_scrambled_causal"":""4"",""num_scrambled_schematic"":""4"",""participantId"":""0A107DA056AD49E289FBA3922D72F56E"",""assignmentId"":""10476929-7c19-4785-8046-97cb175aa076"",""projectId"":""5e631737-0fa4-44a6-b227-7ba1d7345015""}","https://test12345.live/?num_scrambled_semantic=8&num_scrambled_causal=4&num_scrambled_schematic=4&participantId=0A107DA056AD49E289FBA3922D72F56E&assignmentId=10476929-7c19-4785-8046-97cb175aa076&projectId=5e631737-0fa4-44a6-b227-7ba1d7345015","0A107DA056AD49E289FBA3922D72F56E-2025-05-27-18-51-23","","2510","","images/instructions/movie_2.png","0","",""
"","","","","","image-button-response","14","247973","0.0-6.0-1.0-2.1","0A107DA056AD49E289FBA3922D72F56E","0A107DA056AD49E289FBA3922D72F56E","10476929-7c19-4785-8046-97cb175aa076","5e631737-0fa4-44a6-b227-7ba1d7345015","{""num_scrambled_semantic"":""8"",""num_scrambled_causal"":""4"",""num_scrambled_schematic"":""4"",""participantId"":""0A107DA056AD49E289FBA3922D72F56E"",""assignmentId"":""10476929-7c19-4785-8046-97cb175aa076"",""projectId"":""5e631737-0fa4-44a6-b227-7ba1d7345015""}","https://test12345.live/?num_scrambled_semantic=8&num_scrambled_causal=4&num_scrambled_schematic=4&participantId=0A107DA056AD49E289FBA3922D72F56E&assignmentId=10476929-7c19-4785-8046-97cb175aa076&projectId=5e631737-0fa4-44a6-b227-7ba1d7345015","0A107DA056AD49E289FBA3922D72F56E-2025-05-27-18-51-23","","null","","[]","null","",""
"","","","","","image-button-response","15","252476","0.0-6.0-1.0-0.2","0A107DA056AD49E289FBA3922D72F56E","0A107DA056AD49E289FBA3922D72F56E","10476929-7c19-4785-8046-97cb175aa076","5e631737-0fa4-44a6-b227-7ba1d7345015","{""num_scrambled_semantic"":""8"",""num_scrambled_causal"":""4"",""num_scrambled_schematic"":""4"",""participantId"":""0A107DA056AD49E289FBA3922D72F56E"",""assignmentId"":""10476929-7c19-4785-8046-97cb175aa076"",""projectId"":""5e631737-0fa4-44a6-b227-7ba1d7345015""}","https://test12345.live/?num_scrambled_semantic=8&num_scrambled_causal=4&num_scrambled_schematic=4&participantId=0A107DA056AD49E289FBA3922D72F56E&assignmentId=10476929-7c19-4785-8046-97cb175aa076&projectId=5e631737-0fa4-44a6-b227-7ba1d7345015","0A107DA056AD49E289FBA3922D72F56E-2025-05-27-18-51-23","","null","","images/instructions/movie_3.png","null","",""
"","","","","","image-button-response","16","253475","0.0-6.0-1.0-1.2","0A107DA056AD49E289FBA3922D72F56E","0A107DA056AD49E289FBA3922D72F56E","10476929-7c19-4785-8046-97cb175aa076","5e631737-0fa4-44a6-b227-7ba1d7345015","{""num_scrambled_semantic"":""8"",""num_scrambled_causal"":""4"",""num_scrambled_schematic"":""4"",""participantId"":""0A107DA056AD49E289FBA3922D72F56E"",""assignmentId"":""10476929-7c19-4785-8046-97cb175aa076"",""projectId"":""5e631737-0fa4-44a6-b227-7ba1d7345015""}","https://test12345.live/?num_scrambled_semantic=8&num_scrambled_causal=4&num_scrambled_schematic=4&participantId=0A107DA056AD49E289FBA3922D72F56E&assignmentId=10476929-7c19-4785-8046-97cb175aa076&projectId=5e631737-0fa4-44a6-b227-7ba1d7345015","0A107DA056AD49E289FBA3922D72F56E-2025-05-27-18-51-23","","998","","images/instructions/movie_3.png","0","",""
"","","","","","image-button-response","17","255287","0.0-6.0-1.0-2.2","0A107DA056AD49E289FBA3922D72F56E","0A107DA056AD49E289FBA3922D72F56E","10476929-7c19-4785-8046-97cb175aa076","5e631737-0fa4-44a6-b227-7ba1d7345015","{""num_scrambled_semantic"":""8"",""num_scrambled_causal"":""4"",""num_scrambled_schematic"":""4"",""participantId"":""0A107DA056AD49E289FBA3922D72F56E"",""assignmentId"":""10476929-7c19-4785-8046-97cb175aa076"",""projectId"":""5e631737-0fa4-44a6-b227-7ba1d7345015""}","https://test12345.live/?num_scrambled_semantic=8&num_scrambled_causal=4&num_scrambled_schematic=4&participantId=0A107DA056AD49E289FBA3922D72F56E&assignmentId=10476929-7c19-4785-8046-97cb175aa076&projectId=5e631737-0fa4-44a6-b227-7ba1d7345015","0A107DA056AD49E289FBA3922D72F56E-2025-05-27-18-51-23","","null","","[]","null","",""
"","","","","","image-button-response","18","259788","0.0-6.0-1.0-0.3","0A107DA056AD49E289FBA3922D72F56E","0A107DA056AD49E289FBA3922D72F56E","10476929-7c19-4785-8046-97cb175aa076","5e631737-0fa4-44a6-b227-7ba1d7345015","{""num_scrambled_semantic"":""8"",""num_scrambled_causal"":""4"",""num_scrambled_schematic"":""4"",""participantId"":""0A107DA056AD49E289FBA3922D72F56E"",""assignmentId"":""10476929-7c19-4785-8046-97cb175aa076"",""projectId"":""5e631737-0fa4-44a6-b227-7ba1d7345015""}","https://test12345.live/?num_scrambled_semantic=8&num_scrambled_causal=4&num_scrambled_schematic=4&participantId=0A107DA056AD49E289FBA3922D72F56E&assignmentId=10476929-7c19-4785-8046-97cb175aa076&projectId=5e631737-0fa4-44a6-b227-7ba1d7345015","0A107DA056AD49E289FBA3922D72F56E-2025-05-27-18-51-23","","null","","images/instructions/movie_4.png","null","",""
"","","","","","image-button-response","19","261467","0.0-6.0-1.0-1.3","0A107DA056AD49E289FBA3922D72F56E","0A107DA056AD49E289FBA3922D72F56E","10476929-7c19-4785-8046-97cb175aa076","5e631737-0fa4-44a6-b227-7ba1d7345015","{""num_scrambled_semantic"":""8"",""num_scrambled_causal"":""4"",""num_scrambled_schematic"":""4"",""participantId"":""0A107DA056AD49E289FBA3922D72F56E"",""assignmentId"":""10476929-7c19-4785-8046-97cb175aa076"",""projectId"":""5e631737-0fa4-44a6-b227-7ba1d7345015""}","https://test12345.live/?num_scrambled_semantic=8&num_scrambled_causal=4&num_scrambled_schematic=4&participantId=0A107DA056AD49E289FBA3922D72F56E&assignmentId=10476929-7c19-4785-8046-97cb175aa076&projectId=5e631737-0fa4-44a6-b227-7ba1d7345015","0A107DA056AD49E289FBA3922D72F56E-2025-05-27-18-51-23","","1678","","images/instructions/movie_4.png","0","",""
"","","","","","image-button-response","20","263273","0.0-6.0-1.0-2.3","0A107DA056AD49E289FBA3922D72F56E","0A107DA056AD49E289FBA3922D72F56E","10476929-7c19-4785-8046-97cb175aa076","5e631737-0fa4-44a6-b227-7ba1d7345015","{""num_scrambled_semantic"":""8"",""num_scrambled_causal"":""4"",""num_scrambled_schematic"":""4"",""participantId"":""0A107DA056AD49E289FBA3922D72F56E"",""assignmentId"":""10476929-7c19-4785-8046-97cb175aa076"",""projectId"":""5e631737-0fa4-44a6-b227-7ba1d7345015""}","https://test12345.live/?num_scrambled_semantic=8&num_scrambled_causal=4&num_scrambled_schematic=4&participantId=0A107DA056AD49E289FBA3922D72F56E&assignmentId=10476929-7c19-4785-8046-97cb175aa076&projectId=5e631737-0fa4-44a6-b227-7ba1d7345015","0A107DA056AD49E289FBA3922D72F56E-2025-05-27-18-51-23","","null","","[]","null","",""
"","","","","","instructions","21","286516","0.0-7.0","0A107DA056AD49E289FBA3922D72F56E","0A107DA056AD49E289FBA3922D72F56E","10476929-7c19-4785-8046-97cb175aa076","5e631737-0fa4-44a6-b227-7ba1d7345015","{""num_scrambled_semantic"":""8"",""num_scrambled_causal"":""4"",""num_scrambled_schematic"":""4"",""participantId"":""0A107DA056AD49E289FBA3922D72F56E"",""assignmentId"":""10476929-7c19-4785-8046-97cb175aa076"",""projectId"":""5e631737-0fa4-44a6-b227-7ba1d7345015""}","https://test12345.live/?num_scrambled_semantic=8&num_scrambled_causal=4&num_scrambled_schematic=4&participantId=0A107DA056AD49E289FBA3922D72F56E&assignmentId=10476929-7c19-4785-8046-97cb175aa076&projectId=5e631737-0fa4-44a6-b227-7ba1d7345015","0A107DA056AD49E289FBA3922D72F56E-2025-05-27-18-51-23","[{""page_index"":0,""viewing_time"":20044},{""page_index"":1,""viewing_time"":3198}]","23242","","","","",""
"","","","","","html-audio-response","22","371614","0.0-8.0","0A107DA056AD49E289FBA3922D72F56E","0A107DA056AD49E289FBA3922D72F56E","10476929-7c19-4785-8046-97cb175aa076","5e631737-0fa4-44a6-b227-7ba1d7345015","{""num_scrambled_semantic"":""8"",""num_scrambled_causal"":""4"",""num_scrambled_schematic"":""4"",""participantId"":""0A107DA056AD49E289FBA3922D72F56E"",""assignmentId"":""10476929-7c19-4785-8046-97cb175aa076"",""projectId"":""5e631737-0fa4-44a6-b227-7ba1d7345015""}","https://test12345.live/?num_scrambled_semantic=8&num_scrambled_causal=4&num_scrambled_schematic=4&participantId=0A107DA056AD49E289FBA3922D72F56E&assignmentId=10476929-7c19-4785-8046-97cb175aa076&projectId=5e631737-0fa4-44a6-b227-7ba1d7345015","0A107DA056AD49E289FBA3922D72F56E-2025-05-27-18-51-23","","18471","","[""<span style=\""color: red; font-size: 24px\""> NOW RECORDING</span><p>Please say out loud all the images you saw in the exact order you saw them. Try to recall as many images as you can, but remember: getting the order right is more important than the number of images you recall.</p>""]","","2",""
"","","","","","instructions","23","378693","0.0-9.0","0A107DA056AD49E289FBA3922D72F56E","0A107DA056AD49E289FBA3922D72F56E","10476929-7c19-4785-8046-97cb175aa076","5e631737-0fa4-44a6-b227-7ba1d7345015","{""num_scrambled_semantic"":""8"",""num_scrambled_causal"":""4"",""num_scrambled_schematic"":""4"",""participantId"":""0A107DA056AD49E289FBA3922D72F56E"",""assignmentId"":""10476929-7c19-4785-8046-97cb175aa076"",""projectId"":""5e631737-0fa4-44a6-b227-7ba1d7345015""}","https://test12345.live/?num_scrambled_semantic=8&num_scrambled_causal=4&num_scrambled_schematic=4&participantId=0A107DA056AD49E289FBA3922D72F56E&assignmentId=10476929-7c19-4785-8046-97cb175aa076&projectId=5e631737-0fa4-44a6-b227-7ba1d7345015","0A107DA056AD49E289FBA3922D72F56E-2025-05-27-18-51-23","[{""page_index"":0,""viewing_time"":7066}]","7067","","","","",""
"","","","","","image-button-response","24","384700","0.0-10.0-0.0","0A107DA056AD49E289FBA3922D72F56E","0A107DA056AD49E289FBA3922D72F56E","10476929-7c19-4785-8046-97cb175aa076","5e631737-0fa4-44a6-b227-7ba1d7345015","{""num_scrambled_semantic"":""8"",""num_scrambled_causal"":""4"",""num_scrambled_schematic"":""4"",""participantId"":""0A107DA056AD49E289FBA3922D72F56E"",""assignmentId"":""10476929-7c19-4785-8046-97cb175aa076"",""projectId"":""5e631737-0fa4-44a6-b227-7ba1d7345015""}","https://test12345.live/?num_scrambled_semantic=8&num_scrambled_causal=4&num_scrambled_schematic=4&participantId=0A107DA056AD49E289FBA3922D72F56E&assignmentId=10476929-7c19-4785-8046-97cb175aa076&projectId=5e631737-0fa4-44a6-b227-7ba1d7345015","0A107DA056AD49E289FBA3922D72F56E-2025-05-27-18-51-23","","null","","images/causal_sequence/museum_causal/museum_causal_0.png","null","",""
"","","","","","image-button-response","25","389207","0.0-10.0-1.0-0.0","0A107DA056AD49E289FBA3922D72F56E","0A107DA056AD49E289FBA3922D72F56E","10476929-7c19-4785-8046-97cb175aa076","5e631737-0fa4-44a6-b227-7ba1d7345015","{""num_scrambled_semantic"":""8"",""num_scrambled_causal"":""4"",""num_scrambled_schematic"":""4"",""participantId"":""0A107DA056AD49E289FBA3922D72F56E"",""assignmentId"":""10476929-7c19-4785-8046-97cb175aa076"",""projectId"":""5e631737-0fa4-44a6-b227-7ba1d7345015""}","https://test12345.live/?num_scrambled_semantic=8&num_scrambled_causal=4&num_scrambled_schematic=4&participantId=0A107DA056AD49E289FBA3922D72F56E&assignmentId=10476929-7c19-4785-8046-97cb175aa076&projectId=5e631737-0fa4-44a6-b227-7ba1d7345015","0A107DA056AD49E289FBA3922D72F56E-2025-05-27-18-51-23","","null","","images/causal_sequence/museum_causal/museum_causal_2.png","null","",""
"","","","","","image-button-response","26","391022","0.0-10.0-1.0-1.0","0A107DA056AD49E289FBA3922D72F56E","0A107DA056AD49E289FBA3922D72F56E","10476929-7c19-4785-8046-97cb175aa076","5e631737-0fa4-44a6-b227-7ba1d7345015","{""num_scrambled_semantic"":""8"",""num_scrambled_causal"":""4"",""num_scrambled_schematic"":""4"",""participantId"":""0A107DA056AD49E289FBA3922D72F56E"",""assignmentId"":""10476929-7c19-4785-8046-97cb175aa076"",""projectId"":""5e631737-0fa4-44a6-b227-7ba1d7345015""}","https://test12345.live/?num_scrambled_semantic=8&num_scrambled_causal=4&num_scrambled_schematic=4&participantId=0A107DA056AD49E289FBA3922D72F56E&assignmentId=10476929-7c19-4785-8046-97cb175aa076&projectId=5e631737-0fa4-44a6-b227-7ba1d7345015","0A107DA056AD49E289FBA3922D72F56E-2025-05-27-18-51-23","","1813","","images/causal_sequence/museum_causal/museum_causal_2.png","0","",""
"","","","","","image-button-response","27","392827","0.0-10.0-1.0-2.0","0A107DA056AD49E289FBA3922D72F56E","0A107DA056AD49E289FBA3922D72F56E","10476929-7c19-4785-8046-97cb175aa076","5e631737-0fa4-44a6-b227-7ba1d7345015","{""num_scrambled_semantic"":""8"",""num_scrambled_causal"":""4"",""num_scrambled_schematic"":""4"",""participantId"":""0A107DA056AD49E289FBA3922D72F56E"",""assignmentId"":""10476929-7c19-4785-8046-97cb175aa076"",""projectId"":""5e631737-0fa4-44a6-b227-7ba1d7345015""}","https://test12345.live/?num_scrambled_semantic=8&num_scrambled_causal=4&num_scrambled_schematic=4&participantId=0A107DA056AD49E289FBA3922D72F56E&assignmentId=10476929-7c19-4785-8046-97cb175aa076&projectId=5e631737-0fa4-44a6-b227-7ba1d7345015","0A107DA056AD49E289FBA3922D72F56E-2025-05-27-18-51-23","","null","","[]","null","",""
"","","","","","image-button-response","28","397328","0.0-10.0-1.0-0.1","0A107DA056AD49E289FBA3922D72F56E","0A107DA056AD49E289FBA3922D72F56E","10476929-7c19-4785-8046-97cb175aa076","5e631737-0fa4-44a6-b227-7ba1d7345015","{""num_scrambled_semantic"":""8"",""num_scrambled_causal"":""4"",""num_scrambled_schematic"":""4"",""participantId"":""0A107DA056AD49E289FBA3922D72F56E"",""assignmentId"":""10476929-7c19-4785-8046-97cb175aa076"",""projectId"":""5e631737-0fa4-44a6-b227-7ba1d7345015""}","https://test12345.live/?num_scrambled_semantic=8&num_scrambled_causal=4&num_scrambled_schematic=4&participantId=0A107DA056AD49E289FBA3922D72F56E&assignmentId=10476929-7c19-4785-8046-97cb175aa076&projectId=5e631737-0fa4-44a6-b227-7ba1d7345015","0A107DA056AD49E289FBA3922D72F56E-2025-05-27-18-51-23","","null","","images/causal_sequence/museum_causal/museum_causal_1.png","null","",""
"","","","","","image-button-response","29","399083","0.0-10.0-1.0-1.1","0A107DA056AD49E289FBA3922D72F56E","0A107DA056AD49E289FBA3922D72F56E","10476929-7c19-4785-8046-97cb175aa076","5e631737-0fa4-44a6-b227-7ba1d7345015","{""num_scrambled_semantic"":""8"",""num_scrambled_causal"":""4"",""num_scrambled_schematic"":""4"",""participantId"":""0A107DA056AD49E289FBA3922D72F56E"",""assignmentId"":""10476929-7c19-4785-8046-97cb175aa076"",""projectId"":""5e631737-0fa4-44a6-b227-7ba1d7345015""}","https://test12345.live/?num_scrambled_semantic=8&num_scrambled_causal=4&num_scrambled_schematic=4&participantId=0A107DA056AD49E289FBA3922D72F56E&assignmentId=10476929-7c19-4785-8046-97cb175aa076&projectId=5e631737-0fa4-44a6-b227-7ba1d7345015","0A107DA056AD49E289FBA3922D72F56E-2025-05-27-18-51-23","","1754","","images/causal_sequence/museum_causal/museum_causal_1.png","0","",""
"","","","","","image-button-response","30","400887","0.0-10.0-1.0-2.1","0A107DA056AD49E289FBA3922D72F56E","0A107DA056AD49E289FBA3922D72F56E","10476929-7c19-4785-8046-97cb175aa076","5e631737-0fa4-44a6-b227-7ba1d7345015","{""num_scrambled_semantic"":""8"",""num_scrambled_causal"":""4"",""num_scrambled_schematic"":""4"",""participantId"":""0A107DA056AD49E289FBA3922D72F56E"",""assignmentId"":""10476929-7c19-4785-8046-97cb175aa076"",""projectId"":""5e631737-0fa4-44a6-b227-7ba1d7345015""}","https://test12345.live/?num_scrambled_semantic=8&num_scrambled_causal=4&num_scrambled_schematic=4&participantId=0A107DA056AD49E289FBA3922D72F56E&assignmentId=10476929-7c19-4785-8046-97cb175aa076&projectId=5e631737-0fa4-44a6-b227-7ba1d7345015","0A107DA056AD49E289FBA3922D72F56E-2025-05-27-18-51-23","","null","","[]","null","",""
"","","","","","image-button-response","31","405391","0.0-10.0-1.0-0.2","0A107DA056AD49E289FBA3922D72F56E","0A107DA056AD49E289FBA3922D72F56E","10476929-7c19-4785-8046-97cb175aa076","5e631737-0fa4-44a6-b227-7ba1d7345015","{""num_scrambled_semantic"":""8"",""num_scrambled_causal"":""4"",""num_scrambled_schematic"":""4"",""participantId"":""0A107DA056AD49E289FBA3922D72F56E"",""assignmentId"":""10476929-7c19-4785-8046-97cb175aa076"",""projectId"":""5e631737-0fa4-44a6-b227-7ba1d7345015""}","https://test12345.live/?num_scrambled_semantic=8&num_scrambled_causal=4&num_scrambled_schematic=4&participantId=0A107DA056AD49E289FBA3922D72F56E&assignmentId=10476929-7c19-4785-8046-97cb175aa076&projectId=5e631737-0fa4-44a6-b227-7ba1d7345015","0A107DA056AD49E289FBA3922D72F56E-2025-05-27-18-51-23","","null","","images/causal_sequence/museum_causal/museum_causal_9.png","null","",""
"","","","","","image-button-response","32","406595","0.0-10.0-1.0-1.2","0A107DA056AD49E289FBA3922D72F56E","0A107DA056AD49E289FBA3922D72F56E","10476929-7c19-4785-8046-97cb175aa076","5e631737-0fa4-44a6-b227-7ba1d7345015","{""num_scrambled_semantic"":""8"",""num_scrambled_causal"":""4"",""num_scrambled_schematic"":""4"",""participantId"":""0A107DA056AD49E289FBA3922D72F56E"",""assignmentId"":""10476929-7c19-4785-8046-97cb175aa076"",""projectId"":""5e631737-0fa4-44a6-b227-7ba1d7345015""}","https://test12345.live/?num_scrambled_semantic=8&num_scrambled_causal=4&num_scrambled_schematic=4&participantId=0A107DA056AD49E289FBA3922D72F56E&assignmentId=10476929-7c19-4785-8046-97cb175aa076&projectId=5e631737-0fa4-44a6-b227-7ba1d7345015","0A107DA056AD49E289FBA3922D72F56E-2025-05-27-18-51-23","","1202","","images/causal_sequence/museum_causal/museum_causal_9.png","1","",""
"","","","","","image-button-response","33","408400","0.0-10.0-1.0-2.2","0A107DA056AD49E289FBA3922D72F56E","0A107DA056AD49E289FBA3922D72F56E","10476929-7c19-4785-8046-97cb175aa076","5e631737-0fa4-44a6-b227-7ba1d7345015","{""num_scrambled_semantic"":""8"",""num_scrambled_causal"":""4"",""num_scrambled_schematic"":""4"",""participantId"":""0A107DA056AD49E289FBA3922D72F56E"",""assignmentId"":""10476929-7c19-4785-8046-97cb175aa076"",""projectId"":""5e631737-0fa4-44a6-b227-7ba1d7345015""}","https://test12345.live/?num_scrambled_semantic=8&num_scrambled_causal=4&num_scrambled_schematic=4&participantId=0A107DA056AD49E289FBA3922D72F56E&assignmentId=10476929-7c19-4785-8046-97cb175aa076&projectId=5e631737-0fa4-44a6-b227-7ba1d7345015","0A107DA056AD49E289FBA3922D72F56E-2025-05-27-18-51-23","","null","","[]","null","",""
"","","","","","image-button-response","34","412902","0.0-10.0-1.0-0.3","0A107DA056AD49E289FBA3922D72F56E","0A107DA056AD49E289FBA3922D72F56E","10476929-7c19-4785-8046-97cb175aa076","5e631737-0fa4-44a6-b227-7ba1d7345015","{""num_scrambled_semantic"":""8"",""num_scrambled_causal"":""4"",""num_scrambled_schematic"":""4"",""participantId"":""0A107DA056AD49E289FBA3922D72F56E"",""assignmentId"":""10476929-7c19-4785-8046-97cb175aa076"",""projectId"":""5e631737-0fa4-44a6-b227-7ba1d7345015""}","https://test12345.live/?num_scrambled_semantic=8&num_scrambled_causal=4&num_scrambled_schematic=4&participantId=0A107DA056AD49E289FBA3922D72F56E&assignmentId=10476929-7c19-4785-8046-97cb175aa076&projectId=5e631737-0fa4-44a6-b227-7ba1d7345015","0A107DA056AD49E289FBA3922D72F56E-2025-05-27-18-51-23","","null","","images/causal_sequence/museum_causal/museum_causal_3.png","null","",""
"","","","","","image-button-response","35","415456","0.0-10.0-1.0-1.3","0A107DA056AD49E289FBA3922D72F56E","0A107DA056AD49E289FBA3922D72F56E","10476929-7c19-4785-8046-97cb175aa076","5e631737-0fa4-44a6-b227-7ba1d7345015","{""num_scrambled_semantic"":""8"",""num_scrambled_causal"":""4"",""num_scrambled_schematic"":""4"",""participantId"":""0A107DA056AD49E289FBA3922D72F56E"",""assignmentId"":""10476929-7c19-4785-8046-97cb175aa076"",""projectId"":""5e631737-0fa4-44a6-b227-7ba1d7345015""}","https://test12345.live/?num_scrambled_semantic=8&num_scrambled_causal=4&num_scrambled_schematic=4&participantId=0A107DA056AD49E289FBA3922D72F56E&assignmentId=10476929-7c19-4785-8046-97cb175aa076&projectId=5e631737-0fa4-44a6-b227-7ba1d7345015","0A107DA056AD49E289FBA3922D72F56E-2025-05-27-18-51-23","","2553","","images/causal_sequence/museum_causal/museum_causal_3.png","0","",""
"","","","","","image-button-response","36","417262","0.0-10.0-1.0-2.3","0A107DA056AD49E289FBA3922D72F56E","0A107DA056AD49E289FBA3922D72F56E","10476929-7c19-4785-8046-97cb175aa076","5e631737-0fa4-44a6-b227-7ba1d7345015","{""num_scrambled_semantic"":""8"",""num_scrambled_causal"":""4"",""num_scrambled_schematic"":""4"",""participantId"":""0A107DA056AD49E289FBA3922D72F56E"",""assignmentId"":""10476929-7c19-4785-8046-97cb175aa076"",""projectId"":""5e631737-0fa4-44a6-b227-7ba1d7345015""}","https://test12345.live/?num_scrambled_semantic=8&num_scrambled_causal=4&num_scrambled_schematic=4&participantId=0A107DA056AD49E289FBA3922D72F56E&assignmentId=10476929-7c19-4785-8046-97cb175aa076&projectId=5e631737-0fa4-44a6-b227-7ba1d7345015","0A107DA056AD49E289FBA3922D72F56E-2025-05-27-18-51-23","","null","","[]","null","",""
"","","","","","image-button-response","37","421765","0.0-10.0-1.0-0.4","0A107DA056AD49E289FBA3922D72F56E","0A107DA056AD49E289FBA3922D72F56E","10476929-7c19-4785-8046-97cb175aa076","5e631737-0fa4-44a6-b227-7ba1d7345015","{""num_scrambled_semantic"":""8"",""num_scrambled_causal"":""4"",""num_scrambled_schematic"":""4"",""participantId"":""0A107DA056AD49E289FBA3922D72F56E"",""assignmentId"":""10476929-7c19-4785-8046-97cb175aa076"",""projectId"":""5e631737-0fa4-44a6-b227-7ba1d7345015""}","https://test12345.live/?num_scrambled_semantic=8&num_scrambled_causal=4&num_scrambled_schematic=4&participantId=0A107DA056AD49E289FBA3922D72F56E&assignmentId=10476929-7c19-4785-8046-97cb175aa076&projectId=5e631737-0fa4-44a6-b227-7ba1d7345015","0A107DA056AD49E289FBA3922D72F56E-2025-05-27-18-51-23","","null","","images/causal_sequence/museum_causal/museum_causal_6.png","null","",""
"","","","","","image-button-response","38","423018","0.0-10.0-1.0-1.4","0A107DA056AD49E289FBA3922D72F56E","0A107DA056AD49E289FBA3922D72F56E","10476929-7c19-4785-8046-97cb175aa076","5e631737-0fa4-44a6-b227-7ba1d7345015","{""num_scrambled_semantic"":""8"",""num_scrambled_causal"":""4"",""num_scrambled_schematic"":""4"",""participantId"":""0A107DA056AD49E289FBA3922D72F56E"",""assignmentId"":""10476929-7c19-4785-8046-97cb175aa076"",""projectId"":""5e631737-0fa4-44a6-b227-7ba1d7345015""}","https://test12345.live/?num_scrambled_semantic=8&num_scrambled_causal=4&num_scrambled_schematic=4&participantId=0A107DA056AD49E289FBA3922D72F56E&assignmentId=10476929-7c19-4785-8046-97cb175aa076&projectId=5e631737-0fa4-44a6-b227-7ba1d7345015","0A107DA056AD49E289FBA3922D72F56E-2025-05-27-18-51-23","","1252","","images/causal_sequence/museum_causal/museum_causal_6.png","0","",""
"","","","","","image-button-response","39","424822","0.0-10.0-1.0-2.4","0A107DA056AD49E289FBA3922D72F56E","0A107DA056AD49E289FBA3922D72F56E","10476929-7c19-4785-8046-97cb175aa076","5e631737-0fa4-44a6-b227-7ba1d7345015","{""num_scrambled_semantic"":""8"",""num_scrambled_causal"":""4"",""num_scrambled_schematic"":""4"",""participantId"":""0A107DA056AD49E289FBA3922D72F56E"",""assignmentId"":""10476929-7c19-4785-8046-97cb175aa076"",""projectId"":""5e631737-0fa4-44a6-b227-7ba1d7345015""}","https://test12345.live/?num_scrambled_semantic=8&num_scrambled_causal=4&num_scrambled_schematic=4&participantId=0A107DA056AD49E289FBA3922D72F56E&assignmentId=10476929-7c19-4785-8046-97cb175aa076&projectId=5e631737-0fa4-44a6-b227-7ba1d7345015","0A107DA056AD49E289FBA3922D72F56E-2025-05-27-18-51-23","","null","","[]","null","",""
"","","","","","image-button-response","40","429326","0.0-10.0-1.0-0.5","0A107DA056AD49E289FBA3922D72F56E","0A107DA056AD49E289FBA3922D72F56E","10476929-7c19-4785-8046-97cb175aa076","5e631737-0fa4-44a6-b227-7ba1d7345015","{""num_scrambled_semantic"":""8"",""num_scrambled_causal"":""4"",""num_scrambled_schematic"":""4"",""participantId"":""0A107DA056AD49E289FBA3922D72F56E"",""assignmentId"":""10476929-7c19-4785-8046-97cb175aa076"",""projectId"":""5e631737-0fa4-44a6-b227-7ba1d7345015""}","https://test12345.live/?num_scrambled_semantic=8&num_scrambled_causal=4&num_scrambled_schematic=4&participantId=0A107DA056AD49E289FBA3922D72F56E&assignmentId=10476929-7c19-4785-8046-97cb175aa076&projectId=5e631737-0fa4-44a6-b227-7ba1d7345015","0A107DA056AD49E289FBA3922D72F56E-2025-05-27-18-51-23","","null","","images/causal_sequence/museum_causal/museum_causal_ten.png","null","",""
"","","","","","image-button-response","41","431228","0.0-10.0-1.0-1.5","0A107DA056AD49E289FBA3922D72F56E","0A107DA056AD49E289FBA3922D72F56E","10476929-7c19-4785-8046-97cb175aa076","5e631737-0fa4-44a6-b227-7ba1d7345015","{""num_scrambled_semantic"":""8"",""num_scrambled_causal"":""4"",""num_scrambled_schematic"":""4"",""participantId"":""0A107DA056AD49E289FBA3922D72F56E"",""assignmentId"":""10476929-7c19-4785-8046-97cb175aa076"",""projectId"":""5e631737-0fa4-44a6-b227-7ba1d7345015""}","https://test12345.live/?num_scrambled_semantic=8&num_scrambled_causal=4&num_scrambled_schematic=4&participantId=0A107DA056AD49E289FBA3922D72F56E&assignmentId=10476929-7c19-4785-8046-97cb175aa076&projectId=5e631737-0fa4-44a6-b227-7ba1d7345015","0A107DA056AD49E289FBA3922D72F56E-2025-05-27-18-51-23","","1900","","images/causal_sequence/museum_causal/museum_causal_ten.png","0","",""
"","","","","","image-button-response","42","433033","0.0-10.0-1.0-2.5","0A107DA056AD49E289FBA3922D72F56E","0A107DA056AD49E289FBA3922D72F56E","10476929-7c19-4785-8046-97cb175aa076","5e631737-0fa4-44a6-b227-7ba1d7345015","{""num_scrambled_semantic"":""8"",""num_scrambled_causal"":""4"",""num_scrambled_schematic"":""4"",""participantId"":""0A107DA056AD49E289FBA3922D72F56E"",""assignmentId"":""10476929-7c19-4785-8046-97cb175aa076"",""projectId"":""5e631737-0fa4-44a6-b227-7ba1d7345015""}","https://test12345.live/?num_scrambled_semantic=8&num_scrambled_causal=4&num_scrambled_schematic=4&participantId=0A107DA056AD49E289FBA3922D72F56E&assignmentId=10476929-7c19-4785-8046-97cb175aa076&projectId=5e631737-0fa4-44a6-b227-7ba1d7345015","0A107DA056AD49E289FBA3922D72F56E-2025-05-27-18-51-23","","null","","[]","null","",""
"","","","","","image-button-response","43","437538","0.0-10.0-1.0-0.6","0A107DA056AD49E289FBA3922D72F56E","0A107DA056AD49E289FBA3922D72F56E","10476929-7c19-4785-8046-97cb175aa076","5e631737-0fa4-44a6-b227-7ba1d7345015","{""num_scrambled_semantic"":""8"",""num_scrambled_causal"":""4"",""num_scrambled_schematic"":""4"",""participantId"":""0A107DA056AD49E289FBA3922D72F56E"",""assignmentId"":""10476929-7c19-4785-8046-97cb175aa076"",""projectId"":""5e631737-0fa4-44a6-b227-7ba1d7345015""}","https://test12345.live/?num_scrambled_semantic=8&num_scrambled_causal=4&num_scrambled_schematic=4&participantId=0A107DA056AD49E289FBA3922D72F56E&assignmentId=10476929-7c19-4785-8046-97cb175aa076&projectId=5e631737-0fa4-44a6-b227-7ba1d7345015","0A107DA056AD49E289FBA3922D72F56E-2025-05-27-18-51-23","","null","","images/causal_sequence/museum_causal/museum_causal_7.png","null","",""
"","","","","","image-button-response","44","440800","0.0-10.0-1.0-1.6","0A107DA056AD49E289FBA3922D72F56E","0A107DA056AD49E289FBA3922D72F56E","10476929-7c19-4785-8046-97cb175aa076","5e631737-0fa4-44a6-b227-7ba1d7345015","{""num_scrambled_semantic"":""8"",""num_scrambled_causal"":""4"",""num_scrambled_schematic"":""4"",""participantId"":""0A107DA056AD49E289FBA3922D72F56E"",""assignmentId"":""10476929-7c19-4785-8046-97cb175aa076"",""projectId"":""5e631737-0fa4-44a6-b227-7ba1d7345015""}","https://test12345.live/?num_scrambled_semantic=8&num_scrambled_causal=4&num_scrambled_schematic=4&participantId=0A107DA056AD49E289FBA3922D72F56E&assignmentId=10476929-7c19-4785-8046-97cb175aa076&projectId=5e631737-0fa4-44a6-b227-7ba1d7345015","0A107DA056AD49E289FBA3922D72F56E-2025-05-27-18-51-23","","3261","","images/causal_sequence/museum_causal/museum_causal_7.png","1","",""
"","","","","","image-button-response","45","442604","0.0-10.0-1.0-2.6","0A107DA056AD49E289FBA3922D72F56E","0A107DA056AD49E289FBA3922D72F56E","10476929-7c19-4785-8046-97cb175aa076","5e631737-0fa4-44a6-b227-7ba1d7345015","{""num_scrambled_semantic"":""8"",""num_scrambled_causal"":""4"",""num_scrambled_schematic"":""4"",""participantId"":""0A107DA056AD49E289FBA3922D72F56E"",""assignmentId"":""10476929-7c19-4785-8046-97cb175aa076"",""projectId"":""5e631737-0fa4-44a6-b227-7ba1d7345015""}","https://test12345.live/?num_scrambled_semantic=8&num_scrambled_causal=4&num_scrambled_schematic=4&participantId=0A107DA056AD49E289FBA3922D72F56E&assignmentId=10476929-7c19-4785-8046-97cb175aa076&projectId=5e631737-0fa4-44a6-b227-7ba1d7345015","0A107DA056AD49E289FBA3922D72F56E-2025-05-27-18-51-23","","null","","[]","null","",""
"","","","","","image-button-response","46","447108","0.0-10.0-1.0-0.7","0A107DA056AD49E289FBA3922D72F56E","0A107DA056AD49E289FBA3922D72F56E","10476929-7c19-4785-8046-97cb175aa076","5e631737-0fa4-44a6-b227-7ba1d7345015","{""num_scrambled_semantic"":""8"",""num_scrambled_causal"":""4"",""num_scrambled_schematic"":""4"",""participantId"":""0A107DA056AD49E289FBA3922D72F56E"",""assignmentId"":""10476929-7c19-4785-8046-97cb175aa076"",""projectId"":""5e631737-0fa4-44a6-b227-7ba1d7345015""}","https://test12345.live/?num_scrambled_semantic=8&num_scrambled_causal=4&num_scrambled_schematic=4&participantId=0A107DA056AD49E289FBA3922D72F56E&assignmentId=10476929-7c19-4785-8046-97cb175aa076&projectId=5e631737-0fa4-44a6-b227-7ba1d7345015","0A107DA056AD49E289FBA3922D72F56E-2025-05-27-18-51-23","","null","","images/causal_sequence/museum_causal/museum_causal_8.png","null","",""
"","","","","","image-button-response","47","450231","0.0-10.0-1.0-1.7","0A107DA056AD49E289FBA3922D72F56E","0A107DA056AD49E289FBA3922D72F56E","10476929-7c19-4785-8046-97cb175aa076","5e631737-0fa4-44a6-b227-7ba1d7345015","{""num_scrambled_semantic"":""8"",""num_scrambled_causal"":""4"",""num_scrambled_schematic"":""4"",""participantId"":""0A107DA056AD49E289FBA3922D72F56E"",""assignmentId"":""10476929-7c19-4785-8046-97cb175aa076"",""projectId"":""5e631737-0fa4-44a6-b227-7ba1d7345015""}","https://test12345.live/?num_scrambled_semantic=8&num_scrambled_causal=4&num_scrambled_schematic=4&participantId=0A107DA056AD49E289FBA3922D72F56E&assignmentId=10476929-7c19-4785-8046-97cb175aa076&projectId=5e631737-0fa4-44a6-b227-7ba1d7345015","0A107DA056AD49E289FBA3922D72F56E-2025-05-27-18-51-23","","3122","","images/causal_sequence/museum_causal/museum_causal_8.png","0","",""
"","","","","","image-button-response","48","452035","0.0-10.0-1.0-2.7","0A107DA056AD49E289FBA3922D72F56E","0A107DA056AD49E289FBA3922D72F56E","10476929-7c19-4785-8046-97cb175aa076","5e631737-0fa4-44a6-b227-7ba1d7345015","{""num_scrambled_semantic"":""8"",""num_scrambled_causal"":""4"",""num_scrambled_schematic"":""4"",""participantId"":""0A107DA056AD49E289FBA3922D72F56E"",""assignmentId"":""10476929-7c19-4785-8046-97cb175aa076"",""projectId"":""5e631737-0fa4-44a6-b227-7ba1d7345015""}","https://test12345.live/?num_scrambled_semantic=8&num_scrambled_causal=4&num_scrambled_schematic=4&participantId=0A107DA056AD49E289FBA3922D72F56E&assignmentId=10476929-7c19-4785-8046-97cb175aa076&projectId=5e631737-0fa4-44a6-b227-7ba1d7345015","0A107DA056AD49E289FBA3922D72F56E-2025-05-27-18-51-23","","null","","[]","null","",""
"","","","","","image-button-response","49","456541","0.0-10.0-1.0-0.8","0A107DA056AD49E289FBA3922D72F56E","0A107DA056AD49E289FBA3922D72F56E","10476929-7c19-4785-8046-97cb175aa076","5e631737-0fa4-44a6-b227-7ba1d7345015","{""num_scrambled_semantic"":""8"",""num_scrambled_causal"":""4"",""num_scrambled_schematic"":""4"",""participantId"":""0A107DA056AD49E289FBA3922D72F56E"",""assignmentId"":""10476929-7c19-4785-8046-97cb175aa076"",""projectId"":""5e631737-0fa4-44a6-b227-7ba1d7345015""}","https://test12345.live/?num_scrambled_semantic=8&num_scrambled_causal=4&num_scrambled_schematic=4&participantId=0A107DA056AD49E289FBA3922D72F56E&assignmentId=10476929-7c19-4785-8046-97cb175aa076&projectId=5e631737-0fa4-44a6-b227-7ba1d7345015","0A107DA056AD49E289FBA3922D72F56E-2025-05-27-18-51-23","","null","","images/causal_sequence/museum_causal/museum_causal_4.png","null","",""
"","","","","","image-button-response","50","459626","0.0-10.0-1.0-1.8","0A107DA056AD49E289FBA3922D72F56E","0A107DA056AD49E289FBA3922D72F56E","10476929-7c19-4785-8046-97cb175aa076","5e631737-0fa4-44a6-b227-7ba1d7345015","{""num_scrambled_semantic"":""8"",""num_scrambled_causal"":""4"",""num_scrambled_schematic"":""4"",""participantId"":""0A107DA056AD49E289FBA3922D72F56E"",""assignmentId"":""10476929-7c19-4785-8046-97cb175aa076"",""projectId"":""5e631737-0fa4-44a6-b227-7ba1d7345015""}","https://test12345.live/?num_scrambled_semantic=8&num_scrambled_causal=4&num_scrambled_schematic=4&participantId=0A107DA056AD49E289FBA3922D72F56E&assignmentId=10476929-7c19-4785-8046-97cb175aa076&projectId=5e631737-0fa4-44a6-b227-7ba1d7345015","0A107DA056AD49E289FBA3922D72F56E-2025-05-27-18-51-23","","3083","","images/causal_sequence/museum_causal/museum_causal_4.png","1","",""
"","","","","","image-button-response","51","461428","0.0-10.0-1.0-2.8","0A107DA056AD49E289FBA3922D72F56E","0A107DA056AD49E289FBA3922D72F56E","10476929-7c19-4785-8046-97cb175aa076","5e631737-0fa4-44a6-b227-7ba1d7345015","{""num_scrambled_semantic"":""8"",""num_scrambled_causal"":""4"",""num_scrambled_schematic"":""4"",""participantId"":""0A107DA056AD49E289FBA3922D72F56E"",""assignmentId"":""10476929-7c19-4785-8046-97cb175aa076"",""projectId"":""5e631737-0fa4-44a6-b227-7ba1d7345015""}","https://test12345.live/?num_scrambled_semantic=8&num_scrambled_causal=4&num_scrambled_schematic=4&participantId=0A107DA056AD49E289FBA3922D72F56E&assignmentId=10476929-7c19-4785-8046-97cb175aa076&projectId=5e631737-0fa4-44a6-b227-7ba1d7345015","0A107DA056AD49E289FBA3922D72F56E-2025-05-27-18-51-23","","null","","[]","null","",""
"","","","","","image-button-response","52","465931","0.0-10.0-1.0-0.9","0A107DA056AD49E289FBA3922D72F56E","0A107DA056AD49E289FBA3922D72F56E","10476929-7c19-4785-8046-97cb175aa076","5e631737-0fa4-44a6-b227-7ba1d7345015","{""num_scrambled_semantic"":""8"",""num_scrambled_causal"":""4"",""num_scrambled_schematic"":""4"",""participantId"":""0A107DA056AD49E289FBA3922D72F56E"",""assignmentId"":""10476929-7c19-4785-8046-97cb175aa076"",""projectId"":""5e631737-0fa4-44a6-b227-7ba1d7345015""}","https://test12345.live/?num_scrambled_semantic=8&num_scrambled_causal=4&num_scrambled_schematic=4&participantId=0A107DA056AD49E289FBA3922D72F56E&assignmentId=10476929-7c19-4785-8046-97cb175aa076&projectId=5e631737-0fa4-44a6-b227-7ba1d7345015","0A107DA056AD49E289FBA3922D72F56E-2025-05-27-18-51-23","","null","","images/causal_sequence/museum_causal/museum_causal_5.png","null","",""
"","","","","","image-button-response","53","467463","0.0-10.0-1.0-1.9","0A107DA056AD49E289FBA3922D72F56E","0A107DA056AD49E289FBA3922D72F56E","10476929-7c19-4785-8046-97cb175aa076","5e631737-0fa4-44a6-b227-7ba1d7345015","{""num_scrambled_semantic"":""8"",""num_scrambled_causal"":""4"",""num_scrambled_schematic"":""4"",""participantId"":""0A107DA056AD49E289FBA3922D72F56E"",""assignmentId"":""10476929-7c19-4785-8046-97cb175aa076"",""projectId"":""5e631737-0fa4-44a6-b227-7ba1d7345015""}","https://test12345.live/?num_scrambled_semantic=8&num_scrambled_causal=4&num_scrambled_schematic=4&participantId=0A107DA056AD49E289FBA3922D72F56E&assignmentId=10476929-7c19-4785-8046-97cb175aa076&projectId=5e631737-0fa4-44a6-b227-7ba1d7345015","0A107DA056AD49E289FBA3922D72F56E-2025-05-27-18-51-23","","1531","","images/causal_sequence/museum_causal/museum_causal_5.png","0","",""
"","","","","","image-button-response","54","469268","0.0-10.0-1.0-2.9","0A107DA056AD49E289FBA3922D72F56E","0A107DA056AD49E289FBA3922D72F56E","10476929-7c19-4785-8046-97cb175aa076","5e631737-0fa4-44a6-b227-7ba1d7345015","{""num_scrambled_semantic"":""8"",""num_scrambled_causal"":""4"",""num_scrambled_schematic"":""4"",""participantId"":""0A107DA056AD49E289FBA3922D72F56E"",""assignmentId"":""10476929-7c19-4785-8046-97cb175aa076"",""projectId"":""5e631737-0fa4-44a6-b227-7ba1d7345015""}","https://test12345.live/?num_scrambled_semantic=8&num_scrambled_causal=4&num_scrambled_schematic=4&participantId=0A107DA056AD49E289FBA3922D72F56E&assignmentId=10476929-7c19-4785-8046-97cb175aa076&projectId=5e631737-0fa4-44a6-b227-7ba1d7345015","0A107DA056AD49E289FBA3922D72F56E-2025-05-27-18-51-23","","null","","[]","null","",""
"","","","","","html-audio-response","55","742492","0.0-11.0","0A107DA056AD49E289FBA3922D72F56E","0A107DA056AD49E289FBA3922D72F56E","10476929-7c19-4785-8046-97cb175aa076","5e631737-0fa4-44a6-b227-7ba1d7345015","{""num_scrambled_semantic"":""8"",""num_scrambled_causal"":""4"",""num_scrambled_schematic"":""4"",""participantId"":""0A107DA056AD49E289FBA3922D72F56E"",""assignmentId"":""10476929-7c19-4785-8046-97cb175aa076"",""projectId"":""5e631737-0fa4-44a6-b227-7ba1d7345015""}","https://test12345.live/?num_scrambled_semantic=8&num_scrambled_causal=4&num_scrambled_schematic=4&participantId=0A107DA056AD49E289FBA3922D72F56E&assignmentId=10476929-7c19-4785-8046-97cb175aa076&projectId=5e631737-0fa4-44a6-b227-7ba1d7345015","0A107DA056AD49E289FBA3922D72F56E-2025-05-27-18-51-23","","26544","","[""<span style=\""color: red; font-size: 24px\""> NOW RECORDING</span><p>Please say out loud all the images you saw, in the exact order you saw them. Try to recall as many images as you can, but remember: getting the order right is more important than the number of images you recall.</p>""]","","2","museum_causal"
"","","","","","image-button-response","56","748502","0.0-12.0-0.0","0A107DA056AD49E289FBA3922D72F56E","0A107DA056AD49E289FBA3922D72F56E","10476929-7c19-4785-8046-97cb175aa076","5e631737-0fa4-44a6-b227-7ba1d7345015","{""num_scrambled_semantic"":""8"",""num_scrambled_causal"":""4"",""num_scrambled_schematic"":""4"",""participantId"":""0A107DA056AD49E289FBA3922D72F56E"",""assignmentId"":""10476929-7c19-4785-8046-97cb175aa076"",""projectId"":""5e631737-0fa4-44a6-b227-7ba1d7345015""}","https://test12345.live/?num_scrambled_semantic=8&num_scrambled_causal=4&num_scrambled_schematic=4&participantId=0A107DA056AD49E289FBA3922D72F56E&assignmentId=10476929-7c19-4785-8046-97cb175aa076&projectId=5e631737-0fa4-44a6-b227-7ba1d7345015","0A107DA056AD49E289FBA3922D72F56E-2025-05-27-18-51-23","","null","","images/schematic_sequence/dinner_party_scheme/dinner_party_scheme_0.png","null","",""
"","","","","","image-button-response","57","753008","0.0-12.0-1.0-0.0","0A107DA056AD49E289FBA3922D72F56E","0A107DA056AD49E289FBA3922D72F56E","10476929-7c19-4785-8046-97cb175aa076","5e631737-0fa4-44a6-b227-7ba1d7345015","{""num_scrambled_semantic"":""8"",""num_scrambled_causal"":""4"",""num_scrambled_schematic"":""4"",""participantId"":""0A107DA056AD49E289FBA3922D72F56E"",""assignmentId"":""10476929-7c19-4785-8046-97cb175aa076"",""projectId"":""5e631737-0fa4-44a6-b227-7ba1d7345015""}","https://test12345.live/?num_scrambled_semantic=8&num_scrambled_causal=4&num_scrambled_schematic=4&participantId=0A107DA056AD49E289FBA3922D72F56E&assignmentId=10476929-7c19-4785-8046-97cb175aa076&projectId=5e631737-0fa4-44a6-b227-7ba1d7345015","0A107DA056AD49E289FBA3922D72F56E-2025-05-27-18-51-23","","null","","images/schematic_sequence/dinner_party_scheme/dinner_party_scheme_1.png","null","",""
"","","","","","image-button-response","58","754269","0.0-12.0-1.0-1.0","0A107DA056AD49E289FBA3922D72F56E","0A107DA056AD49E289FBA3922D72F56E","10476929-7c19-4785-8046-97cb175aa076","5e631737-0fa4-44a6-b227-7ba1d7345015","{""num_scrambled_semantic"":""8"",""num_scrambled_causal"":""4"",""num_scrambled_schematic"":""4"",""participantId"":""0A107DA056AD49E289FBA3922D72F56E"",""assignmentId"":""10476929-7c19-4785-8046-97cb175aa076"",""projectId"":""5e631737-0fa4-44a6-b227-7ba1d7345015""}","https://test12345.live/?num_scrambled_semantic=8&num_scrambled_causal=4&num_scrambled_schematic=4&participantId=0A107DA056AD49E289FBA3922D72F56E&assignmentId=10476929-7c19-4785-8046-97cb175aa076&projectId=5e631737-0fa4-44a6-b227-7ba1d7345015","0A107DA056AD49E289FBA3922D72F56E-2025-05-27-18-51-23","","1259","","images/schematic_sequence/dinner_party_scheme/dinner_party_scheme_1.png","0","",""
"","","","","","image-button-response","59","756075","0.0-12.0-1.0-2.0","0A107DA056AD49E289FBA3922D72F56E","0A107DA056AD49E289FBA3922D72F56E","10476929-7c19-4785-8046-97cb175aa076","5e631737-0fa4-44a6-b227-7ba1d7345015","{""num_scrambled_semantic"":""8"",""num_scrambled_causal"":""4"",""num_scrambled_schematic"":""4"",""participantId"":""0A107DA056AD49E289FBA3922D72F56E"",""assignmentId"":""10476929-7c19-4785-8046-97cb175aa076"",""projectId"":""5e631737-0fa4-44a6-b227-7ba1d7345015""}","https://test12345.live/?num_scrambled_semantic=8&num_scrambled_causal=4&num_scrambled_schematic=4&participantId=0A107DA056AD49E289FBA3922D72F56E&assignmentId=10476929-7c19-4785-8046-97cb175aa076&projectId=5e631737-0fa4-44a6-b227-7ba1d7345015","0A107DA056AD49E289FBA3922D72F56E-2025-05-27-18-51-23","","null","","[]","null","",""
"","","","","","image-button-response","60","760578","0.0-12.0-1.0-0.1","0A107DA056AD49E289FBA3922D72F56E","0A107DA056AD49E289FBA3922D72F56E","10476929-7c19-4785-8046-97cb175aa076","5e631737-0fa4-44a6-b227-7ba1d7345015","{""num_scrambled_semantic"":""8"",""num_scrambled_causal"":""4"",""num_scrambled_schematic"":""4"",""participantId"":""0A107DA056AD49E289FBA3922D72F56E"",""assignmentId"":""10476929-7c19-4785-8046-97cb175aa076"",""projectId"":""5e631737-0fa4-44a6-b227-7ba1d7345015""}","https://test12345.live/?num_scrambled_semantic=8&num_scrambled_causal=4&num_scrambled_schematic=4&participantId=0A107DA056AD49E289FBA3922D72F56E&assignmentId=10476929-7c19-4785-8046-97cb175aa076&projectId=5e631737-0fa4-44a6-b227-7ba1d7345015","0A107DA056AD49E289FBA3922D72F56E-2025-05-27-18-51-23","","null","","images/schematic_sequence/dinner_party_scheme/dinner_party_scheme_2.png","null","",""
"","","","","","image-button-response","61","764583","0.0-12.0-1.0-1.1","0A107DA056AD49E289FBA3922D72F56E","0A107DA056AD49E289FBA3922D72F56E","10476929-7c19-4785-8046-97cb175aa076","5e631737-0fa4-44a6-b227-7ba1d7345015","{""num_scrambled_semantic"":""8"",""num_scrambled_causal"":""4"",""num_scrambled_schematic"":""4"",""participantId"":""0A107DA056AD49E289FBA3922D72F56E"",""assignmentId"":""10476929-7c19-4785-8046-97cb175aa076"",""projectId"":""5e631737-0fa4-44a6-b227-7ba1d7345015""}","https://test12345.live/?num_scrambled_semantic=8&num_scrambled_causal=4&num_scrambled_schematic=4&participantId=0A107DA056AD49E289FBA3922D72F56E&assignmentId=10476929-7c19-4785-8046-97cb175aa076&projectId=5e631737-0fa4-44a6-b227-7ba1d7345015","0A107DA056AD49E289FBA3922D72F56E-2025-05-27-18-51-23","","null","","images/schematic_sequence/dinner_party_scheme/dinner_party_scheme_2.png","null","",""
"","","","","","image-button-response","62","766386","0.0-12.0-1.0-2.1","0A107DA056AD49E289FBA3922D72F56E","0A107DA056AD49E289FBA3922D72F56E","10476929-7c19-4785-8046-97cb175aa076","5e631737-0fa4-44a6-b227-7ba1d7345015","{""num_scrambled_semantic"":""8"",""num_scrambled_causal"":""4"",""num_scrambled_schematic"":""4"",""participantId"":""0A107DA056AD49E289FBA3922D72F56E"",""assignmentId"":""10476929-7c19-4785-8046-97cb175aa076"",""projectId"":""5e631737-0fa4-44a6-b227-7ba1d7345015""}","https://test12345.live/?num_scrambled_semantic=8&num_scrambled_causal=4&num_scrambled_schematic=4&participantId=0A107DA056AD49E289FBA3922D72F56E&assignmentId=10476929-7c19-4785-8046-97cb175aa076&projectId=5e631737-0fa4-44a6-b227-7ba1d7345015","0A107DA056AD49E289FBA3922D72F56E-2025-05-27-18-51-23","","null","","[]","null","",""
"","","","","","image-button-response","63","770888","0.0-12.0-1.0-0.2","0A107DA056AD49E289FBA3922D72F56E","0A107DA056AD49E289FBA3922D72F56E","10476929-7c19-4785-8046-97cb175aa076","5e631737-0fa4-44a6-b227-7ba1d7345015","{""num_scrambled_semantic"":""8"",""num_scrambled_causal"":""4"",""num_scrambled_schematic"":""4"",""participantId"":""0A107DA056AD49E289FBA3922D72F56E"",""assignmentId"":""10476929-7c19-4785-8046-97cb175aa076"",""projectId"":""5e631737-0fa4-44a6-b227-7ba1d7345015""}","https://test12345.live/?num_scrambled_semantic=8&num_scrambled_causal=4&num_scrambled_schematic=4&participantId=0A107DA056AD49E289FBA3922D72F56E&assignmentId=10476929-7c19-4785-8046-97cb175aa076&projectId=5e631737-0fa4-44a6-b227-7ba1d7345015","0A107DA056AD49E289FBA3922D72F56E-2025-05-27-18-51-23","","null","","images/schematic_sequence/dinner_party_scheme/dinner_party_scheme_3.png","null","",""
"","","","","","image-button-response","64","772110","0.0-12.0-1.0-1.2","0A107DA056AD49E289FBA3922D72F56E","0A107DA056AD49E289FBA3922D72F56E","10476929-7c19-4785-8046-97cb175aa076","5e631737-0fa4-44a6-b227-7ba1d7345015","{""num_scrambled_semantic"":""8"",""num_scrambled_causal"":""4"",""num_scrambled_schematic"":""4"",""participantId"":""0A107DA056AD49E289FBA3922D72F56E"",""assignmentId"":""10476929-7c19-4785-8046-97cb175aa076"",""projectId"":""5e631737-0fa4-44a6-b227-7ba1d7345015""}","https://test12345.live/?num_scrambled_semantic=8&num_scrambled_causal=4&num_scrambled_schematic=4&participantId=0A107DA056AD49E289FBA3922D72F56E&assignmentId=10476929-7c19-4785-8046-97cb175aa076&projectId=5e631737-0fa4-44a6-b227-7ba1d7345015","0A107DA056AD49E289FBA3922D72F56E-2025-05-27-18-51-23","","1221","","images/schematic_sequence/dinner_party_scheme/dinner_party_scheme_3.png","0","",""
"","","","","","image-button-response","65","773913","0.0-12.0-1.0-2.2","0A107DA056AD49E289FBA3922D72F56E","0A107DA056AD49E289FBA3922D72F56E","10476929-7c19-4785-8046-97cb175aa076","5e631737-0fa4-44a6-b227-7ba1d7345015","{""num_scrambled_semantic"":""8"",""num_scrambled_causal"":""4"",""num_scrambled_schematic"":""4"",""participantId"":""0A107DA056AD49E289FBA3922D72F56E"",""assignmentId"":""10476929-7c19-4785-8046-97cb175aa076"",""projectId"":""5e631737-0fa4-44a6-b227-7ba1d7345015""}","https://test12345.live/?num_scrambled_semantic=8&num_scrambled_causal=4&num_scrambled_schematic=4&participantId=0A107DA056AD49E289FBA3922D72F56E&assignmentId=10476929-7c19-4785-8046-97cb175aa076&projectId=5e631737-0fa4-44a6-b227-7ba1d7345015","0A107DA056AD49E289FBA3922D72F56E-2025-05-27-18-51-23","","null","","[]","null","",""
"","","","","","image-button-response","66","778415","0.0-12.0-1.0-0.3","0A107DA056AD49E289FBA3922D72F56E","0A107DA056AD49E289FBA3922D72F56E","10476929-7c19-4785-8046-97cb175aa076","5e631737-0fa4-44a6-b227-7ba1d7345015","{""num_scrambled_semantic"":""8"",""num_scrambled_causal"":""4"",""num_scrambled_schematic"":""4"",""participantId"":""0A107DA056AD49E289FBA3922D72F56E"",""assignmentId"":""10476929-7c19-4785-8046-97cb175aa076"",""projectId"":""5e631737-0fa4-44a6-b227-7ba1d7345015""}","https://test12345.live/?num_scrambled_semantic=8&num_scrambled_causal=4&num_scrambled_schematic=4&participantId=0A107DA056AD49E289FBA3922D72F56E&assignmentId=10476929-7c19-4785-8046-97cb175aa076&projectId=5e631737-0fa4-44a6-b227-7ba1d7345015","0A107DA056AD49E289FBA3922D72F56E-2025-05-27-18-51-23","","null","","images/schematic_sequence/dinner_party_scheme/dinner_party_scheme_4.png","null","",""
"","","","","","image-button-response","67","779755","0.0-12.0-1.0-1.3","0A107DA056AD49E289FBA3922D72F56E","0A107DA056AD49E289FBA3922D72F56E","10476929-7c19-4785-8046-97cb175aa076","5e631737-0fa4-44a6-b227-7ba1d7345015","{""num_scrambled_semantic"":""8"",""num_scrambled_causal"":""4"",""num_scrambled_schematic"":""4"",""participantId"":""0A107DA056AD49E289FBA3922D72F56E"",""assignmentId"":""10476929-7c19-4785-8046-97cb175aa076"",""projectId"":""5e631737-0fa4-44a6-b227-7ba1d7345015""}","https://test12345.live/?num_scrambled_semantic=8&num_scrambled_causal=4&num_scrambled_schematic=4&participantId=0A107DA056AD49E289FBA3922D72F56E&assignmentId=10476929-7c19-4785-8046-97cb175aa076&projectId=5e631737-0fa4-44a6-b227-7ba1d7345015","0A107DA056AD49E289FBA3922D72F56E-2025-05-27-18-51-23","","1338","","images/schematic_sequence/dinner_party_scheme/dinner_party_scheme_4.png","0","",""
"","","","","","image-button-response","68","781559","0.0-12.0-1.0-2.3","0A107DA056AD49E289FBA3922D72F56E","0A107DA056AD49E289FBA3922D72F56E","10476929-7c19-4785-8046-97cb175aa076","5e631737-0fa4-44a6-b227-7ba1d7345015","{""num_scrambled_semantic"":""8"",""num_scrambled_causal"":""4"",""num_scrambled_schematic"":""4"",""participantId"":""0A107DA056AD49E289FBA3922D72F56E"",""assignmentId"":""10476929-7c19-4785-8046-97cb175aa076"",""projectId"":""5e631737-0fa4-44a6-b227-7ba1d7345015""}","https://test12345.live/?num_scrambled_semantic=8&num_scrambled_causal=4&num_scrambled_schematic=4&participantId=0A107DA056AD49E289FBA3922D72F56E&assignmentId=10476929-7c19-4785-8046-97cb175aa076&projectId=5e631737-0fa4-44a6-b227-7ba1d7345015","0A107DA056AD49E289FBA3922D72F56E-2025-05-27-18-51-23","","null","","[]","null","",""
"","","","","","image-button-response","69","786065","0.0-12.0-1.0-0.4","0A107DA056AD49E289FBA3922D72F56E","0A107DA056AD49E289FBA3922D72F56E","10476929-7c19-4785-8046-97cb175aa076","5e631737-0fa4-44a6-b227-7ba1d7345015","{""num_scrambled_semantic"":""8"",""num_scrambled_causal"":""4"",""num_scrambled_schematic"":""4"",""participantId"":""0A107DA056AD49E289FBA3922D72F56E"",""assignmentId"":""10476929-7c19-4785-8046-97cb175aa076"",""projectId"":""5e631737-0fa4-44a6-b227-7ba1d7345015""}","https://test12345.live/?num_scrambled_semantic=8&num_scrambled_causal=4&num_scrambled_schematic=4&participantId=0A107DA056AD49E289FBA3922D72F56E&assignmentId=10476929-7c19-4785-8046-97cb175aa076&projectId=5e631737-0fa4-44a6-b227-7ba1d7345015","0A107DA056AD49E289FBA3922D72F56E-2025-05-27-18-51-23","","null","","images/schematic_sequence/dinner_party_scheme/dinner_party_scheme_5.png","null","",""
"","","","","","image-button-response","70","787898","0.0-12.0-1.0-1.4","0A107DA056AD49E289FBA3922D72F56E","0A107DA056AD49E289FBA3922D72F56E","10476929-7c19-4785-8046-97cb175aa076","5e631737-0fa4-44a6-b227-7ba1d7345015","{""num_scrambled_semantic"":""8"",""num_scrambled_causal"":""4"",""num_scrambled_schematic"":""4"",""participantId"":""0A107DA056AD49E289FBA3922D72F56E"",""assignmentId"":""10476929-7c19-4785-8046-97cb175aa076"",""projectId"":""5e631737-0fa4-44a6-b227-7ba1d7345015""}","https://test12345.live/?num_scrambled_semantic=8&num_scrambled_causal=4&num_scrambled_schematic=4&participantId=0A107DA056AD49E289FBA3922D72F56E&assignmentId=10476929-7c19-4785-8046-97cb175aa076&projectId=5e631737-0fa4-44a6-b227-7ba1d7345015","0A107DA056AD49E289FBA3922D72F56E-2025-05-27-18-51-23","","1832","","images/schematic_sequence/dinner_party_scheme/dinner_party_scheme_5.png","0","",""
"","","","","","image-button-response","71","789703","0.0-12.0-1.0-2.4","0A107DA056AD49E289FBA3922D72F56E","0A107DA056AD49E289FBA3922D72F56E","10476929-7c19-4785-8046-97cb175aa076","5e631737-0fa4-44a6-b227-7ba1d7345015","{""num_scrambled_semantic"":""8"",""num_scrambled_causal"":""4"",""num_scrambled_schematic"":""4"",""participantId"":""0A107DA056AD49E289FBA3922D72F56E"",""assignmentId"":""10476929-7c19-4785-8046-97cb175aa076"",""projectId"":""5e631737-0fa4-44a6-b227-7ba1d7345015""}","https://test12345.live/?num_scrambled_semantic=8&num_scrambled_causal=4&num_scrambled_schematic=4&participantId=0A107DA056AD49E289FBA3922D72F56E&assignmentId=10476929-7c19-4785-8046-97cb175aa076&projectId=5e631737-0fa4-44a6-b227-7ba1d7345015","0A107DA056AD49E289FBA3922D72F56E-2025-05-27-18-51-23","","null","","[]","null","",""
"","","","","","image-button-response","72","794205","0.0-12.0-1.0-0.5","0A107DA056AD49E289FBA3922D72F56E","0A107DA056AD49E289FBA3922D72F56E","10476929-7c19-4785-8046-97cb175aa076","5e631737-0fa4-44a6-b227-7ba1d7345015","{""num_scrambled_semantic"":""8"",""num_scrambled_causal"":""4"",""num_scrambled_schematic"":""4"",""participantId"":""0A107DA056AD49E289FBA3922D72F56E"",""assignmentId"":""10476929-7c19-4785-8046-97cb175aa076"",""projectId"":""5e631737-0fa4-44a6-b227-7ba1d7345015""}","https://test12345.live/?num_scrambled_semantic=8&num_scrambled_causal=4&num_scrambled_schematic=4&participantId=0A107DA056AD49E289FBA3922D72F56E&assignmentId=10476929-7c19-4785-8046-97cb175aa076&projectId=5e631737-0fa4-44a6-b227-7ba1d7345015","0A107DA056AD49E289FBA3922D72F56E-2025-05-27-18-51-23","","null","","images/schematic_sequence/dinner_party_scheme/dinner_party_scheme_6.png","null","",""
"","","","","","image-button-response","73","795043","0.0-12.0-1.0-1.5","0A107DA056AD49E289FBA3922D72F56E","0A107DA056AD49E289FBA3922D72F56E","10476929-7c19-4785-8046-97cb175aa076","5e631737-0fa4-44a6-b227-7ba1d7345015","{""num_scrambled_semantic"":""8"",""num_scrambled_causal"":""4"",""num_scrambled_schematic"":""4"",""participantId"":""0A107DA056AD49E289FBA3922D72F56E"",""assignmentId"":""10476929-7c19-4785-8046-97cb175aa076"",""projectId"":""5e631737-0fa4-44a6-b227-7ba1d7345015""}","https://test12345.live/?num_scrambled_semantic=8&num_scrambled_causal=4&num_scrambled_schematic=4&participantId=0A107DA056AD49E289FBA3922D72F56E&assignmentId=10476929-7c19-4785-8046-97cb175aa076&projectId=5e631737-0fa4-44a6-b227-7ba1d7345015","0A107DA056AD49E289FBA3922D72F56E-2025-05-27-18-51-23","","837","","images/schematic_sequence/dinner_party_scheme/dinner_party_scheme_6.png","0","",""
"","","","","","image-button-response","74","796850","0.0-12.0-1.0-2.5","0A107DA056AD49E289FBA3922D72F56E","0A107DA056AD49E289FBA3922D72F56E","10476929-7c19-4785-8046-97cb175aa076","5e631737-0fa4-44a6-b227-7ba1d7345015","{""num_scrambled_semantic"":""8"",""num_scrambled_causal"":""4"",""num_scrambled_schematic"":""4"",""participantId"":""0A107DA056AD49E289FBA3922D72F56E"",""assignmentId"":""10476929-7c19-4785-8046-97cb175aa076"",""projectId"":""5e631737-0fa4-44a6-b227-7ba1d7345015""}","https://test12345.live/?num_scrambled_semantic=8&num_scrambled_causal=4&num_scrambled_schematic=4&participantId=0A107DA056AD49E289FBA3922D72F56E&assignmentId=10476929-7c19-4785-8046-97cb175aa076&projectId=5e631737-0fa4-44a6-b227-7ba1d7345015","0A107DA056AD49E289FBA3922D72F56E-2025-05-27-18-51-23","","null","","[]","null","",""
"","","","","","image-button-response","75","801353","0.0-12.0-1.0-0.6","0A107DA056AD49E289FBA3922D72F56E","0A107DA056AD49E289FBA3922D72F56E","10476929-7c19-4785-8046-97cb175aa076","5e631737-0fa4-44a6-b227-7ba1d7345015","{""num_scrambled_semantic"":""8"",""num_scrambled_causal"":""4"",""num_scrambled_schematic"":""4"",""participantId"":""0A107DA056AD49E289FBA3922D72F56E"",""assignmentId"":""10476929-7c19-4785-8046-97cb175aa076"",""projectId"":""5e631737-0fa4-44a6-b227-7ba1d7345015""}","https://test12345.live/?num_scrambled_semantic=8&num_scrambled_causal=4&num_scrambled_schematic=4&participantId=0A107DA056AD49E289FBA3922D72F56E&assignmentId=10476929-7c19-4785-8046-97cb175aa076&projectId=5e631737-0fa4-44a6-b227-7ba1d7345015","0A107DA056AD49E289FBA3922D72F56E-2025-05-27-18-51-23","","null","","images/schematic_sequence/dinner_party_scheme/dinner_party_scheme_7.png","null","",""
"","","","","","image-button-response","76","802374","0.0-12.0-1.0-1.6","0A107DA056AD49E289FBA3922D72F56E","0A107DA056AD49E289FBA3922D72F56E","10476929-7c19-4785-8046-97cb175aa076","5e631737-0fa4-44a6-b227-7ba1d7345015","{""num_scrambled_semantic"":""8"",""num_scrambled_causal"":""4"",""num_scrambled_schematic"":""4"",""participantId"":""0A107DA056AD49E289FBA3922D72F56E"",""assignmentId"":""10476929-7c19-4785-8046-97cb175aa076"",""projectId"":""5e631737-0fa4-44a6-b227-7ba1d7345015""}","https://test12345.live/?num_scrambled_semantic=8&num_scrambled_causal=4&num_scrambled_schematic=4&participantId=0A107DA056AD49E289FBA3922D72F56E&assignmentId=10476929-7c19-4785-8046-97cb175aa076&projectId=5e631737-0fa4-44a6-b227-7ba1d7345015","0A107DA056AD49E289FBA3922D72F56E-2025-05-27-18-51-23","","1020","","images/schematic_sequence/dinner_party_scheme/dinner_party_scheme_7.png","0","",""
"","","","","","image-button-response","77","804180","0.0-12.0-1.0-2.6","0A107DA056AD49E289FBA3922D72F56E","0A107DA056AD49E289FBA3922D72F56E","10476929-7c19-4785-8046-97cb175aa076","5e631737-0fa4-44a6-b227-7ba1d7345015","{""num_scrambled_semantic"":""8"",""num_scrambled_causal"":""4"",""num_scrambled_schematic"":""4"",""participantId"":""0A107DA056AD49E289FBA3922D72F56E"",""assignmentId"":""10476929-7c19-4785-8046-97cb175aa076"",""projectId"":""5e631737-0fa4-44a6-b227-7ba1d7345015""}","https://test12345.live/?num_scrambled_semantic=8&num_scrambled_causal=4&num_scrambled_schematic=4&participantId=0A107DA056AD49E289FBA3922D72F56E&assignmentId=10476929-7c19-4785-8046-97cb175aa076&projectId=5e631737-0fa4-44a6-b227-7ba1d7345015","0A107DA056AD49E289FBA3922D72F56E-2025-05-27-18-51-23","","null","","[]","null","",""
"","","","","","image-button-response","78","808683","0.0-12.0-1.0-0.7","0A107DA056AD49E289FBA3922D72F56E","0A107DA056AD49E289FBA3922D72F56E","10476929-7c19-4785-8046-97cb175aa076","5e631737-0fa4-44a6-b227-7ba1d7345015","{""num_scrambled_semantic"":""8"",""num_scrambled_causal"":""4"",""num_scrambled_schematic"":""4"",""participantId"":""0A107DA056AD49E289FBA3922D72F56E"",""assignmentId"":""10476929-7c19-4785-8046-97cb175aa076"",""projectId"":""5e631737-0fa4-44a6-b227-7ba1d7345015""}","https://test12345.live/?num_scrambled_semantic=8&num_scrambled_causal=4&num_scrambled_schematic=4&participantId=0A107DA056AD49E289FBA3922D72F56E&assignmentId=10476929-7c19-4785-8046-97cb175aa076&projectId=5e631737-0fa4-44a6-b227-7ba1d7345015","0A107DA056AD49E289FBA3922D72F56E-2025-05-27-18-51-23","","null","","images/schematic_sequence/dinner_party_scheme/dinner_party_scheme_8.png","null","",""
"","","","","","image-button-response","79","809564","0.0-12.0-1.0-1.7","0A107DA056AD49E289FBA3922D72F56E","0A107DA056AD49E289FBA3922D72F56E","10476929-7c19-4785-8046-97cb175aa076","5e631737-0fa4-44a6-b227-7ba1d7345015","{""num_scrambled_semantic"":""8"",""num_scrambled_causal"":""4"",""num_scrambled_schematic"":""4"",""participantId"":""0A107DA056AD49E289FBA3922D72F56E"",""assignmentId"":""10476929-7c19-4785-8046-97cb175aa076"",""projectId"":""5e631737-0fa4-44a6-b227-7ba1d7345015""}","https://test12345.live/?num_scrambled_semantic=8&num_scrambled_causal=4&num_scrambled_schematic=4&participantId=0A107DA056AD49E289FBA3922D72F56E&assignmentId=10476929-7c19-4785-8046-97cb175aa076&projectId=5e631737-0fa4-44a6-b227-7ba1d7345015","0A107DA056AD49E289FBA3922D72F56E-2025-05-27-18-51-23","","880","","images/schematic_sequence/dinner_party_scheme/dinner_party_scheme_8.png","0","",""
"","","","","","image-button-response","80","811369","0.0-12.0-1.0-2.7","0A107DA056AD49E289FBA3922D72F56E","0A107DA056AD49E289FBA3922D72F56E","10476929-7c19-4785-8046-97cb175aa076","5e631737-0fa4-44a6-b227-7ba1d7345015","{""num_scrambled_semantic"":""8"",""num_scrambled_causal"":""4"",""num_scrambled_schematic"":""4"",""participantId"":""0A107DA056AD49E289FBA3922D72F56E"",""assignmentId"":""10476929-7c19-4785-8046-97cb175aa076"",""projectId"":""5e631737-0fa4-44a6-b227-7ba1d7345015""}","https://test12345.live/?num_scrambled_semantic=8&num_scrambled_causal=4&num_scrambled_schematic=4&participantId=0A107DA056AD49E289FBA3922D72F56E&assignmentId=10476929-7c19-4785-8046-97cb175aa076&projectId=5e631737-0fa4-44a6-b227-7ba1d7345015","0A107DA056AD49E289FBA3922D72F56E-2025-05-27-18-51-23","","null","","[]","null","",""
"","","","","","image-button-response","81","815874","0.0-12.0-1.0-0.8","0A107DA056AD49E289FBA3922D72F56E","0A107DA056AD49E289FBA3922D72F56E","10476929-7c19-4785-8046-97cb175aa076","5e631737-0fa4-44a6-b227-7ba1d7345015","{""num_scrambled_semantic"":""8"",""num_scrambled_causal"":""4"",""num_scrambled_schematic"":""4"",""participantId"":""0A107DA056AD49E289FBA3922D72F56E"",""assignmentId"":""10476929-7c19-4785-8046-97cb175aa076"",""projectId"":""5e631737-0fa4-44a6-b227-7ba1d7345015""}","https://test12345.live/?num_scrambled_semantic=8&num_scrambled_causal=4&num_scrambled_schematic=4&participantId=0A107DA056AD49E289FBA3922D72F56E&assignmentId=10476929-7c19-4785-8046-97cb175aa076&projectId=5e631737-0fa4-44a6-b227-7ba1d7345015","0A107DA056AD49E289FBA3922D72F56E-2025-05-27-18-51-23","","null","","images/schematic_sequence/dinner_party_scheme/dinner_party_scheme_9.png","null","",""
"","","","","","image-button-response","82","816873","0.0-12.0-1.0-1.8","0A107DA056AD49E289FBA3922D72F56E","0A107DA056AD49E289FBA3922D72F56E","10476929-7c19-4785-8046-97cb175aa076","5e631737-0fa4-44a6-b227-7ba1d7345015","{""num_scrambled_semantic"":""8"",""num_scrambled_causal"":""4"",""num_scrambled_schematic"":""4"",""participantId"":""0A107DA056AD49E289FBA3922D72F56E"",""assignmentId"":""10476929-7c19-4785-8046-97cb175aa076"",""projectId"":""5e631737-0fa4-44a6-b227-7ba1d7345015""}","https://test12345.live/?num_scrambled_semantic=8&num_scrambled_causal=4&num_scrambled_schematic=4&participantId=0A107DA056AD49E289FBA3922D72F56E&assignmentId=10476929-7c19-4785-8046-97cb175aa076&projectId=5e631737-0fa4-44a6-b227-7ba1d7345015","0A107DA056AD49E289FBA3922D72F56E-2025-05-27-18-51-23","","998","","images/schematic_sequence/dinner_party_scheme/dinner_party_scheme_9.png","0","",""
"","","","","","image-button-response","83","818676","0.0-12.0-1.0-2.8","0A107DA056AD49E289FBA3922D72F56E","0A107DA056AD49E289FBA3922D72F56E","10476929-7c19-4785-8046-97cb175aa076","5e631737-0fa4-44a6-b227-7ba1d7345015","{""num_scrambled_semantic"":""8"",""num_scrambled_causal"":""4"",""num_scrambled_schematic"":""4"",""participantId"":""0A107DA056AD49E289FBA3922D72F56E"",""assignmentId"":""10476929-7c19-4785-8046-97cb175aa076"",""projectId"":""5e631737-0fa4-44a6-b227-7ba1d7345015""}","https://test12345.live/?num_scrambled_semantic=8&num_scrambled_causal=4&num_scrambled_schematic=4&participantId=0A107DA056AD49E289FBA3922D72F56E&assignmentId=10476929-7c19-4785-8046-97cb175aa076&projectId=5e631737-0fa4-44a6-b227-7ba1d7345015","0A107DA056AD49E289FBA3922D72F56E-2025-05-27-18-51-23","","null","","[]","null","",""
"","","","","","image-button-response","84","823184","0.0-12.0-1.0-0.9","0A107DA056AD49E289FBA3922D72F56E","0A107DA056AD49E289FBA3922D72F56E","10476929-7c19-4785-8046-97cb175aa076","5e631737-0fa4-44a6-b227-7ba1d7345015","{""num_scrambled_semantic"":""8"",""num_scrambled_causal"":""4"",""num_scrambled_schematic"":""4"",""participantId"":""0A107DA056AD49E289FBA3922D72F56E"",""assignmentId"":""10476929-7c19-4785-8046-97cb175aa076"",""projectId"":""5e631737-0fa4-44a6-b227-7ba1d7345015""}","https://test12345.live/?num_scrambled_semantic=8&num_scrambled_causal=4&num_scrambled_schematic=4&participantId=0A107DA056AD49E289FBA3922D72F56E&assignmentId=10476929-7c19-4785-8046-97cb175aa076&projectId=5e631737-0fa4-44a6-b227-7ba1d7345015","0A107DA056AD49E289FBA3922D72F56E-2025-05-27-18-51-23","","null","","images/schematic_sequence/dinner_party_scheme/dinner_party_scheme_ten.png","null","",""
"","","","","","image-button-response","85","824179","0.0-12.0-1.0-1.9","0A107DA056AD49E289FBA3922D72F56E","0A107DA056AD49E289FBA3922D72F56E","10476929-7c19-4785-8046-97cb175aa076","5e631737-0fa4-44a6-b227-7ba1d7345015","{""num_scrambled_semantic"":""8"",""num_scrambled_causal"":""4"",""num_scrambled_schematic"":""4"",""participantId"":""0A107DA056AD49E289FBA3922D72F56E"",""assignmentId"":""10476929-7c19-4785-8046-97cb175aa076"",""projectId"":""5e631737-0fa4-44a6-b227-7ba1d7345015""}","https://test12345.live/?num_scrambled_semantic=8&num_scrambled_causal=4&num_scrambled_schematic=4&participantId=0A107DA056AD49E289FBA3922D72F56E&assignmentId=10476929-7c19-4785-8046-97cb175aa076&projectId=5e631737-0fa4-44a6-b227-7ba1d7345015","0A107DA056AD49E289FBA3922D72F56E-2025-05-27-18-51-23","","994","","images/schematic_sequence/dinner_party_scheme/dinner_party_scheme_ten.png","0","",""
"","","","","","image-button-response","86","825986","0.0-12.0-1.0-2.9","0A107DA056AD49E289FBA3922D72F56E","0A107DA056AD49E289FBA3922D72F56E","10476929-7c19-4785-8046-97cb175aa076","5e631737-0fa4-44a6-b227-7ba1d7345015","{""num_scrambled_semantic"":""8"",""num_scrambled_causal"":""4"",""num_scrambled_schematic"":""4"",""participantId"":""0A107DA056AD49E289FBA3922D72F56E"",""assignmentId"":""10476929-7c19-4785-8046-97cb175aa076"",""projectId"":""5e631737-0fa4-44a6-b227-7ba1d7345015""}","https://test12345.live/?num_scrambled_semantic=8&num_scrambled_causal=4&num_scrambled_schematic=4&participantId=0A107DA056AD49E289FBA3922D72F56E&assignmentId=10476929-7c19-4785-8046-97cb175aa076&projectId=5e631737-0fa4-44a6-b227-7ba1d7345015","0A107DA056AD49E289FBA3922D72F56E-2025-05-27-18-51-23","","null","","[]","null","",""
"","","","","","html-audio-response","87","879977","0.0-13.0","0A107DA056AD49E289FBA3922D72F56E","0A107DA056AD49E289FBA3922D72F56E","10476929-7c19-4785-8046-97cb175aa076","5e631737-0fa4-44a6-b227-7ba1d7345015","{""num_scrambled_semantic"":""8"",""num_scrambled_causal"":""4"",""num_scrambled_schematic"":""4"",""participantId"":""0A107DA056AD49E289FBA3922D72F56E"",""assignmentId"":""10476929-7c19-4785-8046-97cb175aa076"",""projectId"":""5e631737-0fa4-44a6-b227-7ba1d7345015""}","https://test12345.live/?num_scrambled_semantic=8&num_scrambled_causal=4&num_scrambled_schematic=4&participantId=0A107DA056AD49E289FBA3922D72F56E&assignmentId=10476929-7c19-4785-8046-97cb175aa076&projectId=5e631737-0fa4-44a6-b227-7ba1d7345015","0A107DA056AD49E289FBA3922D72F56E-2025-05-27-18-51-23","","30795","","[""<span style=\""color: red; font-size: 24px\""> NOW RECORDING</span><p>Please say out loud all the images you saw, in the exact order you saw them. Try to recall as many images as you can, but remember: getting the order right is more important than the number of images you recall.</p>""]","","2","dinner_party_scheme"
"","","","","","image-button-response","88","885990","0.0-14.0-0.0","0A107DA056AD49E289FBA3922D72F56E","0A107DA056AD49E289FBA3922D72F56E","10476929-7c19-4785-8046-97cb175aa076","5e631737-0fa4-44a6-b227-7ba1d7345015","{""num_scrambled_semantic"":""8"",""num_scrambled_causal"":""4"",""num_scrambled_schematic"":""4"",""participantId"":""0A107DA056AD49E289FBA3922D72F56E"",""assignmentId"":""10476929-7c19-4785-8046-97cb175aa076"",""projectId"":""5e631737-0fa4-44a6-b227-7ba1d7345015""}","https://test12345.live/?num_scrambled_semantic=8&num_scrambled_causal=4&num_scrambled_schematic=4&participantId=0A107DA056AD49E289FBA3922D72F56E&assignmentId=10476929-7c19-4785-8046-97cb175aa076&projectId=5e631737-0fa4-44a6-b227-7ba1d7345015","0A107DA056AD49E289FBA3922D72F56E-2025-05-27-18-51-23","","null","","images/semantic_sequence/housework_semantic/housework_semantic_0.png","null","",""
"","","","","","image-button-response","89","890495","0.0-14.0-1.0-0.0","0A107DA056AD49E289FBA3922D72F56E","0A107DA056AD49E289FBA3922D72F56E","10476929-7c19-4785-8046-97cb175aa076","5e631737-0fa4-44a6-b227-7ba1d7345015","{""num_scrambled_semantic"":""8"",""num_scrambled_causal"":""4"",""num_scrambled_schematic"":""4"",""participantId"":""0A107DA056AD49E289FBA3922D72F56E"",""assignmentId"":""10476929-7c19-4785-8046-97cb175aa076"",""projectId"":""5e631737-0fa4-44a6-b227-7ba1d7345015""}","https://test12345.live/?num_scrambled_semantic=8&num_scrambled_causal=4&num_scrambled_schematic=4&participantId=0A107DA056AD49E289FBA3922D72F56E&assignmentId=10476929-7c19-4785-8046-97cb175aa076&projectId=5e631737-0fa4-44a6-b227-7ba1d7345015","0A107DA056AD49E289FBA3922D72F56E-2025-05-27-18-51-23","","null","","images/semantic_sequence/housework_semantic/housework_semantic_3.png","null","",""
"","","","","","image-button-response","90","891967","0.0-14.0-1.0-1.0","0A107DA056AD49E289FBA3922D72F56E","0A107DA056AD49E289FBA3922D72F56E","10476929-7c19-4785-8046-97cb175aa076","5e631737-0fa4-44a6-b227-7ba1d7345015","{""num_scrambled_semantic"":""8"",""num_scrambled_causal"":""4"",""num_scrambled_schematic"":""4"",""participantId"":""0A107DA056AD49E289FBA3922D72F56E"",""assignmentId"":""10476929-7c19-4785-8046-97cb175aa076"",""projectId"":""5e631737-0fa4-44a6-b227-7ba1d7345015""}","https://test12345.live/?num_scrambled_semantic=8&num_scrambled_causal=4&num_scrambled_schematic=4&participantId=0A107DA056AD49E289FBA3922D72F56E&assignmentId=10476929-7c19-4785-8046-97cb175aa076&projectId=5e631737-0fa4-44a6-b227-7ba1d7345015","0A107DA056AD49E289FBA3922D72F56E-2025-05-27-18-51-23","","1471","","images/semantic_sequence/housework_semantic/housework_semantic_3.png","0","",""
"","","","","","image-button-response","91","893771","0.0-14.0-1.0-2.0","0A107DA056AD49E289FBA3922D72F56E","0A107DA056AD49E289FBA3922D72F56E","10476929-7c19-4785-8046-97cb175aa076","5e631737-0fa4-44a6-b227-7ba1d7345015","{""num_scrambled_semantic"":""8"",""num_scrambled_causal"":""4"",""num_scrambled_schematic"":""4"",""participantId"":""0A107DA056AD49E289FBA3922D72F56E"",""assignmentId"":""10476929-7c19-4785-8046-97cb175aa076"",""projectId"":""5e631737-0fa4-44a6-b227-7ba1d7345015""}","https://test12345.live/?num_scrambled_semantic=8&num_scrambled_causal=4&num_scrambled_schematic=4&participantId=0A107DA056AD49E289FBA3922D72F56E&assignmentId=10476929-7c19-4785-8046-97cb175aa076&projectId=5e631737-0fa4-44a6-b227-7ba1d7345015","0A107DA056AD49E289FBA3922D72F56E-2025-05-27-18-51-23","","null","","[]","null","",""
"","","","","","image-button-response","92","898275","0.0-14.0-1.0-0.1","0A107DA056AD49E289FBA3922D72F56E","0A107DA056AD49E289FBA3922D72F56E","10476929-7c19-4785-8046-97cb175aa076","5e631737-0fa4-44a6-b227-7ba1d7345015","{""num_scrambled_semantic"":""8"",""num_scrambled_causal"":""4"",""num_scrambled_schematic"":""4"",""participantId"":""0A107DA056AD49E289FBA3922D72F56E"",""assignmentId"":""10476929-7c19-4785-8046-97cb175aa076"",""projectId"":""5e631737-0fa4-44a6-b227-7ba1d7345015""}","https://test12345.live/?num_scrambled_semantic=8&num_scrambled_causal=4&num_scrambled_schematic=4&participantId=0A107DA056AD49E289FBA3922D72F56E&assignmentId=10476929-7c19-4785-8046-97cb175aa076&projectId=5e631737-0fa4-44a6-b227-7ba1d7345015","0A107DA056AD49E289FBA3922D72F56E-2025-05-27-18-51-23","","null","","images/semantic_sequence/housework_semantic/housework_semantic_6.png","null","",""
"","","","","","image-button-response","93","898938","0.0-14.0-1.0-1.1","0A107DA056AD49E289FBA3922D72F56E","0A107DA056AD49E289FBA3922D72F56E","10476929-7c19-4785-8046-97cb175aa076","5e631737-0fa4-44a6-b227-7ba1d7345015","{""num_scrambled_semantic"":""8"",""num_scrambled_causal"":""4"",""num_scrambled_schematic"":""4"",""participantId"":""0A107DA056AD49E289FBA3922D72F56E"",""assignmentId"":""10476929-7c19-4785-8046-97cb175aa076"",""projectId"":""5e631737-0fa4-44a6-b227-7ba1d7345015""}","https://test12345.live/?num_scrambled_semantic=8&num_scrambled_causal=4&num_scrambled_schematic=4&participantId=0A107DA056AD49E289FBA3922D72F56E&assignmentId=10476929-7c19-4785-8046-97cb175aa076&projectId=5e631737-0fa4-44a6-b227-7ba1d7345015","0A107DA056AD49E289FBA3922D72F56E-2025-05-27-18-51-23","","662","","images/semantic_sequence/housework_semantic/housework_semantic_6.png","0","",""
"","","","","","image-button-response","94","900745","0.0-14.0-1.0-2.1","0A107DA056AD49E289FBA3922D72F56E","0A107DA056AD49E289FBA3922D72F56E","10476929-7c19-4785-8046-97cb175aa076","5e631737-0fa4-44a6-b227-7ba1d7345015","{""num_scrambled_semantic"":""8"",""num_scrambled_causal"":""4"",""num_scrambled_schematic"":""4"",""participantId"":""0A107DA056AD49E289FBA3922D72F56E"",""assignmentId"":""10476929-7c19-4785-8046-97cb175aa076"",""projectId"":""5e631737-0fa4-44a6-b227-7ba1d7345015""}","https://test12345.live/?num_scrambled_semantic=8&num_scrambled_causal=4&num_scrambled_schematic=4&participantId=0A107DA056AD49E289FBA3922D72F56E&assignmentId=10476929-7c19-4785-8046-97cb175aa076&projectId=5e631737-0fa4-44a6-b227-7ba1d7345015","0A107DA056AD49E289FBA3922D72F56E-2025-05-27-18-51-23","","null","","[]","null","",""
"","","","","","image-button-response","95","905250","0.0-14.0-1.0-0.2","0A107DA056AD49E289FBA3922D72F56E","0A107DA056AD49E289FBA3922D72F56E","10476929-7c19-4785-8046-97cb175aa076","5e631737-0fa4-44a6-b227-7ba1d7345015","{""num_scrambled_semantic"":""8"",""num_scrambled_causal"":""4"",""num_scrambled_schematic"":""4"",""participantId"":""0A107DA056AD49E289FBA3922D72F56E"",""assignmentId"":""10476929-7c19-4785-8046-97cb175aa076"",""projectId"":""5e631737-0fa4-44a6-b227-7ba1d7345015""}","https://test12345.live/?num_scrambled_semantic=8&num_scrambled_causal=4&num_scrambled_schematic=4&participantId=0A107DA056AD49E289FBA3922D72F56E&assignmentId=10476929-7c19-4785-8046-97cb175aa076&projectId=5e631737-0fa4-44a6-b227-7ba1d7345015","0A107DA056AD49E289FBA3922D72F56E-2025-05-27-18-51-23","","null","","images/semantic_sequence/housework_semantic/housework_semantic_5.png","null","",""
"","","","","","image-button-response","96","906047","0.0-14.0-1.0-1.2","0A107DA056AD49E289FBA3922D72F56E","0A107DA056AD49E289FBA3922D72F56E","10476929-7c19-4785-8046-97cb175aa076","5e631737-0fa4-44a6-b227-7ba1d7345015","{""num_scrambled_semantic"":""8"",""num_scrambled_causal"":""4"",""num_scrambled_schematic"":""4"",""participantId"":""0A107DA056AD49E289FBA3922D72F56E"",""assignmentId"":""10476929-7c19-4785-8046-97cb175aa076"",""projectId"":""5e631737-0fa4-44a6-b227-7ba1d7345015""}","https://test12345.live/?num_scrambled_semantic=8&num_scrambled_causal=4&num_scrambled_schematic=4&participantId=0A107DA056AD49E289FBA3922D72F56E&assignmentId=10476929-7c19-4785-8046-97cb175aa076&projectId=5e631737-0fa4-44a6-b227-7ba1d7345015","0A107DA056AD49E289FBA3922D72F56E-2025-05-27-18-51-23","","797","","images/semantic_sequence/housework_semantic/housework_semantic_5.png","0","",""
"","","","","","image-button-response","97","907853","0.0-14.0-1.0-2.2","0A107DA056AD49E289FBA3922D72F56E","0A107DA056AD49E289FBA3922D72F56E","10476929-7c19-4785-8046-97cb175aa076","5e631737-0fa4-44a6-b227-7ba1d7345015","{""num_scrambled_semantic"":""8"",""num_scrambled_causal"":""4"",""num_scrambled_schematic"":""4"",""participantId"":""0A107DA056AD49E289FBA3922D72F56E"",""assignmentId"":""10476929-7c19-4785-8046-97cb175aa076"",""projectId"":""5e631737-0fa4-44a6-b227-7ba1d7345015""}","https://test12345.live/?num_scrambled_semantic=8&num_scrambled_causal=4&num_scrambled_schematic=4&participantId=0A107DA056AD49E289FBA3922D72F56E&assignmentId=10476929-7c19-4785-8046-97cb175aa076&projectId=5e631737-0fa4-44a6-b227-7ba1d7345015","0A107DA056AD49E289FBA3922D72F56E-2025-05-27-18-51-23","","null","","[]","null","",""
"","","","","","image-button-response","98","912357","0.0-14.0-1.0-0.3","0A107DA056AD49E289FBA3922D72F56E","0A107DA056AD49E289FBA3922D72F56E","10476929-7c19-4785-8046-97cb175aa076","5e631737-0fa4-44a6-b227-7ba1d7345015","{""num_scrambled_semantic"":""8"",""num_scrambled_causal"":""4"",""num_scrambled_schematic"":""4"",""participantId"":""0A107DA056AD49E289FBA3922D72F56E"",""assignmentId"":""10476929-7c19-4785-8046-97cb175aa076"",""projectId"":""5e631737-0fa4-44a6-b227-7ba1d7345015""}","https://test12345.live/?num_scrambled_semantic=8&num_scrambled_causal=4&num_scrambled_schematic=4&participantId=0A107DA056AD49E289FBA3922D72F56E&assignmentId=10476929-7c19-4785-8046-97cb175aa076&projectId=5e631737-0fa4-44a6-b227-7ba1d7345015","0A107DA056AD49E289FBA3922D72F56E-2025-05-27-18-51-23","","null","","images/semantic_sequence/housework_semantic/housework_semantic_8.png","null","",""
"","","","","","image-button-response","99","913364","0.0-14.0-1.0-1.3","0A107DA056AD49E289FBA3922D72F56E","0A107DA056AD49E289FBA3922D72F56E","10476929-7c19-4785-8046-97cb175aa076","5e631737-0fa4-44a6-b227-7ba1d7345015","{""num_scrambled_semantic"":""8"",""num_scrambled_causal"":""4"",""num_scrambled_schematic"":""4"",""participantId"":""0A107DA056AD49E289FBA3922D72F56E"",""assignmentId"":""10476929-7c19-4785-8046-97cb175aa076"",""projectId"":""5e631737-0fa4-44a6-b227-7ba1d7345015""}","https://test12345.live/?num_scrambled_semantic=8&num_scrambled_causal=4&num_scrambled_schematic=4&participantId=0A107DA056AD49E289FBA3922D72F56E&assignmentId=10476929-7c19-4785-8046-97cb175aa076&projectId=5e631737-0fa4-44a6-b227-7ba1d7345015","0A107DA056AD49E289FBA3922D72F56E-2025-05-27-18-51-23","","1006","","images/semantic_sequence/housework_semantic/housework_semantic_8.png","0","",""
"","","","","","image-button-response","100","915170","0.0-14.0-1.0-2.3","0A107DA056AD49E289FBA3922D72F56E","0A107DA056AD49E289FBA3922D72F56E","10476929-7c19-4785-8046-97cb175aa076","5e631737-0fa4-44a6-b227-7ba1d7345015","{""num_scrambled_semantic"":""8"",""num_scrambled_causal"":""4"",""num_scrambled_schematic"":""4"",""participantId"":""0A107DA056AD49E289FBA3922D72F56E"",""assignmentId"":""10476929-7c19-4785-8046-97cb175aa076"",""projectId"":""5e631737-0fa4-44a6-b227-7ba1d7345015""}","https://test12345.live/?num_scrambled_semantic=8&num_scrambled_causal=4&num_scrambled_schematic=4&participantId=0A107DA056AD49E289FBA3922D72F56E&assignmentId=10476929-7c19-4785-8046-97cb175aa076&projectId=5e631737-0fa4-44a6-b227-7ba1d7345015","0A107DA056AD49E289FBA3922D72F56E-2025-05-27-18-51-23","","null","","[]","null","",""
"","","","","","image-button-response","101","919675","0.0-14.0-1.0-0.4","0A107DA056AD49E289FBA3922D72F56E","0A107DA056AD49E289FBA3922D72F56E","10476929-7c19-4785-8046-97cb175aa076","5e631737-0fa4-44a6-b227-7ba1d7345015","{""num_scrambled_semantic"":""8"",""num_scrambled_causal"":""4"",""num_scrambled_schematic"":""4"",""participantId"":""0A107DA056AD49E289FBA3922D72F56E"",""assignmentId"":""10476929-7c19-4785-8046-97cb175aa076"",""projectId"":""5e631737-0fa4-44a6-b227-7ba1d7345015""}","https://test12345.live/?num_scrambled_semantic=8&num_scrambled_causal=4&num_scrambled_schematic=4&participantId=0A107DA056AD49E289FBA3922D72F56E&assignmentId=10476929-7c19-4785-8046-97cb175aa076&projectId=5e631737-0fa4-44a6-b227-7ba1d7345015","0A107DA056AD49E289FBA3922D72F56E-2025-05-27-18-51-23","","null","","images/semantic_sequence/housework_semantic/housework_semantic_1.png","null","",""
"","","","","","image-button-response","102","920509","0.0-14.0-1.0-1.4","0A107DA056AD49E289FBA3922D72F56E","0A107DA056AD49E289FBA3922D72F56E","10476929-7c19-4785-8046-97cb175aa076","5e631737-0fa4-44a6-b227-7ba1d7345015","{""num_scrambled_semantic"":""8"",""num_scrambled_causal"":""4"",""num_scrambled_schematic"":""4"",""participantId"":""0A107DA056AD49E289FBA3922D72F56E"",""assignmentId"":""10476929-7c19-4785-8046-97cb175aa076"",""projectId"":""5e631737-0fa4-44a6-b227-7ba1d7345015""}","https://test12345.live/?num_scrambled_semantic=8&num_scrambled_causal=4&num_scrambled_schematic=4&participantId=0A107DA056AD49E289FBA3922D72F56E&assignmentId=10476929-7c19-4785-8046-97cb175aa076&projectId=5e631737-0fa4-44a6-b227-7ba1d7345015","0A107DA056AD49E289FBA3922D72F56E-2025-05-27-18-51-23","","833","","images/semantic_sequence/housework_semantic/housework_semantic_1.png","0","",""
"","","","","","image-button-response","103","922315","0.0-14.0-1.0-2.4","0A107DA056AD49E289FBA3922D72F56E","0A107DA056AD49E289FBA3922D72F56E","10476929-7c19-4785-8046-97cb175aa076","5e631737-0fa4-44a6-b227-7ba1d7345015","{""num_scrambled_semantic"":""8"",""num_scrambled_causal"":""4"",""num_scrambled_schematic"":""4"",""participantId"":""0A107DA056AD49E289FBA3922D72F56E"",""assignmentId"":""10476929-7c19-4785-8046-97cb175aa076"",""projectId"":""5e631737-0fa4-44a6-b227-7ba1d7345015""}","https://test12345.live/?num_scrambled_semantic=8&num_scrambled_causal=4&num_scrambled_schematic=4&participantId=0A107DA056AD49E289FBA3922D72F56E&assignmentId=10476929-7c19-4785-8046-97cb175aa076&projectId=5e631737-0fa4-44a6-b227-7ba1d7345015","0A107DA056AD49E289FBA3922D72F56E-2025-05-27-18-51-23","","null","","[]","null","",""
"","","","","","image-button-response","104","926822","0.0-14.0-1.0-0.5","0A107DA056AD49E289FBA3922D72F56E","0A107DA056AD49E289FBA3922D72F56E","10476929-7c19-4785-8046-97cb175aa076","5e631737-0fa4-44a6-b227-7ba1d7345015","{""num_scrambled_semantic"":""8"",""num_scrambled_causal"":""4"",""num_scrambled_schematic"":""4"",""participantId"":""0A107DA056AD49E289FBA3922D72F56E"",""assignmentId"":""10476929-7c19-4785-8046-97cb175aa076"",""projectId"":""5e631737-0fa4-44a6-b227-7ba1d7345015""}","https://test12345.live/?num_scrambled_semantic=8&num_scrambled_causal=4&num_scrambled_schematic=4&participantId=0A107DA056AD49E289FBA3922D72F56E&assignmentId=10476929-7c19-4785-8046-97cb175aa076&projectId=5e631737-0fa4-44a6-b227-7ba1d7345015","0A107DA056AD49E289FBA3922D72F56E-2025-05-27-18-51-23","","null","","images/semantic_sequence/housework_semantic/housework_semantic_4.png","null","",""
"","","","","","image-button-response","105","927420","0.0-14.0-1.0-1.5","0A107DA056AD49E289FBA3922D72F56E","0A107DA056AD49E289FBA3922D72F56E","10476929-7c19-4785-8046-97cb175aa076","5e631737-0fa4-44a6-b227-7ba1d7345015","{""num_scrambled_semantic"":""8"",""num_scrambled_causal"":""4"",""num_scrambled_schematic"":""4"",""participantId"":""0A107DA056AD49E289FBA3922D72F56E"",""assignmentId"":""10476929-7c19-4785-8046-97cb175aa076"",""projectId"":""5e631737-0fa4-44a6-b227-7ba1d7345015""}","https://test12345.live/?num_scrambled_semantic=8&num_scrambled_causal=4&num_scrambled_schematic=4&participantId=0A107DA056AD49E289FBA3922D72F56E&assignmentId=10476929-7c19-4785-8046-97cb175aa076&projectId=5e631737-0fa4-44a6-b227-7ba1d7345015","0A107DA056AD49E289FBA3922D72F56E-2025-05-27-18-51-23","","596","","images/semantic_sequence/housework_semantic/housework_semantic_4.png","0","",""
"","","","","","image-button-response","106","929225","0.0-14.0-1.0-2.5","0A107DA056AD49E289FBA3922D72F56E","0A107DA056AD49E289FBA3922D72F56E","10476929-7c19-4785-8046-97cb175aa076","5e631737-0fa4-44a6-b227-7ba1d7345015","{""num_scrambled_semantic"":""8"",""num_scrambled_causal"":""4"",""num_scrambled_schematic"":""4"",""participantId"":""0A107DA056AD49E289FBA3922D72F56E"",""assignmentId"":""10476929-7c19-4785-8046-97cb175aa076"",""projectId"":""5e631737-0fa4-44a6-b227-7ba1d7345015""}","https://test12345.live/?num_scrambled_semantic=8&num_scrambled_causal=4&num_scrambled_schematic=4&participantId=0A107DA056AD49E289FBA3922D72F56E&assignmentId=10476929-7c19-4785-8046-97cb175aa076&projectId=5e631737-0fa4-44a6-b227-7ba1d7345015","0A107DA056AD49E289FBA3922D72F56E-2025-05-27-18-51-23","","null","","[]","null","",""
"","","","","","image-button-response","107","933727","0.0-14.0-1.0-0.6","0A107DA056AD49E289FBA3922D72F56E","0A107DA056AD49E289FBA3922D72F56E","10476929-7c19-4785-8046-97cb175aa076","5e631737-0fa4-44a6-b227-7ba1d7345015","{""num_scrambled_semantic"":""8"",""num_scrambled_causal"":""4"",""num_scrambled_schematic"":""4"",""participantId"":""0A107DA056AD49E289FBA3922D72F56E"",""assignmentId"":""10476929-7c19-4785-8046-97cb175aa076"",""projectId"":""5e631737-0fa4-44a6-b227-7ba1d7345015""}","https://test12345.live/?num_scrambled_semantic=8&num_scrambled_causal=4&num_scrambled_schematic=4&participantId=0A107DA056AD49E289FBA3922D72F56E&assignmentId=10476929-7c19-4785-8046-97cb175aa076&projectId=5e631737-0fa4-44a6-b227-7ba1d7345015","0A107DA056AD49E289FBA3922D72F56E-2025-05-27-18-51-23","","null","","images/semantic_sequence/housework_semantic/housework_semantic_9.png","null","",""
"","","","","","image-button-response","108","934346","0.0-14.0-1.0-1.6","0A107DA056AD49E289FBA3922D72F56E","0A107DA056AD49E289FBA3922D72F56E","10476929-7c19-4785-8046-97cb175aa076","5e631737-0fa4-44a6-b227-7ba1d7345015","{""num_scrambled_semantic"":""8"",""num_scrambled_causal"":""4"",""num_scrambled_schematic"":""4"",""participantId"":""0A107DA056AD49E289FBA3922D72F56E"",""assignmentId"":""10476929-7c19-4785-8046-97cb175aa076"",""projectId"":""5e631737-0fa4-44a6-b227-7ba1d7345015""}","https://test12345.live/?num_scrambled_semantic=8&num_scrambled_causal=4&num_scrambled_schematic=4&participantId=0A107DA056AD49E289FBA3922D72F56E&assignmentId=10476929-7c19-4785-8046-97cb175aa076&projectId=5e631737-0fa4-44a6-b227-7ba1d7345015","0A107DA056AD49E289FBA3922D72F56E-2025-05-27-18-51-23","","618","","images/semantic_sequence/housework_semantic/housework_semantic_9.png","0","",""
"","","","","","image-button-response","109","936150","0.0-14.0-1.0-2.6","0A107DA056AD49E289FBA3922D72F56E","0A107DA056AD49E289FBA3922D72F56E","10476929-7c19-4785-8046-97cb175aa076","5e631737-0fa4-44a6-b227-7ba1d7345015","{""num_scrambled_semantic"":""8"",""num_scrambled_causal"":""4"",""num_scrambled_schematic"":""4"",""participantId"":""0A107DA056AD49E289FBA3922D72F56E"",""assignmentId"":""10476929-7c19-4785-8046-97cb175aa076"",""projectId"":""5e631737-0fa4-44a6-b227-7ba1d7345015""}","https://test12345.live/?num_scrambled_semantic=8&num_scrambled_causal=4&num_scrambled_schematic=4&participantId=0A107DA056AD49E289FBA3922D72F56E&assignmentId=10476929-7c19-4785-8046-97cb175aa076&projectId=5e631737-0fa4-44a6-b227-7ba1d7345015","0A107DA056AD49E289FBA3922D72F56E-2025-05-27-18-51-23","","null","","[]","null","",""
"","","","","","image-button-response","110","940655","0.0-14.0-1.0-0.7","0A107DA056AD49E289FBA3922D72F56E","0A107DA056AD49E289FBA3922D72F56E","10476929-7c19-4785-8046-97cb175aa076","5e631737-0fa4-44a6-b227-7ba1d7345015","{""num_scrambled_semantic"":""8"",""num_scrambled_causal"":""4"",""num_scrambled_schematic"":""4"",""participantId"":""0A107DA056AD49E289FBA3922D72F56E"",""assignmentId"":""10476929-7c19-4785-8046-97cb175aa076"",""projectId"":""5e631737-0fa4-44a6-b227-7ba1d7345015""}","https://test12345.live/?num_scrambled_semantic=8&num_scrambled_causal=4&num_scrambled_schematic=4&participantId=0A107DA056AD49E289FBA3922D72F56E&assignmentId=10476929-7c19-4785-8046-97cb175aa076&projectId=5e631737-0fa4-44a6-b227-7ba1d7345015","0A107DA056AD49E289FBA3922D72F56E-2025-05-27-18-51-23","","null","","images/semantic_sequence/housework_semantic/housework_semantic_2.png","null","",""
"","","","","","image-button-response","111","941457","0.0-14.0-1.0-1.7","0A107DA056AD49E289FBA3922D72F56E","0A107DA056AD49E289FBA3922D72F56E","10476929-7c19-4785-8046-97cb175aa076","5e631737-0fa4-44a6-b227-7ba1d7345015","{""num_scrambled_semantic"":""8"",""num_scrambled_causal"":""4"",""num_scrambled_schematic"":""4"",""participantId"":""0A107DA056AD49E289FBA3922D72F56E"",""assignmentId"":""10476929-7c19-4785-8046-97cb175aa076"",""projectId"":""5e631737-0fa4-44a6-b227-7ba1d7345015""}","https://test12345.live/?num_scrambled_semantic=8&num_scrambled_causal=4&num_scrambled_schematic=4&participantId=0A107DA056AD49E289FBA3922D72F56E&assignmentId=10476929-7c19-4785-8046-97cb175aa076&projectId=5e631737-0fa4-44a6-b227-7ba1d7345015","0A107DA056AD49E289FBA3922D72F56E-2025-05-27-18-51-23","","800","","images/semantic_sequence/housework_semantic/housework_semantic_2.png","0","",""
"","","","","","image-button-response","112","943260","0.0-14.0-1.0-2.7","0A107DA056AD49E289FBA3922D72F56E","0A107DA056AD49E289FBA3922D72F56E","10476929-7c19-4785-8046-97cb175aa076","5e631737-0fa4-44a6-b227-7ba1d7345015","{""num_scrambled_semantic"":""8"",""num_scrambled_causal"":""4"",""num_scrambled_schematic"":""4"",""participantId"":""0A107DA056AD49E289FBA3922D72F56E"",""assignmentId"":""10476929-7c19-4785-8046-97cb175aa076"",""projectId"":""5e631737-0fa4-44a6-b227-7ba1d7345015""}","https://test12345.live/?num_scrambled_semantic=8&num_scrambled_causal=4&num_scrambled_schematic=4&participantId=0A107DA056AD49E289FBA3922D72F56E&assignmentId=10476929-7c19-4785-8046-97cb175aa076&projectId=5e631737-0fa4-44a6-b227-7ba1d7345015","0A107DA056AD49E289FBA3922D72F56E-2025-05-27-18-51-23","","null","","[]","null","",""
"","","","","","image-button-response","113","947765","0.0-14.0-1.0-0.8","0A107DA056AD49E289FBA3922D72F56E","0A107DA056AD49E289FBA3922D72F56E","10476929-7c19-4785-8046-97cb175aa076","5e631737-0fa4-44a6-b227-7ba1d7345015","{""num_scrambled_semantic"":""8"",""num_scrambled_causal"":""4"",""num_scrambled_schematic"":""4"",""participantId"":""0A107DA056AD49E289FBA3922D72F56E"",""assignmentId"":""10476929-7c19-4785-8046-97cb175aa076"",""projectId"":""5e631737-0fa4-44a6-b227-7ba1d7345015""}","https://test12345.live/?num_scrambled_semantic=8&num_scrambled_causal=4&num_scrambled_schematic=4&participantId=0A107DA056AD49E289FBA3922D72F56E&assignmentId=10476929-7c19-4785-8046-97cb175aa076&projectId=5e631737-0fa4-44a6-b227-7ba1d7345015","0A107DA056AD49E289FBA3922D72F56E-2025-05-27-18-51-23","","null","","images/semantic_sequence/housework_semantic/housework_semantic_ten.png","null","",""
"","","","","","image-button-response","114","948300","0.0-14.0-1.0-1.8","0A107DA056AD49E289FBA3922D72F56E","0A107DA056AD49E289FBA3922D72F56E","10476929-7c19-4785-8046-97cb175aa076","5e631737-0fa4-44a6-b227-7ba1d7345015","{""num_scrambled_semantic"":""8"",""num_scrambled_causal"":""4"",""num_scrambled_schematic"":""4"",""participantId"":""0A107DA056AD49E289FBA3922D72F56E"",""assignmentId"":""10476929-7c19-4785-8046-97cb175aa076"",""projectId"":""5e631737-0fa4-44a6-b227-7ba1d7345015""}","https://test12345.live/?num_scrambled_semantic=8&num_scrambled_causal=4&num_scrambled_schematic=4&participantId=0A107DA056AD49E289FBA3922D72F56E&assignmentId=10476929-7c19-4785-8046-97cb175aa076&projectId=5e631737-0fa4-44a6-b227-7ba1d7345015","0A107DA056AD49E289FBA3922D72F56E-2025-05-27-18-51-23","","532","","images/semantic_sequence/housework_semantic/housework_semantic_ten.png","0","",""
