"success","timeout","failed_images","failed_audio","failed_video","trial_type","trial_index","time_elapsed","internal_node_id","subject","subject_id","study_id","session_id","urlvar","current_url","audio_id","view_history","rt","device_id","stimulus","response","estimated_stimulus_onset","seq_name"
"true","false","[]","[]","[]","preload","0","9328","0.0-0.0","0A5A94AF3B684EA295C8964456EBA17C","0A5A94AF3B684EA295C8964456EBA17C","0198be91-452d-77c6-9faf-15a126313f18","0198be8b-78cf-72d2-ba2b-1e62c78022e0","{""num_scrambled_semantic"":""8"",""num_scrambled_causal"":""4"",""num_scrambled_schematic"":""4"",""participantId"":""0A5A94AF3B684EA295C8964456EBA17C"",""assignmentId"":""0198be91-452d-77c6-9faf-15a126313f18"",""projectId"":""0198be8b-78cf-72d2-ba2b-1e62c78022e0""}","https://test12345.live/?num_scrambled_semantic=8&num_scrambled_causal=4&num_scrambled_schematic=4&participantId=0A5A94AF3B684EA295C8964456EBA17C&assignmentId=0198be91-452d-77c6-9faf-15a126313f18&projectId=0198be8b-78cf-72d2-ba2b-1e62c78022e0","0A5A94AF3B684EA295C8964456EBA17C-2025-08-18-19-40-52","","","","","","",""
"","","","","","instructions","1","21245","0.0-1.0","0A5A94AF3B684EA295C8964456EBA17C","0A5A94AF3B684EA295C8964456EBA17C","0198be91-452d-77c6-9faf-15a126313f18","0198be8b-78cf-72d2-ba2b-1e62c78022e0","{""num_scrambled_semantic"":""8"",""num_scrambled_causal"":""4"",""num_scrambled_schematic"":""4"",""participantId"":""0A5A94AF3B684EA295C8964456EBA17C"",""assignmentId"":""0198be91-452d-77c6-9faf-15a126313f18"",""projectId"":""0198be8b-78cf-72d2-ba2b-1e62c78022e0""}","https://test12345.live/?num_scrambled_semantic=8&num_scrambled_causal=4&num_scrambled_schematic=4&participantId=0A5A94AF3B684EA295C8964456EBA17C&assignmentId=0198be91-452d-77c6-9faf-15a126313f18&projectId=0198be8b-78cf-72d2-ba2b-1e62c78022e0","0A5A94AF3B684EA295C8964456EBA17C-2025-08-18-19-40-52","[{""page_index"":0,""viewing_time"":11911}]","11912","","","","",""
"","","","","","instructions","2","30131","0.0-2.0","0A5A94AF3B684EA295C8964456EBA17C","0A5A94AF3B684EA295C8964456EBA17C","0198be91-452d-77c6-9faf-15a126313f18","0198be8b-78cf-72d2-ba2b-1e62c78022e0","{""num_scrambled_semantic"":""8"",""num_scrambled_causal"":""4"",""num_scrambled_schematic"":""4"",""participantId"":""0A5A94AF3B684EA295C8964456EBA17C"",""assignmentId"":""0198be91-452d-77c6-9faf-15a126313f18"",""projectId"":""0198be8b-78cf-72d2-ba2b-1e62c78022e0""}","https://test12345.live/?num_scrambled_semantic=8&num_scrambled_causal=4&num_scrambled_schematic=4&participantId=0A5A94AF3B684EA295C8964456EBA17C&assignmentId=0198be91-452d-77c6-9faf-15a126313f18&projectId=0198be8b-78cf-72d2-ba2b-1e62c78022e0","0A5A94AF3B684EA295C8964456EBA17C-2025-08-18-19-40-52","[{""page_index"":0,""viewing_time"":8885}]","8885","","","","",""
"true","","","","","fullscreen","3","32911","0.0-3.0","0A5A94AF3B684EA295C8964456EBA17C","0A5A94AF3B684EA295C8964456EBA17C","0198be91-452d-77c6-9faf-15a126313f18","0198be8b-78cf-72d2-ba2b-1e62c78022e0","{""num_scrambled_semantic"":""8"",""num_scrambled_causal"":""4"",""num_scrambled_schematic"":""4"",""participantId"":""0A5A94AF3B684EA295C8964456EBA17C"",""assignmentId"":""0198be91-452d-77c6-9faf-15a126313f18"",""projectId"":""0198be8b-78cf-72d2-ba2b-1e62c78022e0""}","https://test12345.live/?num_scrambled_semantic=8&num_scrambled_causal=4&num_scrambled_schematic=4&participantId=0A5A94AF3B684EA295C8964456EBA17C&assignmentId=0198be91-452d-77c6-9faf-15a126313f18&projectId=0198be8b-78cf-72d2-ba2b-1e62c78022e0","0A5A94AF3B684EA295C8964456EBA17C-2025-08-18-19-40-52","","1774","","","","",""
"","","","","","initialize-microphone","4","45186","0.0-4.0-0.0","0A5A94AF3B684EA295C8964456EBA17C","0A5A94AF3B684EA295C8964456EBA17C","0198be91-452d-77c6-9faf-15a126313f18","0198be8b-78cf-72d2-ba2b-1e62c78022e0","{""num_scrambled_semantic"":""8"",""num_scrambled_causal"":""4"",""num_scrambled_schematic"":""4"",""participantId"":""0A5A94AF3B684EA295C8964456EBA17C"",""assignmentId"":""0198be91-452d-77c6-9faf-15a126313f18"",""projectId"":""0198be8b-78cf-72d2-ba2b-1e62c78022e0""}","https://test12345.live/?num_scrambled_semantic=8&num_scrambled_causal=4&num_scrambled_schematic=4&participantId=0A5A94AF3B684EA295C8964456EBA17C&assignmentId=0198be91-452d-77c6-9faf-15a126313f18&projectId=0198be8b-78cf-72d2-ba2b-1e62c78022e0","0A5A94AF3B684EA295C8964456EBA17C-2025-08-18-19-40-52","","","48d3b6dc6033dc135c42b169a04b4b83bbc286eaa6978c997ac18190d33a46e0","","","",""
"","","","","","html-audio-response","5","52863","0.0-4.0-1.0","0A5A94AF3B684EA295C8964456EBA17C","0A5A94AF3B684EA295C8964456EBA17C","0198be91-452d-77c6-9faf-15a126313f18","0198be8b-78cf-72d2-ba2b-1e62c78022e0","{""num_scrambled_semantic"":""8"",""num_scrambled_causal"":""4"",""num_scrambled_schematic"":""4"",""participantId"":""0A5A94AF3B684EA295C8964456EBA17C"",""assignmentId"":""0198be91-452d-77c6-9faf-15a126313f18"",""projectId"":""0198be8b-78cf-72d2-ba2b-1e62c78022e0""}","https://test12345.live/?num_scrambled_semantic=8&num_scrambled_causal=4&num_scrambled_schematic=4&participantId=0A5A94AF3B684EA295C8964456EBA17C&assignmentId=0198be91-452d-77c6-9faf-15a126313f18&projectId=0198be8b-78cf-72d2-ba2b-1e62c78022e0","0A5A94AF3B684EA295C8964456EBA17C-2025-08-18-19-40-52","","2444","","<span style=""color: red; font-size: 24px""> NOW RECORDING</span>
        <p>Please test Microphone</p>","","20",""
"","","","","","html-button-response","6","55093","0.0-4.0-2.0","0A5A94AF3B684EA295C8964456EBA17C","0A5A94AF3B684EA295C8964456EBA17C","0198be91-452d-77c6-9faf-15a126313f18","0198be8b-78cf-72d2-ba2b-1e62c78022e0","{""num_scrambled_semantic"":""8"",""num_scrambled_causal"":""4"",""num_scrambled_schematic"":""4"",""participantId"":""0A5A94AF3B684EA295C8964456EBA17C"",""assignmentId"":""0198be91-452d-77c6-9faf-15a126313f18"",""projectId"":""0198be8b-78cf-72d2-ba2b-1e62c78022e0""}","https://test12345.live/?num_scrambled_semantic=8&num_scrambled_causal=4&num_scrambled_schematic=4&participantId=0A5A94AF3B684EA295C8964456EBA17C&assignmentId=0198be91-452d-77c6-9faf-15a126313f18&projectId=0198be8b-78cf-72d2-ba2b-1e62c78022e0","0A5A94AF3B684EA295C8964456EBA17C-2025-08-18-19-40-52","","2229","","<p style=""font-size:48px; color:red;"">Is Microphone OK?</p>","1","",""
"","","","","","instructions","7","122660","0.0-5.0","0A5A94AF3B684EA295C8964456EBA17C","0A5A94AF3B684EA295C8964456EBA17C","0198be91-452d-77c6-9faf-15a126313f18","0198be8b-78cf-72d2-ba2b-1e62c78022e0","{""num_scrambled_semantic"":""8"",""num_scrambled_causal"":""4"",""num_scrambled_schematic"":""4"",""participantId"":""0A5A94AF3B684EA295C8964456EBA17C"",""assignmentId"":""0198be91-452d-77c6-9faf-15a126313f18"",""projectId"":""0198be8b-78cf-72d2-ba2b-1e62c78022e0""}","https://test12345.live/?num_scrambled_semantic=8&num_scrambled_causal=4&num_scrambled_schematic=4&participantId=0A5A94AF3B684EA295C8964456EBA17C&assignmentId=0198be91-452d-77c6-9faf-15a126313f18&projectId=0198be8b-78cf-72d2-ba2b-1e62c78022e0","0A5A94AF3B684EA295C8964456EBA17C-2025-08-18-19-40-52","[{""page_index"":0,""viewing_time"":8075},{""page_index"":1,""viewing_time"":59492}]","67567","","","","",""
"","","","","","image-button-response","8","128664","0.0-6.0-0.0","0A5A94AF3B684EA295C8964456EBA17C","0A5A94AF3B684EA295C8964456EBA17C","0198be91-452d-77c6-9faf-15a126313f18","0198be8b-78cf-72d2-ba2b-1e62c78022e0","{""num_scrambled_semantic"":""8"",""num_scrambled_causal"":""4"",""num_scrambled_schematic"":""4"",""participantId"":""0A5A94AF3B684EA295C8964456EBA17C"",""assignmentId"":""0198be91-452d-77c6-9faf-15a126313f18"",""projectId"":""0198be8b-78cf-72d2-ba2b-1e62c78022e0""}","https://test12345.live/?num_scrambled_semantic=8&num_scrambled_causal=4&num_scrambled_schematic=4&participantId=0A5A94AF3B684EA295C8964456EBA17C&assignmentId=0198be91-452d-77c6-9faf-15a126313f18&projectId=0198be8b-78cf-72d2-ba2b-1e62c78022e0","0A5A94AF3B684EA295C8964456EBA17C-2025-08-18-19-40-52","","null","","images/instructions/movie_0.png","null","",""
"","","","","","image-button-response","9","133176","0.0-6.0-1.0-0.0","0A5A94AF3B684EA295C8964456EBA17C","0A5A94AF3B684EA295C8964456EBA17C","0198be91-452d-77c6-9faf-15a126313f18","0198be8b-78cf-72d2-ba2b-1e62c78022e0","{""num_scrambled_semantic"":""8"",""num_scrambled_causal"":""4"",""num_scrambled_schematic"":""4"",""participantId"":""0A5A94AF3B684EA295C8964456EBA17C"",""assignmentId"":""0198be91-452d-77c6-9faf-15a126313f18"",""projectId"":""0198be8b-78cf-72d2-ba2b-1e62c78022e0""}","https://test12345.live/?num_scrambled_semantic=8&num_scrambled_causal=4&num_scrambled_schematic=4&participantId=0A5A94AF3B684EA295C8964456EBA17C&assignmentId=0198be91-452d-77c6-9faf-15a126313f18&projectId=0198be8b-78cf-72d2-ba2b-1e62c78022e0","0A5A94AF3B684EA295C8964456EBA17C-2025-08-18-19-40-52","","null","","images/instructions/movie_1.png","null","",""
"","","","","","image-button-response","10","137181","0.0-6.0-1.0-1.0","0A5A94AF3B684EA295C8964456EBA17C","0A5A94AF3B684EA295C8964456EBA17C","0198be91-452d-77c6-9faf-15a126313f18","0198be8b-78cf-72d2-ba2b-1e62c78022e0","{""num_scrambled_semantic"":""8"",""num_scrambled_causal"":""4"",""num_scrambled_schematic"":""4"",""participantId"":""0A5A94AF3B684EA295C8964456EBA17C"",""assignmentId"":""0198be91-452d-77c6-9faf-15a126313f18"",""projectId"":""0198be8b-78cf-72d2-ba2b-1e62c78022e0""}","https://test12345.live/?num_scrambled_semantic=8&num_scrambled_causal=4&num_scrambled_schematic=4&participantId=0A5A94AF3B684EA295C8964456EBA17C&assignmentId=0198be91-452d-77c6-9faf-15a126313f18&projectId=0198be8b-78cf-72d2-ba2b-1e62c78022e0","0A5A94AF3B684EA295C8964456EBA17C-2025-08-18-19-40-52","","null","","images/instructions/movie_1.png","null","",""
"","","","","","image-button-response","11","138995","0.0-6.0-1.0-2.0","0A5A94AF3B684EA295C8964456EBA17C","0A5A94AF3B684EA295C8964456EBA17C","0198be91-452d-77c6-9faf-15a126313f18","0198be8b-78cf-72d2-ba2b-1e62c78022e0","{""num_scrambled_semantic"":""8"",""num_scrambled_causal"":""4"",""num_scrambled_schematic"":""4"",""participantId"":""0A5A94AF3B684EA295C8964456EBA17C"",""assignmentId"":""0198be91-452d-77c6-9faf-15a126313f18"",""projectId"":""0198be8b-78cf-72d2-ba2b-1e62c78022e0""}","https://test12345.live/?num_scrambled_semantic=8&num_scrambled_causal=4&num_scrambled_schematic=4&participantId=0A5A94AF3B684EA295C8964456EBA17C&assignmentId=0198be91-452d-77c6-9faf-15a126313f18&projectId=0198be8b-78cf-72d2-ba2b-1e62c78022e0","0A5A94AF3B684EA295C8964456EBA17C-2025-08-18-19-40-52","","null","","[]","null","",""
"","","","","","image-button-response","12","143512","0.0-6.0-1.0-0.1","0A5A94AF3B684EA295C8964456EBA17C","0A5A94AF3B684EA295C8964456EBA17C","0198be91-452d-77c6-9faf-15a126313f18","0198be8b-78cf-72d2-ba2b-1e62c78022e0","{""num_scrambled_semantic"":""8"",""num_scrambled_causal"":""4"",""num_scrambled_schematic"":""4"",""participantId"":""0A5A94AF3B684EA295C8964456EBA17C"",""assignmentId"":""0198be91-452d-77c6-9faf-15a126313f18"",""projectId"":""0198be8b-78cf-72d2-ba2b-1e62c78022e0""}","https://test12345.live/?num_scrambled_semantic=8&num_scrambled_causal=4&num_scrambled_schematic=4&participantId=0A5A94AF3B684EA295C8964456EBA17C&assignmentId=0198be91-452d-77c6-9faf-15a126313f18&projectId=0198be8b-78cf-72d2-ba2b-1e62c78022e0","0A5A94AF3B684EA295C8964456EBA17C-2025-08-18-19-40-52","","null","","images/instructions/movie_2.png","null","",""
"","","","","","image-button-response","13","147518","0.0-6.0-1.0-1.1","0A5A94AF3B684EA295C8964456EBA17C","0A5A94AF3B684EA295C8964456EBA17C","0198be91-452d-77c6-9faf-15a126313f18","0198be8b-78cf-72d2-ba2b-1e62c78022e0","{""num_scrambled_semantic"":""8"",""num_scrambled_causal"":""4"",""num_scrambled_schematic"":""4"",""participantId"":""0A5A94AF3B684EA295C8964456EBA17C"",""assignmentId"":""0198be91-452d-77c6-9faf-15a126313f18"",""projectId"":""0198be8b-78cf-72d2-ba2b-1e62c78022e0""}","https://test12345.live/?num_scrambled_semantic=8&num_scrambled_causal=4&num_scrambled_schematic=4&participantId=0A5A94AF3B684EA295C8964456EBA17C&assignmentId=0198be91-452d-77c6-9faf-15a126313f18&projectId=0198be8b-78cf-72d2-ba2b-1e62c78022e0","0A5A94AF3B684EA295C8964456EBA17C-2025-08-18-19-40-52","","null","","images/instructions/movie_2.png","null","",""
"","","","","","image-button-response","14","149335","0.0-6.0-1.0-2.1","0A5A94AF3B684EA295C8964456EBA17C","0A5A94AF3B684EA295C8964456EBA17C","0198be91-452d-77c6-9faf-15a126313f18","0198be8b-78cf-72d2-ba2b-1e62c78022e0","{""num_scrambled_semantic"":""8"",""num_scrambled_causal"":""4"",""num_scrambled_schematic"":""4"",""participantId"":""0A5A94AF3B684EA295C8964456EBA17C"",""assignmentId"":""0198be91-452d-77c6-9faf-15a126313f18"",""projectId"":""0198be8b-78cf-72d2-ba2b-1e62c78022e0""}","https://test12345.live/?num_scrambled_semantic=8&num_scrambled_causal=4&num_scrambled_schematic=4&participantId=0A5A94AF3B684EA295C8964456EBA17C&assignmentId=0198be91-452d-77c6-9faf-15a126313f18&projectId=0198be8b-78cf-72d2-ba2b-1e62c78022e0","0A5A94AF3B684EA295C8964456EBA17C-2025-08-18-19-40-52","","null","","[]","null","",""
"","","","","","image-button-response","15","153841","0.0-6.0-1.0-0.2","0A5A94AF3B684EA295C8964456EBA17C","0A5A94AF3B684EA295C8964456EBA17C","0198be91-452d-77c6-9faf-15a126313f18","0198be8b-78cf-72d2-ba2b-1e62c78022e0","{""num_scrambled_semantic"":""8"",""num_scrambled_causal"":""4"",""num_scrambled_schematic"":""4"",""participantId"":""0A5A94AF3B684EA295C8964456EBA17C"",""assignmentId"":""0198be91-452d-77c6-9faf-15a126313f18"",""projectId"":""0198be8b-78cf-72d2-ba2b-1e62c78022e0""}","https://test12345.live/?num_scrambled_semantic=8&num_scrambled_causal=4&num_scrambled_schematic=4&participantId=0A5A94AF3B684EA295C8964456EBA17C&assignmentId=0198be91-452d-77c6-9faf-15a126313f18&projectId=0198be8b-78cf-72d2-ba2b-1e62c78022e0","0A5A94AF3B684EA295C8964456EBA17C-2025-08-18-19-40-52","","null","","images/instructions/movie_3.png","null","",""
"","","","","","image-button-response","16","156716","0.0-6.0-1.0-1.2","0A5A94AF3B684EA295C8964456EBA17C","0A5A94AF3B684EA295C8964456EBA17C","0198be91-452d-77c6-9faf-15a126313f18","0198be8b-78cf-72d2-ba2b-1e62c78022e0","{""num_scrambled_semantic"":""8"",""num_scrambled_causal"":""4"",""num_scrambled_schematic"":""4"",""participantId"":""0A5A94AF3B684EA295C8964456EBA17C"",""assignmentId"":""0198be91-452d-77c6-9faf-15a126313f18"",""projectId"":""0198be8b-78cf-72d2-ba2b-1e62c78022e0""}","https://test12345.live/?num_scrambled_semantic=8&num_scrambled_causal=4&num_scrambled_schematic=4&participantId=0A5A94AF3B684EA295C8964456EBA17C&assignmentId=0198be91-452d-77c6-9faf-15a126313f18&projectId=0198be8b-78cf-72d2-ba2b-1e62c78022e0","0A5A94AF3B684EA295C8964456EBA17C-2025-08-18-19-40-52","","2874","","images/instructions/movie_3.png","0","",""
"","","","","","image-button-response","17","158527","0.0-6.0-1.0-2.2","0A5A94AF3B684EA295C8964456EBA17C","0A5A94AF3B684EA295C8964456EBA17C","0198be91-452d-77c6-9faf-15a126313f18","0198be8b-78cf-72d2-ba2b-1e62c78022e0","{""num_scrambled_semantic"":""8"",""num_scrambled_causal"":""4"",""num_scrambled_schematic"":""4"",""participantId"":""0A5A94AF3B684EA295C8964456EBA17C"",""assignmentId"":""0198be91-452d-77c6-9faf-15a126313f18"",""projectId"":""0198be8b-78cf-72d2-ba2b-1e62c78022e0""}","https://test12345.live/?num_scrambled_semantic=8&num_scrambled_causal=4&num_scrambled_schematic=4&participantId=0A5A94AF3B684EA295C8964456EBA17C&assignmentId=0198be91-452d-77c6-9faf-15a126313f18&projectId=0198be8b-78cf-72d2-ba2b-1e62c78022e0","0A5A94AF3B684EA295C8964456EBA17C-2025-08-18-19-40-52","","null","","[]","null","",""
"","","","","","image-button-response","18","163044","0.0-6.0-1.0-0.3","0A5A94AF3B684EA295C8964456EBA17C","0A5A94AF3B684EA295C8964456EBA17C","0198be91-452d-77c6-9faf-15a126313f18","0198be8b-78cf-72d2-ba2b-1e62c78022e0","{""num_scrambled_semantic"":""8"",""num_scrambled_causal"":""4"",""num_scrambled_schematic"":""4"",""participantId"":""0A5A94AF3B684EA295C8964456EBA17C"",""assignmentId"":""0198be91-452d-77c6-9faf-15a126313f18"",""projectId"":""0198be8b-78cf-72d2-ba2b-1e62c78022e0""}","https://test12345.live/?num_scrambled_semantic=8&num_scrambled_causal=4&num_scrambled_schematic=4&participantId=0A5A94AF3B684EA295C8964456EBA17C&assignmentId=0198be91-452d-77c6-9faf-15a126313f18&projectId=0198be8b-78cf-72d2-ba2b-1e62c78022e0","0A5A94AF3B684EA295C8964456EBA17C-2025-08-18-19-40-52","","null","","images/instructions/movie_4.png","null","",""
"","","","","","image-button-response","19","164457","0.0-6.0-1.0-1.3","0A5A94AF3B684EA295C8964456EBA17C","0A5A94AF3B684EA295C8964456EBA17C","0198be91-452d-77c6-9faf-15a126313f18","0198be8b-78cf-72d2-ba2b-1e62c78022e0","{""num_scrambled_semantic"":""8"",""num_scrambled_causal"":""4"",""num_scrambled_schematic"":""4"",""participantId"":""0A5A94AF3B684EA295C8964456EBA17C"",""assignmentId"":""0198be91-452d-77c6-9faf-15a126313f18"",""projectId"":""0198be8b-78cf-72d2-ba2b-1e62c78022e0""}","https://test12345.live/?num_scrambled_semantic=8&num_scrambled_causal=4&num_scrambled_schematic=4&participantId=0A5A94AF3B684EA295C8964456EBA17C&assignmentId=0198be91-452d-77c6-9faf-15a126313f18&projectId=0198be8b-78cf-72d2-ba2b-1e62c78022e0","0A5A94AF3B684EA295C8964456EBA17C-2025-08-18-19-40-52","","1413","","images/instructions/movie_4.png","0","",""
"","","","","","image-button-response","20","166261","0.0-6.0-1.0-2.3","0A5A94AF3B684EA295C8964456EBA17C","0A5A94AF3B684EA295C8964456EBA17C","0198be91-452d-77c6-9faf-15a126313f18","0198be8b-78cf-72d2-ba2b-1e62c78022e0","{""num_scrambled_semantic"":""8"",""num_scrambled_causal"":""4"",""num_scrambled_schematic"":""4"",""participantId"":""0A5A94AF3B684EA295C8964456EBA17C"",""assignmentId"":""0198be91-452d-77c6-9faf-15a126313f18"",""projectId"":""0198be8b-78cf-72d2-ba2b-1e62c78022e0""}","https://test12345.live/?num_scrambled_semantic=8&num_scrambled_causal=4&num_scrambled_schematic=4&participantId=0A5A94AF3B684EA295C8964456EBA17C&assignmentId=0198be91-452d-77c6-9faf-15a126313f18&projectId=0198be8b-78cf-72d2-ba2b-1e62c78022e0","0A5A94AF3B684EA295C8964456EBA17C-2025-08-18-19-40-52","","null","","[]","null","",""
"","","","","","instructions","21","171318","0.0-7.0","0A5A94AF3B684EA295C8964456EBA17C","0A5A94AF3B684EA295C8964456EBA17C","0198be91-452d-77c6-9faf-15a126313f18","0198be8b-78cf-72d2-ba2b-1e62c78022e0","{""num_scrambled_semantic"":""8"",""num_scrambled_causal"":""4"",""num_scrambled_schematic"":""4"",""participantId"":""0A5A94AF3B684EA295C8964456EBA17C"",""assignmentId"":""0198be91-452d-77c6-9faf-15a126313f18"",""projectId"":""0198be8b-78cf-72d2-ba2b-1e62c78022e0""}","https://test12345.live/?num_scrambled_semantic=8&num_scrambled_causal=4&num_scrambled_schematic=4&participantId=0A5A94AF3B684EA295C8964456EBA17C&assignmentId=0198be91-452d-77c6-9faf-15a126313f18&projectId=0198be8b-78cf-72d2-ba2b-1e62c78022e0","0A5A94AF3B684EA295C8964456EBA17C-2025-08-18-19-40-52","[{""page_index"":0,""viewing_time"":5056}]","5056","","","","",""
"","","","","","html-audio-response","22","546272","0.0-8.0","0A5A94AF3B684EA295C8964456EBA17C","0A5A94AF3B684EA295C8964456EBA17C","0198be91-452d-77c6-9faf-15a126313f18","0198be8b-78cf-72d2-ba2b-1e62c78022e0","{""num_scrambled_semantic"":""8"",""num_scrambled_causal"":""4"",""num_scrambled_schematic"":""4"",""participantId"":""0A5A94AF3B684EA295C8964456EBA17C"",""assignmentId"":""0198be91-452d-77c6-9faf-15a126313f18"",""projectId"":""0198be8b-78cf-72d2-ba2b-1e62c78022e0""}","https://test12345.live/?num_scrambled_semantic=8&num_scrambled_causal=4&num_scrambled_schematic=4&participantId=0A5A94AF3B684EA295C8964456EBA17C&assignmentId=0198be91-452d-77c6-9faf-15a126313f18&projectId=0198be8b-78cf-72d2-ba2b-1e62c78022e0","0A5A94AF3B684EA295C8964456EBA17C-2025-08-18-19-40-52","","15665","","[""<span style=\""color: red; font-size: 24px\""> NOW RECORDING</span><p>Please say out loud all the images you saw, in the order of the story they create. Try to recall the sequence of events as they appeared in the story, not necessarily the order they were presented on the screen.</p>""]","","16",""
"","","","","","instructions","23","549188","0.0-9.0","0A5A94AF3B684EA295C8964456EBA17C","0A5A94AF3B684EA295C8964456EBA17C","0198be91-452d-77c6-9faf-15a126313f18","0198be8b-78cf-72d2-ba2b-1e62c78022e0","{""num_scrambled_semantic"":""8"",""num_scrambled_causal"":""4"",""num_scrambled_schematic"":""4"",""participantId"":""0A5A94AF3B684EA295C8964456EBA17C"",""assignmentId"":""0198be91-452d-77c6-9faf-15a126313f18"",""projectId"":""0198be8b-78cf-72d2-ba2b-1e62c78022e0""}","https://test12345.live/?num_scrambled_semantic=8&num_scrambled_causal=4&num_scrambled_schematic=4&participantId=0A5A94AF3B684EA295C8964456EBA17C&assignmentId=0198be91-452d-77c6-9faf-15a126313f18&projectId=0198be8b-78cf-72d2-ba2b-1e62c78022e0","0A5A94AF3B684EA295C8964456EBA17C-2025-08-18-19-40-52","[{""page_index"":0,""viewing_time"":2910}]","2910","","","","",""
"","","","","","image-button-response","24","555190","0.0-10.0-0.0","0A5A94AF3B684EA295C8964456EBA17C","0A5A94AF3B684EA295C8964456EBA17C","0198be91-452d-77c6-9faf-15a126313f18","0198be8b-78cf-72d2-ba2b-1e62c78022e0","{""num_scrambled_semantic"":""8"",""num_scrambled_causal"":""4"",""num_scrambled_schematic"":""4"",""participantId"":""0A5A94AF3B684EA295C8964456EBA17C"",""assignmentId"":""0198be91-452d-77c6-9faf-15a126313f18"",""projectId"":""0198be8b-78cf-72d2-ba2b-1e62c78022e0""}","https://test12345.live/?num_scrambled_semantic=8&num_scrambled_causal=4&num_scrambled_schematic=4&participantId=0A5A94AF3B684EA295C8964456EBA17C&assignmentId=0198be91-452d-77c6-9faf-15a126313f18&projectId=0198be8b-78cf-72d2-ba2b-1e62c78022e0","0A5A94AF3B684EA295C8964456EBA17C-2025-08-18-19-40-52","","null","","images/causal_sequence/dog_causal/dog_causal_0.png","null","",""
"","","","","","image-button-response","25","559698","0.0-10.0-1.0-0.0","0A5A94AF3B684EA295C8964456EBA17C","0A5A94AF3B684EA295C8964456EBA17C","0198be91-452d-77c6-9faf-15a126313f18","0198be8b-78cf-72d2-ba2b-1e62c78022e0","{""num_scrambled_semantic"":""8"",""num_scrambled_causal"":""4"",""num_scrambled_schematic"":""4"",""participantId"":""0A5A94AF3B684EA295C8964456EBA17C"",""assignmentId"":""0198be91-452d-77c6-9faf-15a126313f18"",""projectId"":""0198be8b-78cf-72d2-ba2b-1e62c78022e0""}","https://test12345.live/?num_scrambled_semantic=8&num_scrambled_causal=4&num_scrambled_schematic=4&participantId=0A5A94AF3B684EA295C8964456EBA17C&assignmentId=0198be91-452d-77c6-9faf-15a126313f18&projectId=0198be8b-78cf-72d2-ba2b-1e62c78022e0","0A5A94AF3B684EA295C8964456EBA17C-2025-08-18-19-40-52","","null","","images/causal_sequence/dog_causal/dog_causal_1.png","null","",""
"","","","","","image-button-response","26","561478","0.0-10.0-1.0-1.0","0A5A94AF3B684EA295C8964456EBA17C","0A5A94AF3B684EA295C8964456EBA17C","0198be91-452d-77c6-9faf-15a126313f18","0198be8b-78cf-72d2-ba2b-1e62c78022e0","{""num_scrambled_semantic"":""8"",""num_scrambled_causal"":""4"",""num_scrambled_schematic"":""4"",""participantId"":""0A5A94AF3B684EA295C8964456EBA17C"",""assignmentId"":""0198be91-452d-77c6-9faf-15a126313f18"",""projectId"":""0198be8b-78cf-72d2-ba2b-1e62c78022e0""}","https://test12345.live/?num_scrambled_semantic=8&num_scrambled_causal=4&num_scrambled_schematic=4&participantId=0A5A94AF3B684EA295C8964456EBA17C&assignmentId=0198be91-452d-77c6-9faf-15a126313f18&projectId=0198be8b-78cf-72d2-ba2b-1e62c78022e0","0A5A94AF3B684EA295C8964456EBA17C-2025-08-18-19-40-52","","1778","","images/causal_sequence/dog_causal/dog_causal_1.png","0","",""
"","","","","","image-button-response","27","563284","0.0-10.0-1.0-2.0","0A5A94AF3B684EA295C8964456EBA17C","0A5A94AF3B684EA295C8964456EBA17C","0198be91-452d-77c6-9faf-15a126313f18","0198be8b-78cf-72d2-ba2b-1e62c78022e0","{""num_scrambled_semantic"":""8"",""num_scrambled_causal"":""4"",""num_scrambled_schematic"":""4"",""participantId"":""0A5A94AF3B684EA295C8964456EBA17C"",""assignmentId"":""0198be91-452d-77c6-9faf-15a126313f18"",""projectId"":""0198be8b-78cf-72d2-ba2b-1e62c78022e0""}","https://test12345.live/?num_scrambled_semantic=8&num_scrambled_causal=4&num_scrambled_schematic=4&participantId=0A5A94AF3B684EA295C8964456EBA17C&assignmentId=0198be91-452d-77c6-9faf-15a126313f18&projectId=0198be8b-78cf-72d2-ba2b-1e62c78022e0","0A5A94AF3B684EA295C8964456EBA17C-2025-08-18-19-40-52","","null","","[]","null","",""
"","","","","","image-button-response","28","567788","0.0-10.0-1.0-0.1","0A5A94AF3B684EA295C8964456EBA17C","0A5A94AF3B684EA295C8964456EBA17C","0198be91-452d-77c6-9faf-15a126313f18","0198be8b-78cf-72d2-ba2b-1e62c78022e0","{""num_scrambled_semantic"":""8"",""num_scrambled_causal"":""4"",""num_scrambled_schematic"":""4"",""participantId"":""0A5A94AF3B684EA295C8964456EBA17C"",""assignmentId"":""0198be91-452d-77c6-9faf-15a126313f18"",""projectId"":""0198be8b-78cf-72d2-ba2b-1e62c78022e0""}","https://test12345.live/?num_scrambled_semantic=8&num_scrambled_causal=4&num_scrambled_schematic=4&participantId=0A5A94AF3B684EA295C8964456EBA17C&assignmentId=0198be91-452d-77c6-9faf-15a126313f18&projectId=0198be8b-78cf-72d2-ba2b-1e62c78022e0","0A5A94AF3B684EA295C8964456EBA17C-2025-08-18-19-40-52","","null","","images/causal_sequence/dog_causal/dog_causal_2.png","null","",""
"","","","","","image-button-response","29","569164","0.0-10.0-1.0-1.1","0A5A94AF3B684EA295C8964456EBA17C","0A5A94AF3B684EA295C8964456EBA17C","0198be91-452d-77c6-9faf-15a126313f18","0198be8b-78cf-72d2-ba2b-1e62c78022e0","{""num_scrambled_semantic"":""8"",""num_scrambled_causal"":""4"",""num_scrambled_schematic"":""4"",""participantId"":""0A5A94AF3B684EA295C8964456EBA17C"",""assignmentId"":""0198be91-452d-77c6-9faf-15a126313f18"",""projectId"":""0198be8b-78cf-72d2-ba2b-1e62c78022e0""}","https://test12345.live/?num_scrambled_semantic=8&num_scrambled_causal=4&num_scrambled_schematic=4&participantId=0A5A94AF3B684EA295C8964456EBA17C&assignmentId=0198be91-452d-77c6-9faf-15a126313f18&projectId=0198be8b-78cf-72d2-ba2b-1e62c78022e0","0A5A94AF3B684EA295C8964456EBA17C-2025-08-18-19-40-52","","1374","","images/causal_sequence/dog_causal/dog_causal_2.png","0","",""
"","","","","","image-button-response","30","570979","0.0-10.0-1.0-2.1","0A5A94AF3B684EA295C8964456EBA17C","0A5A94AF3B684EA295C8964456EBA17C","0198be91-452d-77c6-9faf-15a126313f18","0198be8b-78cf-72d2-ba2b-1e62c78022e0","{""num_scrambled_semantic"":""8"",""num_scrambled_causal"":""4"",""num_scrambled_schematic"":""4"",""participantId"":""0A5A94AF3B684EA295C8964456EBA17C"",""assignmentId"":""0198be91-452d-77c6-9faf-15a126313f18"",""projectId"":""0198be8b-78cf-72d2-ba2b-1e62c78022e0""}","https://test12345.live/?num_scrambled_semantic=8&num_scrambled_causal=4&num_scrambled_schematic=4&participantId=0A5A94AF3B684EA295C8964456EBA17C&assignmentId=0198be91-452d-77c6-9faf-15a126313f18&projectId=0198be8b-78cf-72d2-ba2b-1e62c78022e0","0A5A94AF3B684EA295C8964456EBA17C-2025-08-18-19-40-52","","null","","[]","null","",""
"","","","","","image-button-response","31","575482","0.0-10.0-1.0-0.2","0A5A94AF3B684EA295C8964456EBA17C","0A5A94AF3B684EA295C8964456EBA17C","0198be91-452d-77c6-9faf-15a126313f18","0198be8b-78cf-72d2-ba2b-1e62c78022e0","{""num_scrambled_semantic"":""8"",""num_scrambled_causal"":""4"",""num_scrambled_schematic"":""4"",""participantId"":""0A5A94AF3B684EA295C8964456EBA17C"",""assignmentId"":""0198be91-452d-77c6-9faf-15a126313f18"",""projectId"":""0198be8b-78cf-72d2-ba2b-1e62c78022e0""}","https://test12345.live/?num_scrambled_semantic=8&num_scrambled_causal=4&num_scrambled_schematic=4&participantId=0A5A94AF3B684EA295C8964456EBA17C&assignmentId=0198be91-452d-77c6-9faf-15a126313f18&projectId=0198be8b-78cf-72d2-ba2b-1e62c78022e0","0A5A94AF3B684EA295C8964456EBA17C-2025-08-18-19-40-52","","null","","images/causal_sequence/dog_causal/dog_causal_3.png","null","",""
"","","","","","image-button-response","32","577611","0.0-10.0-1.0-1.2","0A5A94AF3B684EA295C8964456EBA17C","0A5A94AF3B684EA295C8964456EBA17C","0198be91-452d-77c6-9faf-15a126313f18","0198be8b-78cf-72d2-ba2b-1e62c78022e0","{""num_scrambled_semantic"":""8"",""num_scrambled_causal"":""4"",""num_scrambled_schematic"":""4"",""participantId"":""0A5A94AF3B684EA295C8964456EBA17C"",""assignmentId"":""0198be91-452d-77c6-9faf-15a126313f18"",""projectId"":""0198be8b-78cf-72d2-ba2b-1e62c78022e0""}","https://test12345.live/?num_scrambled_semantic=8&num_scrambled_causal=4&num_scrambled_schematic=4&participantId=0A5A94AF3B684EA295C8964456EBA17C&assignmentId=0198be91-452d-77c6-9faf-15a126313f18&projectId=0198be8b-78cf-72d2-ba2b-1e62c78022e0","0A5A94AF3B684EA295C8964456EBA17C-2025-08-18-19-40-52","","2128","","images/causal_sequence/dog_causal/dog_causal_3.png","0","",""
"","","","","","image-button-response","33","579423","0.0-10.0-1.0-2.2","0A5A94AF3B684EA295C8964456EBA17C","0A5A94AF3B684EA295C8964456EBA17C","0198be91-452d-77c6-9faf-15a126313f18","0198be8b-78cf-72d2-ba2b-1e62c78022e0","{""num_scrambled_semantic"":""8"",""num_scrambled_causal"":""4"",""num_scrambled_schematic"":""4"",""participantId"":""0A5A94AF3B684EA295C8964456EBA17C"",""assignmentId"":""0198be91-452d-77c6-9faf-15a126313f18"",""projectId"":""0198be8b-78cf-72d2-ba2b-1e62c78022e0""}","https://test12345.live/?num_scrambled_semantic=8&num_scrambled_causal=4&num_scrambled_schematic=4&participantId=0A5A94AF3B684EA295C8964456EBA17C&assignmentId=0198be91-452d-77c6-9faf-15a126313f18&projectId=0198be8b-78cf-72d2-ba2b-1e62c78022e0","0A5A94AF3B684EA295C8964456EBA17C-2025-08-18-19-40-52","","null","","[]","null","",""
"","","","","","image-button-response","34","583929","0.0-10.0-1.0-0.3","0A5A94AF3B684EA295C8964456EBA17C","0A5A94AF3B684EA295C8964456EBA17C","0198be91-452d-77c6-9faf-15a126313f18","0198be8b-78cf-72d2-ba2b-1e62c78022e0","{""num_scrambled_semantic"":""8"",""num_scrambled_causal"":""4"",""num_scrambled_schematic"":""4"",""participantId"":""0A5A94AF3B684EA295C8964456EBA17C"",""assignmentId"":""0198be91-452d-77c6-9faf-15a126313f18"",""projectId"":""0198be8b-78cf-72d2-ba2b-1e62c78022e0""}","https://test12345.live/?num_scrambled_semantic=8&num_scrambled_causal=4&num_scrambled_schematic=4&participantId=0A5A94AF3B684EA295C8964456EBA17C&assignmentId=0198be91-452d-77c6-9faf-15a126313f18&projectId=0198be8b-78cf-72d2-ba2b-1e62c78022e0","0A5A94AF3B684EA295C8964456EBA17C-2025-08-18-19-40-52","","null","","images/causal_sequence/dog_causal/dog_causal_4.png","null","",""
"","","","","","image-button-response","35","585305","0.0-10.0-1.0-1.3","0A5A94AF3B684EA295C8964456EBA17C","0A5A94AF3B684EA295C8964456EBA17C","0198be91-452d-77c6-9faf-15a126313f18","0198be8b-78cf-72d2-ba2b-1e62c78022e0","{""num_scrambled_semantic"":""8"",""num_scrambled_causal"":""4"",""num_scrambled_schematic"":""4"",""participantId"":""0A5A94AF3B684EA295C8964456EBA17C"",""assignmentId"":""0198be91-452d-77c6-9faf-15a126313f18"",""projectId"":""0198be8b-78cf-72d2-ba2b-1e62c78022e0""}","https://test12345.live/?num_scrambled_semantic=8&num_scrambled_causal=4&num_scrambled_schematic=4&participantId=0A5A94AF3B684EA295C8964456EBA17C&assignmentId=0198be91-452d-77c6-9faf-15a126313f18&projectId=0198be8b-78cf-72d2-ba2b-1e62c78022e0","0A5A94AF3B684EA295C8964456EBA17C-2025-08-18-19-40-52","","1375","","images/causal_sequence/dog_causal/dog_causal_4.png","0","",""
"","","","","","image-button-response","36","587121","0.0-10.0-1.0-2.3","0A5A94AF3B684EA295C8964456EBA17C","0A5A94AF3B684EA295C8964456EBA17C","0198be91-452d-77c6-9faf-15a126313f18","0198be8b-78cf-72d2-ba2b-1e62c78022e0","{""num_scrambled_semantic"":""8"",""num_scrambled_causal"":""4"",""num_scrambled_schematic"":""4"",""participantId"":""0A5A94AF3B684EA295C8964456EBA17C"",""assignmentId"":""0198be91-452d-77c6-9faf-15a126313f18"",""projectId"":""0198be8b-78cf-72d2-ba2b-1e62c78022e0""}","https://test12345.live/?num_scrambled_semantic=8&num_scrambled_causal=4&num_scrambled_schematic=4&participantId=0A5A94AF3B684EA295C8964456EBA17C&assignmentId=0198be91-452d-77c6-9faf-15a126313f18&projectId=0198be8b-78cf-72d2-ba2b-1e62c78022e0","0A5A94AF3B684EA295C8964456EBA17C-2025-08-18-19-40-52","","null","","[]","null","",""
"","","","","","image-button-response","37","591637","0.0-10.0-1.0-0.4","0A5A94AF3B684EA295C8964456EBA17C","0A5A94AF3B684EA295C8964456EBA17C","0198be91-452d-77c6-9faf-15a126313f18","0198be8b-78cf-72d2-ba2b-1e62c78022e0","{""num_scrambled_semantic"":""8"",""num_scrambled_causal"":""4"",""num_scrambled_schematic"":""4"",""participantId"":""0A5A94AF3B684EA295C8964456EBA17C"",""assignmentId"":""0198be91-452d-77c6-9faf-15a126313f18"",""projectId"":""0198be8b-78cf-72d2-ba2b-1e62c78022e0""}","https://test12345.live/?num_scrambled_semantic=8&num_scrambled_causal=4&num_scrambled_schematic=4&participantId=0A5A94AF3B684EA295C8964456EBA17C&assignmentId=0198be91-452d-77c6-9faf-15a126313f18&projectId=0198be8b-78cf-72d2-ba2b-1e62c78022e0","0A5A94AF3B684EA295C8964456EBA17C-2025-08-18-19-40-52","","null","","images/causal_sequence/dog_causal/dog_causal_5.png","null","",""
"","","","","","image-button-response","38","593003","0.0-10.0-1.0-1.4","0A5A94AF3B684EA295C8964456EBA17C","0A5A94AF3B684EA295C8964456EBA17C","0198be91-452d-77c6-9faf-15a126313f18","0198be8b-78cf-72d2-ba2b-1e62c78022e0","{""num_scrambled_semantic"":""8"",""num_scrambled_causal"":""4"",""num_scrambled_schematic"":""4"",""participantId"":""0A5A94AF3B684EA295C8964456EBA17C"",""assignmentId"":""0198be91-452d-77c6-9faf-15a126313f18"",""projectId"":""0198be8b-78cf-72d2-ba2b-1e62c78022e0""}","https://test12345.live/?num_scrambled_semantic=8&num_scrambled_causal=4&num_scrambled_schematic=4&participantId=0A5A94AF3B684EA295C8964456EBA17C&assignmentId=0198be91-452d-77c6-9faf-15a126313f18&projectId=0198be8b-78cf-72d2-ba2b-1e62c78022e0","0A5A94AF3B684EA295C8964456EBA17C-2025-08-18-19-40-52","","1365","","images/causal_sequence/dog_causal/dog_causal_5.png","0","",""
"","","","","","image-button-response","39","594816","0.0-10.0-1.0-2.4","0A5A94AF3B684EA295C8964456EBA17C","0A5A94AF3B684EA295C8964456EBA17C","0198be91-452d-77c6-9faf-15a126313f18","0198be8b-78cf-72d2-ba2b-1e62c78022e0","{""num_scrambled_semantic"":""8"",""num_scrambled_causal"":""4"",""num_scrambled_schematic"":""4"",""participantId"":""0A5A94AF3B684EA295C8964456EBA17C"",""assignmentId"":""0198be91-452d-77c6-9faf-15a126313f18"",""projectId"":""0198be8b-78cf-72d2-ba2b-1e62c78022e0""}","https://test12345.live/?num_scrambled_semantic=8&num_scrambled_causal=4&num_scrambled_schematic=4&participantId=0A5A94AF3B684EA295C8964456EBA17C&assignmentId=0198be91-452d-77c6-9faf-15a126313f18&projectId=0198be8b-78cf-72d2-ba2b-1e62c78022e0","0A5A94AF3B684EA295C8964456EBA17C-2025-08-18-19-40-52","","null","","[]","null","",""
"","","","","","image-button-response","40","599329","0.0-10.0-1.0-0.5","0A5A94AF3B684EA295C8964456EBA17C","0A5A94AF3B684EA295C8964456EBA17C","0198be91-452d-77c6-9faf-15a126313f18","0198be8b-78cf-72d2-ba2b-1e62c78022e0","{""num_scrambled_semantic"":""8"",""num_scrambled_causal"":""4"",""num_scrambled_schematic"":""4"",""participantId"":""0A5A94AF3B684EA295C8964456EBA17C"",""assignmentId"":""0198be91-452d-77c6-9faf-15a126313f18"",""projectId"":""0198be8b-78cf-72d2-ba2b-1e62c78022e0""}","https://test12345.live/?num_scrambled_semantic=8&num_scrambled_causal=4&num_scrambled_schematic=4&participantId=0A5A94AF3B684EA295C8964456EBA17C&assignmentId=0198be91-452d-77c6-9faf-15a126313f18&projectId=0198be8b-78cf-72d2-ba2b-1e62c78022e0","0A5A94AF3B684EA295C8964456EBA17C-2025-08-18-19-40-52","","null","","images/causal_sequence/dog_causal/dog_causal_6.png","null","",""
"","","","","","image-button-response","41","600698","0.0-10.0-1.0-1.5","0A5A94AF3B684EA295C8964456EBA17C","0A5A94AF3B684EA295C8964456EBA17C","0198be91-452d-77c6-9faf-15a126313f18","0198be8b-78cf-72d2-ba2b-1e62c78022e0","{""num_scrambled_semantic"":""8"",""num_scrambled_causal"":""4"",""num_scrambled_schematic"":""4"",""participantId"":""0A5A94AF3B684EA295C8964456EBA17C"",""assignmentId"":""0198be91-452d-77c6-9faf-15a126313f18"",""projectId"":""0198be8b-78cf-72d2-ba2b-1e62c78022e0""}","https://test12345.live/?num_scrambled_semantic=8&num_scrambled_causal=4&num_scrambled_schematic=4&participantId=0A5A94AF3B684EA295C8964456EBA17C&assignmentId=0198be91-452d-77c6-9faf-15a126313f18&projectId=0198be8b-78cf-72d2-ba2b-1e62c78022e0","0A5A94AF3B684EA295C8964456EBA17C-2025-08-18-19-40-52","","1368","","images/causal_sequence/dog_causal/dog_causal_6.png","0","",""
"","","","","","image-button-response","42","602504","0.0-10.0-1.0-2.5","0A5A94AF3B684EA295C8964456EBA17C","0A5A94AF3B684EA295C8964456EBA17C","0198be91-452d-77c6-9faf-15a126313f18","0198be8b-78cf-72d2-ba2b-1e62c78022e0","{""num_scrambled_semantic"":""8"",""num_scrambled_causal"":""4"",""num_scrambled_schematic"":""4"",""participantId"":""0A5A94AF3B684EA295C8964456EBA17C"",""assignmentId"":""0198be91-452d-77c6-9faf-15a126313f18"",""projectId"":""0198be8b-78cf-72d2-ba2b-1e62c78022e0""}","https://test12345.live/?num_scrambled_semantic=8&num_scrambled_causal=4&num_scrambled_schematic=4&participantId=0A5A94AF3B684EA295C8964456EBA17C&assignmentId=0198be91-452d-77c6-9faf-15a126313f18&projectId=0198be8b-78cf-72d2-ba2b-1e62c78022e0","0A5A94AF3B684EA295C8964456EBA17C-2025-08-18-19-40-52","","null","","[]","null","",""
"","","","","","image-button-response","43","607007","0.0-10.0-1.0-0.6","0A5A94AF3B684EA295C8964456EBA17C","0A5A94AF3B684EA295C8964456EBA17C","0198be91-452d-77c6-9faf-15a126313f18","0198be8b-78cf-72d2-ba2b-1e62c78022e0","{""num_scrambled_semantic"":""8"",""num_scrambled_causal"":""4"",""num_scrambled_schematic"":""4"",""participantId"":""0A5A94AF3B684EA295C8964456EBA17C"",""assignmentId"":""0198be91-452d-77c6-9faf-15a126313f18"",""projectId"":""0198be8b-78cf-72d2-ba2b-1e62c78022e0""}","https://test12345.live/?num_scrambled_semantic=8&num_scrambled_causal=4&num_scrambled_schematic=4&participantId=0A5A94AF3B684EA295C8964456EBA17C&assignmentId=0198be91-452d-77c6-9faf-15a126313f18&projectId=0198be8b-78cf-72d2-ba2b-1e62c78022e0","0A5A94AF3B684EA295C8964456EBA17C-2025-08-18-19-40-52","","null","","images/causal_sequence/dog_causal/dog_causal_7.png","null","",""
"","","","","","image-button-response","44","609442","0.0-10.0-1.0-1.6","0A5A94AF3B684EA295C8964456EBA17C","0A5A94AF3B684EA295C8964456EBA17C","0198be91-452d-77c6-9faf-15a126313f18","0198be8b-78cf-72d2-ba2b-1e62c78022e0","{""num_scrambled_semantic"":""8"",""num_scrambled_causal"":""4"",""num_scrambled_schematic"":""4"",""participantId"":""0A5A94AF3B684EA295C8964456EBA17C"",""assignmentId"":""0198be91-452d-77c6-9faf-15a126313f18"",""projectId"":""0198be8b-78cf-72d2-ba2b-1e62c78022e0""}","https://test12345.live/?num_scrambled_semantic=8&num_scrambled_causal=4&num_scrambled_schematic=4&participantId=0A5A94AF3B684EA295C8964456EBA17C&assignmentId=0198be91-452d-77c6-9faf-15a126313f18&projectId=0198be8b-78cf-72d2-ba2b-1e62c78022e0","0A5A94AF3B684EA295C8964456EBA17C-2025-08-18-19-40-52","","2434","","images/causal_sequence/dog_causal/dog_causal_7.png","0","",""
"","","","","","image-button-response","45","611245","0.0-10.0-1.0-2.6","0A5A94AF3B684EA295C8964456EBA17C","0A5A94AF3B684EA295C8964456EBA17C","0198be91-452d-77c6-9faf-15a126313f18","0198be8b-78cf-72d2-ba2b-1e62c78022e0","{""num_scrambled_semantic"":""8"",""num_scrambled_causal"":""4"",""num_scrambled_schematic"":""4"",""participantId"":""0A5A94AF3B684EA295C8964456EBA17C"",""assignmentId"":""0198be91-452d-77c6-9faf-15a126313f18"",""projectId"":""0198be8b-78cf-72d2-ba2b-1e62c78022e0""}","https://test12345.live/?num_scrambled_semantic=8&num_scrambled_causal=4&num_scrambled_schematic=4&participantId=0A5A94AF3B684EA295C8964456EBA17C&assignmentId=0198be91-452d-77c6-9faf-15a126313f18&projectId=0198be8b-78cf-72d2-ba2b-1e62c78022e0","0A5A94AF3B684EA295C8964456EBA17C-2025-08-18-19-40-52","","null","","[]","null","",""
"","","","","","image-button-response","46","615752","0.0-10.0-1.0-0.7","0A5A94AF3B684EA295C8964456EBA17C","0A5A94AF3B684EA295C8964456EBA17C","0198be91-452d-77c6-9faf-15a126313f18","0198be8b-78cf-72d2-ba2b-1e62c78022e0","{""num_scrambled_semantic"":""8"",""num_scrambled_causal"":""4"",""num_scrambled_schematic"":""4"",""participantId"":""0A5A94AF3B684EA295C8964456EBA17C"",""assignmentId"":""0198be91-452d-77c6-9faf-15a126313f18"",""projectId"":""0198be8b-78cf-72d2-ba2b-1e62c78022e0""}","https://test12345.live/?num_scrambled_semantic=8&num_scrambled_causal=4&num_scrambled_schematic=4&participantId=0A5A94AF3B684EA295C8964456EBA17C&assignmentId=0198be91-452d-77c6-9faf-15a126313f18&projectId=0198be8b-78cf-72d2-ba2b-1e62c78022e0","0A5A94AF3B684EA295C8964456EBA17C-2025-08-18-19-40-52","","null","","images/causal_sequence/dog_causal/dog_causal_8.png","null","",""
"","","","","","image-button-response","47","617379","0.0-10.0-1.0-1.7","0A5A94AF3B684EA295C8964456EBA17C","0A5A94AF3B684EA295C8964456EBA17C","0198be91-452d-77c6-9faf-15a126313f18","0198be8b-78cf-72d2-ba2b-1e62c78022e0","{""num_scrambled_semantic"":""8"",""num_scrambled_causal"":""4"",""num_scrambled_schematic"":""4"",""participantId"":""0A5A94AF3B684EA295C8964456EBA17C"",""assignmentId"":""0198be91-452d-77c6-9faf-15a126313f18"",""projectId"":""0198be8b-78cf-72d2-ba2b-1e62c78022e0""}","https://test12345.live/?num_scrambled_semantic=8&num_scrambled_causal=4&num_scrambled_schematic=4&participantId=0A5A94AF3B684EA295C8964456EBA17C&assignmentId=0198be91-452d-77c6-9faf-15a126313f18&projectId=0198be8b-78cf-72d2-ba2b-1e62c78022e0","0A5A94AF3B684EA295C8964456EBA17C-2025-08-18-19-40-52","","1627","","images/causal_sequence/dog_causal/dog_causal_8.png","0","",""
"","","","","","image-button-response","48","619191","0.0-10.0-1.0-2.7","0A5A94AF3B684EA295C8964456EBA17C","0A5A94AF3B684EA295C8964456EBA17C","0198be91-452d-77c6-9faf-15a126313f18","0198be8b-78cf-72d2-ba2b-1e62c78022e0","{""num_scrambled_semantic"":""8"",""num_scrambled_causal"":""4"",""num_scrambled_schematic"":""4"",""participantId"":""0A5A94AF3B684EA295C8964456EBA17C"",""assignmentId"":""0198be91-452d-77c6-9faf-15a126313f18"",""projectId"":""0198be8b-78cf-72d2-ba2b-1e62c78022e0""}","https://test12345.live/?num_scrambled_semantic=8&num_scrambled_causal=4&num_scrambled_schematic=4&participantId=0A5A94AF3B684EA295C8964456EBA17C&assignmentId=0198be91-452d-77c6-9faf-15a126313f18&projectId=0198be8b-78cf-72d2-ba2b-1e62c78022e0","0A5A94AF3B684EA295C8964456EBA17C-2025-08-18-19-40-52","","null","","[]","null","",""
"","","","","","image-button-response","49","623692","0.0-10.0-1.0-0.8","0A5A94AF3B684EA295C8964456EBA17C","0A5A94AF3B684EA295C8964456EBA17C","0198be91-452d-77c6-9faf-15a126313f18","0198be8b-78cf-72d2-ba2b-1e62c78022e0","{""num_scrambled_semantic"":""8"",""num_scrambled_causal"":""4"",""num_scrambled_schematic"":""4"",""participantId"":""0A5A94AF3B684EA295C8964456EBA17C"",""assignmentId"":""0198be91-452d-77c6-9faf-15a126313f18"",""projectId"":""0198be8b-78cf-72d2-ba2b-1e62c78022e0""}","https://test12345.live/?num_scrambled_semantic=8&num_scrambled_causal=4&num_scrambled_schematic=4&participantId=0A5A94AF3B684EA295C8964456EBA17C&assignmentId=0198be91-452d-77c6-9faf-15a126313f18&projectId=0198be8b-78cf-72d2-ba2b-1e62c78022e0","0A5A94AF3B684EA295C8964456EBA17C-2025-08-18-19-40-52","","null","","images/causal_sequence/dog_causal/dog_causal_9.png","null","",""
"","","","","","image-button-response","50","626091","0.0-10.0-1.0-1.8","0A5A94AF3B684EA295C8964456EBA17C","0A5A94AF3B684EA295C8964456EBA17C","0198be91-452d-77c6-9faf-15a126313f18","0198be8b-78cf-72d2-ba2b-1e62c78022e0","{""num_scrambled_semantic"":""8"",""num_scrambled_causal"":""4"",""num_scrambled_schematic"":""4"",""participantId"":""0A5A94AF3B684EA295C8964456EBA17C"",""assignmentId"":""0198be91-452d-77c6-9faf-15a126313f18"",""projectId"":""0198be8b-78cf-72d2-ba2b-1e62c78022e0""}","https://test12345.live/?num_scrambled_semantic=8&num_scrambled_causal=4&num_scrambled_schematic=4&participantId=0A5A94AF3B684EA295C8964456EBA17C&assignmentId=0198be91-452d-77c6-9faf-15a126313f18&projectId=0198be8b-78cf-72d2-ba2b-1e62c78022e0","0A5A94AF3B684EA295C8964456EBA17C-2025-08-18-19-40-52","","2398","","images/causal_sequence/dog_causal/dog_causal_9.png","0","",""
"","","","","","image-button-response","51","627904","0.0-10.0-1.0-2.8","0A5A94AF3B684EA295C8964456EBA17C","0A5A94AF3B684EA295C8964456EBA17C","0198be91-452d-77c6-9faf-15a126313f18","0198be8b-78cf-72d2-ba2b-1e62c78022e0","{""num_scrambled_semantic"":""8"",""num_scrambled_causal"":""4"",""num_scrambled_schematic"":""4"",""participantId"":""0A5A94AF3B684EA295C8964456EBA17C"",""assignmentId"":""0198be91-452d-77c6-9faf-15a126313f18"",""projectId"":""0198be8b-78cf-72d2-ba2b-1e62c78022e0""}","https://test12345.live/?num_scrambled_semantic=8&num_scrambled_causal=4&num_scrambled_schematic=4&participantId=0A5A94AF3B684EA295C8964456EBA17C&assignmentId=0198be91-452d-77c6-9faf-15a126313f18&projectId=0198be8b-78cf-72d2-ba2b-1e62c78022e0","0A5A94AF3B684EA295C8964456EBA17C-2025-08-18-19-40-52","","null","","[]","null","",""
"","","","","","image-button-response","52","632420","0.0-10.0-1.0-0.9","0A5A94AF3B684EA295C8964456EBA17C","0A5A94AF3B684EA295C8964456EBA17C","0198be91-452d-77c6-9faf-15a126313f18","0198be8b-78cf-72d2-ba2b-1e62c78022e0","{""num_scrambled_semantic"":""8"",""num_scrambled_causal"":""4"",""num_scrambled_schematic"":""4"",""participantId"":""0A5A94AF3B684EA295C8964456EBA17C"",""assignmentId"":""0198be91-452d-77c6-9faf-15a126313f18"",""projectId"":""0198be8b-78cf-72d2-ba2b-1e62c78022e0""}","https://test12345.live/?num_scrambled_semantic=8&num_scrambled_causal=4&num_scrambled_schematic=4&participantId=0A5A94AF3B684EA295C8964456EBA17C&assignmentId=0198be91-452d-77c6-9faf-15a126313f18&projectId=0198be8b-78cf-72d2-ba2b-1e62c78022e0","0A5A94AF3B684EA295C8964456EBA17C-2025-08-18-19-40-52","","null","","images/causal_sequence/dog_causal/dog_causal_ten.png","null","",""
"","","","","","image-button-response","53","633802","0.0-10.0-1.0-1.9","0A5A94AF3B684EA295C8964456EBA17C","0A5A94AF3B684EA295C8964456EBA17C","0198be91-452d-77c6-9faf-15a126313f18","0198be8b-78cf-72d2-ba2b-1e62c78022e0","{""num_scrambled_semantic"":""8"",""num_scrambled_causal"":""4"",""num_scrambled_schematic"":""4"",""participantId"":""0A5A94AF3B684EA295C8964456EBA17C"",""assignmentId"":""0198be91-452d-77c6-9faf-15a126313f18"",""projectId"":""0198be8b-78cf-72d2-ba2b-1e62c78022e0""}","https://test12345.live/?num_scrambled_semantic=8&num_scrambled_causal=4&num_scrambled_schematic=4&participantId=0A5A94AF3B684EA295C8964456EBA17C&assignmentId=0198be91-452d-77c6-9faf-15a126313f18&projectId=0198be8b-78cf-72d2-ba2b-1e62c78022e0","0A5A94AF3B684EA295C8964456EBA17C-2025-08-18-19-40-52","","1381","","images/causal_sequence/dog_causal/dog_causal_ten.png","0","",""
"","","","","","image-button-response","54","635615","0.0-10.0-1.0-2.9","0A5A94AF3B684EA295C8964456EBA17C","0A5A94AF3B684EA295C8964456EBA17C","0198be91-452d-77c6-9faf-15a126313f18","0198be8b-78cf-72d2-ba2b-1e62c78022e0","{""num_scrambled_semantic"":""8"",""num_scrambled_causal"":""4"",""num_scrambled_schematic"":""4"",""participantId"":""0A5A94AF3B684EA295C8964456EBA17C"",""assignmentId"":""0198be91-452d-77c6-9faf-15a126313f18"",""projectId"":""0198be8b-78cf-72d2-ba2b-1e62c78022e0""}","https://test12345.live/?num_scrambled_semantic=8&num_scrambled_causal=4&num_scrambled_schematic=4&participantId=0A5A94AF3B684EA295C8964456EBA17C&assignmentId=0198be91-452d-77c6-9faf-15a126313f18&projectId=0198be8b-78cf-72d2-ba2b-1e62c78022e0","0A5A94AF3B684EA295C8964456EBA17C-2025-08-18-19-40-52","","null","","[]","null","",""
"","","","","","html-audio-response","55","660808","0.0-11.0","0A5A94AF3B684EA295C8964456EBA17C","0A5A94AF3B684EA295C8964456EBA17C","0198be91-452d-77c6-9faf-15a126313f18","0198be8b-78cf-72d2-ba2b-1e62c78022e0","{""num_scrambled_semantic"":""8"",""num_scrambled_causal"":""4"",""num_scrambled_schematic"":""4"",""participantId"":""0A5A94AF3B684EA295C8964456EBA17C"",""assignmentId"":""0198be91-452d-77c6-9faf-15a126313f18"",""projectId"":""0198be8b-78cf-72d2-ba2b-1e62c78022e0""}","https://test12345.live/?num_scrambled_semantic=8&num_scrambled_causal=4&num_scrambled_schematic=4&participantId=0A5A94AF3B684EA295C8964456EBA17C&assignmentId=0198be91-452d-77c6-9faf-15a126313f18&projectId=0198be8b-78cf-72d2-ba2b-1e62c78022e0","0A5A94AF3B684EA295C8964456EBA17C-2025-08-18-19-40-52","","16988","","[""<span style=\""color: red; font-size: 24px\""> NOW RECORDING</span><p>Please say out loud all the images you saw, in the order of the story they create. Try to recall the sequence of events as they appeared in the story, not necessarily the order they were presented on the screen.</p>""]","","1","dog_causal"
"","","","","","image-button-response","56","666817","0.0-12.0-0.0","0A5A94AF3B684EA295C8964456EBA17C","0A5A94AF3B684EA295C8964456EBA17C","0198be91-452d-77c6-9faf-15a126313f18","0198be8b-78cf-72d2-ba2b-1e62c78022e0","{""num_scrambled_semantic"":""8"",""num_scrambled_causal"":""4"",""num_scrambled_schematic"":""4"",""participantId"":""0A5A94AF3B684EA295C8964456EBA17C"",""assignmentId"":""0198be91-452d-77c6-9faf-15a126313f18"",""projectId"":""0198be8b-78cf-72d2-ba2b-1e62c78022e0""}","https://test12345.live/?num_scrambled_semantic=8&num_scrambled_causal=4&num_scrambled_schematic=4&participantId=0A5A94AF3B684EA295C8964456EBA17C&assignmentId=0198be91-452d-77c6-9faf-15a126313f18&projectId=0198be8b-78cf-72d2-ba2b-1e62c78022e0","0A5A94AF3B684EA295C8964456EBA17C-2025-08-18-19-40-52","","null","","images/semantic_sequence/physical_activity_semantic/physical_activity_semantic_0.png","null","",""
"","","","","","image-button-response","57","671334","0.0-12.0-1.0-0.0","0A5A94AF3B684EA295C8964456EBA17C","0A5A94AF3B684EA295C8964456EBA17C","0198be91-452d-77c6-9faf-15a126313f18","0198be8b-78cf-72d2-ba2b-1e62c78022e0","{""num_scrambled_semantic"":""8"",""num_scrambled_causal"":""4"",""num_scrambled_schematic"":""4"",""participantId"":""0A5A94AF3B684EA295C8964456EBA17C"",""assignmentId"":""0198be91-452d-77c6-9faf-15a126313f18"",""projectId"":""0198be8b-78cf-72d2-ba2b-1e62c78022e0""}","https://test12345.live/?num_scrambled_semantic=8&num_scrambled_causal=4&num_scrambled_schematic=4&participantId=0A5A94AF3B684EA295C8964456EBA17C&assignmentId=0198be91-452d-77c6-9faf-15a126313f18&projectId=0198be8b-78cf-72d2-ba2b-1e62c78022e0","0A5A94AF3B684EA295C8964456EBA17C-2025-08-18-19-40-52","","null","","images/semantic_sequence/physical_activity_semantic/physical_activity_semantic_5.png","null","",""
"","","","","","image-button-response","58","672903","0.0-12.0-1.0-1.0","0A5A94AF3B684EA295C8964456EBA17C","0A5A94AF3B684EA295C8964456EBA17C","0198be91-452d-77c6-9faf-15a126313f18","0198be8b-78cf-72d2-ba2b-1e62c78022e0","{""num_scrambled_semantic"":""8"",""num_scrambled_causal"":""4"",""num_scrambled_schematic"":""4"",""participantId"":""0A5A94AF3B684EA295C8964456EBA17C"",""assignmentId"":""0198be91-452d-77c6-9faf-15a126313f18"",""projectId"":""0198be8b-78cf-72d2-ba2b-1e62c78022e0""}","https://test12345.live/?num_scrambled_semantic=8&num_scrambled_causal=4&num_scrambled_schematic=4&participantId=0A5A94AF3B684EA295C8964456EBA17C&assignmentId=0198be91-452d-77c6-9faf-15a126313f18&projectId=0198be8b-78cf-72d2-ba2b-1e62c78022e0","0A5A94AF3B684EA295C8964456EBA17C-2025-08-18-19-40-52","","1568","","images/semantic_sequence/physical_activity_semantic/physical_activity_semantic_5.png","0","",""
"","","","","","image-button-response","59","674717","0.0-12.0-1.0-2.0","0A5A94AF3B684EA295C8964456EBA17C","0A5A94AF3B684EA295C8964456EBA17C","0198be91-452d-77c6-9faf-15a126313f18","0198be8b-78cf-72d2-ba2b-1e62c78022e0","{""num_scrambled_semantic"":""8"",""num_scrambled_causal"":""4"",""num_scrambled_schematic"":""4"",""participantId"":""0A5A94AF3B684EA295C8964456EBA17C"",""assignmentId"":""0198be91-452d-77c6-9faf-15a126313f18"",""projectId"":""0198be8b-78cf-72d2-ba2b-1e62c78022e0""}","https://test12345.live/?num_scrambled_semantic=8&num_scrambled_causal=4&num_scrambled_schematic=4&participantId=0A5A94AF3B684EA295C8964456EBA17C&assignmentId=0198be91-452d-77c6-9faf-15a126313f18&projectId=0198be8b-78cf-72d2-ba2b-1e62c78022e0","0A5A94AF3B684EA295C8964456EBA17C-2025-08-18-19-40-52","","null","","[]","null","",""
"","","","","","image-button-response","60","679232","0.0-12.0-1.0-0.1","0A5A94AF3B684EA295C8964456EBA17C","0A5A94AF3B684EA295C8964456EBA17C","0198be91-452d-77c6-9faf-15a126313f18","0198be8b-78cf-72d2-ba2b-1e62c78022e0","{""num_scrambled_semantic"":""8"",""num_scrambled_causal"":""4"",""num_scrambled_schematic"":""4"",""participantId"":""0A5A94AF3B684EA295C8964456EBA17C"",""assignmentId"":""0198be91-452d-77c6-9faf-15a126313f18"",""projectId"":""0198be8b-78cf-72d2-ba2b-1e62c78022e0""}","https://test12345.live/?num_scrambled_semantic=8&num_scrambled_causal=4&num_scrambled_schematic=4&participantId=0A5A94AF3B684EA295C8964456EBA17C&assignmentId=0198be91-452d-77c6-9faf-15a126313f18&projectId=0198be8b-78cf-72d2-ba2b-1e62c78022e0","0A5A94AF3B684EA295C8964456EBA17C-2025-08-18-19-40-52","","null","","images/semantic_sequence/physical_activity_semantic/physical_activity_semantic_4.png","null","",""
"","","","","","image-button-response","61","680663","0.0-12.0-1.0-1.1","0A5A94AF3B684EA295C8964456EBA17C","0A5A94AF3B684EA295C8964456EBA17C","0198be91-452d-77c6-9faf-15a126313f18","0198be8b-78cf-72d2-ba2b-1e62c78022e0","{""num_scrambled_semantic"":""8"",""num_scrambled_causal"":""4"",""num_scrambled_schematic"":""4"",""participantId"":""0A5A94AF3B684EA295C8964456EBA17C"",""assignmentId"":""0198be91-452d-77c6-9faf-15a126313f18"",""projectId"":""0198be8b-78cf-72d2-ba2b-1e62c78022e0""}","https://test12345.live/?num_scrambled_semantic=8&num_scrambled_causal=4&num_scrambled_schematic=4&participantId=0A5A94AF3B684EA295C8964456EBA17C&assignmentId=0198be91-452d-77c6-9faf-15a126313f18&projectId=0198be8b-78cf-72d2-ba2b-1e62c78022e0","0A5A94AF3B684EA295C8964456EBA17C-2025-08-18-19-40-52","","1430","","images/semantic_sequence/physical_activity_semantic/physical_activity_semantic_4.png","0","",""
"","","","","","image-button-response","62","682472","0.0-12.0-1.0-2.1","0A5A94AF3B684EA295C8964456EBA17C","0A5A94AF3B684EA295C8964456EBA17C","0198be91-452d-77c6-9faf-15a126313f18","0198be8b-78cf-72d2-ba2b-1e62c78022e0","{""num_scrambled_semantic"":""8"",""num_scrambled_causal"":""4"",""num_scrambled_schematic"":""4"",""participantId"":""0A5A94AF3B684EA295C8964456EBA17C"",""assignmentId"":""0198be91-452d-77c6-9faf-15a126313f18"",""projectId"":""0198be8b-78cf-72d2-ba2b-1e62c78022e0""}","https://test12345.live/?num_scrambled_semantic=8&num_scrambled_causal=4&num_scrambled_schematic=4&participantId=0A5A94AF3B684EA295C8964456EBA17C&assignmentId=0198be91-452d-77c6-9faf-15a126313f18&projectId=0198be8b-78cf-72d2-ba2b-1e62c78022e0","0A5A94AF3B684EA295C8964456EBA17C-2025-08-18-19-40-52","","null","","[]","null","",""
"","","","","","image-button-response","63","686974","0.0-12.0-1.0-0.2","0A5A94AF3B684EA295C8964456EBA17C","0A5A94AF3B684EA295C8964456EBA17C","0198be91-452d-77c6-9faf-15a126313f18","0198be8b-78cf-72d2-ba2b-1e62c78022e0","{""num_scrambled_semantic"":""8"",""num_scrambled_causal"":""4"",""num_scrambled_schematic"":""4"",""participantId"":""0A5A94AF3B684EA295C8964456EBA17C"",""assignmentId"":""0198be91-452d-77c6-9faf-15a126313f18"",""projectId"":""0198be8b-78cf-72d2-ba2b-1e62c78022e0""}","https://test12345.live/?num_scrambled_semantic=8&num_scrambled_causal=4&num_scrambled_schematic=4&participantId=0A5A94AF3B684EA295C8964456EBA17C&assignmentId=0198be91-452d-77c6-9faf-15a126313f18&projectId=0198be8b-78cf-72d2-ba2b-1e62c78022e0","0A5A94AF3B684EA295C8964456EBA17C-2025-08-18-19-40-52","","null","","images/semantic_sequence/physical_activity_semantic/physical_activity_semantic_2.png","null","",""
"","","","","","image-button-response","64","687610","0.0-12.0-1.0-1.2","0A5A94AF3B684EA295C8964456EBA17C","0A5A94AF3B684EA295C8964456EBA17C","0198be91-452d-77c6-9faf-15a126313f18","0198be8b-78cf-72d2-ba2b-1e62c78022e0","{""num_scrambled_semantic"":""8"",""num_scrambled_causal"":""4"",""num_scrambled_schematic"":""4"",""participantId"":""0A5A94AF3B684EA295C8964456EBA17C"",""assignmentId"":""0198be91-452d-77c6-9faf-15a126313f18"",""projectId"":""0198be8b-78cf-72d2-ba2b-1e62c78022e0""}","https://test12345.live/?num_scrambled_semantic=8&num_scrambled_causal=4&num_scrambled_schematic=4&participantId=0A5A94AF3B684EA295C8964456EBA17C&assignmentId=0198be91-452d-77c6-9faf-15a126313f18&projectId=0198be8b-78cf-72d2-ba2b-1e62c78022e0","0A5A94AF3B684EA295C8964456EBA17C-2025-08-18-19-40-52","","635","","images/semantic_sequence/physical_activity_semantic/physical_activity_semantic_2.png","0","",""
"","","","","","image-button-response","65","689424","0.0-12.0-1.0-2.2","0A5A94AF3B684EA295C8964456EBA17C","0A5A94AF3B684EA295C8964456EBA17C","0198be91-452d-77c6-9faf-15a126313f18","0198be8b-78cf-72d2-ba2b-1e62c78022e0","{""num_scrambled_semantic"":""8"",""num_scrambled_causal"":""4"",""num_scrambled_schematic"":""4"",""participantId"":""0A5A94AF3B684EA295C8964456EBA17C"",""assignmentId"":""0198be91-452d-77c6-9faf-15a126313f18"",""projectId"":""0198be8b-78cf-72d2-ba2b-1e62c78022e0""}","https://test12345.live/?num_scrambled_semantic=8&num_scrambled_causal=4&num_scrambled_schematic=4&participantId=0A5A94AF3B684EA295C8964456EBA17C&assignmentId=0198be91-452d-77c6-9faf-15a126313f18&projectId=0198be8b-78cf-72d2-ba2b-1e62c78022e0","0A5A94AF3B684EA295C8964456EBA17C-2025-08-18-19-40-52","","null","","[]","null","",""
"","","","","","image-button-response","66","693934","0.0-12.0-1.0-0.3","0A5A94AF3B684EA295C8964456EBA17C","0A5A94AF3B684EA295C8964456EBA17C","0198be91-452d-77c6-9faf-15a126313f18","0198be8b-78cf-72d2-ba2b-1e62c78022e0","{""num_scrambled_semantic"":""8"",""num_scrambled_causal"":""4"",""num_scrambled_schematic"":""4"",""participantId"":""0A5A94AF3B684EA295C8964456EBA17C"",""assignmentId"":""0198be91-452d-77c6-9faf-15a126313f18"",""projectId"":""0198be8b-78cf-72d2-ba2b-1e62c78022e0""}","https://test12345.live/?num_scrambled_semantic=8&num_scrambled_causal=4&num_scrambled_schematic=4&participantId=0A5A94AF3B684EA295C8964456EBA17C&assignmentId=0198be91-452d-77c6-9faf-15a126313f18&projectId=0198be8b-78cf-72d2-ba2b-1e62c78022e0","0A5A94AF3B684EA295C8964456EBA17C-2025-08-18-19-40-52","","null","","images/semantic_sequence/physical_activity_semantic/physical_activity_semantic_1.png","null","",""
"","","","","","image-button-response","67","695497","0.0-12.0-1.0-1.3","0A5A94AF3B684EA295C8964456EBA17C","0A5A94AF3B684EA295C8964456EBA17C","0198be91-452d-77c6-9faf-15a126313f18","0198be8b-78cf-72d2-ba2b-1e62c78022e0","{""num_scrambled_semantic"":""8"",""num_scrambled_causal"":""4"",""num_scrambled_schematic"":""4"",""participantId"":""0A5A94AF3B684EA295C8964456EBA17C"",""assignmentId"":""0198be91-452d-77c6-9faf-15a126313f18"",""projectId"":""0198be8b-78cf-72d2-ba2b-1e62c78022e0""}","https://test12345.live/?num_scrambled_semantic=8&num_scrambled_causal=4&num_scrambled_schematic=4&participantId=0A5A94AF3B684EA295C8964456EBA17C&assignmentId=0198be91-452d-77c6-9faf-15a126313f18&projectId=0198be8b-78cf-72d2-ba2b-1e62c78022e0","0A5A94AF3B684EA295C8964456EBA17C-2025-08-18-19-40-52","","1562","","images/semantic_sequence/physical_activity_semantic/physical_activity_semantic_1.png","0","",""
"","","","","","image-button-response","68","697300","0.0-12.0-1.0-2.3","0A5A94AF3B684EA295C8964456EBA17C","0A5A94AF3B684EA295C8964456EBA17C","0198be91-452d-77c6-9faf-15a126313f18","0198be8b-78cf-72d2-ba2b-1e62c78022e0","{""num_scrambled_semantic"":""8"",""num_scrambled_causal"":""4"",""num_scrambled_schematic"":""4"",""participantId"":""0A5A94AF3B684EA295C8964456EBA17C"",""assignmentId"":""0198be91-452d-77c6-9faf-15a126313f18"",""projectId"":""0198be8b-78cf-72d2-ba2b-1e62c78022e0""}","https://test12345.live/?num_scrambled_semantic=8&num_scrambled_causal=4&num_scrambled_schematic=4&participantId=0A5A94AF3B684EA295C8964456EBA17C&assignmentId=0198be91-452d-77c6-9faf-15a126313f18&projectId=0198be8b-78cf-72d2-ba2b-1e62c78022e0","0A5A94AF3B684EA295C8964456EBA17C-2025-08-18-19-40-52","","null","","[]","null","",""
"","","","","","image-button-response","69","701814","0.0-12.0-1.0-0.4","0A5A94AF3B684EA295C8964456EBA17C","0A5A94AF3B684EA295C8964456EBA17C","0198be91-452d-77c6-9faf-15a126313f18","0198be8b-78cf-72d2-ba2b-1e62c78022e0","{""num_scrambled_semantic"":""8"",""num_scrambled_causal"":""4"",""num_scrambled_schematic"":""4"",""participantId"":""0A5A94AF3B684EA295C8964456EBA17C"",""assignmentId"":""0198be91-452d-77c6-9faf-15a126313f18"",""projectId"":""0198be8b-78cf-72d2-ba2b-1e62c78022e0""}","https://test12345.live/?num_scrambled_semantic=8&num_scrambled_causal=4&num_scrambled_schematic=4&participantId=0A5A94AF3B684EA295C8964456EBA17C&assignmentId=0198be91-452d-77c6-9faf-15a126313f18&projectId=0198be8b-78cf-72d2-ba2b-1e62c78022e0","0A5A94AF3B684EA295C8964456EBA17C-2025-08-18-19-40-52","","null","","images/semantic_sequence/physical_activity_semantic/physical_activity_semantic_7.png","null","",""
"","","","","","image-button-response","70","703721","0.0-12.0-1.0-1.4","0A5A94AF3B684EA295C8964456EBA17C","0A5A94AF3B684EA295C8964456EBA17C","0198be91-452d-77c6-9faf-15a126313f18","0198be8b-78cf-72d2-ba2b-1e62c78022e0","{""num_scrambled_semantic"":""8"",""num_scrambled_causal"":""4"",""num_scrambled_schematic"":""4"",""participantId"":""0A5A94AF3B684EA295C8964456EBA17C"",""assignmentId"":""0198be91-452d-77c6-9faf-15a126313f18"",""projectId"":""0198be8b-78cf-72d2-ba2b-1e62c78022e0""}","https://test12345.live/?num_scrambled_semantic=8&num_scrambled_causal=4&num_scrambled_schematic=4&participantId=0A5A94AF3B684EA295C8964456EBA17C&assignmentId=0198be91-452d-77c6-9faf-15a126313f18&projectId=0198be8b-78cf-72d2-ba2b-1e62c78022e0","0A5A94AF3B684EA295C8964456EBA17C-2025-08-18-19-40-52","","1906","","images/semantic_sequence/physical_activity_semantic/physical_activity_semantic_7.png","0","",""
"","","","","","image-button-response","71","705527","0.0-12.0-1.0-2.4","0A5A94AF3B684EA295C8964456EBA17C","0A5A94AF3B684EA295C8964456EBA17C","0198be91-452d-77c6-9faf-15a126313f18","0198be8b-78cf-72d2-ba2b-1e62c78022e0","{""num_scrambled_semantic"":""8"",""num_scrambled_causal"":""4"",""num_scrambled_schematic"":""4"",""participantId"":""0A5A94AF3B684EA295C8964456EBA17C"",""assignmentId"":""0198be91-452d-77c6-9faf-15a126313f18"",""projectId"":""0198be8b-78cf-72d2-ba2b-1e62c78022e0""}","https://test12345.live/?num_scrambled_semantic=8&num_scrambled_causal=4&num_scrambled_schematic=4&participantId=0A5A94AF3B684EA295C8964456EBA17C&assignmentId=0198be91-452d-77c6-9faf-15a126313f18&projectId=0198be8b-78cf-72d2-ba2b-1e62c78022e0","0A5A94AF3B684EA295C8964456EBA17C-2025-08-18-19-40-52","","null","","[]","null","",""
"","","","","","image-button-response","72","710039","0.0-12.0-1.0-0.5","0A5A94AF3B684EA295C8964456EBA17C","0A5A94AF3B684EA295C8964456EBA17C","0198be91-452d-77c6-9faf-15a126313f18","0198be8b-78cf-72d2-ba2b-1e62c78022e0","{""num_scrambled_semantic"":""8"",""num_scrambled_causal"":""4"",""num_scrambled_schematic"":""4"",""participantId"":""0A5A94AF3B684EA295C8964456EBA17C"",""assignmentId"":""0198be91-452d-77c6-9faf-15a126313f18"",""projectId"":""0198be8b-78cf-72d2-ba2b-1e62c78022e0""}","https://test12345.live/?num_scrambled_semantic=8&num_scrambled_causal=4&num_scrambled_schematic=4&participantId=0A5A94AF3B684EA295C8964456EBA17C&assignmentId=0198be91-452d-77c6-9faf-15a126313f18&projectId=0198be8b-78cf-72d2-ba2b-1e62c78022e0","0A5A94AF3B684EA295C8964456EBA17C-2025-08-18-19-40-52","","null","","images/semantic_sequence/physical_activity_semantic/physical_activity_semantic_3.png","null","",""
"","","","","","image-button-response","73","711882","0.0-12.0-1.0-1.5","0A5A94AF3B684EA295C8964456EBA17C","0A5A94AF3B684EA295C8964456EBA17C","0198be91-452d-77c6-9faf-15a126313f18","0198be8b-78cf-72d2-ba2b-1e62c78022e0","{""num_scrambled_semantic"":""8"",""num_scrambled_causal"":""4"",""num_scrambled_schematic"":""4"",""participantId"":""0A5A94AF3B684EA295C8964456EBA17C"",""assignmentId"":""0198be91-452d-77c6-9faf-15a126313f18"",""projectId"":""0198be8b-78cf-72d2-ba2b-1e62c78022e0""}","https://test12345.live/?num_scrambled_semantic=8&num_scrambled_causal=4&num_scrambled_schematic=4&participantId=0A5A94AF3B684EA295C8964456EBA17C&assignmentId=0198be91-452d-77c6-9faf-15a126313f18&projectId=0198be8b-78cf-72d2-ba2b-1e62c78022e0","0A5A94AF3B684EA295C8964456EBA17C-2025-08-18-19-40-52","","1841","","images/semantic_sequence/physical_activity_semantic/physical_activity_semantic_3.png","0","",""
"","","","","","image-button-response","74","713687","0.0-12.0-1.0-2.5","0A5A94AF3B684EA295C8964456EBA17C","0A5A94AF3B684EA295C8964456EBA17C","0198be91-452d-77c6-9faf-15a126313f18","0198be8b-78cf-72d2-ba2b-1e62c78022e0","{""num_scrambled_semantic"":""8"",""num_scrambled_causal"":""4"",""num_scrambled_schematic"":""4"",""participantId"":""0A5A94AF3B684EA295C8964456EBA17C"",""assignmentId"":""0198be91-452d-77c6-9faf-15a126313f18"",""projectId"":""0198be8b-78cf-72d2-ba2b-1e62c78022e0""}","https://test12345.live/?num_scrambled_semantic=8&num_scrambled_causal=4&num_scrambled_schematic=4&participantId=0A5A94AF3B684EA295C8964456EBA17C&assignmentId=0198be91-452d-77c6-9faf-15a126313f18&projectId=0198be8b-78cf-72d2-ba2b-1e62c78022e0","0A5A94AF3B684EA295C8964456EBA17C-2025-08-18-19-40-52","","null","","[]","null","",""
"","","","","","image-button-response","75","718200","0.0-12.0-1.0-0.6","0A5A94AF3B684EA295C8964456EBA17C","0A5A94AF3B684EA295C8964456EBA17C","0198be91-452d-77c6-9faf-15a126313f18","0198be8b-78cf-72d2-ba2b-1e62c78022e0","{""num_scrambled_semantic"":""8"",""num_scrambled_causal"":""4"",""num_scrambled_schematic"":""4"",""participantId"":""0A5A94AF3B684EA295C8964456EBA17C"",""assignmentId"":""0198be91-452d-77c6-9faf-15a126313f18"",""projectId"":""0198be8b-78cf-72d2-ba2b-1e62c78022e0""}","https://test12345.live/?num_scrambled_semantic=8&num_scrambled_causal=4&num_scrambled_schematic=4&participantId=0A5A94AF3B684EA295C8964456EBA17C&assignmentId=0198be91-452d-77c6-9faf-15a126313f18&projectId=0198be8b-78cf-72d2-ba2b-1e62c78022e0","0A5A94AF3B684EA295C8964456EBA17C-2025-08-18-19-40-52","","null","","images/semantic_sequence/physical_activity_semantic/physical_activity_semantic_ten.png","null","",""
"","","","","","image-button-response","76","721267","0.0-12.0-1.0-1.6","0A5A94AF3B684EA295C8964456EBA17C","0A5A94AF3B684EA295C8964456EBA17C","0198be91-452d-77c6-9faf-15a126313f18","0198be8b-78cf-72d2-ba2b-1e62c78022e0","{""num_scrambled_semantic"":""8"",""num_scrambled_causal"":""4"",""num_scrambled_schematic"":""4"",""participantId"":""0A5A94AF3B684EA295C8964456EBA17C"",""assignmentId"":""0198be91-452d-77c6-9faf-15a126313f18"",""projectId"":""0198be8b-78cf-72d2-ba2b-1e62c78022e0""}","https://test12345.live/?num_scrambled_semantic=8&num_scrambled_causal=4&num_scrambled_schematic=4&participantId=0A5A94AF3B684EA295C8964456EBA17C&assignmentId=0198be91-452d-77c6-9faf-15a126313f18&projectId=0198be8b-78cf-72d2-ba2b-1e62c78022e0","0A5A94AF3B684EA295C8964456EBA17C-2025-08-18-19-40-52","","3066","","images/semantic_sequence/physical_activity_semantic/physical_activity_semantic_ten.png","0","",""
"","","","","","image-button-response","77","723077","0.0-12.0-1.0-2.6","0A5A94AF3B684EA295C8964456EBA17C","0A5A94AF3B684EA295C8964456EBA17C","0198be91-452d-77c6-9faf-15a126313f18","0198be8b-78cf-72d2-ba2b-1e62c78022e0","{""num_scrambled_semantic"":""8"",""num_scrambled_causal"":""4"",""num_scrambled_schematic"":""4"",""participantId"":""0A5A94AF3B684EA295C8964456EBA17C"",""assignmentId"":""0198be91-452d-77c6-9faf-15a126313f18"",""projectId"":""0198be8b-78cf-72d2-ba2b-1e62c78022e0""}","https://test12345.live/?num_scrambled_semantic=8&num_scrambled_causal=4&num_scrambled_schematic=4&participantId=0A5A94AF3B684EA295C8964456EBA17C&assignmentId=0198be91-452d-77c6-9faf-15a126313f18&projectId=0198be8b-78cf-72d2-ba2b-1e62c78022e0","0A5A94AF3B684EA295C8964456EBA17C-2025-08-18-19-40-52","","null","","[]","null","",""
"","","","","","image-button-response","78","727581","0.0-12.0-1.0-0.7","0A5A94AF3B684EA295C8964456EBA17C","0A5A94AF3B684EA295C8964456EBA17C","0198be91-452d-77c6-9faf-15a126313f18","0198be8b-78cf-72d2-ba2b-1e62c78022e0","{""num_scrambled_semantic"":""8"",""num_scrambled_causal"":""4"",""num_scrambled_schematic"":""4"",""participantId"":""0A5A94AF3B684EA295C8964456EBA17C"",""assignmentId"":""0198be91-452d-77c6-9faf-15a126313f18"",""projectId"":""0198be8b-78cf-72d2-ba2b-1e62c78022e0""}","https://test12345.live/?num_scrambled_semantic=8&num_scrambled_causal=4&num_scrambled_schematic=4&participantId=0A5A94AF3B684EA295C8964456EBA17C&assignmentId=0198be91-452d-77c6-9faf-15a126313f18&projectId=0198be8b-78cf-72d2-ba2b-1e62c78022e0","0A5A94AF3B684EA295C8964456EBA17C-2025-08-18-19-40-52","","null","","images/semantic_sequence/physical_activity_semantic/physical_activity_semantic_9.png","null","",""
"","","","","","image-button-response","79","729051","0.0-12.0-1.0-1.7","0A5A94AF3B684EA295C8964456EBA17C","0A5A94AF3B684EA295C8964456EBA17C","0198be91-452d-77c6-9faf-15a126313f18","0198be8b-78cf-72d2-ba2b-1e62c78022e0","{""num_scrambled_semantic"":""8"",""num_scrambled_causal"":""4"",""num_scrambled_schematic"":""4"",""participantId"":""0A5A94AF3B684EA295C8964456EBA17C"",""assignmentId"":""0198be91-452d-77c6-9faf-15a126313f18"",""projectId"":""0198be8b-78cf-72d2-ba2b-1e62c78022e0""}","https://test12345.live/?num_scrambled_semantic=8&num_scrambled_causal=4&num_scrambled_schematic=4&participantId=0A5A94AF3B684EA295C8964456EBA17C&assignmentId=0198be91-452d-77c6-9faf-15a126313f18&projectId=0198be8b-78cf-72d2-ba2b-1e62c78022e0","0A5A94AF3B684EA295C8964456EBA17C-2025-08-18-19-40-52","","1468","","images/semantic_sequence/physical_activity_semantic/physical_activity_semantic_9.png","0","",""
"","","","","","image-button-response","80","730856","0.0-12.0-1.0-2.7","0A5A94AF3B684EA295C8964456EBA17C","0A5A94AF3B684EA295C8964456EBA17C","0198be91-452d-77c6-9faf-15a126313f18","0198be8b-78cf-72d2-ba2b-1e62c78022e0","{""num_scrambled_semantic"":""8"",""num_scrambled_causal"":""4"",""num_scrambled_schematic"":""4"",""participantId"":""0A5A94AF3B684EA295C8964456EBA17C"",""assignmentId"":""0198be91-452d-77c6-9faf-15a126313f18"",""projectId"":""0198be8b-78cf-72d2-ba2b-1e62c78022e0""}","https://test12345.live/?num_scrambled_semantic=8&num_scrambled_causal=4&num_scrambled_schematic=4&participantId=0A5A94AF3B684EA295C8964456EBA17C&assignmentId=0198be91-452d-77c6-9faf-15a126313f18&projectId=0198be8b-78cf-72d2-ba2b-1e62c78022e0","0A5A94AF3B684EA295C8964456EBA17C-2025-08-18-19-40-52","","null","","[]","null","",""
"","","","","","image-button-response","81","735357","0.0-12.0-1.0-0.8","0A5A94AF3B684EA295C8964456EBA17C","0A5A94AF3B684EA295C8964456EBA17C","0198be91-452d-77c6-9faf-15a126313f18","0198be8b-78cf-72d2-ba2b-1e62c78022e0","{""num_scrambled_semantic"":""8"",""num_scrambled_causal"":""4"",""num_scrambled_schematic"":""4"",""participantId"":""0A5A94AF3B684EA295C8964456EBA17C"",""assignmentId"":""0198be91-452d-77c6-9faf-15a126313f18"",""projectId"":""0198be8b-78cf-72d2-ba2b-1e62c78022e0""}","https://test12345.live/?num_scrambled_semantic=8&num_scrambled_causal=4&num_scrambled_schematic=4&participantId=0A5A94AF3B684EA295C8964456EBA17C&assignmentId=0198be91-452d-77c6-9faf-15a126313f18&projectId=0198be8b-78cf-72d2-ba2b-1e62c78022e0","0A5A94AF3B684EA295C8964456EBA17C-2025-08-18-19-40-52","","null","","images/semantic_sequence/physical_activity_semantic/physical_activity_semantic_6.png","null","",""
"","","","","","image-button-response","82","736594","0.0-12.0-1.0-1.8","0A5A94AF3B684EA295C8964456EBA17C","0A5A94AF3B684EA295C8964456EBA17C","0198be91-452d-77c6-9faf-15a126313f18","0198be8b-78cf-72d2-ba2b-1e62c78022e0","{""num_scrambled_semantic"":""8"",""num_scrambled_causal"":""4"",""num_scrambled_schematic"":""4"",""participantId"":""0A5A94AF3B684EA295C8964456EBA17C"",""assignmentId"":""0198be91-452d-77c6-9faf-15a126313f18"",""projectId"":""0198be8b-78cf-72d2-ba2b-1e62c78022e0""}","https://test12345.live/?num_scrambled_semantic=8&num_scrambled_causal=4&num_scrambled_schematic=4&participantId=0A5A94AF3B684EA295C8964456EBA17C&assignmentId=0198be91-452d-77c6-9faf-15a126313f18&projectId=0198be8b-78cf-72d2-ba2b-1e62c78022e0","0A5A94AF3B684EA295C8964456EBA17C-2025-08-18-19-40-52","","1236","","images/semantic_sequence/physical_activity_semantic/physical_activity_semantic_6.png","0","",""
"","","","","","image-button-response","83","738397","0.0-12.0-1.0-2.8","0A5A94AF3B684EA295C8964456EBA17C","0A5A94AF3B684EA295C8964456EBA17C","0198be91-452d-77c6-9faf-15a126313f18","0198be8b-78cf-72d2-ba2b-1e62c78022e0","{""num_scrambled_semantic"":""8"",""num_scrambled_causal"":""4"",""num_scrambled_schematic"":""4"",""participantId"":""0A5A94AF3B684EA295C8964456EBA17C"",""assignmentId"":""0198be91-452d-77c6-9faf-15a126313f18"",""projectId"":""0198be8b-78cf-72d2-ba2b-1e62c78022e0""}","https://test12345.live/?num_scrambled_semantic=8&num_scrambled_causal=4&num_scrambled_schematic=4&participantId=0A5A94AF3B684EA295C8964456EBA17C&assignmentId=0198be91-452d-77c6-9faf-15a126313f18&projectId=0198be8b-78cf-72d2-ba2b-1e62c78022e0","0A5A94AF3B684EA295C8964456EBA17C-2025-08-18-19-40-52","","null","","[]","null","",""
"","","","","","image-button-response","84","742911","0.0-12.0-1.0-0.9","0A5A94AF3B684EA295C8964456EBA17C","0A5A94AF3B684EA295C8964456EBA17C","0198be91-452d-77c6-9faf-15a126313f18","0198be8b-78cf-72d2-ba2b-1e62c78022e0","{""num_scrambled_semantic"":""8"",""num_scrambled_causal"":""4"",""num_scrambled_schematic"":""4"",""participantId"":""0A5A94AF3B684EA295C8964456EBA17C"",""assignmentId"":""0198be91-452d-77c6-9faf-15a126313f18"",""projectId"":""0198be8b-78cf-72d2-ba2b-1e62c78022e0""}","https://test12345.live/?num_scrambled_semantic=8&num_scrambled_causal=4&num_scrambled_schematic=4&participantId=0A5A94AF3B684EA295C8964456EBA17C&assignmentId=0198be91-452d-77c6-9faf-15a126313f18&projectId=0198be8b-78cf-72d2-ba2b-1e62c78022e0","0A5A94AF3B684EA295C8964456EBA17C-2025-08-18-19-40-52","","null","","images/semantic_sequence/physical_activity_semantic/physical_activity_semantic_8.png","null","",""
"","","","","","image-button-response","85","744043","0.0-12.0-1.0-1.9","0A5A94AF3B684EA295C8964456EBA17C","0A5A94AF3B684EA295C8964456EBA17C","0198be91-452d-77c6-9faf-15a126313f18","0198be8b-78cf-72d2-ba2b-1e62c78022e0","{""num_scrambled_semantic"":""8"",""num_scrambled_causal"":""4"",""num_scrambled_schematic"":""4"",""participantId"":""0A5A94AF3B684EA295C8964456EBA17C"",""assignmentId"":""0198be91-452d-77c6-9faf-15a126313f18"",""projectId"":""0198be8b-78cf-72d2-ba2b-1e62c78022e0""}","https://test12345.live/?num_scrambled_semantic=8&num_scrambled_causal=4&num_scrambled_schematic=4&participantId=0A5A94AF3B684EA295C8964456EBA17C&assignmentId=0198be91-452d-77c6-9faf-15a126313f18&projectId=0198be8b-78cf-72d2-ba2b-1e62c78022e0","0A5A94AF3B684EA295C8964456EBA17C-2025-08-18-19-40-52","","1132","","images/semantic_sequence/physical_activity_semantic/physical_activity_semantic_8.png","0","",""
"","","","","","image-button-response","86","745857","0.0-12.0-1.0-2.9","0A5A94AF3B684EA295C8964456EBA17C","0A5A94AF3B684EA295C8964456EBA17C","0198be91-452d-77c6-9faf-15a126313f18","0198be8b-78cf-72d2-ba2b-1e62c78022e0","{""num_scrambled_semantic"":""8"",""num_scrambled_causal"":""4"",""num_scrambled_schematic"":""4"",""participantId"":""0A5A94AF3B684EA295C8964456EBA17C"",""assignmentId"":""0198be91-452d-77c6-9faf-15a126313f18"",""projectId"":""0198be8b-78cf-72d2-ba2b-1e62c78022e0""}","https://test12345.live/?num_scrambled_semantic=8&num_scrambled_causal=4&num_scrambled_schematic=4&participantId=0A5A94AF3B684EA295C8964456EBA17C&assignmentId=0198be91-452d-77c6-9faf-15a126313f18&projectId=0198be8b-78cf-72d2-ba2b-1e62c78022e0","0A5A94AF3B684EA295C8964456EBA17C-2025-08-18-19-40-52","","null","","[]","null","",""
"","","","","","html-audio-response","87","768883","0.0-13.0","0A5A94AF3B684EA295C8964456EBA17C","0A5A94AF3B684EA295C8964456EBA17C","0198be91-452d-77c6-9faf-15a126313f18","0198be8b-78cf-72d2-ba2b-1e62c78022e0","{""num_scrambled_semantic"":""8"",""num_scrambled_causal"":""4"",""num_scrambled_schematic"":""4"",""participantId"":""0A5A94AF3B684EA295C8964456EBA17C"",""assignmentId"":""0198be91-452d-77c6-9faf-15a126313f18"",""projectId"":""0198be8b-78cf-72d2-ba2b-1e62c78022e0""}","https://test12345.live/?num_scrambled_semantic=8&num_scrambled_causal=4&num_scrambled_schematic=4&participantId=0A5A94AF3B684EA295C8964456EBA17C&assignmentId=0198be91-452d-77c6-9faf-15a126313f18&projectId=0198be8b-78cf-72d2-ba2b-1e62c78022e0","0A5A94AF3B684EA295C8964456EBA17C-2025-08-18-19-40-52","","13901","","[""<span style=\""color: red; font-size: 24px\""> NOW RECORDING</span><p>Please say out loud all the images you saw, in the order of the story they create. Try to recall the sequence of events as they appeared in the story, not necessarily the order they were presented on the screen.</p>""]","","1","physical_activity_semantic"
"","","","","","image-button-response","88","774894","0.0-14.0-0.0","0A5A94AF3B684EA295C8964456EBA17C","0A5A94AF3B684EA295C8964456EBA17C","0198be91-452d-77c6-9faf-15a126313f18","0198be8b-78cf-72d2-ba2b-1e62c78022e0","{""num_scrambled_semantic"":""8"",""num_scrambled_causal"":""4"",""num_scrambled_schematic"":""4"",""participantId"":""0A5A94AF3B684EA295C8964456EBA17C"",""assignmentId"":""0198be91-452d-77c6-9faf-15a126313f18"",""projectId"":""0198be8b-78cf-72d2-ba2b-1e62c78022e0""}","https://test12345.live/?num_scrambled_semantic=8&num_scrambled_causal=4&num_scrambled_schematic=4&participantId=0A5A94AF3B684EA295C8964456EBA17C&assignmentId=0198be91-452d-77c6-9faf-15a126313f18&projectId=0198be8b-78cf-72d2-ba2b-1e62c78022e0","0A5A94AF3B684EA295C8964456EBA17C-2025-08-18-19-40-52","","null","","images/causal_sequence/the_performance_causal/the_performance_causal_0.png","null","",""
"","","","","","image-button-response","89","779401","0.0-14.0-1.0-0.0","0A5A94AF3B684EA295C8964456EBA17C","0A5A94AF3B684EA295C8964456EBA17C","0198be91-452d-77c6-9faf-15a126313f18","0198be8b-78cf-72d2-ba2b-1e62c78022e0","{""num_scrambled_semantic"":""8"",""num_scrambled_causal"":""4"",""num_scrambled_schematic"":""4"",""participantId"":""0A5A94AF3B684EA295C8964456EBA17C"",""assignmentId"":""0198be91-452d-77c6-9faf-15a126313f18"",""projectId"":""0198be8b-78cf-72d2-ba2b-1e62c78022e0""}","https://test12345.live/?num_scrambled_semantic=8&num_scrambled_causal=4&num_scrambled_schematic=4&participantId=0A5A94AF3B684EA295C8964456EBA17C&assignmentId=0198be91-452d-77c6-9faf-15a126313f18&projectId=0198be8b-78cf-72d2-ba2b-1e62c78022e0","0A5A94AF3B684EA295C8964456EBA17C-2025-08-18-19-40-52","","null","","images/causal_sequence/the_performance_causal/the_performance_causal_8.png","null","",""
"","","","","","image-button-response","90","781532","0.0-14.0-1.0-1.0","0A5A94AF3B684EA295C8964456EBA17C","0A5A94AF3B684EA295C8964456EBA17C","0198be91-452d-77c6-9faf-15a126313f18","0198be8b-78cf-72d2-ba2b-1e62c78022e0","{""num_scrambled_semantic"":""8"",""num_scrambled_causal"":""4"",""num_scrambled_schematic"":""4"",""participantId"":""0A5A94AF3B684EA295C8964456EBA17C"",""assignmentId"":""0198be91-452d-77c6-9faf-15a126313f18"",""projectId"":""0198be8b-78cf-72d2-ba2b-1e62c78022e0""}","https://test12345.live/?num_scrambled_semantic=8&num_scrambled_causal=4&num_scrambled_schematic=4&participantId=0A5A94AF3B684EA295C8964456EBA17C&assignmentId=0198be91-452d-77c6-9faf-15a126313f18&projectId=0198be8b-78cf-72d2-ba2b-1e62c78022e0","0A5A94AF3B684EA295C8964456EBA17C-2025-08-18-19-40-52","","2130","","images/causal_sequence/the_performance_causal/the_performance_causal_8.png","0","",""
"","","","","","image-button-response","91","783346","0.0-14.0-1.0-2.0","0A5A94AF3B684EA295C8964456EBA17C","0A5A94AF3B684EA295C8964456EBA17C","0198be91-452d-77c6-9faf-15a126313f18","0198be8b-78cf-72d2-ba2b-1e62c78022e0","{""num_scrambled_semantic"":""8"",""num_scrambled_causal"":""4"",""num_scrambled_schematic"":""4"",""participantId"":""0A5A94AF3B684EA295C8964456EBA17C"",""assignmentId"":""0198be91-452d-77c6-9faf-15a126313f18"",""projectId"":""0198be8b-78cf-72d2-ba2b-1e62c78022e0""}","https://test12345.live/?num_scrambled_semantic=8&num_scrambled_causal=4&num_scrambled_schematic=4&participantId=0A5A94AF3B684EA295C8964456EBA17C&assignmentId=0198be91-452d-77c6-9faf-15a126313f18&projectId=0198be8b-78cf-72d2-ba2b-1e62c78022e0","0A5A94AF3B684EA295C8964456EBA17C-2025-08-18-19-40-52","","null","","[]","null","",""
"","","","","","image-button-response","92","787860","0.0-14.0-1.0-0.1","0A5A94AF3B684EA295C8964456EBA17C","0A5A94AF3B684EA295C8964456EBA17C","0198be91-452d-77c6-9faf-15a126313f18","0198be8b-78cf-72d2-ba2b-1e62c78022e0","{""num_scrambled_semantic"":""8"",""num_scrambled_causal"":""4"",""num_scrambled_schematic"":""4"",""participantId"":""0A5A94AF3B684EA295C8964456EBA17C"",""assignmentId"":""0198be91-452d-77c6-9faf-15a126313f18"",""projectId"":""0198be8b-78cf-72d2-ba2b-1e62c78022e0""}","https://test12345.live/?num_scrambled_semantic=8&num_scrambled_causal=4&num_scrambled_schematic=4&participantId=0A5A94AF3B684EA295C8964456EBA17C&assignmentId=0198be91-452d-77c6-9faf-15a126313f18&projectId=0198be8b-78cf-72d2-ba2b-1e62c78022e0","0A5A94AF3B684EA295C8964456EBA17C-2025-08-18-19-40-52","","null","","images/causal_sequence/the_performance_causal/the_performance_causal_9.png","null","",""
"","","","","","image-button-response","93","790013","0.0-14.0-1.0-1.1","0A5A94AF3B684EA295C8964456EBA17C","0A5A94AF3B684EA295C8964456EBA17C","0198be91-452d-77c6-9faf-15a126313f18","0198be8b-78cf-72d2-ba2b-1e62c78022e0","{""num_scrambled_semantic"":""8"",""num_scrambled_causal"":""4"",""num_scrambled_schematic"":""4"",""participantId"":""0A5A94AF3B684EA295C8964456EBA17C"",""assignmentId"":""0198be91-452d-77c6-9faf-15a126313f18"",""projectId"":""0198be8b-78cf-72d2-ba2b-1e62c78022e0""}","https://test12345.live/?num_scrambled_semantic=8&num_scrambled_causal=4&num_scrambled_schematic=4&participantId=0A5A94AF3B684EA295C8964456EBA17C&assignmentId=0198be91-452d-77c6-9faf-15a126313f18&projectId=0198be8b-78cf-72d2-ba2b-1e62c78022e0","0A5A94AF3B684EA295C8964456EBA17C-2025-08-18-19-40-52","","2152","","images/causal_sequence/the_performance_causal/the_performance_causal_9.png","0","",""
"","","","","","image-button-response","94","791819","0.0-14.0-1.0-2.1","0A5A94AF3B684EA295C8964456EBA17C","0A5A94AF3B684EA295C8964456EBA17C","0198be91-452d-77c6-9faf-15a126313f18","0198be8b-78cf-72d2-ba2b-1e62c78022e0","{""num_scrambled_semantic"":""8"",""num_scrambled_causal"":""4"",""num_scrambled_schematic"":""4"",""participantId"":""0A5A94AF3B684EA295C8964456EBA17C"",""assignmentId"":""0198be91-452d-77c6-9faf-15a126313f18"",""projectId"":""0198be8b-78cf-72d2-ba2b-1e62c78022e0""}","https://test12345.live/?num_scrambled_semantic=8&num_scrambled_causal=4&num_scrambled_schematic=4&participantId=0A5A94AF3B684EA295C8964456EBA17C&assignmentId=0198be91-452d-77c6-9faf-15a126313f18&projectId=0198be8b-78cf-72d2-ba2b-1e62c78022e0","0A5A94AF3B684EA295C8964456EBA17C-2025-08-18-19-40-52","","null","","[]","null","",""
"","","","","","image-button-response","95","796321","0.0-14.0-1.0-0.2","0A5A94AF3B684EA295C8964456EBA17C","0A5A94AF3B684EA295C8964456EBA17C","0198be91-452d-77c6-9faf-15a126313f18","0198be8b-78cf-72d2-ba2b-1e62c78022e0","{""num_scrambled_semantic"":""8"",""num_scrambled_causal"":""4"",""num_scrambled_schematic"":""4"",""participantId"":""0A5A94AF3B684EA295C8964456EBA17C"",""assignmentId"":""0198be91-452d-77c6-9faf-15a126313f18"",""projectId"":""0198be8b-78cf-72d2-ba2b-1e62c78022e0""}","https://test12345.live/?num_scrambled_semantic=8&num_scrambled_causal=4&num_scrambled_schematic=4&participantId=0A5A94AF3B684EA295C8964456EBA17C&assignmentId=0198be91-452d-77c6-9faf-15a126313f18&projectId=0198be8b-78cf-72d2-ba2b-1e62c78022e0","0A5A94AF3B684EA295C8964456EBA17C-2025-08-18-19-40-52","","null","","images/causal_sequence/the_performance_causal/the_performance_causal_7.png","null","",""
"","","","","","image-button-response","96","797877","0.0-14.0-1.0-1.2","0A5A94AF3B684EA295C8964456EBA17C","0A5A94AF3B684EA295C8964456EBA17C","0198be91-452d-77c6-9faf-15a126313f18","0198be8b-78cf-72d2-ba2b-1e62c78022e0","{""num_scrambled_semantic"":""8"",""num_scrambled_causal"":""4"",""num_scrambled_schematic"":""4"",""participantId"":""0A5A94AF3B684EA295C8964456EBA17C"",""assignmentId"":""0198be91-452d-77c6-9faf-15a126313f18"",""projectId"":""0198be8b-78cf-72d2-ba2b-1e62c78022e0""}","https://test12345.live/?num_scrambled_semantic=8&num_scrambled_causal=4&num_scrambled_schematic=4&participantId=0A5A94AF3B684EA295C8964456EBA17C&assignmentId=0198be91-452d-77c6-9faf-15a126313f18&projectId=0198be8b-78cf-72d2-ba2b-1e62c78022e0","0A5A94AF3B684EA295C8964456EBA17C-2025-08-18-19-40-52","","1555","","images/causal_sequence/the_performance_causal/the_performance_causal_7.png","0","",""
"","","","","","image-button-response","97","799678","0.0-14.0-1.0-2.2","0A5A94AF3B684EA295C8964456EBA17C","0A5A94AF3B684EA295C8964456EBA17C","0198be91-452d-77c6-9faf-15a126313f18","0198be8b-78cf-72d2-ba2b-1e62c78022e0","{""num_scrambled_semantic"":""8"",""num_scrambled_causal"":""4"",""num_scrambled_schematic"":""4"",""participantId"":""0A5A94AF3B684EA295C8964456EBA17C"",""assignmentId"":""0198be91-452d-77c6-9faf-15a126313f18"",""projectId"":""0198be8b-78cf-72d2-ba2b-1e62c78022e0""}","https://test12345.live/?num_scrambled_semantic=8&num_scrambled_causal=4&num_scrambled_schematic=4&participantId=0A5A94AF3B684EA295C8964456EBA17C&assignmentId=0198be91-452d-77c6-9faf-15a126313f18&projectId=0198be8b-78cf-72d2-ba2b-1e62c78022e0","0A5A94AF3B684EA295C8964456EBA17C-2025-08-18-19-40-52","","null","","[]","null","",""
"","","","","","image-button-response","98","804181","0.0-14.0-1.0-0.3","0A5A94AF3B684EA295C8964456EBA17C","0A5A94AF3B684EA295C8964456EBA17C","0198be91-452d-77c6-9faf-15a126313f18","0198be8b-78cf-72d2-ba2b-1e62c78022e0","{""num_scrambled_semantic"":""8"",""num_scrambled_causal"":""4"",""num_scrambled_schematic"":""4"",""participantId"":""0A5A94AF3B684EA295C8964456EBA17C"",""assignmentId"":""0198be91-452d-77c6-9faf-15a126313f18"",""projectId"":""0198be8b-78cf-72d2-ba2b-1e62c78022e0""}","https://test12345.live/?num_scrambled_semantic=8&num_scrambled_causal=4&num_scrambled_schematic=4&participantId=0A5A94AF3B684EA295C8964456EBA17C&assignmentId=0198be91-452d-77c6-9faf-15a126313f18&projectId=0198be8b-78cf-72d2-ba2b-1e62c78022e0","0A5A94AF3B684EA295C8964456EBA17C-2025-08-18-19-40-52","","null","","images/causal_sequence/the_performance_causal/the_performance_causal_ten.png","null","",""
"","","","","","image-button-response","99","805992","0.0-14.0-1.0-1.3","0A5A94AF3B684EA295C8964456EBA17C","0A5A94AF3B684EA295C8964456EBA17C","0198be91-452d-77c6-9faf-15a126313f18","0198be8b-78cf-72d2-ba2b-1e62c78022e0","{""num_scrambled_semantic"":""8"",""num_scrambled_causal"":""4"",""num_scrambled_schematic"":""4"",""participantId"":""0A5A94AF3B684EA295C8964456EBA17C"",""assignmentId"":""0198be91-452d-77c6-9faf-15a126313f18"",""projectId"":""0198be8b-78cf-72d2-ba2b-1e62c78022e0""}","https://test12345.live/?num_scrambled_semantic=8&num_scrambled_causal=4&num_scrambled_schematic=4&participantId=0A5A94AF3B684EA295C8964456EBA17C&assignmentId=0198be91-452d-77c6-9faf-15a126313f18&projectId=0198be8b-78cf-72d2-ba2b-1e62c78022e0","0A5A94AF3B684EA295C8964456EBA17C-2025-08-18-19-40-52","","1809","","images/causal_sequence/the_performance_causal/the_performance_causal_ten.png","0","",""
"","","","","","image-button-response","100","807804","0.0-14.0-1.0-2.3","0A5A94AF3B684EA295C8964456EBA17C","0A5A94AF3B684EA295C8964456EBA17C","0198be91-452d-77c6-9faf-15a126313f18","0198be8b-78cf-72d2-ba2b-1e62c78022e0","{""num_scrambled_semantic"":""8"",""num_scrambled_causal"":""4"",""num_scrambled_schematic"":""4"",""participantId"":""0A5A94AF3B684EA295C8964456EBA17C"",""assignmentId"":""0198be91-452d-77c6-9faf-15a126313f18"",""projectId"":""0198be8b-78cf-72d2-ba2b-1e62c78022e0""}","https://test12345.live/?num_scrambled_semantic=8&num_scrambled_causal=4&num_scrambled_schematic=4&participantId=0A5A94AF3B684EA295C8964456EBA17C&assignmentId=0198be91-452d-77c6-9faf-15a126313f18&projectId=0198be8b-78cf-72d2-ba2b-1e62c78022e0","0A5A94AF3B684EA295C8964456EBA17C-2025-08-18-19-40-52","","null","","[]","null","",""
"","","","","","image-button-response","101","812308","0.0-14.0-1.0-0.4","0A5A94AF3B684EA295C8964456EBA17C","0A5A94AF3B684EA295C8964456EBA17C","0198be91-452d-77c6-9faf-15a126313f18","0198be8b-78cf-72d2-ba2b-1e62c78022e0","{""num_scrambled_semantic"":""8"",""num_scrambled_causal"":""4"",""num_scrambled_schematic"":""4"",""participantId"":""0A5A94AF3B684EA295C8964456EBA17C"",""assignmentId"":""0198be91-452d-77c6-9faf-15a126313f18"",""projectId"":""0198be8b-78cf-72d2-ba2b-1e62c78022e0""}","https://test12345.live/?num_scrambled_semantic=8&num_scrambled_causal=4&num_scrambled_schematic=4&participantId=0A5A94AF3B684EA295C8964456EBA17C&assignmentId=0198be91-452d-77c6-9faf-15a126313f18&projectId=0198be8b-78cf-72d2-ba2b-1e62c78022e0","0A5A94AF3B684EA295C8964456EBA17C-2025-08-18-19-40-52","","null","","images/causal_sequence/the_performance_causal/the_performance_causal_3.png","null","",""
"","","","","","image-button-response","102","815716","0.0-14.0-1.0-1.4","0A5A94AF3B684EA295C8964456EBA17C","0A5A94AF3B684EA295C8964456EBA17C","0198be91-452d-77c6-9faf-15a126313f18","0198be8b-78cf-72d2-ba2b-1e62c78022e0","{""num_scrambled_semantic"":""8"",""num_scrambled_causal"":""4"",""num_scrambled_schematic"":""4"",""participantId"":""0A5A94AF3B684EA295C8964456EBA17C"",""assignmentId"":""0198be91-452d-77c6-9faf-15a126313f18"",""projectId"":""0198be8b-78cf-72d2-ba2b-1e62c78022e0""}","https://test12345.live/?num_scrambled_semantic=8&num_scrambled_causal=4&num_scrambled_schematic=4&participantId=0A5A94AF3B684EA295C8964456EBA17C&assignmentId=0198be91-452d-77c6-9faf-15a126313f18&projectId=0198be8b-78cf-72d2-ba2b-1e62c78022e0","0A5A94AF3B684EA295C8964456EBA17C-2025-08-18-19-40-52","","3407","","images/causal_sequence/the_performance_causal/the_performance_causal_3.png","0","",""
"","","","","","image-button-response","103","817521","0.0-14.0-1.0-2.4","0A5A94AF3B684EA295C8964456EBA17C","0A5A94AF3B684EA295C8964456EBA17C","0198be91-452d-77c6-9faf-15a126313f18","0198be8b-78cf-72d2-ba2b-1e62c78022e0","{""num_scrambled_semantic"":""8"",""num_scrambled_causal"":""4"",""num_scrambled_schematic"":""4"",""participantId"":""0A5A94AF3B684EA295C8964456EBA17C"",""assignmentId"":""0198be91-452d-77c6-9faf-15a126313f18"",""projectId"":""0198be8b-78cf-72d2-ba2b-1e62c78022e0""}","https://test12345.live/?num_scrambled_semantic=8&num_scrambled_causal=4&num_scrambled_schematic=4&participantId=0A5A94AF3B684EA295C8964456EBA17C&assignmentId=0198be91-452d-77c6-9faf-15a126313f18&projectId=0198be8b-78cf-72d2-ba2b-1e62c78022e0","0A5A94AF3B684EA295C8964456EBA17C-2025-08-18-19-40-52","","null","","[]","null","",""
"","","","","","image-button-response","104","822022","0.0-14.0-1.0-0.5","0A5A94AF3B684EA295C8964456EBA17C","0A5A94AF3B684EA295C8964456EBA17C","0198be91-452d-77c6-9faf-15a126313f18","0198be8b-78cf-72d2-ba2b-1e62c78022e0","{""num_scrambled_semantic"":""8"",""num_scrambled_causal"":""4"",""num_scrambled_schematic"":""4"",""participantId"":""0A5A94AF3B684EA295C8964456EBA17C"",""assignmentId"":""0198be91-452d-77c6-9faf-15a126313f18"",""projectId"":""0198be8b-78cf-72d2-ba2b-1e62c78022e0""}","https://test12345.live/?num_scrambled_semantic=8&num_scrambled_causal=4&num_scrambled_schematic=4&participantId=0A5A94AF3B684EA295C8964456EBA17C&assignmentId=0198be91-452d-77c6-9faf-15a126313f18&projectId=0198be8b-78cf-72d2-ba2b-1e62c78022e0","0A5A94AF3B684EA295C8964456EBA17C-2025-08-18-19-40-52","","null","","images/causal_sequence/the_performance_causal/the_performance_causal_4.png","null","",""
"","","","","","image-button-response","105","822851","0.0-14.0-1.0-1.5","0A5A94AF3B684EA295C8964456EBA17C","0A5A94AF3B684EA295C8964456EBA17C","0198be91-452d-77c6-9faf-15a126313f18","0198be8b-78cf-72d2-ba2b-1e62c78022e0","{""num_scrambled_semantic"":""8"",""num_scrambled_causal"":""4"",""num_scrambled_schematic"":""4"",""participantId"":""0A5A94AF3B684EA295C8964456EBA17C"",""assignmentId"":""0198be91-452d-77c6-9faf-15a126313f18"",""projectId"":""0198be8b-78cf-72d2-ba2b-1e62c78022e0""}","https://test12345.live/?num_scrambled_semantic=8&num_scrambled_causal=4&num_scrambled_schematic=4&participantId=0A5A94AF3B684EA295C8964456EBA17C&assignmentId=0198be91-452d-77c6-9faf-15a126313f18&projectId=0198be8b-78cf-72d2-ba2b-1e62c78022e0","0A5A94AF3B684EA295C8964456EBA17C-2025-08-18-19-40-52","","828","","images/causal_sequence/the_performance_causal/the_performance_causal_4.png","0","",""
"","","","","","image-button-response","106","824659","0.0-14.0-1.0-2.5","0A5A94AF3B684EA295C8964456EBA17C","0A5A94AF3B684EA295C8964456EBA17C","0198be91-452d-77c6-9faf-15a126313f18","0198be8b-78cf-72d2-ba2b-1e62c78022e0","{""num_scrambled_semantic"":""8"",""num_scrambled_causal"":""4"",""num_scrambled_schematic"":""4"",""participantId"":""0A5A94AF3B684EA295C8964456EBA17C"",""assignmentId"":""0198be91-452d-77c6-9faf-15a126313f18"",""projectId"":""0198be8b-78cf-72d2-ba2b-1e62c78022e0""}","https://test12345.live/?num_scrambled_semantic=8&num_scrambled_causal=4&num_scrambled_schematic=4&participantId=0A5A94AF3B684EA295C8964456EBA17C&assignmentId=0198be91-452d-77c6-9faf-15a126313f18&projectId=0198be8b-78cf-72d2-ba2b-1e62c78022e0","0A5A94AF3B684EA295C8964456EBA17C-2025-08-18-19-40-52","","null","","[]","null","",""
"","","","","","image-button-response","107","829161","0.0-14.0-1.0-0.6","0A5A94AF3B684EA295C8964456EBA17C","0A5A94AF3B684EA295C8964456EBA17C","0198be91-452d-77c6-9faf-15a126313f18","0198be8b-78cf-72d2-ba2b-1e62c78022e0","{""num_scrambled_semantic"":""8"",""num_scrambled_causal"":""4"",""num_scrambled_schematic"":""4"",""participantId"":""0A5A94AF3B684EA295C8964456EBA17C"",""assignmentId"":""0198be91-452d-77c6-9faf-15a126313f18"",""projectId"":""0198be8b-78cf-72d2-ba2b-1e62c78022e0""}","https://test12345.live/?num_scrambled_semantic=8&num_scrambled_causal=4&num_scrambled_schematic=4&participantId=0A5A94AF3B684EA295C8964456EBA17C&assignmentId=0198be91-452d-77c6-9faf-15a126313f18&projectId=0198be8b-78cf-72d2-ba2b-1e62c78022e0","0A5A94AF3B684EA295C8964456EBA17C-2025-08-18-19-40-52","","null","","images/causal_sequence/the_performance_causal/the_performance_causal_5.png","null","",""
"","","","","","image-button-response","108","831305","0.0-14.0-1.0-1.6","0A5A94AF3B684EA295C8964456EBA17C","0A5A94AF3B684EA295C8964456EBA17C","0198be91-452d-77c6-9faf-15a126313f18","0198be8b-78cf-72d2-ba2b-1e62c78022e0","{""num_scrambled_semantic"":""8"",""num_scrambled_causal"":""4"",""num_scrambled_schematic"":""4"",""participantId"":""0A5A94AF3B684EA295C8964456EBA17C"",""assignmentId"":""0198be91-452d-77c6-9faf-15a126313f18"",""projectId"":""0198be8b-78cf-72d2-ba2b-1e62c78022e0""}","https://test12345.live/?num_scrambled_semantic=8&num_scrambled_causal=4&num_scrambled_schematic=4&participantId=0A5A94AF3B684EA295C8964456EBA17C&assignmentId=0198be91-452d-77c6-9faf-15a126313f18&projectId=0198be8b-78cf-72d2-ba2b-1e62c78022e0","0A5A94AF3B684EA295C8964456EBA17C-2025-08-18-19-40-52","","2144","","images/causal_sequence/the_performance_causal/the_performance_causal_5.png","0","",""
"","","","","","image-button-response","109","833115","0.0-14.0-1.0-2.6","0A5A94AF3B684EA295C8964456EBA17C","0A5A94AF3B684EA295C8964456EBA17C","0198be91-452d-77c6-9faf-15a126313f18","0198be8b-78cf-72d2-ba2b-1e62c78022e0","{""num_scrambled_semantic"":""8"",""num_scrambled_causal"":""4"",""num_scrambled_schematic"":""4"",""participantId"":""0A5A94AF3B684EA295C8964456EBA17C"",""assignmentId"":""0198be91-452d-77c6-9faf-15a126313f18"",""projectId"":""0198be8b-78cf-72d2-ba2b-1e62c78022e0""}","https://test12345.live/?num_scrambled_semantic=8&num_scrambled_causal=4&num_scrambled_schematic=4&participantId=0A5A94AF3B684EA295C8964456EBA17C&assignmentId=0198be91-452d-77c6-9faf-15a126313f18&projectId=0198be8b-78cf-72d2-ba2b-1e62c78022e0","0A5A94AF3B684EA295C8964456EBA17C-2025-08-18-19-40-52","","null","","[]","null","",""
"","","","","","image-button-response","110","837620","0.0-14.0-1.0-0.7","0A5A94AF3B684EA295C8964456EBA17C","0A5A94AF3B684EA295C8964456EBA17C","0198be91-452d-77c6-9faf-15a126313f18","0198be8b-78cf-72d2-ba2b-1e62c78022e0","{""num_scrambled_semantic"":""8"",""num_scrambled_causal"":""4"",""num_scrambled_schematic"":""4"",""participantId"":""0A5A94AF3B684EA295C8964456EBA17C"",""assignmentId"":""0198be91-452d-77c6-9faf-15a126313f18"",""projectId"":""0198be8b-78cf-72d2-ba2b-1e62c78022e0""}","https://test12345.live/?num_scrambled_semantic=8&num_scrambled_causal=4&num_scrambled_schematic=4&participantId=0A5A94AF3B684EA295C8964456EBA17C&assignmentId=0198be91-452d-77c6-9faf-15a126313f18&projectId=0198be8b-78cf-72d2-ba2b-1e62c78022e0","0A5A94AF3B684EA295C8964456EBA17C-2025-08-18-19-40-52","","null","","images/causal_sequence/the_performance_causal/the_performance_causal_6.png","null","",""
"","","","","","image-button-response","111","839768","0.0-14.0-1.0-1.7","0A5A94AF3B684EA295C8964456EBA17C","0A5A94AF3B684EA295C8964456EBA17C","0198be91-452d-77c6-9faf-15a126313f18","0198be8b-78cf-72d2-ba2b-1e62c78022e0","{""num_scrambled_semantic"":""8"",""num_scrambled_causal"":""4"",""num_scrambled_schematic"":""4"",""participantId"":""0A5A94AF3B684EA295C8964456EBA17C"",""assignmentId"":""0198be91-452d-77c6-9faf-15a126313f18"",""projectId"":""0198be8b-78cf-72d2-ba2b-1e62c78022e0""}","https://test12345.live/?num_scrambled_semantic=8&num_scrambled_causal=4&num_scrambled_schematic=4&participantId=0A5A94AF3B684EA295C8964456EBA17C&assignmentId=0198be91-452d-77c6-9faf-15a126313f18&projectId=0198be8b-78cf-72d2-ba2b-1e62c78022e0","0A5A94AF3B684EA295C8964456EBA17C-2025-08-18-19-40-52","","2147","","images/causal_sequence/the_performance_causal/the_performance_causal_6.png","0","",""
"","","","","","image-button-response","112","841577","0.0-14.0-1.0-2.7","0A5A94AF3B684EA295C8964456EBA17C","0A5A94AF3B684EA295C8964456EBA17C","0198be91-452d-77c6-9faf-15a126313f18","0198be8b-78cf-72d2-ba2b-1e62c78022e0","{""num_scrambled_semantic"":""8"",""num_scrambled_causal"":""4"",""num_scrambled_schematic"":""4"",""participantId"":""0A5A94AF3B684EA295C8964456EBA17C"",""assignmentId"":""0198be91-452d-77c6-9faf-15a126313f18"",""projectId"":""0198be8b-78cf-72d2-ba2b-1e62c78022e0""}","https://test12345.live/?num_scrambled_semantic=8&num_scrambled_causal=4&num_scrambled_schematic=4&participantId=0A5A94AF3B684EA295C8964456EBA17C&assignmentId=0198be91-452d-77c6-9faf-15a126313f18&projectId=0198be8b-78cf-72d2-ba2b-1e62c78022e0","0A5A94AF3B684EA295C8964456EBA17C-2025-08-18-19-40-52","","null","","[]","null","",""
"","","","","","image-button-response","113","846093","0.0-14.0-1.0-0.8","0A5A94AF3B684EA295C8964456EBA17C","0A5A94AF3B684EA295C8964456EBA17C","0198be91-452d-77c6-9faf-15a126313f18","0198be8b-78cf-72d2-ba2b-1e62c78022e0","{""num_scrambled_semantic"":""8"",""num_scrambled_causal"":""4"",""num_scrambled_schematic"":""4"",""participantId"":""0A5A94AF3B684EA295C8964456EBA17C"",""assignmentId"":""0198be91-452d-77c6-9faf-15a126313f18"",""projectId"":""0198be8b-78cf-72d2-ba2b-1e62c78022e0""}","https://test12345.live/?num_scrambled_semantic=8&num_scrambled_causal=4&num_scrambled_schematic=4&participantId=0A5A94AF3B684EA295C8964456EBA17C&assignmentId=0198be91-452d-77c6-9faf-15a126313f18&projectId=0198be8b-78cf-72d2-ba2b-1e62c78022e0","0A5A94AF3B684EA295C8964456EBA17C-2025-08-18-19-40-52","","null","","images/causal_sequence/the_performance_causal/the_performance_causal_1.png","null","",""
