"success","timeout","failed_images","failed_audio","failed_video","trial_type","trial_index","time_elapsed","internal_node_id","subject","subject_id","study_id","session_id","urlvar","current_url","audio_id","view_history","rt","device_id","stimulus","response","estimated_stimulus_onset","seq_name"
"true","false","[]","[]","[]","preload","0","12822","0.0-0.0","0B40E708E84D44ED847F0DF4AB406A30","0B40E708E84D44ED847F0DF4AB406A30","9ab11ea7-1879-4b9f-bb0f-8b716a6eae94","a0a8f18c-a66e-4ba7-a170-23efbdc67501","{""participantId"":""0B40E708E84D44ED847F0DF4AB406A30"",""assignmentId"":""9ab11ea7-1879-4b9f-bb0f-8b716a6eae94"",""projectId"":""a0a8f18c-a66e-4ba7-a170-23efbdc67501""}","https://test12345.live/?participantId=0B40E708E84D44ED847F0DF4AB406A30&assignmentId=9ab11ea7-1879-4b9f-bb0f-8b716a6eae94&projectId=a0a8f18c-a66e-4ba7-a170-23efbdc67501","0B40E708E84D44ED847F0DF4AB406A30-2024-11-24-19-47-34","","","","","","",""
"","","","","","instructions","1","28388","0.0-1.0","0B40E708E84D44ED847F0DF4AB406A30","0B40E708E84D44ED847F0DF4AB406A30","9ab11ea7-1879-4b9f-bb0f-8b716a6eae94","a0a8f18c-a66e-4ba7-a170-23efbdc67501","{""participantId"":""0B40E708E84D44ED847F0DF4AB406A30"",""assignmentId"":""9ab11ea7-1879-4b9f-bb0f-8b716a6eae94"",""projectId"":""a0a8f18c-a66e-4ba7-a170-23efbdc67501""}","https://test12345.live/?participantId=0B40E708E84D44ED847F0DF4AB406A30&assignmentId=9ab11ea7-1879-4b9f-bb0f-8b716a6eae94&projectId=a0a8f18c-a66e-4ba7-a170-23efbdc67501","0B40E708E84D44ED847F0DF4AB406A30-2024-11-24-19-47-34","[{""page_index"":0,""viewing_time"":15483}]","15483","","","","",""
"","","","","","instructions","2","33477","0.0-2.0","0B40E708E84D44ED847F0DF4AB406A30","0B40E708E84D44ED847F0DF4AB406A30","9ab11ea7-1879-4b9f-bb0f-8b716a6eae94","a0a8f18c-a66e-4ba7-a170-23efbdc67501","{""participantId"":""0B40E708E84D44ED847F0DF4AB406A30"",""assignmentId"":""9ab11ea7-1879-4b9f-bb0f-8b716a6eae94"",""projectId"":""a0a8f18c-a66e-4ba7-a170-23efbdc67501""}","https://test12345.live/?participantId=0B40E708E84D44ED847F0DF4AB406A30&assignmentId=9ab11ea7-1879-4b9f-bb0f-8b716a6eae94&projectId=a0a8f18c-a66e-4ba7-a170-23efbdc67501","0B40E708E84D44ED847F0DF4AB406A30-2024-11-24-19-47-34","[{""page_index"":0,""viewing_time"":5087}]","5087","","","","",""
"true","","","","","fullscreen","3","36105","0.0-3.0","0B40E708E84D44ED847F0DF4AB406A30","0B40E708E84D44ED847F0DF4AB406A30","9ab11ea7-1879-4b9f-bb0f-8b716a6eae94","a0a8f18c-a66e-4ba7-a170-23efbdc67501","{""participantId"":""0B40E708E84D44ED847F0DF4AB406A30"",""assignmentId"":""9ab11ea7-1879-4b9f-bb0f-8b716a6eae94"",""projectId"":""a0a8f18c-a66e-4ba7-a170-23efbdc67501""}","https://test12345.live/?participantId=0B40E708E84D44ED847F0DF4AB406A30&assignmentId=9ab11ea7-1879-4b9f-bb0f-8b716a6eae94&projectId=a0a8f18c-a66e-4ba7-a170-23efbdc67501","0B40E708E84D44ED847F0DF4AB406A30-2024-11-24-19-47-34","","1621","","","","",""
"","","","","","initialize-microphone","4","43639","0.0-4.0-0.0","0B40E708E84D44ED847F0DF4AB406A30","0B40E708E84D44ED847F0DF4AB406A30","9ab11ea7-1879-4b9f-bb0f-8b716a6eae94","a0a8f18c-a66e-4ba7-a170-23efbdc67501","{""participantId"":""0B40E708E84D44ED847F0DF4AB406A30"",""assignmentId"":""9ab11ea7-1879-4b9f-bb0f-8b716a6eae94"",""projectId"":""a0a8f18c-a66e-4ba7-a170-23efbdc67501""}","https://test12345.live/?participantId=0B40E708E84D44ED847F0DF4AB406A30&assignmentId=9ab11ea7-1879-4b9f-bb0f-8b716a6eae94&projectId=a0a8f18c-a66e-4ba7-a170-23efbdc67501","0B40E708E84D44ED847F0DF4AB406A30-2024-11-24-19-47-34","","","629E90ABDB7B9578BB264109AABEBE1D0E10E0CF","","","",""
"","","","","","html-audio-response","5","53349","0.0-4.0-1.0","0B40E708E84D44ED847F0DF4AB406A30","0B40E708E84D44ED847F0DF4AB406A30","9ab11ea7-1879-4b9f-bb0f-8b716a6eae94","a0a8f18c-a66e-4ba7-a170-23efbdc67501","{""participantId"":""0B40E708E84D44ED847F0DF4AB406A30"",""assignmentId"":""9ab11ea7-1879-4b9f-bb0f-8b716a6eae94"",""projectId"":""a0a8f18c-a66e-4ba7-a170-23efbdc67501""}","https://test12345.live/?participantId=0B40E708E84D44ED847F0DF4AB406A30&assignmentId=9ab11ea7-1879-4b9f-bb0f-8b716a6eae94&projectId=a0a8f18c-a66e-4ba7-a170-23efbdc67501","0B40E708E84D44ED847F0DF4AB406A30-2024-11-24-19-47-34","","3744","","<span style=""color: red; font-size: 24px""> NOW RECORDING</span>
        <p>Please test Microphone</p>","","4",""
"","","","","","html-button-response","6","54864","0.0-4.0-2.0","0B40E708E84D44ED847F0DF4AB406A30","0B40E708E84D44ED847F0DF4AB406A30","9ab11ea7-1879-4b9f-bb0f-8b716a6eae94","a0a8f18c-a66e-4ba7-a170-23efbdc67501","{""participantId"":""0B40E708E84D44ED847F0DF4AB406A30"",""assignmentId"":""9ab11ea7-1879-4b9f-bb0f-8b716a6eae94"",""projectId"":""a0a8f18c-a66e-4ba7-a170-23efbdc67501""}","https://test12345.live/?participantId=0B40E708E84D44ED847F0DF4AB406A30&assignmentId=9ab11ea7-1879-4b9f-bb0f-8b716a6eae94&projectId=a0a8f18c-a66e-4ba7-a170-23efbdc67501","0B40E708E84D44ED847F0DF4AB406A30-2024-11-24-19-47-34","","1513","","<p style=""font-size:48px; color:red;"">Is Microphone OK?</p>","0","",""
"","","","","","initialize-microphone","7","59604","0.0-4.1-0.1","0B40E708E84D44ED847F0DF4AB406A30","0B40E708E84D44ED847F0DF4AB406A30","9ab11ea7-1879-4b9f-bb0f-8b716a6eae94","a0a8f18c-a66e-4ba7-a170-23efbdc67501","{""participantId"":""0B40E708E84D44ED847F0DF4AB406A30"",""assignmentId"":""9ab11ea7-1879-4b9f-bb0f-8b716a6eae94"",""projectId"":""a0a8f18c-a66e-4ba7-a170-23efbdc67501""}","https://test12345.live/?participantId=0B40E708E84D44ED847F0DF4AB406A30&assignmentId=9ab11ea7-1879-4b9f-bb0f-8b716a6eae94&projectId=a0a8f18c-a66e-4ba7-a170-23efbdc67501","0B40E708E84D44ED847F0DF4AB406A30-2024-11-24-19-47-34","","","629E90ABDB7B9578BB264109AABEBE1D0E10E0CF","","","",""
"","","","","","html-audio-response","8","66213","0.0-4.1-1.1","0B40E708E84D44ED847F0DF4AB406A30","0B40E708E84D44ED847F0DF4AB406A30","9ab11ea7-1879-4b9f-bb0f-8b716a6eae94","a0a8f18c-a66e-4ba7-a170-23efbdc67501","{""participantId"":""0B40E708E84D44ED847F0DF4AB406A30"",""assignmentId"":""9ab11ea7-1879-4b9f-bb0f-8b716a6eae94"",""projectId"":""a0a8f18c-a66e-4ba7-a170-23efbdc67501""}","https://test12345.live/?participantId=0B40E708E84D44ED847F0DF4AB406A30&assignmentId=9ab11ea7-1879-4b9f-bb0f-8b716a6eae94&projectId=a0a8f18c-a66e-4ba7-a170-23efbdc67501","0B40E708E84D44ED847F0DF4AB406A30-2024-11-24-19-47-34","","5712","","<span style=""color: red; font-size: 24px""> NOW RECORDING</span>
        <p>Please test Microphone</p>","","14",""
"","","","","","html-button-response","9","67389","0.0-4.1-2.1","0B40E708E84D44ED847F0DF4AB406A30","0B40E708E84D44ED847F0DF4AB406A30","9ab11ea7-1879-4b9f-bb0f-8b716a6eae94","a0a8f18c-a66e-4ba7-a170-23efbdc67501","{""participantId"":""0B40E708E84D44ED847F0DF4AB406A30"",""assignmentId"":""9ab11ea7-1879-4b9f-bb0f-8b716a6eae94"",""projectId"":""a0a8f18c-a66e-4ba7-a170-23efbdc67501""}","https://test12345.live/?participantId=0B40E708E84D44ED847F0DF4AB406A30&assignmentId=9ab11ea7-1879-4b9f-bb0f-8b716a6eae94&projectId=a0a8f18c-a66e-4ba7-a170-23efbdc67501","0B40E708E84D44ED847F0DF4AB406A30-2024-11-24-19-47-34","","1175","","<p style=""font-size:48px; color:red;"">Is Microphone OK?</p>","1","",""
"","","","","","instructions","10","75074","0.0-5.0","0B40E708E84D44ED847F0DF4AB406A30","0B40E708E84D44ED847F0DF4AB406A30","9ab11ea7-1879-4b9f-bb0f-8b716a6eae94","a0a8f18c-a66e-4ba7-a170-23efbdc67501","{""participantId"":""0B40E708E84D44ED847F0DF4AB406A30"",""assignmentId"":""9ab11ea7-1879-4b9f-bb0f-8b716a6eae94"",""projectId"":""a0a8f18c-a66e-4ba7-a170-23efbdc67501""}","https://test12345.live/?participantId=0B40E708E84D44ED847F0DF4AB406A30&assignmentId=9ab11ea7-1879-4b9f-bb0f-8b716a6eae94&projectId=a0a8f18c-a66e-4ba7-a170-23efbdc67501","0B40E708E84D44ED847F0DF4AB406A30-2024-11-24-19-47-34","[{""page_index"":0,""viewing_time"":3480},{""page_index"":1,""viewing_time"":4204}]","7684","","","","",""
"","","","","","image-button-response","11","81103","0.0-6.0-0.0","0B40E708E84D44ED847F0DF4AB406A30","0B40E708E84D44ED847F0DF4AB406A30","9ab11ea7-1879-4b9f-bb0f-8b716a6eae94","a0a8f18c-a66e-4ba7-a170-23efbdc67501","{""participantId"":""0B40E708E84D44ED847F0DF4AB406A30"",""assignmentId"":""9ab11ea7-1879-4b9f-bb0f-8b716a6eae94"",""projectId"":""a0a8f18c-a66e-4ba7-a170-23efbdc67501""}","https://test12345.live/?participantId=0B40E708E84D44ED847F0DF4AB406A30&assignmentId=9ab11ea7-1879-4b9f-bb0f-8b716a6eae94&projectId=a0a8f18c-a66e-4ba7-a170-23efbdc67501","0B40E708E84D44ED847F0DF4AB406A30-2024-11-24-19-47-34","","null","","images/instructions/movie_0.png","null","",""
"","","","","","image-button-response","12","85646","0.0-6.0-1.0-0.0","0B40E708E84D44ED847F0DF4AB406A30","0B40E708E84D44ED847F0DF4AB406A30","9ab11ea7-1879-4b9f-bb0f-8b716a6eae94","a0a8f18c-a66e-4ba7-a170-23efbdc67501","{""participantId"":""0B40E708E84D44ED847F0DF4AB406A30"",""assignmentId"":""9ab11ea7-1879-4b9f-bb0f-8b716a6eae94"",""projectId"":""a0a8f18c-a66e-4ba7-a170-23efbdc67501""}","https://test12345.live/?participantId=0B40E708E84D44ED847F0DF4AB406A30&assignmentId=9ab11ea7-1879-4b9f-bb0f-8b716a6eae94&projectId=a0a8f18c-a66e-4ba7-a170-23efbdc67501","0B40E708E84D44ED847F0DF4AB406A30-2024-11-24-19-47-34","","null","","images/instructions/movie_1.png","null","",""
"","","","","","image-button-response","13","87442","0.0-6.0-1.0-1.0","0B40E708E84D44ED847F0DF4AB406A30","0B40E708E84D44ED847F0DF4AB406A30","9ab11ea7-1879-4b9f-bb0f-8b716a6eae94","a0a8f18c-a66e-4ba7-a170-23efbdc67501","{""participantId"":""0B40E708E84D44ED847F0DF4AB406A30"",""assignmentId"":""9ab11ea7-1879-4b9f-bb0f-8b716a6eae94"",""projectId"":""a0a8f18c-a66e-4ba7-a170-23efbdc67501""}","https://test12345.live/?participantId=0B40E708E84D44ED847F0DF4AB406A30&assignmentId=9ab11ea7-1879-4b9f-bb0f-8b716a6eae94&projectId=a0a8f18c-a66e-4ba7-a170-23efbdc67501","0B40E708E84D44ED847F0DF4AB406A30-2024-11-24-19-47-34","","1793","","images/instructions/movie_1.png","0","",""
"","","","","","image-button-response","14","89244","0.0-6.0-1.0-2.0","0B40E708E84D44ED847F0DF4AB406A30","0B40E708E84D44ED847F0DF4AB406A30","9ab11ea7-1879-4b9f-bb0f-8b716a6eae94","a0a8f18c-a66e-4ba7-a170-23efbdc67501","{""participantId"":""0B40E708E84D44ED847F0DF4AB406A30"",""assignmentId"":""9ab11ea7-1879-4b9f-bb0f-8b716a6eae94"",""projectId"":""a0a8f18c-a66e-4ba7-a170-23efbdc67501""}","https://test12345.live/?participantId=0B40E708E84D44ED847F0DF4AB406A30&assignmentId=9ab11ea7-1879-4b9f-bb0f-8b716a6eae94&projectId=a0a8f18c-a66e-4ba7-a170-23efbdc67501","0B40E708E84D44ED847F0DF4AB406A30-2024-11-24-19-47-34","","null","","[]","null","",""
"","","","","","image-button-response","15","93788","0.0-6.0-1.0-0.1","0B40E708E84D44ED847F0DF4AB406A30","0B40E708E84D44ED847F0DF4AB406A30","9ab11ea7-1879-4b9f-bb0f-8b716a6eae94","a0a8f18c-a66e-4ba7-a170-23efbdc67501","{""participantId"":""0B40E708E84D44ED847F0DF4AB406A30"",""assignmentId"":""9ab11ea7-1879-4b9f-bb0f-8b716a6eae94"",""projectId"":""a0a8f18c-a66e-4ba7-a170-23efbdc67501""}","https://test12345.live/?participantId=0B40E708E84D44ED847F0DF4AB406A30&assignmentId=9ab11ea7-1879-4b9f-bb0f-8b716a6eae94&projectId=a0a8f18c-a66e-4ba7-a170-23efbdc67501","0B40E708E84D44ED847F0DF4AB406A30-2024-11-24-19-47-34","","null","","images/instructions/movie_2.png","null","",""
"","","","","","image-button-response","16","95492","0.0-6.0-1.0-1.1","0B40E708E84D44ED847F0DF4AB406A30","0B40E708E84D44ED847F0DF4AB406A30","9ab11ea7-1879-4b9f-bb0f-8b716a6eae94","a0a8f18c-a66e-4ba7-a170-23efbdc67501","{""participantId"":""0B40E708E84D44ED847F0DF4AB406A30"",""assignmentId"":""9ab11ea7-1879-4b9f-bb0f-8b716a6eae94"",""projectId"":""a0a8f18c-a66e-4ba7-a170-23efbdc67501""}","https://test12345.live/?participantId=0B40E708E84D44ED847F0DF4AB406A30&assignmentId=9ab11ea7-1879-4b9f-bb0f-8b716a6eae94&projectId=a0a8f18c-a66e-4ba7-a170-23efbdc67501","0B40E708E84D44ED847F0DF4AB406A30-2024-11-24-19-47-34","","1701","","images/instructions/movie_2.png","1","",""
"","","","","","image-button-response","17","97294","0.0-6.0-1.0-2.1","0B40E708E84D44ED847F0DF4AB406A30","0B40E708E84D44ED847F0DF4AB406A30","9ab11ea7-1879-4b9f-bb0f-8b716a6eae94","a0a8f18c-a66e-4ba7-a170-23efbdc67501","{""participantId"":""0B40E708E84D44ED847F0DF4AB406A30"",""assignmentId"":""9ab11ea7-1879-4b9f-bb0f-8b716a6eae94"",""projectId"":""a0a8f18c-a66e-4ba7-a170-23efbdc67501""}","https://test12345.live/?participantId=0B40E708E84D44ED847F0DF4AB406A30&assignmentId=9ab11ea7-1879-4b9f-bb0f-8b716a6eae94&projectId=a0a8f18c-a66e-4ba7-a170-23efbdc67501","0B40E708E84D44ED847F0DF4AB406A30-2024-11-24-19-47-34","","null","","[]","null","",""
"","","","","","image-button-response","18","101839","0.0-6.0-1.0-0.2","0B40E708E84D44ED847F0DF4AB406A30","0B40E708E84D44ED847F0DF4AB406A30","9ab11ea7-1879-4b9f-bb0f-8b716a6eae94","a0a8f18c-a66e-4ba7-a170-23efbdc67501","{""participantId"":""0B40E708E84D44ED847F0DF4AB406A30"",""assignmentId"":""9ab11ea7-1879-4b9f-bb0f-8b716a6eae94"",""projectId"":""a0a8f18c-a66e-4ba7-a170-23efbdc67501""}","https://test12345.live/?participantId=0B40E708E84D44ED847F0DF4AB406A30&assignmentId=9ab11ea7-1879-4b9f-bb0f-8b716a6eae94&projectId=a0a8f18c-a66e-4ba7-a170-23efbdc67501","0B40E708E84D44ED847F0DF4AB406A30-2024-11-24-19-47-34","","null","","images/instructions/movie_3.png","null","",""
"","","","","","image-button-response","19","103004","0.0-6.0-1.0-1.2","0B40E708E84D44ED847F0DF4AB406A30","0B40E708E84D44ED847F0DF4AB406A30","9ab11ea7-1879-4b9f-bb0f-8b716a6eae94","a0a8f18c-a66e-4ba7-a170-23efbdc67501","{""participantId"":""0B40E708E84D44ED847F0DF4AB406A30"",""assignmentId"":""9ab11ea7-1879-4b9f-bb0f-8b716a6eae94"",""projectId"":""a0a8f18c-a66e-4ba7-a170-23efbdc67501""}","https://test12345.live/?participantId=0B40E708E84D44ED847F0DF4AB406A30&assignmentId=9ab11ea7-1879-4b9f-bb0f-8b716a6eae94&projectId=a0a8f18c-a66e-4ba7-a170-23efbdc67501","0B40E708E84D44ED847F0DF4AB406A30-2024-11-24-19-47-34","","1160","","images/instructions/movie_3.png","0","",""
"","","","","","image-button-response","20","104805","0.0-6.0-1.0-2.2","0B40E708E84D44ED847F0DF4AB406A30","0B40E708E84D44ED847F0DF4AB406A30","9ab11ea7-1879-4b9f-bb0f-8b716a6eae94","a0a8f18c-a66e-4ba7-a170-23efbdc67501","{""participantId"":""0B40E708E84D44ED847F0DF4AB406A30"",""assignmentId"":""9ab11ea7-1879-4b9f-bb0f-8b716a6eae94"",""projectId"":""a0a8f18c-a66e-4ba7-a170-23efbdc67501""}","https://test12345.live/?participantId=0B40E708E84D44ED847F0DF4AB406A30&assignmentId=9ab11ea7-1879-4b9f-bb0f-8b716a6eae94&projectId=a0a8f18c-a66e-4ba7-a170-23efbdc67501","0B40E708E84D44ED847F0DF4AB406A30-2024-11-24-19-47-34","","null","","[]","null","",""
"","","","","","image-button-response","21","109349","0.0-6.0-1.0-0.3","0B40E708E84D44ED847F0DF4AB406A30","0B40E708E84D44ED847F0DF4AB406A30","9ab11ea7-1879-4b9f-bb0f-8b716a6eae94","a0a8f18c-a66e-4ba7-a170-23efbdc67501","{""participantId"":""0B40E708E84D44ED847F0DF4AB406A30"",""assignmentId"":""9ab11ea7-1879-4b9f-bb0f-8b716a6eae94"",""projectId"":""a0a8f18c-a66e-4ba7-a170-23efbdc67501""}","https://test12345.live/?participantId=0B40E708E84D44ED847F0DF4AB406A30&assignmentId=9ab11ea7-1879-4b9f-bb0f-8b716a6eae94&projectId=a0a8f18c-a66e-4ba7-a170-23efbdc67501","0B40E708E84D44ED847F0DF4AB406A30-2024-11-24-19-47-34","","null","","images/instructions/movie_4.png","null","",""
"","","","","","image-button-response","22","110180","0.0-6.0-1.0-1.3","0B40E708E84D44ED847F0DF4AB406A30","0B40E708E84D44ED847F0DF4AB406A30","9ab11ea7-1879-4b9f-bb0f-8b716a6eae94","a0a8f18c-a66e-4ba7-a170-23efbdc67501","{""participantId"":""0B40E708E84D44ED847F0DF4AB406A30"",""assignmentId"":""9ab11ea7-1879-4b9f-bb0f-8b716a6eae94"",""projectId"":""a0a8f18c-a66e-4ba7-a170-23efbdc67501""}","https://test12345.live/?participantId=0B40E708E84D44ED847F0DF4AB406A30&assignmentId=9ab11ea7-1879-4b9f-bb0f-8b716a6eae94&projectId=a0a8f18c-a66e-4ba7-a170-23efbdc67501","0B40E708E84D44ED847F0DF4AB406A30-2024-11-24-19-47-34","","816","","images/instructions/movie_4.png","0","",""
"","","","","","image-button-response","23","111982","0.0-6.0-1.0-2.3","0B40E708E84D44ED847F0DF4AB406A30","0B40E708E84D44ED847F0DF4AB406A30","9ab11ea7-1879-4b9f-bb0f-8b716a6eae94","a0a8f18c-a66e-4ba7-a170-23efbdc67501","{""participantId"":""0B40E708E84D44ED847F0DF4AB406A30"",""assignmentId"":""9ab11ea7-1879-4b9f-bb0f-8b716a6eae94"",""projectId"":""a0a8f18c-a66e-4ba7-a170-23efbdc67501""}","https://test12345.live/?participantId=0B40E708E84D44ED847F0DF4AB406A30&assignmentId=9ab11ea7-1879-4b9f-bb0f-8b716a6eae94&projectId=a0a8f18c-a66e-4ba7-a170-23efbdc67501","0B40E708E84D44ED847F0DF4AB406A30-2024-11-24-19-47-34","","null","","[]","null","",""
"","","","","","instructions","24","120109","0.0-7.0","0B40E708E84D44ED847F0DF4AB406A30","0B40E708E84D44ED847F0DF4AB406A30","9ab11ea7-1879-4b9f-bb0f-8b716a6eae94","a0a8f18c-a66e-4ba7-a170-23efbdc67501","{""participantId"":""0B40E708E84D44ED847F0DF4AB406A30"",""assignmentId"":""9ab11ea7-1879-4b9f-bb0f-8b716a6eae94"",""projectId"":""a0a8f18c-a66e-4ba7-a170-23efbdc67501""}","https://test12345.live/?participantId=0B40E708E84D44ED847F0DF4AB406A30&assignmentId=9ab11ea7-1879-4b9f-bb0f-8b716a6eae94&projectId=a0a8f18c-a66e-4ba7-a170-23efbdc67501","0B40E708E84D44ED847F0DF4AB406A30-2024-11-24-19-47-34","[{""page_index"":0,""viewing_time"":6904},{""page_index"":1,""viewing_time"":1222}]","8126","","","","",""
"","","","","","html-audio-response","25","148052","0.0-8.0","0B40E708E84D44ED847F0DF4AB406A30","0B40E708E84D44ED847F0DF4AB406A30","9ab11ea7-1879-4b9f-bb0f-8b716a6eae94","a0a8f18c-a66e-4ba7-a170-23efbdc67501","{""participantId"":""0B40E708E84D44ED847F0DF4AB406A30"",""assignmentId"":""9ab11ea7-1879-4b9f-bb0f-8b716a6eae94"",""projectId"":""a0a8f18c-a66e-4ba7-a170-23efbdc67501""}","https://test12345.live/?participantId=0B40E708E84D44ED847F0DF4AB406A30&assignmentId=9ab11ea7-1879-4b9f-bb0f-8b716a6eae94&projectId=a0a8f18c-a66e-4ba7-a170-23efbdc67501","0B40E708E84D44ED847F0DF4AB406A30-2024-11-24-19-47-34","","3121","","[""<span style=\""color: red; font-size: 24px\""> NOW RECORDING</span><p>Please say out loud all the images you saw, as many as you can remember. The images can be said in any order.</p>""]","","15",""
"","","","","","instructions","26","149814","0.0-9.0","0B40E708E84D44ED847F0DF4AB406A30","0B40E708E84D44ED847F0DF4AB406A30","9ab11ea7-1879-4b9f-bb0f-8b716a6eae94","a0a8f18c-a66e-4ba7-a170-23efbdc67501","{""participantId"":""0B40E708E84D44ED847F0DF4AB406A30"",""assignmentId"":""9ab11ea7-1879-4b9f-bb0f-8b716a6eae94"",""projectId"":""a0a8f18c-a66e-4ba7-a170-23efbdc67501""}","https://test12345.live/?participantId=0B40E708E84D44ED847F0DF4AB406A30&assignmentId=9ab11ea7-1879-4b9f-bb0f-8b716a6eae94&projectId=a0a8f18c-a66e-4ba7-a170-23efbdc67501","0B40E708E84D44ED847F0DF4AB406A30-2024-11-24-19-47-34","[{""page_index"":0,""viewing_time"":1757}]","1758","","","","",""
"","","","","","image-button-response","27","155842","0.0-10.0-0.0","0B40E708E84D44ED847F0DF4AB406A30","0B40E708E84D44ED847F0DF4AB406A30","9ab11ea7-1879-4b9f-bb0f-8b716a6eae94","a0a8f18c-a66e-4ba7-a170-23efbdc67501","{""participantId"":""0B40E708E84D44ED847F0DF4AB406A30"",""assignmentId"":""9ab11ea7-1879-4b9f-bb0f-8b716a6eae94"",""projectId"":""a0a8f18c-a66e-4ba7-a170-23efbdc67501""}","https://test12345.live/?participantId=0B40E708E84D44ED847F0DF4AB406A30&assignmentId=9ab11ea7-1879-4b9f-bb0f-8b716a6eae94&projectId=a0a8f18c-a66e-4ba7-a170-23efbdc67501","0B40E708E84D44ED847F0DF4AB406A30-2024-11-24-19-47-34","","null","","images/causal_sequence/museum_causal/museum_causal_0.png","null","",""
"","","","","","image-button-response","28","160386","0.0-10.0-1.0-0.0","0B40E708E84D44ED847F0DF4AB406A30","0B40E708E84D44ED847F0DF4AB406A30","9ab11ea7-1879-4b9f-bb0f-8b716a6eae94","a0a8f18c-a66e-4ba7-a170-23efbdc67501","{""participantId"":""0B40E708E84D44ED847F0DF4AB406A30"",""assignmentId"":""9ab11ea7-1879-4b9f-bb0f-8b716a6eae94"",""projectId"":""a0a8f18c-a66e-4ba7-a170-23efbdc67501""}","https://test12345.live/?participantId=0B40E708E84D44ED847F0DF4AB406A30&assignmentId=9ab11ea7-1879-4b9f-bb0f-8b716a6eae94&projectId=a0a8f18c-a66e-4ba7-a170-23efbdc67501","0B40E708E84D44ED847F0DF4AB406A30-2024-11-24-19-47-34","","null","","images/causal_sequence/museum_causal/museum_causal_1.png","null","",""
"","","","","","image-button-response","29","161946","0.0-10.0-1.0-1.0","0B40E708E84D44ED847F0DF4AB406A30","0B40E708E84D44ED847F0DF4AB406A30","9ab11ea7-1879-4b9f-bb0f-8b716a6eae94","a0a8f18c-a66e-4ba7-a170-23efbdc67501","{""participantId"":""0B40E708E84D44ED847F0DF4AB406A30"",""assignmentId"":""9ab11ea7-1879-4b9f-bb0f-8b716a6eae94"",""projectId"":""a0a8f18c-a66e-4ba7-a170-23efbdc67501""}","https://test12345.live/?participantId=0B40E708E84D44ED847F0DF4AB406A30&assignmentId=9ab11ea7-1879-4b9f-bb0f-8b716a6eae94&projectId=a0a8f18c-a66e-4ba7-a170-23efbdc67501","0B40E708E84D44ED847F0DF4AB406A30-2024-11-24-19-47-34","","1556","","images/causal_sequence/museum_causal/museum_causal_1.png","0","",""
"","","","","","image-button-response","30","163747","0.0-10.0-1.0-2.0","0B40E708E84D44ED847F0DF4AB406A30","0B40E708E84D44ED847F0DF4AB406A30","9ab11ea7-1879-4b9f-bb0f-8b716a6eae94","a0a8f18c-a66e-4ba7-a170-23efbdc67501","{""participantId"":""0B40E708E84D44ED847F0DF4AB406A30"",""assignmentId"":""9ab11ea7-1879-4b9f-bb0f-8b716a6eae94"",""projectId"":""a0a8f18c-a66e-4ba7-a170-23efbdc67501""}","https://test12345.live/?participantId=0B40E708E84D44ED847F0DF4AB406A30&assignmentId=9ab11ea7-1879-4b9f-bb0f-8b716a6eae94&projectId=a0a8f18c-a66e-4ba7-a170-23efbdc67501","0B40E708E84D44ED847F0DF4AB406A30-2024-11-24-19-47-34","","null","","[]","null","",""
"","","","","","image-button-response","31","168295","0.0-10.0-1.0-0.1","0B40E708E84D44ED847F0DF4AB406A30","0B40E708E84D44ED847F0DF4AB406A30","9ab11ea7-1879-4b9f-bb0f-8b716a6eae94","a0a8f18c-a66e-4ba7-a170-23efbdc67501","{""participantId"":""0B40E708E84D44ED847F0DF4AB406A30"",""assignmentId"":""9ab11ea7-1879-4b9f-bb0f-8b716a6eae94"",""projectId"":""a0a8f18c-a66e-4ba7-a170-23efbdc67501""}","https://test12345.live/?participantId=0B40E708E84D44ED847F0DF4AB406A30&assignmentId=9ab11ea7-1879-4b9f-bb0f-8b716a6eae94&projectId=a0a8f18c-a66e-4ba7-a170-23efbdc67501","0B40E708E84D44ED847F0DF4AB406A30-2024-11-24-19-47-34","","null","","images/causal_sequence/museum_causal/museum_causal_2.png","null","",""
"","","","","","image-button-response","32","170703","0.0-10.0-1.0-1.1","0B40E708E84D44ED847F0DF4AB406A30","0B40E708E84D44ED847F0DF4AB406A30","9ab11ea7-1879-4b9f-bb0f-8b716a6eae94","a0a8f18c-a66e-4ba7-a170-23efbdc67501","{""participantId"":""0B40E708E84D44ED847F0DF4AB406A30"",""assignmentId"":""9ab11ea7-1879-4b9f-bb0f-8b716a6eae94"",""projectId"":""a0a8f18c-a66e-4ba7-a170-23efbdc67501""}","https://test12345.live/?participantId=0B40E708E84D44ED847F0DF4AB406A30&assignmentId=9ab11ea7-1879-4b9f-bb0f-8b716a6eae94&projectId=a0a8f18c-a66e-4ba7-a170-23efbdc67501","0B40E708E84D44ED847F0DF4AB406A30-2024-11-24-19-47-34","","2404","","images/causal_sequence/museum_causal/museum_causal_2.png","1","",""
"","","","","","image-button-response","33","172506","0.0-10.0-1.0-2.1","0B40E708E84D44ED847F0DF4AB406A30","0B40E708E84D44ED847F0DF4AB406A30","9ab11ea7-1879-4b9f-bb0f-8b716a6eae94","a0a8f18c-a66e-4ba7-a170-23efbdc67501","{""participantId"":""0B40E708E84D44ED847F0DF4AB406A30"",""assignmentId"":""9ab11ea7-1879-4b9f-bb0f-8b716a6eae94"",""projectId"":""a0a8f18c-a66e-4ba7-a170-23efbdc67501""}","https://test12345.live/?participantId=0B40E708E84D44ED847F0DF4AB406A30&assignmentId=9ab11ea7-1879-4b9f-bb0f-8b716a6eae94&projectId=a0a8f18c-a66e-4ba7-a170-23efbdc67501","0B40E708E84D44ED847F0DF4AB406A30-2024-11-24-19-47-34","","null","","[]","null","",""
"","","","","","image-button-response","34","177047","0.0-10.0-1.0-0.2","0B40E708E84D44ED847F0DF4AB406A30","0B40E708E84D44ED847F0DF4AB406A30","9ab11ea7-1879-4b9f-bb0f-8b716a6eae94","a0a8f18c-a66e-4ba7-a170-23efbdc67501","{""participantId"":""0B40E708E84D44ED847F0DF4AB406A30"",""assignmentId"":""9ab11ea7-1879-4b9f-bb0f-8b716a6eae94"",""projectId"":""a0a8f18c-a66e-4ba7-a170-23efbdc67501""}","https://test12345.live/?participantId=0B40E708E84D44ED847F0DF4AB406A30&assignmentId=9ab11ea7-1879-4b9f-bb0f-8b716a6eae94&projectId=a0a8f18c-a66e-4ba7-a170-23efbdc67501","0B40E708E84D44ED847F0DF4AB406A30-2024-11-24-19-47-34","","null","","images/causal_sequence/museum_causal/museum_causal_3.png","null","",""
"","","","","","image-button-response","35","181050","0.0-10.0-1.0-1.2","0B40E708E84D44ED847F0DF4AB406A30","0B40E708E84D44ED847F0DF4AB406A30","9ab11ea7-1879-4b9f-bb0f-8b716a6eae94","a0a8f18c-a66e-4ba7-a170-23efbdc67501","{""participantId"":""0B40E708E84D44ED847F0DF4AB406A30"",""assignmentId"":""9ab11ea7-1879-4b9f-bb0f-8b716a6eae94"",""projectId"":""a0a8f18c-a66e-4ba7-a170-23efbdc67501""}","https://test12345.live/?participantId=0B40E708E84D44ED847F0DF4AB406A30&assignmentId=9ab11ea7-1879-4b9f-bb0f-8b716a6eae94&projectId=a0a8f18c-a66e-4ba7-a170-23efbdc67501","0B40E708E84D44ED847F0DF4AB406A30-2024-11-24-19-47-34","","null","","images/causal_sequence/museum_causal/museum_causal_3.png","null","",""
"","","","","","image-button-response","36","182853","0.0-10.0-1.0-2.2","0B40E708E84D44ED847F0DF4AB406A30","0B40E708E84D44ED847F0DF4AB406A30","9ab11ea7-1879-4b9f-bb0f-8b716a6eae94","a0a8f18c-a66e-4ba7-a170-23efbdc67501","{""participantId"":""0B40E708E84D44ED847F0DF4AB406A30"",""assignmentId"":""9ab11ea7-1879-4b9f-bb0f-8b716a6eae94"",""projectId"":""a0a8f18c-a66e-4ba7-a170-23efbdc67501""}","https://test12345.live/?participantId=0B40E708E84D44ED847F0DF4AB406A30&assignmentId=9ab11ea7-1879-4b9f-bb0f-8b716a6eae94&projectId=a0a8f18c-a66e-4ba7-a170-23efbdc67501","0B40E708E84D44ED847F0DF4AB406A30-2024-11-24-19-47-34","","null","","[]","null","",""
"","","","","","image-button-response","37","187400","0.0-10.0-1.0-0.3","0B40E708E84D44ED847F0DF4AB406A30","0B40E708E84D44ED847F0DF4AB406A30","9ab11ea7-1879-4b9f-bb0f-8b716a6eae94","a0a8f18c-a66e-4ba7-a170-23efbdc67501","{""participantId"":""0B40E708E84D44ED847F0DF4AB406A30"",""assignmentId"":""9ab11ea7-1879-4b9f-bb0f-8b716a6eae94"",""projectId"":""a0a8f18c-a66e-4ba7-a170-23efbdc67501""}","https://test12345.live/?participantId=0B40E708E84D44ED847F0DF4AB406A30&assignmentId=9ab11ea7-1879-4b9f-bb0f-8b716a6eae94&projectId=a0a8f18c-a66e-4ba7-a170-23efbdc67501","0B40E708E84D44ED847F0DF4AB406A30-2024-11-24-19-47-34","","null","","images/causal_sequence/museum_causal/museum_causal_4.png","null","",""
"","","","","","image-button-response","38","188473","0.0-10.0-1.0-1.3","0B40E708E84D44ED847F0DF4AB406A30","0B40E708E84D44ED847F0DF4AB406A30","9ab11ea7-1879-4b9f-bb0f-8b716a6eae94","a0a8f18c-a66e-4ba7-a170-23efbdc67501","{""participantId"":""0B40E708E84D44ED847F0DF4AB406A30"",""assignmentId"":""9ab11ea7-1879-4b9f-bb0f-8b716a6eae94"",""projectId"":""a0a8f18c-a66e-4ba7-a170-23efbdc67501""}","https://test12345.live/?participantId=0B40E708E84D44ED847F0DF4AB406A30&assignmentId=9ab11ea7-1879-4b9f-bb0f-8b716a6eae94&projectId=a0a8f18c-a66e-4ba7-a170-23efbdc67501","0B40E708E84D44ED847F0DF4AB406A30-2024-11-24-19-47-34","","1069","","images/causal_sequence/museum_causal/museum_causal_4.png","1","",""
"","","","","","image-button-response","39","190276","0.0-10.0-1.0-2.3","0B40E708E84D44ED847F0DF4AB406A30","0B40E708E84D44ED847F0DF4AB406A30","9ab11ea7-1879-4b9f-bb0f-8b716a6eae94","a0a8f18c-a66e-4ba7-a170-23efbdc67501","{""participantId"":""0B40E708E84D44ED847F0DF4AB406A30"",""assignmentId"":""9ab11ea7-1879-4b9f-bb0f-8b716a6eae94"",""projectId"":""a0a8f18c-a66e-4ba7-a170-23efbdc67501""}","https://test12345.live/?participantId=0B40E708E84D44ED847F0DF4AB406A30&assignmentId=9ab11ea7-1879-4b9f-bb0f-8b716a6eae94&projectId=a0a8f18c-a66e-4ba7-a170-23efbdc67501","0B40E708E84D44ED847F0DF4AB406A30-2024-11-24-19-47-34","","null","","[]","null","",""
"","","","","","image-button-response","40","194821","0.0-10.0-1.0-0.4","0B40E708E84D44ED847F0DF4AB406A30","0B40E708E84D44ED847F0DF4AB406A30","9ab11ea7-1879-4b9f-bb0f-8b716a6eae94","a0a8f18c-a66e-4ba7-a170-23efbdc67501","{""participantId"":""0B40E708E84D44ED847F0DF4AB406A30"",""assignmentId"":""9ab11ea7-1879-4b9f-bb0f-8b716a6eae94"",""projectId"":""a0a8f18c-a66e-4ba7-a170-23efbdc67501""}","https://test12345.live/?participantId=0B40E708E84D44ED847F0DF4AB406A30&assignmentId=9ab11ea7-1879-4b9f-bb0f-8b716a6eae94&projectId=a0a8f18c-a66e-4ba7-a170-23efbdc67501","0B40E708E84D44ED847F0DF4AB406A30-2024-11-24-19-47-34","","null","","images/causal_sequence/museum_causal/museum_causal_5.png","null","",""
"","","","","","image-button-response","41","196898","0.0-10.0-1.0-1.4","0B40E708E84D44ED847F0DF4AB406A30","0B40E708E84D44ED847F0DF4AB406A30","9ab11ea7-1879-4b9f-bb0f-8b716a6eae94","a0a8f18c-a66e-4ba7-a170-23efbdc67501","{""participantId"":""0B40E708E84D44ED847F0DF4AB406A30"",""assignmentId"":""9ab11ea7-1879-4b9f-bb0f-8b716a6eae94"",""projectId"":""a0a8f18c-a66e-4ba7-a170-23efbdc67501""}","https://test12345.live/?participantId=0B40E708E84D44ED847F0DF4AB406A30&assignmentId=9ab11ea7-1879-4b9f-bb0f-8b716a6eae94&projectId=a0a8f18c-a66e-4ba7-a170-23efbdc67501","0B40E708E84D44ED847F0DF4AB406A30-2024-11-24-19-47-34","","2074","","images/causal_sequence/museum_causal/museum_causal_5.png","0","",""
"","","","","","image-button-response","42","198699","0.0-10.0-1.0-2.4","0B40E708E84D44ED847F0DF4AB406A30","0B40E708E84D44ED847F0DF4AB406A30","9ab11ea7-1879-4b9f-bb0f-8b716a6eae94","a0a8f18c-a66e-4ba7-a170-23efbdc67501","{""participantId"":""0B40E708E84D44ED847F0DF4AB406A30"",""assignmentId"":""9ab11ea7-1879-4b9f-bb0f-8b716a6eae94"",""projectId"":""a0a8f18c-a66e-4ba7-a170-23efbdc67501""}","https://test12345.live/?participantId=0B40E708E84D44ED847F0DF4AB406A30&assignmentId=9ab11ea7-1879-4b9f-bb0f-8b716a6eae94&projectId=a0a8f18c-a66e-4ba7-a170-23efbdc67501","0B40E708E84D44ED847F0DF4AB406A30-2024-11-24-19-47-34","","null","","[]","null","",""
"","","","","","image-button-response","43","203241","0.0-10.0-1.0-0.5","0B40E708E84D44ED847F0DF4AB406A30","0B40E708E84D44ED847F0DF4AB406A30","9ab11ea7-1879-4b9f-bb0f-8b716a6eae94","a0a8f18c-a66e-4ba7-a170-23efbdc67501","{""participantId"":""0B40E708E84D44ED847F0DF4AB406A30"",""assignmentId"":""9ab11ea7-1879-4b9f-bb0f-8b716a6eae94"",""projectId"":""a0a8f18c-a66e-4ba7-a170-23efbdc67501""}","https://test12345.live/?participantId=0B40E708E84D44ED847F0DF4AB406A30&assignmentId=9ab11ea7-1879-4b9f-bb0f-8b716a6eae94&projectId=a0a8f18c-a66e-4ba7-a170-23efbdc67501","0B40E708E84D44ED847F0DF4AB406A30-2024-11-24-19-47-34","","null","","images/causal_sequence/museum_causal/museum_causal_6.png","null","",""
"","","","","","image-button-response","44","204484","0.0-10.0-1.0-1.5","0B40E708E84D44ED847F0DF4AB406A30","0B40E708E84D44ED847F0DF4AB406A30","9ab11ea7-1879-4b9f-bb0f-8b716a6eae94","a0a8f18c-a66e-4ba7-a170-23efbdc67501","{""participantId"":""0B40E708E84D44ED847F0DF4AB406A30"",""assignmentId"":""9ab11ea7-1879-4b9f-bb0f-8b716a6eae94"",""projectId"":""a0a8f18c-a66e-4ba7-a170-23efbdc67501""}","https://test12345.live/?participantId=0B40E708E84D44ED847F0DF4AB406A30&assignmentId=9ab11ea7-1879-4b9f-bb0f-8b716a6eae94&projectId=a0a8f18c-a66e-4ba7-a170-23efbdc67501","0B40E708E84D44ED847F0DF4AB406A30-2024-11-24-19-47-34","","1239","","images/causal_sequence/museum_causal/museum_causal_6.png","0","",""
"","","","","","image-button-response","45","206286","0.0-10.0-1.0-2.5","0B40E708E84D44ED847F0DF4AB406A30","0B40E708E84D44ED847F0DF4AB406A30","9ab11ea7-1879-4b9f-bb0f-8b716a6eae94","a0a8f18c-a66e-4ba7-a170-23efbdc67501","{""participantId"":""0B40E708E84D44ED847F0DF4AB406A30"",""assignmentId"":""9ab11ea7-1879-4b9f-bb0f-8b716a6eae94"",""projectId"":""a0a8f18c-a66e-4ba7-a170-23efbdc67501""}","https://test12345.live/?participantId=0B40E708E84D44ED847F0DF4AB406A30&assignmentId=9ab11ea7-1879-4b9f-bb0f-8b716a6eae94&projectId=a0a8f18c-a66e-4ba7-a170-23efbdc67501","0B40E708E84D44ED847F0DF4AB406A30-2024-11-24-19-47-34","","null","","[]","null","",""
"","","","","","image-button-response","46","210827","0.0-10.0-1.0-0.6","0B40E708E84D44ED847F0DF4AB406A30","0B40E708E84D44ED847F0DF4AB406A30","9ab11ea7-1879-4b9f-bb0f-8b716a6eae94","a0a8f18c-a66e-4ba7-a170-23efbdc67501","{""participantId"":""0B40E708E84D44ED847F0DF4AB406A30"",""assignmentId"":""9ab11ea7-1879-4b9f-bb0f-8b716a6eae94"",""projectId"":""a0a8f18c-a66e-4ba7-a170-23efbdc67501""}","https://test12345.live/?participantId=0B40E708E84D44ED847F0DF4AB406A30&assignmentId=9ab11ea7-1879-4b9f-bb0f-8b716a6eae94&projectId=a0a8f18c-a66e-4ba7-a170-23efbdc67501","0B40E708E84D44ED847F0DF4AB406A30-2024-11-24-19-47-34","","null","","images/causal_sequence/museum_causal/museum_causal_7.png","null","",""
"","","","","","image-button-response","47","212612","0.0-10.0-1.0-1.6","0B40E708E84D44ED847F0DF4AB406A30","0B40E708E84D44ED847F0DF4AB406A30","9ab11ea7-1879-4b9f-bb0f-8b716a6eae94","a0a8f18c-a66e-4ba7-a170-23efbdc67501","{""participantId"":""0B40E708E84D44ED847F0DF4AB406A30"",""assignmentId"":""9ab11ea7-1879-4b9f-bb0f-8b716a6eae94"",""projectId"":""a0a8f18c-a66e-4ba7-a170-23efbdc67501""}","https://test12345.live/?participantId=0B40E708E84D44ED847F0DF4AB406A30&assignmentId=9ab11ea7-1879-4b9f-bb0f-8b716a6eae94&projectId=a0a8f18c-a66e-4ba7-a170-23efbdc67501","0B40E708E84D44ED847F0DF4AB406A30-2024-11-24-19-47-34","","1781","","images/causal_sequence/museum_causal/museum_causal_7.png","1","",""
"","","","","","image-button-response","48","214415","0.0-10.0-1.0-2.6","0B40E708E84D44ED847F0DF4AB406A30","0B40E708E84D44ED847F0DF4AB406A30","9ab11ea7-1879-4b9f-bb0f-8b716a6eae94","a0a8f18c-a66e-4ba7-a170-23efbdc67501","{""participantId"":""0B40E708E84D44ED847F0DF4AB406A30"",""assignmentId"":""9ab11ea7-1879-4b9f-bb0f-8b716a6eae94"",""projectId"":""a0a8f18c-a66e-4ba7-a170-23efbdc67501""}","https://test12345.live/?participantId=0B40E708E84D44ED847F0DF4AB406A30&assignmentId=9ab11ea7-1879-4b9f-bb0f-8b716a6eae94&projectId=a0a8f18c-a66e-4ba7-a170-23efbdc67501","0B40E708E84D44ED847F0DF4AB406A30-2024-11-24-19-47-34","","null","","[]","null","",""
"","","","","","image-button-response","49","218955","0.0-10.0-1.0-0.7","0B40E708E84D44ED847F0DF4AB406A30","0B40E708E84D44ED847F0DF4AB406A30","9ab11ea7-1879-4b9f-bb0f-8b716a6eae94","a0a8f18c-a66e-4ba7-a170-23efbdc67501","{""participantId"":""0B40E708E84D44ED847F0DF4AB406A30"",""assignmentId"":""9ab11ea7-1879-4b9f-bb0f-8b716a6eae94"",""projectId"":""a0a8f18c-a66e-4ba7-a170-23efbdc67501""}","https://test12345.live/?participantId=0B40E708E84D44ED847F0DF4AB406A30&assignmentId=9ab11ea7-1879-4b9f-bb0f-8b716a6eae94&projectId=a0a8f18c-a66e-4ba7-a170-23efbdc67501","0B40E708E84D44ED847F0DF4AB406A30-2024-11-24-19-47-34","","null","","images/causal_sequence/museum_causal/museum_causal_8.png","null","",""
"","","","","","image-button-response","50","220303","0.0-10.0-1.0-1.7","0B40E708E84D44ED847F0DF4AB406A30","0B40E708E84D44ED847F0DF4AB406A30","9ab11ea7-1879-4b9f-bb0f-8b716a6eae94","a0a8f18c-a66e-4ba7-a170-23efbdc67501","{""participantId"":""0B40E708E84D44ED847F0DF4AB406A30"",""assignmentId"":""9ab11ea7-1879-4b9f-bb0f-8b716a6eae94"",""projectId"":""a0a8f18c-a66e-4ba7-a170-23efbdc67501""}","https://test12345.live/?participantId=0B40E708E84D44ED847F0DF4AB406A30&assignmentId=9ab11ea7-1879-4b9f-bb0f-8b716a6eae94&projectId=a0a8f18c-a66e-4ba7-a170-23efbdc67501","0B40E708E84D44ED847F0DF4AB406A30-2024-11-24-19-47-34","","1341","","images/causal_sequence/museum_causal/museum_causal_8.png","0","",""
"","","","","","image-button-response","51","222105","0.0-10.0-1.0-2.7","0B40E708E84D44ED847F0DF4AB406A30","0B40E708E84D44ED847F0DF4AB406A30","9ab11ea7-1879-4b9f-bb0f-8b716a6eae94","a0a8f18c-a66e-4ba7-a170-23efbdc67501","{""participantId"":""0B40E708E84D44ED847F0DF4AB406A30"",""assignmentId"":""9ab11ea7-1879-4b9f-bb0f-8b716a6eae94"",""projectId"":""a0a8f18c-a66e-4ba7-a170-23efbdc67501""}","https://test12345.live/?participantId=0B40E708E84D44ED847F0DF4AB406A30&assignmentId=9ab11ea7-1879-4b9f-bb0f-8b716a6eae94&projectId=a0a8f18c-a66e-4ba7-a170-23efbdc67501","0B40E708E84D44ED847F0DF4AB406A30-2024-11-24-19-47-34","","null","","[]","null","",""
"","","","","","image-button-response","52","226645","0.0-10.0-1.0-0.8","0B40E708E84D44ED847F0DF4AB406A30","0B40E708E84D44ED847F0DF4AB406A30","9ab11ea7-1879-4b9f-bb0f-8b716a6eae94","a0a8f18c-a66e-4ba7-a170-23efbdc67501","{""participantId"":""0B40E708E84D44ED847F0DF4AB406A30"",""assignmentId"":""9ab11ea7-1879-4b9f-bb0f-8b716a6eae94"",""projectId"":""a0a8f18c-a66e-4ba7-a170-23efbdc67501""}","https://test12345.live/?participantId=0B40E708E84D44ED847F0DF4AB406A30&assignmentId=9ab11ea7-1879-4b9f-bb0f-8b716a6eae94&projectId=a0a8f18c-a66e-4ba7-a170-23efbdc67501","0B40E708E84D44ED847F0DF4AB406A30-2024-11-24-19-47-34","","null","","images/causal_sequence/museum_causal/museum_causal_9.png","null","",""
"","","","","","image-button-response","53","228456","0.0-10.0-1.0-1.8","0B40E708E84D44ED847F0DF4AB406A30","0B40E708E84D44ED847F0DF4AB406A30","9ab11ea7-1879-4b9f-bb0f-8b716a6eae94","a0a8f18c-a66e-4ba7-a170-23efbdc67501","{""participantId"":""0B40E708E84D44ED847F0DF4AB406A30"",""assignmentId"":""9ab11ea7-1879-4b9f-bb0f-8b716a6eae94"",""projectId"":""a0a8f18c-a66e-4ba7-a170-23efbdc67501""}","https://test12345.live/?participantId=0B40E708E84D44ED847F0DF4AB406A30&assignmentId=9ab11ea7-1879-4b9f-bb0f-8b716a6eae94&projectId=a0a8f18c-a66e-4ba7-a170-23efbdc67501","0B40E708E84D44ED847F0DF4AB406A30-2024-11-24-19-47-34","","1807","","images/causal_sequence/museum_causal/museum_causal_9.png","1","",""
"","","","","","image-button-response","54","230258","0.0-10.0-1.0-2.8","0B40E708E84D44ED847F0DF4AB406A30","0B40E708E84D44ED847F0DF4AB406A30","9ab11ea7-1879-4b9f-bb0f-8b716a6eae94","a0a8f18c-a66e-4ba7-a170-23efbdc67501","{""participantId"":""0B40E708E84D44ED847F0DF4AB406A30"",""assignmentId"":""9ab11ea7-1879-4b9f-bb0f-8b716a6eae94"",""projectId"":""a0a8f18c-a66e-4ba7-a170-23efbdc67501""}","https://test12345.live/?participantId=0B40E708E84D44ED847F0DF4AB406A30&assignmentId=9ab11ea7-1879-4b9f-bb0f-8b716a6eae94&projectId=a0a8f18c-a66e-4ba7-a170-23efbdc67501","0B40E708E84D44ED847F0DF4AB406A30-2024-11-24-19-47-34","","null","","[]","null","",""
"","","","","","image-button-response","55","234802","0.0-10.0-1.0-0.9","0B40E708E84D44ED847F0DF4AB406A30","0B40E708E84D44ED847F0DF4AB406A30","9ab11ea7-1879-4b9f-bb0f-8b716a6eae94","a0a8f18c-a66e-4ba7-a170-23efbdc67501","{""participantId"":""0B40E708E84D44ED847F0DF4AB406A30"",""assignmentId"":""9ab11ea7-1879-4b9f-bb0f-8b716a6eae94"",""projectId"":""a0a8f18c-a66e-4ba7-a170-23efbdc67501""}","https://test12345.live/?participantId=0B40E708E84D44ED847F0DF4AB406A30&assignmentId=9ab11ea7-1879-4b9f-bb0f-8b716a6eae94&projectId=a0a8f18c-a66e-4ba7-a170-23efbdc67501","0B40E708E84D44ED847F0DF4AB406A30-2024-11-24-19-47-34","","null","","images/causal_sequence/museum_causal/museum_causal_ten.png","null","",""
"","","","","","image-button-response","56","236662","0.0-10.0-1.0-1.9","0B40E708E84D44ED847F0DF4AB406A30","0B40E708E84D44ED847F0DF4AB406A30","9ab11ea7-1879-4b9f-bb0f-8b716a6eae94","a0a8f18c-a66e-4ba7-a170-23efbdc67501","{""participantId"":""0B40E708E84D44ED847F0DF4AB406A30"",""assignmentId"":""9ab11ea7-1879-4b9f-bb0f-8b716a6eae94"",""projectId"":""a0a8f18c-a66e-4ba7-a170-23efbdc67501""}","https://test12345.live/?participantId=0B40E708E84D44ED847F0DF4AB406A30&assignmentId=9ab11ea7-1879-4b9f-bb0f-8b716a6eae94&projectId=a0a8f18c-a66e-4ba7-a170-23efbdc67501","0B40E708E84D44ED847F0DF4AB406A30-2024-11-24-19-47-34","","1855","","images/causal_sequence/museum_causal/museum_causal_ten.png","0","",""
"","","","","","image-button-response","57","238463","0.0-10.0-1.0-2.9","0B40E708E84D44ED847F0DF4AB406A30","0B40E708E84D44ED847F0DF4AB406A30","9ab11ea7-1879-4b9f-bb0f-8b716a6eae94","a0a8f18c-a66e-4ba7-a170-23efbdc67501","{""participantId"":""0B40E708E84D44ED847F0DF4AB406A30"",""assignmentId"":""9ab11ea7-1879-4b9f-bb0f-8b716a6eae94"",""projectId"":""a0a8f18c-a66e-4ba7-a170-23efbdc67501""}","https://test12345.live/?participantId=0B40E708E84D44ED847F0DF4AB406A30&assignmentId=9ab11ea7-1879-4b9f-bb0f-8b716a6eae94&projectId=a0a8f18c-a66e-4ba7-a170-23efbdc67501","0B40E708E84D44ED847F0DF4AB406A30-2024-11-24-19-47-34","","null","","[]","null","",""
"","","","","","html-audio-response","58","267370","0.0-11.0","0B40E708E84D44ED847F0DF4AB406A30","0B40E708E84D44ED847F0DF4AB406A30","9ab11ea7-1879-4b9f-bb0f-8b716a6eae94","a0a8f18c-a66e-4ba7-a170-23efbdc67501","{""participantId"":""0B40E708E84D44ED847F0DF4AB406A30"",""assignmentId"":""9ab11ea7-1879-4b9f-bb0f-8b716a6eae94"",""projectId"":""a0a8f18c-a66e-4ba7-a170-23efbdc67501""}","https://test12345.live/?participantId=0B40E708E84D44ED847F0DF4AB406A30&assignmentId=9ab11ea7-1879-4b9f-bb0f-8b716a6eae94&projectId=a0a8f18c-a66e-4ba7-a170-23efbdc67501","0B40E708E84D44ED847F0DF4AB406A30-2024-11-24-19-47-34","","27273","","[""<span style=\""color: red; font-size: 24px\""> NOW RECORDING</span><p>Please say out loud all the images you saw, as many as you can remember. The images can be said in any order.</p>""]","","19","museum_causal"
"","","","","","image-button-response","59","273408","0.0-12.0-0.0","0B40E708E84D44ED847F0DF4AB406A30","0B40E708E84D44ED847F0DF4AB406A30","9ab11ea7-1879-4b9f-bb0f-8b716a6eae94","a0a8f18c-a66e-4ba7-a170-23efbdc67501","{""participantId"":""0B40E708E84D44ED847F0DF4AB406A30"",""assignmentId"":""9ab11ea7-1879-4b9f-bb0f-8b716a6eae94"",""projectId"":""a0a8f18c-a66e-4ba7-a170-23efbdc67501""}","https://test12345.live/?participantId=0B40E708E84D44ED847F0DF4AB406A30&assignmentId=9ab11ea7-1879-4b9f-bb0f-8b716a6eae94&projectId=a0a8f18c-a66e-4ba7-a170-23efbdc67501","0B40E708E84D44ED847F0DF4AB406A30-2024-11-24-19-47-34","","null","","images/semantic_sequence/physical_activity_semantic/physical_activity_semantic_0.png","null","",""
"","","","","","image-button-response","60","277951","0.0-12.0-1.0-0.0","0B40E708E84D44ED847F0DF4AB406A30","0B40E708E84D44ED847F0DF4AB406A30","9ab11ea7-1879-4b9f-bb0f-8b716a6eae94","a0a8f18c-a66e-4ba7-a170-23efbdc67501","{""participantId"":""0B40E708E84D44ED847F0DF4AB406A30"",""assignmentId"":""9ab11ea7-1879-4b9f-bb0f-8b716a6eae94"",""projectId"":""a0a8f18c-a66e-4ba7-a170-23efbdc67501""}","https://test12345.live/?participantId=0B40E708E84D44ED847F0DF4AB406A30&assignmentId=9ab11ea7-1879-4b9f-bb0f-8b716a6eae94&projectId=a0a8f18c-a66e-4ba7-a170-23efbdc67501","0B40E708E84D44ED847F0DF4AB406A30-2024-11-24-19-47-34","","null","","images/semantic_sequence/physical_activity_semantic/physical_activity_semantic_1.png","null","",""
"","","","","","image-button-response","61","280250","0.0-12.0-1.0-1.0","0B40E708E84D44ED847F0DF4AB406A30","0B40E708E84D44ED847F0DF4AB406A30","9ab11ea7-1879-4b9f-bb0f-8b716a6eae94","a0a8f18c-a66e-4ba7-a170-23efbdc67501","{""participantId"":""0B40E708E84D44ED847F0DF4AB406A30"",""assignmentId"":""9ab11ea7-1879-4b9f-bb0f-8b716a6eae94"",""projectId"":""a0a8f18c-a66e-4ba7-a170-23efbdc67501""}","https://test12345.live/?participantId=0B40E708E84D44ED847F0DF4AB406A30&assignmentId=9ab11ea7-1879-4b9f-bb0f-8b716a6eae94&projectId=a0a8f18c-a66e-4ba7-a170-23efbdc67501","0B40E708E84D44ED847F0DF4AB406A30-2024-11-24-19-47-34","","2291","","images/semantic_sequence/physical_activity_semantic/physical_activity_semantic_1.png","0","",""
"","","","","","image-button-response","62","282052","0.0-12.0-1.0-2.0","0B40E708E84D44ED847F0DF4AB406A30","0B40E708E84D44ED847F0DF4AB406A30","9ab11ea7-1879-4b9f-bb0f-8b716a6eae94","a0a8f18c-a66e-4ba7-a170-23efbdc67501","{""participantId"":""0B40E708E84D44ED847F0DF4AB406A30"",""assignmentId"":""9ab11ea7-1879-4b9f-bb0f-8b716a6eae94"",""projectId"":""a0a8f18c-a66e-4ba7-a170-23efbdc67501""}","https://test12345.live/?participantId=0B40E708E84D44ED847F0DF4AB406A30&assignmentId=9ab11ea7-1879-4b9f-bb0f-8b716a6eae94&projectId=a0a8f18c-a66e-4ba7-a170-23efbdc67501","0B40E708E84D44ED847F0DF4AB406A30-2024-11-24-19-47-34","","null","","[]","null","",""
"","","","","","image-button-response","63","286583","0.0-12.0-1.0-0.1","0B40E708E84D44ED847F0DF4AB406A30","0B40E708E84D44ED847F0DF4AB406A30","9ab11ea7-1879-4b9f-bb0f-8b716a6eae94","a0a8f18c-a66e-4ba7-a170-23efbdc67501","{""participantId"":""0B40E708E84D44ED847F0DF4AB406A30"",""assignmentId"":""9ab11ea7-1879-4b9f-bb0f-8b716a6eae94"",""projectId"":""a0a8f18c-a66e-4ba7-a170-23efbdc67501""}","https://test12345.live/?participantId=0B40E708E84D44ED847F0DF4AB406A30&assignmentId=9ab11ea7-1879-4b9f-bb0f-8b716a6eae94&projectId=a0a8f18c-a66e-4ba7-a170-23efbdc67501","0B40E708E84D44ED847F0DF4AB406A30-2024-11-24-19-47-34","","null","","images/semantic_sequence/physical_activity_semantic/physical_activity_semantic_2.png","null","",""
"","","","","","image-button-response","64","288935","0.0-12.0-1.0-1.1","0B40E708E84D44ED847F0DF4AB406A30","0B40E708E84D44ED847F0DF4AB406A30","9ab11ea7-1879-4b9f-bb0f-8b716a6eae94","a0a8f18c-a66e-4ba7-a170-23efbdc67501","{""participantId"":""0B40E708E84D44ED847F0DF4AB406A30"",""assignmentId"":""9ab11ea7-1879-4b9f-bb0f-8b716a6eae94"",""projectId"":""a0a8f18c-a66e-4ba7-a170-23efbdc67501""}","https://test12345.live/?participantId=0B40E708E84D44ED847F0DF4AB406A30&assignmentId=9ab11ea7-1879-4b9f-bb0f-8b716a6eae94&projectId=a0a8f18c-a66e-4ba7-a170-23efbdc67501","0B40E708E84D44ED847F0DF4AB406A30-2024-11-24-19-47-34","","2344","","images/semantic_sequence/physical_activity_semantic/physical_activity_semantic_2.png","0","",""
"","","","","","image-button-response","65","290736","0.0-12.0-1.0-2.1","0B40E708E84D44ED847F0DF4AB406A30","0B40E708E84D44ED847F0DF4AB406A30","9ab11ea7-1879-4b9f-bb0f-8b716a6eae94","a0a8f18c-a66e-4ba7-a170-23efbdc67501","{""participantId"":""0B40E708E84D44ED847F0DF4AB406A30"",""assignmentId"":""9ab11ea7-1879-4b9f-bb0f-8b716a6eae94"",""projectId"":""a0a8f18c-a66e-4ba7-a170-23efbdc67501""}","https://test12345.live/?participantId=0B40E708E84D44ED847F0DF4AB406A30&assignmentId=9ab11ea7-1879-4b9f-bb0f-8b716a6eae94&projectId=a0a8f18c-a66e-4ba7-a170-23efbdc67501","0B40E708E84D44ED847F0DF4AB406A30-2024-11-24-19-47-34","","null","","[]","null","",""
"","","","","","image-button-response","66","295277","0.0-12.0-1.0-0.2","0B40E708E84D44ED847F0DF4AB406A30","0B40E708E84D44ED847F0DF4AB406A30","9ab11ea7-1879-4b9f-bb0f-8b716a6eae94","a0a8f18c-a66e-4ba7-a170-23efbdc67501","{""participantId"":""0B40E708E84D44ED847F0DF4AB406A30"",""assignmentId"":""9ab11ea7-1879-4b9f-bb0f-8b716a6eae94"",""projectId"":""a0a8f18c-a66e-4ba7-a170-23efbdc67501""}","https://test12345.live/?participantId=0B40E708E84D44ED847F0DF4AB406A30&assignmentId=9ab11ea7-1879-4b9f-bb0f-8b716a6eae94&projectId=a0a8f18c-a66e-4ba7-a170-23efbdc67501","0B40E708E84D44ED847F0DF4AB406A30-2024-11-24-19-47-34","","null","","images/semantic_sequence/physical_activity_semantic/physical_activity_semantic_3.png","null","",""
"","","","","","image-button-response","67","296744","0.0-12.0-1.0-1.2","0B40E708E84D44ED847F0DF4AB406A30","0B40E708E84D44ED847F0DF4AB406A30","9ab11ea7-1879-4b9f-bb0f-8b716a6eae94","a0a8f18c-a66e-4ba7-a170-23efbdc67501","{""participantId"":""0B40E708E84D44ED847F0DF4AB406A30"",""assignmentId"":""9ab11ea7-1879-4b9f-bb0f-8b716a6eae94"",""projectId"":""a0a8f18c-a66e-4ba7-a170-23efbdc67501""}","https://test12345.live/?participantId=0B40E708E84D44ED847F0DF4AB406A30&assignmentId=9ab11ea7-1879-4b9f-bb0f-8b716a6eae94&projectId=a0a8f18c-a66e-4ba7-a170-23efbdc67501","0B40E708E84D44ED847F0DF4AB406A30-2024-11-24-19-47-34","","1462","","images/semantic_sequence/physical_activity_semantic/physical_activity_semantic_3.png","0","",""
"","","","","","image-button-response","68","298547","0.0-12.0-1.0-2.2","0B40E708E84D44ED847F0DF4AB406A30","0B40E708E84D44ED847F0DF4AB406A30","9ab11ea7-1879-4b9f-bb0f-8b716a6eae94","a0a8f18c-a66e-4ba7-a170-23efbdc67501","{""participantId"":""0B40E708E84D44ED847F0DF4AB406A30"",""assignmentId"":""9ab11ea7-1879-4b9f-bb0f-8b716a6eae94"",""projectId"":""a0a8f18c-a66e-4ba7-a170-23efbdc67501""}","https://test12345.live/?participantId=0B40E708E84D44ED847F0DF4AB406A30&assignmentId=9ab11ea7-1879-4b9f-bb0f-8b716a6eae94&projectId=a0a8f18c-a66e-4ba7-a170-23efbdc67501","0B40E708E84D44ED847F0DF4AB406A30-2024-11-24-19-47-34","","null","","[]","null","",""
"","","","","","image-button-response","69","303089","0.0-12.0-1.0-0.3","0B40E708E84D44ED847F0DF4AB406A30","0B40E708E84D44ED847F0DF4AB406A30","9ab11ea7-1879-4b9f-bb0f-8b716a6eae94","a0a8f18c-a66e-4ba7-a170-23efbdc67501","{""participantId"":""0B40E708E84D44ED847F0DF4AB406A30"",""assignmentId"":""9ab11ea7-1879-4b9f-bb0f-8b716a6eae94"",""projectId"":""a0a8f18c-a66e-4ba7-a170-23efbdc67501""}","https://test12345.live/?participantId=0B40E708E84D44ED847F0DF4AB406A30&assignmentId=9ab11ea7-1879-4b9f-bb0f-8b716a6eae94&projectId=a0a8f18c-a66e-4ba7-a170-23efbdc67501","0B40E708E84D44ED847F0DF4AB406A30-2024-11-24-19-47-34","","null","","images/semantic_sequence/physical_activity_semantic/physical_activity_semantic_4.png","null","",""
"","","","","","image-button-response","70","304818","0.0-12.0-1.0-1.3","0B40E708E84D44ED847F0DF4AB406A30","0B40E708E84D44ED847F0DF4AB406A30","9ab11ea7-1879-4b9f-bb0f-8b716a6eae94","a0a8f18c-a66e-4ba7-a170-23efbdc67501","{""participantId"":""0B40E708E84D44ED847F0DF4AB406A30"",""assignmentId"":""9ab11ea7-1879-4b9f-bb0f-8b716a6eae94"",""projectId"":""a0a8f18c-a66e-4ba7-a170-23efbdc67501""}","https://test12345.live/?participantId=0B40E708E84D44ED847F0DF4AB406A30&assignmentId=9ab11ea7-1879-4b9f-bb0f-8b716a6eae94&projectId=a0a8f18c-a66e-4ba7-a170-23efbdc67501","0B40E708E84D44ED847F0DF4AB406A30-2024-11-24-19-47-34","","1726","","images/semantic_sequence/physical_activity_semantic/physical_activity_semantic_4.png","0","",""
"","","","","","image-button-response","71","306620","0.0-12.0-1.0-2.3","0B40E708E84D44ED847F0DF4AB406A30","0B40E708E84D44ED847F0DF4AB406A30","9ab11ea7-1879-4b9f-bb0f-8b716a6eae94","a0a8f18c-a66e-4ba7-a170-23efbdc67501","{""participantId"":""0B40E708E84D44ED847F0DF4AB406A30"",""assignmentId"":""9ab11ea7-1879-4b9f-bb0f-8b716a6eae94"",""projectId"":""a0a8f18c-a66e-4ba7-a170-23efbdc67501""}","https://test12345.live/?participantId=0B40E708E84D44ED847F0DF4AB406A30&assignmentId=9ab11ea7-1879-4b9f-bb0f-8b716a6eae94&projectId=a0a8f18c-a66e-4ba7-a170-23efbdc67501","0B40E708E84D44ED847F0DF4AB406A30-2024-11-24-19-47-34","","null","","[]","null","",""
"","","","","","image-button-response","72","311164","0.0-12.0-1.0-0.4","0B40E708E84D44ED847F0DF4AB406A30","0B40E708E84D44ED847F0DF4AB406A30","9ab11ea7-1879-4b9f-bb0f-8b716a6eae94","a0a8f18c-a66e-4ba7-a170-23efbdc67501","{""participantId"":""0B40E708E84D44ED847F0DF4AB406A30"",""assignmentId"":""9ab11ea7-1879-4b9f-bb0f-8b716a6eae94"",""projectId"":""a0a8f18c-a66e-4ba7-a170-23efbdc67501""}","https://test12345.live/?participantId=0B40E708E84D44ED847F0DF4AB406A30&assignmentId=9ab11ea7-1879-4b9f-bb0f-8b716a6eae94&projectId=a0a8f18c-a66e-4ba7-a170-23efbdc67501","0B40E708E84D44ED847F0DF4AB406A30-2024-11-24-19-47-34","","null","","images/semantic_sequence/physical_activity_semantic/physical_activity_semantic_5.png","null","",""
"","","","","","image-button-response","73","312457","0.0-12.0-1.0-1.4","0B40E708E84D44ED847F0DF4AB406A30","0B40E708E84D44ED847F0DF4AB406A30","9ab11ea7-1879-4b9f-bb0f-8b716a6eae94","a0a8f18c-a66e-4ba7-a170-23efbdc67501","{""participantId"":""0B40E708E84D44ED847F0DF4AB406A30"",""assignmentId"":""9ab11ea7-1879-4b9f-bb0f-8b716a6eae94"",""projectId"":""a0a8f18c-a66e-4ba7-a170-23efbdc67501""}","https://test12345.live/?participantId=0B40E708E84D44ED847F0DF4AB406A30&assignmentId=9ab11ea7-1879-4b9f-bb0f-8b716a6eae94&projectId=a0a8f18c-a66e-4ba7-a170-23efbdc67501","0B40E708E84D44ED847F0DF4AB406A30-2024-11-24-19-47-34","","1289","","images/semantic_sequence/physical_activity_semantic/physical_activity_semantic_5.png","0","",""
"","","","","","image-button-response","74","314258","0.0-12.0-1.0-2.4","0B40E708E84D44ED847F0DF4AB406A30","0B40E708E84D44ED847F0DF4AB406A30","9ab11ea7-1879-4b9f-bb0f-8b716a6eae94","a0a8f18c-a66e-4ba7-a170-23efbdc67501","{""participantId"":""0B40E708E84D44ED847F0DF4AB406A30"",""assignmentId"":""9ab11ea7-1879-4b9f-bb0f-8b716a6eae94"",""projectId"":""a0a8f18c-a66e-4ba7-a170-23efbdc67501""}","https://test12345.live/?participantId=0B40E708E84D44ED847F0DF4AB406A30&assignmentId=9ab11ea7-1879-4b9f-bb0f-8b716a6eae94&projectId=a0a8f18c-a66e-4ba7-a170-23efbdc67501","0B40E708E84D44ED847F0DF4AB406A30-2024-11-24-19-47-34","","null","","[]","null","",""
"","","","","","image-button-response","75","318801","0.0-12.0-1.0-0.5","0B40E708E84D44ED847F0DF4AB406A30","0B40E708E84D44ED847F0DF4AB406A30","9ab11ea7-1879-4b9f-bb0f-8b716a6eae94","a0a8f18c-a66e-4ba7-a170-23efbdc67501","{""participantId"":""0B40E708E84D44ED847F0DF4AB406A30"",""assignmentId"":""9ab11ea7-1879-4b9f-bb0f-8b716a6eae94"",""projectId"":""a0a8f18c-a66e-4ba7-a170-23efbdc67501""}","https://test12345.live/?participantId=0B40E708E84D44ED847F0DF4AB406A30&assignmentId=9ab11ea7-1879-4b9f-bb0f-8b716a6eae94&projectId=a0a8f18c-a66e-4ba7-a170-23efbdc67501","0B40E708E84D44ED847F0DF4AB406A30-2024-11-24-19-47-34","","null","","images/semantic_sequence/physical_activity_semantic/physical_activity_semantic_6.png","null","",""
"","","","","","image-button-response","76","320550","0.0-12.0-1.0-1.5","0B40E708E84D44ED847F0DF4AB406A30","0B40E708E84D44ED847F0DF4AB406A30","9ab11ea7-1879-4b9f-bb0f-8b716a6eae94","a0a8f18c-a66e-4ba7-a170-23efbdc67501","{""participantId"":""0B40E708E84D44ED847F0DF4AB406A30"",""assignmentId"":""9ab11ea7-1879-4b9f-bb0f-8b716a6eae94"",""projectId"":""a0a8f18c-a66e-4ba7-a170-23efbdc67501""}","https://test12345.live/?participantId=0B40E708E84D44ED847F0DF4AB406A30&assignmentId=9ab11ea7-1879-4b9f-bb0f-8b716a6eae94&projectId=a0a8f18c-a66e-4ba7-a170-23efbdc67501","0B40E708E84D44ED847F0DF4AB406A30-2024-11-24-19-47-34","","1745","","images/semantic_sequence/physical_activity_semantic/physical_activity_semantic_6.png","0","",""
"","","","","","image-button-response","77","322352","0.0-12.0-1.0-2.5","0B40E708E84D44ED847F0DF4AB406A30","0B40E708E84D44ED847F0DF4AB406A30","9ab11ea7-1879-4b9f-bb0f-8b716a6eae94","a0a8f18c-a66e-4ba7-a170-23efbdc67501","{""participantId"":""0B40E708E84D44ED847F0DF4AB406A30"",""assignmentId"":""9ab11ea7-1879-4b9f-bb0f-8b716a6eae94"",""projectId"":""a0a8f18c-a66e-4ba7-a170-23efbdc67501""}","https://test12345.live/?participantId=0B40E708E84D44ED847F0DF4AB406A30&assignmentId=9ab11ea7-1879-4b9f-bb0f-8b716a6eae94&projectId=a0a8f18c-a66e-4ba7-a170-23efbdc67501","0B40E708E84D44ED847F0DF4AB406A30-2024-11-24-19-47-34","","null","","[]","null","",""
"","","","","","image-button-response","78","326894","0.0-12.0-1.0-0.6","0B40E708E84D44ED847F0DF4AB406A30","0B40E708E84D44ED847F0DF4AB406A30","9ab11ea7-1879-4b9f-bb0f-8b716a6eae94","a0a8f18c-a66e-4ba7-a170-23efbdc67501","{""participantId"":""0B40E708E84D44ED847F0DF4AB406A30"",""assignmentId"":""9ab11ea7-1879-4b9f-bb0f-8b716a6eae94"",""projectId"":""a0a8f18c-a66e-4ba7-a170-23efbdc67501""}","https://test12345.live/?participantId=0B40E708E84D44ED847F0DF4AB406A30&assignmentId=9ab11ea7-1879-4b9f-bb0f-8b716a6eae94&projectId=a0a8f18c-a66e-4ba7-a170-23efbdc67501","0B40E708E84D44ED847F0DF4AB406A30-2024-11-24-19-47-34","","null","","images/semantic_sequence/physical_activity_semantic/physical_activity_semantic_7.png","null","",""
"","","","","","image-button-response","79","328143","0.0-12.0-1.0-1.6","0B40E708E84D44ED847F0DF4AB406A30","0B40E708E84D44ED847F0DF4AB406A30","9ab11ea7-1879-4b9f-bb0f-8b716a6eae94","a0a8f18c-a66e-4ba7-a170-23efbdc67501","{""participantId"":""0B40E708E84D44ED847F0DF4AB406A30"",""assignmentId"":""9ab11ea7-1879-4b9f-bb0f-8b716a6eae94"",""projectId"":""a0a8f18c-a66e-4ba7-a170-23efbdc67501""}","https://test12345.live/?participantId=0B40E708E84D44ED847F0DF4AB406A30&assignmentId=9ab11ea7-1879-4b9f-bb0f-8b716a6eae94&projectId=a0a8f18c-a66e-4ba7-a170-23efbdc67501","0B40E708E84D44ED847F0DF4AB406A30-2024-11-24-19-47-34","","1246","","images/semantic_sequence/physical_activity_semantic/physical_activity_semantic_7.png","0","",""
"","","","","","image-button-response","80","329945","0.0-12.0-1.0-2.6","0B40E708E84D44ED847F0DF4AB406A30","0B40E708E84D44ED847F0DF4AB406A30","9ab11ea7-1879-4b9f-bb0f-8b716a6eae94","a0a8f18c-a66e-4ba7-a170-23efbdc67501","{""participantId"":""0B40E708E84D44ED847F0DF4AB406A30"",""assignmentId"":""9ab11ea7-1879-4b9f-bb0f-8b716a6eae94"",""projectId"":""a0a8f18c-a66e-4ba7-a170-23efbdc67501""}","https://test12345.live/?participantId=0B40E708E84D44ED847F0DF4AB406A30&assignmentId=9ab11ea7-1879-4b9f-bb0f-8b716a6eae94&projectId=a0a8f18c-a66e-4ba7-a170-23efbdc67501","0B40E708E84D44ED847F0DF4AB406A30-2024-11-24-19-47-34","","null","","[]","null","",""
"","","","","","image-button-response","81","334470","0.0-12.0-1.0-0.7","0B40E708E84D44ED847F0DF4AB406A30","0B40E708E84D44ED847F0DF4AB406A30","9ab11ea7-1879-4b9f-bb0f-8b716a6eae94","a0a8f18c-a66e-4ba7-a170-23efbdc67501","{""participantId"":""0B40E708E84D44ED847F0DF4AB406A30"",""assignmentId"":""9ab11ea7-1879-4b9f-bb0f-8b716a6eae94"",""projectId"":""a0a8f18c-a66e-4ba7-a170-23efbdc67501""}","https://test12345.live/?participantId=0B40E708E84D44ED847F0DF4AB406A30&assignmentId=9ab11ea7-1879-4b9f-bb0f-8b716a6eae94&projectId=a0a8f18c-a66e-4ba7-a170-23efbdc67501","0B40E708E84D44ED847F0DF4AB406A30-2024-11-24-19-47-34","","null","","images/semantic_sequence/physical_activity_semantic/physical_activity_semantic_8.png","null","",""
"","","","","","image-button-response","82","336298","0.0-12.0-1.0-1.7","0B40E708E84D44ED847F0DF4AB406A30","0B40E708E84D44ED847F0DF4AB406A30","9ab11ea7-1879-4b9f-bb0f-8b716a6eae94","a0a8f18c-a66e-4ba7-a170-23efbdc67501","{""participantId"":""0B40E708E84D44ED847F0DF4AB406A30"",""assignmentId"":""9ab11ea7-1879-4b9f-bb0f-8b716a6eae94"",""projectId"":""a0a8f18c-a66e-4ba7-a170-23efbdc67501""}","https://test12345.live/?participantId=0B40E708E84D44ED847F0DF4AB406A30&assignmentId=9ab11ea7-1879-4b9f-bb0f-8b716a6eae94&projectId=a0a8f18c-a66e-4ba7-a170-23efbdc67501","0B40E708E84D44ED847F0DF4AB406A30-2024-11-24-19-47-34","","1824","","images/semantic_sequence/physical_activity_semantic/physical_activity_semantic_8.png","0","",""
"","","","","","image-button-response","83","338100","0.0-12.0-1.0-2.7","0B40E708E84D44ED847F0DF4AB406A30","0B40E708E84D44ED847F0DF4AB406A30","9ab11ea7-1879-4b9f-bb0f-8b716a6eae94","a0a8f18c-a66e-4ba7-a170-23efbdc67501","{""participantId"":""0B40E708E84D44ED847F0DF4AB406A30"",""assignmentId"":""9ab11ea7-1879-4b9f-bb0f-8b716a6eae94"",""projectId"":""a0a8f18c-a66e-4ba7-a170-23efbdc67501""}","https://test12345.live/?participantId=0B40E708E84D44ED847F0DF4AB406A30&assignmentId=9ab11ea7-1879-4b9f-bb0f-8b716a6eae94&projectId=a0a8f18c-a66e-4ba7-a170-23efbdc67501","0B40E708E84D44ED847F0DF4AB406A30-2024-11-24-19-47-34","","null","","[]","null","",""
"","","","","","image-button-response","84","342642","0.0-12.0-1.0-0.8","0B40E708E84D44ED847F0DF4AB406A30","0B40E708E84D44ED847F0DF4AB406A30","9ab11ea7-1879-4b9f-bb0f-8b716a6eae94","a0a8f18c-a66e-4ba7-a170-23efbdc67501","{""participantId"":""0B40E708E84D44ED847F0DF4AB406A30"",""assignmentId"":""9ab11ea7-1879-4b9f-bb0f-8b716a6eae94"",""projectId"":""a0a8f18c-a66e-4ba7-a170-23efbdc67501""}","https://test12345.live/?participantId=0B40E708E84D44ED847F0DF4AB406A30&assignmentId=9ab11ea7-1879-4b9f-bb0f-8b716a6eae94&projectId=a0a8f18c-a66e-4ba7-a170-23efbdc67501","0B40E708E84D44ED847F0DF4AB406A30-2024-11-24-19-47-34","","null","","images/semantic_sequence/physical_activity_semantic/physical_activity_semantic_9.png","null","",""
"","","","","","image-button-response","85","344527","0.0-12.0-1.0-1.8","0B40E708E84D44ED847F0DF4AB406A30","0B40E708E84D44ED847F0DF4AB406A30","9ab11ea7-1879-4b9f-bb0f-8b716a6eae94","a0a8f18c-a66e-4ba7-a170-23efbdc67501","{""participantId"":""0B40E708E84D44ED847F0DF4AB406A30"",""assignmentId"":""9ab11ea7-1879-4b9f-bb0f-8b716a6eae94"",""projectId"":""a0a8f18c-a66e-4ba7-a170-23efbdc67501""}","https://test12345.live/?participantId=0B40E708E84D44ED847F0DF4AB406A30&assignmentId=9ab11ea7-1879-4b9f-bb0f-8b716a6eae94&projectId=a0a8f18c-a66e-4ba7-a170-23efbdc67501","0B40E708E84D44ED847F0DF4AB406A30-2024-11-24-19-47-34","","1882","","images/semantic_sequence/physical_activity_semantic/physical_activity_semantic_9.png","0","",""
"","","","","","image-button-response","86","346330","0.0-12.0-1.0-2.8","0B40E708E84D44ED847F0DF4AB406A30","0B40E708E84D44ED847F0DF4AB406A30","9ab11ea7-1879-4b9f-bb0f-8b716a6eae94","a0a8f18c-a66e-4ba7-a170-23efbdc67501","{""participantId"":""0B40E708E84D44ED847F0DF4AB406A30"",""assignmentId"":""9ab11ea7-1879-4b9f-bb0f-8b716a6eae94"",""projectId"":""a0a8f18c-a66e-4ba7-a170-23efbdc67501""}","https://test12345.live/?participantId=0B40E708E84D44ED847F0DF4AB406A30&assignmentId=9ab11ea7-1879-4b9f-bb0f-8b716a6eae94&projectId=a0a8f18c-a66e-4ba7-a170-23efbdc67501","0B40E708E84D44ED847F0DF4AB406A30-2024-11-24-19-47-34","","null","","[]","null","",""
"","","","","","image-button-response","87","350874","0.0-12.0-1.0-0.9","0B40E708E84D44ED847F0DF4AB406A30","0B40E708E84D44ED847F0DF4AB406A30","9ab11ea7-1879-4b9f-bb0f-8b716a6eae94","a0a8f18c-a66e-4ba7-a170-23efbdc67501","{""participantId"":""0B40E708E84D44ED847F0DF4AB406A30"",""assignmentId"":""9ab11ea7-1879-4b9f-bb0f-8b716a6eae94"",""projectId"":""a0a8f18c-a66e-4ba7-a170-23efbdc67501""}","https://test12345.live/?participantId=0B40E708E84D44ED847F0DF4AB406A30&assignmentId=9ab11ea7-1879-4b9f-bb0f-8b716a6eae94&projectId=a0a8f18c-a66e-4ba7-a170-23efbdc67501","0B40E708E84D44ED847F0DF4AB406A30-2024-11-24-19-47-34","","null","","images/semantic_sequence/physical_activity_semantic/physical_activity_semantic_ten.png","null","",""
"","","","","","image-button-response","88","352562","0.0-12.0-1.0-1.9","0B40E708E84D44ED847F0DF4AB406A30","0B40E708E84D44ED847F0DF4AB406A30","9ab11ea7-1879-4b9f-bb0f-8b716a6eae94","a0a8f18c-a66e-4ba7-a170-23efbdc67501","{""participantId"":""0B40E708E84D44ED847F0DF4AB406A30"",""assignmentId"":""9ab11ea7-1879-4b9f-bb0f-8b716a6eae94"",""projectId"":""a0a8f18c-a66e-4ba7-a170-23efbdc67501""}","https://test12345.live/?participantId=0B40E708E84D44ED847F0DF4AB406A30&assignmentId=9ab11ea7-1879-4b9f-bb0f-8b716a6eae94&projectId=a0a8f18c-a66e-4ba7-a170-23efbdc67501","0B40E708E84D44ED847F0DF4AB406A30-2024-11-24-19-47-34","","1685","","images/semantic_sequence/physical_activity_semantic/physical_activity_semantic_ten.png","0","",""
"","","","","","image-button-response","89","354365","0.0-12.0-1.0-2.9","0B40E708E84D44ED847F0DF4AB406A30","0B40E708E84D44ED847F0DF4AB406A30","9ab11ea7-1879-4b9f-bb0f-8b716a6eae94","a0a8f18c-a66e-4ba7-a170-23efbdc67501","{""participantId"":""0B40E708E84D44ED847F0DF4AB406A30"",""assignmentId"":""9ab11ea7-1879-4b9f-bb0f-8b716a6eae94"",""projectId"":""a0a8f18c-a66e-4ba7-a170-23efbdc67501""}","https://test12345.live/?participantId=0B40E708E84D44ED847F0DF4AB406A30&assignmentId=9ab11ea7-1879-4b9f-bb0f-8b716a6eae94&projectId=a0a8f18c-a66e-4ba7-a170-23efbdc67501","0B40E708E84D44ED847F0DF4AB406A30-2024-11-24-19-47-34","","null","","[]","null","",""
"","","","","","html-audio-response","90","370466","0.0-13.0","0B40E708E84D44ED847F0DF4AB406A30","0B40E708E84D44ED847F0DF4AB406A30","9ab11ea7-1879-4b9f-bb0f-8b716a6eae94","a0a8f18c-a66e-4ba7-a170-23efbdc67501","{""participantId"":""0B40E708E84D44ED847F0DF4AB406A30"",""assignmentId"":""9ab11ea7-1879-4b9f-bb0f-8b716a6eae94"",""projectId"":""a0a8f18c-a66e-4ba7-a170-23efbdc67501""}","https://test12345.live/?participantId=0B40E708E84D44ED847F0DF4AB406A30&assignmentId=9ab11ea7-1879-4b9f-bb0f-8b716a6eae94&projectId=a0a8f18c-a66e-4ba7-a170-23efbdc67501","0B40E708E84D44ED847F0DF4AB406A30-2024-11-24-19-47-34","","14714","","[""<span style=\""color: red; font-size: 24px\""> NOW RECORDING</span><p>Please say out loud all the images you saw, as many as you can remember. The images can be said in any order.</p>""]","","22","physical_activity_semantic"
"","","","","","image-button-response","91","376494","0.0-14.0-0.0","0B40E708E84D44ED847F0DF4AB406A30","0B40E708E84D44ED847F0DF4AB406A30","9ab11ea7-1879-4b9f-bb0f-8b716a6eae94","a0a8f18c-a66e-4ba7-a170-23efbdc67501","{""participantId"":""0B40E708E84D44ED847F0DF4AB406A30"",""assignmentId"":""9ab11ea7-1879-4b9f-bb0f-8b716a6eae94"",""projectId"":""a0a8f18c-a66e-4ba7-a170-23efbdc67501""}","https://test12345.live/?participantId=0B40E708E84D44ED847F0DF4AB406A30&assignmentId=9ab11ea7-1879-4b9f-bb0f-8b716a6eae94&projectId=a0a8f18c-a66e-4ba7-a170-23efbdc67501","0B40E708E84D44ED847F0DF4AB406A30-2024-11-24-19-47-34","","null","","images/causal_sequence/dog_causal/dog_causal_0.png","null","",""
"","","","","","image-button-response","92","381037","0.0-14.0-1.0-0.0","0B40E708E84D44ED847F0DF4AB406A30","0B40E708E84D44ED847F0DF4AB406A30","9ab11ea7-1879-4b9f-bb0f-8b716a6eae94","a0a8f18c-a66e-4ba7-a170-23efbdc67501","{""participantId"":""0B40E708E84D44ED847F0DF4AB406A30"",""assignmentId"":""9ab11ea7-1879-4b9f-bb0f-8b716a6eae94"",""projectId"":""a0a8f18c-a66e-4ba7-a170-23efbdc67501""}","https://test12345.live/?participantId=0B40E708E84D44ED847F0DF4AB406A30&assignmentId=9ab11ea7-1879-4b9f-bb0f-8b716a6eae94&projectId=a0a8f18c-a66e-4ba7-a170-23efbdc67501","0B40E708E84D44ED847F0DF4AB406A30-2024-11-24-19-47-34","","null","","images/causal_sequence/dog_causal/dog_causal_1.png","null","",""
"","","","","","image-button-response","93","382972","0.0-14.0-1.0-1.0","0B40E708E84D44ED847F0DF4AB406A30","0B40E708E84D44ED847F0DF4AB406A30","9ab11ea7-1879-4b9f-bb0f-8b716a6eae94","a0a8f18c-a66e-4ba7-a170-23efbdc67501","{""participantId"":""0B40E708E84D44ED847F0DF4AB406A30"",""assignmentId"":""9ab11ea7-1879-4b9f-bb0f-8b716a6eae94"",""projectId"":""a0a8f18c-a66e-4ba7-a170-23efbdc67501""}","https://test12345.live/?participantId=0B40E708E84D44ED847F0DF4AB406A30&assignmentId=9ab11ea7-1879-4b9f-bb0f-8b716a6eae94&projectId=a0a8f18c-a66e-4ba7-a170-23efbdc67501","0B40E708E84D44ED847F0DF4AB406A30-2024-11-24-19-47-34","","1932","","images/causal_sequence/dog_causal/dog_causal_1.png","0","",""
"","","","","","image-button-response","94","384774","0.0-14.0-1.0-2.0","0B40E708E84D44ED847F0DF4AB406A30","0B40E708E84D44ED847F0DF4AB406A30","9ab11ea7-1879-4b9f-bb0f-8b716a6eae94","a0a8f18c-a66e-4ba7-a170-23efbdc67501","{""participantId"":""0B40E708E84D44ED847F0DF4AB406A30"",""assignmentId"":""9ab11ea7-1879-4b9f-bb0f-8b716a6eae94"",""projectId"":""a0a8f18c-a66e-4ba7-a170-23efbdc67501""}","https://test12345.live/?participantId=0B40E708E84D44ED847F0DF4AB406A30&assignmentId=9ab11ea7-1879-4b9f-bb0f-8b716a6eae94&projectId=a0a8f18c-a66e-4ba7-a170-23efbdc67501","0B40E708E84D44ED847F0DF4AB406A30-2024-11-24-19-47-34","","null","","[]","null","",""
"","","","","","image-button-response","95","389320","0.0-14.0-1.0-0.1","0B40E708E84D44ED847F0DF4AB406A30","0B40E708E84D44ED847F0DF4AB406A30","9ab11ea7-1879-4b9f-bb0f-8b716a6eae94","a0a8f18c-a66e-4ba7-a170-23efbdc67501","{""participantId"":""0B40E708E84D44ED847F0DF4AB406A30"",""assignmentId"":""9ab11ea7-1879-4b9f-bb0f-8b716a6eae94"",""projectId"":""a0a8f18c-a66e-4ba7-a170-23efbdc67501""}","https://test12345.live/?participantId=0B40E708E84D44ED847F0DF4AB406A30&assignmentId=9ab11ea7-1879-4b9f-bb0f-8b716a6eae94&projectId=a0a8f18c-a66e-4ba7-a170-23efbdc67501","0B40E708E84D44ED847F0DF4AB406A30-2024-11-24-19-47-34","","null","","images/causal_sequence/dog_causal/dog_causal_2.png","null","",""
"","","","","","image-button-response","96","390703","0.0-14.0-1.0-1.1","0B40E708E84D44ED847F0DF4AB406A30","0B40E708E84D44ED847F0DF4AB406A30","9ab11ea7-1879-4b9f-bb0f-8b716a6eae94","a0a8f18c-a66e-4ba7-a170-23efbdc67501","{""participantId"":""0B40E708E84D44ED847F0DF4AB406A30"",""assignmentId"":""9ab11ea7-1879-4b9f-bb0f-8b716a6eae94"",""projectId"":""a0a8f18c-a66e-4ba7-a170-23efbdc67501""}","https://test12345.live/?participantId=0B40E708E84D44ED847F0DF4AB406A30&assignmentId=9ab11ea7-1879-4b9f-bb0f-8b716a6eae94&projectId=a0a8f18c-a66e-4ba7-a170-23efbdc67501","0B40E708E84D44ED847F0DF4AB406A30-2024-11-24-19-47-34","","1378","","images/causal_sequence/dog_causal/dog_causal_2.png","0","",""
"","","","","","image-button-response","97","392503","0.0-14.0-1.0-2.1","0B40E708E84D44ED847F0DF4AB406A30","0B40E708E84D44ED847F0DF4AB406A30","9ab11ea7-1879-4b9f-bb0f-8b716a6eae94","a0a8f18c-a66e-4ba7-a170-23efbdc67501","{""participantId"":""0B40E708E84D44ED847F0DF4AB406A30"",""assignmentId"":""9ab11ea7-1879-4b9f-bb0f-8b716a6eae94"",""projectId"":""a0a8f18c-a66e-4ba7-a170-23efbdc67501""}","https://test12345.live/?participantId=0B40E708E84D44ED847F0DF4AB406A30&assignmentId=9ab11ea7-1879-4b9f-bb0f-8b716a6eae94&projectId=a0a8f18c-a66e-4ba7-a170-23efbdc67501","0B40E708E84D44ED847F0DF4AB406A30-2024-11-24-19-47-34","","null","","[]","null","",""
"","","","","","image-button-response","98","397030","0.0-14.0-1.0-0.2","0B40E708E84D44ED847F0DF4AB406A30","0B40E708E84D44ED847F0DF4AB406A30","9ab11ea7-1879-4b9f-bb0f-8b716a6eae94","a0a8f18c-a66e-4ba7-a170-23efbdc67501","{""participantId"":""0B40E708E84D44ED847F0DF4AB406A30"",""assignmentId"":""9ab11ea7-1879-4b9f-bb0f-8b716a6eae94"",""projectId"":""a0a8f18c-a66e-4ba7-a170-23efbdc67501""}","https://test12345.live/?participantId=0B40E708E84D44ED847F0DF4AB406A30&assignmentId=9ab11ea7-1879-4b9f-bb0f-8b716a6eae94&projectId=a0a8f18c-a66e-4ba7-a170-23efbdc67501","0B40E708E84D44ED847F0DF4AB406A30-2024-11-24-19-47-34","","null","","images/causal_sequence/dog_causal/dog_causal_3.png","null","",""
"","","","","","image-button-response","99","398640","0.0-14.0-1.0-1.2","0B40E708E84D44ED847F0DF4AB406A30","0B40E708E84D44ED847F0DF4AB406A30","9ab11ea7-1879-4b9f-bb0f-8b716a6eae94","a0a8f18c-a66e-4ba7-a170-23efbdc67501","{""participantId"":""0B40E708E84D44ED847F0DF4AB406A30"",""assignmentId"":""9ab11ea7-1879-4b9f-bb0f-8b716a6eae94"",""projectId"":""a0a8f18c-a66e-4ba7-a170-23efbdc67501""}","https://test12345.live/?participantId=0B40E708E84D44ED847F0DF4AB406A30&assignmentId=9ab11ea7-1879-4b9f-bb0f-8b716a6eae94&projectId=a0a8f18c-a66e-4ba7-a170-23efbdc67501","0B40E708E84D44ED847F0DF4AB406A30-2024-11-24-19-47-34","","1607","","images/causal_sequence/dog_causal/dog_causal_3.png","0","",""
"","","","","","image-button-response","100","400444","0.0-14.0-1.0-2.2","0B40E708E84D44ED847F0DF4AB406A30","0B40E708E84D44ED847F0DF4AB406A30","9ab11ea7-1879-4b9f-bb0f-8b716a6eae94","a0a8f18c-a66e-4ba7-a170-23efbdc67501","{""participantId"":""0B40E708E84D44ED847F0DF4AB406A30"",""assignmentId"":""9ab11ea7-1879-4b9f-bb0f-8b716a6eae94"",""projectId"":""a0a8f18c-a66e-4ba7-a170-23efbdc67501""}","https://test12345.live/?participantId=0B40E708E84D44ED847F0DF4AB406A30&assignmentId=9ab11ea7-1879-4b9f-bb0f-8b716a6eae94&projectId=a0a8f18c-a66e-4ba7-a170-23efbdc67501","0B40E708E84D44ED847F0DF4AB406A30-2024-11-24-19-47-34","","null","","[]","null","",""
"","","","","","image-button-response","101","404986","0.0-14.0-1.0-0.3","0B40E708E84D44ED847F0DF4AB406A30","0B40E708E84D44ED847F0DF4AB406A30","9ab11ea7-1879-4b9f-bb0f-8b716a6eae94","a0a8f18c-a66e-4ba7-a170-23efbdc67501","{""participantId"":""0B40E708E84D44ED847F0DF4AB406A30"",""assignmentId"":""9ab11ea7-1879-4b9f-bb0f-8b716a6eae94"",""projectId"":""a0a8f18c-a66e-4ba7-a170-23efbdc67501""}","https://test12345.live/?participantId=0B40E708E84D44ED847F0DF4AB406A30&assignmentId=9ab11ea7-1879-4b9f-bb0f-8b716a6eae94&projectId=a0a8f18c-a66e-4ba7-a170-23efbdc67501","0B40E708E84D44ED847F0DF4AB406A30-2024-11-24-19-47-34","","null","","images/causal_sequence/dog_causal/dog_causal_4.png","null","",""
"","","","","","image-button-response","102","407051","0.0-14.0-1.0-1.3","0B40E708E84D44ED847F0DF4AB406A30","0B40E708E84D44ED847F0DF4AB406A30","9ab11ea7-1879-4b9f-bb0f-8b716a6eae94","a0a8f18c-a66e-4ba7-a170-23efbdc67501","{""participantId"":""0B40E708E84D44ED847F0DF4AB406A30"",""assignmentId"":""9ab11ea7-1879-4b9f-bb0f-8b716a6eae94"",""projectId"":""a0a8f18c-a66e-4ba7-a170-23efbdc67501""}","https://test12345.live/?participantId=0B40E708E84D44ED847F0DF4AB406A30&assignmentId=9ab11ea7-1879-4b9f-bb0f-8b716a6eae94&projectId=a0a8f18c-a66e-4ba7-a170-23efbdc67501","0B40E708E84D44ED847F0DF4AB406A30-2024-11-24-19-47-34","","2060","","images/causal_sequence/dog_causal/dog_causal_4.png","0","",""
"","","","","","image-button-response","103","408852","0.0-14.0-1.0-2.3","0B40E708E84D44ED847F0DF4AB406A30","0B40E708E84D44ED847F0DF4AB406A30","9ab11ea7-1879-4b9f-bb0f-8b716a6eae94","a0a8f18c-a66e-4ba7-a170-23efbdc67501","{""participantId"":""0B40E708E84D44ED847F0DF4AB406A30"",""assignmentId"":""9ab11ea7-1879-4b9f-bb0f-8b716a6eae94"",""projectId"":""a0a8f18c-a66e-4ba7-a170-23efbdc67501""}","https://test12345.live/?participantId=0B40E708E84D44ED847F0DF4AB406A30&assignmentId=9ab11ea7-1879-4b9f-bb0f-8b716a6eae94&projectId=a0a8f18c-a66e-4ba7-a170-23efbdc67501","0B40E708E84D44ED847F0DF4AB406A30-2024-11-24-19-47-34","","null","","[]","null","",""
"","","","","","image-button-response","104","413398","0.0-14.0-1.0-0.4","0B40E708E84D44ED847F0DF4AB406A30","0B40E708E84D44ED847F0DF4AB406A30","9ab11ea7-1879-4b9f-bb0f-8b716a6eae94","a0a8f18c-a66e-4ba7-a170-23efbdc67501","{""participantId"":""0B40E708E84D44ED847F0DF4AB406A30"",""assignmentId"":""9ab11ea7-1879-4b9f-bb0f-8b716a6eae94"",""projectId"":""a0a8f18c-a66e-4ba7-a170-23efbdc67501""}","https://test12345.live/?participantId=0B40E708E84D44ED847F0DF4AB406A30&assignmentId=9ab11ea7-1879-4b9f-bb0f-8b716a6eae94&projectId=a0a8f18c-a66e-4ba7-a170-23efbdc67501","0B40E708E84D44ED847F0DF4AB406A30-2024-11-24-19-47-34","","null","","images/causal_sequence/dog_causal/dog_causal_5.png","null","",""
"","","","","","image-button-response","105","414623","0.0-14.0-1.0-1.4","0B40E708E84D44ED847F0DF4AB406A30","0B40E708E84D44ED847F0DF4AB406A30","9ab11ea7-1879-4b9f-bb0f-8b716a6eae94","a0a8f18c-a66e-4ba7-a170-23efbdc67501","{""participantId"":""0B40E708E84D44ED847F0DF4AB406A30"",""assignmentId"":""9ab11ea7-1879-4b9f-bb0f-8b716a6eae94"",""projectId"":""a0a8f18c-a66e-4ba7-a170-23efbdc67501""}","https://test12345.live/?participantId=0B40E708E84D44ED847F0DF4AB406A30&assignmentId=9ab11ea7-1879-4b9f-bb0f-8b716a6eae94&projectId=a0a8f18c-a66e-4ba7-a170-23efbdc67501","0B40E708E84D44ED847F0DF4AB406A30-2024-11-24-19-47-34","","1220","","images/causal_sequence/dog_causal/dog_causal_5.png","0","",""
"","","","","","image-button-response","106","416425","0.0-14.0-1.0-2.4","0B40E708E84D44ED847F0DF4AB406A30","0B40E708E84D44ED847F0DF4AB406A30","9ab11ea7-1879-4b9f-bb0f-8b716a6eae94","a0a8f18c-a66e-4ba7-a170-23efbdc67501","{""participantId"":""0B40E708E84D44ED847F0DF4AB406A30"",""assignmentId"":""9ab11ea7-1879-4b9f-bb0f-8b716a6eae94"",""projectId"":""a0a8f18c-a66e-4ba7-a170-23efbdc67501""}","https://test12345.live/?participantId=0B40E708E84D44ED847F0DF4AB406A30&assignmentId=9ab11ea7-1879-4b9f-bb0f-8b716a6eae94&projectId=a0a8f18c-a66e-4ba7-a170-23efbdc67501","0B40E708E84D44ED847F0DF4AB406A30-2024-11-24-19-47-34","","null","","[]","null","",""
"","","","","","image-button-response","107","420969","0.0-14.0-1.0-0.5","0B40E708E84D44ED847F0DF4AB406A30","0B40E708E84D44ED847F0DF4AB406A30","9ab11ea7-1879-4b9f-bb0f-8b716a6eae94","a0a8f18c-a66e-4ba7-a170-23efbdc67501","{""participantId"":""0B40E708E84D44ED847F0DF4AB406A30"",""assignmentId"":""9ab11ea7-1879-4b9f-bb0f-8b716a6eae94"",""projectId"":""a0a8f18c-a66e-4ba7-a170-23efbdc67501""}","https://test12345.live/?participantId=0B40E708E84D44ED847F0DF4AB406A30&assignmentId=9ab11ea7-1879-4b9f-bb0f-8b716a6eae94&projectId=a0a8f18c-a66e-4ba7-a170-23efbdc67501","0B40E708E84D44ED847F0DF4AB406A30-2024-11-24-19-47-34","","null","","images/causal_sequence/dog_causal/dog_causal_6.png","null","",""
"","","","","","image-button-response","108","422947","0.0-14.0-1.0-1.5","0B40E708E84D44ED847F0DF4AB406A30","0B40E708E84D44ED847F0DF4AB406A30","9ab11ea7-1879-4b9f-bb0f-8b716a6eae94","a0a8f18c-a66e-4ba7-a170-23efbdc67501","{""participantId"":""0B40E708E84D44ED847F0DF4AB406A30"",""assignmentId"":""9ab11ea7-1879-4b9f-bb0f-8b716a6eae94"",""projectId"":""a0a8f18c-a66e-4ba7-a170-23efbdc67501""}","https://test12345.live/?participantId=0B40E708E84D44ED847F0DF4AB406A30&assignmentId=9ab11ea7-1879-4b9f-bb0f-8b716a6eae94&projectId=a0a8f18c-a66e-4ba7-a170-23efbdc67501","0B40E708E84D44ED847F0DF4AB406A30-2024-11-24-19-47-34","","1968","","images/causal_sequence/dog_causal/dog_causal_6.png","0","",""
"","","","","","image-button-response","109","424748","0.0-14.0-1.0-2.5","0B40E708E84D44ED847F0DF4AB406A30","0B40E708E84D44ED847F0DF4AB406A30","9ab11ea7-1879-4b9f-bb0f-8b716a6eae94","a0a8f18c-a66e-4ba7-a170-23efbdc67501","{""participantId"":""0B40E708E84D44ED847F0DF4AB406A30"",""assignmentId"":""9ab11ea7-1879-4b9f-bb0f-8b716a6eae94"",""projectId"":""a0a8f18c-a66e-4ba7-a170-23efbdc67501""}","https://test12345.live/?participantId=0B40E708E84D44ED847F0DF4AB406A30&assignmentId=9ab11ea7-1879-4b9f-bb0f-8b716a6eae94&projectId=a0a8f18c-a66e-4ba7-a170-23efbdc67501","0B40E708E84D44ED847F0DF4AB406A30-2024-11-24-19-47-34","","null","","[]","null","",""
"","","","","","image-button-response","110","429290","0.0-14.0-1.0-0.6","0B40E708E84D44ED847F0DF4AB406A30","0B40E708E84D44ED847F0DF4AB406A30","9ab11ea7-1879-4b9f-bb0f-8b716a6eae94","a0a8f18c-a66e-4ba7-a170-23efbdc67501","{""participantId"":""0B40E708E84D44ED847F0DF4AB406A30"",""assignmentId"":""9ab11ea7-1879-4b9f-bb0f-8b716a6eae94"",""projectId"":""a0a8f18c-a66e-4ba7-a170-23efbdc67501""}","https://test12345.live/?participantId=0B40E708E84D44ED847F0DF4AB406A30&assignmentId=9ab11ea7-1879-4b9f-bb0f-8b716a6eae94&projectId=a0a8f18c-a66e-4ba7-a170-23efbdc67501","0B40E708E84D44ED847F0DF4AB406A30-2024-11-24-19-47-34","","null","","images/causal_sequence/dog_causal/dog_causal_7.png","null","",""
"","","","","","image-button-response","111","430720","0.0-14.0-1.0-1.6","0B40E708E84D44ED847F0DF4AB406A30","0B40E708E84D44ED847F0DF4AB406A30","9ab11ea7-1879-4b9f-bb0f-8b716a6eae94","a0a8f18c-a66e-4ba7-a170-23efbdc67501","{""participantId"":""0B40E708E84D44ED847F0DF4AB406A30"",""assignmentId"":""9ab11ea7-1879-4b9f-bb0f-8b716a6eae94"",""projectId"":""a0a8f18c-a66e-4ba7-a170-23efbdc67501""}","https://test12345.live/?participantId=0B40E708E84D44ED847F0DF4AB406A30&assignmentId=9ab11ea7-1879-4b9f-bb0f-8b716a6eae94&projectId=a0a8f18c-a66e-4ba7-a170-23efbdc67501","0B40E708E84D44ED847F0DF4AB406A30-2024-11-24-19-47-34","","1418","","images/causal_sequence/dog_causal/dog_causal_7.png","0","",""
"","","","","","image-button-response","112","432521","0.0-14.0-1.0-2.6","0B40E708E84D44ED847F0DF4AB406A30","0B40E708E84D44ED847F0DF4AB406A30","9ab11ea7-1879-4b9f-bb0f-8b716a6eae94","a0a8f18c-a66e-4ba7-a170-23efbdc67501","{""participantId"":""0B40E708E84D44ED847F0DF4AB406A30"",""assignmentId"":""9ab11ea7-1879-4b9f-bb0f-8b716a6eae94"",""projectId"":""a0a8f18c-a66e-4ba7-a170-23efbdc67501""}","https://test12345.live/?participantId=0B40E708E84D44ED847F0DF4AB406A30&assignmentId=9ab11ea7-1879-4b9f-bb0f-8b716a6eae94&projectId=a0a8f18c-a66e-4ba7-a170-23efbdc67501","0B40E708E84D44ED847F0DF4AB406A30-2024-11-24-19-47-34","","null","","[]","null","",""
"","","","","","image-button-response","113","437067","0.0-14.0-1.0-0.7","0B40E708E84D44ED847F0DF4AB406A30","0B40E708E84D44ED847F0DF4AB406A30","9ab11ea7-1879-4b9f-bb0f-8b716a6eae94","a0a8f18c-a66e-4ba7-a170-23efbdc67501","{""participantId"":""0B40E708E84D44ED847F0DF4AB406A30"",""assignmentId"":""9ab11ea7-1879-4b9f-bb0f-8b716a6eae94"",""projectId"":""a0a8f18c-a66e-4ba7-a170-23efbdc67501""}","https://test12345.live/?participantId=0B40E708E84D44ED847F0DF4AB406A30&assignmentId=9ab11ea7-1879-4b9f-bb0f-8b716a6eae94&projectId=a0a8f18c-a66e-4ba7-a170-23efbdc67501","0B40E708E84D44ED847F0DF4AB406A30-2024-11-24-19-47-34","","null","","images/causal_sequence/dog_causal/dog_causal_8.png","null","",""
"","","","","","image-button-response","114","439581","0.0-14.0-1.0-1.7","0B40E708E84D44ED847F0DF4AB406A30","0B40E708E84D44ED847F0DF4AB406A30","9ab11ea7-1879-4b9f-bb0f-8b716a6eae94","a0a8f18c-a66e-4ba7-a170-23efbdc67501","{""participantId"":""0B40E708E84D44ED847F0DF4AB406A30"",""assignmentId"":""9ab11ea7-1879-4b9f-bb0f-8b716a6eae94"",""projectId"":""a0a8f18c-a66e-4ba7-a170-23efbdc67501""}","https://test12345.live/?participantId=0B40E708E84D44ED847F0DF4AB406A30&assignmentId=9ab11ea7-1879-4b9f-bb0f-8b716a6eae94&projectId=a0a8f18c-a66e-4ba7-a170-23efbdc67501","0B40E708E84D44ED847F0DF4AB406A30-2024-11-24-19-47-34","","2508","","images/causal_sequence/dog_causal/dog_causal_8.png","0","",""
"","","","","","image-button-response","115","441381","0.0-14.0-1.0-2.7","0B40E708E84D44ED847F0DF4AB406A30","0B40E708E84D44ED847F0DF4AB406A30","9ab11ea7-1879-4b9f-bb0f-8b716a6eae94","a0a8f18c-a66e-4ba7-a170-23efbdc67501","{""participantId"":""0B40E708E84D44ED847F0DF4AB406A30"",""assignmentId"":""9ab11ea7-1879-4b9f-bb0f-8b716a6eae94"",""projectId"":""a0a8f18c-a66e-4ba7-a170-23efbdc67501""}","https://test12345.live/?participantId=0B40E708E84D44ED847F0DF4AB406A30&assignmentId=9ab11ea7-1879-4b9f-bb0f-8b716a6eae94&projectId=a0a8f18c-a66e-4ba7-a170-23efbdc67501","0B40E708E84D44ED847F0DF4AB406A30-2024-11-24-19-47-34","","null","","[]","null","",""
"","","","","","image-button-response","116","445925","0.0-14.0-1.0-0.8","0B40E708E84D44ED847F0DF4AB406A30","0B40E708E84D44ED847F0DF4AB406A30","9ab11ea7-1879-4b9f-bb0f-8b716a6eae94","a0a8f18c-a66e-4ba7-a170-23efbdc67501","{""participantId"":""0B40E708E84D44ED847F0DF4AB406A30"",""assignmentId"":""9ab11ea7-1879-4b9f-bb0f-8b716a6eae94"",""projectId"":""a0a8f18c-a66e-4ba7-a170-23efbdc67501""}","https://test12345.live/?participantId=0B40E708E84D44ED847F0DF4AB406A30&assignmentId=9ab11ea7-1879-4b9f-bb0f-8b716a6eae94&projectId=a0a8f18c-a66e-4ba7-a170-23efbdc67501","0B40E708E84D44ED847F0DF4AB406A30-2024-11-24-19-47-34","","null","","images/causal_sequence/dog_causal/dog_causal_9.png","null","",""
"","","","","","image-button-response","117","447910","0.0-14.0-1.0-1.8","0B40E708E84D44ED847F0DF4AB406A30","0B40E708E84D44ED847F0DF4AB406A30","9ab11ea7-1879-4b9f-bb0f-8b716a6eae94","a0a8f18c-a66e-4ba7-a170-23efbdc67501","{""participantId"":""0B40E708E84D44ED847F0DF4AB406A30"",""assignmentId"":""9ab11ea7-1879-4b9f-bb0f-8b716a6eae94"",""projectId"":""a0a8f18c-a66e-4ba7-a170-23efbdc67501""}","https://test12345.live/?participantId=0B40E708E84D44ED847F0DF4AB406A30&assignmentId=9ab11ea7-1879-4b9f-bb0f-8b716a6eae94&projectId=a0a8f18c-a66e-4ba7-a170-23efbdc67501","0B40E708E84D44ED847F0DF4AB406A30-2024-11-24-19-47-34","","1982","","images/causal_sequence/dog_causal/dog_causal_9.png","0","",""
"","","","","","image-button-response","118","449712","0.0-14.0-1.0-2.8","0B40E708E84D44ED847F0DF4AB406A30","0B40E708E84D44ED847F0DF4AB406A30","9ab11ea7-1879-4b9f-bb0f-8b716a6eae94","a0a8f18c-a66e-4ba7-a170-23efbdc67501","{""participantId"":""0B40E708E84D44ED847F0DF4AB406A30"",""assignmentId"":""9ab11ea7-1879-4b9f-bb0f-8b716a6eae94"",""projectId"":""a0a8f18c-a66e-4ba7-a170-23efbdc67501""}","https://test12345.live/?participantId=0B40E708E84D44ED847F0DF4AB406A30&assignmentId=9ab11ea7-1879-4b9f-bb0f-8b716a6eae94&projectId=a0a8f18c-a66e-4ba7-a170-23efbdc67501","0B40E708E84D44ED847F0DF4AB406A30-2024-11-24-19-47-34","","null","","[]","null","",""
"","","","","","image-button-response","119","454249","0.0-14.0-1.0-0.9","0B40E708E84D44ED847F0DF4AB406A30","0B40E708E84D44ED847F0DF4AB406A30","9ab11ea7-1879-4b9f-bb0f-8b716a6eae94","a0a8f18c-a66e-4ba7-a170-23efbdc67501","{""participantId"":""0B40E708E84D44ED847F0DF4AB406A30"",""assignmentId"":""9ab11ea7-1879-4b9f-bb0f-8b716a6eae94"",""projectId"":""a0a8f18c-a66e-4ba7-a170-23efbdc67501""}","https://test12345.live/?participantId=0B40E708E84D44ED847F0DF4AB406A30&assignmentId=9ab11ea7-1879-4b9f-bb0f-8b716a6eae94&projectId=a0a8f18c-a66e-4ba7-a170-23efbdc67501","0B40E708E84D44ED847F0DF4AB406A30-2024-11-24-19-47-34","","null","","images/causal_sequence/dog_causal/dog_causal_ten.png","null","",""
"","","","","","image-button-response","120","458255","0.0-14.0-1.0-1.9","0B40E708E84D44ED847F0DF4AB406A30","0B40E708E84D44ED847F0DF4AB406A30","9ab11ea7-1879-4b9f-bb0f-8b716a6eae94","a0a8f18c-a66e-4ba7-a170-23efbdc67501","{""participantId"":""0B40E708E84D44ED847F0DF4AB406A30"",""assignmentId"":""9ab11ea7-1879-4b9f-bb0f-8b716a6eae94"",""projectId"":""a0a8f18c-a66e-4ba7-a170-23efbdc67501""}","https://test12345.live/?participantId=0B40E708E84D44ED847F0DF4AB406A30&assignmentId=9ab11ea7-1879-4b9f-bb0f-8b716a6eae94&projectId=a0a8f18c-a66e-4ba7-a170-23efbdc67501","0B40E708E84D44ED847F0DF4AB406A30-2024-11-24-19-47-34","","null","","images/causal_sequence/dog_causal/dog_causal_ten.png","null","",""
"","","","","","image-button-response","121","460058","0.0-14.0-1.0-2.9","0B40E708E84D44ED847F0DF4AB406A30","0B40E708E84D44ED847F0DF4AB406A30","9ab11ea7-1879-4b9f-bb0f-8b716a6eae94","a0a8f18c-a66e-4ba7-a170-23efbdc67501","{""participantId"":""0B40E708E84D44ED847F0DF4AB406A30"",""assignmentId"":""9ab11ea7-1879-4b9f-bb0f-8b716a6eae94"",""projectId"":""a0a8f18c-a66e-4ba7-a170-23efbdc67501""}","https://test12345.live/?participantId=0B40E708E84D44ED847F0DF4AB406A30&assignmentId=9ab11ea7-1879-4b9f-bb0f-8b716a6eae94&projectId=a0a8f18c-a66e-4ba7-a170-23efbdc67501","0B40E708E84D44ED847F0DF4AB406A30-2024-11-24-19-47-34","","null","","[]","null","",""
"","","","","","html-audio-response","122","487781","0.0-15.0","0B40E708E84D44ED847F0DF4AB406A30","0B40E708E84D44ED847F0DF4AB406A30","9ab11ea7-1879-4b9f-bb0f-8b716a6eae94","a0a8f18c-a66e-4ba7-a170-23efbdc67501","{""participantId"":""0B40E708E84D44ED847F0DF4AB406A30"",""assignmentId"":""9ab11ea7-1879-4b9f-bb0f-8b716a6eae94"",""projectId"":""a0a8f18c-a66e-4ba7-a170-23efbdc67501""}","https://test12345.live/?participantId=0B40E708E84D44ED847F0DF4AB406A30&assignmentId=9ab11ea7-1879-4b9f-bb0f-8b716a6eae94&projectId=a0a8f18c-a66e-4ba7-a170-23efbdc67501","0B40E708E84D44ED847F0DF4AB406A30-2024-11-24-19-47-34","","25952","","[""<span style=\""color: red; font-size: 24px\""> NOW RECORDING</span><p>Please say out loud all the images you saw, as many as you can remember. The images can be said in any order.</p>""]","","6","dog_causal"
"","","","","","image-button-response","123","493810","0.0-16.0-0.0","0B40E708E84D44ED847F0DF4AB406A30","0B40E708E84D44ED847F0DF4AB406A30","9ab11ea7-1879-4b9f-bb0f-8b716a6eae94","a0a8f18c-a66e-4ba7-a170-23efbdc67501","{""participantId"":""0B40E708E84D44ED847F0DF4AB406A30"",""assignmentId"":""9ab11ea7-1879-4b9f-bb0f-8b716a6eae94"",""projectId"":""a0a8f18c-a66e-4ba7-a170-23efbdc67501""}","https://test12345.live/?participantId=0B40E708E84D44ED847F0DF4AB406A30&assignmentId=9ab11ea7-1879-4b9f-bb0f-8b716a6eae94&projectId=a0a8f18c-a66e-4ba7-a170-23efbdc67501","0B40E708E84D44ED847F0DF4AB406A30-2024-11-24-19-47-34","","null","","images/schematic_sequence/restaurant_scheme/restaurant_scheme_0.png","null","",""
"","","","","","image-button-response","124","498326","0.0-16.0-1.0-0.0","0B40E708E84D44ED847F0DF4AB406A30","0B40E708E84D44ED847F0DF4AB406A30","9ab11ea7-1879-4b9f-bb0f-8b716a6eae94","a0a8f18c-a66e-4ba7-a170-23efbdc67501","{""participantId"":""0B40E708E84D44ED847F0DF4AB406A30"",""assignmentId"":""9ab11ea7-1879-4b9f-bb0f-8b716a6eae94"",""projectId"":""a0a8f18c-a66e-4ba7-a170-23efbdc67501""}","https://test12345.live/?participantId=0B40E708E84D44ED847F0DF4AB406A30&assignmentId=9ab11ea7-1879-4b9f-bb0f-8b716a6eae94&projectId=a0a8f18c-a66e-4ba7-a170-23efbdc67501","0B40E708E84D44ED847F0DF4AB406A30-2024-11-24-19-47-34","","null","","images/schematic_sequence/restaurant_scheme/restaurant_scheme_1.png","null","",""
"","","","","","image-button-response","125","499855","0.0-16.0-1.0-1.0","0B40E708E84D44ED847F0DF4AB406A30","0B40E708E84D44ED847F0DF4AB406A30","9ab11ea7-1879-4b9f-bb0f-8b716a6eae94","a0a8f18c-a66e-4ba7-a170-23efbdc67501","{""participantId"":""0B40E708E84D44ED847F0DF4AB406A30"",""assignmentId"":""9ab11ea7-1879-4b9f-bb0f-8b716a6eae94"",""projectId"":""a0a8f18c-a66e-4ba7-a170-23efbdc67501""}","https://test12345.live/?participantId=0B40E708E84D44ED847F0DF4AB406A30&assignmentId=9ab11ea7-1879-4b9f-bb0f-8b716a6eae94&projectId=a0a8f18c-a66e-4ba7-a170-23efbdc67501","0B40E708E84D44ED847F0DF4AB406A30-2024-11-24-19-47-34","","1527","","images/schematic_sequence/restaurant_scheme/restaurant_scheme_1.png","0","",""
"","","","","","image-button-response","126","501656","0.0-16.0-1.0-2.0","0B40E708E84D44ED847F0DF4AB406A30","0B40E708E84D44ED847F0DF4AB406A30","9ab11ea7-1879-4b9f-bb0f-8b716a6eae94","a0a8f18c-a66e-4ba7-a170-23efbdc67501","{""participantId"":""0B40E708E84D44ED847F0DF4AB406A30"",""assignmentId"":""9ab11ea7-1879-4b9f-bb0f-8b716a6eae94"",""projectId"":""a0a8f18c-a66e-4ba7-a170-23efbdc67501""}","https://test12345.live/?participantId=0B40E708E84D44ED847F0DF4AB406A30&assignmentId=9ab11ea7-1879-4b9f-bb0f-8b716a6eae94&projectId=a0a8f18c-a66e-4ba7-a170-23efbdc67501","0B40E708E84D44ED847F0DF4AB406A30-2024-11-24-19-47-34","","null","","[]","null","",""
"","","","","","image-button-response","127","506171","0.0-16.0-1.0-0.1","0B40E708E84D44ED847F0DF4AB406A30","0B40E708E84D44ED847F0DF4AB406A30","9ab11ea7-1879-4b9f-bb0f-8b716a6eae94","a0a8f18c-a66e-4ba7-a170-23efbdc67501","{""participantId"":""0B40E708E84D44ED847F0DF4AB406A30"",""assignmentId"":""9ab11ea7-1879-4b9f-bb0f-8b716a6eae94"",""projectId"":""a0a8f18c-a66e-4ba7-a170-23efbdc67501""}","https://test12345.live/?participantId=0B40E708E84D44ED847F0DF4AB406A30&assignmentId=9ab11ea7-1879-4b9f-bb0f-8b716a6eae94&projectId=a0a8f18c-a66e-4ba7-a170-23efbdc67501","0B40E708E84D44ED847F0DF4AB406A30-2024-11-24-19-47-34","","null","","images/schematic_sequence/restaurant_scheme/restaurant_scheme_2.png","null","",""
"","","","","","image-button-response","128","508091","0.0-16.0-1.0-1.1","0B40E708E84D44ED847F0DF4AB406A30","0B40E708E84D44ED847F0DF4AB406A30","9ab11ea7-1879-4b9f-bb0f-8b716a6eae94","a0a8f18c-a66e-4ba7-a170-23efbdc67501","{""participantId"":""0B40E708E84D44ED847F0DF4AB406A30"",""assignmentId"":""9ab11ea7-1879-4b9f-bb0f-8b716a6eae94"",""projectId"":""a0a8f18c-a66e-4ba7-a170-23efbdc67501""}","https://test12345.live/?participantId=0B40E708E84D44ED847F0DF4AB406A30&assignmentId=9ab11ea7-1879-4b9f-bb0f-8b716a6eae94&projectId=a0a8f18c-a66e-4ba7-a170-23efbdc67501","0B40E708E84D44ED847F0DF4AB406A30-2024-11-24-19-47-34","","1919","","images/schematic_sequence/restaurant_scheme/restaurant_scheme_2.png","1","",""
"","","","","","image-button-response","129","509892","0.0-16.0-1.0-2.1","0B40E708E84D44ED847F0DF4AB406A30","0B40E708E84D44ED847F0DF4AB406A30","9ab11ea7-1879-4b9f-bb0f-8b716a6eae94","a0a8f18c-a66e-4ba7-a170-23efbdc67501","{""participantId"":""0B40E708E84D44ED847F0DF4AB406A30"",""assignmentId"":""9ab11ea7-1879-4b9f-bb0f-8b716a6eae94"",""projectId"":""a0a8f18c-a66e-4ba7-a170-23efbdc67501""}","https://test12345.live/?participantId=0B40E708E84D44ED847F0DF4AB406A30&assignmentId=9ab11ea7-1879-4b9f-bb0f-8b716a6eae94&projectId=a0a8f18c-a66e-4ba7-a170-23efbdc67501","0B40E708E84D44ED847F0DF4AB406A30-2024-11-24-19-47-34","","null","","[]","null","",""
"","","","","","image-button-response","130","514416","0.0-16.0-1.0-0.2","0B40E708E84D44ED847F0DF4AB406A30","0B40E708E84D44ED847F0DF4AB406A30","9ab11ea7-1879-4b9f-bb0f-8b716a6eae94","a0a8f18c-a66e-4ba7-a170-23efbdc67501","{""participantId"":""0B40E708E84D44ED847F0DF4AB406A30"",""assignmentId"":""9ab11ea7-1879-4b9f-bb0f-8b716a6eae94"",""projectId"":""a0a8f18c-a66e-4ba7-a170-23efbdc67501""}","https://test12345.live/?participantId=0B40E708E84D44ED847F0DF4AB406A30&assignmentId=9ab11ea7-1879-4b9f-bb0f-8b716a6eae94&projectId=a0a8f18c-a66e-4ba7-a170-23efbdc67501","0B40E708E84D44ED847F0DF4AB406A30-2024-11-24-19-47-34","","null","","images/schematic_sequence/restaurant_scheme/restaurant_scheme_3.png","null","",""
"","","","","","image-button-response","131","516398","0.0-16.0-1.0-1.2","0B40E708E84D44ED847F0DF4AB406A30","0B40E708E84D44ED847F0DF4AB406A30","9ab11ea7-1879-4b9f-bb0f-8b716a6eae94","a0a8f18c-a66e-4ba7-a170-23efbdc67501","{""participantId"":""0B40E708E84D44ED847F0DF4AB406A30"",""assignmentId"":""9ab11ea7-1879-4b9f-bb0f-8b716a6eae94"",""projectId"":""a0a8f18c-a66e-4ba7-a170-23efbdc67501""}","https://test12345.live/?participantId=0B40E708E84D44ED847F0DF4AB406A30&assignmentId=9ab11ea7-1879-4b9f-bb0f-8b716a6eae94&projectId=a0a8f18c-a66e-4ba7-a170-23efbdc67501","0B40E708E84D44ED847F0DF4AB406A30-2024-11-24-19-47-34","","1980","","images/schematic_sequence/restaurant_scheme/restaurant_scheme_3.png","1","",""
"","","","","","image-button-response","132","518199","0.0-16.0-1.0-2.2","0B40E708E84D44ED847F0DF4AB406A30","0B40E708E84D44ED847F0DF4AB406A30","9ab11ea7-1879-4b9f-bb0f-8b716a6eae94","a0a8f18c-a66e-4ba7-a170-23efbdc67501","{""participantId"":""0B40E708E84D44ED847F0DF4AB406A30"",""assignmentId"":""9ab11ea7-1879-4b9f-bb0f-8b716a6eae94"",""projectId"":""a0a8f18c-a66e-4ba7-a170-23efbdc67501""}","https://test12345.live/?participantId=0B40E708E84D44ED847F0DF4AB406A30&assignmentId=9ab11ea7-1879-4b9f-bb0f-8b716a6eae94&projectId=a0a8f18c-a66e-4ba7-a170-23efbdc67501","0B40E708E84D44ED847F0DF4AB406A30-2024-11-24-19-47-34","","null","","[]","null","",""
"","","","","","image-button-response","133","522725","0.0-16.0-1.0-0.3","0B40E708E84D44ED847F0DF4AB406A30","0B40E708E84D44ED847F0DF4AB406A30","9ab11ea7-1879-4b9f-bb0f-8b716a6eae94","a0a8f18c-a66e-4ba7-a170-23efbdc67501","{""participantId"":""0B40E708E84D44ED847F0DF4AB406A30"",""assignmentId"":""9ab11ea7-1879-4b9f-bb0f-8b716a6eae94"",""projectId"":""a0a8f18c-a66e-4ba7-a170-23efbdc67501""}","https://test12345.live/?participantId=0B40E708E84D44ED847F0DF4AB406A30&assignmentId=9ab11ea7-1879-4b9f-bb0f-8b716a6eae94&projectId=a0a8f18c-a66e-4ba7-a170-23efbdc67501","0B40E708E84D44ED847F0DF4AB406A30-2024-11-24-19-47-34","","null","","images/schematic_sequence/restaurant_scheme/restaurant_scheme_4.png","null","",""
"","","","","","image-button-response","134","524332","0.0-16.0-1.0-1.3","0B40E708E84D44ED847F0DF4AB406A30","0B40E708E84D44ED847F0DF4AB406A30","9ab11ea7-1879-4b9f-bb0f-8b716a6eae94","a0a8f18c-a66e-4ba7-a170-23efbdc67501","{""participantId"":""0B40E708E84D44ED847F0DF4AB406A30"",""assignmentId"":""9ab11ea7-1879-4b9f-bb0f-8b716a6eae94"",""projectId"":""a0a8f18c-a66e-4ba7-a170-23efbdc67501""}","https://test12345.live/?participantId=0B40E708E84D44ED847F0DF4AB406A30&assignmentId=9ab11ea7-1879-4b9f-bb0f-8b716a6eae94&projectId=a0a8f18c-a66e-4ba7-a170-23efbdc67501","0B40E708E84D44ED847F0DF4AB406A30-2024-11-24-19-47-34","","1603","","images/schematic_sequence/restaurant_scheme/restaurant_scheme_4.png","0","",""
"","","","","","image-button-response","135","526132","0.0-16.0-1.0-2.3","0B40E708E84D44ED847F0DF4AB406A30","0B40E708E84D44ED847F0DF4AB406A30","9ab11ea7-1879-4b9f-bb0f-8b716a6eae94","a0a8f18c-a66e-4ba7-a170-23efbdc67501","{""participantId"":""0B40E708E84D44ED847F0DF4AB406A30"",""assignmentId"":""9ab11ea7-1879-4b9f-bb0f-8b716a6eae94"",""projectId"":""a0a8f18c-a66e-4ba7-a170-23efbdc67501""}","https://test12345.live/?participantId=0B40E708E84D44ED847F0DF4AB406A30&assignmentId=9ab11ea7-1879-4b9f-bb0f-8b716a6eae94&projectId=a0a8f18c-a66e-4ba7-a170-23efbdc67501","0B40E708E84D44ED847F0DF4AB406A30-2024-11-24-19-47-34","","null","","[]","null","",""
"","","","","","image-button-response","136","530650","0.0-16.0-1.0-0.4","0B40E708E84D44ED847F0DF4AB406A30","0B40E708E84D44ED847F0DF4AB406A30","9ab11ea7-1879-4b9f-bb0f-8b716a6eae94","a0a8f18c-a66e-4ba7-a170-23efbdc67501","{""participantId"":""0B40E708E84D44ED847F0DF4AB406A30"",""assignmentId"":""9ab11ea7-1879-4b9f-bb0f-8b716a6eae94"",""projectId"":""a0a8f18c-a66e-4ba7-a170-23efbdc67501""}","https://test12345.live/?participantId=0B40E708E84D44ED847F0DF4AB406A30&assignmentId=9ab11ea7-1879-4b9f-bb0f-8b716a6eae94&projectId=a0a8f18c-a66e-4ba7-a170-23efbdc67501","0B40E708E84D44ED847F0DF4AB406A30-2024-11-24-19-47-34","","null","","images/schematic_sequence/restaurant_scheme/restaurant_scheme_5.png","null","",""
"","","","","","image-button-response","137","533754","0.0-16.0-1.0-1.4","0B40E708E84D44ED847F0DF4AB406A30","0B40E708E84D44ED847F0DF4AB406A30","9ab11ea7-1879-4b9f-bb0f-8b716a6eae94","a0a8f18c-a66e-4ba7-a170-23efbdc67501","{""participantId"":""0B40E708E84D44ED847F0DF4AB406A30"",""assignmentId"":""9ab11ea7-1879-4b9f-bb0f-8b716a6eae94"",""projectId"":""a0a8f18c-a66e-4ba7-a170-23efbdc67501""}","https://test12345.live/?participantId=0B40E708E84D44ED847F0DF4AB406A30&assignmentId=9ab11ea7-1879-4b9f-bb0f-8b716a6eae94&projectId=a0a8f18c-a66e-4ba7-a170-23efbdc67501","0B40E708E84D44ED847F0DF4AB406A30-2024-11-24-19-47-34","","3099","","images/schematic_sequence/restaurant_scheme/restaurant_scheme_5.png","0","",""
"","","","","","image-button-response","138","535556","0.0-16.0-1.0-2.4","0B40E708E84D44ED847F0DF4AB406A30","0B40E708E84D44ED847F0DF4AB406A30","9ab11ea7-1879-4b9f-bb0f-8b716a6eae94","a0a8f18c-a66e-4ba7-a170-23efbdc67501","{""participantId"":""0B40E708E84D44ED847F0DF4AB406A30"",""assignmentId"":""9ab11ea7-1879-4b9f-bb0f-8b716a6eae94"",""projectId"":""a0a8f18c-a66e-4ba7-a170-23efbdc67501""}","https://test12345.live/?participantId=0B40E708E84D44ED847F0DF4AB406A30&assignmentId=9ab11ea7-1879-4b9f-bb0f-8b716a6eae94&projectId=a0a8f18c-a66e-4ba7-a170-23efbdc67501","0B40E708E84D44ED847F0DF4AB406A30-2024-11-24-19-47-34","","null","","[]","null","",""
"","","","","","image-button-response","139","540076","0.0-16.0-1.0-0.5","0B40E708E84D44ED847F0DF4AB406A30","0B40E708E84D44ED847F0DF4AB406A30","9ab11ea7-1879-4b9f-bb0f-8b716a6eae94","a0a8f18c-a66e-4ba7-a170-23efbdc67501","{""participantId"":""0B40E708E84D44ED847F0DF4AB406A30"",""assignmentId"":""9ab11ea7-1879-4b9f-bb0f-8b716a6eae94"",""projectId"":""a0a8f18c-a66e-4ba7-a170-23efbdc67501""}","https://test12345.live/?participantId=0B40E708E84D44ED847F0DF4AB406A30&assignmentId=9ab11ea7-1879-4b9f-bb0f-8b716a6eae94&projectId=a0a8f18c-a66e-4ba7-a170-23efbdc67501","0B40E708E84D44ED847F0DF4AB406A30-2024-11-24-19-47-34","","null","","images/schematic_sequence/restaurant_scheme/restaurant_scheme_6.png","null","",""
"","","","","","image-button-response","140","541718","0.0-16.0-1.0-1.5","0B40E708E84D44ED847F0DF4AB406A30","0B40E708E84D44ED847F0DF4AB406A30","9ab11ea7-1879-4b9f-bb0f-8b716a6eae94","a0a8f18c-a66e-4ba7-a170-23efbdc67501","{""participantId"":""0B40E708E84D44ED847F0DF4AB406A30"",""assignmentId"":""9ab11ea7-1879-4b9f-bb0f-8b716a6eae94"",""projectId"":""a0a8f18c-a66e-4ba7-a170-23efbdc67501""}","https://test12345.live/?participantId=0B40E708E84D44ED847F0DF4AB406A30&assignmentId=9ab11ea7-1879-4b9f-bb0f-8b716a6eae94&projectId=a0a8f18c-a66e-4ba7-a170-23efbdc67501","0B40E708E84D44ED847F0DF4AB406A30-2024-11-24-19-47-34","","1641","","images/schematic_sequence/restaurant_scheme/restaurant_scheme_6.png","1","",""
"","","","","","image-button-response","141","543519","0.0-16.0-1.0-2.5","0B40E708E84D44ED847F0DF4AB406A30","0B40E708E84D44ED847F0DF4AB406A30","9ab11ea7-1879-4b9f-bb0f-8b716a6eae94","a0a8f18c-a66e-4ba7-a170-23efbdc67501","{""participantId"":""0B40E708E84D44ED847F0DF4AB406A30"",""assignmentId"":""9ab11ea7-1879-4b9f-bb0f-8b716a6eae94"",""projectId"":""a0a8f18c-a66e-4ba7-a170-23efbdc67501""}","https://test12345.live/?participantId=0B40E708E84D44ED847F0DF4AB406A30&assignmentId=9ab11ea7-1879-4b9f-bb0f-8b716a6eae94&projectId=a0a8f18c-a66e-4ba7-a170-23efbdc67501","0B40E708E84D44ED847F0DF4AB406A30-2024-11-24-19-47-34","","null","","[]","null","",""
"","","","","","image-button-response","142","548034","0.0-16.0-1.0-0.6","0B40E708E84D44ED847F0DF4AB406A30","0B40E708E84D44ED847F0DF4AB406A30","9ab11ea7-1879-4b9f-bb0f-8b716a6eae94","a0a8f18c-a66e-4ba7-a170-23efbdc67501","{""participantId"":""0B40E708E84D44ED847F0DF4AB406A30"",""assignmentId"":""9ab11ea7-1879-4b9f-bb0f-8b716a6eae94"",""projectId"":""a0a8f18c-a66e-4ba7-a170-23efbdc67501""}","https://test12345.live/?participantId=0B40E708E84D44ED847F0DF4AB406A30&assignmentId=9ab11ea7-1879-4b9f-bb0f-8b716a6eae94&projectId=a0a8f18c-a66e-4ba7-a170-23efbdc67501","0B40E708E84D44ED847F0DF4AB406A30-2024-11-24-19-47-34","","null","","images/schematic_sequence/restaurant_scheme/restaurant_scheme_7.png","null","",""
"","","","","","image-button-response","143","549584","0.0-16.0-1.0-1.6","0B40E708E84D44ED847F0DF4AB406A30","0B40E708E84D44ED847F0DF4AB406A30","9ab11ea7-1879-4b9f-bb0f-8b716a6eae94","a0a8f18c-a66e-4ba7-a170-23efbdc67501","{""participantId"":""0B40E708E84D44ED847F0DF4AB406A30"",""assignmentId"":""9ab11ea7-1879-4b9f-bb0f-8b716a6eae94"",""projectId"":""a0a8f18c-a66e-4ba7-a170-23efbdc67501""}","https://test12345.live/?participantId=0B40E708E84D44ED847F0DF4AB406A30&assignmentId=9ab11ea7-1879-4b9f-bb0f-8b716a6eae94&projectId=a0a8f18c-a66e-4ba7-a170-23efbdc67501","0B40E708E84D44ED847F0DF4AB406A30-2024-11-24-19-47-34","","1545","","images/schematic_sequence/restaurant_scheme/restaurant_scheme_7.png","1","",""
