"success","timeout","failed_images","failed_audio","failed_video","trial_type","trial_index","time_elapsed","internal_node_id","subject","subject_id","study_id","session_id","urlvar","current_url","audio_id","view_history","rt","device_id","stimulus","response","estimated_stimulus_onset","seq_name"
"true","false","[]","[]","[]","preload","0","3812","0.0-0.0","0CD71D683D2D4B5CA8CDCAE1B5485AC9","0CD71D683D2D4B5CA8CDCAE1B5485AC9","354afa36-5ed8-40ac-8a17-b363be4b0f1b","051c06f1-75cc-4548-856d-4923ddaba0dc","{""num_scrambled_semantic"":""8"",""num_scrambled_causal"":""4"",""num_scrambled_schematic"":""4"",""participantId"":""0CD71D683D2D4B5CA8CDCAE1B5485AC9"",""assignmentId"":""354afa36-5ed8-40ac-8a17-b363be4b0f1b"",""projectId"":""051c06f1-75cc-4548-856d-4923ddaba0dc""}","https://test12345.live/?num_scrambled_semantic=8&num_scrambled_causal=4&num_scrambled_schematic=4&participantId=0CD71D683D2D4B5CA8CDCAE1B5485AC9&assignmentId=354afa36-5ed8-40ac-8a17-b363be4b0f1b&projectId=051c06f1-75cc-4548-856d-4923ddaba0dc","0CD71D683D2D4B5CA8CDCAE1B5485AC9-2025-05-15-18-53-02","","","","","","",""
"","","","","","instructions","1","10861","0.0-1.0","0CD71D683D2D4B5CA8CDCAE1B5485AC9","0CD71D683D2D4B5CA8CDCAE1B5485AC9","354afa36-5ed8-40ac-8a17-b363be4b0f1b","051c06f1-75cc-4548-856d-4923ddaba0dc","{""num_scrambled_semantic"":""8"",""num_scrambled_causal"":""4"",""num_scrambled_schematic"":""4"",""participantId"":""0CD71D683D2D4B5CA8CDCAE1B5485AC9"",""assignmentId"":""354afa36-5ed8-40ac-8a17-b363be4b0f1b"",""projectId"":""051c06f1-75cc-4548-856d-4923ddaba0dc""}","https://test12345.live/?num_scrambled_semantic=8&num_scrambled_causal=4&num_scrambled_schematic=4&participantId=0CD71D683D2D4B5CA8CDCAE1B5485AC9&assignmentId=354afa36-5ed8-40ac-8a17-b363be4b0f1b&projectId=051c06f1-75cc-4548-856d-4923ddaba0dc","0CD71D683D2D4B5CA8CDCAE1B5485AC9-2025-05-15-18-53-02","[{""page_index"":0,""viewing_time"":7046}]","7048","","","","",""
"","","","","","instructions","2","12962","0.0-2.0","0CD71D683D2D4B5CA8CDCAE1B5485AC9","0CD71D683D2D4B5CA8CDCAE1B5485AC9","354afa36-5ed8-40ac-8a17-b363be4b0f1b","051c06f1-75cc-4548-856d-4923ddaba0dc","{""num_scrambled_semantic"":""8"",""num_scrambled_causal"":""4"",""num_scrambled_schematic"":""4"",""participantId"":""0CD71D683D2D4B5CA8CDCAE1B5485AC9"",""assignmentId"":""354afa36-5ed8-40ac-8a17-b363be4b0f1b"",""projectId"":""051c06f1-75cc-4548-856d-4923ddaba0dc""}","https://test12345.live/?num_scrambled_semantic=8&num_scrambled_causal=4&num_scrambled_schematic=4&participantId=0CD71D683D2D4B5CA8CDCAE1B5485AC9&assignmentId=354afa36-5ed8-40ac-8a17-b363be4b0f1b&projectId=051c06f1-75cc-4548-856d-4923ddaba0dc","0CD71D683D2D4B5CA8CDCAE1B5485AC9-2025-05-15-18-53-02","[{""page_index"":0,""viewing_time"":2100}]","2101","","","","",""
"true","","","","","fullscreen","3","15360","0.0-3.0","0CD71D683D2D4B5CA8CDCAE1B5485AC9","0CD71D683D2D4B5CA8CDCAE1B5485AC9","354afa36-5ed8-40ac-8a17-b363be4b0f1b","051c06f1-75cc-4548-856d-4923ddaba0dc","{""num_scrambled_semantic"":""8"",""num_scrambled_causal"":""4"",""num_scrambled_schematic"":""4"",""participantId"":""0CD71D683D2D4B5CA8CDCAE1B5485AC9"",""assignmentId"":""354afa36-5ed8-40ac-8a17-b363be4b0f1b"",""projectId"":""051c06f1-75cc-4548-856d-4923ddaba0dc""}","https://test12345.live/?num_scrambled_semantic=8&num_scrambled_causal=4&num_scrambled_schematic=4&participantId=0CD71D683D2D4B5CA8CDCAE1B5485AC9&assignmentId=354afa36-5ed8-40ac-8a17-b363be4b0f1b&projectId=051c06f1-75cc-4548-856d-4923ddaba0dc","0CD71D683D2D4B5CA8CDCAE1B5485AC9-2025-05-15-18-53-02","","1396","","","","",""
"","","","","","initialize-microphone","4","20278","0.0-4.0-0.0","0CD71D683D2D4B5CA8CDCAE1B5485AC9","0CD71D683D2D4B5CA8CDCAE1B5485AC9","354afa36-5ed8-40ac-8a17-b363be4b0f1b","051c06f1-75cc-4548-856d-4923ddaba0dc","{""num_scrambled_semantic"":""8"",""num_scrambled_causal"":""4"",""num_scrambled_schematic"":""4"",""participantId"":""0CD71D683D2D4B5CA8CDCAE1B5485AC9"",""assignmentId"":""354afa36-5ed8-40ac-8a17-b363be4b0f1b"",""projectId"":""051c06f1-75cc-4548-856d-4923ddaba0dc""}","https://test12345.live/?num_scrambled_semantic=8&num_scrambled_causal=4&num_scrambled_schematic=4&participantId=0CD71D683D2D4B5CA8CDCAE1B5485AC9&assignmentId=354afa36-5ed8-40ac-8a17-b363be4b0f1b&projectId=051c06f1-75cc-4548-856d-4923ddaba0dc","0CD71D683D2D4B5CA8CDCAE1B5485AC9-2025-05-15-18-53-02","","","80AAD42116E89770205D9A5C9F5249386CA3B8E2","","","",""
"","","","","","html-audio-response","5","32851","0.0-4.0-1.0","0CD71D683D2D4B5CA8CDCAE1B5485AC9","0CD71D683D2D4B5CA8CDCAE1B5485AC9","354afa36-5ed8-40ac-8a17-b363be4b0f1b","051c06f1-75cc-4548-856d-4923ddaba0dc","{""num_scrambled_semantic"":""8"",""num_scrambled_causal"":""4"",""num_scrambled_schematic"":""4"",""participantId"":""0CD71D683D2D4B5CA8CDCAE1B5485AC9"",""assignmentId"":""354afa36-5ed8-40ac-8a17-b363be4b0f1b"",""projectId"":""051c06f1-75cc-4548-856d-4923ddaba0dc""}","https://test12345.live/?num_scrambled_semantic=8&num_scrambled_causal=4&num_scrambled_schematic=4&participantId=0CD71D683D2D4B5CA8CDCAE1B5485AC9&assignmentId=354afa36-5ed8-40ac-8a17-b363be4b0f1b&projectId=051c06f1-75cc-4548-856d-4923ddaba0dc","0CD71D683D2D4B5CA8CDCAE1B5485AC9-2025-05-15-18-53-02","","5388","","<span style=""color: red; font-size: 24px""> NOW RECORDING</span>
        <p>Please test Microphone</p>","","2",""
"","","","","","html-button-response","6","34696","0.0-4.0-2.0","0CD71D683D2D4B5CA8CDCAE1B5485AC9","0CD71D683D2D4B5CA8CDCAE1B5485AC9","354afa36-5ed8-40ac-8a17-b363be4b0f1b","051c06f1-75cc-4548-856d-4923ddaba0dc","{""num_scrambled_semantic"":""8"",""num_scrambled_causal"":""4"",""num_scrambled_schematic"":""4"",""participantId"":""0CD71D683D2D4B5CA8CDCAE1B5485AC9"",""assignmentId"":""354afa36-5ed8-40ac-8a17-b363be4b0f1b"",""projectId"":""051c06f1-75cc-4548-856d-4923ddaba0dc""}","https://test12345.live/?num_scrambled_semantic=8&num_scrambled_causal=4&num_scrambled_schematic=4&participantId=0CD71D683D2D4B5CA8CDCAE1B5485AC9&assignmentId=354afa36-5ed8-40ac-8a17-b363be4b0f1b&projectId=051c06f1-75cc-4548-856d-4923ddaba0dc","0CD71D683D2D4B5CA8CDCAE1B5485AC9-2025-05-15-18-53-02","","1844","","<p style=""font-size:48px; color:red;"">Is Microphone OK?</p>","0","",""
"","","","","","initialize-microphone","7","36778","0.0-4.1-0.1","0CD71D683D2D4B5CA8CDCAE1B5485AC9","0CD71D683D2D4B5CA8CDCAE1B5485AC9","354afa36-5ed8-40ac-8a17-b363be4b0f1b","051c06f1-75cc-4548-856d-4923ddaba0dc","{""num_scrambled_semantic"":""8"",""num_scrambled_causal"":""4"",""num_scrambled_schematic"":""4"",""participantId"":""0CD71D683D2D4B5CA8CDCAE1B5485AC9"",""assignmentId"":""354afa36-5ed8-40ac-8a17-b363be4b0f1b"",""projectId"":""051c06f1-75cc-4548-856d-4923ddaba0dc""}","https://test12345.live/?num_scrambled_semantic=8&num_scrambled_causal=4&num_scrambled_schematic=4&participantId=0CD71D683D2D4B5CA8CDCAE1B5485AC9&assignmentId=354afa36-5ed8-40ac-8a17-b363be4b0f1b&projectId=051c06f1-75cc-4548-856d-4923ddaba0dc","0CD71D683D2D4B5CA8CDCAE1B5485AC9-2025-05-15-18-53-02","","","80AAD42116E89770205D9A5C9F5249386CA3B8E2","","","",""
"","","","","","html-audio-response","8","49727","0.0-4.1-1.1","0CD71D683D2D4B5CA8CDCAE1B5485AC9","0CD71D683D2D4B5CA8CDCAE1B5485AC9","354afa36-5ed8-40ac-8a17-b363be4b0f1b","051c06f1-75cc-4548-856d-4923ddaba0dc","{""num_scrambled_semantic"":""8"",""num_scrambled_causal"":""4"",""num_scrambled_schematic"":""4"",""participantId"":""0CD71D683D2D4B5CA8CDCAE1B5485AC9"",""assignmentId"":""354afa36-5ed8-40ac-8a17-b363be4b0f1b"",""projectId"":""051c06f1-75cc-4548-856d-4923ddaba0dc""}","https://test12345.live/?num_scrambled_semantic=8&num_scrambled_causal=4&num_scrambled_schematic=4&participantId=0CD71D683D2D4B5CA8CDCAE1B5485AC9&assignmentId=354afa36-5ed8-40ac-8a17-b363be4b0f1b&projectId=051c06f1-75cc-4548-856d-4923ddaba0dc","0CD71D683D2D4B5CA8CDCAE1B5485AC9-2025-05-15-18-53-02","","4150","","<span style=""color: red; font-size: 24px""> NOW RECORDING</span>
        <p>Please test Microphone</p>","","1",""
"","","","","","html-button-response","9","50910","0.0-4.1-2.1","0CD71D683D2D4B5CA8CDCAE1B5485AC9","0CD71D683D2D4B5CA8CDCAE1B5485AC9","354afa36-5ed8-40ac-8a17-b363be4b0f1b","051c06f1-75cc-4548-856d-4923ddaba0dc","{""num_scrambled_semantic"":""8"",""num_scrambled_causal"":""4"",""num_scrambled_schematic"":""4"",""participantId"":""0CD71D683D2D4B5CA8CDCAE1B5485AC9"",""assignmentId"":""354afa36-5ed8-40ac-8a17-b363be4b0f1b"",""projectId"":""051c06f1-75cc-4548-856d-4923ddaba0dc""}","https://test12345.live/?num_scrambled_semantic=8&num_scrambled_causal=4&num_scrambled_schematic=4&participantId=0CD71D683D2D4B5CA8CDCAE1B5485AC9&assignmentId=354afa36-5ed8-40ac-8a17-b363be4b0f1b&projectId=051c06f1-75cc-4548-856d-4923ddaba0dc","0CD71D683D2D4B5CA8CDCAE1B5485AC9-2025-05-15-18-53-02","","1181","","<p style=""font-size:48px; color:red;"">Is Microphone OK?</p>","1","",""
"","","","","","instructions","10","54393","0.0-5.0","0CD71D683D2D4B5CA8CDCAE1B5485AC9","0CD71D683D2D4B5CA8CDCAE1B5485AC9","354afa36-5ed8-40ac-8a17-b363be4b0f1b","051c06f1-75cc-4548-856d-4923ddaba0dc","{""num_scrambled_semantic"":""8"",""num_scrambled_causal"":""4"",""num_scrambled_schematic"":""4"",""participantId"":""0CD71D683D2D4B5CA8CDCAE1B5485AC9"",""assignmentId"":""354afa36-5ed8-40ac-8a17-b363be4b0f1b"",""projectId"":""051c06f1-75cc-4548-856d-4923ddaba0dc""}","https://test12345.live/?num_scrambled_semantic=8&num_scrambled_causal=4&num_scrambled_schematic=4&participantId=0CD71D683D2D4B5CA8CDCAE1B5485AC9&assignmentId=354afa36-5ed8-40ac-8a17-b363be4b0f1b&projectId=051c06f1-75cc-4548-856d-4923ddaba0dc","0CD71D683D2D4B5CA8CDCAE1B5485AC9-2025-05-15-18-53-02","[{""page_index"":0,""viewing_time"":1540},{""page_index"":1,""viewing_time"":1942}]","3482","","","","",""
"","","","","","image-button-response","11","60407","0.0-6.0-0.0","0CD71D683D2D4B5CA8CDCAE1B5485AC9","0CD71D683D2D4B5CA8CDCAE1B5485AC9","354afa36-5ed8-40ac-8a17-b363be4b0f1b","051c06f1-75cc-4548-856d-4923ddaba0dc","{""num_scrambled_semantic"":""8"",""num_scrambled_causal"":""4"",""num_scrambled_schematic"":""4"",""participantId"":""0CD71D683D2D4B5CA8CDCAE1B5485AC9"",""assignmentId"":""354afa36-5ed8-40ac-8a17-b363be4b0f1b"",""projectId"":""051c06f1-75cc-4548-856d-4923ddaba0dc""}","https://test12345.live/?num_scrambled_semantic=8&num_scrambled_causal=4&num_scrambled_schematic=4&participantId=0CD71D683D2D4B5CA8CDCAE1B5485AC9&assignmentId=354afa36-5ed8-40ac-8a17-b363be4b0f1b&projectId=051c06f1-75cc-4548-856d-4923ddaba0dc","0CD71D683D2D4B5CA8CDCAE1B5485AC9-2025-05-15-18-53-02","","null","","images/instructions/movie_0.png","null","",""
"","","","","","image-button-response","12","64934","0.0-6.0-1.0-0.0","0CD71D683D2D4B5CA8CDCAE1B5485AC9","0CD71D683D2D4B5CA8CDCAE1B5485AC9","354afa36-5ed8-40ac-8a17-b363be4b0f1b","051c06f1-75cc-4548-856d-4923ddaba0dc","{""num_scrambled_semantic"":""8"",""num_scrambled_causal"":""4"",""num_scrambled_schematic"":""4"",""participantId"":""0CD71D683D2D4B5CA8CDCAE1B5485AC9"",""assignmentId"":""354afa36-5ed8-40ac-8a17-b363be4b0f1b"",""projectId"":""051c06f1-75cc-4548-856d-4923ddaba0dc""}","https://test12345.live/?num_scrambled_semantic=8&num_scrambled_causal=4&num_scrambled_schematic=4&participantId=0CD71D683D2D4B5CA8CDCAE1B5485AC9&assignmentId=354afa36-5ed8-40ac-8a17-b363be4b0f1b&projectId=051c06f1-75cc-4548-856d-4923ddaba0dc","0CD71D683D2D4B5CA8CDCAE1B5485AC9-2025-05-15-18-53-02","","null","","images/instructions/movie_1.png","null","",""
"","","","","","image-button-response","13","67260","0.0-6.0-1.0-1.0","0CD71D683D2D4B5CA8CDCAE1B5485AC9","0CD71D683D2D4B5CA8CDCAE1B5485AC9","354afa36-5ed8-40ac-8a17-b363be4b0f1b","051c06f1-75cc-4548-856d-4923ddaba0dc","{""num_scrambled_semantic"":""8"",""num_scrambled_causal"":""4"",""num_scrambled_schematic"":""4"",""participantId"":""0CD71D683D2D4B5CA8CDCAE1B5485AC9"",""assignmentId"":""354afa36-5ed8-40ac-8a17-b363be4b0f1b"",""projectId"":""051c06f1-75cc-4548-856d-4923ddaba0dc""}","https://test12345.live/?num_scrambled_semantic=8&num_scrambled_causal=4&num_scrambled_schematic=4&participantId=0CD71D683D2D4B5CA8CDCAE1B5485AC9&assignmentId=354afa36-5ed8-40ac-8a17-b363be4b0f1b&projectId=051c06f1-75cc-4548-856d-4923ddaba0dc","0CD71D683D2D4B5CA8CDCAE1B5485AC9-2025-05-15-18-53-02","","2325","","images/instructions/movie_1.png","0","",""
"","","","","","image-button-response","14","69062","0.0-6.0-1.0-2.0","0CD71D683D2D4B5CA8CDCAE1B5485AC9","0CD71D683D2D4B5CA8CDCAE1B5485AC9","354afa36-5ed8-40ac-8a17-b363be4b0f1b","051c06f1-75cc-4548-856d-4923ddaba0dc","{""num_scrambled_semantic"":""8"",""num_scrambled_causal"":""4"",""num_scrambled_schematic"":""4"",""participantId"":""0CD71D683D2D4B5CA8CDCAE1B5485AC9"",""assignmentId"":""354afa36-5ed8-40ac-8a17-b363be4b0f1b"",""projectId"":""051c06f1-75cc-4548-856d-4923ddaba0dc""}","https://test12345.live/?num_scrambled_semantic=8&num_scrambled_causal=4&num_scrambled_schematic=4&participantId=0CD71D683D2D4B5CA8CDCAE1B5485AC9&assignmentId=354afa36-5ed8-40ac-8a17-b363be4b0f1b&projectId=051c06f1-75cc-4548-856d-4923ddaba0dc","0CD71D683D2D4B5CA8CDCAE1B5485AC9-2025-05-15-18-53-02","","null","","[]","null","",""
"","","","","","image-button-response","15","73584","0.0-6.0-1.0-0.1","0CD71D683D2D4B5CA8CDCAE1B5485AC9","0CD71D683D2D4B5CA8CDCAE1B5485AC9","354afa36-5ed8-40ac-8a17-b363be4b0f1b","051c06f1-75cc-4548-856d-4923ddaba0dc","{""num_scrambled_semantic"":""8"",""num_scrambled_causal"":""4"",""num_scrambled_schematic"":""4"",""participantId"":""0CD71D683D2D4B5CA8CDCAE1B5485AC9"",""assignmentId"":""354afa36-5ed8-40ac-8a17-b363be4b0f1b"",""projectId"":""051c06f1-75cc-4548-856d-4923ddaba0dc""}","https://test12345.live/?num_scrambled_semantic=8&num_scrambled_causal=4&num_scrambled_schematic=4&participantId=0CD71D683D2D4B5CA8CDCAE1B5485AC9&assignmentId=354afa36-5ed8-40ac-8a17-b363be4b0f1b&projectId=051c06f1-75cc-4548-856d-4923ddaba0dc","0CD71D683D2D4B5CA8CDCAE1B5485AC9-2025-05-15-18-53-02","","null","","images/instructions/movie_2.png","null","",""
"","","","","","image-button-response","16","75326","0.0-6.0-1.0-1.1","0CD71D683D2D4B5CA8CDCAE1B5485AC9","0CD71D683D2D4B5CA8CDCAE1B5485AC9","354afa36-5ed8-40ac-8a17-b363be4b0f1b","051c06f1-75cc-4548-856d-4923ddaba0dc","{""num_scrambled_semantic"":""8"",""num_scrambled_causal"":""4"",""num_scrambled_schematic"":""4"",""participantId"":""0CD71D683D2D4B5CA8CDCAE1B5485AC9"",""assignmentId"":""354afa36-5ed8-40ac-8a17-b363be4b0f1b"",""projectId"":""051c06f1-75cc-4548-856d-4923ddaba0dc""}","https://test12345.live/?num_scrambled_semantic=8&num_scrambled_causal=4&num_scrambled_schematic=4&participantId=0CD71D683D2D4B5CA8CDCAE1B5485AC9&assignmentId=354afa36-5ed8-40ac-8a17-b363be4b0f1b&projectId=051c06f1-75cc-4548-856d-4923ddaba0dc","0CD71D683D2D4B5CA8CDCAE1B5485AC9-2025-05-15-18-53-02","","1740","","images/instructions/movie_2.png","1","",""
"","","","","","image-button-response","17","77128","0.0-6.0-1.0-2.1","0CD71D683D2D4B5CA8CDCAE1B5485AC9","0CD71D683D2D4B5CA8CDCAE1B5485AC9","354afa36-5ed8-40ac-8a17-b363be4b0f1b","051c06f1-75cc-4548-856d-4923ddaba0dc","{""num_scrambled_semantic"":""8"",""num_scrambled_causal"":""4"",""num_scrambled_schematic"":""4"",""participantId"":""0CD71D683D2D4B5CA8CDCAE1B5485AC9"",""assignmentId"":""354afa36-5ed8-40ac-8a17-b363be4b0f1b"",""projectId"":""051c06f1-75cc-4548-856d-4923ddaba0dc""}","https://test12345.live/?num_scrambled_semantic=8&num_scrambled_causal=4&num_scrambled_schematic=4&participantId=0CD71D683D2D4B5CA8CDCAE1B5485AC9&assignmentId=354afa36-5ed8-40ac-8a17-b363be4b0f1b&projectId=051c06f1-75cc-4548-856d-4923ddaba0dc","0CD71D683D2D4B5CA8CDCAE1B5485AC9-2025-05-15-18-53-02","","null","","[]","null","",""
"","","","","","image-button-response","18","81652","0.0-6.0-1.0-0.2","0CD71D683D2D4B5CA8CDCAE1B5485AC9","0CD71D683D2D4B5CA8CDCAE1B5485AC9","354afa36-5ed8-40ac-8a17-b363be4b0f1b","051c06f1-75cc-4548-856d-4923ddaba0dc","{""num_scrambled_semantic"":""8"",""num_scrambled_causal"":""4"",""num_scrambled_schematic"":""4"",""participantId"":""0CD71D683D2D4B5CA8CDCAE1B5485AC9"",""assignmentId"":""354afa36-5ed8-40ac-8a17-b363be4b0f1b"",""projectId"":""051c06f1-75cc-4548-856d-4923ddaba0dc""}","https://test12345.live/?num_scrambled_semantic=8&num_scrambled_causal=4&num_scrambled_schematic=4&participantId=0CD71D683D2D4B5CA8CDCAE1B5485AC9&assignmentId=354afa36-5ed8-40ac-8a17-b363be4b0f1b&projectId=051c06f1-75cc-4548-856d-4923ddaba0dc","0CD71D683D2D4B5CA8CDCAE1B5485AC9-2025-05-15-18-53-02","","null","","images/instructions/movie_3.png","null","",""
"","","","","","image-button-response","19","82709","0.0-6.0-1.0-1.2","0CD71D683D2D4B5CA8CDCAE1B5485AC9","0CD71D683D2D4B5CA8CDCAE1B5485AC9","354afa36-5ed8-40ac-8a17-b363be4b0f1b","051c06f1-75cc-4548-856d-4923ddaba0dc","{""num_scrambled_semantic"":""8"",""num_scrambled_causal"":""4"",""num_scrambled_schematic"":""4"",""participantId"":""0CD71D683D2D4B5CA8CDCAE1B5485AC9"",""assignmentId"":""354afa36-5ed8-40ac-8a17-b363be4b0f1b"",""projectId"":""051c06f1-75cc-4548-856d-4923ddaba0dc""}","https://test12345.live/?num_scrambled_semantic=8&num_scrambled_causal=4&num_scrambled_schematic=4&participantId=0CD71D683D2D4B5CA8CDCAE1B5485AC9&assignmentId=354afa36-5ed8-40ac-8a17-b363be4b0f1b&projectId=051c06f1-75cc-4548-856d-4923ddaba0dc","0CD71D683D2D4B5CA8CDCAE1B5485AC9-2025-05-15-18-53-02","","1055","","images/instructions/movie_3.png","0","",""
"","","","","","image-button-response","20","84511","0.0-6.0-1.0-2.2","0CD71D683D2D4B5CA8CDCAE1B5485AC9","0CD71D683D2D4B5CA8CDCAE1B5485AC9","354afa36-5ed8-40ac-8a17-b363be4b0f1b","051c06f1-75cc-4548-856d-4923ddaba0dc","{""num_scrambled_semantic"":""8"",""num_scrambled_causal"":""4"",""num_scrambled_schematic"":""4"",""participantId"":""0CD71D683D2D4B5CA8CDCAE1B5485AC9"",""assignmentId"":""354afa36-5ed8-40ac-8a17-b363be4b0f1b"",""projectId"":""051c06f1-75cc-4548-856d-4923ddaba0dc""}","https://test12345.live/?num_scrambled_semantic=8&num_scrambled_causal=4&num_scrambled_schematic=4&participantId=0CD71D683D2D4B5CA8CDCAE1B5485AC9&assignmentId=354afa36-5ed8-40ac-8a17-b363be4b0f1b&projectId=051c06f1-75cc-4548-856d-4923ddaba0dc","0CD71D683D2D4B5CA8CDCAE1B5485AC9-2025-05-15-18-53-02","","null","","[]","null","",""
"","","","","","image-button-response","21","89037","0.0-6.0-1.0-0.3","0CD71D683D2D4B5CA8CDCAE1B5485AC9","0CD71D683D2D4B5CA8CDCAE1B5485AC9","354afa36-5ed8-40ac-8a17-b363be4b0f1b","051c06f1-75cc-4548-856d-4923ddaba0dc","{""num_scrambled_semantic"":""8"",""num_scrambled_causal"":""4"",""num_scrambled_schematic"":""4"",""participantId"":""0CD71D683D2D4B5CA8CDCAE1B5485AC9"",""assignmentId"":""354afa36-5ed8-40ac-8a17-b363be4b0f1b"",""projectId"":""051c06f1-75cc-4548-856d-4923ddaba0dc""}","https://test12345.live/?num_scrambled_semantic=8&num_scrambled_causal=4&num_scrambled_schematic=4&participantId=0CD71D683D2D4B5CA8CDCAE1B5485AC9&assignmentId=354afa36-5ed8-40ac-8a17-b363be4b0f1b&projectId=051c06f1-75cc-4548-856d-4923ddaba0dc","0CD71D683D2D4B5CA8CDCAE1B5485AC9-2025-05-15-18-53-02","","null","","images/instructions/movie_4.png","null","",""
"","","","","","image-button-response","22","92409","0.0-6.0-1.0-1.3","0CD71D683D2D4B5CA8CDCAE1B5485AC9","0CD71D683D2D4B5CA8CDCAE1B5485AC9","354afa36-5ed8-40ac-8a17-b363be4b0f1b","051c06f1-75cc-4548-856d-4923ddaba0dc","{""num_scrambled_semantic"":""8"",""num_scrambled_causal"":""4"",""num_scrambled_schematic"":""4"",""participantId"":""0CD71D683D2D4B5CA8CDCAE1B5485AC9"",""assignmentId"":""354afa36-5ed8-40ac-8a17-b363be4b0f1b"",""projectId"":""051c06f1-75cc-4548-856d-4923ddaba0dc""}","https://test12345.live/?num_scrambled_semantic=8&num_scrambled_causal=4&num_scrambled_schematic=4&participantId=0CD71D683D2D4B5CA8CDCAE1B5485AC9&assignmentId=354afa36-5ed8-40ac-8a17-b363be4b0f1b&projectId=051c06f1-75cc-4548-856d-4923ddaba0dc","0CD71D683D2D4B5CA8CDCAE1B5485AC9-2025-05-15-18-53-02","","3370","","images/instructions/movie_4.png","0","",""
"","","","","","image-button-response","23","94211","0.0-6.0-1.0-2.3","0CD71D683D2D4B5CA8CDCAE1B5485AC9","0CD71D683D2D4B5CA8CDCAE1B5485AC9","354afa36-5ed8-40ac-8a17-b363be4b0f1b","051c06f1-75cc-4548-856d-4923ddaba0dc","{""num_scrambled_semantic"":""8"",""num_scrambled_causal"":""4"",""num_scrambled_schematic"":""4"",""participantId"":""0CD71D683D2D4B5CA8CDCAE1B5485AC9"",""assignmentId"":""354afa36-5ed8-40ac-8a17-b363be4b0f1b"",""projectId"":""051c06f1-75cc-4548-856d-4923ddaba0dc""}","https://test12345.live/?num_scrambled_semantic=8&num_scrambled_causal=4&num_scrambled_schematic=4&participantId=0CD71D683D2D4B5CA8CDCAE1B5485AC9&assignmentId=354afa36-5ed8-40ac-8a17-b363be4b0f1b&projectId=051c06f1-75cc-4548-856d-4923ddaba0dc","0CD71D683D2D4B5CA8CDCAE1B5485AC9-2025-05-15-18-53-02","","null","","[]","null","",""
"","","","","","instructions","24","98062","0.0-7.0","0CD71D683D2D4B5CA8CDCAE1B5485AC9","0CD71D683D2D4B5CA8CDCAE1B5485AC9","354afa36-5ed8-40ac-8a17-b363be4b0f1b","051c06f1-75cc-4548-856d-4923ddaba0dc","{""num_scrambled_semantic"":""8"",""num_scrambled_causal"":""4"",""num_scrambled_schematic"":""4"",""participantId"":""0CD71D683D2D4B5CA8CDCAE1B5485AC9"",""assignmentId"":""354afa36-5ed8-40ac-8a17-b363be4b0f1b"",""projectId"":""051c06f1-75cc-4548-856d-4923ddaba0dc""}","https://test12345.live/?num_scrambled_semantic=8&num_scrambled_causal=4&num_scrambled_schematic=4&participantId=0CD71D683D2D4B5CA8CDCAE1B5485AC9&assignmentId=354afa36-5ed8-40ac-8a17-b363be4b0f1b&projectId=051c06f1-75cc-4548-856d-4923ddaba0dc","0CD71D683D2D4B5CA8CDCAE1B5485AC9-2025-05-15-18-53-02","[{""page_index"":0,""viewing_time"":3150},{""page_index"":1,""viewing_time"":700}]","3850","","","","",""
"","","","","","html-audio-response","25","118688","0.0-8.0","0CD71D683D2D4B5CA8CDCAE1B5485AC9","0CD71D683D2D4B5CA8CDCAE1B5485AC9","354afa36-5ed8-40ac-8a17-b363be4b0f1b","051c06f1-75cc-4548-856d-4923ddaba0dc","{""num_scrambled_semantic"":""8"",""num_scrambled_causal"":""4"",""num_scrambled_schematic"":""4"",""participantId"":""0CD71D683D2D4B5CA8CDCAE1B5485AC9"",""assignmentId"":""354afa36-5ed8-40ac-8a17-b363be4b0f1b"",""projectId"":""051c06f1-75cc-4548-856d-4923ddaba0dc""}","https://test12345.live/?num_scrambled_semantic=8&num_scrambled_causal=4&num_scrambled_schematic=4&participantId=0CD71D683D2D4B5CA8CDCAE1B5485AC9&assignmentId=354afa36-5ed8-40ac-8a17-b363be4b0f1b&projectId=051c06f1-75cc-4548-856d-4923ddaba0dc","0CD71D683D2D4B5CA8CDCAE1B5485AC9-2025-05-15-18-53-02","","12639","","[""<span style=\""color: red; font-size: 24px\""> NOW RECORDING</span><p>Please say out loud all the images you saw, as many as you can remember. The images can be said in any order.</p>""]","","2",""
"","","","","","instructions","26","120297","0.0-9.0","0CD71D683D2D4B5CA8CDCAE1B5485AC9","0CD71D683D2D4B5CA8CDCAE1B5485AC9","354afa36-5ed8-40ac-8a17-b363be4b0f1b","051c06f1-75cc-4548-856d-4923ddaba0dc","{""num_scrambled_semantic"":""8"",""num_scrambled_causal"":""4"",""num_scrambled_schematic"":""4"",""participantId"":""0CD71D683D2D4B5CA8CDCAE1B5485AC9"",""assignmentId"":""354afa36-5ed8-40ac-8a17-b363be4b0f1b"",""projectId"":""051c06f1-75cc-4548-856d-4923ddaba0dc""}","https://test12345.live/?num_scrambled_semantic=8&num_scrambled_causal=4&num_scrambled_schematic=4&participantId=0CD71D683D2D4B5CA8CDCAE1B5485AC9&assignmentId=354afa36-5ed8-40ac-8a17-b363be4b0f1b&projectId=051c06f1-75cc-4548-856d-4923ddaba0dc","0CD71D683D2D4B5CA8CDCAE1B5485AC9-2025-05-15-18-53-02","[{""page_index"":0,""viewing_time"":1604}]","1604","","","","",""
"","","","","","image-button-response","27","126313","0.0-10.0-0.0","0CD71D683D2D4B5CA8CDCAE1B5485AC9","0CD71D683D2D4B5CA8CDCAE1B5485AC9","354afa36-5ed8-40ac-8a17-b363be4b0f1b","051c06f1-75cc-4548-856d-4923ddaba0dc","{""num_scrambled_semantic"":""8"",""num_scrambled_causal"":""4"",""num_scrambled_schematic"":""4"",""participantId"":""0CD71D683D2D4B5CA8CDCAE1B5485AC9"",""assignmentId"":""354afa36-5ed8-40ac-8a17-b363be4b0f1b"",""projectId"":""051c06f1-75cc-4548-856d-4923ddaba0dc""}","https://test12345.live/?num_scrambled_semantic=8&num_scrambled_causal=4&num_scrambled_schematic=4&participantId=0CD71D683D2D4B5CA8CDCAE1B5485AC9&assignmentId=354afa36-5ed8-40ac-8a17-b363be4b0f1b&projectId=051c06f1-75cc-4548-856d-4923ddaba0dc","0CD71D683D2D4B5CA8CDCAE1B5485AC9-2025-05-15-18-53-02","","null","","images/semantic_sequence/kitchen_operations_semantic/kitchen_operations_semantic_0.png","null","",""
"","","","","","image-button-response","28","130833","0.0-10.0-1.0-0.0","0CD71D683D2D4B5CA8CDCAE1B5485AC9","0CD71D683D2D4B5CA8CDCAE1B5485AC9","354afa36-5ed8-40ac-8a17-b363be4b0f1b","051c06f1-75cc-4548-856d-4923ddaba0dc","{""num_scrambled_semantic"":""8"",""num_scrambled_causal"":""4"",""num_scrambled_schematic"":""4"",""participantId"":""0CD71D683D2D4B5CA8CDCAE1B5485AC9"",""assignmentId"":""354afa36-5ed8-40ac-8a17-b363be4b0f1b"",""projectId"":""051c06f1-75cc-4548-856d-4923ddaba0dc""}","https://test12345.live/?num_scrambled_semantic=8&num_scrambled_causal=4&num_scrambled_schematic=4&participantId=0CD71D683D2D4B5CA8CDCAE1B5485AC9&assignmentId=354afa36-5ed8-40ac-8a17-b363be4b0f1b&projectId=051c06f1-75cc-4548-856d-4923ddaba0dc","0CD71D683D2D4B5CA8CDCAE1B5485AC9-2025-05-15-18-53-02","","null","","images/semantic_sequence/kitchen_operations_semantic/kitchen_operations_semantic_1.png","null","",""
"","","","","","image-button-response","29","132849","0.0-10.0-1.0-1.0","0CD71D683D2D4B5CA8CDCAE1B5485AC9","0CD71D683D2D4B5CA8CDCAE1B5485AC9","354afa36-5ed8-40ac-8a17-b363be4b0f1b","051c06f1-75cc-4548-856d-4923ddaba0dc","{""num_scrambled_semantic"":""8"",""num_scrambled_causal"":""4"",""num_scrambled_schematic"":""4"",""participantId"":""0CD71D683D2D4B5CA8CDCAE1B5485AC9"",""assignmentId"":""354afa36-5ed8-40ac-8a17-b363be4b0f1b"",""projectId"":""051c06f1-75cc-4548-856d-4923ddaba0dc""}","https://test12345.live/?num_scrambled_semantic=8&num_scrambled_causal=4&num_scrambled_schematic=4&participantId=0CD71D683D2D4B5CA8CDCAE1B5485AC9&assignmentId=354afa36-5ed8-40ac-8a17-b363be4b0f1b&projectId=051c06f1-75cc-4548-856d-4923ddaba0dc","0CD71D683D2D4B5CA8CDCAE1B5485AC9-2025-05-15-18-53-02","","2013","","images/semantic_sequence/kitchen_operations_semantic/kitchen_operations_semantic_1.png","0","",""
"","","","","","image-button-response","30","134651","0.0-10.0-1.0-2.0","0CD71D683D2D4B5CA8CDCAE1B5485AC9","0CD71D683D2D4B5CA8CDCAE1B5485AC9","354afa36-5ed8-40ac-8a17-b363be4b0f1b","051c06f1-75cc-4548-856d-4923ddaba0dc","{""num_scrambled_semantic"":""8"",""num_scrambled_causal"":""4"",""num_scrambled_schematic"":""4"",""participantId"":""0CD71D683D2D4B5CA8CDCAE1B5485AC9"",""assignmentId"":""354afa36-5ed8-40ac-8a17-b363be4b0f1b"",""projectId"":""051c06f1-75cc-4548-856d-4923ddaba0dc""}","https://test12345.live/?num_scrambled_semantic=8&num_scrambled_causal=4&num_scrambled_schematic=4&participantId=0CD71D683D2D4B5CA8CDCAE1B5485AC9&assignmentId=354afa36-5ed8-40ac-8a17-b363be4b0f1b&projectId=051c06f1-75cc-4548-856d-4923ddaba0dc","0CD71D683D2D4B5CA8CDCAE1B5485AC9-2025-05-15-18-53-02","","null","","[]","null","",""
"","","","","","image-button-response","31","139176","0.0-10.0-1.0-0.1","0CD71D683D2D4B5CA8CDCAE1B5485AC9","0CD71D683D2D4B5CA8CDCAE1B5485AC9","354afa36-5ed8-40ac-8a17-b363be4b0f1b","051c06f1-75cc-4548-856d-4923ddaba0dc","{""num_scrambled_semantic"":""8"",""num_scrambled_causal"":""4"",""num_scrambled_schematic"":""4"",""participantId"":""0CD71D683D2D4B5CA8CDCAE1B5485AC9"",""assignmentId"":""354afa36-5ed8-40ac-8a17-b363be4b0f1b"",""projectId"":""051c06f1-75cc-4548-856d-4923ddaba0dc""}","https://test12345.live/?num_scrambled_semantic=8&num_scrambled_causal=4&num_scrambled_schematic=4&participantId=0CD71D683D2D4B5CA8CDCAE1B5485AC9&assignmentId=354afa36-5ed8-40ac-8a17-b363be4b0f1b&projectId=051c06f1-75cc-4548-856d-4923ddaba0dc","0CD71D683D2D4B5CA8CDCAE1B5485AC9-2025-05-15-18-53-02","","null","","images/semantic_sequence/kitchen_operations_semantic/kitchen_operations_semantic_8.png","null","",""
"","","","","","image-button-response","32","143179","0.0-10.0-1.0-1.1","0CD71D683D2D4B5CA8CDCAE1B5485AC9","0CD71D683D2D4B5CA8CDCAE1B5485AC9","354afa36-5ed8-40ac-8a17-b363be4b0f1b","051c06f1-75cc-4548-856d-4923ddaba0dc","{""num_scrambled_semantic"":""8"",""num_scrambled_causal"":""4"",""num_scrambled_schematic"":""4"",""participantId"":""0CD71D683D2D4B5CA8CDCAE1B5485AC9"",""assignmentId"":""354afa36-5ed8-40ac-8a17-b363be4b0f1b"",""projectId"":""051c06f1-75cc-4548-856d-4923ddaba0dc""}","https://test12345.live/?num_scrambled_semantic=8&num_scrambled_causal=4&num_scrambled_schematic=4&participantId=0CD71D683D2D4B5CA8CDCAE1B5485AC9&assignmentId=354afa36-5ed8-40ac-8a17-b363be4b0f1b&projectId=051c06f1-75cc-4548-856d-4923ddaba0dc","0CD71D683D2D4B5CA8CDCAE1B5485AC9-2025-05-15-18-53-02","","null","","images/semantic_sequence/kitchen_operations_semantic/kitchen_operations_semantic_8.png","null","",""
"","","","","","image-button-response","33","144981","0.0-10.0-1.0-2.1","0CD71D683D2D4B5CA8CDCAE1B5485AC9","0CD71D683D2D4B5CA8CDCAE1B5485AC9","354afa36-5ed8-40ac-8a17-b363be4b0f1b","051c06f1-75cc-4548-856d-4923ddaba0dc","{""num_scrambled_semantic"":""8"",""num_scrambled_causal"":""4"",""num_scrambled_schematic"":""4"",""participantId"":""0CD71D683D2D4B5CA8CDCAE1B5485AC9"",""assignmentId"":""354afa36-5ed8-40ac-8a17-b363be4b0f1b"",""projectId"":""051c06f1-75cc-4548-856d-4923ddaba0dc""}","https://test12345.live/?num_scrambled_semantic=8&num_scrambled_causal=4&num_scrambled_schematic=4&participantId=0CD71D683D2D4B5CA8CDCAE1B5485AC9&assignmentId=354afa36-5ed8-40ac-8a17-b363be4b0f1b&projectId=051c06f1-75cc-4548-856d-4923ddaba0dc","0CD71D683D2D4B5CA8CDCAE1B5485AC9-2025-05-15-18-53-02","","null","","[]","null","",""
"","","","","","image-button-response","34","149502","0.0-10.0-1.0-0.2","0CD71D683D2D4B5CA8CDCAE1B5485AC9","0CD71D683D2D4B5CA8CDCAE1B5485AC9","354afa36-5ed8-40ac-8a17-b363be4b0f1b","051c06f1-75cc-4548-856d-4923ddaba0dc","{""num_scrambled_semantic"":""8"",""num_scrambled_causal"":""4"",""num_scrambled_schematic"":""4"",""participantId"":""0CD71D683D2D4B5CA8CDCAE1B5485AC9"",""assignmentId"":""354afa36-5ed8-40ac-8a17-b363be4b0f1b"",""projectId"":""051c06f1-75cc-4548-856d-4923ddaba0dc""}","https://test12345.live/?num_scrambled_semantic=8&num_scrambled_causal=4&num_scrambled_schematic=4&participantId=0CD71D683D2D4B5CA8CDCAE1B5485AC9&assignmentId=354afa36-5ed8-40ac-8a17-b363be4b0f1b&projectId=051c06f1-75cc-4548-856d-4923ddaba0dc","0CD71D683D2D4B5CA8CDCAE1B5485AC9-2025-05-15-18-53-02","","null","","images/semantic_sequence/kitchen_operations_semantic/kitchen_operations_semantic_ten.png","null","",""
"","","","","","image-button-response","35","150533","0.0-10.0-1.0-1.2","0CD71D683D2D4B5CA8CDCAE1B5485AC9","0CD71D683D2D4B5CA8CDCAE1B5485AC9","354afa36-5ed8-40ac-8a17-b363be4b0f1b","051c06f1-75cc-4548-856d-4923ddaba0dc","{""num_scrambled_semantic"":""8"",""num_scrambled_causal"":""4"",""num_scrambled_schematic"":""4"",""participantId"":""0CD71D683D2D4B5CA8CDCAE1B5485AC9"",""assignmentId"":""354afa36-5ed8-40ac-8a17-b363be4b0f1b"",""projectId"":""051c06f1-75cc-4548-856d-4923ddaba0dc""}","https://test12345.live/?num_scrambled_semantic=8&num_scrambled_causal=4&num_scrambled_schematic=4&participantId=0CD71D683D2D4B5CA8CDCAE1B5485AC9&assignmentId=354afa36-5ed8-40ac-8a17-b363be4b0f1b&projectId=051c06f1-75cc-4548-856d-4923ddaba0dc","0CD71D683D2D4B5CA8CDCAE1B5485AC9-2025-05-15-18-53-02","","1030","","images/semantic_sequence/kitchen_operations_semantic/kitchen_operations_semantic_ten.png","0","",""
"","","","","","image-button-response","36","152336","0.0-10.0-1.0-2.2","0CD71D683D2D4B5CA8CDCAE1B5485AC9","0CD71D683D2D4B5CA8CDCAE1B5485AC9","354afa36-5ed8-40ac-8a17-b363be4b0f1b","051c06f1-75cc-4548-856d-4923ddaba0dc","{""num_scrambled_semantic"":""8"",""num_scrambled_causal"":""4"",""num_scrambled_schematic"":""4"",""participantId"":""0CD71D683D2D4B5CA8CDCAE1B5485AC9"",""assignmentId"":""354afa36-5ed8-40ac-8a17-b363be4b0f1b"",""projectId"":""051c06f1-75cc-4548-856d-4923ddaba0dc""}","https://test12345.live/?num_scrambled_semantic=8&num_scrambled_causal=4&num_scrambled_schematic=4&participantId=0CD71D683D2D4B5CA8CDCAE1B5485AC9&assignmentId=354afa36-5ed8-40ac-8a17-b363be4b0f1b&projectId=051c06f1-75cc-4548-856d-4923ddaba0dc","0CD71D683D2D4B5CA8CDCAE1B5485AC9-2025-05-15-18-53-02","","null","","[]","null","",""
"","","","","","image-button-response","37","156857","0.0-10.0-1.0-0.3","0CD71D683D2D4B5CA8CDCAE1B5485AC9","0CD71D683D2D4B5CA8CDCAE1B5485AC9","354afa36-5ed8-40ac-8a17-b363be4b0f1b","051c06f1-75cc-4548-856d-4923ddaba0dc","{""num_scrambled_semantic"":""8"",""num_scrambled_causal"":""4"",""num_scrambled_schematic"":""4"",""participantId"":""0CD71D683D2D4B5CA8CDCAE1B5485AC9"",""assignmentId"":""354afa36-5ed8-40ac-8a17-b363be4b0f1b"",""projectId"":""051c06f1-75cc-4548-856d-4923ddaba0dc""}","https://test12345.live/?num_scrambled_semantic=8&num_scrambled_causal=4&num_scrambled_schematic=4&participantId=0CD71D683D2D4B5CA8CDCAE1B5485AC9&assignmentId=354afa36-5ed8-40ac-8a17-b363be4b0f1b&projectId=051c06f1-75cc-4548-856d-4923ddaba0dc","0CD71D683D2D4B5CA8CDCAE1B5485AC9-2025-05-15-18-53-02","","null","","images/semantic_sequence/kitchen_operations_semantic/kitchen_operations_semantic_6.png","null","",""
"","","","","","image-button-response","38","160860","0.0-10.0-1.0-1.3","0CD71D683D2D4B5CA8CDCAE1B5485AC9","0CD71D683D2D4B5CA8CDCAE1B5485AC9","354afa36-5ed8-40ac-8a17-b363be4b0f1b","051c06f1-75cc-4548-856d-4923ddaba0dc","{""num_scrambled_semantic"":""8"",""num_scrambled_causal"":""4"",""num_scrambled_schematic"":""4"",""participantId"":""0CD71D683D2D4B5CA8CDCAE1B5485AC9"",""assignmentId"":""354afa36-5ed8-40ac-8a17-b363be4b0f1b"",""projectId"":""051c06f1-75cc-4548-856d-4923ddaba0dc""}","https://test12345.live/?num_scrambled_semantic=8&num_scrambled_causal=4&num_scrambled_schematic=4&participantId=0CD71D683D2D4B5CA8CDCAE1B5485AC9&assignmentId=354afa36-5ed8-40ac-8a17-b363be4b0f1b&projectId=051c06f1-75cc-4548-856d-4923ddaba0dc","0CD71D683D2D4B5CA8CDCAE1B5485AC9-2025-05-15-18-53-02","","null","","images/semantic_sequence/kitchen_operations_semantic/kitchen_operations_semantic_6.png","null","",""
"","","","","","image-button-response","39","162662","0.0-10.0-1.0-2.3","0CD71D683D2D4B5CA8CDCAE1B5485AC9","0CD71D683D2D4B5CA8CDCAE1B5485AC9","354afa36-5ed8-40ac-8a17-b363be4b0f1b","051c06f1-75cc-4548-856d-4923ddaba0dc","{""num_scrambled_semantic"":""8"",""num_scrambled_causal"":""4"",""num_scrambled_schematic"":""4"",""participantId"":""0CD71D683D2D4B5CA8CDCAE1B5485AC9"",""assignmentId"":""354afa36-5ed8-40ac-8a17-b363be4b0f1b"",""projectId"":""051c06f1-75cc-4548-856d-4923ddaba0dc""}","https://test12345.live/?num_scrambled_semantic=8&num_scrambled_causal=4&num_scrambled_schematic=4&participantId=0CD71D683D2D4B5CA8CDCAE1B5485AC9&assignmentId=354afa36-5ed8-40ac-8a17-b363be4b0f1b&projectId=051c06f1-75cc-4548-856d-4923ddaba0dc","0CD71D683D2D4B5CA8CDCAE1B5485AC9-2025-05-15-18-53-02","","null","","[]","null","",""
"","","","","","image-button-response","40","167183","0.0-10.0-1.0-0.4","0CD71D683D2D4B5CA8CDCAE1B5485AC9","0CD71D683D2D4B5CA8CDCAE1B5485AC9","354afa36-5ed8-40ac-8a17-b363be4b0f1b","051c06f1-75cc-4548-856d-4923ddaba0dc","{""num_scrambled_semantic"":""8"",""num_scrambled_causal"":""4"",""num_scrambled_schematic"":""4"",""participantId"":""0CD71D683D2D4B5CA8CDCAE1B5485AC9"",""assignmentId"":""354afa36-5ed8-40ac-8a17-b363be4b0f1b"",""projectId"":""051c06f1-75cc-4548-856d-4923ddaba0dc""}","https://test12345.live/?num_scrambled_semantic=8&num_scrambled_causal=4&num_scrambled_schematic=4&participantId=0CD71D683D2D4B5CA8CDCAE1B5485AC9&assignmentId=354afa36-5ed8-40ac-8a17-b363be4b0f1b&projectId=051c06f1-75cc-4548-856d-4923ddaba0dc","0CD71D683D2D4B5CA8CDCAE1B5485AC9-2025-05-15-18-53-02","","null","","images/semantic_sequence/kitchen_operations_semantic/kitchen_operations_semantic_4.png","null","",""
"","","","","","image-button-response","41","168504","0.0-10.0-1.0-1.4","0CD71D683D2D4B5CA8CDCAE1B5485AC9","0CD71D683D2D4B5CA8CDCAE1B5485AC9","354afa36-5ed8-40ac-8a17-b363be4b0f1b","051c06f1-75cc-4548-856d-4923ddaba0dc","{""num_scrambled_semantic"":""8"",""num_scrambled_causal"":""4"",""num_scrambled_schematic"":""4"",""participantId"":""0CD71D683D2D4B5CA8CDCAE1B5485AC9"",""assignmentId"":""354afa36-5ed8-40ac-8a17-b363be4b0f1b"",""projectId"":""051c06f1-75cc-4548-856d-4923ddaba0dc""}","https://test12345.live/?num_scrambled_semantic=8&num_scrambled_causal=4&num_scrambled_schematic=4&participantId=0CD71D683D2D4B5CA8CDCAE1B5485AC9&assignmentId=354afa36-5ed8-40ac-8a17-b363be4b0f1b&projectId=051c06f1-75cc-4548-856d-4923ddaba0dc","0CD71D683D2D4B5CA8CDCAE1B5485AC9-2025-05-15-18-53-02","","1319","","images/semantic_sequence/kitchen_operations_semantic/kitchen_operations_semantic_4.png","0","",""
"","","","","","image-button-response","42","170307","0.0-10.0-1.0-2.4","0CD71D683D2D4B5CA8CDCAE1B5485AC9","0CD71D683D2D4B5CA8CDCAE1B5485AC9","354afa36-5ed8-40ac-8a17-b363be4b0f1b","051c06f1-75cc-4548-856d-4923ddaba0dc","{""num_scrambled_semantic"":""8"",""num_scrambled_causal"":""4"",""num_scrambled_schematic"":""4"",""participantId"":""0CD71D683D2D4B5CA8CDCAE1B5485AC9"",""assignmentId"":""354afa36-5ed8-40ac-8a17-b363be4b0f1b"",""projectId"":""051c06f1-75cc-4548-856d-4923ddaba0dc""}","https://test12345.live/?num_scrambled_semantic=8&num_scrambled_causal=4&num_scrambled_schematic=4&participantId=0CD71D683D2D4B5CA8CDCAE1B5485AC9&assignmentId=354afa36-5ed8-40ac-8a17-b363be4b0f1b&projectId=051c06f1-75cc-4548-856d-4923ddaba0dc","0CD71D683D2D4B5CA8CDCAE1B5485AC9-2025-05-15-18-53-02","","null","","[]","null","",""
"","","","","","image-button-response","43","174830","0.0-10.0-1.0-0.5","0CD71D683D2D4B5CA8CDCAE1B5485AC9","0CD71D683D2D4B5CA8CDCAE1B5485AC9","354afa36-5ed8-40ac-8a17-b363be4b0f1b","051c06f1-75cc-4548-856d-4923ddaba0dc","{""num_scrambled_semantic"":""8"",""num_scrambled_causal"":""4"",""num_scrambled_schematic"":""4"",""participantId"":""0CD71D683D2D4B5CA8CDCAE1B5485AC9"",""assignmentId"":""354afa36-5ed8-40ac-8a17-b363be4b0f1b"",""projectId"":""051c06f1-75cc-4548-856d-4923ddaba0dc""}","https://test12345.live/?num_scrambled_semantic=8&num_scrambled_causal=4&num_scrambled_schematic=4&participantId=0CD71D683D2D4B5CA8CDCAE1B5485AC9&assignmentId=354afa36-5ed8-40ac-8a17-b363be4b0f1b&projectId=051c06f1-75cc-4548-856d-4923ddaba0dc","0CD71D683D2D4B5CA8CDCAE1B5485AC9-2025-05-15-18-53-02","","null","","images/semantic_sequence/kitchen_operations_semantic/kitchen_operations_semantic_2.png","null","",""
"","","","","","image-button-response","44","177000","0.0-10.0-1.0-1.5","0CD71D683D2D4B5CA8CDCAE1B5485AC9","0CD71D683D2D4B5CA8CDCAE1B5485AC9","354afa36-5ed8-40ac-8a17-b363be4b0f1b","051c06f1-75cc-4548-856d-4923ddaba0dc","{""num_scrambled_semantic"":""8"",""num_scrambled_causal"":""4"",""num_scrambled_schematic"":""4"",""participantId"":""0CD71D683D2D4B5CA8CDCAE1B5485AC9"",""assignmentId"":""354afa36-5ed8-40ac-8a17-b363be4b0f1b"",""projectId"":""051c06f1-75cc-4548-856d-4923ddaba0dc""}","https://test12345.live/?num_scrambled_semantic=8&num_scrambled_causal=4&num_scrambled_schematic=4&participantId=0CD71D683D2D4B5CA8CDCAE1B5485AC9&assignmentId=354afa36-5ed8-40ac-8a17-b363be4b0f1b&projectId=051c06f1-75cc-4548-856d-4923ddaba0dc","0CD71D683D2D4B5CA8CDCAE1B5485AC9-2025-05-15-18-53-02","","2166","","images/semantic_sequence/kitchen_operations_semantic/kitchen_operations_semantic_2.png","0","",""
"","","","","","image-button-response","45","178802","0.0-10.0-1.0-2.5","0CD71D683D2D4B5CA8CDCAE1B5485AC9","0CD71D683D2D4B5CA8CDCAE1B5485AC9","354afa36-5ed8-40ac-8a17-b363be4b0f1b","051c06f1-75cc-4548-856d-4923ddaba0dc","{""num_scrambled_semantic"":""8"",""num_scrambled_causal"":""4"",""num_scrambled_schematic"":""4"",""participantId"":""0CD71D683D2D4B5CA8CDCAE1B5485AC9"",""assignmentId"":""354afa36-5ed8-40ac-8a17-b363be4b0f1b"",""projectId"":""051c06f1-75cc-4548-856d-4923ddaba0dc""}","https://test12345.live/?num_scrambled_semantic=8&num_scrambled_causal=4&num_scrambled_schematic=4&participantId=0CD71D683D2D4B5CA8CDCAE1B5485AC9&assignmentId=354afa36-5ed8-40ac-8a17-b363be4b0f1b&projectId=051c06f1-75cc-4548-856d-4923ddaba0dc","0CD71D683D2D4B5CA8CDCAE1B5485AC9-2025-05-15-18-53-02","","null","","[]","null","",""
"","","","","","image-button-response","46","183325","0.0-10.0-1.0-0.6","0CD71D683D2D4B5CA8CDCAE1B5485AC9","0CD71D683D2D4B5CA8CDCAE1B5485AC9","354afa36-5ed8-40ac-8a17-b363be4b0f1b","051c06f1-75cc-4548-856d-4923ddaba0dc","{""num_scrambled_semantic"":""8"",""num_scrambled_causal"":""4"",""num_scrambled_schematic"":""4"",""participantId"":""0CD71D683D2D4B5CA8CDCAE1B5485AC9"",""assignmentId"":""354afa36-5ed8-40ac-8a17-b363be4b0f1b"",""projectId"":""051c06f1-75cc-4548-856d-4923ddaba0dc""}","https://test12345.live/?num_scrambled_semantic=8&num_scrambled_causal=4&num_scrambled_schematic=4&participantId=0CD71D683D2D4B5CA8CDCAE1B5485AC9&assignmentId=354afa36-5ed8-40ac-8a17-b363be4b0f1b&projectId=051c06f1-75cc-4548-856d-4923ddaba0dc","0CD71D683D2D4B5CA8CDCAE1B5485AC9-2025-05-15-18-53-02","","null","","images/semantic_sequence/kitchen_operations_semantic/kitchen_operations_semantic_3.png","null","",""
"","","","","","image-button-response","47","185683","0.0-10.0-1.0-1.6","0CD71D683D2D4B5CA8CDCAE1B5485AC9","0CD71D683D2D4B5CA8CDCAE1B5485AC9","354afa36-5ed8-40ac-8a17-b363be4b0f1b","051c06f1-75cc-4548-856d-4923ddaba0dc","{""num_scrambled_semantic"":""8"",""num_scrambled_causal"":""4"",""num_scrambled_schematic"":""4"",""participantId"":""0CD71D683D2D4B5CA8CDCAE1B5485AC9"",""assignmentId"":""354afa36-5ed8-40ac-8a17-b363be4b0f1b"",""projectId"":""051c06f1-75cc-4548-856d-4923ddaba0dc""}","https://test12345.live/?num_scrambled_semantic=8&num_scrambled_causal=4&num_scrambled_schematic=4&participantId=0CD71D683D2D4B5CA8CDCAE1B5485AC9&assignmentId=354afa36-5ed8-40ac-8a17-b363be4b0f1b&projectId=051c06f1-75cc-4548-856d-4923ddaba0dc","0CD71D683D2D4B5CA8CDCAE1B5485AC9-2025-05-15-18-53-02","","2357","","images/semantic_sequence/kitchen_operations_semantic/kitchen_operations_semantic_3.png","0","",""
"","","","","","image-button-response","48","187485","0.0-10.0-1.0-2.6","0CD71D683D2D4B5CA8CDCAE1B5485AC9","0CD71D683D2D4B5CA8CDCAE1B5485AC9","354afa36-5ed8-40ac-8a17-b363be4b0f1b","051c06f1-75cc-4548-856d-4923ddaba0dc","{""num_scrambled_semantic"":""8"",""num_scrambled_causal"":""4"",""num_scrambled_schematic"":""4"",""participantId"":""0CD71D683D2D4B5CA8CDCAE1B5485AC9"",""assignmentId"":""354afa36-5ed8-40ac-8a17-b363be4b0f1b"",""projectId"":""051c06f1-75cc-4548-856d-4923ddaba0dc""}","https://test12345.live/?num_scrambled_semantic=8&num_scrambled_causal=4&num_scrambled_schematic=4&participantId=0CD71D683D2D4B5CA8CDCAE1B5485AC9&assignmentId=354afa36-5ed8-40ac-8a17-b363be4b0f1b&projectId=051c06f1-75cc-4548-856d-4923ddaba0dc","0CD71D683D2D4B5CA8CDCAE1B5485AC9-2025-05-15-18-53-02","","null","","[]","null","",""
"","","","","","image-button-response","49","192007","0.0-10.0-1.0-0.7","0CD71D683D2D4B5CA8CDCAE1B5485AC9","0CD71D683D2D4B5CA8CDCAE1B5485AC9","354afa36-5ed8-40ac-8a17-b363be4b0f1b","051c06f1-75cc-4548-856d-4923ddaba0dc","{""num_scrambled_semantic"":""8"",""num_scrambled_causal"":""4"",""num_scrambled_schematic"":""4"",""participantId"":""0CD71D683D2D4B5CA8CDCAE1B5485AC9"",""assignmentId"":""354afa36-5ed8-40ac-8a17-b363be4b0f1b"",""projectId"":""051c06f1-75cc-4548-856d-4923ddaba0dc""}","https://test12345.live/?num_scrambled_semantic=8&num_scrambled_causal=4&num_scrambled_schematic=4&participantId=0CD71D683D2D4B5CA8CDCAE1B5485AC9&assignmentId=354afa36-5ed8-40ac-8a17-b363be4b0f1b&projectId=051c06f1-75cc-4548-856d-4923ddaba0dc","0CD71D683D2D4B5CA8CDCAE1B5485AC9-2025-05-15-18-53-02","","null","","images/semantic_sequence/kitchen_operations_semantic/kitchen_operations_semantic_9.png","null","",""
"","","","","","image-button-response","50","196011","0.0-10.0-1.0-1.7","0CD71D683D2D4B5CA8CDCAE1B5485AC9","0CD71D683D2D4B5CA8CDCAE1B5485AC9","354afa36-5ed8-40ac-8a17-b363be4b0f1b","051c06f1-75cc-4548-856d-4923ddaba0dc","{""num_scrambled_semantic"":""8"",""num_scrambled_causal"":""4"",""num_scrambled_schematic"":""4"",""participantId"":""0CD71D683D2D4B5CA8CDCAE1B5485AC9"",""assignmentId"":""354afa36-5ed8-40ac-8a17-b363be4b0f1b"",""projectId"":""051c06f1-75cc-4548-856d-4923ddaba0dc""}","https://test12345.live/?num_scrambled_semantic=8&num_scrambled_causal=4&num_scrambled_schematic=4&participantId=0CD71D683D2D4B5CA8CDCAE1B5485AC9&assignmentId=354afa36-5ed8-40ac-8a17-b363be4b0f1b&projectId=051c06f1-75cc-4548-856d-4923ddaba0dc","0CD71D683D2D4B5CA8CDCAE1B5485AC9-2025-05-15-18-53-02","","null","","images/semantic_sequence/kitchen_operations_semantic/kitchen_operations_semantic_9.png","null","",""
"","","","","","image-button-response","51","197813","0.0-10.0-1.0-2.7","0CD71D683D2D4B5CA8CDCAE1B5485AC9","0CD71D683D2D4B5CA8CDCAE1B5485AC9","354afa36-5ed8-40ac-8a17-b363be4b0f1b","051c06f1-75cc-4548-856d-4923ddaba0dc","{""num_scrambled_semantic"":""8"",""num_scrambled_causal"":""4"",""num_scrambled_schematic"":""4"",""participantId"":""0CD71D683D2D4B5CA8CDCAE1B5485AC9"",""assignmentId"":""354afa36-5ed8-40ac-8a17-b363be4b0f1b"",""projectId"":""051c06f1-75cc-4548-856d-4923ddaba0dc""}","https://test12345.live/?num_scrambled_semantic=8&num_scrambled_causal=4&num_scrambled_schematic=4&participantId=0CD71D683D2D4B5CA8CDCAE1B5485AC9&assignmentId=354afa36-5ed8-40ac-8a17-b363be4b0f1b&projectId=051c06f1-75cc-4548-856d-4923ddaba0dc","0CD71D683D2D4B5CA8CDCAE1B5485AC9-2025-05-15-18-53-02","","null","","[]","null","",""
"","","","","","image-button-response","52","202335","0.0-10.0-1.0-0.8","0CD71D683D2D4B5CA8CDCAE1B5485AC9","0CD71D683D2D4B5CA8CDCAE1B5485AC9","354afa36-5ed8-40ac-8a17-b363be4b0f1b","051c06f1-75cc-4548-856d-4923ddaba0dc","{""num_scrambled_semantic"":""8"",""num_scrambled_causal"":""4"",""num_scrambled_schematic"":""4"",""participantId"":""0CD71D683D2D4B5CA8CDCAE1B5485AC9"",""assignmentId"":""354afa36-5ed8-40ac-8a17-b363be4b0f1b"",""projectId"":""051c06f1-75cc-4548-856d-4923ddaba0dc""}","https://test12345.live/?num_scrambled_semantic=8&num_scrambled_causal=4&num_scrambled_schematic=4&participantId=0CD71D683D2D4B5CA8CDCAE1B5485AC9&assignmentId=354afa36-5ed8-40ac-8a17-b363be4b0f1b&projectId=051c06f1-75cc-4548-856d-4923ddaba0dc","0CD71D683D2D4B5CA8CDCAE1B5485AC9-2025-05-15-18-53-02","","null","","images/semantic_sequence/kitchen_operations_semantic/kitchen_operations_semantic_7.png","null","",""
"","","","","","image-button-response","53","203686","0.0-10.0-1.0-1.8","0CD71D683D2D4B5CA8CDCAE1B5485AC9","0CD71D683D2D4B5CA8CDCAE1B5485AC9","354afa36-5ed8-40ac-8a17-b363be4b0f1b","051c06f1-75cc-4548-856d-4923ddaba0dc","{""num_scrambled_semantic"":""8"",""num_scrambled_causal"":""4"",""num_scrambled_schematic"":""4"",""participantId"":""0CD71D683D2D4B5CA8CDCAE1B5485AC9"",""assignmentId"":""354afa36-5ed8-40ac-8a17-b363be4b0f1b"",""projectId"":""051c06f1-75cc-4548-856d-4923ddaba0dc""}","https://test12345.live/?num_scrambled_semantic=8&num_scrambled_causal=4&num_scrambled_schematic=4&participantId=0CD71D683D2D4B5CA8CDCAE1B5485AC9&assignmentId=354afa36-5ed8-40ac-8a17-b363be4b0f1b&projectId=051c06f1-75cc-4548-856d-4923ddaba0dc","0CD71D683D2D4B5CA8CDCAE1B5485AC9-2025-05-15-18-53-02","","1350","","images/semantic_sequence/kitchen_operations_semantic/kitchen_operations_semantic_7.png","0","",""
"","","","","","image-button-response","54","205489","0.0-10.0-1.0-2.8","0CD71D683D2D4B5CA8CDCAE1B5485AC9","0CD71D683D2D4B5CA8CDCAE1B5485AC9","354afa36-5ed8-40ac-8a17-b363be4b0f1b","051c06f1-75cc-4548-856d-4923ddaba0dc","{""num_scrambled_semantic"":""8"",""num_scrambled_causal"":""4"",""num_scrambled_schematic"":""4"",""participantId"":""0CD71D683D2D4B5CA8CDCAE1B5485AC9"",""assignmentId"":""354afa36-5ed8-40ac-8a17-b363be4b0f1b"",""projectId"":""051c06f1-75cc-4548-856d-4923ddaba0dc""}","https://test12345.live/?num_scrambled_semantic=8&num_scrambled_causal=4&num_scrambled_schematic=4&participantId=0CD71D683D2D4B5CA8CDCAE1B5485AC9&assignmentId=354afa36-5ed8-40ac-8a17-b363be4b0f1b&projectId=051c06f1-75cc-4548-856d-4923ddaba0dc","0CD71D683D2D4B5CA8CDCAE1B5485AC9-2025-05-15-18-53-02","","null","","[]","null","",""
"","","","","","image-button-response","55","210011","0.0-10.0-1.0-0.9","0CD71D683D2D4B5CA8CDCAE1B5485AC9","0CD71D683D2D4B5CA8CDCAE1B5485AC9","354afa36-5ed8-40ac-8a17-b363be4b0f1b","051c06f1-75cc-4548-856d-4923ddaba0dc","{""num_scrambled_semantic"":""8"",""num_scrambled_causal"":""4"",""num_scrambled_schematic"":""4"",""participantId"":""0CD71D683D2D4B5CA8CDCAE1B5485AC9"",""assignmentId"":""354afa36-5ed8-40ac-8a17-b363be4b0f1b"",""projectId"":""051c06f1-75cc-4548-856d-4923ddaba0dc""}","https://test12345.live/?num_scrambled_semantic=8&num_scrambled_causal=4&num_scrambled_schematic=4&participantId=0CD71D683D2D4B5CA8CDCAE1B5485AC9&assignmentId=354afa36-5ed8-40ac-8a17-b363be4b0f1b&projectId=051c06f1-75cc-4548-856d-4923ddaba0dc","0CD71D683D2D4B5CA8CDCAE1B5485AC9-2025-05-15-18-53-02","","null","","images/semantic_sequence/kitchen_operations_semantic/kitchen_operations_semantic_5.png","null","",""
"","","","","","image-button-response","56","211640","0.0-10.0-1.0-1.9","0CD71D683D2D4B5CA8CDCAE1B5485AC9","0CD71D683D2D4B5CA8CDCAE1B5485AC9","354afa36-5ed8-40ac-8a17-b363be4b0f1b","051c06f1-75cc-4548-856d-4923ddaba0dc","{""num_scrambled_semantic"":""8"",""num_scrambled_causal"":""4"",""num_scrambled_schematic"":""4"",""participantId"":""0CD71D683D2D4B5CA8CDCAE1B5485AC9"",""assignmentId"":""354afa36-5ed8-40ac-8a17-b363be4b0f1b"",""projectId"":""051c06f1-75cc-4548-856d-4923ddaba0dc""}","https://test12345.live/?num_scrambled_semantic=8&num_scrambled_causal=4&num_scrambled_schematic=4&participantId=0CD71D683D2D4B5CA8CDCAE1B5485AC9&assignmentId=354afa36-5ed8-40ac-8a17-b363be4b0f1b&projectId=051c06f1-75cc-4548-856d-4923ddaba0dc","0CD71D683D2D4B5CA8CDCAE1B5485AC9-2025-05-15-18-53-02","","1627","","images/semantic_sequence/kitchen_operations_semantic/kitchen_operations_semantic_5.png","0","",""
"","","","","","image-button-response","57","213441","0.0-10.0-1.0-2.9","0CD71D683D2D4B5CA8CDCAE1B5485AC9","0CD71D683D2D4B5CA8CDCAE1B5485AC9","354afa36-5ed8-40ac-8a17-b363be4b0f1b","051c06f1-75cc-4548-856d-4923ddaba0dc","{""num_scrambled_semantic"":""8"",""num_scrambled_causal"":""4"",""num_scrambled_schematic"":""4"",""participantId"":""0CD71D683D2D4B5CA8CDCAE1B5485AC9"",""assignmentId"":""354afa36-5ed8-40ac-8a17-b363be4b0f1b"",""projectId"":""051c06f1-75cc-4548-856d-4923ddaba0dc""}","https://test12345.live/?num_scrambled_semantic=8&num_scrambled_causal=4&num_scrambled_schematic=4&participantId=0CD71D683D2D4B5CA8CDCAE1B5485AC9&assignmentId=354afa36-5ed8-40ac-8a17-b363be4b0f1b&projectId=051c06f1-75cc-4548-856d-4923ddaba0dc","0CD71D683D2D4B5CA8CDCAE1B5485AC9-2025-05-15-18-53-02","","null","","[]","null","",""
"","","","","","html-audio-response","58","234758","0.0-11.0","0CD71D683D2D4B5CA8CDCAE1B5485AC9","0CD71D683D2D4B5CA8CDCAE1B5485AC9","354afa36-5ed8-40ac-8a17-b363be4b0f1b","051c06f1-75cc-4548-856d-4923ddaba0dc","{""num_scrambled_semantic"":""8"",""num_scrambled_causal"":""4"",""num_scrambled_schematic"":""4"",""participantId"":""0CD71D683D2D4B5CA8CDCAE1B5485AC9"",""assignmentId"":""354afa36-5ed8-40ac-8a17-b363be4b0f1b"",""projectId"":""051c06f1-75cc-4548-856d-4923ddaba0dc""}","https://test12345.live/?num_scrambled_semantic=8&num_scrambled_causal=4&num_scrambled_schematic=4&participantId=0CD71D683D2D4B5CA8CDCAE1B5485AC9&assignmentId=354afa36-5ed8-40ac-8a17-b363be4b0f1b&projectId=051c06f1-75cc-4548-856d-4923ddaba0dc","0CD71D683D2D4B5CA8CDCAE1B5485AC9-2025-05-15-18-53-02","","5814","","[""<span style=\""color: red; font-size: 24px\""> NOW RECORDING</span><p>Please say out loud all the images you saw, as many as you can remember. The images can be said in any order.</p>""]","","2","kitchen_operations_semantic"
"","","","","","image-button-response","59","240772","0.0-12.0-0.0","0CD71D683D2D4B5CA8CDCAE1B5485AC9","0CD71D683D2D4B5CA8CDCAE1B5485AC9","354afa36-5ed8-40ac-8a17-b363be4b0f1b","051c06f1-75cc-4548-856d-4923ddaba0dc","{""num_scrambled_semantic"":""8"",""num_scrambled_causal"":""4"",""num_scrambled_schematic"":""4"",""participantId"":""0CD71D683D2D4B5CA8CDCAE1B5485AC9"",""assignmentId"":""354afa36-5ed8-40ac-8a17-b363be4b0f1b"",""projectId"":""051c06f1-75cc-4548-856d-4923ddaba0dc""}","https://test12345.live/?num_scrambled_semantic=8&num_scrambled_causal=4&num_scrambled_schematic=4&participantId=0CD71D683D2D4B5CA8CDCAE1B5485AC9&assignmentId=354afa36-5ed8-40ac-8a17-b363be4b0f1b&projectId=051c06f1-75cc-4548-856d-4923ddaba0dc","0CD71D683D2D4B5CA8CDCAE1B5485AC9-2025-05-15-18-53-02","","null","","images/causal_sequence/the_performance_causal/the_performance_causal_0.png","null","",""
"","","","","","image-button-response","60","245299","0.0-12.0-1.0-0.0","0CD71D683D2D4B5CA8CDCAE1B5485AC9","0CD71D683D2D4B5CA8CDCAE1B5485AC9","354afa36-5ed8-40ac-8a17-b363be4b0f1b","051c06f1-75cc-4548-856d-4923ddaba0dc","{""num_scrambled_semantic"":""8"",""num_scrambled_causal"":""4"",""num_scrambled_schematic"":""4"",""participantId"":""0CD71D683D2D4B5CA8CDCAE1B5485AC9"",""assignmentId"":""354afa36-5ed8-40ac-8a17-b363be4b0f1b"",""projectId"":""051c06f1-75cc-4548-856d-4923ddaba0dc""}","https://test12345.live/?num_scrambled_semantic=8&num_scrambled_causal=4&num_scrambled_schematic=4&participantId=0CD71D683D2D4B5CA8CDCAE1B5485AC9&assignmentId=354afa36-5ed8-40ac-8a17-b363be4b0f1b&projectId=051c06f1-75cc-4548-856d-4923ddaba0dc","0CD71D683D2D4B5CA8CDCAE1B5485AC9-2025-05-15-18-53-02","","null","","images/causal_sequence/the_performance_causal/the_performance_causal_9.png","null","",""
"","","","","","image-button-response","61","247237","0.0-12.0-1.0-1.0","0CD71D683D2D4B5CA8CDCAE1B5485AC9","0CD71D683D2D4B5CA8CDCAE1B5485AC9","354afa36-5ed8-40ac-8a17-b363be4b0f1b","051c06f1-75cc-4548-856d-4923ddaba0dc","{""num_scrambled_semantic"":""8"",""num_scrambled_causal"":""4"",""num_scrambled_schematic"":""4"",""participantId"":""0CD71D683D2D4B5CA8CDCAE1B5485AC9"",""assignmentId"":""354afa36-5ed8-40ac-8a17-b363be4b0f1b"",""projectId"":""051c06f1-75cc-4548-856d-4923ddaba0dc""}","https://test12345.live/?num_scrambled_semantic=8&num_scrambled_causal=4&num_scrambled_schematic=4&participantId=0CD71D683D2D4B5CA8CDCAE1B5485AC9&assignmentId=354afa36-5ed8-40ac-8a17-b363be4b0f1b&projectId=051c06f1-75cc-4548-856d-4923ddaba0dc","0CD71D683D2D4B5CA8CDCAE1B5485AC9-2025-05-15-18-53-02","","1935","","images/causal_sequence/the_performance_causal/the_performance_causal_9.png","1","",""
"","","","","","image-button-response","62","249039","0.0-12.0-1.0-2.0","0CD71D683D2D4B5CA8CDCAE1B5485AC9","0CD71D683D2D4B5CA8CDCAE1B5485AC9","354afa36-5ed8-40ac-8a17-b363be4b0f1b","051c06f1-75cc-4548-856d-4923ddaba0dc","{""num_scrambled_semantic"":""8"",""num_scrambled_causal"":""4"",""num_scrambled_schematic"":""4"",""participantId"":""0CD71D683D2D4B5CA8CDCAE1B5485AC9"",""assignmentId"":""354afa36-5ed8-40ac-8a17-b363be4b0f1b"",""projectId"":""051c06f1-75cc-4548-856d-4923ddaba0dc""}","https://test12345.live/?num_scrambled_semantic=8&num_scrambled_causal=4&num_scrambled_schematic=4&participantId=0CD71D683D2D4B5CA8CDCAE1B5485AC9&assignmentId=354afa36-5ed8-40ac-8a17-b363be4b0f1b&projectId=051c06f1-75cc-4548-856d-4923ddaba0dc","0CD71D683D2D4B5CA8CDCAE1B5485AC9-2025-05-15-18-53-02","","null","","[]","null","",""
"","","","","","image-button-response","63","253564","0.0-12.0-1.0-0.1","0CD71D683D2D4B5CA8CDCAE1B5485AC9","0CD71D683D2D4B5CA8CDCAE1B5485AC9","354afa36-5ed8-40ac-8a17-b363be4b0f1b","051c06f1-75cc-4548-856d-4923ddaba0dc","{""num_scrambled_semantic"":""8"",""num_scrambled_causal"":""4"",""num_scrambled_schematic"":""4"",""participantId"":""0CD71D683D2D4B5CA8CDCAE1B5485AC9"",""assignmentId"":""354afa36-5ed8-40ac-8a17-b363be4b0f1b"",""projectId"":""051c06f1-75cc-4548-856d-4923ddaba0dc""}","https://test12345.live/?num_scrambled_semantic=8&num_scrambled_causal=4&num_scrambled_schematic=4&participantId=0CD71D683D2D4B5CA8CDCAE1B5485AC9&assignmentId=354afa36-5ed8-40ac-8a17-b363be4b0f1b&projectId=051c06f1-75cc-4548-856d-4923ddaba0dc","0CD71D683D2D4B5CA8CDCAE1B5485AC9-2025-05-15-18-53-02","","null","","images/causal_sequence/the_performance_causal/the_performance_causal_4.png","null","",""
"","","","","","image-button-response","64","255244","0.0-12.0-1.0-1.1","0CD71D683D2D4B5CA8CDCAE1B5485AC9","0CD71D683D2D4B5CA8CDCAE1B5485AC9","354afa36-5ed8-40ac-8a17-b363be4b0f1b","051c06f1-75cc-4548-856d-4923ddaba0dc","{""num_scrambled_semantic"":""8"",""num_scrambled_causal"":""4"",""num_scrambled_schematic"":""4"",""participantId"":""0CD71D683D2D4B5CA8CDCAE1B5485AC9"",""assignmentId"":""354afa36-5ed8-40ac-8a17-b363be4b0f1b"",""projectId"":""051c06f1-75cc-4548-856d-4923ddaba0dc""}","https://test12345.live/?num_scrambled_semantic=8&num_scrambled_causal=4&num_scrambled_schematic=4&participantId=0CD71D683D2D4B5CA8CDCAE1B5485AC9&assignmentId=354afa36-5ed8-40ac-8a17-b363be4b0f1b&projectId=051c06f1-75cc-4548-856d-4923ddaba0dc","0CD71D683D2D4B5CA8CDCAE1B5485AC9-2025-05-15-18-53-02","","1679","","images/causal_sequence/the_performance_causal/the_performance_causal_4.png","0","",""
"","","","","","image-button-response","65","257046","0.0-12.0-1.0-2.1","0CD71D683D2D4B5CA8CDCAE1B5485AC9","0CD71D683D2D4B5CA8CDCAE1B5485AC9","354afa36-5ed8-40ac-8a17-b363be4b0f1b","051c06f1-75cc-4548-856d-4923ddaba0dc","{""num_scrambled_semantic"":""8"",""num_scrambled_causal"":""4"",""num_scrambled_schematic"":""4"",""participantId"":""0CD71D683D2D4B5CA8CDCAE1B5485AC9"",""assignmentId"":""354afa36-5ed8-40ac-8a17-b363be4b0f1b"",""projectId"":""051c06f1-75cc-4548-856d-4923ddaba0dc""}","https://test12345.live/?num_scrambled_semantic=8&num_scrambled_causal=4&num_scrambled_schematic=4&participantId=0CD71D683D2D4B5CA8CDCAE1B5485AC9&assignmentId=354afa36-5ed8-40ac-8a17-b363be4b0f1b&projectId=051c06f1-75cc-4548-856d-4923ddaba0dc","0CD71D683D2D4B5CA8CDCAE1B5485AC9-2025-05-15-18-53-02","","null","","[]","null","",""
"","","","","","image-button-response","66","261573","0.0-12.0-1.0-0.2","0CD71D683D2D4B5CA8CDCAE1B5485AC9","0CD71D683D2D4B5CA8CDCAE1B5485AC9","354afa36-5ed8-40ac-8a17-b363be4b0f1b","051c06f1-75cc-4548-856d-4923ddaba0dc","{""num_scrambled_semantic"":""8"",""num_scrambled_causal"":""4"",""num_scrambled_schematic"":""4"",""participantId"":""0CD71D683D2D4B5CA8CDCAE1B5485AC9"",""assignmentId"":""354afa36-5ed8-40ac-8a17-b363be4b0f1b"",""projectId"":""051c06f1-75cc-4548-856d-4923ddaba0dc""}","https://test12345.live/?num_scrambled_semantic=8&num_scrambled_causal=4&num_scrambled_schematic=4&participantId=0CD71D683D2D4B5CA8CDCAE1B5485AC9&assignmentId=354afa36-5ed8-40ac-8a17-b363be4b0f1b&projectId=051c06f1-75cc-4548-856d-4923ddaba0dc","0CD71D683D2D4B5CA8CDCAE1B5485AC9-2025-05-15-18-53-02","","null","","images/causal_sequence/the_performance_causal/the_performance_causal_6.png","null","",""
"","","","","","image-button-response","67","265576","0.0-12.0-1.0-1.2","0CD71D683D2D4B5CA8CDCAE1B5485AC9","0CD71D683D2D4B5CA8CDCAE1B5485AC9","354afa36-5ed8-40ac-8a17-b363be4b0f1b","051c06f1-75cc-4548-856d-4923ddaba0dc","{""num_scrambled_semantic"":""8"",""num_scrambled_causal"":""4"",""num_scrambled_schematic"":""4"",""participantId"":""0CD71D683D2D4B5CA8CDCAE1B5485AC9"",""assignmentId"":""354afa36-5ed8-40ac-8a17-b363be4b0f1b"",""projectId"":""051c06f1-75cc-4548-856d-4923ddaba0dc""}","https://test12345.live/?num_scrambled_semantic=8&num_scrambled_causal=4&num_scrambled_schematic=4&participantId=0CD71D683D2D4B5CA8CDCAE1B5485AC9&assignmentId=354afa36-5ed8-40ac-8a17-b363be4b0f1b&projectId=051c06f1-75cc-4548-856d-4923ddaba0dc","0CD71D683D2D4B5CA8CDCAE1B5485AC9-2025-05-15-18-53-02","","null","","images/causal_sequence/the_performance_causal/the_performance_causal_6.png","null","",""
"","","","","","image-button-response","68","267379","0.0-12.0-1.0-2.2","0CD71D683D2D4B5CA8CDCAE1B5485AC9","0CD71D683D2D4B5CA8CDCAE1B5485AC9","354afa36-5ed8-40ac-8a17-b363be4b0f1b","051c06f1-75cc-4548-856d-4923ddaba0dc","{""num_scrambled_semantic"":""8"",""num_scrambled_causal"":""4"",""num_scrambled_schematic"":""4"",""participantId"":""0CD71D683D2D4B5CA8CDCAE1B5485AC9"",""assignmentId"":""354afa36-5ed8-40ac-8a17-b363be4b0f1b"",""projectId"":""051c06f1-75cc-4548-856d-4923ddaba0dc""}","https://test12345.live/?num_scrambled_semantic=8&num_scrambled_causal=4&num_scrambled_schematic=4&participantId=0CD71D683D2D4B5CA8CDCAE1B5485AC9&assignmentId=354afa36-5ed8-40ac-8a17-b363be4b0f1b&projectId=051c06f1-75cc-4548-856d-4923ddaba0dc","0CD71D683D2D4B5CA8CDCAE1B5485AC9-2025-05-15-18-53-02","","null","","[]","null","",""
"","","","","","image-button-response","69","271904","0.0-12.0-1.0-0.3","0CD71D683D2D4B5CA8CDCAE1B5485AC9","0CD71D683D2D4B5CA8CDCAE1B5485AC9","354afa36-5ed8-40ac-8a17-b363be4b0f1b","051c06f1-75cc-4548-856d-4923ddaba0dc","{""num_scrambled_semantic"":""8"",""num_scrambled_causal"":""4"",""num_scrambled_schematic"":""4"",""participantId"":""0CD71D683D2D4B5CA8CDCAE1B5485AC9"",""assignmentId"":""354afa36-5ed8-40ac-8a17-b363be4b0f1b"",""projectId"":""051c06f1-75cc-4548-856d-4923ddaba0dc""}","https://test12345.live/?num_scrambled_semantic=8&num_scrambled_causal=4&num_scrambled_schematic=4&participantId=0CD71D683D2D4B5CA8CDCAE1B5485AC9&assignmentId=354afa36-5ed8-40ac-8a17-b363be4b0f1b&projectId=051c06f1-75cc-4548-856d-4923ddaba0dc","0CD71D683D2D4B5CA8CDCAE1B5485AC9-2025-05-15-18-53-02","","null","","images/causal_sequence/the_performance_causal/the_performance_causal_ten.png","null","",""
"","","","","","image-button-response","70","273170","0.0-12.0-1.0-1.3","0CD71D683D2D4B5CA8CDCAE1B5485AC9","0CD71D683D2D4B5CA8CDCAE1B5485AC9","354afa36-5ed8-40ac-8a17-b363be4b0f1b","051c06f1-75cc-4548-856d-4923ddaba0dc","{""num_scrambled_semantic"":""8"",""num_scrambled_causal"":""4"",""num_scrambled_schematic"":""4"",""participantId"":""0CD71D683D2D4B5CA8CDCAE1B5485AC9"",""assignmentId"":""354afa36-5ed8-40ac-8a17-b363be4b0f1b"",""projectId"":""051c06f1-75cc-4548-856d-4923ddaba0dc""}","https://test12345.live/?num_scrambled_semantic=8&num_scrambled_causal=4&num_scrambled_schematic=4&participantId=0CD71D683D2D4B5CA8CDCAE1B5485AC9&assignmentId=354afa36-5ed8-40ac-8a17-b363be4b0f1b&projectId=051c06f1-75cc-4548-856d-4923ddaba0dc","0CD71D683D2D4B5CA8CDCAE1B5485AC9-2025-05-15-18-53-02","","1265","","images/causal_sequence/the_performance_causal/the_performance_causal_ten.png","0","",""
"","","","","","image-button-response","71","274972","0.0-12.0-1.0-2.3","0CD71D683D2D4B5CA8CDCAE1B5485AC9","0CD71D683D2D4B5CA8CDCAE1B5485AC9","354afa36-5ed8-40ac-8a17-b363be4b0f1b","051c06f1-75cc-4548-856d-4923ddaba0dc","{""num_scrambled_semantic"":""8"",""num_scrambled_causal"":""4"",""num_scrambled_schematic"":""4"",""participantId"":""0CD71D683D2D4B5CA8CDCAE1B5485AC9"",""assignmentId"":""354afa36-5ed8-40ac-8a17-b363be4b0f1b"",""projectId"":""051c06f1-75cc-4548-856d-4923ddaba0dc""}","https://test12345.live/?num_scrambled_semantic=8&num_scrambled_causal=4&num_scrambled_schematic=4&participantId=0CD71D683D2D4B5CA8CDCAE1B5485AC9&assignmentId=354afa36-5ed8-40ac-8a17-b363be4b0f1b&projectId=051c06f1-75cc-4548-856d-4923ddaba0dc","0CD71D683D2D4B5CA8CDCAE1B5485AC9-2025-05-15-18-53-02","","null","","[]","null","",""
"","","","","","image-button-response","72","279497","0.0-12.0-1.0-0.4","0CD71D683D2D4B5CA8CDCAE1B5485AC9","0CD71D683D2D4B5CA8CDCAE1B5485AC9","354afa36-5ed8-40ac-8a17-b363be4b0f1b","051c06f1-75cc-4548-856d-4923ddaba0dc","{""num_scrambled_semantic"":""8"",""num_scrambled_causal"":""4"",""num_scrambled_schematic"":""4"",""participantId"":""0CD71D683D2D4B5CA8CDCAE1B5485AC9"",""assignmentId"":""354afa36-5ed8-40ac-8a17-b363be4b0f1b"",""projectId"":""051c06f1-75cc-4548-856d-4923ddaba0dc""}","https://test12345.live/?num_scrambled_semantic=8&num_scrambled_causal=4&num_scrambled_schematic=4&participantId=0CD71D683D2D4B5CA8CDCAE1B5485AC9&assignmentId=354afa36-5ed8-40ac-8a17-b363be4b0f1b&projectId=051c06f1-75cc-4548-856d-4923ddaba0dc","0CD71D683D2D4B5CA8CDCAE1B5485AC9-2025-05-15-18-53-02","","null","","images/causal_sequence/the_performance_causal/the_performance_causal_5.png","null","",""
"","","","","","image-button-response","73","280715","0.0-12.0-1.0-1.4","0CD71D683D2D4B5CA8CDCAE1B5485AC9","0CD71D683D2D4B5CA8CDCAE1B5485AC9","354afa36-5ed8-40ac-8a17-b363be4b0f1b","051c06f1-75cc-4548-856d-4923ddaba0dc","{""num_scrambled_semantic"":""8"",""num_scrambled_causal"":""4"",""num_scrambled_schematic"":""4"",""participantId"":""0CD71D683D2D4B5CA8CDCAE1B5485AC9"",""assignmentId"":""354afa36-5ed8-40ac-8a17-b363be4b0f1b"",""projectId"":""051c06f1-75cc-4548-856d-4923ddaba0dc""}","https://test12345.live/?num_scrambled_semantic=8&num_scrambled_causal=4&num_scrambled_schematic=4&participantId=0CD71D683D2D4B5CA8CDCAE1B5485AC9&assignmentId=354afa36-5ed8-40ac-8a17-b363be4b0f1b&projectId=051c06f1-75cc-4548-856d-4923ddaba0dc","0CD71D683D2D4B5CA8CDCAE1B5485AC9-2025-05-15-18-53-02","","1216","","images/causal_sequence/the_performance_causal/the_performance_causal_5.png","0","",""
"","","","","","image-button-response","74","282517","0.0-12.0-1.0-2.4","0CD71D683D2D4B5CA8CDCAE1B5485AC9","0CD71D683D2D4B5CA8CDCAE1B5485AC9","354afa36-5ed8-40ac-8a17-b363be4b0f1b","051c06f1-75cc-4548-856d-4923ddaba0dc","{""num_scrambled_semantic"":""8"",""num_scrambled_causal"":""4"",""num_scrambled_schematic"":""4"",""participantId"":""0CD71D683D2D4B5CA8CDCAE1B5485AC9"",""assignmentId"":""354afa36-5ed8-40ac-8a17-b363be4b0f1b"",""projectId"":""051c06f1-75cc-4548-856d-4923ddaba0dc""}","https://test12345.live/?num_scrambled_semantic=8&num_scrambled_causal=4&num_scrambled_schematic=4&participantId=0CD71D683D2D4B5CA8CDCAE1B5485AC9&assignmentId=354afa36-5ed8-40ac-8a17-b363be4b0f1b&projectId=051c06f1-75cc-4548-856d-4923ddaba0dc","0CD71D683D2D4B5CA8CDCAE1B5485AC9-2025-05-15-18-53-02","","null","","[]","null","",""
"","","","","","image-button-response","75","287040","0.0-12.0-1.0-0.5","0CD71D683D2D4B5CA8CDCAE1B5485AC9","0CD71D683D2D4B5CA8CDCAE1B5485AC9","354afa36-5ed8-40ac-8a17-b363be4b0f1b","051c06f1-75cc-4548-856d-4923ddaba0dc","{""num_scrambled_semantic"":""8"",""num_scrambled_causal"":""4"",""num_scrambled_schematic"":""4"",""participantId"":""0CD71D683D2D4B5CA8CDCAE1B5485AC9"",""assignmentId"":""354afa36-5ed8-40ac-8a17-b363be4b0f1b"",""projectId"":""051c06f1-75cc-4548-856d-4923ddaba0dc""}","https://test12345.live/?num_scrambled_semantic=8&num_scrambled_causal=4&num_scrambled_schematic=4&participantId=0CD71D683D2D4B5CA8CDCAE1B5485AC9&assignmentId=354afa36-5ed8-40ac-8a17-b363be4b0f1b&projectId=051c06f1-75cc-4548-856d-4923ddaba0dc","0CD71D683D2D4B5CA8CDCAE1B5485AC9-2025-05-15-18-53-02","","null","","images/causal_sequence/the_performance_causal/the_performance_causal_7.png","null","",""
"","","","","","image-button-response","76","288320","0.0-12.0-1.0-1.5","0CD71D683D2D4B5CA8CDCAE1B5485AC9","0CD71D683D2D4B5CA8CDCAE1B5485AC9","354afa36-5ed8-40ac-8a17-b363be4b0f1b","051c06f1-75cc-4548-856d-4923ddaba0dc","{""num_scrambled_semantic"":""8"",""num_scrambled_causal"":""4"",""num_scrambled_schematic"":""4"",""participantId"":""0CD71D683D2D4B5CA8CDCAE1B5485AC9"",""assignmentId"":""354afa36-5ed8-40ac-8a17-b363be4b0f1b"",""projectId"":""051c06f1-75cc-4548-856d-4923ddaba0dc""}","https://test12345.live/?num_scrambled_semantic=8&num_scrambled_causal=4&num_scrambled_schematic=4&participantId=0CD71D683D2D4B5CA8CDCAE1B5485AC9&assignmentId=354afa36-5ed8-40ac-8a17-b363be4b0f1b&projectId=051c06f1-75cc-4548-856d-4923ddaba0dc","0CD71D683D2D4B5CA8CDCAE1B5485AC9-2025-05-15-18-53-02","","1279","","images/causal_sequence/the_performance_causal/the_performance_causal_7.png","0","",""
"","","","","","image-button-response","77","290122","0.0-12.0-1.0-2.5","0CD71D683D2D4B5CA8CDCAE1B5485AC9","0CD71D683D2D4B5CA8CDCAE1B5485AC9","354afa36-5ed8-40ac-8a17-b363be4b0f1b","051c06f1-75cc-4548-856d-4923ddaba0dc","{""num_scrambled_semantic"":""8"",""num_scrambled_causal"":""4"",""num_scrambled_schematic"":""4"",""participantId"":""0CD71D683D2D4B5CA8CDCAE1B5485AC9"",""assignmentId"":""354afa36-5ed8-40ac-8a17-b363be4b0f1b"",""projectId"":""051c06f1-75cc-4548-856d-4923ddaba0dc""}","https://test12345.live/?num_scrambled_semantic=8&num_scrambled_causal=4&num_scrambled_schematic=4&participantId=0CD71D683D2D4B5CA8CDCAE1B5485AC9&assignmentId=354afa36-5ed8-40ac-8a17-b363be4b0f1b&projectId=051c06f1-75cc-4548-856d-4923ddaba0dc","0CD71D683D2D4B5CA8CDCAE1B5485AC9-2025-05-15-18-53-02","","null","","[]","null","",""
"","","","","","image-button-response","78","294647","0.0-12.0-1.0-0.6","0CD71D683D2D4B5CA8CDCAE1B5485AC9","0CD71D683D2D4B5CA8CDCAE1B5485AC9","354afa36-5ed8-40ac-8a17-b363be4b0f1b","051c06f1-75cc-4548-856d-4923ddaba0dc","{""num_scrambled_semantic"":""8"",""num_scrambled_causal"":""4"",""num_scrambled_schematic"":""4"",""participantId"":""0CD71D683D2D4B5CA8CDCAE1B5485AC9"",""assignmentId"":""354afa36-5ed8-40ac-8a17-b363be4b0f1b"",""projectId"":""051c06f1-75cc-4548-856d-4923ddaba0dc""}","https://test12345.live/?num_scrambled_semantic=8&num_scrambled_causal=4&num_scrambled_schematic=4&participantId=0CD71D683D2D4B5CA8CDCAE1B5485AC9&assignmentId=354afa36-5ed8-40ac-8a17-b363be4b0f1b&projectId=051c06f1-75cc-4548-856d-4923ddaba0dc","0CD71D683D2D4B5CA8CDCAE1B5485AC9-2025-05-15-18-53-02","","null","","images/causal_sequence/the_performance_causal/the_performance_causal_8.png","null","",""
"","","","","","image-button-response","79","296106","0.0-12.0-1.0-1.6","0CD71D683D2D4B5CA8CDCAE1B5485AC9","0CD71D683D2D4B5CA8CDCAE1B5485AC9","354afa36-5ed8-40ac-8a17-b363be4b0f1b","051c06f1-75cc-4548-856d-4923ddaba0dc","{""num_scrambled_semantic"":""8"",""num_scrambled_causal"":""4"",""num_scrambled_schematic"":""4"",""participantId"":""0CD71D683D2D4B5CA8CDCAE1B5485AC9"",""assignmentId"":""354afa36-5ed8-40ac-8a17-b363be4b0f1b"",""projectId"":""051c06f1-75cc-4548-856d-4923ddaba0dc""}","https://test12345.live/?num_scrambled_semantic=8&num_scrambled_causal=4&num_scrambled_schematic=4&participantId=0CD71D683D2D4B5CA8CDCAE1B5485AC9&assignmentId=354afa36-5ed8-40ac-8a17-b363be4b0f1b&projectId=051c06f1-75cc-4548-856d-4923ddaba0dc","0CD71D683D2D4B5CA8CDCAE1B5485AC9-2025-05-15-18-53-02","","1457","","images/causal_sequence/the_performance_causal/the_performance_causal_8.png","0","",""
"","","","","","image-button-response","80","297907","0.0-12.0-1.0-2.6","0CD71D683D2D4B5CA8CDCAE1B5485AC9","0CD71D683D2D4B5CA8CDCAE1B5485AC9","354afa36-5ed8-40ac-8a17-b363be4b0f1b","051c06f1-75cc-4548-856d-4923ddaba0dc","{""num_scrambled_semantic"":""8"",""num_scrambled_causal"":""4"",""num_scrambled_schematic"":""4"",""participantId"":""0CD71D683D2D4B5CA8CDCAE1B5485AC9"",""assignmentId"":""354afa36-5ed8-40ac-8a17-b363be4b0f1b"",""projectId"":""051c06f1-75cc-4548-856d-4923ddaba0dc""}","https://test12345.live/?num_scrambled_semantic=8&num_scrambled_causal=4&num_scrambled_schematic=4&participantId=0CD71D683D2D4B5CA8CDCAE1B5485AC9&assignmentId=354afa36-5ed8-40ac-8a17-b363be4b0f1b&projectId=051c06f1-75cc-4548-856d-4923ddaba0dc","0CD71D683D2D4B5CA8CDCAE1B5485AC9-2025-05-15-18-53-02","","null","","[]","null","",""
"","","","","","image-button-response","81","302424","0.0-12.0-1.0-0.7","0CD71D683D2D4B5CA8CDCAE1B5485AC9","0CD71D683D2D4B5CA8CDCAE1B5485AC9","354afa36-5ed8-40ac-8a17-b363be4b0f1b","051c06f1-75cc-4548-856d-4923ddaba0dc","{""num_scrambled_semantic"":""8"",""num_scrambled_causal"":""4"",""num_scrambled_schematic"":""4"",""participantId"":""0CD71D683D2D4B5CA8CDCAE1B5485AC9"",""assignmentId"":""354afa36-5ed8-40ac-8a17-b363be4b0f1b"",""projectId"":""051c06f1-75cc-4548-856d-4923ddaba0dc""}","https://test12345.live/?num_scrambled_semantic=8&num_scrambled_causal=4&num_scrambled_schematic=4&participantId=0CD71D683D2D4B5CA8CDCAE1B5485AC9&assignmentId=354afa36-5ed8-40ac-8a17-b363be4b0f1b&projectId=051c06f1-75cc-4548-856d-4923ddaba0dc","0CD71D683D2D4B5CA8CDCAE1B5485AC9-2025-05-15-18-53-02","","null","","images/causal_sequence/the_performance_causal/the_performance_causal_3.png","null","",""
"","","","","","image-button-response","82","303439","0.0-12.0-1.0-1.7","0CD71D683D2D4B5CA8CDCAE1B5485AC9","0CD71D683D2D4B5CA8CDCAE1B5485AC9","354afa36-5ed8-40ac-8a17-b363be4b0f1b","051c06f1-75cc-4548-856d-4923ddaba0dc","{""num_scrambled_semantic"":""8"",""num_scrambled_causal"":""4"",""num_scrambled_schematic"":""4"",""participantId"":""0CD71D683D2D4B5CA8CDCAE1B5485AC9"",""assignmentId"":""354afa36-5ed8-40ac-8a17-b363be4b0f1b"",""projectId"":""051c06f1-75cc-4548-856d-4923ddaba0dc""}","https://test12345.live/?num_scrambled_semantic=8&num_scrambled_causal=4&num_scrambled_schematic=4&participantId=0CD71D683D2D4B5CA8CDCAE1B5485AC9&assignmentId=354afa36-5ed8-40ac-8a17-b363be4b0f1b&projectId=051c06f1-75cc-4548-856d-4923ddaba0dc","0CD71D683D2D4B5CA8CDCAE1B5485AC9-2025-05-15-18-53-02","","1015","","images/causal_sequence/the_performance_causal/the_performance_causal_3.png","0","",""
"","","","","","image-button-response","83","305241","0.0-12.0-1.0-2.7","0CD71D683D2D4B5CA8CDCAE1B5485AC9","0CD71D683D2D4B5CA8CDCAE1B5485AC9","354afa36-5ed8-40ac-8a17-b363be4b0f1b","051c06f1-75cc-4548-856d-4923ddaba0dc","{""num_scrambled_semantic"":""8"",""num_scrambled_causal"":""4"",""num_scrambled_schematic"":""4"",""participantId"":""0CD71D683D2D4B5CA8CDCAE1B5485AC9"",""assignmentId"":""354afa36-5ed8-40ac-8a17-b363be4b0f1b"",""projectId"":""051c06f1-75cc-4548-856d-4923ddaba0dc""}","https://test12345.live/?num_scrambled_semantic=8&num_scrambled_causal=4&num_scrambled_schematic=4&participantId=0CD71D683D2D4B5CA8CDCAE1B5485AC9&assignmentId=354afa36-5ed8-40ac-8a17-b363be4b0f1b&projectId=051c06f1-75cc-4548-856d-4923ddaba0dc","0CD71D683D2D4B5CA8CDCAE1B5485AC9-2025-05-15-18-53-02","","null","","[]","null","",""
"","","","","","image-button-response","84","309766","0.0-12.0-1.0-0.8","0CD71D683D2D4B5CA8CDCAE1B5485AC9","0CD71D683D2D4B5CA8CDCAE1B5485AC9","354afa36-5ed8-40ac-8a17-b363be4b0f1b","051c06f1-75cc-4548-856d-4923ddaba0dc","{""num_scrambled_semantic"":""8"",""num_scrambled_causal"":""4"",""num_scrambled_schematic"":""4"",""participantId"":""0CD71D683D2D4B5CA8CDCAE1B5485AC9"",""assignmentId"":""354afa36-5ed8-40ac-8a17-b363be4b0f1b"",""projectId"":""051c06f1-75cc-4548-856d-4923ddaba0dc""}","https://test12345.live/?num_scrambled_semantic=8&num_scrambled_causal=4&num_scrambled_schematic=4&participantId=0CD71D683D2D4B5CA8CDCAE1B5485AC9&assignmentId=354afa36-5ed8-40ac-8a17-b363be4b0f1b&projectId=051c06f1-75cc-4548-856d-4923ddaba0dc","0CD71D683D2D4B5CA8CDCAE1B5485AC9-2025-05-15-18-53-02","","null","","images/causal_sequence/the_performance_causal/the_performance_causal_2.png","null","",""
"","","","","","image-button-response","85","311748","0.0-12.0-1.0-1.8","0CD71D683D2D4B5CA8CDCAE1B5485AC9","0CD71D683D2D4B5CA8CDCAE1B5485AC9","354afa36-5ed8-40ac-8a17-b363be4b0f1b","051c06f1-75cc-4548-856d-4923ddaba0dc","{""num_scrambled_semantic"":""8"",""num_scrambled_causal"":""4"",""num_scrambled_schematic"":""4"",""participantId"":""0CD71D683D2D4B5CA8CDCAE1B5485AC9"",""assignmentId"":""354afa36-5ed8-40ac-8a17-b363be4b0f1b"",""projectId"":""051c06f1-75cc-4548-856d-4923ddaba0dc""}","https://test12345.live/?num_scrambled_semantic=8&num_scrambled_causal=4&num_scrambled_schematic=4&participantId=0CD71D683D2D4B5CA8CDCAE1B5485AC9&assignmentId=354afa36-5ed8-40ac-8a17-b363be4b0f1b&projectId=051c06f1-75cc-4548-856d-4923ddaba0dc","0CD71D683D2D4B5CA8CDCAE1B5485AC9-2025-05-15-18-53-02","","1980","","images/causal_sequence/the_performance_causal/the_performance_causal_2.png","0","",""
"","","","","","image-button-response","86","313550","0.0-12.0-1.0-2.8","0CD71D683D2D4B5CA8CDCAE1B5485AC9","0CD71D683D2D4B5CA8CDCAE1B5485AC9","354afa36-5ed8-40ac-8a17-b363be4b0f1b","051c06f1-75cc-4548-856d-4923ddaba0dc","{""num_scrambled_semantic"":""8"",""num_scrambled_causal"":""4"",""num_scrambled_schematic"":""4"",""participantId"":""0CD71D683D2D4B5CA8CDCAE1B5485AC9"",""assignmentId"":""354afa36-5ed8-40ac-8a17-b363be4b0f1b"",""projectId"":""051c06f1-75cc-4548-856d-4923ddaba0dc""}","https://test12345.live/?num_scrambled_semantic=8&num_scrambled_causal=4&num_scrambled_schematic=4&participantId=0CD71D683D2D4B5CA8CDCAE1B5485AC9&assignmentId=354afa36-5ed8-40ac-8a17-b363be4b0f1b&projectId=051c06f1-75cc-4548-856d-4923ddaba0dc","0CD71D683D2D4B5CA8CDCAE1B5485AC9-2025-05-15-18-53-02","","null","","[]","null","",""
"","","","","","image-button-response","87","318075","0.0-12.0-1.0-0.9","0CD71D683D2D4B5CA8CDCAE1B5485AC9","0CD71D683D2D4B5CA8CDCAE1B5485AC9","354afa36-5ed8-40ac-8a17-b363be4b0f1b","051c06f1-75cc-4548-856d-4923ddaba0dc","{""num_scrambled_semantic"":""8"",""num_scrambled_causal"":""4"",""num_scrambled_schematic"":""4"",""participantId"":""0CD71D683D2D4B5CA8CDCAE1B5485AC9"",""assignmentId"":""354afa36-5ed8-40ac-8a17-b363be4b0f1b"",""projectId"":""051c06f1-75cc-4548-856d-4923ddaba0dc""}","https://test12345.live/?num_scrambled_semantic=8&num_scrambled_causal=4&num_scrambled_schematic=4&participantId=0CD71D683D2D4B5CA8CDCAE1B5485AC9&assignmentId=354afa36-5ed8-40ac-8a17-b363be4b0f1b&projectId=051c06f1-75cc-4548-856d-4923ddaba0dc","0CD71D683D2D4B5CA8CDCAE1B5485AC9-2025-05-15-18-53-02","","null","","images/causal_sequence/the_performance_causal/the_performance_causal_1.png","null","",""
"","","","","","image-button-response","88","319680","0.0-12.0-1.0-1.9","0CD71D683D2D4B5CA8CDCAE1B5485AC9","0CD71D683D2D4B5CA8CDCAE1B5485AC9","354afa36-5ed8-40ac-8a17-b363be4b0f1b","051c06f1-75cc-4548-856d-4923ddaba0dc","{""num_scrambled_semantic"":""8"",""num_scrambled_causal"":""4"",""num_scrambled_schematic"":""4"",""participantId"":""0CD71D683D2D4B5CA8CDCAE1B5485AC9"",""assignmentId"":""354afa36-5ed8-40ac-8a17-b363be4b0f1b"",""projectId"":""051c06f1-75cc-4548-856d-4923ddaba0dc""}","https://test12345.live/?num_scrambled_semantic=8&num_scrambled_causal=4&num_scrambled_schematic=4&participantId=0CD71D683D2D4B5CA8CDCAE1B5485AC9&assignmentId=354afa36-5ed8-40ac-8a17-b363be4b0f1b&projectId=051c06f1-75cc-4548-856d-4923ddaba0dc","0CD71D683D2D4B5CA8CDCAE1B5485AC9-2025-05-15-18-53-02","","1581","","images/causal_sequence/the_performance_causal/the_performance_causal_1.png","0","",""
"","","","","","image-button-response","89","321482","0.0-12.0-1.0-2.9","0CD71D683D2D4B5CA8CDCAE1B5485AC9","0CD71D683D2D4B5CA8CDCAE1B5485AC9","354afa36-5ed8-40ac-8a17-b363be4b0f1b","051c06f1-75cc-4548-856d-4923ddaba0dc","{""num_scrambled_semantic"":""8"",""num_scrambled_causal"":""4"",""num_scrambled_schematic"":""4"",""participantId"":""0CD71D683D2D4B5CA8CDCAE1B5485AC9"",""assignmentId"":""354afa36-5ed8-40ac-8a17-b363be4b0f1b"",""projectId"":""051c06f1-75cc-4548-856d-4923ddaba0dc""}","https://test12345.live/?num_scrambled_semantic=8&num_scrambled_causal=4&num_scrambled_schematic=4&participantId=0CD71D683D2D4B5CA8CDCAE1B5485AC9&assignmentId=354afa36-5ed8-40ac-8a17-b363be4b0f1b&projectId=051c06f1-75cc-4548-856d-4923ddaba0dc","0CD71D683D2D4B5CA8CDCAE1B5485AC9-2025-05-15-18-53-02","","null","","[]","null","",""
"","","","","","html-audio-response","90","358348","0.0-13.0","0CD71D683D2D4B5CA8CDCAE1B5485AC9","0CD71D683D2D4B5CA8CDCAE1B5485AC9","354afa36-5ed8-40ac-8a17-b363be4b0f1b","051c06f1-75cc-4548-856d-4923ddaba0dc","{""num_scrambled_semantic"":""8"",""num_scrambled_causal"":""4"",""num_scrambled_schematic"":""4"",""participantId"":""0CD71D683D2D4B5CA8CDCAE1B5485AC9"",""assignmentId"":""354afa36-5ed8-40ac-8a17-b363be4b0f1b"",""projectId"":""051c06f1-75cc-4548-856d-4923ddaba0dc""}","https://test12345.live/?num_scrambled_semantic=8&num_scrambled_causal=4&num_scrambled_schematic=4&participantId=0CD71D683D2D4B5CA8CDCAE1B5485AC9&assignmentId=354afa36-5ed8-40ac-8a17-b363be4b0f1b&projectId=051c06f1-75cc-4548-856d-4923ddaba0dc","0CD71D683D2D4B5CA8CDCAE1B5485AC9-2025-05-15-18-53-02","","5277","","[""<span style=\""color: red; font-size: 24px\""> NOW RECORDING</span><p>Please say out loud all the images you saw, as many as you can remember. The images can be said in any order.</p>""]","","2","the_performance_causal"
"","","","","","image-button-response","91","364360","0.0-14.0-0.0","0CD71D683D2D4B5CA8CDCAE1B5485AC9","0CD71D683D2D4B5CA8CDCAE1B5485AC9","354afa36-5ed8-40ac-8a17-b363be4b0f1b","051c06f1-75cc-4548-856d-4923ddaba0dc","{""num_scrambled_semantic"":""8"",""num_scrambled_causal"":""4"",""num_scrambled_schematic"":""4"",""participantId"":""0CD71D683D2D4B5CA8CDCAE1B5485AC9"",""assignmentId"":""354afa36-5ed8-40ac-8a17-b363be4b0f1b"",""projectId"":""051c06f1-75cc-4548-856d-4923ddaba0dc""}","https://test12345.live/?num_scrambled_semantic=8&num_scrambled_causal=4&num_scrambled_schematic=4&participantId=0CD71D683D2D4B5CA8CDCAE1B5485AC9&assignmentId=354afa36-5ed8-40ac-8a17-b363be4b0f1b&projectId=051c06f1-75cc-4548-856d-4923ddaba0dc","0CD71D683D2D4B5CA8CDCAE1B5485AC9-2025-05-15-18-53-02","","null","","images/semantic_sequence/creative_activities_semantic/creative_activities_semantic_0.png","null","",""
"","","","","","image-button-response","92","368883","0.0-14.0-1.0-0.0","0CD71D683D2D4B5CA8CDCAE1B5485AC9","0CD71D683D2D4B5CA8CDCAE1B5485AC9","354afa36-5ed8-40ac-8a17-b363be4b0f1b","051c06f1-75cc-4548-856d-4923ddaba0dc","{""num_scrambled_semantic"":""8"",""num_scrambled_causal"":""4"",""num_scrambled_schematic"":""4"",""participantId"":""0CD71D683D2D4B5CA8CDCAE1B5485AC9"",""assignmentId"":""354afa36-5ed8-40ac-8a17-b363be4b0f1b"",""projectId"":""051c06f1-75cc-4548-856d-4923ddaba0dc""}","https://test12345.live/?num_scrambled_semantic=8&num_scrambled_causal=4&num_scrambled_schematic=4&participantId=0CD71D683D2D4B5CA8CDCAE1B5485AC9&assignmentId=354afa36-5ed8-40ac-8a17-b363be4b0f1b&projectId=051c06f1-75cc-4548-856d-4923ddaba0dc","0CD71D683D2D4B5CA8CDCAE1B5485AC9-2025-05-15-18-53-02","","null","","images/semantic_sequence/creative_activities_semantic/creative_activities_semantic_7.png","null","",""
"","","","","","image-button-response","93","369885","0.0-14.0-1.0-1.0","0CD71D683D2D4B5CA8CDCAE1B5485AC9","0CD71D683D2D4B5CA8CDCAE1B5485AC9","354afa36-5ed8-40ac-8a17-b363be4b0f1b","051c06f1-75cc-4548-856d-4923ddaba0dc","{""num_scrambled_semantic"":""8"",""num_scrambled_causal"":""4"",""num_scrambled_schematic"":""4"",""participantId"":""0CD71D683D2D4B5CA8CDCAE1B5485AC9"",""assignmentId"":""354afa36-5ed8-40ac-8a17-b363be4b0f1b"",""projectId"":""051c06f1-75cc-4548-856d-4923ddaba0dc""}","https://test12345.live/?num_scrambled_semantic=8&num_scrambled_causal=4&num_scrambled_schematic=4&participantId=0CD71D683D2D4B5CA8CDCAE1B5485AC9&assignmentId=354afa36-5ed8-40ac-8a17-b363be4b0f1b&projectId=051c06f1-75cc-4548-856d-4923ddaba0dc","0CD71D683D2D4B5CA8CDCAE1B5485AC9-2025-05-15-18-53-02","","1001","","images/semantic_sequence/creative_activities_semantic/creative_activities_semantic_7.png","0","",""
"","","","","","image-button-response","94","371688","0.0-14.0-1.0-2.0","0CD71D683D2D4B5CA8CDCAE1B5485AC9","0CD71D683D2D4B5CA8CDCAE1B5485AC9","354afa36-5ed8-40ac-8a17-b363be4b0f1b","051c06f1-75cc-4548-856d-4923ddaba0dc","{""num_scrambled_semantic"":""8"",""num_scrambled_causal"":""4"",""num_scrambled_schematic"":""4"",""participantId"":""0CD71D683D2D4B5CA8CDCAE1B5485AC9"",""assignmentId"":""354afa36-5ed8-40ac-8a17-b363be4b0f1b"",""projectId"":""051c06f1-75cc-4548-856d-4923ddaba0dc""}","https://test12345.live/?num_scrambled_semantic=8&num_scrambled_causal=4&num_scrambled_schematic=4&participantId=0CD71D683D2D4B5CA8CDCAE1B5485AC9&assignmentId=354afa36-5ed8-40ac-8a17-b363be4b0f1b&projectId=051c06f1-75cc-4548-856d-4923ddaba0dc","0CD71D683D2D4B5CA8CDCAE1B5485AC9-2025-05-15-18-53-02","","null","","[]","null","",""
"","","","","","image-button-response","95","376212","0.0-14.0-1.0-0.1","0CD71D683D2D4B5CA8CDCAE1B5485AC9","0CD71D683D2D4B5CA8CDCAE1B5485AC9","354afa36-5ed8-40ac-8a17-b363be4b0f1b","051c06f1-75cc-4548-856d-4923ddaba0dc","{""num_scrambled_semantic"":""8"",""num_scrambled_causal"":""4"",""num_scrambled_schematic"":""4"",""participantId"":""0CD71D683D2D4B5CA8CDCAE1B5485AC9"",""assignmentId"":""354afa36-5ed8-40ac-8a17-b363be4b0f1b"",""projectId"":""051c06f1-75cc-4548-856d-4923ddaba0dc""}","https://test12345.live/?num_scrambled_semantic=8&num_scrambled_causal=4&num_scrambled_schematic=4&participantId=0CD71D683D2D4B5CA8CDCAE1B5485AC9&assignmentId=354afa36-5ed8-40ac-8a17-b363be4b0f1b&projectId=051c06f1-75cc-4548-856d-4923ddaba0dc","0CD71D683D2D4B5CA8CDCAE1B5485AC9-2025-05-15-18-53-02","","null","","images/semantic_sequence/creative_activities_semantic/creative_activities_semantic_4.png","null","",""
"","","","","","image-button-response","96","377202","0.0-14.0-1.0-1.1","0CD71D683D2D4B5CA8CDCAE1B5485AC9","0CD71D683D2D4B5CA8CDCAE1B5485AC9","354afa36-5ed8-40ac-8a17-b363be4b0f1b","051c06f1-75cc-4548-856d-4923ddaba0dc","{""num_scrambled_semantic"":""8"",""num_scrambled_causal"":""4"",""num_scrambled_schematic"":""4"",""participantId"":""0CD71D683D2D4B5CA8CDCAE1B5485AC9"",""assignmentId"":""354afa36-5ed8-40ac-8a17-b363be4b0f1b"",""projectId"":""051c06f1-75cc-4548-856d-4923ddaba0dc""}","https://test12345.live/?num_scrambled_semantic=8&num_scrambled_causal=4&num_scrambled_schematic=4&participantId=0CD71D683D2D4B5CA8CDCAE1B5485AC9&assignmentId=354afa36-5ed8-40ac-8a17-b363be4b0f1b&projectId=051c06f1-75cc-4548-856d-4923ddaba0dc","0CD71D683D2D4B5CA8CDCAE1B5485AC9-2025-05-15-18-53-02","","988","","images/semantic_sequence/creative_activities_semantic/creative_activities_semantic_4.png","0","",""
"","","","","","image-button-response","97","379004","0.0-14.0-1.0-2.1","0CD71D683D2D4B5CA8CDCAE1B5485AC9","0CD71D683D2D4B5CA8CDCAE1B5485AC9","354afa36-5ed8-40ac-8a17-b363be4b0f1b","051c06f1-75cc-4548-856d-4923ddaba0dc","{""num_scrambled_semantic"":""8"",""num_scrambled_causal"":""4"",""num_scrambled_schematic"":""4"",""participantId"":""0CD71D683D2D4B5CA8CDCAE1B5485AC9"",""assignmentId"":""354afa36-5ed8-40ac-8a17-b363be4b0f1b"",""projectId"":""051c06f1-75cc-4548-856d-4923ddaba0dc""}","https://test12345.live/?num_scrambled_semantic=8&num_scrambled_causal=4&num_scrambled_schematic=4&participantId=0CD71D683D2D4B5CA8CDCAE1B5485AC9&assignmentId=354afa36-5ed8-40ac-8a17-b363be4b0f1b&projectId=051c06f1-75cc-4548-856d-4923ddaba0dc","0CD71D683D2D4B5CA8CDCAE1B5485AC9-2025-05-15-18-53-02","","null","","[]","null","",""
"","","","","","image-button-response","98","383529","0.0-14.0-1.0-0.2","0CD71D683D2D4B5CA8CDCAE1B5485AC9","0CD71D683D2D4B5CA8CDCAE1B5485AC9","354afa36-5ed8-40ac-8a17-b363be4b0f1b","051c06f1-75cc-4548-856d-4923ddaba0dc","{""num_scrambled_semantic"":""8"",""num_scrambled_causal"":""4"",""num_scrambled_schematic"":""4"",""participantId"":""0CD71D683D2D4B5CA8CDCAE1B5485AC9"",""assignmentId"":""354afa36-5ed8-40ac-8a17-b363be4b0f1b"",""projectId"":""051c06f1-75cc-4548-856d-4923ddaba0dc""}","https://test12345.live/?num_scrambled_semantic=8&num_scrambled_causal=4&num_scrambled_schematic=4&participantId=0CD71D683D2D4B5CA8CDCAE1B5485AC9&assignmentId=354afa36-5ed8-40ac-8a17-b363be4b0f1b&projectId=051c06f1-75cc-4548-856d-4923ddaba0dc","0CD71D683D2D4B5CA8CDCAE1B5485AC9-2025-05-15-18-53-02","","null","","images/semantic_sequence/creative_activities_semantic/creative_activities_semantic_9.png","null","",""
"","","","","","image-button-response","99","385406","0.0-14.0-1.0-1.2","0CD71D683D2D4B5CA8CDCAE1B5485AC9","0CD71D683D2D4B5CA8CDCAE1B5485AC9","354afa36-5ed8-40ac-8a17-b363be4b0f1b","051c06f1-75cc-4548-856d-4923ddaba0dc","{""num_scrambled_semantic"":""8"",""num_scrambled_causal"":""4"",""num_scrambled_schematic"":""4"",""participantId"":""0CD71D683D2D4B5CA8CDCAE1B5485AC9"",""assignmentId"":""354afa36-5ed8-40ac-8a17-b363be4b0f1b"",""projectId"":""051c06f1-75cc-4548-856d-4923ddaba0dc""}","https://test12345.live/?num_scrambled_semantic=8&num_scrambled_causal=4&num_scrambled_schematic=4&participantId=0CD71D683D2D4B5CA8CDCAE1B5485AC9&assignmentId=354afa36-5ed8-40ac-8a17-b363be4b0f1b&projectId=051c06f1-75cc-4548-856d-4923ddaba0dc","0CD71D683D2D4B5CA8CDCAE1B5485AC9-2025-05-15-18-53-02","","1875","","images/semantic_sequence/creative_activities_semantic/creative_activities_semantic_9.png","0","",""
"","","","","","image-button-response","100","387208","0.0-14.0-1.0-2.2","0CD71D683D2D4B5CA8CDCAE1B5485AC9","0CD71D683D2D4B5CA8CDCAE1B5485AC9","354afa36-5ed8-40ac-8a17-b363be4b0f1b","051c06f1-75cc-4548-856d-4923ddaba0dc","{""num_scrambled_semantic"":""8"",""num_scrambled_causal"":""4"",""num_scrambled_schematic"":""4"",""participantId"":""0CD71D683D2D4B5CA8CDCAE1B5485AC9"",""assignmentId"":""354afa36-5ed8-40ac-8a17-b363be4b0f1b"",""projectId"":""051c06f1-75cc-4548-856d-4923ddaba0dc""}","https://test12345.live/?num_scrambled_semantic=8&num_scrambled_causal=4&num_scrambled_schematic=4&participantId=0CD71D683D2D4B5CA8CDCAE1B5485AC9&assignmentId=354afa36-5ed8-40ac-8a17-b363be4b0f1b&projectId=051c06f1-75cc-4548-856d-4923ddaba0dc","0CD71D683D2D4B5CA8CDCAE1B5485AC9-2025-05-15-18-53-02","","null","","[]","null","",""
"","","","","","image-button-response","101","391732","0.0-14.0-1.0-0.3","0CD71D683D2D4B5CA8CDCAE1B5485AC9","0CD71D683D2D4B5CA8CDCAE1B5485AC9","354afa36-5ed8-40ac-8a17-b363be4b0f1b","051c06f1-75cc-4548-856d-4923ddaba0dc","{""num_scrambled_semantic"":""8"",""num_scrambled_causal"":""4"",""num_scrambled_schematic"":""4"",""participantId"":""0CD71D683D2D4B5CA8CDCAE1B5485AC9"",""assignmentId"":""354afa36-5ed8-40ac-8a17-b363be4b0f1b"",""projectId"":""051c06f1-75cc-4548-856d-4923ddaba0dc""}","https://test12345.live/?num_scrambled_semantic=8&num_scrambled_causal=4&num_scrambled_schematic=4&participantId=0CD71D683D2D4B5CA8CDCAE1B5485AC9&assignmentId=354afa36-5ed8-40ac-8a17-b363be4b0f1b&projectId=051c06f1-75cc-4548-856d-4923ddaba0dc","0CD71D683D2D4B5CA8CDCAE1B5485AC9-2025-05-15-18-53-02","","null","","images/semantic_sequence/creative_activities_semantic/creative_activities_semantic_6.png","null","",""
"","","","","","image-button-response","102","392910","0.0-14.0-1.0-1.3","0CD71D683D2D4B5CA8CDCAE1B5485AC9","0CD71D683D2D4B5CA8CDCAE1B5485AC9","354afa36-5ed8-40ac-8a17-b363be4b0f1b","051c06f1-75cc-4548-856d-4923ddaba0dc","{""num_scrambled_semantic"":""8"",""num_scrambled_causal"":""4"",""num_scrambled_schematic"":""4"",""participantId"":""0CD71D683D2D4B5CA8CDCAE1B5485AC9"",""assignmentId"":""354afa36-5ed8-40ac-8a17-b363be4b0f1b"",""projectId"":""051c06f1-75cc-4548-856d-4923ddaba0dc""}","https://test12345.live/?num_scrambled_semantic=8&num_scrambled_causal=4&num_scrambled_schematic=4&participantId=0CD71D683D2D4B5CA8CDCAE1B5485AC9&assignmentId=354afa36-5ed8-40ac-8a17-b363be4b0f1b&projectId=051c06f1-75cc-4548-856d-4923ddaba0dc","0CD71D683D2D4B5CA8CDCAE1B5485AC9-2025-05-15-18-53-02","","1177","","images/semantic_sequence/creative_activities_semantic/creative_activities_semantic_6.png","0","",""
"","","","","","image-button-response","103","394712","0.0-14.0-1.0-2.3","0CD71D683D2D4B5CA8CDCAE1B5485AC9","0CD71D683D2D4B5CA8CDCAE1B5485AC9","354afa36-5ed8-40ac-8a17-b363be4b0f1b","051c06f1-75cc-4548-856d-4923ddaba0dc","{""num_scrambled_semantic"":""8"",""num_scrambled_causal"":""4"",""num_scrambled_schematic"":""4"",""participantId"":""0CD71D683D2D4B5CA8CDCAE1B5485AC9"",""assignmentId"":""354afa36-5ed8-40ac-8a17-b363be4b0f1b"",""projectId"":""051c06f1-75cc-4548-856d-4923ddaba0dc""}","https://test12345.live/?num_scrambled_semantic=8&num_scrambled_causal=4&num_scrambled_schematic=4&participantId=0CD71D683D2D4B5CA8CDCAE1B5485AC9&assignmentId=354afa36-5ed8-40ac-8a17-b363be4b0f1b&projectId=051c06f1-75cc-4548-856d-4923ddaba0dc","0CD71D683D2D4B5CA8CDCAE1B5485AC9-2025-05-15-18-53-02","","null","","[]","null","",""
"","","","","","image-button-response","104","399225","0.0-14.0-1.0-0.4","0CD71D683D2D4B5CA8CDCAE1B5485AC9","0CD71D683D2D4B5CA8CDCAE1B5485AC9","354afa36-5ed8-40ac-8a17-b363be4b0f1b","051c06f1-75cc-4548-856d-4923ddaba0dc","{""num_scrambled_semantic"":""8"",""num_scrambled_causal"":""4"",""num_scrambled_schematic"":""4"",""participantId"":""0CD71D683D2D4B5CA8CDCAE1B5485AC9"",""assignmentId"":""354afa36-5ed8-40ac-8a17-b363be4b0f1b"",""projectId"":""051c06f1-75cc-4548-856d-4923ddaba0dc""}","https://test12345.live/?num_scrambled_semantic=8&num_scrambled_causal=4&num_scrambled_schematic=4&participantId=0CD71D683D2D4B5CA8CDCAE1B5485AC9&assignmentId=354afa36-5ed8-40ac-8a17-b363be4b0f1b&projectId=051c06f1-75cc-4548-856d-4923ddaba0dc","0CD71D683D2D4B5CA8CDCAE1B5485AC9-2025-05-15-18-53-02","","null","","images/semantic_sequence/creative_activities_semantic/creative_activities_semantic_5.png","null","",""
"","","","","","image-button-response","105","400736","0.0-14.0-1.0-1.4","0CD71D683D2D4B5CA8CDCAE1B5485AC9","0CD71D683D2D4B5CA8CDCAE1B5485AC9","354afa36-5ed8-40ac-8a17-b363be4b0f1b","051c06f1-75cc-4548-856d-4923ddaba0dc","{""num_scrambled_semantic"":""8"",""num_scrambled_causal"":""4"",""num_scrambled_schematic"":""4"",""participantId"":""0CD71D683D2D4B5CA8CDCAE1B5485AC9"",""assignmentId"":""354afa36-5ed8-40ac-8a17-b363be4b0f1b"",""projectId"":""051c06f1-75cc-4548-856d-4923ddaba0dc""}","https://test12345.live/?num_scrambled_semantic=8&num_scrambled_causal=4&num_scrambled_schematic=4&participantId=0CD71D683D2D4B5CA8CDCAE1B5485AC9&assignmentId=354afa36-5ed8-40ac-8a17-b363be4b0f1b&projectId=051c06f1-75cc-4548-856d-4923ddaba0dc","0CD71D683D2D4B5CA8CDCAE1B5485AC9-2025-05-15-18-53-02","","1509","","images/semantic_sequence/creative_activities_semantic/creative_activities_semantic_5.png","0","",""
"","","","","","image-button-response","106","402539","0.0-14.0-1.0-2.4","0CD71D683D2D4B5CA8CDCAE1B5485AC9","0CD71D683D2D4B5CA8CDCAE1B5485AC9","354afa36-5ed8-40ac-8a17-b363be4b0f1b","051c06f1-75cc-4548-856d-4923ddaba0dc","{""num_scrambled_semantic"":""8"",""num_scrambled_causal"":""4"",""num_scrambled_schematic"":""4"",""participantId"":""0CD71D683D2D4B5CA8CDCAE1B5485AC9"",""assignmentId"":""354afa36-5ed8-40ac-8a17-b363be4b0f1b"",""projectId"":""051c06f1-75cc-4548-856d-4923ddaba0dc""}","https://test12345.live/?num_scrambled_semantic=8&num_scrambled_causal=4&num_scrambled_schematic=4&participantId=0CD71D683D2D4B5CA8CDCAE1B5485AC9&assignmentId=354afa36-5ed8-40ac-8a17-b363be4b0f1b&projectId=051c06f1-75cc-4548-856d-4923ddaba0dc","0CD71D683D2D4B5CA8CDCAE1B5485AC9-2025-05-15-18-53-02","","null","","[]","null","",""
"","","","","","image-button-response","107","407064","0.0-14.0-1.0-0.5","0CD71D683D2D4B5CA8CDCAE1B5485AC9","0CD71D683D2D4B5CA8CDCAE1B5485AC9","354afa36-5ed8-40ac-8a17-b363be4b0f1b","051c06f1-75cc-4548-856d-4923ddaba0dc","{""num_scrambled_semantic"":""8"",""num_scrambled_causal"":""4"",""num_scrambled_schematic"":""4"",""participantId"":""0CD71D683D2D4B5CA8CDCAE1B5485AC9"",""assignmentId"":""354afa36-5ed8-40ac-8a17-b363be4b0f1b"",""projectId"":""051c06f1-75cc-4548-856d-4923ddaba0dc""}","https://test12345.live/?num_scrambled_semantic=8&num_scrambled_causal=4&num_scrambled_schematic=4&participantId=0CD71D683D2D4B5CA8CDCAE1B5485AC9&assignmentId=354afa36-5ed8-40ac-8a17-b363be4b0f1b&projectId=051c06f1-75cc-4548-856d-4923ddaba0dc","0CD71D683D2D4B5CA8CDCAE1B5485AC9-2025-05-15-18-53-02","","null","","images/semantic_sequence/creative_activities_semantic/creative_activities_semantic_8.png","null","",""
"","","","","","image-button-response","108","411043","0.0-14.0-1.0-1.5","0CD71D683D2D4B5CA8CDCAE1B5485AC9","0CD71D683D2D4B5CA8CDCAE1B5485AC9","354afa36-5ed8-40ac-8a17-b363be4b0f1b","051c06f1-75cc-4548-856d-4923ddaba0dc","{""num_scrambled_semantic"":""8"",""num_scrambled_causal"":""4"",""num_scrambled_schematic"":""4"",""participantId"":""0CD71D683D2D4B5CA8CDCAE1B5485AC9"",""assignmentId"":""354afa36-5ed8-40ac-8a17-b363be4b0f1b"",""projectId"":""051c06f1-75cc-4548-856d-4923ddaba0dc""}","https://test12345.live/?num_scrambled_semantic=8&num_scrambled_causal=4&num_scrambled_schematic=4&participantId=0CD71D683D2D4B5CA8CDCAE1B5485AC9&assignmentId=354afa36-5ed8-40ac-8a17-b363be4b0f1b&projectId=051c06f1-75cc-4548-856d-4923ddaba0dc","0CD71D683D2D4B5CA8CDCAE1B5485AC9-2025-05-15-18-53-02","","3978","","images/semantic_sequence/creative_activities_semantic/creative_activities_semantic_8.png","0","",""
"","","","","","image-button-response","109","412846","0.0-14.0-1.0-2.5","0CD71D683D2D4B5CA8CDCAE1B5485AC9","0CD71D683D2D4B5CA8CDCAE1B5485AC9","354afa36-5ed8-40ac-8a17-b363be4b0f1b","051c06f1-75cc-4548-856d-4923ddaba0dc","{""num_scrambled_semantic"":""8"",""num_scrambled_causal"":""4"",""num_scrambled_schematic"":""4"",""participantId"":""0CD71D683D2D4B5CA8CDCAE1B5485AC9"",""assignmentId"":""354afa36-5ed8-40ac-8a17-b363be4b0f1b"",""projectId"":""051c06f1-75cc-4548-856d-4923ddaba0dc""}","https://test12345.live/?num_scrambled_semantic=8&num_scrambled_causal=4&num_scrambled_schematic=4&participantId=0CD71D683D2D4B5CA8CDCAE1B5485AC9&assignmentId=354afa36-5ed8-40ac-8a17-b363be4b0f1b&projectId=051c06f1-75cc-4548-856d-4923ddaba0dc","0CD71D683D2D4B5CA8CDCAE1B5485AC9-2025-05-15-18-53-02","","null","","[]","null","",""
"","","","","","image-button-response","110","417371","0.0-14.0-1.0-0.6","0CD71D683D2D4B5CA8CDCAE1B5485AC9","0CD71D683D2D4B5CA8CDCAE1B5485AC9","354afa36-5ed8-40ac-8a17-b363be4b0f1b","051c06f1-75cc-4548-856d-4923ddaba0dc","{""num_scrambled_semantic"":""8"",""num_scrambled_causal"":""4"",""num_scrambled_schematic"":""4"",""participantId"":""0CD71D683D2D4B5CA8CDCAE1B5485AC9"",""assignmentId"":""354afa36-5ed8-40ac-8a17-b363be4b0f1b"",""projectId"":""051c06f1-75cc-4548-856d-4923ddaba0dc""}","https://test12345.live/?num_scrambled_semantic=8&num_scrambled_causal=4&num_scrambled_schematic=4&participantId=0CD71D683D2D4B5CA8CDCAE1B5485AC9&assignmentId=354afa36-5ed8-40ac-8a17-b363be4b0f1b&projectId=051c06f1-75cc-4548-856d-4923ddaba0dc","0CD71D683D2D4B5CA8CDCAE1B5485AC9-2025-05-15-18-53-02","","null","","images/semantic_sequence/creative_activities_semantic/creative_activities_semantic_3.png","null","",""
"","","","","","image-button-response","111","421372","0.0-14.0-1.0-1.6","0CD71D683D2D4B5CA8CDCAE1B5485AC9","0CD71D683D2D4B5CA8CDCAE1B5485AC9","354afa36-5ed8-40ac-8a17-b363be4b0f1b","051c06f1-75cc-4548-856d-4923ddaba0dc","{""num_scrambled_semantic"":""8"",""num_scrambled_causal"":""4"",""num_scrambled_schematic"":""4"",""participantId"":""0CD71D683D2D4B5CA8CDCAE1B5485AC9"",""assignmentId"":""354afa36-5ed8-40ac-8a17-b363be4b0f1b"",""projectId"":""051c06f1-75cc-4548-856d-4923ddaba0dc""}","https://test12345.live/?num_scrambled_semantic=8&num_scrambled_causal=4&num_scrambled_schematic=4&participantId=0CD71D683D2D4B5CA8CDCAE1B5485AC9&assignmentId=354afa36-5ed8-40ac-8a17-b363be4b0f1b&projectId=051c06f1-75cc-4548-856d-4923ddaba0dc","0CD71D683D2D4B5CA8CDCAE1B5485AC9-2025-05-15-18-53-02","","null","","images/semantic_sequence/creative_activities_semantic/creative_activities_semantic_3.png","null","",""
"","","","","","image-button-response","112","423175","0.0-14.0-1.0-2.6","0CD71D683D2D4B5CA8CDCAE1B5485AC9","0CD71D683D2D4B5CA8CDCAE1B5485AC9","354afa36-5ed8-40ac-8a17-b363be4b0f1b","051c06f1-75cc-4548-856d-4923ddaba0dc","{""num_scrambled_semantic"":""8"",""num_scrambled_causal"":""4"",""num_scrambled_schematic"":""4"",""participantId"":""0CD71D683D2D4B5CA8CDCAE1B5485AC9"",""assignmentId"":""354afa36-5ed8-40ac-8a17-b363be4b0f1b"",""projectId"":""051c06f1-75cc-4548-856d-4923ddaba0dc""}","https://test12345.live/?num_scrambled_semantic=8&num_scrambled_causal=4&num_scrambled_schematic=4&participantId=0CD71D683D2D4B5CA8CDCAE1B5485AC9&assignmentId=354afa36-5ed8-40ac-8a17-b363be4b0f1b&projectId=051c06f1-75cc-4548-856d-4923ddaba0dc","0CD71D683D2D4B5CA8CDCAE1B5485AC9-2025-05-15-18-53-02","","null","","[]","null","",""
"","","","","","image-button-response","113","427700","0.0-14.0-1.0-0.7","0CD71D683D2D4B5CA8CDCAE1B5485AC9","0CD71D683D2D4B5CA8CDCAE1B5485AC9","354afa36-5ed8-40ac-8a17-b363be4b0f1b","051c06f1-75cc-4548-856d-4923ddaba0dc","{""num_scrambled_semantic"":""8"",""num_scrambled_causal"":""4"",""num_scrambled_schematic"":""4"",""participantId"":""0CD71D683D2D4B5CA8CDCAE1B5485AC9"",""assignmentId"":""354afa36-5ed8-40ac-8a17-b363be4b0f1b"",""projectId"":""051c06f1-75cc-4548-856d-4923ddaba0dc""}","https://test12345.live/?num_scrambled_semantic=8&num_scrambled_causal=4&num_scrambled_schematic=4&participantId=0CD71D683D2D4B5CA8CDCAE1B5485AC9&assignmentId=354afa36-5ed8-40ac-8a17-b363be4b0f1b&projectId=051c06f1-75cc-4548-856d-4923ddaba0dc","0CD71D683D2D4B5CA8CDCAE1B5485AC9-2025-05-15-18-53-02","","null","","images/semantic_sequence/creative_activities_semantic/creative_activities_semantic_1.png","null","",""
