"success","timeout","failed_images","failed_audio","failed_video","trial_type","trial_index","time_elapsed","internal_node_id","subject","subject_id","study_id","session_id","urlvar","current_url","audio_id","view_history","rt","device_id","stimulus","response","estimated_stimulus_onset","seq_name"
"true","false","[]","[]","[]","preload","0","24443","0.0-0.0","0D75B21EA67942B988D80423F896CC2A","0D75B21EA67942B988D80423F896CC2A","0198ed72-b009-7600-8f8b-8a7f914ea62c","0198ed26-a6a7-793d-982a-8940a71ab262","{""num_scrambled_semantic"":""8"",""num_scrambled_causal"":""4"",""num_scrambled_schematic"":""4"",""participantId"":""0D75B21EA67942B988D80423F896CC2A"",""assignmentId"":""0198ed72-b009-7600-8f8b-8a7f914ea62c"",""projectId"":""0198ed26-a6a7-793d-982a-8940a71ab262""}","https://test12345.live/?num_scrambled_semantic=8&num_scrambled_causal=4&num_scrambled_schematic=4&participantId=0D75B21EA67942B988D80423F896CC2A&assignmentId=0198ed72-b009-7600-8f8b-8a7f914ea62c&projectId=0198ed26-a6a7-793d-982a-8940a71ab262","0D75B21EA67942B988D80423F896CC2A-2025-08-27-22-49-43","","","","","","",""
"","","","","","instructions","1","103933","0.0-1.0","0D75B21EA67942B988D80423F896CC2A","0D75B21EA67942B988D80423F896CC2A","0198ed72-b009-7600-8f8b-8a7f914ea62c","0198ed26-a6a7-793d-982a-8940a71ab262","{""num_scrambled_semantic"":""8"",""num_scrambled_causal"":""4"",""num_scrambled_schematic"":""4"",""participantId"":""0D75B21EA67942B988D80423F896CC2A"",""assignmentId"":""0198ed72-b009-7600-8f8b-8a7f914ea62c"",""projectId"":""0198ed26-a6a7-793d-982a-8940a71ab262""}","https://test12345.live/?num_scrambled_semantic=8&num_scrambled_causal=4&num_scrambled_schematic=4&participantId=0D75B21EA67942B988D80423F896CC2A&assignmentId=0198ed72-b009-7600-8f8b-8a7f914ea62c&projectId=0198ed26-a6a7-793d-982a-8940a71ab262","0D75B21EA67942B988D80423F896CC2A-2025-08-27-22-49-43","[{""page_index"":0,""viewing_time"":79488}]","79489","","","","",""
"","","","","","instructions","2","108882","0.0-2.0","0D75B21EA67942B988D80423F896CC2A","0D75B21EA67942B988D80423F896CC2A","0198ed72-b009-7600-8f8b-8a7f914ea62c","0198ed26-a6a7-793d-982a-8940a71ab262","{""num_scrambled_semantic"":""8"",""num_scrambled_causal"":""4"",""num_scrambled_schematic"":""4"",""participantId"":""0D75B21EA67942B988D80423F896CC2A"",""assignmentId"":""0198ed72-b009-7600-8f8b-8a7f914ea62c"",""projectId"":""0198ed26-a6a7-793d-982a-8940a71ab262""}","https://test12345.live/?num_scrambled_semantic=8&num_scrambled_causal=4&num_scrambled_schematic=4&participantId=0D75B21EA67942B988D80423F896CC2A&assignmentId=0198ed72-b009-7600-8f8b-8a7f914ea62c&projectId=0198ed26-a6a7-793d-982a-8940a71ab262","0D75B21EA67942B988D80423F896CC2A-2025-08-27-22-49-43","[{""page_index"":0,""viewing_time"":4948}]","4948","","","","",""
"true","","","","","fullscreen","3","113194","0.0-3.0","0D75B21EA67942B988D80423F896CC2A","0D75B21EA67942B988D80423F896CC2A","0198ed72-b009-7600-8f8b-8a7f914ea62c","0198ed26-a6a7-793d-982a-8940a71ab262","{""num_scrambled_semantic"":""8"",""num_scrambled_causal"":""4"",""num_scrambled_schematic"":""4"",""participantId"":""0D75B21EA67942B988D80423F896CC2A"",""assignmentId"":""0198ed72-b009-7600-8f8b-8a7f914ea62c"",""projectId"":""0198ed26-a6a7-793d-982a-8940a71ab262""}","https://test12345.live/?num_scrambled_semantic=8&num_scrambled_causal=4&num_scrambled_schematic=4&participantId=0D75B21EA67942B988D80423F896CC2A&assignmentId=0198ed72-b009-7600-8f8b-8a7f914ea62c&projectId=0198ed26-a6a7-793d-982a-8940a71ab262","0D75B21EA67942B988D80423F896CC2A-2025-08-27-22-49-43","","3263","","","","",""
"","","","","","initialize-microphone","4","121851","0.0-4.0-0.0","0D75B21EA67942B988D80423F896CC2A","0D75B21EA67942B988D80423F896CC2A","0198ed72-b009-7600-8f8b-8a7f914ea62c","0198ed26-a6a7-793d-982a-8940a71ab262","{""num_scrambled_semantic"":""8"",""num_scrambled_causal"":""4"",""num_scrambled_schematic"":""4"",""participantId"":""0D75B21EA67942B988D80423F896CC2A"",""assignmentId"":""0198ed72-b009-7600-8f8b-8a7f914ea62c"",""projectId"":""0198ed26-a6a7-793d-982a-8940a71ab262""}","https://test12345.live/?num_scrambled_semantic=8&num_scrambled_causal=4&num_scrambled_schematic=4&participantId=0D75B21EA67942B988D80423F896CC2A&assignmentId=0198ed72-b009-7600-8f8b-8a7f914ea62c&projectId=0198ed26-a6a7-793d-982a-8940a71ab262","0D75B21EA67942B988D80423F896CC2A-2025-08-27-22-49-43","","","2035a13eede3baeb9bab746431317202fdedc36cf2c2827f1d88dab7a41d6698","","","",""
"","","","","","html-audio-response","5","133221","0.0-4.0-1.0","0D75B21EA67942B988D80423F896CC2A","0D75B21EA67942B988D80423F896CC2A","0198ed72-b009-7600-8f8b-8a7f914ea62c","0198ed26-a6a7-793d-982a-8940a71ab262","{""num_scrambled_semantic"":""8"",""num_scrambled_causal"":""4"",""num_scrambled_schematic"":""4"",""participantId"":""0D75B21EA67942B988D80423F896CC2A"",""assignmentId"":""0198ed72-b009-7600-8f8b-8a7f914ea62c"",""projectId"":""0198ed26-a6a7-793d-982a-8940a71ab262""}","https://test12345.live/?num_scrambled_semantic=8&num_scrambled_causal=4&num_scrambled_schematic=4&participantId=0D75B21EA67942B988D80423F896CC2A&assignmentId=0198ed72-b009-7600-8f8b-8a7f914ea62c&projectId=0198ed26-a6a7-793d-982a-8940a71ab262","0D75B21EA67942B988D80423F896CC2A-2025-08-27-22-49-43","","4969","","<span style=""color: red; font-size: 24px""> NOW RECORDING</span>
        <p>Please test Microphone</p>","","8",""
"","","","","","html-button-response","6","140693","0.0-4.0-2.0","0D75B21EA67942B988D80423F896CC2A","0D75B21EA67942B988D80423F896CC2A","0198ed72-b009-7600-8f8b-8a7f914ea62c","0198ed26-a6a7-793d-982a-8940a71ab262","{""num_scrambled_semantic"":""8"",""num_scrambled_causal"":""4"",""num_scrambled_schematic"":""4"",""participantId"":""0D75B21EA67942B988D80423F896CC2A"",""assignmentId"":""0198ed72-b009-7600-8f8b-8a7f914ea62c"",""projectId"":""0198ed26-a6a7-793d-982a-8940a71ab262""}","https://test12345.live/?num_scrambled_semantic=8&num_scrambled_causal=4&num_scrambled_schematic=4&participantId=0D75B21EA67942B988D80423F896CC2A&assignmentId=0198ed72-b009-7600-8f8b-8a7f914ea62c&projectId=0198ed26-a6a7-793d-982a-8940a71ab262","0D75B21EA67942B988D80423F896CC2A-2025-08-27-22-49-43","","7470","","<p style=""font-size:48px; color:red;"">Is Microphone OK?</p>","1","",""
"","","","","","instructions","7","151109","0.0-5.0","0D75B21EA67942B988D80423F896CC2A","0D75B21EA67942B988D80423F896CC2A","0198ed72-b009-7600-8f8b-8a7f914ea62c","0198ed26-a6a7-793d-982a-8940a71ab262","{""num_scrambled_semantic"":""8"",""num_scrambled_causal"":""4"",""num_scrambled_schematic"":""4"",""participantId"":""0D75B21EA67942B988D80423F896CC2A"",""assignmentId"":""0198ed72-b009-7600-8f8b-8a7f914ea62c"",""projectId"":""0198ed26-a6a7-793d-982a-8940a71ab262""}","https://test12345.live/?num_scrambled_semantic=8&num_scrambled_causal=4&num_scrambled_schematic=4&participantId=0D75B21EA67942B988D80423F896CC2A&assignmentId=0198ed72-b009-7600-8f8b-8a7f914ea62c&projectId=0198ed26-a6a7-793d-982a-8940a71ab262","0D75B21EA67942B988D80423F896CC2A-2025-08-27-22-49-43","[{""page_index"":0,""viewing_time"":3587},{""page_index"":1,""viewing_time"":6828}]","10415","","","","",""
"","","","","","image-button-response","8","157163","0.0-6.0-0.0","0D75B21EA67942B988D80423F896CC2A","0D75B21EA67942B988D80423F896CC2A","0198ed72-b009-7600-8f8b-8a7f914ea62c","0198ed26-a6a7-793d-982a-8940a71ab262","{""num_scrambled_semantic"":""8"",""num_scrambled_causal"":""4"",""num_scrambled_schematic"":""4"",""participantId"":""0D75B21EA67942B988D80423F896CC2A"",""assignmentId"":""0198ed72-b009-7600-8f8b-8a7f914ea62c"",""projectId"":""0198ed26-a6a7-793d-982a-8940a71ab262""}","https://test12345.live/?num_scrambled_semantic=8&num_scrambled_causal=4&num_scrambled_schematic=4&participantId=0D75B21EA67942B988D80423F896CC2A&assignmentId=0198ed72-b009-7600-8f8b-8a7f914ea62c&projectId=0198ed26-a6a7-793d-982a-8940a71ab262","0D75B21EA67942B988D80423F896CC2A-2025-08-27-22-49-43","","null","","images/instructions/movie_0.png","null","",""
"","","","","","image-button-response","9","161676","0.0-6.0-1.0-0.0","0D75B21EA67942B988D80423F896CC2A","0D75B21EA67942B988D80423F896CC2A","0198ed72-b009-7600-8f8b-8a7f914ea62c","0198ed26-a6a7-793d-982a-8940a71ab262","{""num_scrambled_semantic"":""8"",""num_scrambled_causal"":""4"",""num_scrambled_schematic"":""4"",""participantId"":""0D75B21EA67942B988D80423F896CC2A"",""assignmentId"":""0198ed72-b009-7600-8f8b-8a7f914ea62c"",""projectId"":""0198ed26-a6a7-793d-982a-8940a71ab262""}","https://test12345.live/?num_scrambled_semantic=8&num_scrambled_causal=4&num_scrambled_schematic=4&participantId=0D75B21EA67942B988D80423F896CC2A&assignmentId=0198ed72-b009-7600-8f8b-8a7f914ea62c&projectId=0198ed26-a6a7-793d-982a-8940a71ab262","0D75B21EA67942B988D80423F896CC2A-2025-08-27-22-49-43","","null","","images/instructions/movie_1.png","null","",""
"","","","","","image-button-response","10","165682","0.0-6.0-1.0-1.0","0D75B21EA67942B988D80423F896CC2A","0D75B21EA67942B988D80423F896CC2A","0198ed72-b009-7600-8f8b-8a7f914ea62c","0198ed26-a6a7-793d-982a-8940a71ab262","{""num_scrambled_semantic"":""8"",""num_scrambled_causal"":""4"",""num_scrambled_schematic"":""4"",""participantId"":""0D75B21EA67942B988D80423F896CC2A"",""assignmentId"":""0198ed72-b009-7600-8f8b-8a7f914ea62c"",""projectId"":""0198ed26-a6a7-793d-982a-8940a71ab262""}","https://test12345.live/?num_scrambled_semantic=8&num_scrambled_causal=4&num_scrambled_schematic=4&participantId=0D75B21EA67942B988D80423F896CC2A&assignmentId=0198ed72-b009-7600-8f8b-8a7f914ea62c&projectId=0198ed26-a6a7-793d-982a-8940a71ab262","0D75B21EA67942B988D80423F896CC2A-2025-08-27-22-49-43","","null","","images/instructions/movie_1.png","null","",""
"","","","","","image-button-response","11","167488","0.0-6.0-1.0-2.0","0D75B21EA67942B988D80423F896CC2A","0D75B21EA67942B988D80423F896CC2A","0198ed72-b009-7600-8f8b-8a7f914ea62c","0198ed26-a6a7-793d-982a-8940a71ab262","{""num_scrambled_semantic"":""8"",""num_scrambled_causal"":""4"",""num_scrambled_schematic"":""4"",""participantId"":""0D75B21EA67942B988D80423F896CC2A"",""assignmentId"":""0198ed72-b009-7600-8f8b-8a7f914ea62c"",""projectId"":""0198ed26-a6a7-793d-982a-8940a71ab262""}","https://test12345.live/?num_scrambled_semantic=8&num_scrambled_causal=4&num_scrambled_schematic=4&participantId=0D75B21EA67942B988D80423F896CC2A&assignmentId=0198ed72-b009-7600-8f8b-8a7f914ea62c&projectId=0198ed26-a6a7-793d-982a-8940a71ab262","0D75B21EA67942B988D80423F896CC2A-2025-08-27-22-49-43","","null","","[]","null","",""
"","","","","","image-button-response","12","171996","0.0-6.0-1.0-0.1","0D75B21EA67942B988D80423F896CC2A","0D75B21EA67942B988D80423F896CC2A","0198ed72-b009-7600-8f8b-8a7f914ea62c","0198ed26-a6a7-793d-982a-8940a71ab262","{""num_scrambled_semantic"":""8"",""num_scrambled_causal"":""4"",""num_scrambled_schematic"":""4"",""participantId"":""0D75B21EA67942B988D80423F896CC2A"",""assignmentId"":""0198ed72-b009-7600-8f8b-8a7f914ea62c"",""projectId"":""0198ed26-a6a7-793d-982a-8940a71ab262""}","https://test12345.live/?num_scrambled_semantic=8&num_scrambled_causal=4&num_scrambled_schematic=4&participantId=0D75B21EA67942B988D80423F896CC2A&assignmentId=0198ed72-b009-7600-8f8b-8a7f914ea62c&projectId=0198ed26-a6a7-793d-982a-8940a71ab262","0D75B21EA67942B988D80423F896CC2A-2025-08-27-22-49-43","","null","","images/instructions/movie_2.png","null","",""
"","","","","","image-button-response","13","173550","0.0-6.0-1.0-1.1","0D75B21EA67942B988D80423F896CC2A","0D75B21EA67942B988D80423F896CC2A","0198ed72-b009-7600-8f8b-8a7f914ea62c","0198ed26-a6a7-793d-982a-8940a71ab262","{""num_scrambled_semantic"":""8"",""num_scrambled_causal"":""4"",""num_scrambled_schematic"":""4"",""participantId"":""0D75B21EA67942B988D80423F896CC2A"",""assignmentId"":""0198ed72-b009-7600-8f8b-8a7f914ea62c"",""projectId"":""0198ed26-a6a7-793d-982a-8940a71ab262""}","https://test12345.live/?num_scrambled_semantic=8&num_scrambled_causal=4&num_scrambled_schematic=4&participantId=0D75B21EA67942B988D80423F896CC2A&assignmentId=0198ed72-b009-7600-8f8b-8a7f914ea62c&projectId=0198ed26-a6a7-793d-982a-8940a71ab262","0D75B21EA67942B988D80423F896CC2A-2025-08-27-22-49-43","","1552","","images/instructions/movie_2.png","1","",""
"","","","","","image-button-response","14","175362","0.0-6.0-1.0-2.1","0D75B21EA67942B988D80423F896CC2A","0D75B21EA67942B988D80423F896CC2A","0198ed72-b009-7600-8f8b-8a7f914ea62c","0198ed26-a6a7-793d-982a-8940a71ab262","{""num_scrambled_semantic"":""8"",""num_scrambled_causal"":""4"",""num_scrambled_schematic"":""4"",""participantId"":""0D75B21EA67942B988D80423F896CC2A"",""assignmentId"":""0198ed72-b009-7600-8f8b-8a7f914ea62c"",""projectId"":""0198ed26-a6a7-793d-982a-8940a71ab262""}","https://test12345.live/?num_scrambled_semantic=8&num_scrambled_causal=4&num_scrambled_schematic=4&participantId=0D75B21EA67942B988D80423F896CC2A&assignmentId=0198ed72-b009-7600-8f8b-8a7f914ea62c&projectId=0198ed26-a6a7-793d-982a-8940a71ab262","0D75B21EA67942B988D80423F896CC2A-2025-08-27-22-49-43","","null","","[]","null","",""
"","","","","","image-button-response","15","179876","0.0-6.0-1.0-0.2","0D75B21EA67942B988D80423F896CC2A","0D75B21EA67942B988D80423F896CC2A","0198ed72-b009-7600-8f8b-8a7f914ea62c","0198ed26-a6a7-793d-982a-8940a71ab262","{""num_scrambled_semantic"":""8"",""num_scrambled_causal"":""4"",""num_scrambled_schematic"":""4"",""participantId"":""0D75B21EA67942B988D80423F896CC2A"",""assignmentId"":""0198ed72-b009-7600-8f8b-8a7f914ea62c"",""projectId"":""0198ed26-a6a7-793d-982a-8940a71ab262""}","https://test12345.live/?num_scrambled_semantic=8&num_scrambled_causal=4&num_scrambled_schematic=4&participantId=0D75B21EA67942B988D80423F896CC2A&assignmentId=0198ed72-b009-7600-8f8b-8a7f914ea62c&projectId=0198ed26-a6a7-793d-982a-8940a71ab262","0D75B21EA67942B988D80423F896CC2A-2025-08-27-22-49-43","","null","","images/instructions/movie_3.png","null","",""
"","","","","","image-button-response","16","182009","0.0-6.0-1.0-1.2","0D75B21EA67942B988D80423F896CC2A","0D75B21EA67942B988D80423F896CC2A","0198ed72-b009-7600-8f8b-8a7f914ea62c","0198ed26-a6a7-793d-982a-8940a71ab262","{""num_scrambled_semantic"":""8"",""num_scrambled_causal"":""4"",""num_scrambled_schematic"":""4"",""participantId"":""0D75B21EA67942B988D80423F896CC2A"",""assignmentId"":""0198ed72-b009-7600-8f8b-8a7f914ea62c"",""projectId"":""0198ed26-a6a7-793d-982a-8940a71ab262""}","https://test12345.live/?num_scrambled_semantic=8&num_scrambled_causal=4&num_scrambled_schematic=4&participantId=0D75B21EA67942B988D80423F896CC2A&assignmentId=0198ed72-b009-7600-8f8b-8a7f914ea62c&projectId=0198ed26-a6a7-793d-982a-8940a71ab262","0D75B21EA67942B988D80423F896CC2A-2025-08-27-22-49-43","","2132","","images/instructions/movie_3.png","0","",""
"","","","","","image-button-response","17","183824","0.0-6.0-1.0-2.2","0D75B21EA67942B988D80423F896CC2A","0D75B21EA67942B988D80423F896CC2A","0198ed72-b009-7600-8f8b-8a7f914ea62c","0198ed26-a6a7-793d-982a-8940a71ab262","{""num_scrambled_semantic"":""8"",""num_scrambled_causal"":""4"",""num_scrambled_schematic"":""4"",""participantId"":""0D75B21EA67942B988D80423F896CC2A"",""assignmentId"":""0198ed72-b009-7600-8f8b-8a7f914ea62c"",""projectId"":""0198ed26-a6a7-793d-982a-8940a71ab262""}","https://test12345.live/?num_scrambled_semantic=8&num_scrambled_causal=4&num_scrambled_schematic=4&participantId=0D75B21EA67942B988D80423F896CC2A&assignmentId=0198ed72-b009-7600-8f8b-8a7f914ea62c&projectId=0198ed26-a6a7-793d-982a-8940a71ab262","0D75B21EA67942B988D80423F896CC2A-2025-08-27-22-49-43","","null","","[]","null","",""
"","","","","","image-button-response","18","188335","0.0-6.0-1.0-0.3","0D75B21EA67942B988D80423F896CC2A","0D75B21EA67942B988D80423F896CC2A","0198ed72-b009-7600-8f8b-8a7f914ea62c","0198ed26-a6a7-793d-982a-8940a71ab262","{""num_scrambled_semantic"":""8"",""num_scrambled_causal"":""4"",""num_scrambled_schematic"":""4"",""participantId"":""0D75B21EA67942B988D80423F896CC2A"",""assignmentId"":""0198ed72-b009-7600-8f8b-8a7f914ea62c"",""projectId"":""0198ed26-a6a7-793d-982a-8940a71ab262""}","https://test12345.live/?num_scrambled_semantic=8&num_scrambled_causal=4&num_scrambled_schematic=4&participantId=0D75B21EA67942B988D80423F896CC2A&assignmentId=0198ed72-b009-7600-8f8b-8a7f914ea62c&projectId=0198ed26-a6a7-793d-982a-8940a71ab262","0D75B21EA67942B988D80423F896CC2A-2025-08-27-22-49-43","","null","","images/instructions/movie_4.png","null","",""
"","","","","","image-button-response","19","189878","0.0-6.0-1.0-1.3","0D75B21EA67942B988D80423F896CC2A","0D75B21EA67942B988D80423F896CC2A","0198ed72-b009-7600-8f8b-8a7f914ea62c","0198ed26-a6a7-793d-982a-8940a71ab262","{""num_scrambled_semantic"":""8"",""num_scrambled_causal"":""4"",""num_scrambled_schematic"":""4"",""participantId"":""0D75B21EA67942B988D80423F896CC2A"",""assignmentId"":""0198ed72-b009-7600-8f8b-8a7f914ea62c"",""projectId"":""0198ed26-a6a7-793d-982a-8940a71ab262""}","https://test12345.live/?num_scrambled_semantic=8&num_scrambled_causal=4&num_scrambled_schematic=4&participantId=0D75B21EA67942B988D80423F896CC2A&assignmentId=0198ed72-b009-7600-8f8b-8a7f914ea62c&projectId=0198ed26-a6a7-793d-982a-8940a71ab262","0D75B21EA67942B988D80423F896CC2A-2025-08-27-22-49-43","","1541","","images/instructions/movie_4.png","0","",""
"","","","","","image-button-response","20","191681","0.0-6.0-1.0-2.3","0D75B21EA67942B988D80423F896CC2A","0D75B21EA67942B988D80423F896CC2A","0198ed72-b009-7600-8f8b-8a7f914ea62c","0198ed26-a6a7-793d-982a-8940a71ab262","{""num_scrambled_semantic"":""8"",""num_scrambled_causal"":""4"",""num_scrambled_schematic"":""4"",""participantId"":""0D75B21EA67942B988D80423F896CC2A"",""assignmentId"":""0198ed72-b009-7600-8f8b-8a7f914ea62c"",""projectId"":""0198ed26-a6a7-793d-982a-8940a71ab262""}","https://test12345.live/?num_scrambled_semantic=8&num_scrambled_causal=4&num_scrambled_schematic=4&participantId=0D75B21EA67942B988D80423F896CC2A&assignmentId=0198ed72-b009-7600-8f8b-8a7f914ea62c&projectId=0198ed26-a6a7-793d-982a-8940a71ab262","0D75B21EA67942B988D80423F896CC2A-2025-08-27-22-49-43","","null","","[]","null","",""
"","","","","","instructions","21","213434","0.0-7.0","0D75B21EA67942B988D80423F896CC2A","0D75B21EA67942B988D80423F896CC2A","0198ed72-b009-7600-8f8b-8a7f914ea62c","0198ed26-a6a7-793d-982a-8940a71ab262","{""num_scrambled_semantic"":""8"",""num_scrambled_causal"":""4"",""num_scrambled_schematic"":""4"",""participantId"":""0D75B21EA67942B988D80423F896CC2A"",""assignmentId"":""0198ed72-b009-7600-8f8b-8a7f914ea62c"",""projectId"":""0198ed26-a6a7-793d-982a-8940a71ab262""}","https://test12345.live/?num_scrambled_semantic=8&num_scrambled_causal=4&num_scrambled_schematic=4&participantId=0D75B21EA67942B988D80423F896CC2A&assignmentId=0198ed72-b009-7600-8f8b-8a7f914ea62c&projectId=0198ed26-a6a7-793d-982a-8940a71ab262","0D75B21EA67942B988D80423F896CC2A-2025-08-27-22-49-43","[{""page_index"":0,""viewing_time"":21751}]","21752","","","","",""
"","","","","","html-audio-response","22","312826","0.0-8.0","0D75B21EA67942B988D80423F896CC2A","0D75B21EA67942B988D80423F896CC2A","0198ed72-b009-7600-8f8b-8a7f914ea62c","0198ed26-a6a7-793d-982a-8940a71ab262","{""num_scrambled_semantic"":""8"",""num_scrambled_causal"":""4"",""num_scrambled_schematic"":""4"",""participantId"":""0D75B21EA67942B988D80423F896CC2A"",""assignmentId"":""0198ed72-b009-7600-8f8b-8a7f914ea62c"",""projectId"":""0198ed26-a6a7-793d-982a-8940a71ab262""}","https://test12345.live/?num_scrambled_semantic=8&num_scrambled_causal=4&num_scrambled_schematic=4&participantId=0D75B21EA67942B988D80423F896CC2A&assignmentId=0198ed72-b009-7600-8f8b-8a7f914ea62c&projectId=0198ed26-a6a7-793d-982a-8940a71ab262","0D75B21EA67942B988D80423F896CC2A-2025-08-27-22-49-43","","10192","","[""<span style=\""color: red; font-size: 24px\""> NOW RECORDING</span><p>Please say out loud all the images you saw, in the order of the story they create. Try to recall the sequence of events as they appeared in the story, not necessarily the order they were presented on the screen.</p>""]","","2",""
"","","","","","instructions","23","316029","0.0-9.0","0D75B21EA67942B988D80423F896CC2A","0D75B21EA67942B988D80423F896CC2A","0198ed72-b009-7600-8f8b-8a7f914ea62c","0198ed26-a6a7-793d-982a-8940a71ab262","{""num_scrambled_semantic"":""8"",""num_scrambled_causal"":""4"",""num_scrambled_schematic"":""4"",""participantId"":""0D75B21EA67942B988D80423F896CC2A"",""assignmentId"":""0198ed72-b009-7600-8f8b-8a7f914ea62c"",""projectId"":""0198ed26-a6a7-793d-982a-8940a71ab262""}","https://test12345.live/?num_scrambled_semantic=8&num_scrambled_causal=4&num_scrambled_schematic=4&participantId=0D75B21EA67942B988D80423F896CC2A&assignmentId=0198ed72-b009-7600-8f8b-8a7f914ea62c&projectId=0198ed26-a6a7-793d-982a-8940a71ab262","0D75B21EA67942B988D80423F896CC2A-2025-08-27-22-49-43","[{""page_index"":0,""viewing_time"":3195}]","3196","","","","",""
"","","","","","image-button-response","24","322046","0.0-10.0-0.0","0D75B21EA67942B988D80423F896CC2A","0D75B21EA67942B988D80423F896CC2A","0198ed72-b009-7600-8f8b-8a7f914ea62c","0198ed26-a6a7-793d-982a-8940a71ab262","{""num_scrambled_semantic"":""8"",""num_scrambled_causal"":""4"",""num_scrambled_schematic"":""4"",""participantId"":""0D75B21EA67942B988D80423F896CC2A"",""assignmentId"":""0198ed72-b009-7600-8f8b-8a7f914ea62c"",""projectId"":""0198ed26-a6a7-793d-982a-8940a71ab262""}","https://test12345.live/?num_scrambled_semantic=8&num_scrambled_causal=4&num_scrambled_schematic=4&participantId=0D75B21EA67942B988D80423F896CC2A&assignmentId=0198ed72-b009-7600-8f8b-8a7f914ea62c&projectId=0198ed26-a6a7-793d-982a-8940a71ab262","0D75B21EA67942B988D80423F896CC2A-2025-08-27-22-49-43","","null","","images/semantic_sequence/visiting_cities_semantic/visiting_cities_semantic_0.png","null","",""
"","","","","","image-button-response","25","326548","0.0-10.0-1.0-0.0","0D75B21EA67942B988D80423F896CC2A","0D75B21EA67942B988D80423F896CC2A","0198ed72-b009-7600-8f8b-8a7f914ea62c","0198ed26-a6a7-793d-982a-8940a71ab262","{""num_scrambled_semantic"":""8"",""num_scrambled_causal"":""4"",""num_scrambled_schematic"":""4"",""participantId"":""0D75B21EA67942B988D80423F896CC2A"",""assignmentId"":""0198ed72-b009-7600-8f8b-8a7f914ea62c"",""projectId"":""0198ed26-a6a7-793d-982a-8940a71ab262""}","https://test12345.live/?num_scrambled_semantic=8&num_scrambled_causal=4&num_scrambled_schematic=4&participantId=0D75B21EA67942B988D80423F896CC2A&assignmentId=0198ed72-b009-7600-8f8b-8a7f914ea62c&projectId=0198ed26-a6a7-793d-982a-8940a71ab262","0D75B21EA67942B988D80423F896CC2A-2025-08-27-22-49-43","","null","","images/semantic_sequence/visiting_cities_semantic/visiting_cities_semantic_ten.png","null","",""
"","","","","","image-button-response","26","330304","0.0-10.0-1.0-1.0","0D75B21EA67942B988D80423F896CC2A","0D75B21EA67942B988D80423F896CC2A","0198ed72-b009-7600-8f8b-8a7f914ea62c","0198ed26-a6a7-793d-982a-8940a71ab262","{""num_scrambled_semantic"":""8"",""num_scrambled_causal"":""4"",""num_scrambled_schematic"":""4"",""participantId"":""0D75B21EA67942B988D80423F896CC2A"",""assignmentId"":""0198ed72-b009-7600-8f8b-8a7f914ea62c"",""projectId"":""0198ed26-a6a7-793d-982a-8940a71ab262""}","https://test12345.live/?num_scrambled_semantic=8&num_scrambled_causal=4&num_scrambled_schematic=4&participantId=0D75B21EA67942B988D80423F896CC2A&assignmentId=0198ed72-b009-7600-8f8b-8a7f914ea62c&projectId=0198ed26-a6a7-793d-982a-8940a71ab262","0D75B21EA67942B988D80423F896CC2A-2025-08-27-22-49-43","","3754","","images/semantic_sequence/visiting_cities_semantic/visiting_cities_semantic_ten.png","1","",""
"","","","","","image-button-response","27","332122","0.0-10.0-1.0-2.0","0D75B21EA67942B988D80423F896CC2A","0D75B21EA67942B988D80423F896CC2A","0198ed72-b009-7600-8f8b-8a7f914ea62c","0198ed26-a6a7-793d-982a-8940a71ab262","{""num_scrambled_semantic"":""8"",""num_scrambled_causal"":""4"",""num_scrambled_schematic"":""4"",""participantId"":""0D75B21EA67942B988D80423F896CC2A"",""assignmentId"":""0198ed72-b009-7600-8f8b-8a7f914ea62c"",""projectId"":""0198ed26-a6a7-793d-982a-8940a71ab262""}","https://test12345.live/?num_scrambled_semantic=8&num_scrambled_causal=4&num_scrambled_schematic=4&participantId=0D75B21EA67942B988D80423F896CC2A&assignmentId=0198ed72-b009-7600-8f8b-8a7f914ea62c&projectId=0198ed26-a6a7-793d-982a-8940a71ab262","0D75B21EA67942B988D80423F896CC2A-2025-08-27-22-49-43","","null","","[]","null","",""
"","","","","","image-button-response","28","336632","0.0-10.0-1.0-0.1","0D75B21EA67942B988D80423F896CC2A","0D75B21EA67942B988D80423F896CC2A","0198ed72-b009-7600-8f8b-8a7f914ea62c","0198ed26-a6a7-793d-982a-8940a71ab262","{""num_scrambled_semantic"":""8"",""num_scrambled_causal"":""4"",""num_scrambled_schematic"":""4"",""participantId"":""0D75B21EA67942B988D80423F896CC2A"",""assignmentId"":""0198ed72-b009-7600-8f8b-8a7f914ea62c"",""projectId"":""0198ed26-a6a7-793d-982a-8940a71ab262""}","https://test12345.live/?num_scrambled_semantic=8&num_scrambled_causal=4&num_scrambled_schematic=4&participantId=0D75B21EA67942B988D80423F896CC2A&assignmentId=0198ed72-b009-7600-8f8b-8a7f914ea62c&projectId=0198ed26-a6a7-793d-982a-8940a71ab262","0D75B21EA67942B988D80423F896CC2A-2025-08-27-22-49-43","","null","","images/semantic_sequence/visiting_cities_semantic/visiting_cities_semantic_2.png","null","",""
"","","","","","image-button-response","29","338188","0.0-10.0-1.0-1.1","0D75B21EA67942B988D80423F896CC2A","0D75B21EA67942B988D80423F896CC2A","0198ed72-b009-7600-8f8b-8a7f914ea62c","0198ed26-a6a7-793d-982a-8940a71ab262","{""num_scrambled_semantic"":""8"",""num_scrambled_causal"":""4"",""num_scrambled_schematic"":""4"",""participantId"":""0D75B21EA67942B988D80423F896CC2A"",""assignmentId"":""0198ed72-b009-7600-8f8b-8a7f914ea62c"",""projectId"":""0198ed26-a6a7-793d-982a-8940a71ab262""}","https://test12345.live/?num_scrambled_semantic=8&num_scrambled_causal=4&num_scrambled_schematic=4&participantId=0D75B21EA67942B988D80423F896CC2A&assignmentId=0198ed72-b009-7600-8f8b-8a7f914ea62c&projectId=0198ed26-a6a7-793d-982a-8940a71ab262","0D75B21EA67942B988D80423F896CC2A-2025-08-27-22-49-43","","1554","","images/semantic_sequence/visiting_cities_semantic/visiting_cities_semantic_2.png","1","",""
"","","","","","image-button-response","30","339990","0.0-10.0-1.0-2.1","0D75B21EA67942B988D80423F896CC2A","0D75B21EA67942B988D80423F896CC2A","0198ed72-b009-7600-8f8b-8a7f914ea62c","0198ed26-a6a7-793d-982a-8940a71ab262","{""num_scrambled_semantic"":""8"",""num_scrambled_causal"":""4"",""num_scrambled_schematic"":""4"",""participantId"":""0D75B21EA67942B988D80423F896CC2A"",""assignmentId"":""0198ed72-b009-7600-8f8b-8a7f914ea62c"",""projectId"":""0198ed26-a6a7-793d-982a-8940a71ab262""}","https://test12345.live/?num_scrambled_semantic=8&num_scrambled_causal=4&num_scrambled_schematic=4&participantId=0D75B21EA67942B988D80423F896CC2A&assignmentId=0198ed72-b009-7600-8f8b-8a7f914ea62c&projectId=0198ed26-a6a7-793d-982a-8940a71ab262","0D75B21EA67942B988D80423F896CC2A-2025-08-27-22-49-43","","null","","[]","null","",""
"","","","","","image-button-response","31","344493","0.0-10.0-1.0-0.2","0D75B21EA67942B988D80423F896CC2A","0D75B21EA67942B988D80423F896CC2A","0198ed72-b009-7600-8f8b-8a7f914ea62c","0198ed26-a6a7-793d-982a-8940a71ab262","{""num_scrambled_semantic"":""8"",""num_scrambled_causal"":""4"",""num_scrambled_schematic"":""4"",""participantId"":""0D75B21EA67942B988D80423F896CC2A"",""assignmentId"":""0198ed72-b009-7600-8f8b-8a7f914ea62c"",""projectId"":""0198ed26-a6a7-793d-982a-8940a71ab262""}","https://test12345.live/?num_scrambled_semantic=8&num_scrambled_causal=4&num_scrambled_schematic=4&participantId=0D75B21EA67942B988D80423F896CC2A&assignmentId=0198ed72-b009-7600-8f8b-8a7f914ea62c&projectId=0198ed26-a6a7-793d-982a-8940a71ab262","0D75B21EA67942B988D80423F896CC2A-2025-08-27-22-49-43","","null","","images/semantic_sequence/visiting_cities_semantic/visiting_cities_semantic_8.png","null","",""
"","","","","","image-button-response","32","346200","0.0-10.0-1.0-1.2","0D75B21EA67942B988D80423F896CC2A","0D75B21EA67942B988D80423F896CC2A","0198ed72-b009-7600-8f8b-8a7f914ea62c","0198ed26-a6a7-793d-982a-8940a71ab262","{""num_scrambled_semantic"":""8"",""num_scrambled_causal"":""4"",""num_scrambled_schematic"":""4"",""participantId"":""0D75B21EA67942B988D80423F896CC2A"",""assignmentId"":""0198ed72-b009-7600-8f8b-8a7f914ea62c"",""projectId"":""0198ed26-a6a7-793d-982a-8940a71ab262""}","https://test12345.live/?num_scrambled_semantic=8&num_scrambled_causal=4&num_scrambled_schematic=4&participantId=0D75B21EA67942B988D80423F896CC2A&assignmentId=0198ed72-b009-7600-8f8b-8a7f914ea62c&projectId=0198ed26-a6a7-793d-982a-8940a71ab262","0D75B21EA67942B988D80423F896CC2A-2025-08-27-22-49-43","","1706","","images/semantic_sequence/visiting_cities_semantic/visiting_cities_semantic_8.png","1","",""
"","","","","","image-button-response","33","348013","0.0-10.0-1.0-2.2","0D75B21EA67942B988D80423F896CC2A","0D75B21EA67942B988D80423F896CC2A","0198ed72-b009-7600-8f8b-8a7f914ea62c","0198ed26-a6a7-793d-982a-8940a71ab262","{""num_scrambled_semantic"":""8"",""num_scrambled_causal"":""4"",""num_scrambled_schematic"":""4"",""participantId"":""0D75B21EA67942B988D80423F896CC2A"",""assignmentId"":""0198ed72-b009-7600-8f8b-8a7f914ea62c"",""projectId"":""0198ed26-a6a7-793d-982a-8940a71ab262""}","https://test12345.live/?num_scrambled_semantic=8&num_scrambled_causal=4&num_scrambled_schematic=4&participantId=0D75B21EA67942B988D80423F896CC2A&assignmentId=0198ed72-b009-7600-8f8b-8a7f914ea62c&projectId=0198ed26-a6a7-793d-982a-8940a71ab262","0D75B21EA67942B988D80423F896CC2A-2025-08-27-22-49-43","","null","","[]","null","",""
"","","","","","image-button-response","34","352517","0.0-10.0-1.0-0.3","0D75B21EA67942B988D80423F896CC2A","0D75B21EA67942B988D80423F896CC2A","0198ed72-b009-7600-8f8b-8a7f914ea62c","0198ed26-a6a7-793d-982a-8940a71ab262","{""num_scrambled_semantic"":""8"",""num_scrambled_causal"":""4"",""num_scrambled_schematic"":""4"",""participantId"":""0D75B21EA67942B988D80423F896CC2A"",""assignmentId"":""0198ed72-b009-7600-8f8b-8a7f914ea62c"",""projectId"":""0198ed26-a6a7-793d-982a-8940a71ab262""}","https://test12345.live/?num_scrambled_semantic=8&num_scrambled_causal=4&num_scrambled_schematic=4&participantId=0D75B21EA67942B988D80423F896CC2A&assignmentId=0198ed72-b009-7600-8f8b-8a7f914ea62c&projectId=0198ed26-a6a7-793d-982a-8940a71ab262","0D75B21EA67942B988D80423F896CC2A-2025-08-27-22-49-43","","null","","images/semantic_sequence/visiting_cities_semantic/visiting_cities_semantic_4.png","null","",""
"","","","","","image-button-response","35","353828","0.0-10.0-1.0-1.3","0D75B21EA67942B988D80423F896CC2A","0D75B21EA67942B988D80423F896CC2A","0198ed72-b009-7600-8f8b-8a7f914ea62c","0198ed26-a6a7-793d-982a-8940a71ab262","{""num_scrambled_semantic"":""8"",""num_scrambled_causal"":""4"",""num_scrambled_schematic"":""4"",""participantId"":""0D75B21EA67942B988D80423F896CC2A"",""assignmentId"":""0198ed72-b009-7600-8f8b-8a7f914ea62c"",""projectId"":""0198ed26-a6a7-793d-982a-8940a71ab262""}","https://test12345.live/?num_scrambled_semantic=8&num_scrambled_causal=4&num_scrambled_schematic=4&participantId=0D75B21EA67942B988D80423F896CC2A&assignmentId=0198ed72-b009-7600-8f8b-8a7f914ea62c&projectId=0198ed26-a6a7-793d-982a-8940a71ab262","0D75B21EA67942B988D80423F896CC2A-2025-08-27-22-49-43","","1308","","images/semantic_sequence/visiting_cities_semantic/visiting_cities_semantic_4.png","1","",""
"","","","","","image-button-response","36","355633","0.0-10.0-1.0-2.3","0D75B21EA67942B988D80423F896CC2A","0D75B21EA67942B988D80423F896CC2A","0198ed72-b009-7600-8f8b-8a7f914ea62c","0198ed26-a6a7-793d-982a-8940a71ab262","{""num_scrambled_semantic"":""8"",""num_scrambled_causal"":""4"",""num_scrambled_schematic"":""4"",""participantId"":""0D75B21EA67942B988D80423F896CC2A"",""assignmentId"":""0198ed72-b009-7600-8f8b-8a7f914ea62c"",""projectId"":""0198ed26-a6a7-793d-982a-8940a71ab262""}","https://test12345.live/?num_scrambled_semantic=8&num_scrambled_causal=4&num_scrambled_schematic=4&participantId=0D75B21EA67942B988D80423F896CC2A&assignmentId=0198ed72-b009-7600-8f8b-8a7f914ea62c&projectId=0198ed26-a6a7-793d-982a-8940a71ab262","0D75B21EA67942B988D80423F896CC2A-2025-08-27-22-49-43","","null","","[]","null","",""
"","","","","","image-button-response","37","360141","0.0-10.0-1.0-0.4","0D75B21EA67942B988D80423F896CC2A","0D75B21EA67942B988D80423F896CC2A","0198ed72-b009-7600-8f8b-8a7f914ea62c","0198ed26-a6a7-793d-982a-8940a71ab262","{""num_scrambled_semantic"":""8"",""num_scrambled_causal"":""4"",""num_scrambled_schematic"":""4"",""participantId"":""0D75B21EA67942B988D80423F896CC2A"",""assignmentId"":""0198ed72-b009-7600-8f8b-8a7f914ea62c"",""projectId"":""0198ed26-a6a7-793d-982a-8940a71ab262""}","https://test12345.live/?num_scrambled_semantic=8&num_scrambled_causal=4&num_scrambled_schematic=4&participantId=0D75B21EA67942B988D80423F896CC2A&assignmentId=0198ed72-b009-7600-8f8b-8a7f914ea62c&projectId=0198ed26-a6a7-793d-982a-8940a71ab262","0D75B21EA67942B988D80423F896CC2A-2025-08-27-22-49-43","","null","","images/semantic_sequence/visiting_cities_semantic/visiting_cities_semantic_5.png","null","",""
"","","","","","image-button-response","38","361092","0.0-10.0-1.0-1.4","0D75B21EA67942B988D80423F896CC2A","0D75B21EA67942B988D80423F896CC2A","0198ed72-b009-7600-8f8b-8a7f914ea62c","0198ed26-a6a7-793d-982a-8940a71ab262","{""num_scrambled_semantic"":""8"",""num_scrambled_causal"":""4"",""num_scrambled_schematic"":""4"",""participantId"":""0D75B21EA67942B988D80423F896CC2A"",""assignmentId"":""0198ed72-b009-7600-8f8b-8a7f914ea62c"",""projectId"":""0198ed26-a6a7-793d-982a-8940a71ab262""}","https://test12345.live/?num_scrambled_semantic=8&num_scrambled_causal=4&num_scrambled_schematic=4&participantId=0D75B21EA67942B988D80423F896CC2A&assignmentId=0198ed72-b009-7600-8f8b-8a7f914ea62c&projectId=0198ed26-a6a7-793d-982a-8940a71ab262","0D75B21EA67942B988D80423F896CC2A-2025-08-27-22-49-43","","949","","images/semantic_sequence/visiting_cities_semantic/visiting_cities_semantic_5.png","1","",""
"","","","","","image-button-response","39","362911","0.0-10.0-1.0-2.4","0D75B21EA67942B988D80423F896CC2A","0D75B21EA67942B988D80423F896CC2A","0198ed72-b009-7600-8f8b-8a7f914ea62c","0198ed26-a6a7-793d-982a-8940a71ab262","{""num_scrambled_semantic"":""8"",""num_scrambled_causal"":""4"",""num_scrambled_schematic"":""4"",""participantId"":""0D75B21EA67942B988D80423F896CC2A"",""assignmentId"":""0198ed72-b009-7600-8f8b-8a7f914ea62c"",""projectId"":""0198ed26-a6a7-793d-982a-8940a71ab262""}","https://test12345.live/?num_scrambled_semantic=8&num_scrambled_causal=4&num_scrambled_schematic=4&participantId=0D75B21EA67942B988D80423F896CC2A&assignmentId=0198ed72-b009-7600-8f8b-8a7f914ea62c&projectId=0198ed26-a6a7-793d-982a-8940a71ab262","0D75B21EA67942B988D80423F896CC2A-2025-08-27-22-49-43","","null","","[]","null","",""
"","","","","","image-button-response","40","367421","0.0-10.0-1.0-0.5","0D75B21EA67942B988D80423F896CC2A","0D75B21EA67942B988D80423F896CC2A","0198ed72-b009-7600-8f8b-8a7f914ea62c","0198ed26-a6a7-793d-982a-8940a71ab262","{""num_scrambled_semantic"":""8"",""num_scrambled_causal"":""4"",""num_scrambled_schematic"":""4"",""participantId"":""0D75B21EA67942B988D80423F896CC2A"",""assignmentId"":""0198ed72-b009-7600-8f8b-8a7f914ea62c"",""projectId"":""0198ed26-a6a7-793d-982a-8940a71ab262""}","https://test12345.live/?num_scrambled_semantic=8&num_scrambled_causal=4&num_scrambled_schematic=4&participantId=0D75B21EA67942B988D80423F896CC2A&assignmentId=0198ed72-b009-7600-8f8b-8a7f914ea62c&projectId=0198ed26-a6a7-793d-982a-8940a71ab262","0D75B21EA67942B988D80423F896CC2A-2025-08-27-22-49-43","","null","","images/semantic_sequence/visiting_cities_semantic/visiting_cities_semantic_1.png","null","",""
"","","","","","image-button-response","41","370004","0.0-10.0-1.0-1.5","0D75B21EA67942B988D80423F896CC2A","0D75B21EA67942B988D80423F896CC2A","0198ed72-b009-7600-8f8b-8a7f914ea62c","0198ed26-a6a7-793d-982a-8940a71ab262","{""num_scrambled_semantic"":""8"",""num_scrambled_causal"":""4"",""num_scrambled_schematic"":""4"",""participantId"":""0D75B21EA67942B988D80423F896CC2A"",""assignmentId"":""0198ed72-b009-7600-8f8b-8a7f914ea62c"",""projectId"":""0198ed26-a6a7-793d-982a-8940a71ab262""}","https://test12345.live/?num_scrambled_semantic=8&num_scrambled_causal=4&num_scrambled_schematic=4&participantId=0D75B21EA67942B988D80423F896CC2A&assignmentId=0198ed72-b009-7600-8f8b-8a7f914ea62c&projectId=0198ed26-a6a7-793d-982a-8940a71ab262","0D75B21EA67942B988D80423F896CC2A-2025-08-27-22-49-43","","2581","","images/semantic_sequence/visiting_cities_semantic/visiting_cities_semantic_1.png","1","",""
"","","","","","image-button-response","42","371807","0.0-10.0-1.0-2.5","0D75B21EA67942B988D80423F896CC2A","0D75B21EA67942B988D80423F896CC2A","0198ed72-b009-7600-8f8b-8a7f914ea62c","0198ed26-a6a7-793d-982a-8940a71ab262","{""num_scrambled_semantic"":""8"",""num_scrambled_causal"":""4"",""num_scrambled_schematic"":""4"",""participantId"":""0D75B21EA67942B988D80423F896CC2A"",""assignmentId"":""0198ed72-b009-7600-8f8b-8a7f914ea62c"",""projectId"":""0198ed26-a6a7-793d-982a-8940a71ab262""}","https://test12345.live/?num_scrambled_semantic=8&num_scrambled_causal=4&num_scrambled_schematic=4&participantId=0D75B21EA67942B988D80423F896CC2A&assignmentId=0198ed72-b009-7600-8f8b-8a7f914ea62c&projectId=0198ed26-a6a7-793d-982a-8940a71ab262","0D75B21EA67942B988D80423F896CC2A-2025-08-27-22-49-43","","null","","[]","null","",""
"","","","","","image-button-response","43","376316","0.0-10.0-1.0-0.6","0D75B21EA67942B988D80423F896CC2A","0D75B21EA67942B988D80423F896CC2A","0198ed72-b009-7600-8f8b-8a7f914ea62c","0198ed26-a6a7-793d-982a-8940a71ab262","{""num_scrambled_semantic"":""8"",""num_scrambled_causal"":""4"",""num_scrambled_schematic"":""4"",""participantId"":""0D75B21EA67942B988D80423F896CC2A"",""assignmentId"":""0198ed72-b009-7600-8f8b-8a7f914ea62c"",""projectId"":""0198ed26-a6a7-793d-982a-8940a71ab262""}","https://test12345.live/?num_scrambled_semantic=8&num_scrambled_causal=4&num_scrambled_schematic=4&participantId=0D75B21EA67942B988D80423F896CC2A&assignmentId=0198ed72-b009-7600-8f8b-8a7f914ea62c&projectId=0198ed26-a6a7-793d-982a-8940a71ab262","0D75B21EA67942B988D80423F896CC2A-2025-08-27-22-49-43","","null","","images/semantic_sequence/visiting_cities_semantic/visiting_cities_semantic_6.png","null","",""
"","","","","","image-button-response","44","377020","0.0-10.0-1.0-1.6","0D75B21EA67942B988D80423F896CC2A","0D75B21EA67942B988D80423F896CC2A","0198ed72-b009-7600-8f8b-8a7f914ea62c","0198ed26-a6a7-793d-982a-8940a71ab262","{""num_scrambled_semantic"":""8"",""num_scrambled_causal"":""4"",""num_scrambled_schematic"":""4"",""participantId"":""0D75B21EA67942B988D80423F896CC2A"",""assignmentId"":""0198ed72-b009-7600-8f8b-8a7f914ea62c"",""projectId"":""0198ed26-a6a7-793d-982a-8940a71ab262""}","https://test12345.live/?num_scrambled_semantic=8&num_scrambled_causal=4&num_scrambled_schematic=4&participantId=0D75B21EA67942B988D80423F896CC2A&assignmentId=0198ed72-b009-7600-8f8b-8a7f914ea62c&projectId=0198ed26-a6a7-793d-982a-8940a71ab262","0D75B21EA67942B988D80423F896CC2A-2025-08-27-22-49-43","","702","","images/semantic_sequence/visiting_cities_semantic/visiting_cities_semantic_6.png","1","",""
"","","","","","image-button-response","45","378831","0.0-10.0-1.0-2.6","0D75B21EA67942B988D80423F896CC2A","0D75B21EA67942B988D80423F896CC2A","0198ed72-b009-7600-8f8b-8a7f914ea62c","0198ed26-a6a7-793d-982a-8940a71ab262","{""num_scrambled_semantic"":""8"",""num_scrambled_causal"":""4"",""num_scrambled_schematic"":""4"",""participantId"":""0D75B21EA67942B988D80423F896CC2A"",""assignmentId"":""0198ed72-b009-7600-8f8b-8a7f914ea62c"",""projectId"":""0198ed26-a6a7-793d-982a-8940a71ab262""}","https://test12345.live/?num_scrambled_semantic=8&num_scrambled_causal=4&num_scrambled_schematic=4&participantId=0D75B21EA67942B988D80423F896CC2A&assignmentId=0198ed72-b009-7600-8f8b-8a7f914ea62c&projectId=0198ed26-a6a7-793d-982a-8940a71ab262","0D75B21EA67942B988D80423F896CC2A-2025-08-27-22-49-43","","null","","[]","null","",""
"","","","","","image-button-response","46","383335","0.0-10.0-1.0-0.7","0D75B21EA67942B988D80423F896CC2A","0D75B21EA67942B988D80423F896CC2A","0198ed72-b009-7600-8f8b-8a7f914ea62c","0198ed26-a6a7-793d-982a-8940a71ab262","{""num_scrambled_semantic"":""8"",""num_scrambled_causal"":""4"",""num_scrambled_schematic"":""4"",""participantId"":""0D75B21EA67942B988D80423F896CC2A"",""assignmentId"":""0198ed72-b009-7600-8f8b-8a7f914ea62c"",""projectId"":""0198ed26-a6a7-793d-982a-8940a71ab262""}","https://test12345.live/?num_scrambled_semantic=8&num_scrambled_causal=4&num_scrambled_schematic=4&participantId=0D75B21EA67942B988D80423F896CC2A&assignmentId=0198ed72-b009-7600-8f8b-8a7f914ea62c&projectId=0198ed26-a6a7-793d-982a-8940a71ab262","0D75B21EA67942B988D80423F896CC2A-2025-08-27-22-49-43","","null","","images/semantic_sequence/visiting_cities_semantic/visiting_cities_semantic_7.png","null","",""
"","","","","","image-button-response","47","384863","0.0-10.0-1.0-1.7","0D75B21EA67942B988D80423F896CC2A","0D75B21EA67942B988D80423F896CC2A","0198ed72-b009-7600-8f8b-8a7f914ea62c","0198ed26-a6a7-793d-982a-8940a71ab262","{""num_scrambled_semantic"":""8"",""num_scrambled_causal"":""4"",""num_scrambled_schematic"":""4"",""participantId"":""0D75B21EA67942B988D80423F896CC2A"",""assignmentId"":""0198ed72-b009-7600-8f8b-8a7f914ea62c"",""projectId"":""0198ed26-a6a7-793d-982a-8940a71ab262""}","https://test12345.live/?num_scrambled_semantic=8&num_scrambled_causal=4&num_scrambled_schematic=4&participantId=0D75B21EA67942B988D80423F896CC2A&assignmentId=0198ed72-b009-7600-8f8b-8a7f914ea62c&projectId=0198ed26-a6a7-793d-982a-8940a71ab262","0D75B21EA67942B988D80423F896CC2A-2025-08-27-22-49-43","","1527","","images/semantic_sequence/visiting_cities_semantic/visiting_cities_semantic_7.png","0","",""
"","","","","","image-button-response","48","386678","0.0-10.0-1.0-2.7","0D75B21EA67942B988D80423F896CC2A","0D75B21EA67942B988D80423F896CC2A","0198ed72-b009-7600-8f8b-8a7f914ea62c","0198ed26-a6a7-793d-982a-8940a71ab262","{""num_scrambled_semantic"":""8"",""num_scrambled_causal"":""4"",""num_scrambled_schematic"":""4"",""participantId"":""0D75B21EA67942B988D80423F896CC2A"",""assignmentId"":""0198ed72-b009-7600-8f8b-8a7f914ea62c"",""projectId"":""0198ed26-a6a7-793d-982a-8940a71ab262""}","https://test12345.live/?num_scrambled_semantic=8&num_scrambled_causal=4&num_scrambled_schematic=4&participantId=0D75B21EA67942B988D80423F896CC2A&assignmentId=0198ed72-b009-7600-8f8b-8a7f914ea62c&projectId=0198ed26-a6a7-793d-982a-8940a71ab262","0D75B21EA67942B988D80423F896CC2A-2025-08-27-22-49-43","","null","","[]","null","",""
"","","","","","image-button-response","49","391185","0.0-10.0-1.0-0.8","0D75B21EA67942B988D80423F896CC2A","0D75B21EA67942B988D80423F896CC2A","0198ed72-b009-7600-8f8b-8a7f914ea62c","0198ed26-a6a7-793d-982a-8940a71ab262","{""num_scrambled_semantic"":""8"",""num_scrambled_causal"":""4"",""num_scrambled_schematic"":""4"",""participantId"":""0D75B21EA67942B988D80423F896CC2A"",""assignmentId"":""0198ed72-b009-7600-8f8b-8a7f914ea62c"",""projectId"":""0198ed26-a6a7-793d-982a-8940a71ab262""}","https://test12345.live/?num_scrambled_semantic=8&num_scrambled_causal=4&num_scrambled_schematic=4&participantId=0D75B21EA67942B988D80423F896CC2A&assignmentId=0198ed72-b009-7600-8f8b-8a7f914ea62c&projectId=0198ed26-a6a7-793d-982a-8940a71ab262","0D75B21EA67942B988D80423F896CC2A-2025-08-27-22-49-43","","null","","images/semantic_sequence/visiting_cities_semantic/visiting_cities_semantic_3.png","null","",""
"","","","","","image-button-response","50","392018","0.0-10.0-1.0-1.8","0D75B21EA67942B988D80423F896CC2A","0D75B21EA67942B988D80423F896CC2A","0198ed72-b009-7600-8f8b-8a7f914ea62c","0198ed26-a6a7-793d-982a-8940a71ab262","{""num_scrambled_semantic"":""8"",""num_scrambled_causal"":""4"",""num_scrambled_schematic"":""4"",""participantId"":""0D75B21EA67942B988D80423F896CC2A"",""assignmentId"":""0198ed72-b009-7600-8f8b-8a7f914ea62c"",""projectId"":""0198ed26-a6a7-793d-982a-8940a71ab262""}","https://test12345.live/?num_scrambled_semantic=8&num_scrambled_causal=4&num_scrambled_schematic=4&participantId=0D75B21EA67942B988D80423F896CC2A&assignmentId=0198ed72-b009-7600-8f8b-8a7f914ea62c&projectId=0198ed26-a6a7-793d-982a-8940a71ab262","0D75B21EA67942B988D80423F896CC2A-2025-08-27-22-49-43","","831","","images/semantic_sequence/visiting_cities_semantic/visiting_cities_semantic_3.png","1","",""
"","","","","","image-button-response","51","393819","0.0-10.0-1.0-2.8","0D75B21EA67942B988D80423F896CC2A","0D75B21EA67942B988D80423F896CC2A","0198ed72-b009-7600-8f8b-8a7f914ea62c","0198ed26-a6a7-793d-982a-8940a71ab262","{""num_scrambled_semantic"":""8"",""num_scrambled_causal"":""4"",""num_scrambled_schematic"":""4"",""participantId"":""0D75B21EA67942B988D80423F896CC2A"",""assignmentId"":""0198ed72-b009-7600-8f8b-8a7f914ea62c"",""projectId"":""0198ed26-a6a7-793d-982a-8940a71ab262""}","https://test12345.live/?num_scrambled_semantic=8&num_scrambled_causal=4&num_scrambled_schematic=4&participantId=0D75B21EA67942B988D80423F896CC2A&assignmentId=0198ed72-b009-7600-8f8b-8a7f914ea62c&projectId=0198ed26-a6a7-793d-982a-8940a71ab262","0D75B21EA67942B988D80423F896CC2A-2025-08-27-22-49-43","","null","","[]","null","",""
"","","","","","image-button-response","52","398324","0.0-10.0-1.0-0.9","0D75B21EA67942B988D80423F896CC2A","0D75B21EA67942B988D80423F896CC2A","0198ed72-b009-7600-8f8b-8a7f914ea62c","0198ed26-a6a7-793d-982a-8940a71ab262","{""num_scrambled_semantic"":""8"",""num_scrambled_causal"":""4"",""num_scrambled_schematic"":""4"",""participantId"":""0D75B21EA67942B988D80423F896CC2A"",""assignmentId"":""0198ed72-b009-7600-8f8b-8a7f914ea62c"",""projectId"":""0198ed26-a6a7-793d-982a-8940a71ab262""}","https://test12345.live/?num_scrambled_semantic=8&num_scrambled_causal=4&num_scrambled_schematic=4&participantId=0D75B21EA67942B988D80423F896CC2A&assignmentId=0198ed72-b009-7600-8f8b-8a7f914ea62c&projectId=0198ed26-a6a7-793d-982a-8940a71ab262","0D75B21EA67942B988D80423F896CC2A-2025-08-27-22-49-43","","null","","images/semantic_sequence/visiting_cities_semantic/visiting_cities_semantic_9.png","null","",""
"","","","","","image-button-response","53","398877","0.0-10.0-1.0-1.9","0D75B21EA67942B988D80423F896CC2A","0D75B21EA67942B988D80423F896CC2A","0198ed72-b009-7600-8f8b-8a7f914ea62c","0198ed26-a6a7-793d-982a-8940a71ab262","{""num_scrambled_semantic"":""8"",""num_scrambled_causal"":""4"",""num_scrambled_schematic"":""4"",""participantId"":""0D75B21EA67942B988D80423F896CC2A"",""assignmentId"":""0198ed72-b009-7600-8f8b-8a7f914ea62c"",""projectId"":""0198ed26-a6a7-793d-982a-8940a71ab262""}","https://test12345.live/?num_scrambled_semantic=8&num_scrambled_causal=4&num_scrambled_schematic=4&participantId=0D75B21EA67942B988D80423F896CC2A&assignmentId=0198ed72-b009-7600-8f8b-8a7f914ea62c&projectId=0198ed26-a6a7-793d-982a-8940a71ab262","0D75B21EA67942B988D80423F896CC2A-2025-08-27-22-49-43","","551","","images/semantic_sequence/visiting_cities_semantic/visiting_cities_semantic_9.png","1","",""
"","","","","","image-button-response","54","400694","0.0-10.0-1.0-2.9","0D75B21EA67942B988D80423F896CC2A","0D75B21EA67942B988D80423F896CC2A","0198ed72-b009-7600-8f8b-8a7f914ea62c","0198ed26-a6a7-793d-982a-8940a71ab262","{""num_scrambled_semantic"":""8"",""num_scrambled_causal"":""4"",""num_scrambled_schematic"":""4"",""participantId"":""0D75B21EA67942B988D80423F896CC2A"",""assignmentId"":""0198ed72-b009-7600-8f8b-8a7f914ea62c"",""projectId"":""0198ed26-a6a7-793d-982a-8940a71ab262""}","https://test12345.live/?num_scrambled_semantic=8&num_scrambled_causal=4&num_scrambled_schematic=4&participantId=0D75B21EA67942B988D80423F896CC2A&assignmentId=0198ed72-b009-7600-8f8b-8a7f914ea62c&projectId=0198ed26-a6a7-793d-982a-8940a71ab262","0D75B21EA67942B988D80423F896CC2A-2025-08-27-22-49-43","","null","","[]","null","",""
"","","","","","html-audio-response","55","504922","0.0-11.0","0D75B21EA67942B988D80423F896CC2A","0D75B21EA67942B988D80423F896CC2A","0198ed72-b009-7600-8f8b-8a7f914ea62c","0198ed26-a6a7-793d-982a-8940a71ab262","{""num_scrambled_semantic"":""8"",""num_scrambled_causal"":""4"",""num_scrambled_schematic"":""4"",""participantId"":""0D75B21EA67942B988D80423F896CC2A"",""assignmentId"":""0198ed72-b009-7600-8f8b-8a7f914ea62c"",""projectId"":""0198ed26-a6a7-793d-982a-8940a71ab262""}","https://test12345.live/?num_scrambled_semantic=8&num_scrambled_causal=4&num_scrambled_schematic=4&participantId=0D75B21EA67942B988D80423F896CC2A&assignmentId=0198ed72-b009-7600-8f8b-8a7f914ea62c&projectId=0198ed26-a6a7-793d-982a-8940a71ab262","0D75B21EA67942B988D80423F896CC2A-2025-08-27-22-49-43","","19520","","[""<span style=\""color: red; font-size: 24px\""> NOW RECORDING</span><p>Please say out loud all the images you saw, in the order of the story they create. Try to recall the sequence of events as they appeared in the story, not necessarily the order they were presented on the screen.</p>""]","","3","visiting_cities_semantic"
"","","","","","image-button-response","56","510937","0.0-12.0-0.0","0D75B21EA67942B988D80423F896CC2A","0D75B21EA67942B988D80423F896CC2A","0198ed72-b009-7600-8f8b-8a7f914ea62c","0198ed26-a6a7-793d-982a-8940a71ab262","{""num_scrambled_semantic"":""8"",""num_scrambled_causal"":""4"",""num_scrambled_schematic"":""4"",""participantId"":""0D75B21EA67942B988D80423F896CC2A"",""assignmentId"":""0198ed72-b009-7600-8f8b-8a7f914ea62c"",""projectId"":""0198ed26-a6a7-793d-982a-8940a71ab262""}","https://test12345.live/?num_scrambled_semantic=8&num_scrambled_causal=4&num_scrambled_schematic=4&participantId=0D75B21EA67942B988D80423F896CC2A&assignmentId=0198ed72-b009-7600-8f8b-8a7f914ea62c&projectId=0198ed26-a6a7-793d-982a-8940a71ab262","0D75B21EA67942B988D80423F896CC2A-2025-08-27-22-49-43","","null","","images/semantic_sequence/housework_semantic/housework_semantic_0.png","null","",""
"","","","","","image-button-response","57","515444","0.0-12.0-1.0-0.0","0D75B21EA67942B988D80423F896CC2A","0D75B21EA67942B988D80423F896CC2A","0198ed72-b009-7600-8f8b-8a7f914ea62c","0198ed26-a6a7-793d-982a-8940a71ab262","{""num_scrambled_semantic"":""8"",""num_scrambled_causal"":""4"",""num_scrambled_schematic"":""4"",""participantId"":""0D75B21EA67942B988D80423F896CC2A"",""assignmentId"":""0198ed72-b009-7600-8f8b-8a7f914ea62c"",""projectId"":""0198ed26-a6a7-793d-982a-8940a71ab262""}","https://test12345.live/?num_scrambled_semantic=8&num_scrambled_causal=4&num_scrambled_schematic=4&participantId=0D75B21EA67942B988D80423F896CC2A&assignmentId=0198ed72-b009-7600-8f8b-8a7f914ea62c&projectId=0198ed26-a6a7-793d-982a-8940a71ab262","0D75B21EA67942B988D80423F896CC2A-2025-08-27-22-49-43","","null","","images/semantic_sequence/housework_semantic/housework_semantic_6.png","null","",""
"","","","","","image-button-response","58","518184","0.0-12.0-1.0-1.0","0D75B21EA67942B988D80423F896CC2A","0D75B21EA67942B988D80423F896CC2A","0198ed72-b009-7600-8f8b-8a7f914ea62c","0198ed26-a6a7-793d-982a-8940a71ab262","{""num_scrambled_semantic"":""8"",""num_scrambled_causal"":""4"",""num_scrambled_schematic"":""4"",""participantId"":""0D75B21EA67942B988D80423F896CC2A"",""assignmentId"":""0198ed72-b009-7600-8f8b-8a7f914ea62c"",""projectId"":""0198ed26-a6a7-793d-982a-8940a71ab262""}","https://test12345.live/?num_scrambled_semantic=8&num_scrambled_causal=4&num_scrambled_schematic=4&participantId=0D75B21EA67942B988D80423F896CC2A&assignmentId=0198ed72-b009-7600-8f8b-8a7f914ea62c&projectId=0198ed26-a6a7-793d-982a-8940a71ab262","0D75B21EA67942B988D80423F896CC2A-2025-08-27-22-49-43","","2738","","images/semantic_sequence/housework_semantic/housework_semantic_6.png","0","",""
"","","","","","image-button-response","59","519997","0.0-12.0-1.0-2.0","0D75B21EA67942B988D80423F896CC2A","0D75B21EA67942B988D80423F896CC2A","0198ed72-b009-7600-8f8b-8a7f914ea62c","0198ed26-a6a7-793d-982a-8940a71ab262","{""num_scrambled_semantic"":""8"",""num_scrambled_causal"":""4"",""num_scrambled_schematic"":""4"",""participantId"":""0D75B21EA67942B988D80423F896CC2A"",""assignmentId"":""0198ed72-b009-7600-8f8b-8a7f914ea62c"",""projectId"":""0198ed26-a6a7-793d-982a-8940a71ab262""}","https://test12345.live/?num_scrambled_semantic=8&num_scrambled_causal=4&num_scrambled_schematic=4&participantId=0D75B21EA67942B988D80423F896CC2A&assignmentId=0198ed72-b009-7600-8f8b-8a7f914ea62c&projectId=0198ed26-a6a7-793d-982a-8940a71ab262","0D75B21EA67942B988D80423F896CC2A-2025-08-27-22-49-43","","null","","[]","null","",""
"","","","","","image-button-response","60","524501","0.0-12.0-1.0-0.1","0D75B21EA67942B988D80423F896CC2A","0D75B21EA67942B988D80423F896CC2A","0198ed72-b009-7600-8f8b-8a7f914ea62c","0198ed26-a6a7-793d-982a-8940a71ab262","{""num_scrambled_semantic"":""8"",""num_scrambled_causal"":""4"",""num_scrambled_schematic"":""4"",""participantId"":""0D75B21EA67942B988D80423F896CC2A"",""assignmentId"":""0198ed72-b009-7600-8f8b-8a7f914ea62c"",""projectId"":""0198ed26-a6a7-793d-982a-8940a71ab262""}","https://test12345.live/?num_scrambled_semantic=8&num_scrambled_causal=4&num_scrambled_schematic=4&participantId=0D75B21EA67942B988D80423F896CC2A&assignmentId=0198ed72-b009-7600-8f8b-8a7f914ea62c&projectId=0198ed26-a6a7-793d-982a-8940a71ab262","0D75B21EA67942B988D80423F896CC2A-2025-08-27-22-49-43","","null","","images/semantic_sequence/housework_semantic/housework_semantic_3.png","null","",""
"","","","","","image-button-response","61","525738","0.0-12.0-1.0-1.1","0D75B21EA67942B988D80423F896CC2A","0D75B21EA67942B988D80423F896CC2A","0198ed72-b009-7600-8f8b-8a7f914ea62c","0198ed26-a6a7-793d-982a-8940a71ab262","{""num_scrambled_semantic"":""8"",""num_scrambled_causal"":""4"",""num_scrambled_schematic"":""4"",""participantId"":""0D75B21EA67942B988D80423F896CC2A"",""assignmentId"":""0198ed72-b009-7600-8f8b-8a7f914ea62c"",""projectId"":""0198ed26-a6a7-793d-982a-8940a71ab262""}","https://test12345.live/?num_scrambled_semantic=8&num_scrambled_causal=4&num_scrambled_schematic=4&participantId=0D75B21EA67942B988D80423F896CC2A&assignmentId=0198ed72-b009-7600-8f8b-8a7f914ea62c&projectId=0198ed26-a6a7-793d-982a-8940a71ab262","0D75B21EA67942B988D80423F896CC2A-2025-08-27-22-49-43","","1235","","images/semantic_sequence/housework_semantic/housework_semantic_3.png","0","",""
"","","","","","image-button-response","62","527548","0.0-12.0-1.0-2.1","0D75B21EA67942B988D80423F896CC2A","0D75B21EA67942B988D80423F896CC2A","0198ed72-b009-7600-8f8b-8a7f914ea62c","0198ed26-a6a7-793d-982a-8940a71ab262","{""num_scrambled_semantic"":""8"",""num_scrambled_causal"":""4"",""num_scrambled_schematic"":""4"",""participantId"":""0D75B21EA67942B988D80423F896CC2A"",""assignmentId"":""0198ed72-b009-7600-8f8b-8a7f914ea62c"",""projectId"":""0198ed26-a6a7-793d-982a-8940a71ab262""}","https://test12345.live/?num_scrambled_semantic=8&num_scrambled_causal=4&num_scrambled_schematic=4&participantId=0D75B21EA67942B988D80423F896CC2A&assignmentId=0198ed72-b009-7600-8f8b-8a7f914ea62c&projectId=0198ed26-a6a7-793d-982a-8940a71ab262","0D75B21EA67942B988D80423F896CC2A-2025-08-27-22-49-43","","null","","[]","null","",""
"","","","","","image-button-response","63","532054","0.0-12.0-1.0-0.2","0D75B21EA67942B988D80423F896CC2A","0D75B21EA67942B988D80423F896CC2A","0198ed72-b009-7600-8f8b-8a7f914ea62c","0198ed26-a6a7-793d-982a-8940a71ab262","{""num_scrambled_semantic"":""8"",""num_scrambled_causal"":""4"",""num_scrambled_schematic"":""4"",""participantId"":""0D75B21EA67942B988D80423F896CC2A"",""assignmentId"":""0198ed72-b009-7600-8f8b-8a7f914ea62c"",""projectId"":""0198ed26-a6a7-793d-982a-8940a71ab262""}","https://test12345.live/?num_scrambled_semantic=8&num_scrambled_causal=4&num_scrambled_schematic=4&participantId=0D75B21EA67942B988D80423F896CC2A&assignmentId=0198ed72-b009-7600-8f8b-8a7f914ea62c&projectId=0198ed26-a6a7-793d-982a-8940a71ab262","0D75B21EA67942B988D80423F896CC2A-2025-08-27-22-49-43","","null","","images/semantic_sequence/housework_semantic/housework_semantic_1.png","null","",""
"","","","","","image-button-response","64","534350","0.0-12.0-1.0-1.2","0D75B21EA67942B988D80423F896CC2A","0D75B21EA67942B988D80423F896CC2A","0198ed72-b009-7600-8f8b-8a7f914ea62c","0198ed26-a6a7-793d-982a-8940a71ab262","{""num_scrambled_semantic"":""8"",""num_scrambled_causal"":""4"",""num_scrambled_schematic"":""4"",""participantId"":""0D75B21EA67942B988D80423F896CC2A"",""assignmentId"":""0198ed72-b009-7600-8f8b-8a7f914ea62c"",""projectId"":""0198ed26-a6a7-793d-982a-8940a71ab262""}","https://test12345.live/?num_scrambled_semantic=8&num_scrambled_causal=4&num_scrambled_schematic=4&participantId=0D75B21EA67942B988D80423F896CC2A&assignmentId=0198ed72-b009-7600-8f8b-8a7f914ea62c&projectId=0198ed26-a6a7-793d-982a-8940a71ab262","0D75B21EA67942B988D80423F896CC2A-2025-08-27-22-49-43","","2294","","images/semantic_sequence/housework_semantic/housework_semantic_1.png","0","",""
"","","","","","image-button-response","65","536153","0.0-12.0-1.0-2.2","0D75B21EA67942B988D80423F896CC2A","0D75B21EA67942B988D80423F896CC2A","0198ed72-b009-7600-8f8b-8a7f914ea62c","0198ed26-a6a7-793d-982a-8940a71ab262","{""num_scrambled_semantic"":""8"",""num_scrambled_causal"":""4"",""num_scrambled_schematic"":""4"",""participantId"":""0D75B21EA67942B988D80423F896CC2A"",""assignmentId"":""0198ed72-b009-7600-8f8b-8a7f914ea62c"",""projectId"":""0198ed26-a6a7-793d-982a-8940a71ab262""}","https://test12345.live/?num_scrambled_semantic=8&num_scrambled_causal=4&num_scrambled_schematic=4&participantId=0D75B21EA67942B988D80423F896CC2A&assignmentId=0198ed72-b009-7600-8f8b-8a7f914ea62c&projectId=0198ed26-a6a7-793d-982a-8940a71ab262","0D75B21EA67942B988D80423F896CC2A-2025-08-27-22-49-43","","null","","[]","null","",""
"","","","","","image-button-response","66","540659","0.0-12.0-1.0-0.3","0D75B21EA67942B988D80423F896CC2A","0D75B21EA67942B988D80423F896CC2A","0198ed72-b009-7600-8f8b-8a7f914ea62c","0198ed26-a6a7-793d-982a-8940a71ab262","{""num_scrambled_semantic"":""8"",""num_scrambled_causal"":""4"",""num_scrambled_schematic"":""4"",""participantId"":""0D75B21EA67942B988D80423F896CC2A"",""assignmentId"":""0198ed72-b009-7600-8f8b-8a7f914ea62c"",""projectId"":""0198ed26-a6a7-793d-982a-8940a71ab262""}","https://test12345.live/?num_scrambled_semantic=8&num_scrambled_causal=4&num_scrambled_schematic=4&participantId=0D75B21EA67942B988D80423F896CC2A&assignmentId=0198ed72-b009-7600-8f8b-8a7f914ea62c&projectId=0198ed26-a6a7-793d-982a-8940a71ab262","0D75B21EA67942B988D80423F896CC2A-2025-08-27-22-49-43","","null","","images/semantic_sequence/housework_semantic/housework_semantic_8.png","null","",""
"","","","","","image-button-response","67","541689","0.0-12.0-1.0-1.3","0D75B21EA67942B988D80423F896CC2A","0D75B21EA67942B988D80423F896CC2A","0198ed72-b009-7600-8f8b-8a7f914ea62c","0198ed26-a6a7-793d-982a-8940a71ab262","{""num_scrambled_semantic"":""8"",""num_scrambled_causal"":""4"",""num_scrambled_schematic"":""4"",""participantId"":""0D75B21EA67942B988D80423F896CC2A"",""assignmentId"":""0198ed72-b009-7600-8f8b-8a7f914ea62c"",""projectId"":""0198ed26-a6a7-793d-982a-8940a71ab262""}","https://test12345.live/?num_scrambled_semantic=8&num_scrambled_causal=4&num_scrambled_schematic=4&participantId=0D75B21EA67942B988D80423F896CC2A&assignmentId=0198ed72-b009-7600-8f8b-8a7f914ea62c&projectId=0198ed26-a6a7-793d-982a-8940a71ab262","0D75B21EA67942B988D80423F896CC2A-2025-08-27-22-49-43","","1028","","images/semantic_sequence/housework_semantic/housework_semantic_8.png","0","",""
"","","","","","image-button-response","68","543504","0.0-12.0-1.0-2.3","0D75B21EA67942B988D80423F896CC2A","0D75B21EA67942B988D80423F896CC2A","0198ed72-b009-7600-8f8b-8a7f914ea62c","0198ed26-a6a7-793d-982a-8940a71ab262","{""num_scrambled_semantic"":""8"",""num_scrambled_causal"":""4"",""num_scrambled_schematic"":""4"",""participantId"":""0D75B21EA67942B988D80423F896CC2A"",""assignmentId"":""0198ed72-b009-7600-8f8b-8a7f914ea62c"",""projectId"":""0198ed26-a6a7-793d-982a-8940a71ab262""}","https://test12345.live/?num_scrambled_semantic=8&num_scrambled_causal=4&num_scrambled_schematic=4&participantId=0D75B21EA67942B988D80423F896CC2A&assignmentId=0198ed72-b009-7600-8f8b-8a7f914ea62c&projectId=0198ed26-a6a7-793d-982a-8940a71ab262","0D75B21EA67942B988D80423F896CC2A-2025-08-27-22-49-43","","null","","[]","null","",""
"","","","","","image-button-response","69","548020","0.0-12.0-1.0-0.4","0D75B21EA67942B988D80423F896CC2A","0D75B21EA67942B988D80423F896CC2A","0198ed72-b009-7600-8f8b-8a7f914ea62c","0198ed26-a6a7-793d-982a-8940a71ab262","{""num_scrambled_semantic"":""8"",""num_scrambled_causal"":""4"",""num_scrambled_schematic"":""4"",""participantId"":""0D75B21EA67942B988D80423F896CC2A"",""assignmentId"":""0198ed72-b009-7600-8f8b-8a7f914ea62c"",""projectId"":""0198ed26-a6a7-793d-982a-8940a71ab262""}","https://test12345.live/?num_scrambled_semantic=8&num_scrambled_causal=4&num_scrambled_schematic=4&participantId=0D75B21EA67942B988D80423F896CC2A&assignmentId=0198ed72-b009-7600-8f8b-8a7f914ea62c&projectId=0198ed26-a6a7-793d-982a-8940a71ab262","0D75B21EA67942B988D80423F896CC2A-2025-08-27-22-49-43","","null","","images/semantic_sequence/housework_semantic/housework_semantic_7.png","null","",""
"","","","","","image-button-response","70","548974","0.0-12.0-1.0-1.4","0D75B21EA67942B988D80423F896CC2A","0D75B21EA67942B988D80423F896CC2A","0198ed72-b009-7600-8f8b-8a7f914ea62c","0198ed26-a6a7-793d-982a-8940a71ab262","{""num_scrambled_semantic"":""8"",""num_scrambled_causal"":""4"",""num_scrambled_schematic"":""4"",""participantId"":""0D75B21EA67942B988D80423F896CC2A"",""assignmentId"":""0198ed72-b009-7600-8f8b-8a7f914ea62c"",""projectId"":""0198ed26-a6a7-793d-982a-8940a71ab262""}","https://test12345.live/?num_scrambled_semantic=8&num_scrambled_causal=4&num_scrambled_schematic=4&participantId=0D75B21EA67942B988D80423F896CC2A&assignmentId=0198ed72-b009-7600-8f8b-8a7f914ea62c&projectId=0198ed26-a6a7-793d-982a-8940a71ab262","0D75B21EA67942B988D80423F896CC2A-2025-08-27-22-49-43","","953","","images/semantic_sequence/housework_semantic/housework_semantic_7.png","0","",""
"","","","","","image-button-response","71","550787","0.0-12.0-1.0-2.4","0D75B21EA67942B988D80423F896CC2A","0D75B21EA67942B988D80423F896CC2A","0198ed72-b009-7600-8f8b-8a7f914ea62c","0198ed26-a6a7-793d-982a-8940a71ab262","{""num_scrambled_semantic"":""8"",""num_scrambled_causal"":""4"",""num_scrambled_schematic"":""4"",""participantId"":""0D75B21EA67942B988D80423F896CC2A"",""assignmentId"":""0198ed72-b009-7600-8f8b-8a7f914ea62c"",""projectId"":""0198ed26-a6a7-793d-982a-8940a71ab262""}","https://test12345.live/?num_scrambled_semantic=8&num_scrambled_causal=4&num_scrambled_schematic=4&participantId=0D75B21EA67942B988D80423F896CC2A&assignmentId=0198ed72-b009-7600-8f8b-8a7f914ea62c&projectId=0198ed26-a6a7-793d-982a-8940a71ab262","0D75B21EA67942B988D80423F896CC2A-2025-08-27-22-49-43","","null","","[]","null","",""
"","","","","","image-button-response","72","555290","0.0-12.0-1.0-0.5","0D75B21EA67942B988D80423F896CC2A","0D75B21EA67942B988D80423F896CC2A","0198ed72-b009-7600-8f8b-8a7f914ea62c","0198ed26-a6a7-793d-982a-8940a71ab262","{""num_scrambled_semantic"":""8"",""num_scrambled_causal"":""4"",""num_scrambled_schematic"":""4"",""participantId"":""0D75B21EA67942B988D80423F896CC2A"",""assignmentId"":""0198ed72-b009-7600-8f8b-8a7f914ea62c"",""projectId"":""0198ed26-a6a7-793d-982a-8940a71ab262""}","https://test12345.live/?num_scrambled_semantic=8&num_scrambled_causal=4&num_scrambled_schematic=4&participantId=0D75B21EA67942B988D80423F896CC2A&assignmentId=0198ed72-b009-7600-8f8b-8a7f914ea62c&projectId=0198ed26-a6a7-793d-982a-8940a71ab262","0D75B21EA67942B988D80423F896CC2A-2025-08-27-22-49-43","","null","","images/semantic_sequence/housework_semantic/housework_semantic_9.png","null","",""
"","","","","","image-button-response","73","556680","0.0-12.0-1.0-1.5","0D75B21EA67942B988D80423F896CC2A","0D75B21EA67942B988D80423F896CC2A","0198ed72-b009-7600-8f8b-8a7f914ea62c","0198ed26-a6a7-793d-982a-8940a71ab262","{""num_scrambled_semantic"":""8"",""num_scrambled_causal"":""4"",""num_scrambled_schematic"":""4"",""participantId"":""0D75B21EA67942B988D80423F896CC2A"",""assignmentId"":""0198ed72-b009-7600-8f8b-8a7f914ea62c"",""projectId"":""0198ed26-a6a7-793d-982a-8940a71ab262""}","https://test12345.live/?num_scrambled_semantic=8&num_scrambled_causal=4&num_scrambled_schematic=4&participantId=0D75B21EA67942B988D80423F896CC2A&assignmentId=0198ed72-b009-7600-8f8b-8a7f914ea62c&projectId=0198ed26-a6a7-793d-982a-8940a71ab262","0D75B21EA67942B988D80423F896CC2A-2025-08-27-22-49-43","","1389","","images/semantic_sequence/housework_semantic/housework_semantic_9.png","0","",""
"","","","","","image-button-response","74","558489","0.0-12.0-1.0-2.5","0D75B21EA67942B988D80423F896CC2A","0D75B21EA67942B988D80423F896CC2A","0198ed72-b009-7600-8f8b-8a7f914ea62c","0198ed26-a6a7-793d-982a-8940a71ab262","{""num_scrambled_semantic"":""8"",""num_scrambled_causal"":""4"",""num_scrambled_schematic"":""4"",""participantId"":""0D75B21EA67942B988D80423F896CC2A"",""assignmentId"":""0198ed72-b009-7600-8f8b-8a7f914ea62c"",""projectId"":""0198ed26-a6a7-793d-982a-8940a71ab262""}","https://test12345.live/?num_scrambled_semantic=8&num_scrambled_causal=4&num_scrambled_schematic=4&participantId=0D75B21EA67942B988D80423F896CC2A&assignmentId=0198ed72-b009-7600-8f8b-8a7f914ea62c&projectId=0198ed26-a6a7-793d-982a-8940a71ab262","0D75B21EA67942B988D80423F896CC2A-2025-08-27-22-49-43","","null","","[]","null","",""
"","","","","","image-button-response","75","563002","0.0-12.0-1.0-0.6","0D75B21EA67942B988D80423F896CC2A","0D75B21EA67942B988D80423F896CC2A","0198ed72-b009-7600-8f8b-8a7f914ea62c","0198ed26-a6a7-793d-982a-8940a71ab262","{""num_scrambled_semantic"":""8"",""num_scrambled_causal"":""4"",""num_scrambled_schematic"":""4"",""participantId"":""0D75B21EA67942B988D80423F896CC2A"",""assignmentId"":""0198ed72-b009-7600-8f8b-8a7f914ea62c"",""projectId"":""0198ed26-a6a7-793d-982a-8940a71ab262""}","https://test12345.live/?num_scrambled_semantic=8&num_scrambled_causal=4&num_scrambled_schematic=4&participantId=0D75B21EA67942B988D80423F896CC2A&assignmentId=0198ed72-b009-7600-8f8b-8a7f914ea62c&projectId=0198ed26-a6a7-793d-982a-8940a71ab262","0D75B21EA67942B988D80423F896CC2A-2025-08-27-22-49-43","","null","","images/semantic_sequence/housework_semantic/housework_semantic_4.png","null","",""
"","","","","","image-button-response","76","564721","0.0-12.0-1.0-1.6","0D75B21EA67942B988D80423F896CC2A","0D75B21EA67942B988D80423F896CC2A","0198ed72-b009-7600-8f8b-8a7f914ea62c","0198ed26-a6a7-793d-982a-8940a71ab262","{""num_scrambled_semantic"":""8"",""num_scrambled_causal"":""4"",""num_scrambled_schematic"":""4"",""participantId"":""0D75B21EA67942B988D80423F896CC2A"",""assignmentId"":""0198ed72-b009-7600-8f8b-8a7f914ea62c"",""projectId"":""0198ed26-a6a7-793d-982a-8940a71ab262""}","https://test12345.live/?num_scrambled_semantic=8&num_scrambled_causal=4&num_scrambled_schematic=4&participantId=0D75B21EA67942B988D80423F896CC2A&assignmentId=0198ed72-b009-7600-8f8b-8a7f914ea62c&projectId=0198ed26-a6a7-793d-982a-8940a71ab262","0D75B21EA67942B988D80423F896CC2A-2025-08-27-22-49-43","","1717","","images/semantic_sequence/housework_semantic/housework_semantic_4.png","0","",""
"","","","","","image-button-response","77","566526","0.0-12.0-1.0-2.6","0D75B21EA67942B988D80423F896CC2A","0D75B21EA67942B988D80423F896CC2A","0198ed72-b009-7600-8f8b-8a7f914ea62c","0198ed26-a6a7-793d-982a-8940a71ab262","{""num_scrambled_semantic"":""8"",""num_scrambled_causal"":""4"",""num_scrambled_schematic"":""4"",""participantId"":""0D75B21EA67942B988D80423F896CC2A"",""assignmentId"":""0198ed72-b009-7600-8f8b-8a7f914ea62c"",""projectId"":""0198ed26-a6a7-793d-982a-8940a71ab262""}","https://test12345.live/?num_scrambled_semantic=8&num_scrambled_causal=4&num_scrambled_schematic=4&participantId=0D75B21EA67942B988D80423F896CC2A&assignmentId=0198ed72-b009-7600-8f8b-8a7f914ea62c&projectId=0198ed26-a6a7-793d-982a-8940a71ab262","0D75B21EA67942B988D80423F896CC2A-2025-08-27-22-49-43","","null","","[]","null","",""
"","","","","","image-button-response","78","571028","0.0-12.0-1.0-0.7","0D75B21EA67942B988D80423F896CC2A","0D75B21EA67942B988D80423F896CC2A","0198ed72-b009-7600-8f8b-8a7f914ea62c","0198ed26-a6a7-793d-982a-8940a71ab262","{""num_scrambled_semantic"":""8"",""num_scrambled_causal"":""4"",""num_scrambled_schematic"":""4"",""participantId"":""0D75B21EA67942B988D80423F896CC2A"",""assignmentId"":""0198ed72-b009-7600-8f8b-8a7f914ea62c"",""projectId"":""0198ed26-a6a7-793d-982a-8940a71ab262""}","https://test12345.live/?num_scrambled_semantic=8&num_scrambled_causal=4&num_scrambled_schematic=4&participantId=0D75B21EA67942B988D80423F896CC2A&assignmentId=0198ed72-b009-7600-8f8b-8a7f914ea62c&projectId=0198ed26-a6a7-793d-982a-8940a71ab262","0D75B21EA67942B988D80423F896CC2A-2025-08-27-22-49-43","","null","","images/semantic_sequence/housework_semantic/housework_semantic_ten.png","null","",""
"","","","","","image-button-response","79","573540","0.0-12.0-1.0-1.7","0D75B21EA67942B988D80423F896CC2A","0D75B21EA67942B988D80423F896CC2A","0198ed72-b009-7600-8f8b-8a7f914ea62c","0198ed26-a6a7-793d-982a-8940a71ab262","{""num_scrambled_semantic"":""8"",""num_scrambled_causal"":""4"",""num_scrambled_schematic"":""4"",""participantId"":""0D75B21EA67942B988D80423F896CC2A"",""assignmentId"":""0198ed72-b009-7600-8f8b-8a7f914ea62c"",""projectId"":""0198ed26-a6a7-793d-982a-8940a71ab262""}","https://test12345.live/?num_scrambled_semantic=8&num_scrambled_causal=4&num_scrambled_schematic=4&participantId=0D75B21EA67942B988D80423F896CC2A&assignmentId=0198ed72-b009-7600-8f8b-8a7f914ea62c&projectId=0198ed26-a6a7-793d-982a-8940a71ab262","0D75B21EA67942B988D80423F896CC2A-2025-08-27-22-49-43","","2511","","images/semantic_sequence/housework_semantic/housework_semantic_ten.png","0","",""
"","","","","","image-button-response","80","575351","0.0-12.0-1.0-2.7","0D75B21EA67942B988D80423F896CC2A","0D75B21EA67942B988D80423F896CC2A","0198ed72-b009-7600-8f8b-8a7f914ea62c","0198ed26-a6a7-793d-982a-8940a71ab262","{""num_scrambled_semantic"":""8"",""num_scrambled_causal"":""4"",""num_scrambled_schematic"":""4"",""participantId"":""0D75B21EA67942B988D80423F896CC2A"",""assignmentId"":""0198ed72-b009-7600-8f8b-8a7f914ea62c"",""projectId"":""0198ed26-a6a7-793d-982a-8940a71ab262""}","https://test12345.live/?num_scrambled_semantic=8&num_scrambled_causal=4&num_scrambled_schematic=4&participantId=0D75B21EA67942B988D80423F896CC2A&assignmentId=0198ed72-b009-7600-8f8b-8a7f914ea62c&projectId=0198ed26-a6a7-793d-982a-8940a71ab262","0D75B21EA67942B988D80423F896CC2A-2025-08-27-22-49-43","","null","","[]","null","",""
"","","","","","image-button-response","81","579866","0.0-12.0-1.0-0.8","0D75B21EA67942B988D80423F896CC2A","0D75B21EA67942B988D80423F896CC2A","0198ed72-b009-7600-8f8b-8a7f914ea62c","0198ed26-a6a7-793d-982a-8940a71ab262","{""num_scrambled_semantic"":""8"",""num_scrambled_causal"":""4"",""num_scrambled_schematic"":""4"",""participantId"":""0D75B21EA67942B988D80423F896CC2A"",""assignmentId"":""0198ed72-b009-7600-8f8b-8a7f914ea62c"",""projectId"":""0198ed26-a6a7-793d-982a-8940a71ab262""}","https://test12345.live/?num_scrambled_semantic=8&num_scrambled_causal=4&num_scrambled_schematic=4&participantId=0D75B21EA67942B988D80423F896CC2A&assignmentId=0198ed72-b009-7600-8f8b-8a7f914ea62c&projectId=0198ed26-a6a7-793d-982a-8940a71ab262","0D75B21EA67942B988D80423F896CC2A-2025-08-27-22-49-43","","null","","images/semantic_sequence/housework_semantic/housework_semantic_5.png","null","",""
"","","","","","image-button-response","82","580760","0.0-12.0-1.0-1.8","0D75B21EA67942B988D80423F896CC2A","0D75B21EA67942B988D80423F896CC2A","0198ed72-b009-7600-8f8b-8a7f914ea62c","0198ed26-a6a7-793d-982a-8940a71ab262","{""num_scrambled_semantic"":""8"",""num_scrambled_causal"":""4"",""num_scrambled_schematic"":""4"",""participantId"":""0D75B21EA67942B988D80423F896CC2A"",""assignmentId"":""0198ed72-b009-7600-8f8b-8a7f914ea62c"",""projectId"":""0198ed26-a6a7-793d-982a-8940a71ab262""}","https://test12345.live/?num_scrambled_semantic=8&num_scrambled_causal=4&num_scrambled_schematic=4&participantId=0D75B21EA67942B988D80423F896CC2A&assignmentId=0198ed72-b009-7600-8f8b-8a7f914ea62c&projectId=0198ed26-a6a7-793d-982a-8940a71ab262","0D75B21EA67942B988D80423F896CC2A-2025-08-27-22-49-43","","892","","images/semantic_sequence/housework_semantic/housework_semantic_5.png","0","",""
"","","","","","image-button-response","83","582566","0.0-12.0-1.0-2.8","0D75B21EA67942B988D80423F896CC2A","0D75B21EA67942B988D80423F896CC2A","0198ed72-b009-7600-8f8b-8a7f914ea62c","0198ed26-a6a7-793d-982a-8940a71ab262","{""num_scrambled_semantic"":""8"",""num_scrambled_causal"":""4"",""num_scrambled_schematic"":""4"",""participantId"":""0D75B21EA67942B988D80423F896CC2A"",""assignmentId"":""0198ed72-b009-7600-8f8b-8a7f914ea62c"",""projectId"":""0198ed26-a6a7-793d-982a-8940a71ab262""}","https://test12345.live/?num_scrambled_semantic=8&num_scrambled_causal=4&num_scrambled_schematic=4&participantId=0D75B21EA67942B988D80423F896CC2A&assignmentId=0198ed72-b009-7600-8f8b-8a7f914ea62c&projectId=0198ed26-a6a7-793d-982a-8940a71ab262","0D75B21EA67942B988D80423F896CC2A-2025-08-27-22-49-43","","null","","[]","null","",""
"","","","","","image-button-response","84","587071","0.0-12.0-1.0-0.9","0D75B21EA67942B988D80423F896CC2A","0D75B21EA67942B988D80423F896CC2A","0198ed72-b009-7600-8f8b-8a7f914ea62c","0198ed26-a6a7-793d-982a-8940a71ab262","{""num_scrambled_semantic"":""8"",""num_scrambled_causal"":""4"",""num_scrambled_schematic"":""4"",""participantId"":""0D75B21EA67942B988D80423F896CC2A"",""assignmentId"":""0198ed72-b009-7600-8f8b-8a7f914ea62c"",""projectId"":""0198ed26-a6a7-793d-982a-8940a71ab262""}","https://test12345.live/?num_scrambled_semantic=8&num_scrambled_causal=4&num_scrambled_schematic=4&participantId=0D75B21EA67942B988D80423F896CC2A&assignmentId=0198ed72-b009-7600-8f8b-8a7f914ea62c&projectId=0198ed26-a6a7-793d-982a-8940a71ab262","0D75B21EA67942B988D80423F896CC2A-2025-08-27-22-49-43","","null","","images/semantic_sequence/housework_semantic/housework_semantic_2.png","null","",""
"","","","","","image-button-response","85","588012","0.0-12.0-1.0-1.9","0D75B21EA67942B988D80423F896CC2A","0D75B21EA67942B988D80423F896CC2A","0198ed72-b009-7600-8f8b-8a7f914ea62c","0198ed26-a6a7-793d-982a-8940a71ab262","{""num_scrambled_semantic"":""8"",""num_scrambled_causal"":""4"",""num_scrambled_schematic"":""4"",""participantId"":""0D75B21EA67942B988D80423F896CC2A"",""assignmentId"":""0198ed72-b009-7600-8f8b-8a7f914ea62c"",""projectId"":""0198ed26-a6a7-793d-982a-8940a71ab262""}","https://test12345.live/?num_scrambled_semantic=8&num_scrambled_causal=4&num_scrambled_schematic=4&participantId=0D75B21EA67942B988D80423F896CC2A&assignmentId=0198ed72-b009-7600-8f8b-8a7f914ea62c&projectId=0198ed26-a6a7-793d-982a-8940a71ab262","0D75B21EA67942B988D80423F896CC2A-2025-08-27-22-49-43","","939","","images/semantic_sequence/housework_semantic/housework_semantic_2.png","0","",""
"","","","","","image-button-response","86","589825","0.0-12.0-1.0-2.9","0D75B21EA67942B988D80423F896CC2A","0D75B21EA67942B988D80423F896CC2A","0198ed72-b009-7600-8f8b-8a7f914ea62c","0198ed26-a6a7-793d-982a-8940a71ab262","{""num_scrambled_semantic"":""8"",""num_scrambled_causal"":""4"",""num_scrambled_schematic"":""4"",""participantId"":""0D75B21EA67942B988D80423F896CC2A"",""assignmentId"":""0198ed72-b009-7600-8f8b-8a7f914ea62c"",""projectId"":""0198ed26-a6a7-793d-982a-8940a71ab262""}","https://test12345.live/?num_scrambled_semantic=8&num_scrambled_causal=4&num_scrambled_schematic=4&participantId=0D75B21EA67942B988D80423F896CC2A&assignmentId=0198ed72-b009-7600-8f8b-8a7f914ea62c&projectId=0198ed26-a6a7-793d-982a-8940a71ab262","0D75B21EA67942B988D80423F896CC2A-2025-08-27-22-49-43","","null","","[]","null","",""
"","","","","","html-audio-response","87","682416","0.0-13.0","0D75B21EA67942B988D80423F896CC2A","0D75B21EA67942B988D80423F896CC2A","0198ed72-b009-7600-8f8b-8a7f914ea62c","0198ed26-a6a7-793d-982a-8940a71ab262","{""num_scrambled_semantic"":""8"",""num_scrambled_causal"":""4"",""num_scrambled_schematic"":""4"",""participantId"":""0D75B21EA67942B988D80423F896CC2A"",""assignmentId"":""0198ed72-b009-7600-8f8b-8a7f914ea62c"",""projectId"":""0198ed26-a6a7-793d-982a-8940a71ab262""}","https://test12345.live/?num_scrambled_semantic=8&num_scrambled_causal=4&num_scrambled_schematic=4&participantId=0D75B21EA67942B988D80423F896CC2A&assignmentId=0198ed72-b009-7600-8f8b-8a7f914ea62c&projectId=0198ed26-a6a7-793d-982a-8940a71ab262","0D75B21EA67942B988D80423F896CC2A-2025-08-27-22-49-43","","19746","","[""<span style=\""color: red; font-size: 24px\""> NOW RECORDING</span><p>Please say out loud all the images you saw, in the order of the story they create. Try to recall the sequence of events as they appeared in the story, not necessarily the order they were presented on the screen.</p>""]","","2","housework_semantic"
"","","","","","image-button-response","88","688423","0.0-14.0-0.0","0D75B21EA67942B988D80423F896CC2A","0D75B21EA67942B988D80423F896CC2A","0198ed72-b009-7600-8f8b-8a7f914ea62c","0198ed26-a6a7-793d-982a-8940a71ab262","{""num_scrambled_semantic"":""8"",""num_scrambled_causal"":""4"",""num_scrambled_schematic"":""4"",""participantId"":""0D75B21EA67942B988D80423F896CC2A"",""assignmentId"":""0198ed72-b009-7600-8f8b-8a7f914ea62c"",""projectId"":""0198ed26-a6a7-793d-982a-8940a71ab262""}","https://test12345.live/?num_scrambled_semantic=8&num_scrambled_causal=4&num_scrambled_schematic=4&participantId=0D75B21EA67942B988D80423F896CC2A&assignmentId=0198ed72-b009-7600-8f8b-8a7f914ea62c&projectId=0198ed26-a6a7-793d-982a-8940a71ab262","0D75B21EA67942B988D80423F896CC2A-2025-08-27-22-49-43","","null","","images/causal_sequence/saving_a_cat_causal/saving_a_cat_causal_0.png","null","",""
"","","","","","image-button-response","89","692928","0.0-14.0-1.0-0.0","0D75B21EA67942B988D80423F896CC2A","0D75B21EA67942B988D80423F896CC2A","0198ed72-b009-7600-8f8b-8a7f914ea62c","0198ed26-a6a7-793d-982a-8940a71ab262","{""num_scrambled_semantic"":""8"",""num_scrambled_causal"":""4"",""num_scrambled_schematic"":""4"",""participantId"":""0D75B21EA67942B988D80423F896CC2A"",""assignmentId"":""0198ed72-b009-7600-8f8b-8a7f914ea62c"",""projectId"":""0198ed26-a6a7-793d-982a-8940a71ab262""}","https://test12345.live/?num_scrambled_semantic=8&num_scrambled_causal=4&num_scrambled_schematic=4&participantId=0D75B21EA67942B988D80423F896CC2A&assignmentId=0198ed72-b009-7600-8f8b-8a7f914ea62c&projectId=0198ed26-a6a7-793d-982a-8940a71ab262","0D75B21EA67942B988D80423F896CC2A-2025-08-27-22-49-43","","null","","images/causal_sequence/saving_a_cat_causal/saving_a_cat_causal_2.png","null","",""
"","","","","","image-button-response","90","695441","0.0-14.0-1.0-1.0","0D75B21EA67942B988D80423F896CC2A","0D75B21EA67942B988D80423F896CC2A","0198ed72-b009-7600-8f8b-8a7f914ea62c","0198ed26-a6a7-793d-982a-8940a71ab262","{""num_scrambled_semantic"":""8"",""num_scrambled_causal"":""4"",""num_scrambled_schematic"":""4"",""participantId"":""0D75B21EA67942B988D80423F896CC2A"",""assignmentId"":""0198ed72-b009-7600-8f8b-8a7f914ea62c"",""projectId"":""0198ed26-a6a7-793d-982a-8940a71ab262""}","https://test12345.live/?num_scrambled_semantic=8&num_scrambled_causal=4&num_scrambled_schematic=4&participantId=0D75B21EA67942B988D80423F896CC2A&assignmentId=0198ed72-b009-7600-8f8b-8a7f914ea62c&projectId=0198ed26-a6a7-793d-982a-8940a71ab262","0D75B21EA67942B988D80423F896CC2A-2025-08-27-22-49-43","","2512","","images/causal_sequence/saving_a_cat_causal/saving_a_cat_causal_2.png","1","",""
"","","","","","image-button-response","91","697252","0.0-14.0-1.0-2.0","0D75B21EA67942B988D80423F896CC2A","0D75B21EA67942B988D80423F896CC2A","0198ed72-b009-7600-8f8b-8a7f914ea62c","0198ed26-a6a7-793d-982a-8940a71ab262","{""num_scrambled_semantic"":""8"",""num_scrambled_causal"":""4"",""num_scrambled_schematic"":""4"",""participantId"":""0D75B21EA67942B988D80423F896CC2A"",""assignmentId"":""0198ed72-b009-7600-8f8b-8a7f914ea62c"",""projectId"":""0198ed26-a6a7-793d-982a-8940a71ab262""}","https://test12345.live/?num_scrambled_semantic=8&num_scrambled_causal=4&num_scrambled_schematic=4&participantId=0D75B21EA67942B988D80423F896CC2A&assignmentId=0198ed72-b009-7600-8f8b-8a7f914ea62c&projectId=0198ed26-a6a7-793d-982a-8940a71ab262","0D75B21EA67942B988D80423F896CC2A-2025-08-27-22-49-43","","null","","[]","null","",""
"","","","","","image-button-response","92","701755","0.0-14.0-1.0-0.1","0D75B21EA67942B988D80423F896CC2A","0D75B21EA67942B988D80423F896CC2A","0198ed72-b009-7600-8f8b-8a7f914ea62c","0198ed26-a6a7-793d-982a-8940a71ab262","{""num_scrambled_semantic"":""8"",""num_scrambled_causal"":""4"",""num_scrambled_schematic"":""4"",""participantId"":""0D75B21EA67942B988D80423F896CC2A"",""assignmentId"":""0198ed72-b009-7600-8f8b-8a7f914ea62c"",""projectId"":""0198ed26-a6a7-793d-982a-8940a71ab262""}","https://test12345.live/?num_scrambled_semantic=8&num_scrambled_causal=4&num_scrambled_schematic=4&participantId=0D75B21EA67942B988D80423F896CC2A&assignmentId=0198ed72-b009-7600-8f8b-8a7f914ea62c&projectId=0198ed26-a6a7-793d-982a-8940a71ab262","0D75B21EA67942B988D80423F896CC2A-2025-08-27-22-49-43","","null","","images/causal_sequence/saving_a_cat_causal/saving_a_cat_causal_3.png","null","",""
"","","","","","image-button-response","93","702915","0.0-14.0-1.0-1.1","0D75B21EA67942B988D80423F896CC2A","0D75B21EA67942B988D80423F896CC2A","0198ed72-b009-7600-8f8b-8a7f914ea62c","0198ed26-a6a7-793d-982a-8940a71ab262","{""num_scrambled_semantic"":""8"",""num_scrambled_causal"":""4"",""num_scrambled_schematic"":""4"",""participantId"":""0D75B21EA67942B988D80423F896CC2A"",""assignmentId"":""0198ed72-b009-7600-8f8b-8a7f914ea62c"",""projectId"":""0198ed26-a6a7-793d-982a-8940a71ab262""}","https://test12345.live/?num_scrambled_semantic=8&num_scrambled_causal=4&num_scrambled_schematic=4&participantId=0D75B21EA67942B988D80423F896CC2A&assignmentId=0198ed72-b009-7600-8f8b-8a7f914ea62c&projectId=0198ed26-a6a7-793d-982a-8940a71ab262","0D75B21EA67942B988D80423F896CC2A-2025-08-27-22-49-43","","1159","","images/causal_sequence/saving_a_cat_causal/saving_a_cat_causal_3.png","1","",""
"","","","","","image-button-response","94","704730","0.0-14.0-1.0-2.1","0D75B21EA67942B988D80423F896CC2A","0D75B21EA67942B988D80423F896CC2A","0198ed72-b009-7600-8f8b-8a7f914ea62c","0198ed26-a6a7-793d-982a-8940a71ab262","{""num_scrambled_semantic"":""8"",""num_scrambled_causal"":""4"",""num_scrambled_schematic"":""4"",""participantId"":""0D75B21EA67942B988D80423F896CC2A"",""assignmentId"":""0198ed72-b009-7600-8f8b-8a7f914ea62c"",""projectId"":""0198ed26-a6a7-793d-982a-8940a71ab262""}","https://test12345.live/?num_scrambled_semantic=8&num_scrambled_causal=4&num_scrambled_schematic=4&participantId=0D75B21EA67942B988D80423F896CC2A&assignmentId=0198ed72-b009-7600-8f8b-8a7f914ea62c&projectId=0198ed26-a6a7-793d-982a-8940a71ab262","0D75B21EA67942B988D80423F896CC2A-2025-08-27-22-49-43","","null","","[]","null","",""
"","","","","","image-button-response","95","709240","0.0-14.0-1.0-0.2","0D75B21EA67942B988D80423F896CC2A","0D75B21EA67942B988D80423F896CC2A","0198ed72-b009-7600-8f8b-8a7f914ea62c","0198ed26-a6a7-793d-982a-8940a71ab262","{""num_scrambled_semantic"":""8"",""num_scrambled_causal"":""4"",""num_scrambled_schematic"":""4"",""participantId"":""0D75B21EA67942B988D80423F896CC2A"",""assignmentId"":""0198ed72-b009-7600-8f8b-8a7f914ea62c"",""projectId"":""0198ed26-a6a7-793d-982a-8940a71ab262""}","https://test12345.live/?num_scrambled_semantic=8&num_scrambled_causal=4&num_scrambled_schematic=4&participantId=0D75B21EA67942B988D80423F896CC2A&assignmentId=0198ed72-b009-7600-8f8b-8a7f914ea62c&projectId=0198ed26-a6a7-793d-982a-8940a71ab262","0D75B21EA67942B988D80423F896CC2A-2025-08-27-22-49-43","","null","","images/causal_sequence/saving_a_cat_causal/saving_a_cat_causal_4.png","null","",""
"","","","","","image-button-response","96","710617","0.0-14.0-1.0-1.2","0D75B21EA67942B988D80423F896CC2A","0D75B21EA67942B988D80423F896CC2A","0198ed72-b009-7600-8f8b-8a7f914ea62c","0198ed26-a6a7-793d-982a-8940a71ab262","{""num_scrambled_semantic"":""8"",""num_scrambled_causal"":""4"",""num_scrambled_schematic"":""4"",""participantId"":""0D75B21EA67942B988D80423F896CC2A"",""assignmentId"":""0198ed72-b009-7600-8f8b-8a7f914ea62c"",""projectId"":""0198ed26-a6a7-793d-982a-8940a71ab262""}","https://test12345.live/?num_scrambled_semantic=8&num_scrambled_causal=4&num_scrambled_schematic=4&participantId=0D75B21EA67942B988D80423F896CC2A&assignmentId=0198ed72-b009-7600-8f8b-8a7f914ea62c&projectId=0198ed26-a6a7-793d-982a-8940a71ab262","0D75B21EA67942B988D80423F896CC2A-2025-08-27-22-49-43","","1375","","images/causal_sequence/saving_a_cat_causal/saving_a_cat_causal_4.png","0","",""
"","","","","","image-button-response","97","712434","0.0-14.0-1.0-2.2","0D75B21EA67942B988D80423F896CC2A","0D75B21EA67942B988D80423F896CC2A","0198ed72-b009-7600-8f8b-8a7f914ea62c","0198ed26-a6a7-793d-982a-8940a71ab262","{""num_scrambled_semantic"":""8"",""num_scrambled_causal"":""4"",""num_scrambled_schematic"":""4"",""participantId"":""0D75B21EA67942B988D80423F896CC2A"",""assignmentId"":""0198ed72-b009-7600-8f8b-8a7f914ea62c"",""projectId"":""0198ed26-a6a7-793d-982a-8940a71ab262""}","https://test12345.live/?num_scrambled_semantic=8&num_scrambled_causal=4&num_scrambled_schematic=4&participantId=0D75B21EA67942B988D80423F896CC2A&assignmentId=0198ed72-b009-7600-8f8b-8a7f914ea62c&projectId=0198ed26-a6a7-793d-982a-8940a71ab262","0D75B21EA67942B988D80423F896CC2A-2025-08-27-22-49-43","","null","","[]","null","",""
"","","","","","image-button-response","98","716939","0.0-14.0-1.0-0.3","0D75B21EA67942B988D80423F896CC2A","0D75B21EA67942B988D80423F896CC2A","0198ed72-b009-7600-8f8b-8a7f914ea62c","0198ed26-a6a7-793d-982a-8940a71ab262","{""num_scrambled_semantic"":""8"",""num_scrambled_causal"":""4"",""num_scrambled_schematic"":""4"",""participantId"":""0D75B21EA67942B988D80423F896CC2A"",""assignmentId"":""0198ed72-b009-7600-8f8b-8a7f914ea62c"",""projectId"":""0198ed26-a6a7-793d-982a-8940a71ab262""}","https://test12345.live/?num_scrambled_semantic=8&num_scrambled_causal=4&num_scrambled_schematic=4&participantId=0D75B21EA67942B988D80423F896CC2A&assignmentId=0198ed72-b009-7600-8f8b-8a7f914ea62c&projectId=0198ed26-a6a7-793d-982a-8940a71ab262","0D75B21EA67942B988D80423F896CC2A-2025-08-27-22-49-43","","null","","images/causal_sequence/saving_a_cat_causal/saving_a_cat_causal_6.png","null","",""
"","","","","","image-button-response","99","718223","0.0-14.0-1.0-1.3","0D75B21EA67942B988D80423F896CC2A","0D75B21EA67942B988D80423F896CC2A","0198ed72-b009-7600-8f8b-8a7f914ea62c","0198ed26-a6a7-793d-982a-8940a71ab262","{""num_scrambled_semantic"":""8"",""num_scrambled_causal"":""4"",""num_scrambled_schematic"":""4"",""participantId"":""0D75B21EA67942B988D80423F896CC2A"",""assignmentId"":""0198ed72-b009-7600-8f8b-8a7f914ea62c"",""projectId"":""0198ed26-a6a7-793d-982a-8940a71ab262""}","https://test12345.live/?num_scrambled_semantic=8&num_scrambled_causal=4&num_scrambled_schematic=4&participantId=0D75B21EA67942B988D80423F896CC2A&assignmentId=0198ed72-b009-7600-8f8b-8a7f914ea62c&projectId=0198ed26-a6a7-793d-982a-8940a71ab262","0D75B21EA67942B988D80423F896CC2A-2025-08-27-22-49-43","","1282","","images/causal_sequence/saving_a_cat_causal/saving_a_cat_causal_6.png","0","",""
"","","","","","image-button-response","100","720035","0.0-14.0-1.0-2.3","0D75B21EA67942B988D80423F896CC2A","0D75B21EA67942B988D80423F896CC2A","0198ed72-b009-7600-8f8b-8a7f914ea62c","0198ed26-a6a7-793d-982a-8940a71ab262","{""num_scrambled_semantic"":""8"",""num_scrambled_causal"":""4"",""num_scrambled_schematic"":""4"",""participantId"":""0D75B21EA67942B988D80423F896CC2A"",""assignmentId"":""0198ed72-b009-7600-8f8b-8a7f914ea62c"",""projectId"":""0198ed26-a6a7-793d-982a-8940a71ab262""}","https://test12345.live/?num_scrambled_semantic=8&num_scrambled_causal=4&num_scrambled_schematic=4&participantId=0D75B21EA67942B988D80423F896CC2A&assignmentId=0198ed72-b009-7600-8f8b-8a7f914ea62c&projectId=0198ed26-a6a7-793d-982a-8940a71ab262","0D75B21EA67942B988D80423F896CC2A-2025-08-27-22-49-43","","null","","[]","null","",""
"","","","","","image-button-response","101","724547","0.0-14.0-1.0-0.4","0D75B21EA67942B988D80423F896CC2A","0D75B21EA67942B988D80423F896CC2A","0198ed72-b009-7600-8f8b-8a7f914ea62c","0198ed26-a6a7-793d-982a-8940a71ab262","{""num_scrambled_semantic"":""8"",""num_scrambled_causal"":""4"",""num_scrambled_schematic"":""4"",""participantId"":""0D75B21EA67942B988D80423F896CC2A"",""assignmentId"":""0198ed72-b009-7600-8f8b-8a7f914ea62c"",""projectId"":""0198ed26-a6a7-793d-982a-8940a71ab262""}","https://test12345.live/?num_scrambled_semantic=8&num_scrambled_causal=4&num_scrambled_schematic=4&participantId=0D75B21EA67942B988D80423F896CC2A&assignmentId=0198ed72-b009-7600-8f8b-8a7f914ea62c&projectId=0198ed26-a6a7-793d-982a-8940a71ab262","0D75B21EA67942B988D80423F896CC2A-2025-08-27-22-49-43","","null","","images/causal_sequence/saving_a_cat_causal/saving_a_cat_causal_8.png","null","",""
"","","","","","image-button-response","102","725266","0.0-14.0-1.0-1.4","0D75B21EA67942B988D80423F896CC2A","0D75B21EA67942B988D80423F896CC2A","0198ed72-b009-7600-8f8b-8a7f914ea62c","0198ed26-a6a7-793d-982a-8940a71ab262","{""num_scrambled_semantic"":""8"",""num_scrambled_causal"":""4"",""num_scrambled_schematic"":""4"",""participantId"":""0D75B21EA67942B988D80423F896CC2A"",""assignmentId"":""0198ed72-b009-7600-8f8b-8a7f914ea62c"",""projectId"":""0198ed26-a6a7-793d-982a-8940a71ab262""}","https://test12345.live/?num_scrambled_semantic=8&num_scrambled_causal=4&num_scrambled_schematic=4&participantId=0D75B21EA67942B988D80423F896CC2A&assignmentId=0198ed72-b009-7600-8f8b-8a7f914ea62c&projectId=0198ed26-a6a7-793d-982a-8940a71ab262","0D75B21EA67942B988D80423F896CC2A-2025-08-27-22-49-43","","718","","images/causal_sequence/saving_a_cat_causal/saving_a_cat_causal_8.png","0","",""
"","","","","","image-button-response","103","727069","0.0-14.0-1.0-2.4","0D75B21EA67942B988D80423F896CC2A","0D75B21EA67942B988D80423F896CC2A","0198ed72-b009-7600-8f8b-8a7f914ea62c","0198ed26-a6a7-793d-982a-8940a71ab262","{""num_scrambled_semantic"":""8"",""num_scrambled_causal"":""4"",""num_scrambled_schematic"":""4"",""participantId"":""0D75B21EA67942B988D80423F896CC2A"",""assignmentId"":""0198ed72-b009-7600-8f8b-8a7f914ea62c"",""projectId"":""0198ed26-a6a7-793d-982a-8940a71ab262""}","https://test12345.live/?num_scrambled_semantic=8&num_scrambled_causal=4&num_scrambled_schematic=4&participantId=0D75B21EA67942B988D80423F896CC2A&assignmentId=0198ed72-b009-7600-8f8b-8a7f914ea62c&projectId=0198ed26-a6a7-793d-982a-8940a71ab262","0D75B21EA67942B988D80423F896CC2A-2025-08-27-22-49-43","","null","","[]","null","",""
"","","","","","image-button-response","104","731574","0.0-14.0-1.0-0.5","0D75B21EA67942B988D80423F896CC2A","0D75B21EA67942B988D80423F896CC2A","0198ed72-b009-7600-8f8b-8a7f914ea62c","0198ed26-a6a7-793d-982a-8940a71ab262","{""num_scrambled_semantic"":""8"",""num_scrambled_causal"":""4"",""num_scrambled_schematic"":""4"",""participantId"":""0D75B21EA67942B988D80423F896CC2A"",""assignmentId"":""0198ed72-b009-7600-8f8b-8a7f914ea62c"",""projectId"":""0198ed26-a6a7-793d-982a-8940a71ab262""}","https://test12345.live/?num_scrambled_semantic=8&num_scrambled_causal=4&num_scrambled_schematic=4&participantId=0D75B21EA67942B988D80423F896CC2A&assignmentId=0198ed72-b009-7600-8f8b-8a7f914ea62c&projectId=0198ed26-a6a7-793d-982a-8940a71ab262","0D75B21EA67942B988D80423F896CC2A-2025-08-27-22-49-43","","null","","images/causal_sequence/saving_a_cat_causal/saving_a_cat_causal_ten.png","null","",""
"","","","","","image-button-response","105","733169","0.0-14.0-1.0-1.5","0D75B21EA67942B988D80423F896CC2A","0D75B21EA67942B988D80423F896CC2A","0198ed72-b009-7600-8f8b-8a7f914ea62c","0198ed26-a6a7-793d-982a-8940a71ab262","{""num_scrambled_semantic"":""8"",""num_scrambled_causal"":""4"",""num_scrambled_schematic"":""4"",""participantId"":""0D75B21EA67942B988D80423F896CC2A"",""assignmentId"":""0198ed72-b009-7600-8f8b-8a7f914ea62c"",""projectId"":""0198ed26-a6a7-793d-982a-8940a71ab262""}","https://test12345.live/?num_scrambled_semantic=8&num_scrambled_causal=4&num_scrambled_schematic=4&participantId=0D75B21EA67942B988D80423F896CC2A&assignmentId=0198ed72-b009-7600-8f8b-8a7f914ea62c&projectId=0198ed26-a6a7-793d-982a-8940a71ab262","0D75B21EA67942B988D80423F896CC2A-2025-08-27-22-49-43","","1593","","images/causal_sequence/saving_a_cat_causal/saving_a_cat_causal_ten.png","0","",""
"","","","","","image-button-response","106","734986","0.0-14.0-1.0-2.5","0D75B21EA67942B988D80423F896CC2A","0D75B21EA67942B988D80423F896CC2A","0198ed72-b009-7600-8f8b-8a7f914ea62c","0198ed26-a6a7-793d-982a-8940a71ab262","{""num_scrambled_semantic"":""8"",""num_scrambled_causal"":""4"",""num_scrambled_schematic"":""4"",""participantId"":""0D75B21EA67942B988D80423F896CC2A"",""assignmentId"":""0198ed72-b009-7600-8f8b-8a7f914ea62c"",""projectId"":""0198ed26-a6a7-793d-982a-8940a71ab262""}","https://test12345.live/?num_scrambled_semantic=8&num_scrambled_causal=4&num_scrambled_schematic=4&participantId=0D75B21EA67942B988D80423F896CC2A&assignmentId=0198ed72-b009-7600-8f8b-8a7f914ea62c&projectId=0198ed26-a6a7-793d-982a-8940a71ab262","0D75B21EA67942B988D80423F896CC2A-2025-08-27-22-49-43","","null","","[]","null","",""
"","","","","","image-button-response","107","739492","0.0-14.0-1.0-0.6","0D75B21EA67942B988D80423F896CC2A","0D75B21EA67942B988D80423F896CC2A","0198ed72-b009-7600-8f8b-8a7f914ea62c","0198ed26-a6a7-793d-982a-8940a71ab262","{""num_scrambled_semantic"":""8"",""num_scrambled_causal"":""4"",""num_scrambled_schematic"":""4"",""participantId"":""0D75B21EA67942B988D80423F896CC2A"",""assignmentId"":""0198ed72-b009-7600-8f8b-8a7f914ea62c"",""projectId"":""0198ed26-a6a7-793d-982a-8940a71ab262""}","https://test12345.live/?num_scrambled_semantic=8&num_scrambled_causal=4&num_scrambled_schematic=4&participantId=0D75B21EA67942B988D80423F896CC2A&assignmentId=0198ed72-b009-7600-8f8b-8a7f914ea62c&projectId=0198ed26-a6a7-793d-982a-8940a71ab262","0D75B21EA67942B988D80423F896CC2A-2025-08-27-22-49-43","","null","","images/causal_sequence/saving_a_cat_causal/saving_a_cat_causal_1.png","null","",""
"","","","","","image-button-response","108","740132","0.0-14.0-1.0-1.6","0D75B21EA67942B988D80423F896CC2A","0D75B21EA67942B988D80423F896CC2A","0198ed72-b009-7600-8f8b-8a7f914ea62c","0198ed26-a6a7-793d-982a-8940a71ab262","{""num_scrambled_semantic"":""8"",""num_scrambled_causal"":""4"",""num_scrambled_schematic"":""4"",""participantId"":""0D75B21EA67942B988D80423F896CC2A"",""assignmentId"":""0198ed72-b009-7600-8f8b-8a7f914ea62c"",""projectId"":""0198ed26-a6a7-793d-982a-8940a71ab262""}","https://test12345.live/?num_scrambled_semantic=8&num_scrambled_causal=4&num_scrambled_schematic=4&participantId=0D75B21EA67942B988D80423F896CC2A&assignmentId=0198ed72-b009-7600-8f8b-8a7f914ea62c&projectId=0198ed26-a6a7-793d-982a-8940a71ab262","0D75B21EA67942B988D80423F896CC2A-2025-08-27-22-49-43","","639","","images/causal_sequence/saving_a_cat_causal/saving_a_cat_causal_1.png","0","",""
"","","","","","image-button-response","109","741939","0.0-14.0-1.0-2.6","0D75B21EA67942B988D80423F896CC2A","0D75B21EA67942B988D80423F896CC2A","0198ed72-b009-7600-8f8b-8a7f914ea62c","0198ed26-a6a7-793d-982a-8940a71ab262","{""num_scrambled_semantic"":""8"",""num_scrambled_causal"":""4"",""num_scrambled_schematic"":""4"",""participantId"":""0D75B21EA67942B988D80423F896CC2A"",""assignmentId"":""0198ed72-b009-7600-8f8b-8a7f914ea62c"",""projectId"":""0198ed26-a6a7-793d-982a-8940a71ab262""}","https://test12345.live/?num_scrambled_semantic=8&num_scrambled_causal=4&num_scrambled_schematic=4&participantId=0D75B21EA67942B988D80423F896CC2A&assignmentId=0198ed72-b009-7600-8f8b-8a7f914ea62c&projectId=0198ed26-a6a7-793d-982a-8940a71ab262","0D75B21EA67942B988D80423F896CC2A-2025-08-27-22-49-43","","null","","[]","null","",""
"","","","","","image-button-response","110","746443","0.0-14.0-1.0-0.7","0D75B21EA67942B988D80423F896CC2A","0D75B21EA67942B988D80423F896CC2A","0198ed72-b009-7600-8f8b-8a7f914ea62c","0198ed26-a6a7-793d-982a-8940a71ab262","{""num_scrambled_semantic"":""8"",""num_scrambled_causal"":""4"",""num_scrambled_schematic"":""4"",""participantId"":""0D75B21EA67942B988D80423F896CC2A"",""assignmentId"":""0198ed72-b009-7600-8f8b-8a7f914ea62c"",""projectId"":""0198ed26-a6a7-793d-982a-8940a71ab262""}","https://test12345.live/?num_scrambled_semantic=8&num_scrambled_causal=4&num_scrambled_schematic=4&participantId=0D75B21EA67942B988D80423F896CC2A&assignmentId=0198ed72-b009-7600-8f8b-8a7f914ea62c&projectId=0198ed26-a6a7-793d-982a-8940a71ab262","0D75B21EA67942B988D80423F896CC2A-2025-08-27-22-49-43","","null","","images/causal_sequence/saving_a_cat_causal/saving_a_cat_causal_9.png","null","",""
"","","","","","image-button-response","111","747450","0.0-14.0-1.0-1.7","0D75B21EA67942B988D80423F896CC2A","0D75B21EA67942B988D80423F896CC2A","0198ed72-b009-7600-8f8b-8a7f914ea62c","0198ed26-a6a7-793d-982a-8940a71ab262","{""num_scrambled_semantic"":""8"",""num_scrambled_causal"":""4"",""num_scrambled_schematic"":""4"",""participantId"":""0D75B21EA67942B988D80423F896CC2A"",""assignmentId"":""0198ed72-b009-7600-8f8b-8a7f914ea62c"",""projectId"":""0198ed26-a6a7-793d-982a-8940a71ab262""}","https://test12345.live/?num_scrambled_semantic=8&num_scrambled_causal=4&num_scrambled_schematic=4&participantId=0D75B21EA67942B988D80423F896CC2A&assignmentId=0198ed72-b009-7600-8f8b-8a7f914ea62c&projectId=0198ed26-a6a7-793d-982a-8940a71ab262","0D75B21EA67942B988D80423F896CC2A-2025-08-27-22-49-43","","1005","","images/causal_sequence/saving_a_cat_causal/saving_a_cat_causal_9.png","0","",""
"","","","","","image-button-response","112","749260","0.0-14.0-1.0-2.7","0D75B21EA67942B988D80423F896CC2A","0D75B21EA67942B988D80423F896CC2A","0198ed72-b009-7600-8f8b-8a7f914ea62c","0198ed26-a6a7-793d-982a-8940a71ab262","{""num_scrambled_semantic"":""8"",""num_scrambled_causal"":""4"",""num_scrambled_schematic"":""4"",""participantId"":""0D75B21EA67942B988D80423F896CC2A"",""assignmentId"":""0198ed72-b009-7600-8f8b-8a7f914ea62c"",""projectId"":""0198ed26-a6a7-793d-982a-8940a71ab262""}","https://test12345.live/?num_scrambled_semantic=8&num_scrambled_causal=4&num_scrambled_schematic=4&participantId=0D75B21EA67942B988D80423F896CC2A&assignmentId=0198ed72-b009-7600-8f8b-8a7f914ea62c&projectId=0198ed26-a6a7-793d-982a-8940a71ab262","0D75B21EA67942B988D80423F896CC2A-2025-08-27-22-49-43","","null","","[]","null","",""
"","","","","","image-button-response","113","753771","0.0-14.0-1.0-0.8","0D75B21EA67942B988D80423F896CC2A","0D75B21EA67942B988D80423F896CC2A","0198ed72-b009-7600-8f8b-8a7f914ea62c","0198ed26-a6a7-793d-982a-8940a71ab262","{""num_scrambled_semantic"":""8"",""num_scrambled_causal"":""4"",""num_scrambled_schematic"":""4"",""participantId"":""0D75B21EA67942B988D80423F896CC2A"",""assignmentId"":""0198ed72-b009-7600-8f8b-8a7f914ea62c"",""projectId"":""0198ed26-a6a7-793d-982a-8940a71ab262""}","https://test12345.live/?num_scrambled_semantic=8&num_scrambled_causal=4&num_scrambled_schematic=4&participantId=0D75B21EA67942B988D80423F896CC2A&assignmentId=0198ed72-b009-7600-8f8b-8a7f914ea62c&projectId=0198ed26-a6a7-793d-982a-8940a71ab262","0D75B21EA67942B988D80423F896CC2A-2025-08-27-22-49-43","","null","","images/causal_sequence/saving_a_cat_causal/saving_a_cat_causal_7.png","null","",""
