"success","timeout","failed_images","failed_audio","failed_video","trial_type","trial_index","time_elapsed","internal_node_id","subject","subject_id","study_id","session_id","urlvar","current_url","audio_id","view_history","rt","device_id","stimulus","response","estimated_stimulus_onset","seq_name"
"true","false","[]","[]","[]","preload","0","5941","0.0-0.0","0E7FE8DDAD4645F8AACC65158ED9326B","0E7FE8DDAD4645F8AACC65158ED9326B","c6ae9813-7a4a-4592-81ac-f95a2491a847","a9f3d40c-5730-405c-b25e-1034c4c56f3f","{""num_scrambled_semantic"":""8"",""num_scrambled_causal"":""4"",""num_scrambled_schematic"":""4"",""participantId"":""0E7FE8DDAD4645F8AACC65158ED9326B"",""assignmentId"":""c6ae9813-7a4a-4592-81ac-f95a2491a847"",""projectId"":""a9f3d40c-5730-405c-b25e-1034c4c56f3f""}","https://test12345.live/?num_scrambled_semantic=8&num_scrambled_causal=4&num_scrambled_schematic=4&participantId=0E7FE8DDAD4645F8AACC65158ED9326B&assignmentId=c6ae9813-7a4a-4592-81ac-f95a2491a847&projectId=a9f3d40c-5730-405c-b25e-1034c4c56f3f","0E7FE8DDAD4645F8AACC65158ED9326B-2025-08-07-19-07-18","","","","","","",""
"","","","","","instructions","1","16565","0.0-1.0","0E7FE8DDAD4645F8AACC65158ED9326B","0E7FE8DDAD4645F8AACC65158ED9326B","c6ae9813-7a4a-4592-81ac-f95a2491a847","a9f3d40c-5730-405c-b25e-1034c4c56f3f","{""num_scrambled_semantic"":""8"",""num_scrambled_causal"":""4"",""num_scrambled_schematic"":""4"",""participantId"":""0E7FE8DDAD4645F8AACC65158ED9326B"",""assignmentId"":""c6ae9813-7a4a-4592-81ac-f95a2491a847"",""projectId"":""a9f3d40c-5730-405c-b25e-1034c4c56f3f""}","https://test12345.live/?num_scrambled_semantic=8&num_scrambled_causal=4&num_scrambled_schematic=4&participantId=0E7FE8DDAD4645F8AACC65158ED9326B&assignmentId=c6ae9813-7a4a-4592-81ac-f95a2491a847&projectId=a9f3d40c-5730-405c-b25e-1034c4c56f3f","0E7FE8DDAD4645F8AACC65158ED9326B-2025-08-07-19-07-18","[{""page_index"":0,""viewing_time"":10624}]","10624","","","","",""
"","","","","","instructions","2","19857","0.0-2.0","0E7FE8DDAD4645F8AACC65158ED9326B","0E7FE8DDAD4645F8AACC65158ED9326B","c6ae9813-7a4a-4592-81ac-f95a2491a847","a9f3d40c-5730-405c-b25e-1034c4c56f3f","{""num_scrambled_semantic"":""8"",""num_scrambled_causal"":""4"",""num_scrambled_schematic"":""4"",""participantId"":""0E7FE8DDAD4645F8AACC65158ED9326B"",""assignmentId"":""c6ae9813-7a4a-4592-81ac-f95a2491a847"",""projectId"":""a9f3d40c-5730-405c-b25e-1034c4c56f3f""}","https://test12345.live/?num_scrambled_semantic=8&num_scrambled_causal=4&num_scrambled_schematic=4&participantId=0E7FE8DDAD4645F8AACC65158ED9326B&assignmentId=c6ae9813-7a4a-4592-81ac-f95a2491a847&projectId=a9f3d40c-5730-405c-b25e-1034c4c56f3f","0E7FE8DDAD4645F8AACC65158ED9326B-2025-08-07-19-07-18","[{""page_index"":0,""viewing_time"":3290}]","3290","","","","",""
"true","","","","","fullscreen","3","21960","0.0-3.0","0E7FE8DDAD4645F8AACC65158ED9326B","0E7FE8DDAD4645F8AACC65158ED9326B","c6ae9813-7a4a-4592-81ac-f95a2491a847","a9f3d40c-5730-405c-b25e-1034c4c56f3f","{""num_scrambled_semantic"":""8"",""num_scrambled_causal"":""4"",""num_scrambled_schematic"":""4"",""participantId"":""0E7FE8DDAD4645F8AACC65158ED9326B"",""assignmentId"":""c6ae9813-7a4a-4592-81ac-f95a2491a847"",""projectId"":""a9f3d40c-5730-405c-b25e-1034c4c56f3f""}","https://test12345.live/?num_scrambled_semantic=8&num_scrambled_causal=4&num_scrambled_schematic=4&participantId=0E7FE8DDAD4645F8AACC65158ED9326B&assignmentId=c6ae9813-7a4a-4592-81ac-f95a2491a847&projectId=a9f3d40c-5730-405c-b25e-1034c4c56f3f","0E7FE8DDAD4645F8AACC65158ED9326B-2025-08-07-19-07-18","","1101","","","","",""
"","","","","","initialize-microphone","4","27887","0.0-4.0-0.0","0E7FE8DDAD4645F8AACC65158ED9326B","0E7FE8DDAD4645F8AACC65158ED9326B","c6ae9813-7a4a-4592-81ac-f95a2491a847","a9f3d40c-5730-405c-b25e-1034c4c56f3f","{""num_scrambled_semantic"":""8"",""num_scrambled_causal"":""4"",""num_scrambled_schematic"":""4"",""participantId"":""0E7FE8DDAD4645F8AACC65158ED9326B"",""assignmentId"":""c6ae9813-7a4a-4592-81ac-f95a2491a847"",""projectId"":""a9f3d40c-5730-405c-b25e-1034c4c56f3f""}","https://test12345.live/?num_scrambled_semantic=8&num_scrambled_causal=4&num_scrambled_schematic=4&participantId=0E7FE8DDAD4645F8AACC65158ED9326B&assignmentId=c6ae9813-7a4a-4592-81ac-f95a2491a847&projectId=a9f3d40c-5730-405c-b25e-1034c4c56f3f","0E7FE8DDAD4645F8AACC65158ED9326B-2025-08-07-19-07-18","","","c1c50d41b55329731c23a3a59e94ebd7a926764a32b753a4213393117c3a91ce","","","",""
"","","","","","html-audio-response","5","39276","0.0-4.0-1.0","0E7FE8DDAD4645F8AACC65158ED9326B","0E7FE8DDAD4645F8AACC65158ED9326B","c6ae9813-7a4a-4592-81ac-f95a2491a847","a9f3d40c-5730-405c-b25e-1034c4c56f3f","{""num_scrambled_semantic"":""8"",""num_scrambled_causal"":""4"",""num_scrambled_schematic"":""4"",""participantId"":""0E7FE8DDAD4645F8AACC65158ED9326B"",""assignmentId"":""c6ae9813-7a4a-4592-81ac-f95a2491a847"",""projectId"":""a9f3d40c-5730-405c-b25e-1034c4c56f3f""}","https://test12345.live/?num_scrambled_semantic=8&num_scrambled_causal=4&num_scrambled_schematic=4&participantId=0E7FE8DDAD4645F8AACC65158ED9326B&assignmentId=c6ae9813-7a4a-4592-81ac-f95a2491a847&projectId=a9f3d40c-5730-405c-b25e-1034c4c56f3f","0E7FE8DDAD4645F8AACC65158ED9326B-2025-08-07-19-07-18","","1563","","<span style=""color: red; font-size: 24px""> NOW RECORDING</span>
        <p>Please test Microphone</p>","","3",""
"","","","","","html-button-response","6","40229","0.0-4.0-2.0","0E7FE8DDAD4645F8AACC65158ED9326B","0E7FE8DDAD4645F8AACC65158ED9326B","c6ae9813-7a4a-4592-81ac-f95a2491a847","a9f3d40c-5730-405c-b25e-1034c4c56f3f","{""num_scrambled_semantic"":""8"",""num_scrambled_causal"":""4"",""num_scrambled_schematic"":""4"",""participantId"":""0E7FE8DDAD4645F8AACC65158ED9326B"",""assignmentId"":""c6ae9813-7a4a-4592-81ac-f95a2491a847"",""projectId"":""a9f3d40c-5730-405c-b25e-1034c4c56f3f""}","https://test12345.live/?num_scrambled_semantic=8&num_scrambled_causal=4&num_scrambled_schematic=4&participantId=0E7FE8DDAD4645F8AACC65158ED9326B&assignmentId=c6ae9813-7a4a-4592-81ac-f95a2491a847&projectId=a9f3d40c-5730-405c-b25e-1034c4c56f3f","0E7FE8DDAD4645F8AACC65158ED9326B-2025-08-07-19-07-18","","951","","<p style=""font-size:48px; color:red;"">Is Microphone OK?</p>","1","",""
"","","","","","instructions","7","43002","0.0-5.0","0E7FE8DDAD4645F8AACC65158ED9326B","0E7FE8DDAD4645F8AACC65158ED9326B","c6ae9813-7a4a-4592-81ac-f95a2491a847","a9f3d40c-5730-405c-b25e-1034c4c56f3f","{""num_scrambled_semantic"":""8"",""num_scrambled_causal"":""4"",""num_scrambled_schematic"":""4"",""participantId"":""0E7FE8DDAD4645F8AACC65158ED9326B"",""assignmentId"":""c6ae9813-7a4a-4592-81ac-f95a2491a847"",""projectId"":""a9f3d40c-5730-405c-b25e-1034c4c56f3f""}","https://test12345.live/?num_scrambled_semantic=8&num_scrambled_causal=4&num_scrambled_schematic=4&participantId=0E7FE8DDAD4645F8AACC65158ED9326B&assignmentId=c6ae9813-7a4a-4592-81ac-f95a2491a847&projectId=a9f3d40c-5730-405c-b25e-1034c4c56f3f","0E7FE8DDAD4645F8AACC65158ED9326B-2025-08-07-19-07-18","[{""page_index"":0,""viewing_time"":1500},{""page_index"":1,""viewing_time"":1272}]","2772","","","","",""
"","","","","","image-button-response","8","49013","0.0-6.0-0.0","0E7FE8DDAD4645F8AACC65158ED9326B","0E7FE8DDAD4645F8AACC65158ED9326B","c6ae9813-7a4a-4592-81ac-f95a2491a847","a9f3d40c-5730-405c-b25e-1034c4c56f3f","{""num_scrambled_semantic"":""8"",""num_scrambled_causal"":""4"",""num_scrambled_schematic"":""4"",""participantId"":""0E7FE8DDAD4645F8AACC65158ED9326B"",""assignmentId"":""c6ae9813-7a4a-4592-81ac-f95a2491a847"",""projectId"":""a9f3d40c-5730-405c-b25e-1034c4c56f3f""}","https://test12345.live/?num_scrambled_semantic=8&num_scrambled_causal=4&num_scrambled_schematic=4&participantId=0E7FE8DDAD4645F8AACC65158ED9326B&assignmentId=c6ae9813-7a4a-4592-81ac-f95a2491a847&projectId=a9f3d40c-5730-405c-b25e-1034c4c56f3f","0E7FE8DDAD4645F8AACC65158ED9326B-2025-08-07-19-07-18","","null","","images/instructions/movie_0.png","null","",""
"","","","","","image-button-response","9","53519","0.0-6.0-1.0-0.0","0E7FE8DDAD4645F8AACC65158ED9326B","0E7FE8DDAD4645F8AACC65158ED9326B","c6ae9813-7a4a-4592-81ac-f95a2491a847","a9f3d40c-5730-405c-b25e-1034c4c56f3f","{""num_scrambled_semantic"":""8"",""num_scrambled_causal"":""4"",""num_scrambled_schematic"":""4"",""participantId"":""0E7FE8DDAD4645F8AACC65158ED9326B"",""assignmentId"":""c6ae9813-7a4a-4592-81ac-f95a2491a847"",""projectId"":""a9f3d40c-5730-405c-b25e-1034c4c56f3f""}","https://test12345.live/?num_scrambled_semantic=8&num_scrambled_causal=4&num_scrambled_schematic=4&participantId=0E7FE8DDAD4645F8AACC65158ED9326B&assignmentId=c6ae9813-7a4a-4592-81ac-f95a2491a847&projectId=a9f3d40c-5730-405c-b25e-1034c4c56f3f","0E7FE8DDAD4645F8AACC65158ED9326B-2025-08-07-19-07-18","","null","","images/instructions/movie_1.png","null","",""
"","","","","","image-button-response","10","55787","0.0-6.0-1.0-1.0","0E7FE8DDAD4645F8AACC65158ED9326B","0E7FE8DDAD4645F8AACC65158ED9326B","c6ae9813-7a4a-4592-81ac-f95a2491a847","a9f3d40c-5730-405c-b25e-1034c4c56f3f","{""num_scrambled_semantic"":""8"",""num_scrambled_causal"":""4"",""num_scrambled_schematic"":""4"",""participantId"":""0E7FE8DDAD4645F8AACC65158ED9326B"",""assignmentId"":""c6ae9813-7a4a-4592-81ac-f95a2491a847"",""projectId"":""a9f3d40c-5730-405c-b25e-1034c4c56f3f""}","https://test12345.live/?num_scrambled_semantic=8&num_scrambled_causal=4&num_scrambled_schematic=4&participantId=0E7FE8DDAD4645F8AACC65158ED9326B&assignmentId=c6ae9813-7a4a-4592-81ac-f95a2491a847&projectId=a9f3d40c-5730-405c-b25e-1034c4c56f3f","0E7FE8DDAD4645F8AACC65158ED9326B-2025-08-07-19-07-18","","2265","","images/instructions/movie_1.png","1","",""
"","","","","","image-button-response","11","57590","0.0-6.0-1.0-2.0","0E7FE8DDAD4645F8AACC65158ED9326B","0E7FE8DDAD4645F8AACC65158ED9326B","c6ae9813-7a4a-4592-81ac-f95a2491a847","a9f3d40c-5730-405c-b25e-1034c4c56f3f","{""num_scrambled_semantic"":""8"",""num_scrambled_causal"":""4"",""num_scrambled_schematic"":""4"",""participantId"":""0E7FE8DDAD4645F8AACC65158ED9326B"",""assignmentId"":""c6ae9813-7a4a-4592-81ac-f95a2491a847"",""projectId"":""a9f3d40c-5730-405c-b25e-1034c4c56f3f""}","https://test12345.live/?num_scrambled_semantic=8&num_scrambled_causal=4&num_scrambled_schematic=4&participantId=0E7FE8DDAD4645F8AACC65158ED9326B&assignmentId=c6ae9813-7a4a-4592-81ac-f95a2491a847&projectId=a9f3d40c-5730-405c-b25e-1034c4c56f3f","0E7FE8DDAD4645F8AACC65158ED9326B-2025-08-07-19-07-18","","null","","[]","null","",""
"","","","","","image-button-response","12","62095","0.0-6.0-1.0-0.1","0E7FE8DDAD4645F8AACC65158ED9326B","0E7FE8DDAD4645F8AACC65158ED9326B","c6ae9813-7a4a-4592-81ac-f95a2491a847","a9f3d40c-5730-405c-b25e-1034c4c56f3f","{""num_scrambled_semantic"":""8"",""num_scrambled_causal"":""4"",""num_scrambled_schematic"":""4"",""participantId"":""0E7FE8DDAD4645F8AACC65158ED9326B"",""assignmentId"":""c6ae9813-7a4a-4592-81ac-f95a2491a847"",""projectId"":""a9f3d40c-5730-405c-b25e-1034c4c56f3f""}","https://test12345.live/?num_scrambled_semantic=8&num_scrambled_causal=4&num_scrambled_schematic=4&participantId=0E7FE8DDAD4645F8AACC65158ED9326B&assignmentId=c6ae9813-7a4a-4592-81ac-f95a2491a847&projectId=a9f3d40c-5730-405c-b25e-1034c4c56f3f","0E7FE8DDAD4645F8AACC65158ED9326B-2025-08-07-19-07-18","","null","","images/instructions/movie_2.png","null","",""
"","","","","","image-button-response","13","64143","0.0-6.0-1.0-1.1","0E7FE8DDAD4645F8AACC65158ED9326B","0E7FE8DDAD4645F8AACC65158ED9326B","c6ae9813-7a4a-4592-81ac-f95a2491a847","a9f3d40c-5730-405c-b25e-1034c4c56f3f","{""num_scrambled_semantic"":""8"",""num_scrambled_causal"":""4"",""num_scrambled_schematic"":""4"",""participantId"":""0E7FE8DDAD4645F8AACC65158ED9326B"",""assignmentId"":""c6ae9813-7a4a-4592-81ac-f95a2491a847"",""projectId"":""a9f3d40c-5730-405c-b25e-1034c4c56f3f""}","https://test12345.live/?num_scrambled_semantic=8&num_scrambled_causal=4&num_scrambled_schematic=4&participantId=0E7FE8DDAD4645F8AACC65158ED9326B&assignmentId=c6ae9813-7a4a-4592-81ac-f95a2491a847&projectId=a9f3d40c-5730-405c-b25e-1034c4c56f3f","0E7FE8DDAD4645F8AACC65158ED9326B-2025-08-07-19-07-18","","2045","","images/instructions/movie_2.png","0","",""
"","","","","","image-button-response","14","65950","0.0-6.0-1.0-2.1","0E7FE8DDAD4645F8AACC65158ED9326B","0E7FE8DDAD4645F8AACC65158ED9326B","c6ae9813-7a4a-4592-81ac-f95a2491a847","a9f3d40c-5730-405c-b25e-1034c4c56f3f","{""num_scrambled_semantic"":""8"",""num_scrambled_causal"":""4"",""num_scrambled_schematic"":""4"",""participantId"":""0E7FE8DDAD4645F8AACC65158ED9326B"",""assignmentId"":""c6ae9813-7a4a-4592-81ac-f95a2491a847"",""projectId"":""a9f3d40c-5730-405c-b25e-1034c4c56f3f""}","https://test12345.live/?num_scrambled_semantic=8&num_scrambled_causal=4&num_scrambled_schematic=4&participantId=0E7FE8DDAD4645F8AACC65158ED9326B&assignmentId=c6ae9813-7a4a-4592-81ac-f95a2491a847&projectId=a9f3d40c-5730-405c-b25e-1034c4c56f3f","0E7FE8DDAD4645F8AACC65158ED9326B-2025-08-07-19-07-18","","null","","[]","null","",""
"","","","","","image-button-response","15","70453","0.0-6.0-1.0-0.2","0E7FE8DDAD4645F8AACC65158ED9326B","0E7FE8DDAD4645F8AACC65158ED9326B","c6ae9813-7a4a-4592-81ac-f95a2491a847","a9f3d40c-5730-405c-b25e-1034c4c56f3f","{""num_scrambled_semantic"":""8"",""num_scrambled_causal"":""4"",""num_scrambled_schematic"":""4"",""participantId"":""0E7FE8DDAD4645F8AACC65158ED9326B"",""assignmentId"":""c6ae9813-7a4a-4592-81ac-f95a2491a847"",""projectId"":""a9f3d40c-5730-405c-b25e-1034c4c56f3f""}","https://test12345.live/?num_scrambled_semantic=8&num_scrambled_causal=4&num_scrambled_schematic=4&participantId=0E7FE8DDAD4645F8AACC65158ED9326B&assignmentId=c6ae9813-7a4a-4592-81ac-f95a2491a847&projectId=a9f3d40c-5730-405c-b25e-1034c4c56f3f","0E7FE8DDAD4645F8AACC65158ED9326B-2025-08-07-19-07-18","","null","","images/instructions/movie_3.png","null","",""
"","","","","","image-button-response","16","72398","0.0-6.0-1.0-1.2","0E7FE8DDAD4645F8AACC65158ED9326B","0E7FE8DDAD4645F8AACC65158ED9326B","c6ae9813-7a4a-4592-81ac-f95a2491a847","a9f3d40c-5730-405c-b25e-1034c4c56f3f","{""num_scrambled_semantic"":""8"",""num_scrambled_causal"":""4"",""num_scrambled_schematic"":""4"",""participantId"":""0E7FE8DDAD4645F8AACC65158ED9326B"",""assignmentId"":""c6ae9813-7a4a-4592-81ac-f95a2491a847"",""projectId"":""a9f3d40c-5730-405c-b25e-1034c4c56f3f""}","https://test12345.live/?num_scrambled_semantic=8&num_scrambled_causal=4&num_scrambled_schematic=4&participantId=0E7FE8DDAD4645F8AACC65158ED9326B&assignmentId=c6ae9813-7a4a-4592-81ac-f95a2491a847&projectId=a9f3d40c-5730-405c-b25e-1034c4c56f3f","0E7FE8DDAD4645F8AACC65158ED9326B-2025-08-07-19-07-18","","1942","","images/instructions/movie_3.png","0","",""
"","","","","","image-button-response","17","74203","0.0-6.0-1.0-2.2","0E7FE8DDAD4645F8AACC65158ED9326B","0E7FE8DDAD4645F8AACC65158ED9326B","c6ae9813-7a4a-4592-81ac-f95a2491a847","a9f3d40c-5730-405c-b25e-1034c4c56f3f","{""num_scrambled_semantic"":""8"",""num_scrambled_causal"":""4"",""num_scrambled_schematic"":""4"",""participantId"":""0E7FE8DDAD4645F8AACC65158ED9326B"",""assignmentId"":""c6ae9813-7a4a-4592-81ac-f95a2491a847"",""projectId"":""a9f3d40c-5730-405c-b25e-1034c4c56f3f""}","https://test12345.live/?num_scrambled_semantic=8&num_scrambled_causal=4&num_scrambled_schematic=4&participantId=0E7FE8DDAD4645F8AACC65158ED9326B&assignmentId=c6ae9813-7a4a-4592-81ac-f95a2491a847&projectId=a9f3d40c-5730-405c-b25e-1034c4c56f3f","0E7FE8DDAD4645F8AACC65158ED9326B-2025-08-07-19-07-18","","null","","[]","null","",""
"","","","","","image-button-response","18","78710","0.0-6.0-1.0-0.3","0E7FE8DDAD4645F8AACC65158ED9326B","0E7FE8DDAD4645F8AACC65158ED9326B","c6ae9813-7a4a-4592-81ac-f95a2491a847","a9f3d40c-5730-405c-b25e-1034c4c56f3f","{""num_scrambled_semantic"":""8"",""num_scrambled_causal"":""4"",""num_scrambled_schematic"":""4"",""participantId"":""0E7FE8DDAD4645F8AACC65158ED9326B"",""assignmentId"":""c6ae9813-7a4a-4592-81ac-f95a2491a847"",""projectId"":""a9f3d40c-5730-405c-b25e-1034c4c56f3f""}","https://test12345.live/?num_scrambled_semantic=8&num_scrambled_causal=4&num_scrambled_schematic=4&participantId=0E7FE8DDAD4645F8AACC65158ED9326B&assignmentId=c6ae9813-7a4a-4592-81ac-f95a2491a847&projectId=a9f3d40c-5730-405c-b25e-1034c4c56f3f","0E7FE8DDAD4645F8AACC65158ED9326B-2025-08-07-19-07-18","","null","","images/instructions/movie_4.png","null","",""
"","","","","","image-button-response","19","81020","0.0-6.0-1.0-1.3","0E7FE8DDAD4645F8AACC65158ED9326B","0E7FE8DDAD4645F8AACC65158ED9326B","c6ae9813-7a4a-4592-81ac-f95a2491a847","a9f3d40c-5730-405c-b25e-1034c4c56f3f","{""num_scrambled_semantic"":""8"",""num_scrambled_causal"":""4"",""num_scrambled_schematic"":""4"",""participantId"":""0E7FE8DDAD4645F8AACC65158ED9326B"",""assignmentId"":""c6ae9813-7a4a-4592-81ac-f95a2491a847"",""projectId"":""a9f3d40c-5730-405c-b25e-1034c4c56f3f""}","https://test12345.live/?num_scrambled_semantic=8&num_scrambled_causal=4&num_scrambled_schematic=4&participantId=0E7FE8DDAD4645F8AACC65158ED9326B&assignmentId=c6ae9813-7a4a-4592-81ac-f95a2491a847&projectId=a9f3d40c-5730-405c-b25e-1034c4c56f3f","0E7FE8DDAD4645F8AACC65158ED9326B-2025-08-07-19-07-18","","2308","","images/instructions/movie_4.png","0","",""
"","","","","","image-button-response","20","82826","0.0-6.0-1.0-2.3","0E7FE8DDAD4645F8AACC65158ED9326B","0E7FE8DDAD4645F8AACC65158ED9326B","c6ae9813-7a4a-4592-81ac-f95a2491a847","a9f3d40c-5730-405c-b25e-1034c4c56f3f","{""num_scrambled_semantic"":""8"",""num_scrambled_causal"":""4"",""num_scrambled_schematic"":""4"",""participantId"":""0E7FE8DDAD4645F8AACC65158ED9326B"",""assignmentId"":""c6ae9813-7a4a-4592-81ac-f95a2491a847"",""projectId"":""a9f3d40c-5730-405c-b25e-1034c4c56f3f""}","https://test12345.live/?num_scrambled_semantic=8&num_scrambled_causal=4&num_scrambled_schematic=4&participantId=0E7FE8DDAD4645F8AACC65158ED9326B&assignmentId=c6ae9813-7a4a-4592-81ac-f95a2491a847&projectId=a9f3d40c-5730-405c-b25e-1034c4c56f3f","0E7FE8DDAD4645F8AACC65158ED9326B-2025-08-07-19-07-18","","null","","[]","null","",""
"","","","","","instructions","21","86452","0.0-7.0","0E7FE8DDAD4645F8AACC65158ED9326B","0E7FE8DDAD4645F8AACC65158ED9326B","c6ae9813-7a4a-4592-81ac-f95a2491a847","a9f3d40c-5730-405c-b25e-1034c4c56f3f","{""num_scrambled_semantic"":""8"",""num_scrambled_causal"":""4"",""num_scrambled_schematic"":""4"",""participantId"":""0E7FE8DDAD4645F8AACC65158ED9326B"",""assignmentId"":""c6ae9813-7a4a-4592-81ac-f95a2491a847"",""projectId"":""a9f3d40c-5730-405c-b25e-1034c4c56f3f""}","https://test12345.live/?num_scrambled_semantic=8&num_scrambled_causal=4&num_scrambled_schematic=4&participantId=0E7FE8DDAD4645F8AACC65158ED9326B&assignmentId=c6ae9813-7a4a-4592-81ac-f95a2491a847&projectId=a9f3d40c-5730-405c-b25e-1034c4c56f3f","0E7FE8DDAD4645F8AACC65158ED9326B-2025-08-07-19-07-18","[{""page_index"":0,""viewing_time"":2405},{""page_index"":1,""viewing_time"":1220}]","3625","","","","",""
"","","","","","html-audio-response","22","108912","0.0-8.0","0E7FE8DDAD4645F8AACC65158ED9326B","0E7FE8DDAD4645F8AACC65158ED9326B","c6ae9813-7a4a-4592-81ac-f95a2491a847","a9f3d40c-5730-405c-b25e-1034c4c56f3f","{""num_scrambled_semantic"":""8"",""num_scrambled_causal"":""4"",""num_scrambled_schematic"":""4"",""participantId"":""0E7FE8DDAD4645F8AACC65158ED9326B"",""assignmentId"":""c6ae9813-7a4a-4592-81ac-f95a2491a847"",""projectId"":""a9f3d40c-5730-405c-b25e-1034c4c56f3f""}","https://test12345.live/?num_scrambled_semantic=8&num_scrambled_causal=4&num_scrambled_schematic=4&participantId=0E7FE8DDAD4645F8AACC65158ED9326B&assignmentId=c6ae9813-7a4a-4592-81ac-f95a2491a847&projectId=a9f3d40c-5730-405c-b25e-1034c4c56f3f","0E7FE8DDAD4645F8AACC65158ED9326B-2025-08-07-19-07-18","","6387","","[""<span style=\""color: red; font-size: 24px\""> NOW RECORDING</span><p>Please say out loud all the images you saw, as many as you can remember. The images can be said in any order.</p>""]","","8",""
"","","","","","instructions","23","110348","0.0-9.0","0E7FE8DDAD4645F8AACC65158ED9326B","0E7FE8DDAD4645F8AACC65158ED9326B","c6ae9813-7a4a-4592-81ac-f95a2491a847","a9f3d40c-5730-405c-b25e-1034c4c56f3f","{""num_scrambled_semantic"":""8"",""num_scrambled_causal"":""4"",""num_scrambled_schematic"":""4"",""participantId"":""0E7FE8DDAD4645F8AACC65158ED9326B"",""assignmentId"":""c6ae9813-7a4a-4592-81ac-f95a2491a847"",""projectId"":""a9f3d40c-5730-405c-b25e-1034c4c56f3f""}","https://test12345.live/?num_scrambled_semantic=8&num_scrambled_causal=4&num_scrambled_schematic=4&participantId=0E7FE8DDAD4645F8AACC65158ED9326B&assignmentId=c6ae9813-7a4a-4592-81ac-f95a2491a847&projectId=a9f3d40c-5730-405c-b25e-1034c4c56f3f","0E7FE8DDAD4645F8AACC65158ED9326B-2025-08-07-19-07-18","[{""page_index"":0,""viewing_time"":1432}]","1432","","","","",""
"","","","","","image-button-response","24","116359","0.0-10.0-0.0","0E7FE8DDAD4645F8AACC65158ED9326B","0E7FE8DDAD4645F8AACC65158ED9326B","c6ae9813-7a4a-4592-81ac-f95a2491a847","a9f3d40c-5730-405c-b25e-1034c4c56f3f","{""num_scrambled_semantic"":""8"",""num_scrambled_causal"":""4"",""num_scrambled_schematic"":""4"",""participantId"":""0E7FE8DDAD4645F8AACC65158ED9326B"",""assignmentId"":""c6ae9813-7a4a-4592-81ac-f95a2491a847"",""projectId"":""a9f3d40c-5730-405c-b25e-1034c4c56f3f""}","https://test12345.live/?num_scrambled_semantic=8&num_scrambled_causal=4&num_scrambled_schematic=4&participantId=0E7FE8DDAD4645F8AACC65158ED9326B&assignmentId=c6ae9813-7a4a-4592-81ac-f95a2491a847&projectId=a9f3d40c-5730-405c-b25e-1034c4c56f3f","0E7FE8DDAD4645F8AACC65158ED9326B-2025-08-07-19-07-18","","null","","images/causal_sequence/saving_a_cat_causal/saving_a_cat_causal_0.png","null","",""
"","","","","","image-button-response","25","120863","0.0-10.0-1.0-0.0","0E7FE8DDAD4645F8AACC65158ED9326B","0E7FE8DDAD4645F8AACC65158ED9326B","c6ae9813-7a4a-4592-81ac-f95a2491a847","a9f3d40c-5730-405c-b25e-1034c4c56f3f","{""num_scrambled_semantic"":""8"",""num_scrambled_causal"":""4"",""num_scrambled_schematic"":""4"",""participantId"":""0E7FE8DDAD4645F8AACC65158ED9326B"",""assignmentId"":""c6ae9813-7a4a-4592-81ac-f95a2491a847"",""projectId"":""a9f3d40c-5730-405c-b25e-1034c4c56f3f""}","https://test12345.live/?num_scrambled_semantic=8&num_scrambled_causal=4&num_scrambled_schematic=4&participantId=0E7FE8DDAD4645F8AACC65158ED9326B&assignmentId=c6ae9813-7a4a-4592-81ac-f95a2491a847&projectId=a9f3d40c-5730-405c-b25e-1034c4c56f3f","0E7FE8DDAD4645F8AACC65158ED9326B-2025-08-07-19-07-18","","null","","images/causal_sequence/saving_a_cat_causal/saving_a_cat_causal_7.png","null","",""
"","","","","","image-button-response","26","122248","0.0-10.0-1.0-1.0","0E7FE8DDAD4645F8AACC65158ED9326B","0E7FE8DDAD4645F8AACC65158ED9326B","c6ae9813-7a4a-4592-81ac-f95a2491a847","a9f3d40c-5730-405c-b25e-1034c4c56f3f","{""num_scrambled_semantic"":""8"",""num_scrambled_causal"":""4"",""num_scrambled_schematic"":""4"",""participantId"":""0E7FE8DDAD4645F8AACC65158ED9326B"",""assignmentId"":""c6ae9813-7a4a-4592-81ac-f95a2491a847"",""projectId"":""a9f3d40c-5730-405c-b25e-1034c4c56f3f""}","https://test12345.live/?num_scrambled_semantic=8&num_scrambled_causal=4&num_scrambled_schematic=4&participantId=0E7FE8DDAD4645F8AACC65158ED9326B&assignmentId=c6ae9813-7a4a-4592-81ac-f95a2491a847&projectId=a9f3d40c-5730-405c-b25e-1034c4c56f3f","0E7FE8DDAD4645F8AACC65158ED9326B-2025-08-07-19-07-18","","1382","","images/causal_sequence/saving_a_cat_causal/saving_a_cat_causal_7.png","0","",""
"","","","","","image-button-response","27","124053","0.0-10.0-1.0-2.0","0E7FE8DDAD4645F8AACC65158ED9326B","0E7FE8DDAD4645F8AACC65158ED9326B","c6ae9813-7a4a-4592-81ac-f95a2491a847","a9f3d40c-5730-405c-b25e-1034c4c56f3f","{""num_scrambled_semantic"":""8"",""num_scrambled_causal"":""4"",""num_scrambled_schematic"":""4"",""participantId"":""0E7FE8DDAD4645F8AACC65158ED9326B"",""assignmentId"":""c6ae9813-7a4a-4592-81ac-f95a2491a847"",""projectId"":""a9f3d40c-5730-405c-b25e-1034c4c56f3f""}","https://test12345.live/?num_scrambled_semantic=8&num_scrambled_causal=4&num_scrambled_schematic=4&participantId=0E7FE8DDAD4645F8AACC65158ED9326B&assignmentId=c6ae9813-7a4a-4592-81ac-f95a2491a847&projectId=a9f3d40c-5730-405c-b25e-1034c4c56f3f","0E7FE8DDAD4645F8AACC65158ED9326B-2025-08-07-19-07-18","","null","","[]","null","",""
"","","","","","image-button-response","28","128559","0.0-10.0-1.0-0.1","0E7FE8DDAD4645F8AACC65158ED9326B","0E7FE8DDAD4645F8AACC65158ED9326B","c6ae9813-7a4a-4592-81ac-f95a2491a847","a9f3d40c-5730-405c-b25e-1034c4c56f3f","{""num_scrambled_semantic"":""8"",""num_scrambled_causal"":""4"",""num_scrambled_schematic"":""4"",""participantId"":""0E7FE8DDAD4645F8AACC65158ED9326B"",""assignmentId"":""c6ae9813-7a4a-4592-81ac-f95a2491a847"",""projectId"":""a9f3d40c-5730-405c-b25e-1034c4c56f3f""}","https://test12345.live/?num_scrambled_semantic=8&num_scrambled_causal=4&num_scrambled_schematic=4&participantId=0E7FE8DDAD4645F8AACC65158ED9326B&assignmentId=c6ae9813-7a4a-4592-81ac-f95a2491a847&projectId=a9f3d40c-5730-405c-b25e-1034c4c56f3f","0E7FE8DDAD4645F8AACC65158ED9326B-2025-08-07-19-07-18","","null","","images/causal_sequence/saving_a_cat_causal/saving_a_cat_causal_1.png","null","",""
"","","","","","image-button-response","29","130670","0.0-10.0-1.0-1.1","0E7FE8DDAD4645F8AACC65158ED9326B","0E7FE8DDAD4645F8AACC65158ED9326B","c6ae9813-7a4a-4592-81ac-f95a2491a847","a9f3d40c-5730-405c-b25e-1034c4c56f3f","{""num_scrambled_semantic"":""8"",""num_scrambled_causal"":""4"",""num_scrambled_schematic"":""4"",""participantId"":""0E7FE8DDAD4645F8AACC65158ED9326B"",""assignmentId"":""c6ae9813-7a4a-4592-81ac-f95a2491a847"",""projectId"":""a9f3d40c-5730-405c-b25e-1034c4c56f3f""}","https://test12345.live/?num_scrambled_semantic=8&num_scrambled_causal=4&num_scrambled_schematic=4&participantId=0E7FE8DDAD4645F8AACC65158ED9326B&assignmentId=c6ae9813-7a4a-4592-81ac-f95a2491a847&projectId=a9f3d40c-5730-405c-b25e-1034c4c56f3f","0E7FE8DDAD4645F8AACC65158ED9326B-2025-08-07-19-07-18","","2109","","images/causal_sequence/saving_a_cat_causal/saving_a_cat_causal_1.png","0","",""
"","","","","","image-button-response","30","132479","0.0-10.0-1.0-2.1","0E7FE8DDAD4645F8AACC65158ED9326B","0E7FE8DDAD4645F8AACC65158ED9326B","c6ae9813-7a4a-4592-81ac-f95a2491a847","a9f3d40c-5730-405c-b25e-1034c4c56f3f","{""num_scrambled_semantic"":""8"",""num_scrambled_causal"":""4"",""num_scrambled_schematic"":""4"",""participantId"":""0E7FE8DDAD4645F8AACC65158ED9326B"",""assignmentId"":""c6ae9813-7a4a-4592-81ac-f95a2491a847"",""projectId"":""a9f3d40c-5730-405c-b25e-1034c4c56f3f""}","https://test12345.live/?num_scrambled_semantic=8&num_scrambled_causal=4&num_scrambled_schematic=4&participantId=0E7FE8DDAD4645F8AACC65158ED9326B&assignmentId=c6ae9813-7a4a-4592-81ac-f95a2491a847&projectId=a9f3d40c-5730-405c-b25e-1034c4c56f3f","0E7FE8DDAD4645F8AACC65158ED9326B-2025-08-07-19-07-18","","null","","[]","null","",""
"","","","","","image-button-response","31","136983","0.0-10.0-1.0-0.2","0E7FE8DDAD4645F8AACC65158ED9326B","0E7FE8DDAD4645F8AACC65158ED9326B","c6ae9813-7a4a-4592-81ac-f95a2491a847","a9f3d40c-5730-405c-b25e-1034c4c56f3f","{""num_scrambled_semantic"":""8"",""num_scrambled_causal"":""4"",""num_scrambled_schematic"":""4"",""participantId"":""0E7FE8DDAD4645F8AACC65158ED9326B"",""assignmentId"":""c6ae9813-7a4a-4592-81ac-f95a2491a847"",""projectId"":""a9f3d40c-5730-405c-b25e-1034c4c56f3f""}","https://test12345.live/?num_scrambled_semantic=8&num_scrambled_causal=4&num_scrambled_schematic=4&participantId=0E7FE8DDAD4645F8AACC65158ED9326B&assignmentId=c6ae9813-7a4a-4592-81ac-f95a2491a847&projectId=a9f3d40c-5730-405c-b25e-1034c4c56f3f","0E7FE8DDAD4645F8AACC65158ED9326B-2025-08-07-19-07-18","","null","","images/causal_sequence/saving_a_cat_causal/saving_a_cat_causal_4.png","null","",""
"","","","","","image-button-response","32","137941","0.0-10.0-1.0-1.2","0E7FE8DDAD4645F8AACC65158ED9326B","0E7FE8DDAD4645F8AACC65158ED9326B","c6ae9813-7a4a-4592-81ac-f95a2491a847","a9f3d40c-5730-405c-b25e-1034c4c56f3f","{""num_scrambled_semantic"":""8"",""num_scrambled_causal"":""4"",""num_scrambled_schematic"":""4"",""participantId"":""0E7FE8DDAD4645F8AACC65158ED9326B"",""assignmentId"":""c6ae9813-7a4a-4592-81ac-f95a2491a847"",""projectId"":""a9f3d40c-5730-405c-b25e-1034c4c56f3f""}","https://test12345.live/?num_scrambled_semantic=8&num_scrambled_causal=4&num_scrambled_schematic=4&participantId=0E7FE8DDAD4645F8AACC65158ED9326B&assignmentId=c6ae9813-7a4a-4592-81ac-f95a2491a847&projectId=a9f3d40c-5730-405c-b25e-1034c4c56f3f","0E7FE8DDAD4645F8AACC65158ED9326B-2025-08-07-19-07-18","","956","","images/causal_sequence/saving_a_cat_causal/saving_a_cat_causal_4.png","0","",""
"","","","","","image-button-response","33","139745","0.0-10.0-1.0-2.2","0E7FE8DDAD4645F8AACC65158ED9326B","0E7FE8DDAD4645F8AACC65158ED9326B","c6ae9813-7a4a-4592-81ac-f95a2491a847","a9f3d40c-5730-405c-b25e-1034c4c56f3f","{""num_scrambled_semantic"":""8"",""num_scrambled_causal"":""4"",""num_scrambled_schematic"":""4"",""participantId"":""0E7FE8DDAD4645F8AACC65158ED9326B"",""assignmentId"":""c6ae9813-7a4a-4592-81ac-f95a2491a847"",""projectId"":""a9f3d40c-5730-405c-b25e-1034c4c56f3f""}","https://test12345.live/?num_scrambled_semantic=8&num_scrambled_causal=4&num_scrambled_schematic=4&participantId=0E7FE8DDAD4645F8AACC65158ED9326B&assignmentId=c6ae9813-7a4a-4592-81ac-f95a2491a847&projectId=a9f3d40c-5730-405c-b25e-1034c4c56f3f","0E7FE8DDAD4645F8AACC65158ED9326B-2025-08-07-19-07-18","","null","","[]","null","",""
"","","","","","image-button-response","34","144248","0.0-10.0-1.0-0.3","0E7FE8DDAD4645F8AACC65158ED9326B","0E7FE8DDAD4645F8AACC65158ED9326B","c6ae9813-7a4a-4592-81ac-f95a2491a847","a9f3d40c-5730-405c-b25e-1034c4c56f3f","{""num_scrambled_semantic"":""8"",""num_scrambled_causal"":""4"",""num_scrambled_schematic"":""4"",""participantId"":""0E7FE8DDAD4645F8AACC65158ED9326B"",""assignmentId"":""c6ae9813-7a4a-4592-81ac-f95a2491a847"",""projectId"":""a9f3d40c-5730-405c-b25e-1034c4c56f3f""}","https://test12345.live/?num_scrambled_semantic=8&num_scrambled_causal=4&num_scrambled_schematic=4&participantId=0E7FE8DDAD4645F8AACC65158ED9326B&assignmentId=c6ae9813-7a4a-4592-81ac-f95a2491a847&projectId=a9f3d40c-5730-405c-b25e-1034c4c56f3f","0E7FE8DDAD4645F8AACC65158ED9326B-2025-08-07-19-07-18","","null","","images/causal_sequence/saving_a_cat_causal/saving_a_cat_causal_9.png","null","",""
"","","","","","image-button-response","35","145158","0.0-10.0-1.0-1.3","0E7FE8DDAD4645F8AACC65158ED9326B","0E7FE8DDAD4645F8AACC65158ED9326B","c6ae9813-7a4a-4592-81ac-f95a2491a847","a9f3d40c-5730-405c-b25e-1034c4c56f3f","{""num_scrambled_semantic"":""8"",""num_scrambled_causal"":""4"",""num_scrambled_schematic"":""4"",""participantId"":""0E7FE8DDAD4645F8AACC65158ED9326B"",""assignmentId"":""c6ae9813-7a4a-4592-81ac-f95a2491a847"",""projectId"":""a9f3d40c-5730-405c-b25e-1034c4c56f3f""}","https://test12345.live/?num_scrambled_semantic=8&num_scrambled_causal=4&num_scrambled_schematic=4&participantId=0E7FE8DDAD4645F8AACC65158ED9326B&assignmentId=c6ae9813-7a4a-4592-81ac-f95a2491a847&projectId=a9f3d40c-5730-405c-b25e-1034c4c56f3f","0E7FE8DDAD4645F8AACC65158ED9326B-2025-08-07-19-07-18","","908","","images/causal_sequence/saving_a_cat_causal/saving_a_cat_causal_9.png","0","",""
"","","","","","image-button-response","36","146963","0.0-10.0-1.0-2.3","0E7FE8DDAD4645F8AACC65158ED9326B","0E7FE8DDAD4645F8AACC65158ED9326B","c6ae9813-7a4a-4592-81ac-f95a2491a847","a9f3d40c-5730-405c-b25e-1034c4c56f3f","{""num_scrambled_semantic"":""8"",""num_scrambled_causal"":""4"",""num_scrambled_schematic"":""4"",""participantId"":""0E7FE8DDAD4645F8AACC65158ED9326B"",""assignmentId"":""c6ae9813-7a4a-4592-81ac-f95a2491a847"",""projectId"":""a9f3d40c-5730-405c-b25e-1034c4c56f3f""}","https://test12345.live/?num_scrambled_semantic=8&num_scrambled_causal=4&num_scrambled_schematic=4&participantId=0E7FE8DDAD4645F8AACC65158ED9326B&assignmentId=c6ae9813-7a4a-4592-81ac-f95a2491a847&projectId=a9f3d40c-5730-405c-b25e-1034c4c56f3f","0E7FE8DDAD4645F8AACC65158ED9326B-2025-08-07-19-07-18","","null","","[]","null","",""
"","","","","","image-button-response","37","151469","0.0-10.0-1.0-0.4","0E7FE8DDAD4645F8AACC65158ED9326B","0E7FE8DDAD4645F8AACC65158ED9326B","c6ae9813-7a4a-4592-81ac-f95a2491a847","a9f3d40c-5730-405c-b25e-1034c4c56f3f","{""num_scrambled_semantic"":""8"",""num_scrambled_causal"":""4"",""num_scrambled_schematic"":""4"",""participantId"":""0E7FE8DDAD4645F8AACC65158ED9326B"",""assignmentId"":""c6ae9813-7a4a-4592-81ac-f95a2491a847"",""projectId"":""a9f3d40c-5730-405c-b25e-1034c4c56f3f""}","https://test12345.live/?num_scrambled_semantic=8&num_scrambled_causal=4&num_scrambled_schematic=4&participantId=0E7FE8DDAD4645F8AACC65158ED9326B&assignmentId=c6ae9813-7a4a-4592-81ac-f95a2491a847&projectId=a9f3d40c-5730-405c-b25e-1034c4c56f3f","0E7FE8DDAD4645F8AACC65158ED9326B-2025-08-07-19-07-18","","null","","images/causal_sequence/saving_a_cat_causal/saving_a_cat_causal_6.png","null","",""
"","","","","","image-button-response","38","152578","0.0-10.0-1.0-1.4","0E7FE8DDAD4645F8AACC65158ED9326B","0E7FE8DDAD4645F8AACC65158ED9326B","c6ae9813-7a4a-4592-81ac-f95a2491a847","a9f3d40c-5730-405c-b25e-1034c4c56f3f","{""num_scrambled_semantic"":""8"",""num_scrambled_causal"":""4"",""num_scrambled_schematic"":""4"",""participantId"":""0E7FE8DDAD4645F8AACC65158ED9326B"",""assignmentId"":""c6ae9813-7a4a-4592-81ac-f95a2491a847"",""projectId"":""a9f3d40c-5730-405c-b25e-1034c4c56f3f""}","https://test12345.live/?num_scrambled_semantic=8&num_scrambled_causal=4&num_scrambled_schematic=4&participantId=0E7FE8DDAD4645F8AACC65158ED9326B&assignmentId=c6ae9813-7a4a-4592-81ac-f95a2491a847&projectId=a9f3d40c-5730-405c-b25e-1034c4c56f3f","0E7FE8DDAD4645F8AACC65158ED9326B-2025-08-07-19-07-18","","1107","","images/causal_sequence/saving_a_cat_causal/saving_a_cat_causal_6.png","0","",""
"","","","","","image-button-response","39","154383","0.0-10.0-1.0-2.4","0E7FE8DDAD4645F8AACC65158ED9326B","0E7FE8DDAD4645F8AACC65158ED9326B","c6ae9813-7a4a-4592-81ac-f95a2491a847","a9f3d40c-5730-405c-b25e-1034c4c56f3f","{""num_scrambled_semantic"":""8"",""num_scrambled_causal"":""4"",""num_scrambled_schematic"":""4"",""participantId"":""0E7FE8DDAD4645F8AACC65158ED9326B"",""assignmentId"":""c6ae9813-7a4a-4592-81ac-f95a2491a847"",""projectId"":""a9f3d40c-5730-405c-b25e-1034c4c56f3f""}","https://test12345.live/?num_scrambled_semantic=8&num_scrambled_causal=4&num_scrambled_schematic=4&participantId=0E7FE8DDAD4645F8AACC65158ED9326B&assignmentId=c6ae9813-7a4a-4592-81ac-f95a2491a847&projectId=a9f3d40c-5730-405c-b25e-1034c4c56f3f","0E7FE8DDAD4645F8AACC65158ED9326B-2025-08-07-19-07-18","","null","","[]","null","",""
"","","","","","image-button-response","40","158886","0.0-10.0-1.0-0.5","0E7FE8DDAD4645F8AACC65158ED9326B","0E7FE8DDAD4645F8AACC65158ED9326B","c6ae9813-7a4a-4592-81ac-f95a2491a847","a9f3d40c-5730-405c-b25e-1034c4c56f3f","{""num_scrambled_semantic"":""8"",""num_scrambled_causal"":""4"",""num_scrambled_schematic"":""4"",""participantId"":""0E7FE8DDAD4645F8AACC65158ED9326B"",""assignmentId"":""c6ae9813-7a4a-4592-81ac-f95a2491a847"",""projectId"":""a9f3d40c-5730-405c-b25e-1034c4c56f3f""}","https://test12345.live/?num_scrambled_semantic=8&num_scrambled_causal=4&num_scrambled_schematic=4&participantId=0E7FE8DDAD4645F8AACC65158ED9326B&assignmentId=c6ae9813-7a4a-4592-81ac-f95a2491a847&projectId=a9f3d40c-5730-405c-b25e-1034c4c56f3f","0E7FE8DDAD4645F8AACC65158ED9326B-2025-08-07-19-07-18","","null","","images/causal_sequence/saving_a_cat_causal/saving_a_cat_causal_ten.png","null","",""
"","","","","","image-button-response","41","159630","0.0-10.0-1.0-1.5","0E7FE8DDAD4645F8AACC65158ED9326B","0E7FE8DDAD4645F8AACC65158ED9326B","c6ae9813-7a4a-4592-81ac-f95a2491a847","a9f3d40c-5730-405c-b25e-1034c4c56f3f","{""num_scrambled_semantic"":""8"",""num_scrambled_causal"":""4"",""num_scrambled_schematic"":""4"",""participantId"":""0E7FE8DDAD4645F8AACC65158ED9326B"",""assignmentId"":""c6ae9813-7a4a-4592-81ac-f95a2491a847"",""projectId"":""a9f3d40c-5730-405c-b25e-1034c4c56f3f""}","https://test12345.live/?num_scrambled_semantic=8&num_scrambled_causal=4&num_scrambled_schematic=4&participantId=0E7FE8DDAD4645F8AACC65158ED9326B&assignmentId=c6ae9813-7a4a-4592-81ac-f95a2491a847&projectId=a9f3d40c-5730-405c-b25e-1034c4c56f3f","0E7FE8DDAD4645F8AACC65158ED9326B-2025-08-07-19-07-18","","743","","images/causal_sequence/saving_a_cat_causal/saving_a_cat_causal_ten.png","0","",""
"","","","","","image-button-response","42","161433","0.0-10.0-1.0-2.5","0E7FE8DDAD4645F8AACC65158ED9326B","0E7FE8DDAD4645F8AACC65158ED9326B","c6ae9813-7a4a-4592-81ac-f95a2491a847","a9f3d40c-5730-405c-b25e-1034c4c56f3f","{""num_scrambled_semantic"":""8"",""num_scrambled_causal"":""4"",""num_scrambled_schematic"":""4"",""participantId"":""0E7FE8DDAD4645F8AACC65158ED9326B"",""assignmentId"":""c6ae9813-7a4a-4592-81ac-f95a2491a847"",""projectId"":""a9f3d40c-5730-405c-b25e-1034c4c56f3f""}","https://test12345.live/?num_scrambled_semantic=8&num_scrambled_causal=4&num_scrambled_schematic=4&participantId=0E7FE8DDAD4645F8AACC65158ED9326B&assignmentId=c6ae9813-7a4a-4592-81ac-f95a2491a847&projectId=a9f3d40c-5730-405c-b25e-1034c4c56f3f","0E7FE8DDAD4645F8AACC65158ED9326B-2025-08-07-19-07-18","","null","","[]","null","",""
"","","","","","image-button-response","43","165936","0.0-10.0-1.0-0.6","0E7FE8DDAD4645F8AACC65158ED9326B","0E7FE8DDAD4645F8AACC65158ED9326B","c6ae9813-7a4a-4592-81ac-f95a2491a847","a9f3d40c-5730-405c-b25e-1034c4c56f3f","{""num_scrambled_semantic"":""8"",""num_scrambled_causal"":""4"",""num_scrambled_schematic"":""4"",""participantId"":""0E7FE8DDAD4645F8AACC65158ED9326B"",""assignmentId"":""c6ae9813-7a4a-4592-81ac-f95a2491a847"",""projectId"":""a9f3d40c-5730-405c-b25e-1034c4c56f3f""}","https://test12345.live/?num_scrambled_semantic=8&num_scrambled_causal=4&num_scrambled_schematic=4&participantId=0E7FE8DDAD4645F8AACC65158ED9326B&assignmentId=c6ae9813-7a4a-4592-81ac-f95a2491a847&projectId=a9f3d40c-5730-405c-b25e-1034c4c56f3f","0E7FE8DDAD4645F8AACC65158ED9326B-2025-08-07-19-07-18","","null","","images/causal_sequence/saving_a_cat_causal/saving_a_cat_causal_3.png","null","",""
"","","","","","image-button-response","44","167268","0.0-10.0-1.0-1.6","0E7FE8DDAD4645F8AACC65158ED9326B","0E7FE8DDAD4645F8AACC65158ED9326B","c6ae9813-7a4a-4592-81ac-f95a2491a847","a9f3d40c-5730-405c-b25e-1034c4c56f3f","{""num_scrambled_semantic"":""8"",""num_scrambled_causal"":""4"",""num_scrambled_schematic"":""4"",""participantId"":""0E7FE8DDAD4645F8AACC65158ED9326B"",""assignmentId"":""c6ae9813-7a4a-4592-81ac-f95a2491a847"",""projectId"":""a9f3d40c-5730-405c-b25e-1034c4c56f3f""}","https://test12345.live/?num_scrambled_semantic=8&num_scrambled_causal=4&num_scrambled_schematic=4&participantId=0E7FE8DDAD4645F8AACC65158ED9326B&assignmentId=c6ae9813-7a4a-4592-81ac-f95a2491a847&projectId=a9f3d40c-5730-405c-b25e-1034c4c56f3f","0E7FE8DDAD4645F8AACC65158ED9326B-2025-08-07-19-07-18","","1315","","images/causal_sequence/saving_a_cat_causal/saving_a_cat_causal_3.png","1","",""
"","","","","","image-button-response","45","169073","0.0-10.0-1.0-2.6","0E7FE8DDAD4645F8AACC65158ED9326B","0E7FE8DDAD4645F8AACC65158ED9326B","c6ae9813-7a4a-4592-81ac-f95a2491a847","a9f3d40c-5730-405c-b25e-1034c4c56f3f","{""num_scrambled_semantic"":""8"",""num_scrambled_causal"":""4"",""num_scrambled_schematic"":""4"",""participantId"":""0E7FE8DDAD4645F8AACC65158ED9326B"",""assignmentId"":""c6ae9813-7a4a-4592-81ac-f95a2491a847"",""projectId"":""a9f3d40c-5730-405c-b25e-1034c4c56f3f""}","https://test12345.live/?num_scrambled_semantic=8&num_scrambled_causal=4&num_scrambled_schematic=4&participantId=0E7FE8DDAD4645F8AACC65158ED9326B&assignmentId=c6ae9813-7a4a-4592-81ac-f95a2491a847&projectId=a9f3d40c-5730-405c-b25e-1034c4c56f3f","0E7FE8DDAD4645F8AACC65158ED9326B-2025-08-07-19-07-18","","null","","[]","null","",""
"","","","","","image-button-response","46","173579","0.0-10.0-1.0-0.7","0E7FE8DDAD4645F8AACC65158ED9326B","0E7FE8DDAD4645F8AACC65158ED9326B","c6ae9813-7a4a-4592-81ac-f95a2491a847","a9f3d40c-5730-405c-b25e-1034c4c56f3f","{""num_scrambled_semantic"":""8"",""num_scrambled_causal"":""4"",""num_scrambled_schematic"":""4"",""participantId"":""0E7FE8DDAD4645F8AACC65158ED9326B"",""assignmentId"":""c6ae9813-7a4a-4592-81ac-f95a2491a847"",""projectId"":""a9f3d40c-5730-405c-b25e-1034c4c56f3f""}","https://test12345.live/?num_scrambled_semantic=8&num_scrambled_causal=4&num_scrambled_schematic=4&participantId=0E7FE8DDAD4645F8AACC65158ED9326B&assignmentId=c6ae9813-7a4a-4592-81ac-f95a2491a847&projectId=a9f3d40c-5730-405c-b25e-1034c4c56f3f","0E7FE8DDAD4645F8AACC65158ED9326B-2025-08-07-19-07-18","","null","","images/causal_sequence/saving_a_cat_causal/saving_a_cat_causal_8.png","null","",""
"","","","","","image-button-response","47","177411","0.0-10.0-1.0-1.7","0E7FE8DDAD4645F8AACC65158ED9326B","0E7FE8DDAD4645F8AACC65158ED9326B","c6ae9813-7a4a-4592-81ac-f95a2491a847","a9f3d40c-5730-405c-b25e-1034c4c56f3f","{""num_scrambled_semantic"":""8"",""num_scrambled_causal"":""4"",""num_scrambled_schematic"":""4"",""participantId"":""0E7FE8DDAD4645F8AACC65158ED9326B"",""assignmentId"":""c6ae9813-7a4a-4592-81ac-f95a2491a847"",""projectId"":""a9f3d40c-5730-405c-b25e-1034c4c56f3f""}","https://test12345.live/?num_scrambled_semantic=8&num_scrambled_causal=4&num_scrambled_schematic=4&participantId=0E7FE8DDAD4645F8AACC65158ED9326B&assignmentId=c6ae9813-7a4a-4592-81ac-f95a2491a847&projectId=a9f3d40c-5730-405c-b25e-1034c4c56f3f","0E7FE8DDAD4645F8AACC65158ED9326B-2025-08-07-19-07-18","","3829","","images/causal_sequence/saving_a_cat_causal/saving_a_cat_causal_8.png","0","",""
"","","","","","image-button-response","48","179218","0.0-10.0-1.0-2.7","0E7FE8DDAD4645F8AACC65158ED9326B","0E7FE8DDAD4645F8AACC65158ED9326B","c6ae9813-7a4a-4592-81ac-f95a2491a847","a9f3d40c-5730-405c-b25e-1034c4c56f3f","{""num_scrambled_semantic"":""8"",""num_scrambled_causal"":""4"",""num_scrambled_schematic"":""4"",""participantId"":""0E7FE8DDAD4645F8AACC65158ED9326B"",""assignmentId"":""c6ae9813-7a4a-4592-81ac-f95a2491a847"",""projectId"":""a9f3d40c-5730-405c-b25e-1034c4c56f3f""}","https://test12345.live/?num_scrambled_semantic=8&num_scrambled_causal=4&num_scrambled_schematic=4&participantId=0E7FE8DDAD4645F8AACC65158ED9326B&assignmentId=c6ae9813-7a4a-4592-81ac-f95a2491a847&projectId=a9f3d40c-5730-405c-b25e-1034c4c56f3f","0E7FE8DDAD4645F8AACC65158ED9326B-2025-08-07-19-07-18","","null","","[]","null","",""
"","","","","","image-button-response","49","183723","0.0-10.0-1.0-0.8","0E7FE8DDAD4645F8AACC65158ED9326B","0E7FE8DDAD4645F8AACC65158ED9326B","c6ae9813-7a4a-4592-81ac-f95a2491a847","a9f3d40c-5730-405c-b25e-1034c4c56f3f","{""num_scrambled_semantic"":""8"",""num_scrambled_causal"":""4"",""num_scrambled_schematic"":""4"",""participantId"":""0E7FE8DDAD4645F8AACC65158ED9326B"",""assignmentId"":""c6ae9813-7a4a-4592-81ac-f95a2491a847"",""projectId"":""a9f3d40c-5730-405c-b25e-1034c4c56f3f""}","https://test12345.live/?num_scrambled_semantic=8&num_scrambled_causal=4&num_scrambled_schematic=4&participantId=0E7FE8DDAD4645F8AACC65158ED9326B&assignmentId=c6ae9813-7a4a-4592-81ac-f95a2491a847&projectId=a9f3d40c-5730-405c-b25e-1034c4c56f3f","0E7FE8DDAD4645F8AACC65158ED9326B-2025-08-07-19-07-18","","null","","images/causal_sequence/saving_a_cat_causal/saving_a_cat_causal_5.png","null","",""
"","","","","","image-button-response","50","185282","0.0-10.0-1.0-1.8","0E7FE8DDAD4645F8AACC65158ED9326B","0E7FE8DDAD4645F8AACC65158ED9326B","c6ae9813-7a4a-4592-81ac-f95a2491a847","a9f3d40c-5730-405c-b25e-1034c4c56f3f","{""num_scrambled_semantic"":""8"",""num_scrambled_causal"":""4"",""num_scrambled_schematic"":""4"",""participantId"":""0E7FE8DDAD4645F8AACC65158ED9326B"",""assignmentId"":""c6ae9813-7a4a-4592-81ac-f95a2491a847"",""projectId"":""a9f3d40c-5730-405c-b25e-1034c4c56f3f""}","https://test12345.live/?num_scrambled_semantic=8&num_scrambled_causal=4&num_scrambled_schematic=4&participantId=0E7FE8DDAD4645F8AACC65158ED9326B&assignmentId=c6ae9813-7a4a-4592-81ac-f95a2491a847&projectId=a9f3d40c-5730-405c-b25e-1034c4c56f3f","0E7FE8DDAD4645F8AACC65158ED9326B-2025-08-07-19-07-18","","1557","","images/causal_sequence/saving_a_cat_causal/saving_a_cat_causal_5.png","0","",""
"","","","","","image-button-response","51","187089","0.0-10.0-1.0-2.8","0E7FE8DDAD4645F8AACC65158ED9326B","0E7FE8DDAD4645F8AACC65158ED9326B","c6ae9813-7a4a-4592-81ac-f95a2491a847","a9f3d40c-5730-405c-b25e-1034c4c56f3f","{""num_scrambled_semantic"":""8"",""num_scrambled_causal"":""4"",""num_scrambled_schematic"":""4"",""participantId"":""0E7FE8DDAD4645F8AACC65158ED9326B"",""assignmentId"":""c6ae9813-7a4a-4592-81ac-f95a2491a847"",""projectId"":""a9f3d40c-5730-405c-b25e-1034c4c56f3f""}","https://test12345.live/?num_scrambled_semantic=8&num_scrambled_causal=4&num_scrambled_schematic=4&participantId=0E7FE8DDAD4645F8AACC65158ED9326B&assignmentId=c6ae9813-7a4a-4592-81ac-f95a2491a847&projectId=a9f3d40c-5730-405c-b25e-1034c4c56f3f","0E7FE8DDAD4645F8AACC65158ED9326B-2025-08-07-19-07-18","","null","","[]","null","",""
"","","","","","image-button-response","52","191593","0.0-10.0-1.0-0.9","0E7FE8DDAD4645F8AACC65158ED9326B","0E7FE8DDAD4645F8AACC65158ED9326B","c6ae9813-7a4a-4592-81ac-f95a2491a847","a9f3d40c-5730-405c-b25e-1034c4c56f3f","{""num_scrambled_semantic"":""8"",""num_scrambled_causal"":""4"",""num_scrambled_schematic"":""4"",""participantId"":""0E7FE8DDAD4645F8AACC65158ED9326B"",""assignmentId"":""c6ae9813-7a4a-4592-81ac-f95a2491a847"",""projectId"":""a9f3d40c-5730-405c-b25e-1034c4c56f3f""}","https://test12345.live/?num_scrambled_semantic=8&num_scrambled_causal=4&num_scrambled_schematic=4&participantId=0E7FE8DDAD4645F8AACC65158ED9326B&assignmentId=c6ae9813-7a4a-4592-81ac-f95a2491a847&projectId=a9f3d40c-5730-405c-b25e-1034c4c56f3f","0E7FE8DDAD4645F8AACC65158ED9326B-2025-08-07-19-07-18","","null","","images/causal_sequence/saving_a_cat_causal/saving_a_cat_causal_2.png","null","",""
"","","","","","image-button-response","53","195599","0.0-10.0-1.0-1.9","0E7FE8DDAD4645F8AACC65158ED9326B","0E7FE8DDAD4645F8AACC65158ED9326B","c6ae9813-7a4a-4592-81ac-f95a2491a847","a9f3d40c-5730-405c-b25e-1034c4c56f3f","{""num_scrambled_semantic"":""8"",""num_scrambled_causal"":""4"",""num_scrambled_schematic"":""4"",""participantId"":""0E7FE8DDAD4645F8AACC65158ED9326B"",""assignmentId"":""c6ae9813-7a4a-4592-81ac-f95a2491a847"",""projectId"":""a9f3d40c-5730-405c-b25e-1034c4c56f3f""}","https://test12345.live/?num_scrambled_semantic=8&num_scrambled_causal=4&num_scrambled_schematic=4&participantId=0E7FE8DDAD4645F8AACC65158ED9326B&assignmentId=c6ae9813-7a4a-4592-81ac-f95a2491a847&projectId=a9f3d40c-5730-405c-b25e-1034c4c56f3f","0E7FE8DDAD4645F8AACC65158ED9326B-2025-08-07-19-07-18","","null","","images/causal_sequence/saving_a_cat_causal/saving_a_cat_causal_2.png","null","",""
"","","","","","image-button-response","54","197403","0.0-10.0-1.0-2.9","0E7FE8DDAD4645F8AACC65158ED9326B","0E7FE8DDAD4645F8AACC65158ED9326B","c6ae9813-7a4a-4592-81ac-f95a2491a847","a9f3d40c-5730-405c-b25e-1034c4c56f3f","{""num_scrambled_semantic"":""8"",""num_scrambled_causal"":""4"",""num_scrambled_schematic"":""4"",""participantId"":""0E7FE8DDAD4645F8AACC65158ED9326B"",""assignmentId"":""c6ae9813-7a4a-4592-81ac-f95a2491a847"",""projectId"":""a9f3d40c-5730-405c-b25e-1034c4c56f3f""}","https://test12345.live/?num_scrambled_semantic=8&num_scrambled_causal=4&num_scrambled_schematic=4&participantId=0E7FE8DDAD4645F8AACC65158ED9326B&assignmentId=c6ae9813-7a4a-4592-81ac-f95a2491a847&projectId=a9f3d40c-5730-405c-b25e-1034c4c56f3f","0E7FE8DDAD4645F8AACC65158ED9326B-2025-08-07-19-07-18","","null","","[]","null","",""
"","","","","","html-audio-response","55","247666","0.0-11.0","0E7FE8DDAD4645F8AACC65158ED9326B","0E7FE8DDAD4645F8AACC65158ED9326B","c6ae9813-7a4a-4592-81ac-f95a2491a847","a9f3d40c-5730-405c-b25e-1034c4c56f3f","{""num_scrambled_semantic"":""8"",""num_scrambled_causal"":""4"",""num_scrambled_schematic"":""4"",""participantId"":""0E7FE8DDAD4645F8AACC65158ED9326B"",""assignmentId"":""c6ae9813-7a4a-4592-81ac-f95a2491a847"",""projectId"":""a9f3d40c-5730-405c-b25e-1034c4c56f3f""}","https://test12345.live/?num_scrambled_semantic=8&num_scrambled_causal=4&num_scrambled_schematic=4&participantId=0E7FE8DDAD4645F8AACC65158ED9326B&assignmentId=c6ae9813-7a4a-4592-81ac-f95a2491a847&projectId=a9f3d40c-5730-405c-b25e-1034c4c56f3f","0E7FE8DDAD4645F8AACC65158ED9326B-2025-08-07-19-07-18","","34287","","[""<span style=\""color: red; font-size: 24px\""> NOW RECORDING</span><p>Please say out loud all the images you saw, as many as you can remember. The images can be said in any order.</p>""]","","2","saving_a_cat_causal"
"","","","","","image-button-response","56","253683","0.0-12.0-0.0","0E7FE8DDAD4645F8AACC65158ED9326B","0E7FE8DDAD4645F8AACC65158ED9326B","c6ae9813-7a4a-4592-81ac-f95a2491a847","a9f3d40c-5730-405c-b25e-1034c4c56f3f","{""num_scrambled_semantic"":""8"",""num_scrambled_causal"":""4"",""num_scrambled_schematic"":""4"",""participantId"":""0E7FE8DDAD4645F8AACC65158ED9326B"",""assignmentId"":""c6ae9813-7a4a-4592-81ac-f95a2491a847"",""projectId"":""a9f3d40c-5730-405c-b25e-1034c4c56f3f""}","https://test12345.live/?num_scrambled_semantic=8&num_scrambled_causal=4&num_scrambled_schematic=4&participantId=0E7FE8DDAD4645F8AACC65158ED9326B&assignmentId=c6ae9813-7a4a-4592-81ac-f95a2491a847&projectId=a9f3d40c-5730-405c-b25e-1034c4c56f3f","0E7FE8DDAD4645F8AACC65158ED9326B-2025-08-07-19-07-18","","null","","images/semantic_sequence/maintaining_a_car_semantic/maintaining_a_car_semantic_0.png","null","",""
"","","","","","image-button-response","57","258189","0.0-12.0-1.0-0.0","0E7FE8DDAD4645F8AACC65158ED9326B","0E7FE8DDAD4645F8AACC65158ED9326B","c6ae9813-7a4a-4592-81ac-f95a2491a847","a9f3d40c-5730-405c-b25e-1034c4c56f3f","{""num_scrambled_semantic"":""8"",""num_scrambled_causal"":""4"",""num_scrambled_schematic"":""4"",""participantId"":""0E7FE8DDAD4645F8AACC65158ED9326B"",""assignmentId"":""c6ae9813-7a4a-4592-81ac-f95a2491a847"",""projectId"":""a9f3d40c-5730-405c-b25e-1034c4c56f3f""}","https://test12345.live/?num_scrambled_semantic=8&num_scrambled_causal=4&num_scrambled_schematic=4&participantId=0E7FE8DDAD4645F8AACC65158ED9326B&assignmentId=c6ae9813-7a4a-4592-81ac-f95a2491a847&projectId=a9f3d40c-5730-405c-b25e-1034c4c56f3f","0E7FE8DDAD4645F8AACC65158ED9326B-2025-08-07-19-07-18","","null","","images/semantic_sequence/maintaining_a_car_semantic/maintaining_a_car_semantic_2.png","null","",""
"","","","","","image-button-response","58","259413","0.0-12.0-1.0-1.0","0E7FE8DDAD4645F8AACC65158ED9326B","0E7FE8DDAD4645F8AACC65158ED9326B","c6ae9813-7a4a-4592-81ac-f95a2491a847","a9f3d40c-5730-405c-b25e-1034c4c56f3f","{""num_scrambled_semantic"":""8"",""num_scrambled_causal"":""4"",""num_scrambled_schematic"":""4"",""participantId"":""0E7FE8DDAD4645F8AACC65158ED9326B"",""assignmentId"":""c6ae9813-7a4a-4592-81ac-f95a2491a847"",""projectId"":""a9f3d40c-5730-405c-b25e-1034c4c56f3f""}","https://test12345.live/?num_scrambled_semantic=8&num_scrambled_causal=4&num_scrambled_schematic=4&participantId=0E7FE8DDAD4645F8AACC65158ED9326B&assignmentId=c6ae9813-7a4a-4592-81ac-f95a2491a847&projectId=a9f3d40c-5730-405c-b25e-1034c4c56f3f","0E7FE8DDAD4645F8AACC65158ED9326B-2025-08-07-19-07-18","","1222","","images/semantic_sequence/maintaining_a_car_semantic/maintaining_a_car_semantic_2.png","0","",""
"","","","","","image-button-response","59","261219","0.0-12.0-1.0-2.0","0E7FE8DDAD4645F8AACC65158ED9326B","0E7FE8DDAD4645F8AACC65158ED9326B","c6ae9813-7a4a-4592-81ac-f95a2491a847","a9f3d40c-5730-405c-b25e-1034c4c56f3f","{""num_scrambled_semantic"":""8"",""num_scrambled_causal"":""4"",""num_scrambled_schematic"":""4"",""participantId"":""0E7FE8DDAD4645F8AACC65158ED9326B"",""assignmentId"":""c6ae9813-7a4a-4592-81ac-f95a2491a847"",""projectId"":""a9f3d40c-5730-405c-b25e-1034c4c56f3f""}","https://test12345.live/?num_scrambled_semantic=8&num_scrambled_causal=4&num_scrambled_schematic=4&participantId=0E7FE8DDAD4645F8AACC65158ED9326B&assignmentId=c6ae9813-7a4a-4592-81ac-f95a2491a847&projectId=a9f3d40c-5730-405c-b25e-1034c4c56f3f","0E7FE8DDAD4645F8AACC65158ED9326B-2025-08-07-19-07-18","","null","","[]","null","",""
"","","","","","image-button-response","60","265723","0.0-12.0-1.0-0.1","0E7FE8DDAD4645F8AACC65158ED9326B","0E7FE8DDAD4645F8AACC65158ED9326B","c6ae9813-7a4a-4592-81ac-f95a2491a847","a9f3d40c-5730-405c-b25e-1034c4c56f3f","{""num_scrambled_semantic"":""8"",""num_scrambled_causal"":""4"",""num_scrambled_schematic"":""4"",""participantId"":""0E7FE8DDAD4645F8AACC65158ED9326B"",""assignmentId"":""c6ae9813-7a4a-4592-81ac-f95a2491a847"",""projectId"":""a9f3d40c-5730-405c-b25e-1034c4c56f3f""}","https://test12345.live/?num_scrambled_semantic=8&num_scrambled_causal=4&num_scrambled_schematic=4&participantId=0E7FE8DDAD4645F8AACC65158ED9326B&assignmentId=c6ae9813-7a4a-4592-81ac-f95a2491a847&projectId=a9f3d40c-5730-405c-b25e-1034c4c56f3f","0E7FE8DDAD4645F8AACC65158ED9326B-2025-08-07-19-07-18","","null","","images/semantic_sequence/maintaining_a_car_semantic/maintaining_a_car_semantic_5.png","null","",""
"","","","","","image-button-response","61","266667","0.0-12.0-1.0-1.1","0E7FE8DDAD4645F8AACC65158ED9326B","0E7FE8DDAD4645F8AACC65158ED9326B","c6ae9813-7a4a-4592-81ac-f95a2491a847","a9f3d40c-5730-405c-b25e-1034c4c56f3f","{""num_scrambled_semantic"":""8"",""num_scrambled_causal"":""4"",""num_scrambled_schematic"":""4"",""participantId"":""0E7FE8DDAD4645F8AACC65158ED9326B"",""assignmentId"":""c6ae9813-7a4a-4592-81ac-f95a2491a847"",""projectId"":""a9f3d40c-5730-405c-b25e-1034c4c56f3f""}","https://test12345.live/?num_scrambled_semantic=8&num_scrambled_causal=4&num_scrambled_schematic=4&participantId=0E7FE8DDAD4645F8AACC65158ED9326B&assignmentId=c6ae9813-7a4a-4592-81ac-f95a2491a847&projectId=a9f3d40c-5730-405c-b25e-1034c4c56f3f","0E7FE8DDAD4645F8AACC65158ED9326B-2025-08-07-19-07-18","","941","","images/semantic_sequence/maintaining_a_car_semantic/maintaining_a_car_semantic_5.png","0","",""
"","","","","","image-button-response","62","268473","0.0-12.0-1.0-2.1","0E7FE8DDAD4645F8AACC65158ED9326B","0E7FE8DDAD4645F8AACC65158ED9326B","c6ae9813-7a4a-4592-81ac-f95a2491a847","a9f3d40c-5730-405c-b25e-1034c4c56f3f","{""num_scrambled_semantic"":""8"",""num_scrambled_causal"":""4"",""num_scrambled_schematic"":""4"",""participantId"":""0E7FE8DDAD4645F8AACC65158ED9326B"",""assignmentId"":""c6ae9813-7a4a-4592-81ac-f95a2491a847"",""projectId"":""a9f3d40c-5730-405c-b25e-1034c4c56f3f""}","https://test12345.live/?num_scrambled_semantic=8&num_scrambled_causal=4&num_scrambled_schematic=4&participantId=0E7FE8DDAD4645F8AACC65158ED9326B&assignmentId=c6ae9813-7a4a-4592-81ac-f95a2491a847&projectId=a9f3d40c-5730-405c-b25e-1034c4c56f3f","0E7FE8DDAD4645F8AACC65158ED9326B-2025-08-07-19-07-18","","null","","[]","null","",""
"","","","","","image-button-response","63","272979","0.0-12.0-1.0-0.2","0E7FE8DDAD4645F8AACC65158ED9326B","0E7FE8DDAD4645F8AACC65158ED9326B","c6ae9813-7a4a-4592-81ac-f95a2491a847","a9f3d40c-5730-405c-b25e-1034c4c56f3f","{""num_scrambled_semantic"":""8"",""num_scrambled_causal"":""4"",""num_scrambled_schematic"":""4"",""participantId"":""0E7FE8DDAD4645F8AACC65158ED9326B"",""assignmentId"":""c6ae9813-7a4a-4592-81ac-f95a2491a847"",""projectId"":""a9f3d40c-5730-405c-b25e-1034c4c56f3f""}","https://test12345.live/?num_scrambled_semantic=8&num_scrambled_causal=4&num_scrambled_schematic=4&participantId=0E7FE8DDAD4645F8AACC65158ED9326B&assignmentId=c6ae9813-7a4a-4592-81ac-f95a2491a847&projectId=a9f3d40c-5730-405c-b25e-1034c4c56f3f","0E7FE8DDAD4645F8AACC65158ED9326B-2025-08-07-19-07-18","","null","","images/semantic_sequence/maintaining_a_car_semantic/maintaining_a_car_semantic_9.png","null","",""
"","","","","","image-button-response","64","273601","0.0-12.0-1.0-1.2","0E7FE8DDAD4645F8AACC65158ED9326B","0E7FE8DDAD4645F8AACC65158ED9326B","c6ae9813-7a4a-4592-81ac-f95a2491a847","a9f3d40c-5730-405c-b25e-1034c4c56f3f","{""num_scrambled_semantic"":""8"",""num_scrambled_causal"":""4"",""num_scrambled_schematic"":""4"",""participantId"":""0E7FE8DDAD4645F8AACC65158ED9326B"",""assignmentId"":""c6ae9813-7a4a-4592-81ac-f95a2491a847"",""projectId"":""a9f3d40c-5730-405c-b25e-1034c4c56f3f""}","https://test12345.live/?num_scrambled_semantic=8&num_scrambled_causal=4&num_scrambled_schematic=4&participantId=0E7FE8DDAD4645F8AACC65158ED9326B&assignmentId=c6ae9813-7a4a-4592-81ac-f95a2491a847&projectId=a9f3d40c-5730-405c-b25e-1034c4c56f3f","0E7FE8DDAD4645F8AACC65158ED9326B-2025-08-07-19-07-18","","621","","images/semantic_sequence/maintaining_a_car_semantic/maintaining_a_car_semantic_9.png","0","",""
"","","","","","image-button-response","65","275408","0.0-12.0-1.0-2.2","0E7FE8DDAD4645F8AACC65158ED9326B","0E7FE8DDAD4645F8AACC65158ED9326B","c6ae9813-7a4a-4592-81ac-f95a2491a847","a9f3d40c-5730-405c-b25e-1034c4c56f3f","{""num_scrambled_semantic"":""8"",""num_scrambled_causal"":""4"",""num_scrambled_schematic"":""4"",""participantId"":""0E7FE8DDAD4645F8AACC65158ED9326B"",""assignmentId"":""c6ae9813-7a4a-4592-81ac-f95a2491a847"",""projectId"":""a9f3d40c-5730-405c-b25e-1034c4c56f3f""}","https://test12345.live/?num_scrambled_semantic=8&num_scrambled_causal=4&num_scrambled_schematic=4&participantId=0E7FE8DDAD4645F8AACC65158ED9326B&assignmentId=c6ae9813-7a4a-4592-81ac-f95a2491a847&projectId=a9f3d40c-5730-405c-b25e-1034c4c56f3f","0E7FE8DDAD4645F8AACC65158ED9326B-2025-08-07-19-07-18","","null","","[]","null","",""
"","","","","","image-button-response","66","279913","0.0-12.0-1.0-0.3","0E7FE8DDAD4645F8AACC65158ED9326B","0E7FE8DDAD4645F8AACC65158ED9326B","c6ae9813-7a4a-4592-81ac-f95a2491a847","a9f3d40c-5730-405c-b25e-1034c4c56f3f","{""num_scrambled_semantic"":""8"",""num_scrambled_causal"":""4"",""num_scrambled_schematic"":""4"",""participantId"":""0E7FE8DDAD4645F8AACC65158ED9326B"",""assignmentId"":""c6ae9813-7a4a-4592-81ac-f95a2491a847"",""projectId"":""a9f3d40c-5730-405c-b25e-1034c4c56f3f""}","https://test12345.live/?num_scrambled_semantic=8&num_scrambled_causal=4&num_scrambled_schematic=4&participantId=0E7FE8DDAD4645F8AACC65158ED9326B&assignmentId=c6ae9813-7a4a-4592-81ac-f95a2491a847&projectId=a9f3d40c-5730-405c-b25e-1034c4c56f3f","0E7FE8DDAD4645F8AACC65158ED9326B-2025-08-07-19-07-18","","null","","images/semantic_sequence/maintaining_a_car_semantic/maintaining_a_car_semantic_6.png","null","",""
"","","","","","image-button-response","67","280854","0.0-12.0-1.0-1.3","0E7FE8DDAD4645F8AACC65158ED9326B","0E7FE8DDAD4645F8AACC65158ED9326B","c6ae9813-7a4a-4592-81ac-f95a2491a847","a9f3d40c-5730-405c-b25e-1034c4c56f3f","{""num_scrambled_semantic"":""8"",""num_scrambled_causal"":""4"",""num_scrambled_schematic"":""4"",""participantId"":""0E7FE8DDAD4645F8AACC65158ED9326B"",""assignmentId"":""c6ae9813-7a4a-4592-81ac-f95a2491a847"",""projectId"":""a9f3d40c-5730-405c-b25e-1034c4c56f3f""}","https://test12345.live/?num_scrambled_semantic=8&num_scrambled_causal=4&num_scrambled_schematic=4&participantId=0E7FE8DDAD4645F8AACC65158ED9326B&assignmentId=c6ae9813-7a4a-4592-81ac-f95a2491a847&projectId=a9f3d40c-5730-405c-b25e-1034c4c56f3f","0E7FE8DDAD4645F8AACC65158ED9326B-2025-08-07-19-07-18","","939","","images/semantic_sequence/maintaining_a_car_semantic/maintaining_a_car_semantic_6.png","0","",""
"","","","","","image-button-response","68","282659","0.0-12.0-1.0-2.3","0E7FE8DDAD4645F8AACC65158ED9326B","0E7FE8DDAD4645F8AACC65158ED9326B","c6ae9813-7a4a-4592-81ac-f95a2491a847","a9f3d40c-5730-405c-b25e-1034c4c56f3f","{""num_scrambled_semantic"":""8"",""num_scrambled_causal"":""4"",""num_scrambled_schematic"":""4"",""participantId"":""0E7FE8DDAD4645F8AACC65158ED9326B"",""assignmentId"":""c6ae9813-7a4a-4592-81ac-f95a2491a847"",""projectId"":""a9f3d40c-5730-405c-b25e-1034c4c56f3f""}","https://test12345.live/?num_scrambled_semantic=8&num_scrambled_causal=4&num_scrambled_schematic=4&participantId=0E7FE8DDAD4645F8AACC65158ED9326B&assignmentId=c6ae9813-7a4a-4592-81ac-f95a2491a847&projectId=a9f3d40c-5730-405c-b25e-1034c4c56f3f","0E7FE8DDAD4645F8AACC65158ED9326B-2025-08-07-19-07-18","","null","","[]","null","",""
"","","","","","image-button-response","69","287163","0.0-12.0-1.0-0.4","0E7FE8DDAD4645F8AACC65158ED9326B","0E7FE8DDAD4645F8AACC65158ED9326B","c6ae9813-7a4a-4592-81ac-f95a2491a847","a9f3d40c-5730-405c-b25e-1034c4c56f3f","{""num_scrambled_semantic"":""8"",""num_scrambled_causal"":""4"",""num_scrambled_schematic"":""4"",""participantId"":""0E7FE8DDAD4645F8AACC65158ED9326B"",""assignmentId"":""c6ae9813-7a4a-4592-81ac-f95a2491a847"",""projectId"":""a9f3d40c-5730-405c-b25e-1034c4c56f3f""}","https://test12345.live/?num_scrambled_semantic=8&num_scrambled_causal=4&num_scrambled_schematic=4&participantId=0E7FE8DDAD4645F8AACC65158ED9326B&assignmentId=c6ae9813-7a4a-4592-81ac-f95a2491a847&projectId=a9f3d40c-5730-405c-b25e-1034c4c56f3f","0E7FE8DDAD4645F8AACC65158ED9326B-2025-08-07-19-07-18","","null","","images/semantic_sequence/maintaining_a_car_semantic/maintaining_a_car_semantic_4.png","null","",""
"","","","","","image-button-response","70","287989","0.0-12.0-1.0-1.4","0E7FE8DDAD4645F8AACC65158ED9326B","0E7FE8DDAD4645F8AACC65158ED9326B","c6ae9813-7a4a-4592-81ac-f95a2491a847","a9f3d40c-5730-405c-b25e-1034c4c56f3f","{""num_scrambled_semantic"":""8"",""num_scrambled_causal"":""4"",""num_scrambled_schematic"":""4"",""participantId"":""0E7FE8DDAD4645F8AACC65158ED9326B"",""assignmentId"":""c6ae9813-7a4a-4592-81ac-f95a2491a847"",""projectId"":""a9f3d40c-5730-405c-b25e-1034c4c56f3f""}","https://test12345.live/?num_scrambled_semantic=8&num_scrambled_causal=4&num_scrambled_schematic=4&participantId=0E7FE8DDAD4645F8AACC65158ED9326B&assignmentId=c6ae9813-7a4a-4592-81ac-f95a2491a847&projectId=a9f3d40c-5730-405c-b25e-1034c4c56f3f","0E7FE8DDAD4645F8AACC65158ED9326B-2025-08-07-19-07-18","","825","","images/semantic_sequence/maintaining_a_car_semantic/maintaining_a_car_semantic_4.png","0","",""
"","","","","","image-button-response","71","289794","0.0-12.0-1.0-2.4","0E7FE8DDAD4645F8AACC65158ED9326B","0E7FE8DDAD4645F8AACC65158ED9326B","c6ae9813-7a4a-4592-81ac-f95a2491a847","a9f3d40c-5730-405c-b25e-1034c4c56f3f","{""num_scrambled_semantic"":""8"",""num_scrambled_causal"":""4"",""num_scrambled_schematic"":""4"",""participantId"":""0E7FE8DDAD4645F8AACC65158ED9326B"",""assignmentId"":""c6ae9813-7a4a-4592-81ac-f95a2491a847"",""projectId"":""a9f3d40c-5730-405c-b25e-1034c4c56f3f""}","https://test12345.live/?num_scrambled_semantic=8&num_scrambled_causal=4&num_scrambled_schematic=4&participantId=0E7FE8DDAD4645F8AACC65158ED9326B&assignmentId=c6ae9813-7a4a-4592-81ac-f95a2491a847&projectId=a9f3d40c-5730-405c-b25e-1034c4c56f3f","0E7FE8DDAD4645F8AACC65158ED9326B-2025-08-07-19-07-18","","null","","[]","null","",""
"","","","","","image-button-response","72","294299","0.0-12.0-1.0-0.5","0E7FE8DDAD4645F8AACC65158ED9326B","0E7FE8DDAD4645F8AACC65158ED9326B","c6ae9813-7a4a-4592-81ac-f95a2491a847","a9f3d40c-5730-405c-b25e-1034c4c56f3f","{""num_scrambled_semantic"":""8"",""num_scrambled_causal"":""4"",""num_scrambled_schematic"":""4"",""participantId"":""0E7FE8DDAD4645F8AACC65158ED9326B"",""assignmentId"":""c6ae9813-7a4a-4592-81ac-f95a2491a847"",""projectId"":""a9f3d40c-5730-405c-b25e-1034c4c56f3f""}","https://test12345.live/?num_scrambled_semantic=8&num_scrambled_causal=4&num_scrambled_schematic=4&participantId=0E7FE8DDAD4645F8AACC65158ED9326B&assignmentId=c6ae9813-7a4a-4592-81ac-f95a2491a847&projectId=a9f3d40c-5730-405c-b25e-1034c4c56f3f","0E7FE8DDAD4645F8AACC65158ED9326B-2025-08-07-19-07-18","","null","","images/semantic_sequence/maintaining_a_car_semantic/maintaining_a_car_semantic_8.png","null","",""
"","","","","","image-button-response","73","294808","0.0-12.0-1.0-1.5","0E7FE8DDAD4645F8AACC65158ED9326B","0E7FE8DDAD4645F8AACC65158ED9326B","c6ae9813-7a4a-4592-81ac-f95a2491a847","a9f3d40c-5730-405c-b25e-1034c4c56f3f","{""num_scrambled_semantic"":""8"",""num_scrambled_causal"":""4"",""num_scrambled_schematic"":""4"",""participantId"":""0E7FE8DDAD4645F8AACC65158ED9326B"",""assignmentId"":""c6ae9813-7a4a-4592-81ac-f95a2491a847"",""projectId"":""a9f3d40c-5730-405c-b25e-1034c4c56f3f""}","https://test12345.live/?num_scrambled_semantic=8&num_scrambled_causal=4&num_scrambled_schematic=4&participantId=0E7FE8DDAD4645F8AACC65158ED9326B&assignmentId=c6ae9813-7a4a-4592-81ac-f95a2491a847&projectId=a9f3d40c-5730-405c-b25e-1034c4c56f3f","0E7FE8DDAD4645F8AACC65158ED9326B-2025-08-07-19-07-18","","506","","images/semantic_sequence/maintaining_a_car_semantic/maintaining_a_car_semantic_8.png","0","",""
"","","","","","image-button-response","74","296613","0.0-12.0-1.0-2.5","0E7FE8DDAD4645F8AACC65158ED9326B","0E7FE8DDAD4645F8AACC65158ED9326B","c6ae9813-7a4a-4592-81ac-f95a2491a847","a9f3d40c-5730-405c-b25e-1034c4c56f3f","{""num_scrambled_semantic"":""8"",""num_scrambled_causal"":""4"",""num_scrambled_schematic"":""4"",""participantId"":""0E7FE8DDAD4645F8AACC65158ED9326B"",""assignmentId"":""c6ae9813-7a4a-4592-81ac-f95a2491a847"",""projectId"":""a9f3d40c-5730-405c-b25e-1034c4c56f3f""}","https://test12345.live/?num_scrambled_semantic=8&num_scrambled_causal=4&num_scrambled_schematic=4&participantId=0E7FE8DDAD4645F8AACC65158ED9326B&assignmentId=c6ae9813-7a4a-4592-81ac-f95a2491a847&projectId=a9f3d40c-5730-405c-b25e-1034c4c56f3f","0E7FE8DDAD4645F8AACC65158ED9326B-2025-08-07-19-07-18","","null","","[]","null","",""
"","","","","","image-button-response","75","301119","0.0-12.0-1.0-0.6","0E7FE8DDAD4645F8AACC65158ED9326B","0E7FE8DDAD4645F8AACC65158ED9326B","c6ae9813-7a4a-4592-81ac-f95a2491a847","a9f3d40c-5730-405c-b25e-1034c4c56f3f","{""num_scrambled_semantic"":""8"",""num_scrambled_causal"":""4"",""num_scrambled_schematic"":""4"",""participantId"":""0E7FE8DDAD4645F8AACC65158ED9326B"",""assignmentId"":""c6ae9813-7a4a-4592-81ac-f95a2491a847"",""projectId"":""a9f3d40c-5730-405c-b25e-1034c4c56f3f""}","https://test12345.live/?num_scrambled_semantic=8&num_scrambled_causal=4&num_scrambled_schematic=4&participantId=0E7FE8DDAD4645F8AACC65158ED9326B&assignmentId=c6ae9813-7a4a-4592-81ac-f95a2491a847&projectId=a9f3d40c-5730-405c-b25e-1034c4c56f3f","0E7FE8DDAD4645F8AACC65158ED9326B-2025-08-07-19-07-18","","null","","images/semantic_sequence/maintaining_a_car_semantic/maintaining_a_car_semantic_1.png","null","",""
"","","","","","image-button-response","76","302796","0.0-12.0-1.0-1.6","0E7FE8DDAD4645F8AACC65158ED9326B","0E7FE8DDAD4645F8AACC65158ED9326B","c6ae9813-7a4a-4592-81ac-f95a2491a847","a9f3d40c-5730-405c-b25e-1034c4c56f3f","{""num_scrambled_semantic"":""8"",""num_scrambled_causal"":""4"",""num_scrambled_schematic"":""4"",""participantId"":""0E7FE8DDAD4645F8AACC65158ED9326B"",""assignmentId"":""c6ae9813-7a4a-4592-81ac-f95a2491a847"",""projectId"":""a9f3d40c-5730-405c-b25e-1034c4c56f3f""}","https://test12345.live/?num_scrambled_semantic=8&num_scrambled_causal=4&num_scrambled_schematic=4&participantId=0E7FE8DDAD4645F8AACC65158ED9326B&assignmentId=c6ae9813-7a4a-4592-81ac-f95a2491a847&projectId=a9f3d40c-5730-405c-b25e-1034c4c56f3f","0E7FE8DDAD4645F8AACC65158ED9326B-2025-08-07-19-07-18","","1675","","images/semantic_sequence/maintaining_a_car_semantic/maintaining_a_car_semantic_1.png","0","",""
"","","","","","image-button-response","77","304603","0.0-12.0-1.0-2.6","0E7FE8DDAD4645F8AACC65158ED9326B","0E7FE8DDAD4645F8AACC65158ED9326B","c6ae9813-7a4a-4592-81ac-f95a2491a847","a9f3d40c-5730-405c-b25e-1034c4c56f3f","{""num_scrambled_semantic"":""8"",""num_scrambled_causal"":""4"",""num_scrambled_schematic"":""4"",""participantId"":""0E7FE8DDAD4645F8AACC65158ED9326B"",""assignmentId"":""c6ae9813-7a4a-4592-81ac-f95a2491a847"",""projectId"":""a9f3d40c-5730-405c-b25e-1034c4c56f3f""}","https://test12345.live/?num_scrambled_semantic=8&num_scrambled_causal=4&num_scrambled_schematic=4&participantId=0E7FE8DDAD4645F8AACC65158ED9326B&assignmentId=c6ae9813-7a4a-4592-81ac-f95a2491a847&projectId=a9f3d40c-5730-405c-b25e-1034c4c56f3f","0E7FE8DDAD4645F8AACC65158ED9326B-2025-08-07-19-07-18","","null","","[]","null","",""
"","","","","","image-button-response","78","309109","0.0-12.0-1.0-0.7","0E7FE8DDAD4645F8AACC65158ED9326B","0E7FE8DDAD4645F8AACC65158ED9326B","c6ae9813-7a4a-4592-81ac-f95a2491a847","a9f3d40c-5730-405c-b25e-1034c4c56f3f","{""num_scrambled_semantic"":""8"",""num_scrambled_causal"":""4"",""num_scrambled_schematic"":""4"",""participantId"":""0E7FE8DDAD4645F8AACC65158ED9326B"",""assignmentId"":""c6ae9813-7a4a-4592-81ac-f95a2491a847"",""projectId"":""a9f3d40c-5730-405c-b25e-1034c4c56f3f""}","https://test12345.live/?num_scrambled_semantic=8&num_scrambled_causal=4&num_scrambled_schematic=4&participantId=0E7FE8DDAD4645F8AACC65158ED9326B&assignmentId=c6ae9813-7a4a-4592-81ac-f95a2491a847&projectId=a9f3d40c-5730-405c-b25e-1034c4c56f3f","0E7FE8DDAD4645F8AACC65158ED9326B-2025-08-07-19-07-18","","null","","images/semantic_sequence/maintaining_a_car_semantic/maintaining_a_car_semantic_3.png","null","",""
"","","","","","image-button-response","79","313113","0.0-12.0-1.0-1.7","0E7FE8DDAD4645F8AACC65158ED9326B","0E7FE8DDAD4645F8AACC65158ED9326B","c6ae9813-7a4a-4592-81ac-f95a2491a847","a9f3d40c-5730-405c-b25e-1034c4c56f3f","{""num_scrambled_semantic"":""8"",""num_scrambled_causal"":""4"",""num_scrambled_schematic"":""4"",""participantId"":""0E7FE8DDAD4645F8AACC65158ED9326B"",""assignmentId"":""c6ae9813-7a4a-4592-81ac-f95a2491a847"",""projectId"":""a9f3d40c-5730-405c-b25e-1034c4c56f3f""}","https://test12345.live/?num_scrambled_semantic=8&num_scrambled_causal=4&num_scrambled_schematic=4&participantId=0E7FE8DDAD4645F8AACC65158ED9326B&assignmentId=c6ae9813-7a4a-4592-81ac-f95a2491a847&projectId=a9f3d40c-5730-405c-b25e-1034c4c56f3f","0E7FE8DDAD4645F8AACC65158ED9326B-2025-08-07-19-07-18","","null","","images/semantic_sequence/maintaining_a_car_semantic/maintaining_a_car_semantic_3.png","null","",""
"","","","","","image-button-response","80","314919","0.0-12.0-1.0-2.7","0E7FE8DDAD4645F8AACC65158ED9326B","0E7FE8DDAD4645F8AACC65158ED9326B","c6ae9813-7a4a-4592-81ac-f95a2491a847","a9f3d40c-5730-405c-b25e-1034c4c56f3f","{""num_scrambled_semantic"":""8"",""num_scrambled_causal"":""4"",""num_scrambled_schematic"":""4"",""participantId"":""0E7FE8DDAD4645F8AACC65158ED9326B"",""assignmentId"":""c6ae9813-7a4a-4592-81ac-f95a2491a847"",""projectId"":""a9f3d40c-5730-405c-b25e-1034c4c56f3f""}","https://test12345.live/?num_scrambled_semantic=8&num_scrambled_causal=4&num_scrambled_schematic=4&participantId=0E7FE8DDAD4645F8AACC65158ED9326B&assignmentId=c6ae9813-7a4a-4592-81ac-f95a2491a847&projectId=a9f3d40c-5730-405c-b25e-1034c4c56f3f","0E7FE8DDAD4645F8AACC65158ED9326B-2025-08-07-19-07-18","","null","","[]","null","",""
"","","","","","image-button-response","81","319423","0.0-12.0-1.0-0.8","0E7FE8DDAD4645F8AACC65158ED9326B","0E7FE8DDAD4645F8AACC65158ED9326B","c6ae9813-7a4a-4592-81ac-f95a2491a847","a9f3d40c-5730-405c-b25e-1034c4c56f3f","{""num_scrambled_semantic"":""8"",""num_scrambled_causal"":""4"",""num_scrambled_schematic"":""4"",""participantId"":""0E7FE8DDAD4645F8AACC65158ED9326B"",""assignmentId"":""c6ae9813-7a4a-4592-81ac-f95a2491a847"",""projectId"":""a9f3d40c-5730-405c-b25e-1034c4c56f3f""}","https://test12345.live/?num_scrambled_semantic=8&num_scrambled_causal=4&num_scrambled_schematic=4&participantId=0E7FE8DDAD4645F8AACC65158ED9326B&assignmentId=c6ae9813-7a4a-4592-81ac-f95a2491a847&projectId=a9f3d40c-5730-405c-b25e-1034c4c56f3f","0E7FE8DDAD4645F8AACC65158ED9326B-2025-08-07-19-07-18","","null","","images/semantic_sequence/maintaining_a_car_semantic/maintaining_a_car_semantic_ten.png","null","",""
"","","","","","image-button-response","82","320343","0.0-12.0-1.0-1.8","0E7FE8DDAD4645F8AACC65158ED9326B","0E7FE8DDAD4645F8AACC65158ED9326B","c6ae9813-7a4a-4592-81ac-f95a2491a847","a9f3d40c-5730-405c-b25e-1034c4c56f3f","{""num_scrambled_semantic"":""8"",""num_scrambled_causal"":""4"",""num_scrambled_schematic"":""4"",""participantId"":""0E7FE8DDAD4645F8AACC65158ED9326B"",""assignmentId"":""c6ae9813-7a4a-4592-81ac-f95a2491a847"",""projectId"":""a9f3d40c-5730-405c-b25e-1034c4c56f3f""}","https://test12345.live/?num_scrambled_semantic=8&num_scrambled_causal=4&num_scrambled_schematic=4&participantId=0E7FE8DDAD4645F8AACC65158ED9326B&assignmentId=c6ae9813-7a4a-4592-81ac-f95a2491a847&projectId=a9f3d40c-5730-405c-b25e-1034c4c56f3f","0E7FE8DDAD4645F8AACC65158ED9326B-2025-08-07-19-07-18","","918","","images/semantic_sequence/maintaining_a_car_semantic/maintaining_a_car_semantic_ten.png","0","",""
"","","","","","image-button-response","83","322149","0.0-12.0-1.0-2.8","0E7FE8DDAD4645F8AACC65158ED9326B","0E7FE8DDAD4645F8AACC65158ED9326B","c6ae9813-7a4a-4592-81ac-f95a2491a847","a9f3d40c-5730-405c-b25e-1034c4c56f3f","{""num_scrambled_semantic"":""8"",""num_scrambled_causal"":""4"",""num_scrambled_schematic"":""4"",""participantId"":""0E7FE8DDAD4645F8AACC65158ED9326B"",""assignmentId"":""c6ae9813-7a4a-4592-81ac-f95a2491a847"",""projectId"":""a9f3d40c-5730-405c-b25e-1034c4c56f3f""}","https://test12345.live/?num_scrambled_semantic=8&num_scrambled_causal=4&num_scrambled_schematic=4&participantId=0E7FE8DDAD4645F8AACC65158ED9326B&assignmentId=c6ae9813-7a4a-4592-81ac-f95a2491a847&projectId=a9f3d40c-5730-405c-b25e-1034c4c56f3f","0E7FE8DDAD4645F8AACC65158ED9326B-2025-08-07-19-07-18","","null","","[]","null","",""
"","","","","","image-button-response","84","326651","0.0-12.0-1.0-0.9","0E7FE8DDAD4645F8AACC65158ED9326B","0E7FE8DDAD4645F8AACC65158ED9326B","c6ae9813-7a4a-4592-81ac-f95a2491a847","a9f3d40c-5730-405c-b25e-1034c4c56f3f","{""num_scrambled_semantic"":""8"",""num_scrambled_causal"":""4"",""num_scrambled_schematic"":""4"",""participantId"":""0E7FE8DDAD4645F8AACC65158ED9326B"",""assignmentId"":""c6ae9813-7a4a-4592-81ac-f95a2491a847"",""projectId"":""a9f3d40c-5730-405c-b25e-1034c4c56f3f""}","https://test12345.live/?num_scrambled_semantic=8&num_scrambled_causal=4&num_scrambled_schematic=4&participantId=0E7FE8DDAD4645F8AACC65158ED9326B&assignmentId=c6ae9813-7a4a-4592-81ac-f95a2491a847&projectId=a9f3d40c-5730-405c-b25e-1034c4c56f3f","0E7FE8DDAD4645F8AACC65158ED9326B-2025-08-07-19-07-18","","null","","images/semantic_sequence/maintaining_a_car_semantic/maintaining_a_car_semantic_7.png","null","",""
"","","","","","image-button-response","85","327512","0.0-12.0-1.0-1.9","0E7FE8DDAD4645F8AACC65158ED9326B","0E7FE8DDAD4645F8AACC65158ED9326B","c6ae9813-7a4a-4592-81ac-f95a2491a847","a9f3d40c-5730-405c-b25e-1034c4c56f3f","{""num_scrambled_semantic"":""8"",""num_scrambled_causal"":""4"",""num_scrambled_schematic"":""4"",""participantId"":""0E7FE8DDAD4645F8AACC65158ED9326B"",""assignmentId"":""c6ae9813-7a4a-4592-81ac-f95a2491a847"",""projectId"":""a9f3d40c-5730-405c-b25e-1034c4c56f3f""}","https://test12345.live/?num_scrambled_semantic=8&num_scrambled_causal=4&num_scrambled_schematic=4&participantId=0E7FE8DDAD4645F8AACC65158ED9326B&assignmentId=c6ae9813-7a4a-4592-81ac-f95a2491a847&projectId=a9f3d40c-5730-405c-b25e-1034c4c56f3f","0E7FE8DDAD4645F8AACC65158ED9326B-2025-08-07-19-07-18","","859","","images/semantic_sequence/maintaining_a_car_semantic/maintaining_a_car_semantic_7.png","0","",""
"","","","","","image-button-response","86","329319","0.0-12.0-1.0-2.9","0E7FE8DDAD4645F8AACC65158ED9326B","0E7FE8DDAD4645F8AACC65158ED9326B","c6ae9813-7a4a-4592-81ac-f95a2491a847","a9f3d40c-5730-405c-b25e-1034c4c56f3f","{""num_scrambled_semantic"":""8"",""num_scrambled_causal"":""4"",""num_scrambled_schematic"":""4"",""participantId"":""0E7FE8DDAD4645F8AACC65158ED9326B"",""assignmentId"":""c6ae9813-7a4a-4592-81ac-f95a2491a847"",""projectId"":""a9f3d40c-5730-405c-b25e-1034c4c56f3f""}","https://test12345.live/?num_scrambled_semantic=8&num_scrambled_causal=4&num_scrambled_schematic=4&participantId=0E7FE8DDAD4645F8AACC65158ED9326B&assignmentId=c6ae9813-7a4a-4592-81ac-f95a2491a847&projectId=a9f3d40c-5730-405c-b25e-1034c4c56f3f","0E7FE8DDAD4645F8AACC65158ED9326B-2025-08-07-19-07-18","","null","","[]","null","",""
"","","","","","html-audio-response","87","358730","0.0-13.0","0E7FE8DDAD4645F8AACC65158ED9326B","0E7FE8DDAD4645F8AACC65158ED9326B","c6ae9813-7a4a-4592-81ac-f95a2491a847","a9f3d40c-5730-405c-b25e-1034c4c56f3f","{""num_scrambled_semantic"":""8"",""num_scrambled_causal"":""4"",""num_scrambled_schematic"":""4"",""participantId"":""0E7FE8DDAD4645F8AACC65158ED9326B"",""assignmentId"":""c6ae9813-7a4a-4592-81ac-f95a2491a847"",""projectId"":""a9f3d40c-5730-405c-b25e-1034c4c56f3f""}","https://test12345.live/?num_scrambled_semantic=8&num_scrambled_causal=4&num_scrambled_schematic=4&participantId=0E7FE8DDAD4645F8AACC65158ED9326B&assignmentId=c6ae9813-7a4a-4592-81ac-f95a2491a847&projectId=a9f3d40c-5730-405c-b25e-1034c4c56f3f","0E7FE8DDAD4645F8AACC65158ED9326B-2025-08-07-19-07-18","","25827","","[""<span style=\""color: red; font-size: 24px\""> NOW RECORDING</span><p>Please say out loud all the images you saw, as many as you can remember. The images can be said in any order.</p>""]","","3","maintaining_a_car_semantic"
"","","","","","image-button-response","88","364745","0.0-14.0-0.0","0E7FE8DDAD4645F8AACC65158ED9326B","0E7FE8DDAD4645F8AACC65158ED9326B","c6ae9813-7a4a-4592-81ac-f95a2491a847","a9f3d40c-5730-405c-b25e-1034c4c56f3f","{""num_scrambled_semantic"":""8"",""num_scrambled_causal"":""4"",""num_scrambled_schematic"":""4"",""participantId"":""0E7FE8DDAD4645F8AACC65158ED9326B"",""assignmentId"":""c6ae9813-7a4a-4592-81ac-f95a2491a847"",""projectId"":""a9f3d40c-5730-405c-b25e-1034c4c56f3f""}","https://test12345.live/?num_scrambled_semantic=8&num_scrambled_causal=4&num_scrambled_schematic=4&participantId=0E7FE8DDAD4645F8AACC65158ED9326B&assignmentId=c6ae9813-7a4a-4592-81ac-f95a2491a847&projectId=a9f3d40c-5730-405c-b25e-1034c4c56f3f","0E7FE8DDAD4645F8AACC65158ED9326B-2025-08-07-19-07-18","","null","","images/semantic_sequence/physical_activity_semantic/physical_activity_semantic_0.png","null","",""
"","","","","","image-button-response","89","369249","0.0-14.0-1.0-0.0","0E7FE8DDAD4645F8AACC65158ED9326B","0E7FE8DDAD4645F8AACC65158ED9326B","c6ae9813-7a4a-4592-81ac-f95a2491a847","a9f3d40c-5730-405c-b25e-1034c4c56f3f","{""num_scrambled_semantic"":""8"",""num_scrambled_causal"":""4"",""num_scrambled_schematic"":""4"",""participantId"":""0E7FE8DDAD4645F8AACC65158ED9326B"",""assignmentId"":""c6ae9813-7a4a-4592-81ac-f95a2491a847"",""projectId"":""a9f3d40c-5730-405c-b25e-1034c4c56f3f""}","https://test12345.live/?num_scrambled_semantic=8&num_scrambled_causal=4&num_scrambled_schematic=4&participantId=0E7FE8DDAD4645F8AACC65158ED9326B&assignmentId=c6ae9813-7a4a-4592-81ac-f95a2491a847&projectId=a9f3d40c-5730-405c-b25e-1034c4c56f3f","0E7FE8DDAD4645F8AACC65158ED9326B-2025-08-07-19-07-18","","null","","images/semantic_sequence/physical_activity_semantic/physical_activity_semantic_4.png","null","",""
"","","","","","image-button-response","90","370411","0.0-14.0-1.0-1.0","0E7FE8DDAD4645F8AACC65158ED9326B","0E7FE8DDAD4645F8AACC65158ED9326B","c6ae9813-7a4a-4592-81ac-f95a2491a847","a9f3d40c-5730-405c-b25e-1034c4c56f3f","{""num_scrambled_semantic"":""8"",""num_scrambled_causal"":""4"",""num_scrambled_schematic"":""4"",""participantId"":""0E7FE8DDAD4645F8AACC65158ED9326B"",""assignmentId"":""c6ae9813-7a4a-4592-81ac-f95a2491a847"",""projectId"":""a9f3d40c-5730-405c-b25e-1034c4c56f3f""}","https://test12345.live/?num_scrambled_semantic=8&num_scrambled_causal=4&num_scrambled_schematic=4&participantId=0E7FE8DDAD4645F8AACC65158ED9326B&assignmentId=c6ae9813-7a4a-4592-81ac-f95a2491a847&projectId=a9f3d40c-5730-405c-b25e-1034c4c56f3f","0E7FE8DDAD4645F8AACC65158ED9326B-2025-08-07-19-07-18","","1159","","images/semantic_sequence/physical_activity_semantic/physical_activity_semantic_4.png","0","",""
"","","","","","image-button-response","91","372218","0.0-14.0-1.0-2.0","0E7FE8DDAD4645F8AACC65158ED9326B","0E7FE8DDAD4645F8AACC65158ED9326B","c6ae9813-7a4a-4592-81ac-f95a2491a847","a9f3d40c-5730-405c-b25e-1034c4c56f3f","{""num_scrambled_semantic"":""8"",""num_scrambled_causal"":""4"",""num_scrambled_schematic"":""4"",""participantId"":""0E7FE8DDAD4645F8AACC65158ED9326B"",""assignmentId"":""c6ae9813-7a4a-4592-81ac-f95a2491a847"",""projectId"":""a9f3d40c-5730-405c-b25e-1034c4c56f3f""}","https://test12345.live/?num_scrambled_semantic=8&num_scrambled_causal=4&num_scrambled_schematic=4&participantId=0E7FE8DDAD4645F8AACC65158ED9326B&assignmentId=c6ae9813-7a4a-4592-81ac-f95a2491a847&projectId=a9f3d40c-5730-405c-b25e-1034c4c56f3f","0E7FE8DDAD4645F8AACC65158ED9326B-2025-08-07-19-07-18","","null","","[]","null","",""
"","","","","","image-button-response","92","376723","0.0-14.0-1.0-0.1","0E7FE8DDAD4645F8AACC65158ED9326B","0E7FE8DDAD4645F8AACC65158ED9326B","c6ae9813-7a4a-4592-81ac-f95a2491a847","a9f3d40c-5730-405c-b25e-1034c4c56f3f","{""num_scrambled_semantic"":""8"",""num_scrambled_causal"":""4"",""num_scrambled_schematic"":""4"",""participantId"":""0E7FE8DDAD4645F8AACC65158ED9326B"",""assignmentId"":""c6ae9813-7a4a-4592-81ac-f95a2491a847"",""projectId"":""a9f3d40c-5730-405c-b25e-1034c4c56f3f""}","https://test12345.live/?num_scrambled_semantic=8&num_scrambled_causal=4&num_scrambled_schematic=4&participantId=0E7FE8DDAD4645F8AACC65158ED9326B&assignmentId=c6ae9813-7a4a-4592-81ac-f95a2491a847&projectId=a9f3d40c-5730-405c-b25e-1034c4c56f3f","0E7FE8DDAD4645F8AACC65158ED9326B-2025-08-07-19-07-18","","null","","images/semantic_sequence/physical_activity_semantic/physical_activity_semantic_8.png","null","",""
"","","","","","image-button-response","93","380729","0.0-14.0-1.0-1.1","0E7FE8DDAD4645F8AACC65158ED9326B","0E7FE8DDAD4645F8AACC65158ED9326B","c6ae9813-7a4a-4592-81ac-f95a2491a847","a9f3d40c-5730-405c-b25e-1034c4c56f3f","{""num_scrambled_semantic"":""8"",""num_scrambled_causal"":""4"",""num_scrambled_schematic"":""4"",""participantId"":""0E7FE8DDAD4645F8AACC65158ED9326B"",""assignmentId"":""c6ae9813-7a4a-4592-81ac-f95a2491a847"",""projectId"":""a9f3d40c-5730-405c-b25e-1034c4c56f3f""}","https://test12345.live/?num_scrambled_semantic=8&num_scrambled_causal=4&num_scrambled_schematic=4&participantId=0E7FE8DDAD4645F8AACC65158ED9326B&assignmentId=c6ae9813-7a4a-4592-81ac-f95a2491a847&projectId=a9f3d40c-5730-405c-b25e-1034c4c56f3f","0E7FE8DDAD4645F8AACC65158ED9326B-2025-08-07-19-07-18","","null","","images/semantic_sequence/physical_activity_semantic/physical_activity_semantic_8.png","null","",""
"","","","","","image-button-response","94","382533","0.0-14.0-1.0-2.1","0E7FE8DDAD4645F8AACC65158ED9326B","0E7FE8DDAD4645F8AACC65158ED9326B","c6ae9813-7a4a-4592-81ac-f95a2491a847","a9f3d40c-5730-405c-b25e-1034c4c56f3f","{""num_scrambled_semantic"":""8"",""num_scrambled_causal"":""4"",""num_scrambled_schematic"":""4"",""participantId"":""0E7FE8DDAD4645F8AACC65158ED9326B"",""assignmentId"":""c6ae9813-7a4a-4592-81ac-f95a2491a847"",""projectId"":""a9f3d40c-5730-405c-b25e-1034c4c56f3f""}","https://test12345.live/?num_scrambled_semantic=8&num_scrambled_causal=4&num_scrambled_schematic=4&participantId=0E7FE8DDAD4645F8AACC65158ED9326B&assignmentId=c6ae9813-7a4a-4592-81ac-f95a2491a847&projectId=a9f3d40c-5730-405c-b25e-1034c4c56f3f","0E7FE8DDAD4645F8AACC65158ED9326B-2025-08-07-19-07-18","","null","","[]","null","",""
"","","","","","image-button-response","95","387039","0.0-14.0-1.0-0.2","0E7FE8DDAD4645F8AACC65158ED9326B","0E7FE8DDAD4645F8AACC65158ED9326B","c6ae9813-7a4a-4592-81ac-f95a2491a847","a9f3d40c-5730-405c-b25e-1034c4c56f3f","{""num_scrambled_semantic"":""8"",""num_scrambled_causal"":""4"",""num_scrambled_schematic"":""4"",""participantId"":""0E7FE8DDAD4645F8AACC65158ED9326B"",""assignmentId"":""c6ae9813-7a4a-4592-81ac-f95a2491a847"",""projectId"":""a9f3d40c-5730-405c-b25e-1034c4c56f3f""}","https://test12345.live/?num_scrambled_semantic=8&num_scrambled_causal=4&num_scrambled_schematic=4&participantId=0E7FE8DDAD4645F8AACC65158ED9326B&assignmentId=c6ae9813-7a4a-4592-81ac-f95a2491a847&projectId=a9f3d40c-5730-405c-b25e-1034c4c56f3f","0E7FE8DDAD4645F8AACC65158ED9326B-2025-08-07-19-07-18","","null","","images/semantic_sequence/physical_activity_semantic/physical_activity_semantic_2.png","null","",""
"","","","","","image-button-response","96","387673","0.0-14.0-1.0-1.2","0E7FE8DDAD4645F8AACC65158ED9326B","0E7FE8DDAD4645F8AACC65158ED9326B","c6ae9813-7a4a-4592-81ac-f95a2491a847","a9f3d40c-5730-405c-b25e-1034c4c56f3f","{""num_scrambled_semantic"":""8"",""num_scrambled_causal"":""4"",""num_scrambled_schematic"":""4"",""participantId"":""0E7FE8DDAD4645F8AACC65158ED9326B"",""assignmentId"":""c6ae9813-7a4a-4592-81ac-f95a2491a847"",""projectId"":""a9f3d40c-5730-405c-b25e-1034c4c56f3f""}","https://test12345.live/?num_scrambled_semantic=8&num_scrambled_causal=4&num_scrambled_schematic=4&participantId=0E7FE8DDAD4645F8AACC65158ED9326B&assignmentId=c6ae9813-7a4a-4592-81ac-f95a2491a847&projectId=a9f3d40c-5730-405c-b25e-1034c4c56f3f","0E7FE8DDAD4645F8AACC65158ED9326B-2025-08-07-19-07-18","","631","","images/semantic_sequence/physical_activity_semantic/physical_activity_semantic_2.png","0","",""
"","","","","","image-button-response","97","389479","0.0-14.0-1.0-2.2","0E7FE8DDAD4645F8AACC65158ED9326B","0E7FE8DDAD4645F8AACC65158ED9326B","c6ae9813-7a4a-4592-81ac-f95a2491a847","a9f3d40c-5730-405c-b25e-1034c4c56f3f","{""num_scrambled_semantic"":""8"",""num_scrambled_causal"":""4"",""num_scrambled_schematic"":""4"",""participantId"":""0E7FE8DDAD4645F8AACC65158ED9326B"",""assignmentId"":""c6ae9813-7a4a-4592-81ac-f95a2491a847"",""projectId"":""a9f3d40c-5730-405c-b25e-1034c4c56f3f""}","https://test12345.live/?num_scrambled_semantic=8&num_scrambled_causal=4&num_scrambled_schematic=4&participantId=0E7FE8DDAD4645F8AACC65158ED9326B&assignmentId=c6ae9813-7a4a-4592-81ac-f95a2491a847&projectId=a9f3d40c-5730-405c-b25e-1034c4c56f3f","0E7FE8DDAD4645F8AACC65158ED9326B-2025-08-07-19-07-18","","null","","[]","null","",""
"","","","","","image-button-response","98","393983","0.0-14.0-1.0-0.3","0E7FE8DDAD4645F8AACC65158ED9326B","0E7FE8DDAD4645F8AACC65158ED9326B","c6ae9813-7a4a-4592-81ac-f95a2491a847","a9f3d40c-5730-405c-b25e-1034c4c56f3f","{""num_scrambled_semantic"":""8"",""num_scrambled_causal"":""4"",""num_scrambled_schematic"":""4"",""participantId"":""0E7FE8DDAD4645F8AACC65158ED9326B"",""assignmentId"":""c6ae9813-7a4a-4592-81ac-f95a2491a847"",""projectId"":""a9f3d40c-5730-405c-b25e-1034c4c56f3f""}","https://test12345.live/?num_scrambled_semantic=8&num_scrambled_causal=4&num_scrambled_schematic=4&participantId=0E7FE8DDAD4645F8AACC65158ED9326B&assignmentId=c6ae9813-7a4a-4592-81ac-f95a2491a847&projectId=a9f3d40c-5730-405c-b25e-1034c4c56f3f","0E7FE8DDAD4645F8AACC65158ED9326B-2025-08-07-19-07-18","","null","","images/semantic_sequence/physical_activity_semantic/physical_activity_semantic_ten.png","null","",""
"","","","","","image-button-response","99","394658","0.0-14.0-1.0-1.3","0E7FE8DDAD4645F8AACC65158ED9326B","0E7FE8DDAD4645F8AACC65158ED9326B","c6ae9813-7a4a-4592-81ac-f95a2491a847","a9f3d40c-5730-405c-b25e-1034c4c56f3f","{""num_scrambled_semantic"":""8"",""num_scrambled_causal"":""4"",""num_scrambled_schematic"":""4"",""participantId"":""0E7FE8DDAD4645F8AACC65158ED9326B"",""assignmentId"":""c6ae9813-7a4a-4592-81ac-f95a2491a847"",""projectId"":""a9f3d40c-5730-405c-b25e-1034c4c56f3f""}","https://test12345.live/?num_scrambled_semantic=8&num_scrambled_causal=4&num_scrambled_schematic=4&participantId=0E7FE8DDAD4645F8AACC65158ED9326B&assignmentId=c6ae9813-7a4a-4592-81ac-f95a2491a847&projectId=a9f3d40c-5730-405c-b25e-1034c4c56f3f","0E7FE8DDAD4645F8AACC65158ED9326B-2025-08-07-19-07-18","","673","","images/semantic_sequence/physical_activity_semantic/physical_activity_semantic_ten.png","0","",""
"","","","","","image-button-response","100","396463","0.0-14.0-1.0-2.3","0E7FE8DDAD4645F8AACC65158ED9326B","0E7FE8DDAD4645F8AACC65158ED9326B","c6ae9813-7a4a-4592-81ac-f95a2491a847","a9f3d40c-5730-405c-b25e-1034c4c56f3f","{""num_scrambled_semantic"":""8"",""num_scrambled_causal"":""4"",""num_scrambled_schematic"":""4"",""participantId"":""0E7FE8DDAD4645F8AACC65158ED9326B"",""assignmentId"":""c6ae9813-7a4a-4592-81ac-f95a2491a847"",""projectId"":""a9f3d40c-5730-405c-b25e-1034c4c56f3f""}","https://test12345.live/?num_scrambled_semantic=8&num_scrambled_causal=4&num_scrambled_schematic=4&participantId=0E7FE8DDAD4645F8AACC65158ED9326B&assignmentId=c6ae9813-7a4a-4592-81ac-f95a2491a847&projectId=a9f3d40c-5730-405c-b25e-1034c4c56f3f","0E7FE8DDAD4645F8AACC65158ED9326B-2025-08-07-19-07-18","","null","","[]","null","",""
"","","","","","image-button-response","101","400969","0.0-14.0-1.0-0.4","0E7FE8DDAD4645F8AACC65158ED9326B","0E7FE8DDAD4645F8AACC65158ED9326B","c6ae9813-7a4a-4592-81ac-f95a2491a847","a9f3d40c-5730-405c-b25e-1034c4c56f3f","{""num_scrambled_semantic"":""8"",""num_scrambled_causal"":""4"",""num_scrambled_schematic"":""4"",""participantId"":""0E7FE8DDAD4645F8AACC65158ED9326B"",""assignmentId"":""c6ae9813-7a4a-4592-81ac-f95a2491a847"",""projectId"":""a9f3d40c-5730-405c-b25e-1034c4c56f3f""}","https://test12345.live/?num_scrambled_semantic=8&num_scrambled_causal=4&num_scrambled_schematic=4&participantId=0E7FE8DDAD4645F8AACC65158ED9326B&assignmentId=c6ae9813-7a4a-4592-81ac-f95a2491a847&projectId=a9f3d40c-5730-405c-b25e-1034c4c56f3f","0E7FE8DDAD4645F8AACC65158ED9326B-2025-08-07-19-07-18","","null","","images/semantic_sequence/physical_activity_semantic/physical_activity_semantic_5.png","null","",""
"","","","","","image-button-response","102","401444","0.0-14.0-1.0-1.4","0E7FE8DDAD4645F8AACC65158ED9326B","0E7FE8DDAD4645F8AACC65158ED9326B","c6ae9813-7a4a-4592-81ac-f95a2491a847","a9f3d40c-5730-405c-b25e-1034c4c56f3f","{""num_scrambled_semantic"":""8"",""num_scrambled_causal"":""4"",""num_scrambled_schematic"":""4"",""participantId"":""0E7FE8DDAD4645F8AACC65158ED9326B"",""assignmentId"":""c6ae9813-7a4a-4592-81ac-f95a2491a847"",""projectId"":""a9f3d40c-5730-405c-b25e-1034c4c56f3f""}","https://test12345.live/?num_scrambled_semantic=8&num_scrambled_causal=4&num_scrambled_schematic=4&participantId=0E7FE8DDAD4645F8AACC65158ED9326B&assignmentId=c6ae9813-7a4a-4592-81ac-f95a2491a847&projectId=a9f3d40c-5730-405c-b25e-1034c4c56f3f","0E7FE8DDAD4645F8AACC65158ED9326B-2025-08-07-19-07-18","","473","","images/semantic_sequence/physical_activity_semantic/physical_activity_semantic_5.png","0","",""
"","","","","","image-button-response","103","403249","0.0-14.0-1.0-2.4","0E7FE8DDAD4645F8AACC65158ED9326B","0E7FE8DDAD4645F8AACC65158ED9326B","c6ae9813-7a4a-4592-81ac-f95a2491a847","a9f3d40c-5730-405c-b25e-1034c4c56f3f","{""num_scrambled_semantic"":""8"",""num_scrambled_causal"":""4"",""num_scrambled_schematic"":""4"",""participantId"":""0E7FE8DDAD4645F8AACC65158ED9326B"",""assignmentId"":""c6ae9813-7a4a-4592-81ac-f95a2491a847"",""projectId"":""a9f3d40c-5730-405c-b25e-1034c4c56f3f""}","https://test12345.live/?num_scrambled_semantic=8&num_scrambled_causal=4&num_scrambled_schematic=4&participantId=0E7FE8DDAD4645F8AACC65158ED9326B&assignmentId=c6ae9813-7a4a-4592-81ac-f95a2491a847&projectId=a9f3d40c-5730-405c-b25e-1034c4c56f3f","0E7FE8DDAD4645F8AACC65158ED9326B-2025-08-07-19-07-18","","null","","[]","null","",""
"","","","","","image-button-response","104","407753","0.0-14.0-1.0-0.5","0E7FE8DDAD4645F8AACC65158ED9326B","0E7FE8DDAD4645F8AACC65158ED9326B","c6ae9813-7a4a-4592-81ac-f95a2491a847","a9f3d40c-5730-405c-b25e-1034c4c56f3f","{""num_scrambled_semantic"":""8"",""num_scrambled_causal"":""4"",""num_scrambled_schematic"":""4"",""participantId"":""0E7FE8DDAD4645F8AACC65158ED9326B"",""assignmentId"":""c6ae9813-7a4a-4592-81ac-f95a2491a847"",""projectId"":""a9f3d40c-5730-405c-b25e-1034c4c56f3f""}","https://test12345.live/?num_scrambled_semantic=8&num_scrambled_causal=4&num_scrambled_schematic=4&participantId=0E7FE8DDAD4645F8AACC65158ED9326B&assignmentId=c6ae9813-7a4a-4592-81ac-f95a2491a847&projectId=a9f3d40c-5730-405c-b25e-1034c4c56f3f","0E7FE8DDAD4645F8AACC65158ED9326B-2025-08-07-19-07-18","","null","","images/semantic_sequence/physical_activity_semantic/physical_activity_semantic_3.png","null","",""
"","","","","","image-button-response","105","408329","0.0-14.0-1.0-1.5","0E7FE8DDAD4645F8AACC65158ED9326B","0E7FE8DDAD4645F8AACC65158ED9326B","c6ae9813-7a4a-4592-81ac-f95a2491a847","a9f3d40c-5730-405c-b25e-1034c4c56f3f","{""num_scrambled_semantic"":""8"",""num_scrambled_causal"":""4"",""num_scrambled_schematic"":""4"",""participantId"":""0E7FE8DDAD4645F8AACC65158ED9326B"",""assignmentId"":""c6ae9813-7a4a-4592-81ac-f95a2491a847"",""projectId"":""a9f3d40c-5730-405c-b25e-1034c4c56f3f""}","https://test12345.live/?num_scrambled_semantic=8&num_scrambled_causal=4&num_scrambled_schematic=4&participantId=0E7FE8DDAD4645F8AACC65158ED9326B&assignmentId=c6ae9813-7a4a-4592-81ac-f95a2491a847&projectId=a9f3d40c-5730-405c-b25e-1034c4c56f3f","0E7FE8DDAD4645F8AACC65158ED9326B-2025-08-07-19-07-18","","573","","images/semantic_sequence/physical_activity_semantic/physical_activity_semantic_3.png","0","",""
"","","","","","image-button-response","106","410133","0.0-14.0-1.0-2.5","0E7FE8DDAD4645F8AACC65158ED9326B","0E7FE8DDAD4645F8AACC65158ED9326B","c6ae9813-7a4a-4592-81ac-f95a2491a847","a9f3d40c-5730-405c-b25e-1034c4c56f3f","{""num_scrambled_semantic"":""8"",""num_scrambled_causal"":""4"",""num_scrambled_schematic"":""4"",""participantId"":""0E7FE8DDAD4645F8AACC65158ED9326B"",""assignmentId"":""c6ae9813-7a4a-4592-81ac-f95a2491a847"",""projectId"":""a9f3d40c-5730-405c-b25e-1034c4c56f3f""}","https://test12345.live/?num_scrambled_semantic=8&num_scrambled_causal=4&num_scrambled_schematic=4&participantId=0E7FE8DDAD4645F8AACC65158ED9326B&assignmentId=c6ae9813-7a4a-4592-81ac-f95a2491a847&projectId=a9f3d40c-5730-405c-b25e-1034c4c56f3f","0E7FE8DDAD4645F8AACC65158ED9326B-2025-08-07-19-07-18","","null","","[]","null","",""
"","","","","","image-button-response","107","414639","0.0-14.0-1.0-0.6","0E7FE8DDAD4645F8AACC65158ED9326B","0E7FE8DDAD4645F8AACC65158ED9326B","c6ae9813-7a4a-4592-81ac-f95a2491a847","a9f3d40c-5730-405c-b25e-1034c4c56f3f","{""num_scrambled_semantic"":""8"",""num_scrambled_causal"":""4"",""num_scrambled_schematic"":""4"",""participantId"":""0E7FE8DDAD4645F8AACC65158ED9326B"",""assignmentId"":""c6ae9813-7a4a-4592-81ac-f95a2491a847"",""projectId"":""a9f3d40c-5730-405c-b25e-1034c4c56f3f""}","https://test12345.live/?num_scrambled_semantic=8&num_scrambled_causal=4&num_scrambled_schematic=4&participantId=0E7FE8DDAD4645F8AACC65158ED9326B&assignmentId=c6ae9813-7a4a-4592-81ac-f95a2491a847&projectId=a9f3d40c-5730-405c-b25e-1034c4c56f3f","0E7FE8DDAD4645F8AACC65158ED9326B-2025-08-07-19-07-18","","null","","images/semantic_sequence/physical_activity_semantic/physical_activity_semantic_1.png","null","",""
"","","","","","image-button-response","108","415130","0.0-14.0-1.0-1.6","0E7FE8DDAD4645F8AACC65158ED9326B","0E7FE8DDAD4645F8AACC65158ED9326B","c6ae9813-7a4a-4592-81ac-f95a2491a847","a9f3d40c-5730-405c-b25e-1034c4c56f3f","{""num_scrambled_semantic"":""8"",""num_scrambled_causal"":""4"",""num_scrambled_schematic"":""4"",""participantId"":""0E7FE8DDAD4645F8AACC65158ED9326B"",""assignmentId"":""c6ae9813-7a4a-4592-81ac-f95a2491a847"",""projectId"":""a9f3d40c-5730-405c-b25e-1034c4c56f3f""}","https://test12345.live/?num_scrambled_semantic=8&num_scrambled_causal=4&num_scrambled_schematic=4&participantId=0E7FE8DDAD4645F8AACC65158ED9326B&assignmentId=c6ae9813-7a4a-4592-81ac-f95a2491a847&projectId=a9f3d40c-5730-405c-b25e-1034c4c56f3f","0E7FE8DDAD4645F8AACC65158ED9326B-2025-08-07-19-07-18","","489","","images/semantic_sequence/physical_activity_semantic/physical_activity_semantic_1.png","0","",""
"","","","","","image-button-response","109","416933","0.0-14.0-1.0-2.6","0E7FE8DDAD4645F8AACC65158ED9326B","0E7FE8DDAD4645F8AACC65158ED9326B","c6ae9813-7a4a-4592-81ac-f95a2491a847","a9f3d40c-5730-405c-b25e-1034c4c56f3f","{""num_scrambled_semantic"":""8"",""num_scrambled_causal"":""4"",""num_scrambled_schematic"":""4"",""participantId"":""0E7FE8DDAD4645F8AACC65158ED9326B"",""assignmentId"":""c6ae9813-7a4a-4592-81ac-f95a2491a847"",""projectId"":""a9f3d40c-5730-405c-b25e-1034c4c56f3f""}","https://test12345.live/?num_scrambled_semantic=8&num_scrambled_causal=4&num_scrambled_schematic=4&participantId=0E7FE8DDAD4645F8AACC65158ED9326B&assignmentId=c6ae9813-7a4a-4592-81ac-f95a2491a847&projectId=a9f3d40c-5730-405c-b25e-1034c4c56f3f","0E7FE8DDAD4645F8AACC65158ED9326B-2025-08-07-19-07-18","","null","","[]","null","",""
"","","","","","image-button-response","110","421439","0.0-14.0-1.0-0.7","0E7FE8DDAD4645F8AACC65158ED9326B","0E7FE8DDAD4645F8AACC65158ED9326B","c6ae9813-7a4a-4592-81ac-f95a2491a847","a9f3d40c-5730-405c-b25e-1034c4c56f3f","{""num_scrambled_semantic"":""8"",""num_scrambled_causal"":""4"",""num_scrambled_schematic"":""4"",""participantId"":""0E7FE8DDAD4645F8AACC65158ED9326B"",""assignmentId"":""c6ae9813-7a4a-4592-81ac-f95a2491a847"",""projectId"":""a9f3d40c-5730-405c-b25e-1034c4c56f3f""}","https://test12345.live/?num_scrambled_semantic=8&num_scrambled_causal=4&num_scrambled_schematic=4&participantId=0E7FE8DDAD4645F8AACC65158ED9326B&assignmentId=c6ae9813-7a4a-4592-81ac-f95a2491a847&projectId=a9f3d40c-5730-405c-b25e-1034c4c56f3f","0E7FE8DDAD4645F8AACC65158ED9326B-2025-08-07-19-07-18","","null","","images/semantic_sequence/physical_activity_semantic/physical_activity_semantic_7.png","null","",""
"","","","","","image-button-response","111","422015","0.0-14.0-1.0-1.7","0E7FE8DDAD4645F8AACC65158ED9326B","0E7FE8DDAD4645F8AACC65158ED9326B","c6ae9813-7a4a-4592-81ac-f95a2491a847","a9f3d40c-5730-405c-b25e-1034c4c56f3f","{""num_scrambled_semantic"":""8"",""num_scrambled_causal"":""4"",""num_scrambled_schematic"":""4"",""participantId"":""0E7FE8DDAD4645F8AACC65158ED9326B"",""assignmentId"":""c6ae9813-7a4a-4592-81ac-f95a2491a847"",""projectId"":""a9f3d40c-5730-405c-b25e-1034c4c56f3f""}","https://test12345.live/?num_scrambled_semantic=8&num_scrambled_causal=4&num_scrambled_schematic=4&participantId=0E7FE8DDAD4645F8AACC65158ED9326B&assignmentId=c6ae9813-7a4a-4592-81ac-f95a2491a847&projectId=a9f3d40c-5730-405c-b25e-1034c4c56f3f","0E7FE8DDAD4645F8AACC65158ED9326B-2025-08-07-19-07-18","","573","","images/semantic_sequence/physical_activity_semantic/physical_activity_semantic_7.png","0","",""
"","","","","","image-button-response","112","423820","0.0-14.0-1.0-2.7","0E7FE8DDAD4645F8AACC65158ED9326B","0E7FE8DDAD4645F8AACC65158ED9326B","c6ae9813-7a4a-4592-81ac-f95a2491a847","a9f3d40c-5730-405c-b25e-1034c4c56f3f","{""num_scrambled_semantic"":""8"",""num_scrambled_causal"":""4"",""num_scrambled_schematic"":""4"",""participantId"":""0E7FE8DDAD4645F8AACC65158ED9326B"",""assignmentId"":""c6ae9813-7a4a-4592-81ac-f95a2491a847"",""projectId"":""a9f3d40c-5730-405c-b25e-1034c4c56f3f""}","https://test12345.live/?num_scrambled_semantic=8&num_scrambled_causal=4&num_scrambled_schematic=4&participantId=0E7FE8DDAD4645F8AACC65158ED9326B&assignmentId=c6ae9813-7a4a-4592-81ac-f95a2491a847&projectId=a9f3d40c-5730-405c-b25e-1034c4c56f3f","0E7FE8DDAD4645F8AACC65158ED9326B-2025-08-07-19-07-18","","null","","[]","null","",""
"","","","","","image-button-response","113","428323","0.0-14.0-1.0-0.8","0E7FE8DDAD4645F8AACC65158ED9326B","0E7FE8DDAD4645F8AACC65158ED9326B","c6ae9813-7a4a-4592-81ac-f95a2491a847","a9f3d40c-5730-405c-b25e-1034c4c56f3f","{""num_scrambled_semantic"":""8"",""num_scrambled_causal"":""4"",""num_scrambled_schematic"":""4"",""participantId"":""0E7FE8DDAD4645F8AACC65158ED9326B"",""assignmentId"":""c6ae9813-7a4a-4592-81ac-f95a2491a847"",""projectId"":""a9f3d40c-5730-405c-b25e-1034c4c56f3f""}","https://test12345.live/?num_scrambled_semantic=8&num_scrambled_causal=4&num_scrambled_schematic=4&participantId=0E7FE8DDAD4645F8AACC65158ED9326B&assignmentId=c6ae9813-7a4a-4592-81ac-f95a2491a847&projectId=a9f3d40c-5730-405c-b25e-1034c4c56f3f","0E7FE8DDAD4645F8AACC65158ED9326B-2025-08-07-19-07-18","","null","","images/semantic_sequence/physical_activity_semantic/physical_activity_semantic_6.png","null","",""
