"success","timeout","failed_images","failed_audio","failed_video","trial_type","trial_index","time_elapsed","internal_node_id","subject","subject_id","study_id","session_id","urlvar","current_url","audio_id","view_history","rt","device_id","stimulus","response","estimated_stimulus_onset","seq_name"
"true","false","[]","[]","[]","preload","0","109","0.0-0.0","0FF470B49575441C9F7D896D5175B919","0FF470B49575441C9F7D896D5175B919","86d0064c-4a8e-45c7-a1d7-f2d19810c827","a0a8f18c-a66e-4ba7-a170-23efbdc67501","{""participantId"":""0FF470B49575441C9F7D896D5175B919"",""assignmentId"":""86d0064c-4a8e-45c7-a1d7-f2d19810c827"",""projectId"":""a0a8f18c-a66e-4ba7-a170-23efbdc67501""}","https://test12345.live/?participantId=0FF470B49575441C9F7D896D5175B919&assignmentId=86d0064c-4a8e-45c7-a1d7-f2d19810c827&projectId=a0a8f18c-a66e-4ba7-a170-23efbdc67501","0FF470B49575441C9F7D896D5175B919-2024-11-24-18-46-23","","","","","","",""
"","","","","","instructions","1","7066","0.0-1.0","0FF470B49575441C9F7D896D5175B919","0FF470B49575441C9F7D896D5175B919","86d0064c-4a8e-45c7-a1d7-f2d19810c827","a0a8f18c-a66e-4ba7-a170-23efbdc67501","{""participantId"":""0FF470B49575441C9F7D896D5175B919"",""assignmentId"":""86d0064c-4a8e-45c7-a1d7-f2d19810c827"",""projectId"":""a0a8f18c-a66e-4ba7-a170-23efbdc67501""}","https://test12345.live/?participantId=0FF470B49575441C9F7D896D5175B919&assignmentId=86d0064c-4a8e-45c7-a1d7-f2d19810c827&projectId=a0a8f18c-a66e-4ba7-a170-23efbdc67501","0FF470B49575441C9F7D896D5175B919-2024-11-24-18-46-23","[{""page_index"":0,""viewing_time"":6957}]","6957","","","","",""
"","","","","","instructions","2","10223","0.0-2.0","0FF470B49575441C9F7D896D5175B919","0FF470B49575441C9F7D896D5175B919","86d0064c-4a8e-45c7-a1d7-f2d19810c827","a0a8f18c-a66e-4ba7-a170-23efbdc67501","{""participantId"":""0FF470B49575441C9F7D896D5175B919"",""assignmentId"":""86d0064c-4a8e-45c7-a1d7-f2d19810c827"",""projectId"":""a0a8f18c-a66e-4ba7-a170-23efbdc67501""}","https://test12345.live/?participantId=0FF470B49575441C9F7D896D5175B919&assignmentId=86d0064c-4a8e-45c7-a1d7-f2d19810c827&projectId=a0a8f18c-a66e-4ba7-a170-23efbdc67501","0FF470B49575441C9F7D896D5175B919-2024-11-24-18-46-23","[{""page_index"":0,""viewing_time"":3156}]","3156","","","","",""
"true","","","","","fullscreen","3","12652","0.0-3.0","0FF470B49575441C9F7D896D5175B919","0FF470B49575441C9F7D896D5175B919","86d0064c-4a8e-45c7-a1d7-f2d19810c827","a0a8f18c-a66e-4ba7-a170-23efbdc67501","{""participantId"":""0FF470B49575441C9F7D896D5175B919"",""assignmentId"":""86d0064c-4a8e-45c7-a1d7-f2d19810c827"",""projectId"":""a0a8f18c-a66e-4ba7-a170-23efbdc67501""}","https://test12345.live/?participantId=0FF470B49575441C9F7D896D5175B919&assignmentId=86d0064c-4a8e-45c7-a1d7-f2d19810c827&projectId=a0a8f18c-a66e-4ba7-a170-23efbdc67501","0FF470B49575441C9F7D896D5175B919-2024-11-24-18-46-23","","1427","","","","",""
"","","","","","initialize-microphone","4","19934","0.0-4.0-0.0","0FF470B49575441C9F7D896D5175B919","0FF470B49575441C9F7D896D5175B919","86d0064c-4a8e-45c7-a1d7-f2d19810c827","a0a8f18c-a66e-4ba7-a170-23efbdc67501","{""participantId"":""0FF470B49575441C9F7D896D5175B919"",""assignmentId"":""86d0064c-4a8e-45c7-a1d7-f2d19810c827"",""projectId"":""a0a8f18c-a66e-4ba7-a170-23efbdc67501""}","https://test12345.live/?participantId=0FF470B49575441C9F7D896D5175B919&assignmentId=86d0064c-4a8e-45c7-a1d7-f2d19810c827&projectId=a0a8f18c-a66e-4ba7-a170-23efbdc67501","0FF470B49575441C9F7D896D5175B919-2024-11-24-18-46-23","","","d24c03d57cebba36e2021727f882c4416e8629f87617dd155b5b638033ad52a3","","","",""
"","","","","","html-audio-response","5","27534","0.0-4.0-1.0","0FF470B49575441C9F7D896D5175B919","0FF470B49575441C9F7D896D5175B919","86d0064c-4a8e-45c7-a1d7-f2d19810c827","a0a8f18c-a66e-4ba7-a170-23efbdc67501","{""participantId"":""0FF470B49575441C9F7D896D5175B919"",""assignmentId"":""86d0064c-4a8e-45c7-a1d7-f2d19810c827"",""projectId"":""a0a8f18c-a66e-4ba7-a170-23efbdc67501""}","https://test12345.live/?participantId=0FF470B49575441C9F7D896D5175B919&assignmentId=86d0064c-4a8e-45c7-a1d7-f2d19810c827&projectId=a0a8f18c-a66e-4ba7-a170-23efbdc67501","0FF470B49575441C9F7D896D5175B919-2024-11-24-18-46-23","","3975","","<span style=""color: red; font-size: 24px""> NOW RECORDING</span>
        <p>Please test Microphone</p>","","16",""
"","","","","","html-button-response","6","33572","0.0-4.0-2.0","0FF470B49575441C9F7D896D5175B919","0FF470B49575441C9F7D896D5175B919","86d0064c-4a8e-45c7-a1d7-f2d19810c827","a0a8f18c-a66e-4ba7-a170-23efbdc67501","{""participantId"":""0FF470B49575441C9F7D896D5175B919"",""assignmentId"":""86d0064c-4a8e-45c7-a1d7-f2d19810c827"",""projectId"":""a0a8f18c-a66e-4ba7-a170-23efbdc67501""}","https://test12345.live/?participantId=0FF470B49575441C9F7D896D5175B919&assignmentId=86d0064c-4a8e-45c7-a1d7-f2d19810c827&projectId=a0a8f18c-a66e-4ba7-a170-23efbdc67501","0FF470B49575441C9F7D896D5175B919-2024-11-24-18-46-23","","6037","","<p style=""font-size:48px; color:red;"">Is Microphone OK?</p>","1","",""
"","","","","","instructions","7","51688","0.0-5.0","0FF470B49575441C9F7D896D5175B919","0FF470B49575441C9F7D896D5175B919","86d0064c-4a8e-45c7-a1d7-f2d19810c827","a0a8f18c-a66e-4ba7-a170-23efbdc67501","{""participantId"":""0FF470B49575441C9F7D896D5175B919"",""assignmentId"":""86d0064c-4a8e-45c7-a1d7-f2d19810c827"",""projectId"":""a0a8f18c-a66e-4ba7-a170-23efbdc67501""}","https://test12345.live/?participantId=0FF470B49575441C9F7D896D5175B919&assignmentId=86d0064c-4a8e-45c7-a1d7-f2d19810c827&projectId=a0a8f18c-a66e-4ba7-a170-23efbdc67501","0FF470B49575441C9F7D896D5175B919-2024-11-24-18-46-23","[{""page_index"":0,""viewing_time"":8502},{""page_index"":1,""viewing_time"":9613}]","18116","","","","",""
"","","","","","image-button-response","8","57704","0.0-6.0-0.0","0FF470B49575441C9F7D896D5175B919","0FF470B49575441C9F7D896D5175B919","86d0064c-4a8e-45c7-a1d7-f2d19810c827","a0a8f18c-a66e-4ba7-a170-23efbdc67501","{""participantId"":""0FF470B49575441C9F7D896D5175B919"",""assignmentId"":""86d0064c-4a8e-45c7-a1d7-f2d19810c827"",""projectId"":""a0a8f18c-a66e-4ba7-a170-23efbdc67501""}","https://test12345.live/?participantId=0FF470B49575441C9F7D896D5175B919&assignmentId=86d0064c-4a8e-45c7-a1d7-f2d19810c827&projectId=a0a8f18c-a66e-4ba7-a170-23efbdc67501","0FF470B49575441C9F7D896D5175B919-2024-11-24-18-46-23","","null","","images/instructions/movie_0.png","null","",""
"","","","","","image-button-response","9","62220","0.0-6.0-1.0-0.0","0FF470B49575441C9F7D896D5175B919","0FF470B49575441C9F7D896D5175B919","86d0064c-4a8e-45c7-a1d7-f2d19810c827","a0a8f18c-a66e-4ba7-a170-23efbdc67501","{""participantId"":""0FF470B49575441C9F7D896D5175B919"",""assignmentId"":""86d0064c-4a8e-45c7-a1d7-f2d19810c827"",""projectId"":""a0a8f18c-a66e-4ba7-a170-23efbdc67501""}","https://test12345.live/?participantId=0FF470B49575441C9F7D896D5175B919&assignmentId=86d0064c-4a8e-45c7-a1d7-f2d19810c827&projectId=a0a8f18c-a66e-4ba7-a170-23efbdc67501","0FF470B49575441C9F7D896D5175B919-2024-11-24-18-46-23","","null","","images/instructions/movie_1.png","null","",""
"","","","","","image-button-response","10","65127","0.0-6.0-1.0-1.0","0FF470B49575441C9F7D896D5175B919","0FF470B49575441C9F7D896D5175B919","86d0064c-4a8e-45c7-a1d7-f2d19810c827","a0a8f18c-a66e-4ba7-a170-23efbdc67501","{""participantId"":""0FF470B49575441C9F7D896D5175B919"",""assignmentId"":""86d0064c-4a8e-45c7-a1d7-f2d19810c827"",""projectId"":""a0a8f18c-a66e-4ba7-a170-23efbdc67501""}","https://test12345.live/?participantId=0FF470B49575441C9F7D896D5175B919&assignmentId=86d0064c-4a8e-45c7-a1d7-f2d19810c827&projectId=a0a8f18c-a66e-4ba7-a170-23efbdc67501","0FF470B49575441C9F7D896D5175B919-2024-11-24-18-46-23","","2906","","images/instructions/movie_1.png","0","",""
"","","","","","image-button-response","11","66928","0.0-6.0-1.0-2.0","0FF470B49575441C9F7D896D5175B919","0FF470B49575441C9F7D896D5175B919","86d0064c-4a8e-45c7-a1d7-f2d19810c827","a0a8f18c-a66e-4ba7-a170-23efbdc67501","{""participantId"":""0FF470B49575441C9F7D896D5175B919"",""assignmentId"":""86d0064c-4a8e-45c7-a1d7-f2d19810c827"",""projectId"":""a0a8f18c-a66e-4ba7-a170-23efbdc67501""}","https://test12345.live/?participantId=0FF470B49575441C9F7D896D5175B919&assignmentId=86d0064c-4a8e-45c7-a1d7-f2d19810c827&projectId=a0a8f18c-a66e-4ba7-a170-23efbdc67501","0FF470B49575441C9F7D896D5175B919-2024-11-24-18-46-23","","null","","[]","null","",""
"","","","","","image-button-response","12","71441","0.0-6.0-1.0-0.1","0FF470B49575441C9F7D896D5175B919","0FF470B49575441C9F7D896D5175B919","86d0064c-4a8e-45c7-a1d7-f2d19810c827","a0a8f18c-a66e-4ba7-a170-23efbdc67501","{""participantId"":""0FF470B49575441C9F7D896D5175B919"",""assignmentId"":""86d0064c-4a8e-45c7-a1d7-f2d19810c827"",""projectId"":""a0a8f18c-a66e-4ba7-a170-23efbdc67501""}","https://test12345.live/?participantId=0FF470B49575441C9F7D896D5175B919&assignmentId=86d0064c-4a8e-45c7-a1d7-f2d19810c827&projectId=a0a8f18c-a66e-4ba7-a170-23efbdc67501","0FF470B49575441C9F7D896D5175B919-2024-11-24-18-46-23","","null","","images/instructions/movie_2.png","null","",""
"","","","","","image-button-response","13","73323","0.0-6.0-1.0-1.1","0FF470B49575441C9F7D896D5175B919","0FF470B49575441C9F7D896D5175B919","86d0064c-4a8e-45c7-a1d7-f2d19810c827","a0a8f18c-a66e-4ba7-a170-23efbdc67501","{""participantId"":""0FF470B49575441C9F7D896D5175B919"",""assignmentId"":""86d0064c-4a8e-45c7-a1d7-f2d19810c827"",""projectId"":""a0a8f18c-a66e-4ba7-a170-23efbdc67501""}","https://test12345.live/?participantId=0FF470B49575441C9F7D896D5175B919&assignmentId=86d0064c-4a8e-45c7-a1d7-f2d19810c827&projectId=a0a8f18c-a66e-4ba7-a170-23efbdc67501","0FF470B49575441C9F7D896D5175B919-2024-11-24-18-46-23","","1882","","images/instructions/movie_2.png","0","",""
"","","","","","image-button-response","14","75126","0.0-6.0-1.0-2.1","0FF470B49575441C9F7D896D5175B919","0FF470B49575441C9F7D896D5175B919","86d0064c-4a8e-45c7-a1d7-f2d19810c827","a0a8f18c-a66e-4ba7-a170-23efbdc67501","{""participantId"":""0FF470B49575441C9F7D896D5175B919"",""assignmentId"":""86d0064c-4a8e-45c7-a1d7-f2d19810c827"",""projectId"":""a0a8f18c-a66e-4ba7-a170-23efbdc67501""}","https://test12345.live/?participantId=0FF470B49575441C9F7D896D5175B919&assignmentId=86d0064c-4a8e-45c7-a1d7-f2d19810c827&projectId=a0a8f18c-a66e-4ba7-a170-23efbdc67501","0FF470B49575441C9F7D896D5175B919-2024-11-24-18-46-23","","null","","[]","null","",""
"","","","","","image-button-response","15","79632","0.0-6.0-1.0-0.2","0FF470B49575441C9F7D896D5175B919","0FF470B49575441C9F7D896D5175B919","86d0064c-4a8e-45c7-a1d7-f2d19810c827","a0a8f18c-a66e-4ba7-a170-23efbdc67501","{""participantId"":""0FF470B49575441C9F7D896D5175B919"",""assignmentId"":""86d0064c-4a8e-45c7-a1d7-f2d19810c827"",""projectId"":""a0a8f18c-a66e-4ba7-a170-23efbdc67501""}","https://test12345.live/?participantId=0FF470B49575441C9F7D896D5175B919&assignmentId=86d0064c-4a8e-45c7-a1d7-f2d19810c827&projectId=a0a8f18c-a66e-4ba7-a170-23efbdc67501","0FF470B49575441C9F7D896D5175B919-2024-11-24-18-46-23","","null","","images/instructions/movie_3.png","null","",""
"","","","","","image-button-response","16","81435","0.0-6.0-1.0-1.2","0FF470B49575441C9F7D896D5175B919","0FF470B49575441C9F7D896D5175B919","86d0064c-4a8e-45c7-a1d7-f2d19810c827","a0a8f18c-a66e-4ba7-a170-23efbdc67501","{""participantId"":""0FF470B49575441C9F7D896D5175B919"",""assignmentId"":""86d0064c-4a8e-45c7-a1d7-f2d19810c827"",""projectId"":""a0a8f18c-a66e-4ba7-a170-23efbdc67501""}","https://test12345.live/?participantId=0FF470B49575441C9F7D896D5175B919&assignmentId=86d0064c-4a8e-45c7-a1d7-f2d19810c827&projectId=a0a8f18c-a66e-4ba7-a170-23efbdc67501","0FF470B49575441C9F7D896D5175B919-2024-11-24-18-46-23","","1802","","images/instructions/movie_3.png","0","",""
"","","","","","image-button-response","17","83239","0.0-6.0-1.0-2.2","0FF470B49575441C9F7D896D5175B919","0FF470B49575441C9F7D896D5175B919","86d0064c-4a8e-45c7-a1d7-f2d19810c827","a0a8f18c-a66e-4ba7-a170-23efbdc67501","{""participantId"":""0FF470B49575441C9F7D896D5175B919"",""assignmentId"":""86d0064c-4a8e-45c7-a1d7-f2d19810c827"",""projectId"":""a0a8f18c-a66e-4ba7-a170-23efbdc67501""}","https://test12345.live/?participantId=0FF470B49575441C9F7D896D5175B919&assignmentId=86d0064c-4a8e-45c7-a1d7-f2d19810c827&projectId=a0a8f18c-a66e-4ba7-a170-23efbdc67501","0FF470B49575441C9F7D896D5175B919-2024-11-24-18-46-23","","null","","[]","null","",""
"","","","","","image-button-response","18","87752","0.0-6.0-1.0-0.3","0FF470B49575441C9F7D896D5175B919","0FF470B49575441C9F7D896D5175B919","86d0064c-4a8e-45c7-a1d7-f2d19810c827","a0a8f18c-a66e-4ba7-a170-23efbdc67501","{""participantId"":""0FF470B49575441C9F7D896D5175B919"",""assignmentId"":""86d0064c-4a8e-45c7-a1d7-f2d19810c827"",""projectId"":""a0a8f18c-a66e-4ba7-a170-23efbdc67501""}","https://test12345.live/?participantId=0FF470B49575441C9F7D896D5175B919&assignmentId=86d0064c-4a8e-45c7-a1d7-f2d19810c827&projectId=a0a8f18c-a66e-4ba7-a170-23efbdc67501","0FF470B49575441C9F7D896D5175B919-2024-11-24-18-46-23","","null","","images/instructions/movie_4.png","null","",""
"","","","","","image-button-response","19","88923","0.0-6.0-1.0-1.3","0FF470B49575441C9F7D896D5175B919","0FF470B49575441C9F7D896D5175B919","86d0064c-4a8e-45c7-a1d7-f2d19810c827","a0a8f18c-a66e-4ba7-a170-23efbdc67501","{""participantId"":""0FF470B49575441C9F7D896D5175B919"",""assignmentId"":""86d0064c-4a8e-45c7-a1d7-f2d19810c827"",""projectId"":""a0a8f18c-a66e-4ba7-a170-23efbdc67501""}","https://test12345.live/?participantId=0FF470B49575441C9F7D896D5175B919&assignmentId=86d0064c-4a8e-45c7-a1d7-f2d19810c827&projectId=a0a8f18c-a66e-4ba7-a170-23efbdc67501","0FF470B49575441C9F7D896D5175B919-2024-11-24-18-46-23","","1171","","images/instructions/movie_4.png","0","",""
"","","","","","image-button-response","20","90724","0.0-6.0-1.0-2.3","0FF470B49575441C9F7D896D5175B919","0FF470B49575441C9F7D896D5175B919","86d0064c-4a8e-45c7-a1d7-f2d19810c827","a0a8f18c-a66e-4ba7-a170-23efbdc67501","{""participantId"":""0FF470B49575441C9F7D896D5175B919"",""assignmentId"":""86d0064c-4a8e-45c7-a1d7-f2d19810c827"",""projectId"":""a0a8f18c-a66e-4ba7-a170-23efbdc67501""}","https://test12345.live/?participantId=0FF470B49575441C9F7D896D5175B919&assignmentId=86d0064c-4a8e-45c7-a1d7-f2d19810c827&projectId=a0a8f18c-a66e-4ba7-a170-23efbdc67501","0FF470B49575441C9F7D896D5175B919-2024-11-24-18-46-23","","null","","[]","null","",""
"","","","","","instructions","21","108691","0.0-7.0","0FF470B49575441C9F7D896D5175B919","0FF470B49575441C9F7D896D5175B919","86d0064c-4a8e-45c7-a1d7-f2d19810c827","a0a8f18c-a66e-4ba7-a170-23efbdc67501","{""participantId"":""0FF470B49575441C9F7D896D5175B919"",""assignmentId"":""86d0064c-4a8e-45c7-a1d7-f2d19810c827"",""projectId"":""a0a8f18c-a66e-4ba7-a170-23efbdc67501""}","https://test12345.live/?participantId=0FF470B49575441C9F7D896D5175B919&assignmentId=86d0064c-4a8e-45c7-a1d7-f2d19810c827&projectId=a0a8f18c-a66e-4ba7-a170-23efbdc67501","0FF470B49575441C9F7D896D5175B919-2024-11-24-18-46-23","[{""page_index"":0,""viewing_time"":8163},{""page_index"":1,""viewing_time"":9804}]","17967","","","","",""
"","","","","","html-audio-response","22","121696","0.0-8.0","0FF470B49575441C9F7D896D5175B919","0FF470B49575441C9F7D896D5175B919","86d0064c-4a8e-45c7-a1d7-f2d19810c827","a0a8f18c-a66e-4ba7-a170-23efbdc67501","{""participantId"":""0FF470B49575441C9F7D896D5175B919"",""assignmentId"":""86d0064c-4a8e-45c7-a1d7-f2d19810c827"",""projectId"":""a0a8f18c-a66e-4ba7-a170-23efbdc67501""}","https://test12345.live/?participantId=0FF470B49575441C9F7D896D5175B919&assignmentId=86d0064c-4a8e-45c7-a1d7-f2d19810c827&projectId=a0a8f18c-a66e-4ba7-a170-23efbdc67501","0FF470B49575441C9F7D896D5175B919-2024-11-24-18-46-23","","11156","","[""<span style=\""color: red; font-size: 24px\""> NOW RECORDING</span><p>Please say out loud all the images you saw, as many as you can remember. The images can be said in any order.</p>""]","","2",""
"","","","","","instructions","23","128104","0.0-9.0","0FF470B49575441C9F7D896D5175B919","0FF470B49575441C9F7D896D5175B919","86d0064c-4a8e-45c7-a1d7-f2d19810c827","a0a8f18c-a66e-4ba7-a170-23efbdc67501","{""participantId"":""0FF470B49575441C9F7D896D5175B919"",""assignmentId"":""86d0064c-4a8e-45c7-a1d7-f2d19810c827"",""projectId"":""a0a8f18c-a66e-4ba7-a170-23efbdc67501""}","https://test12345.live/?participantId=0FF470B49575441C9F7D896D5175B919&assignmentId=86d0064c-4a8e-45c7-a1d7-f2d19810c827&projectId=a0a8f18c-a66e-4ba7-a170-23efbdc67501","0FF470B49575441C9F7D896D5175B919-2024-11-24-18-46-23","[{""page_index"":0,""viewing_time"":6406}]","6406","","","","",""
"","","","","","image-button-response","24","134110","0.0-10.0-0.0","0FF470B49575441C9F7D896D5175B919","0FF470B49575441C9F7D896D5175B919","86d0064c-4a8e-45c7-a1d7-f2d19810c827","a0a8f18c-a66e-4ba7-a170-23efbdc67501","{""participantId"":""0FF470B49575441C9F7D896D5175B919"",""assignmentId"":""86d0064c-4a8e-45c7-a1d7-f2d19810c827"",""projectId"":""a0a8f18c-a66e-4ba7-a170-23efbdc67501""}","https://test12345.live/?participantId=0FF470B49575441C9F7D896D5175B919&assignmentId=86d0064c-4a8e-45c7-a1d7-f2d19810c827&projectId=a0a8f18c-a66e-4ba7-a170-23efbdc67501","0FF470B49575441C9F7D896D5175B919-2024-11-24-18-46-23","","null","","images/schematic_sequence/restaurant_scheme/restaurant_scheme_0.png","null","",""
"","","","","","image-button-response","25","138616","0.0-10.0-1.0-0.0","0FF470B49575441C9F7D896D5175B919","0FF470B49575441C9F7D896D5175B919","86d0064c-4a8e-45c7-a1d7-f2d19810c827","a0a8f18c-a66e-4ba7-a170-23efbdc67501","{""participantId"":""0FF470B49575441C9F7D896D5175B919"",""assignmentId"":""86d0064c-4a8e-45c7-a1d7-f2d19810c827"",""projectId"":""a0a8f18c-a66e-4ba7-a170-23efbdc67501""}","https://test12345.live/?participantId=0FF470B49575441C9F7D896D5175B919&assignmentId=86d0064c-4a8e-45c7-a1d7-f2d19810c827&projectId=a0a8f18c-a66e-4ba7-a170-23efbdc67501","0FF470B49575441C9F7D896D5175B919-2024-11-24-18-46-23","","null","","images/schematic_sequence/restaurant_scheme/restaurant_scheme_1.png","null","",""
"","","","","","image-button-response","26","140880","0.0-10.0-1.0-1.0","0FF470B49575441C9F7D896D5175B919","0FF470B49575441C9F7D896D5175B919","86d0064c-4a8e-45c7-a1d7-f2d19810c827","a0a8f18c-a66e-4ba7-a170-23efbdc67501","{""participantId"":""0FF470B49575441C9F7D896D5175B919"",""assignmentId"":""86d0064c-4a8e-45c7-a1d7-f2d19810c827"",""projectId"":""a0a8f18c-a66e-4ba7-a170-23efbdc67501""}","https://test12345.live/?participantId=0FF470B49575441C9F7D896D5175B919&assignmentId=86d0064c-4a8e-45c7-a1d7-f2d19810c827&projectId=a0a8f18c-a66e-4ba7-a170-23efbdc67501","0FF470B49575441C9F7D896D5175B919-2024-11-24-18-46-23","","2263","","images/schematic_sequence/restaurant_scheme/restaurant_scheme_1.png","0","",""
"","","","","","image-button-response","27","142694","0.0-10.0-1.0-2.0","0FF470B49575441C9F7D896D5175B919","0FF470B49575441C9F7D896D5175B919","86d0064c-4a8e-45c7-a1d7-f2d19810c827","a0a8f18c-a66e-4ba7-a170-23efbdc67501","{""participantId"":""0FF470B49575441C9F7D896D5175B919"",""assignmentId"":""86d0064c-4a8e-45c7-a1d7-f2d19810c827"",""projectId"":""a0a8f18c-a66e-4ba7-a170-23efbdc67501""}","https://test12345.live/?participantId=0FF470B49575441C9F7D896D5175B919&assignmentId=86d0064c-4a8e-45c7-a1d7-f2d19810c827&projectId=a0a8f18c-a66e-4ba7-a170-23efbdc67501","0FF470B49575441C9F7D896D5175B919-2024-11-24-18-46-23","","null","","[]","null","",""
"","","","","","image-button-response","28","147208","0.0-10.0-1.0-0.1","0FF470B49575441C9F7D896D5175B919","0FF470B49575441C9F7D896D5175B919","86d0064c-4a8e-45c7-a1d7-f2d19810c827","a0a8f18c-a66e-4ba7-a170-23efbdc67501","{""participantId"":""0FF470B49575441C9F7D896D5175B919"",""assignmentId"":""86d0064c-4a8e-45c7-a1d7-f2d19810c827"",""projectId"":""a0a8f18c-a66e-4ba7-a170-23efbdc67501""}","https://test12345.live/?participantId=0FF470B49575441C9F7D896D5175B919&assignmentId=86d0064c-4a8e-45c7-a1d7-f2d19810c827&projectId=a0a8f18c-a66e-4ba7-a170-23efbdc67501","0FF470B49575441C9F7D896D5175B919-2024-11-24-18-46-23","","null","","images/schematic_sequence/restaurant_scheme/restaurant_scheme_2.png","null","",""
"","","","","","image-button-response","29","151210","0.0-10.0-1.0-1.1","0FF470B49575441C9F7D896D5175B919","0FF470B49575441C9F7D896D5175B919","86d0064c-4a8e-45c7-a1d7-f2d19810c827","a0a8f18c-a66e-4ba7-a170-23efbdc67501","{""participantId"":""0FF470B49575441C9F7D896D5175B919"",""assignmentId"":""86d0064c-4a8e-45c7-a1d7-f2d19810c827"",""projectId"":""a0a8f18c-a66e-4ba7-a170-23efbdc67501""}","https://test12345.live/?participantId=0FF470B49575441C9F7D896D5175B919&assignmentId=86d0064c-4a8e-45c7-a1d7-f2d19810c827&projectId=a0a8f18c-a66e-4ba7-a170-23efbdc67501","0FF470B49575441C9F7D896D5175B919-2024-11-24-18-46-23","","null","","images/schematic_sequence/restaurant_scheme/restaurant_scheme_2.png","null","",""
"","","","","","image-button-response","30","153017","0.0-10.0-1.0-2.1","0FF470B49575441C9F7D896D5175B919","0FF470B49575441C9F7D896D5175B919","86d0064c-4a8e-45c7-a1d7-f2d19810c827","a0a8f18c-a66e-4ba7-a170-23efbdc67501","{""participantId"":""0FF470B49575441C9F7D896D5175B919"",""assignmentId"":""86d0064c-4a8e-45c7-a1d7-f2d19810c827"",""projectId"":""a0a8f18c-a66e-4ba7-a170-23efbdc67501""}","https://test12345.live/?participantId=0FF470B49575441C9F7D896D5175B919&assignmentId=86d0064c-4a8e-45c7-a1d7-f2d19810c827&projectId=a0a8f18c-a66e-4ba7-a170-23efbdc67501","0FF470B49575441C9F7D896D5175B919-2024-11-24-18-46-23","","null","","[]","null","",""
"","","","","","image-button-response","31","157533","0.0-10.0-1.0-0.2","0FF470B49575441C9F7D896D5175B919","0FF470B49575441C9F7D896D5175B919","86d0064c-4a8e-45c7-a1d7-f2d19810c827","a0a8f18c-a66e-4ba7-a170-23efbdc67501","{""participantId"":""0FF470B49575441C9F7D896D5175B919"",""assignmentId"":""86d0064c-4a8e-45c7-a1d7-f2d19810c827"",""projectId"":""a0a8f18c-a66e-4ba7-a170-23efbdc67501""}","https://test12345.live/?participantId=0FF470B49575441C9F7D896D5175B919&assignmentId=86d0064c-4a8e-45c7-a1d7-f2d19810c827&projectId=a0a8f18c-a66e-4ba7-a170-23efbdc67501","0FF470B49575441C9F7D896D5175B919-2024-11-24-18-46-23","","null","","images/schematic_sequence/restaurant_scheme/restaurant_scheme_3.png","null","",""
"","","","","","image-button-response","32","159172","0.0-10.0-1.0-1.2","0FF470B49575441C9F7D896D5175B919","0FF470B49575441C9F7D896D5175B919","86d0064c-4a8e-45c7-a1d7-f2d19810c827","a0a8f18c-a66e-4ba7-a170-23efbdc67501","{""participantId"":""0FF470B49575441C9F7D896D5175B919"",""assignmentId"":""86d0064c-4a8e-45c7-a1d7-f2d19810c827"",""projectId"":""a0a8f18c-a66e-4ba7-a170-23efbdc67501""}","https://test12345.live/?participantId=0FF470B49575441C9F7D896D5175B919&assignmentId=86d0064c-4a8e-45c7-a1d7-f2d19810c827&projectId=a0a8f18c-a66e-4ba7-a170-23efbdc67501","0FF470B49575441C9F7D896D5175B919-2024-11-24-18-46-23","","1639","","images/schematic_sequence/restaurant_scheme/restaurant_scheme_3.png","1","",""
"","","","","","image-button-response","33","160983","0.0-10.0-1.0-2.2","0FF470B49575441C9F7D896D5175B919","0FF470B49575441C9F7D896D5175B919","86d0064c-4a8e-45c7-a1d7-f2d19810c827","a0a8f18c-a66e-4ba7-a170-23efbdc67501","{""participantId"":""0FF470B49575441C9F7D896D5175B919"",""assignmentId"":""86d0064c-4a8e-45c7-a1d7-f2d19810c827"",""projectId"":""a0a8f18c-a66e-4ba7-a170-23efbdc67501""}","https://test12345.live/?participantId=0FF470B49575441C9F7D896D5175B919&assignmentId=86d0064c-4a8e-45c7-a1d7-f2d19810c827&projectId=a0a8f18c-a66e-4ba7-a170-23efbdc67501","0FF470B49575441C9F7D896D5175B919-2024-11-24-18-46-23","","null","","[]","null","",""
"","","","","","image-button-response","34","165493","0.0-10.0-1.0-0.3","0FF470B49575441C9F7D896D5175B919","0FF470B49575441C9F7D896D5175B919","86d0064c-4a8e-45c7-a1d7-f2d19810c827","a0a8f18c-a66e-4ba7-a170-23efbdc67501","{""participantId"":""0FF470B49575441C9F7D896D5175B919"",""assignmentId"":""86d0064c-4a8e-45c7-a1d7-f2d19810c827"",""projectId"":""a0a8f18c-a66e-4ba7-a170-23efbdc67501""}","https://test12345.live/?participantId=0FF470B49575441C9F7D896D5175B919&assignmentId=86d0064c-4a8e-45c7-a1d7-f2d19810c827&projectId=a0a8f18c-a66e-4ba7-a170-23efbdc67501","0FF470B49575441C9F7D896D5175B919-2024-11-24-18-46-23","","null","","images/schematic_sequence/restaurant_scheme/restaurant_scheme_4.png","null","",""
"","","","","","image-button-response","35","166880","0.0-10.0-1.0-1.3","0FF470B49575441C9F7D896D5175B919","0FF470B49575441C9F7D896D5175B919","86d0064c-4a8e-45c7-a1d7-f2d19810c827","a0a8f18c-a66e-4ba7-a170-23efbdc67501","{""participantId"":""0FF470B49575441C9F7D896D5175B919"",""assignmentId"":""86d0064c-4a8e-45c7-a1d7-f2d19810c827"",""projectId"":""a0a8f18c-a66e-4ba7-a170-23efbdc67501""}","https://test12345.live/?participantId=0FF470B49575441C9F7D896D5175B919&assignmentId=86d0064c-4a8e-45c7-a1d7-f2d19810c827&projectId=a0a8f18c-a66e-4ba7-a170-23efbdc67501","0FF470B49575441C9F7D896D5175B919-2024-11-24-18-46-23","","1387","","images/schematic_sequence/restaurant_scheme/restaurant_scheme_4.png","0","",""
"","","","","","image-button-response","36","168682","0.0-10.0-1.0-2.3","0FF470B49575441C9F7D896D5175B919","0FF470B49575441C9F7D896D5175B919","86d0064c-4a8e-45c7-a1d7-f2d19810c827","a0a8f18c-a66e-4ba7-a170-23efbdc67501","{""participantId"":""0FF470B49575441C9F7D896D5175B919"",""assignmentId"":""86d0064c-4a8e-45c7-a1d7-f2d19810c827"",""projectId"":""a0a8f18c-a66e-4ba7-a170-23efbdc67501""}","https://test12345.live/?participantId=0FF470B49575441C9F7D896D5175B919&assignmentId=86d0064c-4a8e-45c7-a1d7-f2d19810c827&projectId=a0a8f18c-a66e-4ba7-a170-23efbdc67501","0FF470B49575441C9F7D896D5175B919-2024-11-24-18-46-23","","null","","[]","null","",""
"","","","","","image-button-response","37","173195","0.0-10.0-1.0-0.4","0FF470B49575441C9F7D896D5175B919","0FF470B49575441C9F7D896D5175B919","86d0064c-4a8e-45c7-a1d7-f2d19810c827","a0a8f18c-a66e-4ba7-a170-23efbdc67501","{""participantId"":""0FF470B49575441C9F7D896D5175B919"",""assignmentId"":""86d0064c-4a8e-45c7-a1d7-f2d19810c827"",""projectId"":""a0a8f18c-a66e-4ba7-a170-23efbdc67501""}","https://test12345.live/?participantId=0FF470B49575441C9F7D896D5175B919&assignmentId=86d0064c-4a8e-45c7-a1d7-f2d19810c827&projectId=a0a8f18c-a66e-4ba7-a170-23efbdc67501","0FF470B49575441C9F7D896D5175B919-2024-11-24-18-46-23","","null","","images/schematic_sequence/restaurant_scheme/restaurant_scheme_5.png","null","",""
"","","","","","image-button-response","38","174972","0.0-10.0-1.0-1.4","0FF470B49575441C9F7D896D5175B919","0FF470B49575441C9F7D896D5175B919","86d0064c-4a8e-45c7-a1d7-f2d19810c827","a0a8f18c-a66e-4ba7-a170-23efbdc67501","{""participantId"":""0FF470B49575441C9F7D896D5175B919"",""assignmentId"":""86d0064c-4a8e-45c7-a1d7-f2d19810c827"",""projectId"":""a0a8f18c-a66e-4ba7-a170-23efbdc67501""}","https://test12345.live/?participantId=0FF470B49575441C9F7D896D5175B919&assignmentId=86d0064c-4a8e-45c7-a1d7-f2d19810c827&projectId=a0a8f18c-a66e-4ba7-a170-23efbdc67501","0FF470B49575441C9F7D896D5175B919-2024-11-24-18-46-23","","1777","","images/schematic_sequence/restaurant_scheme/restaurant_scheme_5.png","0","",""
"","","","","","image-button-response","39","176779","0.0-10.0-1.0-2.4","0FF470B49575441C9F7D896D5175B919","0FF470B49575441C9F7D896D5175B919","86d0064c-4a8e-45c7-a1d7-f2d19810c827","a0a8f18c-a66e-4ba7-a170-23efbdc67501","{""participantId"":""0FF470B49575441C9F7D896D5175B919"",""assignmentId"":""86d0064c-4a8e-45c7-a1d7-f2d19810c827"",""projectId"":""a0a8f18c-a66e-4ba7-a170-23efbdc67501""}","https://test12345.live/?participantId=0FF470B49575441C9F7D896D5175B919&assignmentId=86d0064c-4a8e-45c7-a1d7-f2d19810c827&projectId=a0a8f18c-a66e-4ba7-a170-23efbdc67501","0FF470B49575441C9F7D896D5175B919-2024-11-24-18-46-23","","null","","[]","null","",""
"","","","","","image-button-response","40","181280","0.0-10.0-1.0-0.5","0FF470B49575441C9F7D896D5175B919","0FF470B49575441C9F7D896D5175B919","86d0064c-4a8e-45c7-a1d7-f2d19810c827","a0a8f18c-a66e-4ba7-a170-23efbdc67501","{""participantId"":""0FF470B49575441C9F7D896D5175B919"",""assignmentId"":""86d0064c-4a8e-45c7-a1d7-f2d19810c827"",""projectId"":""a0a8f18c-a66e-4ba7-a170-23efbdc67501""}","https://test12345.live/?participantId=0FF470B49575441C9F7D896D5175B919&assignmentId=86d0064c-4a8e-45c7-a1d7-f2d19810c827&projectId=a0a8f18c-a66e-4ba7-a170-23efbdc67501","0FF470B49575441C9F7D896D5175B919-2024-11-24-18-46-23","","null","","images/schematic_sequence/restaurant_scheme/restaurant_scheme_6.png","null","",""
"","","","","","image-button-response","41","182741","0.0-10.0-1.0-1.5","0FF470B49575441C9F7D896D5175B919","0FF470B49575441C9F7D896D5175B919","86d0064c-4a8e-45c7-a1d7-f2d19810c827","a0a8f18c-a66e-4ba7-a170-23efbdc67501","{""participantId"":""0FF470B49575441C9F7D896D5175B919"",""assignmentId"":""86d0064c-4a8e-45c7-a1d7-f2d19810c827"",""projectId"":""a0a8f18c-a66e-4ba7-a170-23efbdc67501""}","https://test12345.live/?participantId=0FF470B49575441C9F7D896D5175B919&assignmentId=86d0064c-4a8e-45c7-a1d7-f2d19810c827&projectId=a0a8f18c-a66e-4ba7-a170-23efbdc67501","0FF470B49575441C9F7D896D5175B919-2024-11-24-18-46-23","","1460","","images/schematic_sequence/restaurant_scheme/restaurant_scheme_6.png","1","",""
"","","","","","image-button-response","42","184555","0.0-10.0-1.0-2.5","0FF470B49575441C9F7D896D5175B919","0FF470B49575441C9F7D896D5175B919","86d0064c-4a8e-45c7-a1d7-f2d19810c827","a0a8f18c-a66e-4ba7-a170-23efbdc67501","{""participantId"":""0FF470B49575441C9F7D896D5175B919"",""assignmentId"":""86d0064c-4a8e-45c7-a1d7-f2d19810c827"",""projectId"":""a0a8f18c-a66e-4ba7-a170-23efbdc67501""}","https://test12345.live/?participantId=0FF470B49575441C9F7D896D5175B919&assignmentId=86d0064c-4a8e-45c7-a1d7-f2d19810c827&projectId=a0a8f18c-a66e-4ba7-a170-23efbdc67501","0FF470B49575441C9F7D896D5175B919-2024-11-24-18-46-23","","null","","[]","null","",""
"","","","","","image-button-response","43","189063","0.0-10.0-1.0-0.6","0FF470B49575441C9F7D896D5175B919","0FF470B49575441C9F7D896D5175B919","86d0064c-4a8e-45c7-a1d7-f2d19810c827","a0a8f18c-a66e-4ba7-a170-23efbdc67501","{""participantId"":""0FF470B49575441C9F7D896D5175B919"",""assignmentId"":""86d0064c-4a8e-45c7-a1d7-f2d19810c827"",""projectId"":""a0a8f18c-a66e-4ba7-a170-23efbdc67501""}","https://test12345.live/?participantId=0FF470B49575441C9F7D896D5175B919&assignmentId=86d0064c-4a8e-45c7-a1d7-f2d19810c827&projectId=a0a8f18c-a66e-4ba7-a170-23efbdc67501","0FF470B49575441C9F7D896D5175B919-2024-11-24-18-46-23","","null","","images/schematic_sequence/restaurant_scheme/restaurant_scheme_7.png","null","",""
"","","","","","image-button-response","44","191021","0.0-10.0-1.0-1.6","0FF470B49575441C9F7D896D5175B919","0FF470B49575441C9F7D896D5175B919","86d0064c-4a8e-45c7-a1d7-f2d19810c827","a0a8f18c-a66e-4ba7-a170-23efbdc67501","{""participantId"":""0FF470B49575441C9F7D896D5175B919"",""assignmentId"":""86d0064c-4a8e-45c7-a1d7-f2d19810c827"",""projectId"":""a0a8f18c-a66e-4ba7-a170-23efbdc67501""}","https://test12345.live/?participantId=0FF470B49575441C9F7D896D5175B919&assignmentId=86d0064c-4a8e-45c7-a1d7-f2d19810c827&projectId=a0a8f18c-a66e-4ba7-a170-23efbdc67501","0FF470B49575441C9F7D896D5175B919-2024-11-24-18-46-23","","1957","","images/schematic_sequence/restaurant_scheme/restaurant_scheme_7.png","1","",""
"","","","","","image-button-response","45","192822","0.0-10.0-1.0-2.6","0FF470B49575441C9F7D896D5175B919","0FF470B49575441C9F7D896D5175B919","86d0064c-4a8e-45c7-a1d7-f2d19810c827","a0a8f18c-a66e-4ba7-a170-23efbdc67501","{""participantId"":""0FF470B49575441C9F7D896D5175B919"",""assignmentId"":""86d0064c-4a8e-45c7-a1d7-f2d19810c827"",""projectId"":""a0a8f18c-a66e-4ba7-a170-23efbdc67501""}","https://test12345.live/?participantId=0FF470B49575441C9F7D896D5175B919&assignmentId=86d0064c-4a8e-45c7-a1d7-f2d19810c827&projectId=a0a8f18c-a66e-4ba7-a170-23efbdc67501","0FF470B49575441C9F7D896D5175B919-2024-11-24-18-46-23","","null","","[]","null","",""
"","","","","","image-button-response","46","197326","0.0-10.0-1.0-0.7","0FF470B49575441C9F7D896D5175B919","0FF470B49575441C9F7D896D5175B919","86d0064c-4a8e-45c7-a1d7-f2d19810c827","a0a8f18c-a66e-4ba7-a170-23efbdc67501","{""participantId"":""0FF470B49575441C9F7D896D5175B919"",""assignmentId"":""86d0064c-4a8e-45c7-a1d7-f2d19810c827"",""projectId"":""a0a8f18c-a66e-4ba7-a170-23efbdc67501""}","https://test12345.live/?participantId=0FF470B49575441C9F7D896D5175B919&assignmentId=86d0064c-4a8e-45c7-a1d7-f2d19810c827&projectId=a0a8f18c-a66e-4ba7-a170-23efbdc67501","0FF470B49575441C9F7D896D5175B919-2024-11-24-18-46-23","","null","","images/schematic_sequence/restaurant_scheme/restaurant_scheme_8.png","null","",""
"","","","","","image-button-response","47","201336","0.0-10.0-1.0-1.7","0FF470B49575441C9F7D896D5175B919","0FF470B49575441C9F7D896D5175B919","86d0064c-4a8e-45c7-a1d7-f2d19810c827","a0a8f18c-a66e-4ba7-a170-23efbdc67501","{""participantId"":""0FF470B49575441C9F7D896D5175B919"",""assignmentId"":""86d0064c-4a8e-45c7-a1d7-f2d19810c827"",""projectId"":""a0a8f18c-a66e-4ba7-a170-23efbdc67501""}","https://test12345.live/?participantId=0FF470B49575441C9F7D896D5175B919&assignmentId=86d0064c-4a8e-45c7-a1d7-f2d19810c827&projectId=a0a8f18c-a66e-4ba7-a170-23efbdc67501","0FF470B49575441C9F7D896D5175B919-2024-11-24-18-46-23","","null","","images/schematic_sequence/restaurant_scheme/restaurant_scheme_8.png","null","",""
"","","","","","image-button-response","48","203141","0.0-10.0-1.0-2.7","0FF470B49575441C9F7D896D5175B919","0FF470B49575441C9F7D896D5175B919","86d0064c-4a8e-45c7-a1d7-f2d19810c827","a0a8f18c-a66e-4ba7-a170-23efbdc67501","{""participantId"":""0FF470B49575441C9F7D896D5175B919"",""assignmentId"":""86d0064c-4a8e-45c7-a1d7-f2d19810c827"",""projectId"":""a0a8f18c-a66e-4ba7-a170-23efbdc67501""}","https://test12345.live/?participantId=0FF470B49575441C9F7D896D5175B919&assignmentId=86d0064c-4a8e-45c7-a1d7-f2d19810c827&projectId=a0a8f18c-a66e-4ba7-a170-23efbdc67501","0FF470B49575441C9F7D896D5175B919-2024-11-24-18-46-23","","null","","[]","null","",""
"","","","","","image-button-response","49","207642","0.0-10.0-1.0-0.8","0FF470B49575441C9F7D896D5175B919","0FF470B49575441C9F7D896D5175B919","86d0064c-4a8e-45c7-a1d7-f2d19810c827","a0a8f18c-a66e-4ba7-a170-23efbdc67501","{""participantId"":""0FF470B49575441C9F7D896D5175B919"",""assignmentId"":""86d0064c-4a8e-45c7-a1d7-f2d19810c827"",""projectId"":""a0a8f18c-a66e-4ba7-a170-23efbdc67501""}","https://test12345.live/?participantId=0FF470B49575441C9F7D896D5175B919&assignmentId=86d0064c-4a8e-45c7-a1d7-f2d19810c827&projectId=a0a8f18c-a66e-4ba7-a170-23efbdc67501","0FF470B49575441C9F7D896D5175B919-2024-11-24-18-46-23","","null","","images/schematic_sequence/restaurant_scheme/restaurant_scheme_9.png","null","",""
"","","","","","image-button-response","50","209081","0.0-10.0-1.0-1.8","0FF470B49575441C9F7D896D5175B919","0FF470B49575441C9F7D896D5175B919","86d0064c-4a8e-45c7-a1d7-f2d19810c827","a0a8f18c-a66e-4ba7-a170-23efbdc67501","{""participantId"":""0FF470B49575441C9F7D896D5175B919"",""assignmentId"":""86d0064c-4a8e-45c7-a1d7-f2d19810c827"",""projectId"":""a0a8f18c-a66e-4ba7-a170-23efbdc67501""}","https://test12345.live/?participantId=0FF470B49575441C9F7D896D5175B919&assignmentId=86d0064c-4a8e-45c7-a1d7-f2d19810c827&projectId=a0a8f18c-a66e-4ba7-a170-23efbdc67501","0FF470B49575441C9F7D896D5175B919-2024-11-24-18-46-23","","1438","","images/schematic_sequence/restaurant_scheme/restaurant_scheme_9.png","0","",""
"","","","","","image-button-response","51","210882","0.0-10.0-1.0-2.8","0FF470B49575441C9F7D896D5175B919","0FF470B49575441C9F7D896D5175B919","86d0064c-4a8e-45c7-a1d7-f2d19810c827","a0a8f18c-a66e-4ba7-a170-23efbdc67501","{""participantId"":""0FF470B49575441C9F7D896D5175B919"",""assignmentId"":""86d0064c-4a8e-45c7-a1d7-f2d19810c827"",""projectId"":""a0a8f18c-a66e-4ba7-a170-23efbdc67501""}","https://test12345.live/?participantId=0FF470B49575441C9F7D896D5175B919&assignmentId=86d0064c-4a8e-45c7-a1d7-f2d19810c827&projectId=a0a8f18c-a66e-4ba7-a170-23efbdc67501","0FF470B49575441C9F7D896D5175B919-2024-11-24-18-46-23","","null","","[]","null","",""
"","","","","","image-button-response","52","215386","0.0-10.0-1.0-0.9","0FF470B49575441C9F7D896D5175B919","0FF470B49575441C9F7D896D5175B919","86d0064c-4a8e-45c7-a1d7-f2d19810c827","a0a8f18c-a66e-4ba7-a170-23efbdc67501","{""participantId"":""0FF470B49575441C9F7D896D5175B919"",""assignmentId"":""86d0064c-4a8e-45c7-a1d7-f2d19810c827"",""projectId"":""a0a8f18c-a66e-4ba7-a170-23efbdc67501""}","https://test12345.live/?participantId=0FF470B49575441C9F7D896D5175B919&assignmentId=86d0064c-4a8e-45c7-a1d7-f2d19810c827&projectId=a0a8f18c-a66e-4ba7-a170-23efbdc67501","0FF470B49575441C9F7D896D5175B919-2024-11-24-18-46-23","","null","","images/schematic_sequence/restaurant_scheme/restaurant_scheme_ten.png","null","",""
"","","","","","image-button-response","53","216373","0.0-10.0-1.0-1.9","0FF470B49575441C9F7D896D5175B919","0FF470B49575441C9F7D896D5175B919","86d0064c-4a8e-45c7-a1d7-f2d19810c827","a0a8f18c-a66e-4ba7-a170-23efbdc67501","{""participantId"":""0FF470B49575441C9F7D896D5175B919"",""assignmentId"":""86d0064c-4a8e-45c7-a1d7-f2d19810c827"",""projectId"":""a0a8f18c-a66e-4ba7-a170-23efbdc67501""}","https://test12345.live/?participantId=0FF470B49575441C9F7D896D5175B919&assignmentId=86d0064c-4a8e-45c7-a1d7-f2d19810c827&projectId=a0a8f18c-a66e-4ba7-a170-23efbdc67501","0FF470B49575441C9F7D896D5175B919-2024-11-24-18-46-23","","987","","images/schematic_sequence/restaurant_scheme/restaurant_scheme_ten.png","0","",""
"","","","","","image-button-response","54","218189","0.0-10.0-1.0-2.9","0FF470B49575441C9F7D896D5175B919","0FF470B49575441C9F7D896D5175B919","86d0064c-4a8e-45c7-a1d7-f2d19810c827","a0a8f18c-a66e-4ba7-a170-23efbdc67501","{""participantId"":""0FF470B49575441C9F7D896D5175B919"",""assignmentId"":""86d0064c-4a8e-45c7-a1d7-f2d19810c827"",""projectId"":""a0a8f18c-a66e-4ba7-a170-23efbdc67501""}","https://test12345.live/?participantId=0FF470B49575441C9F7D896D5175B919&assignmentId=86d0064c-4a8e-45c7-a1d7-f2d19810c827&projectId=a0a8f18c-a66e-4ba7-a170-23efbdc67501","0FF470B49575441C9F7D896D5175B919-2024-11-24-18-46-23","","null","","[]","null","",""
"","","","","","html-audio-response","55","245222","0.0-11.0","0FF470B49575441C9F7D896D5175B919","0FF470B49575441C9F7D896D5175B919","86d0064c-4a8e-45c7-a1d7-f2d19810c827","a0a8f18c-a66e-4ba7-a170-23efbdc67501","{""participantId"":""0FF470B49575441C9F7D896D5175B919"",""assignmentId"":""86d0064c-4a8e-45c7-a1d7-f2d19810c827"",""projectId"":""a0a8f18c-a66e-4ba7-a170-23efbdc67501""}","https://test12345.live/?participantId=0FF470B49575441C9F7D896D5175B919&assignmentId=86d0064c-4a8e-45c7-a1d7-f2d19810c827&projectId=a0a8f18c-a66e-4ba7-a170-23efbdc67501","0FF470B49575441C9F7D896D5175B919-2024-11-24-18-46-23","","21390","","[""<span style=\""color: red; font-size: 24px\""> NOW RECORDING</span><p>Please say out loud all the images you saw, as many as you can remember. The images can be said in any order.</p>""]","","7","restaurant_scheme"
"","","","","","image-button-response","56","251229","0.0-12.0-0.0","0FF470B49575441C9F7D896D5175B919","0FF470B49575441C9F7D896D5175B919","86d0064c-4a8e-45c7-a1d7-f2d19810c827","a0a8f18c-a66e-4ba7-a170-23efbdc67501","{""participantId"":""0FF470B49575441C9F7D896D5175B919"",""assignmentId"":""86d0064c-4a8e-45c7-a1d7-f2d19810c827"",""projectId"":""a0a8f18c-a66e-4ba7-a170-23efbdc67501""}","https://test12345.live/?participantId=0FF470B49575441C9F7D896D5175B919&assignmentId=86d0064c-4a8e-45c7-a1d7-f2d19810c827&projectId=a0a8f18c-a66e-4ba7-a170-23efbdc67501","0FF470B49575441C9F7D896D5175B919-2024-11-24-18-46-23","","null","","images/causal_sequence/dog_causal/dog_causal_0.png","null","",""
"","","","","","image-button-response","57","255730","0.0-12.0-1.0-0.0","0FF470B49575441C9F7D896D5175B919","0FF470B49575441C9F7D896D5175B919","86d0064c-4a8e-45c7-a1d7-f2d19810c827","a0a8f18c-a66e-4ba7-a170-23efbdc67501","{""participantId"":""0FF470B49575441C9F7D896D5175B919"",""assignmentId"":""86d0064c-4a8e-45c7-a1d7-f2d19810c827"",""projectId"":""a0a8f18c-a66e-4ba7-a170-23efbdc67501""}","https://test12345.live/?participantId=0FF470B49575441C9F7D896D5175B919&assignmentId=86d0064c-4a8e-45c7-a1d7-f2d19810c827&projectId=a0a8f18c-a66e-4ba7-a170-23efbdc67501","0FF470B49575441C9F7D896D5175B919-2024-11-24-18-46-23","","null","","images/causal_sequence/dog_causal/dog_causal_9.png","null","",""
"","","","","","image-button-response","58","256934","0.0-12.0-1.0-1.0","0FF470B49575441C9F7D896D5175B919","0FF470B49575441C9F7D896D5175B919","86d0064c-4a8e-45c7-a1d7-f2d19810c827","a0a8f18c-a66e-4ba7-a170-23efbdc67501","{""participantId"":""0FF470B49575441C9F7D896D5175B919"",""assignmentId"":""86d0064c-4a8e-45c7-a1d7-f2d19810c827"",""projectId"":""a0a8f18c-a66e-4ba7-a170-23efbdc67501""}","https://test12345.live/?participantId=0FF470B49575441C9F7D896D5175B919&assignmentId=86d0064c-4a8e-45c7-a1d7-f2d19810c827&projectId=a0a8f18c-a66e-4ba7-a170-23efbdc67501","0FF470B49575441C9F7D896D5175B919-2024-11-24-18-46-23","","1203","","images/causal_sequence/dog_causal/dog_causal_9.png","0","",""
"","","","","","image-button-response","59","258747","0.0-12.0-1.0-2.0","0FF470B49575441C9F7D896D5175B919","0FF470B49575441C9F7D896D5175B919","86d0064c-4a8e-45c7-a1d7-f2d19810c827","a0a8f18c-a66e-4ba7-a170-23efbdc67501","{""participantId"":""0FF470B49575441C9F7D896D5175B919"",""assignmentId"":""86d0064c-4a8e-45c7-a1d7-f2d19810c827"",""projectId"":""a0a8f18c-a66e-4ba7-a170-23efbdc67501""}","https://test12345.live/?participantId=0FF470B49575441C9F7D896D5175B919&assignmentId=86d0064c-4a8e-45c7-a1d7-f2d19810c827&projectId=a0a8f18c-a66e-4ba7-a170-23efbdc67501","0FF470B49575441C9F7D896D5175B919-2024-11-24-18-46-23","","null","","[]","null","",""
"","","","","","image-button-response","60","263249","0.0-12.0-1.0-0.1","0FF470B49575441C9F7D896D5175B919","0FF470B49575441C9F7D896D5175B919","86d0064c-4a8e-45c7-a1d7-f2d19810c827","a0a8f18c-a66e-4ba7-a170-23efbdc67501","{""participantId"":""0FF470B49575441C9F7D896D5175B919"",""assignmentId"":""86d0064c-4a8e-45c7-a1d7-f2d19810c827"",""projectId"":""a0a8f18c-a66e-4ba7-a170-23efbdc67501""}","https://test12345.live/?participantId=0FF470B49575441C9F7D896D5175B919&assignmentId=86d0064c-4a8e-45c7-a1d7-f2d19810c827&projectId=a0a8f18c-a66e-4ba7-a170-23efbdc67501","0FF470B49575441C9F7D896D5175B919-2024-11-24-18-46-23","","null","","images/causal_sequence/dog_causal/dog_causal_5.png","null","",""
"","","","","","image-button-response","61","264334","0.0-12.0-1.0-1.1","0FF470B49575441C9F7D896D5175B919","0FF470B49575441C9F7D896D5175B919","86d0064c-4a8e-45c7-a1d7-f2d19810c827","a0a8f18c-a66e-4ba7-a170-23efbdc67501","{""participantId"":""0FF470B49575441C9F7D896D5175B919"",""assignmentId"":""86d0064c-4a8e-45c7-a1d7-f2d19810c827"",""projectId"":""a0a8f18c-a66e-4ba7-a170-23efbdc67501""}","https://test12345.live/?participantId=0FF470B49575441C9F7D896D5175B919&assignmentId=86d0064c-4a8e-45c7-a1d7-f2d19810c827&projectId=a0a8f18c-a66e-4ba7-a170-23efbdc67501","0FF470B49575441C9F7D896D5175B919-2024-11-24-18-46-23","","1085","","images/causal_sequence/dog_causal/dog_causal_5.png","0","",""
"","","","","","image-button-response","62","266149","0.0-12.0-1.0-2.1","0FF470B49575441C9F7D896D5175B919","0FF470B49575441C9F7D896D5175B919","86d0064c-4a8e-45c7-a1d7-f2d19810c827","a0a8f18c-a66e-4ba7-a170-23efbdc67501","{""participantId"":""0FF470B49575441C9F7D896D5175B919"",""assignmentId"":""86d0064c-4a8e-45c7-a1d7-f2d19810c827"",""projectId"":""a0a8f18c-a66e-4ba7-a170-23efbdc67501""}","https://test12345.live/?participantId=0FF470B49575441C9F7D896D5175B919&assignmentId=86d0064c-4a8e-45c7-a1d7-f2d19810c827&projectId=a0a8f18c-a66e-4ba7-a170-23efbdc67501","0FF470B49575441C9F7D896D5175B919-2024-11-24-18-46-23","","null","","[]","null","",""
"","","","","","image-button-response","63","270653","0.0-12.0-1.0-0.2","0FF470B49575441C9F7D896D5175B919","0FF470B49575441C9F7D896D5175B919","86d0064c-4a8e-45c7-a1d7-f2d19810c827","a0a8f18c-a66e-4ba7-a170-23efbdc67501","{""participantId"":""0FF470B49575441C9F7D896D5175B919"",""assignmentId"":""86d0064c-4a8e-45c7-a1d7-f2d19810c827"",""projectId"":""a0a8f18c-a66e-4ba7-a170-23efbdc67501""}","https://test12345.live/?participantId=0FF470B49575441C9F7D896D5175B919&assignmentId=86d0064c-4a8e-45c7-a1d7-f2d19810c827&projectId=a0a8f18c-a66e-4ba7-a170-23efbdc67501","0FF470B49575441C9F7D896D5175B919-2024-11-24-18-46-23","","null","","images/causal_sequence/dog_causal/dog_causal_6.png","null","",""
"","","","","","image-button-response","64","272682","0.0-12.0-1.0-1.2","0FF470B49575441C9F7D896D5175B919","0FF470B49575441C9F7D896D5175B919","86d0064c-4a8e-45c7-a1d7-f2d19810c827","a0a8f18c-a66e-4ba7-a170-23efbdc67501","{""participantId"":""0FF470B49575441C9F7D896D5175B919"",""assignmentId"":""86d0064c-4a8e-45c7-a1d7-f2d19810c827"",""projectId"":""a0a8f18c-a66e-4ba7-a170-23efbdc67501""}","https://test12345.live/?participantId=0FF470B49575441C9F7D896D5175B919&assignmentId=86d0064c-4a8e-45c7-a1d7-f2d19810c827&projectId=a0a8f18c-a66e-4ba7-a170-23efbdc67501","0FF470B49575441C9F7D896D5175B919-2024-11-24-18-46-23","","2028","","images/causal_sequence/dog_causal/dog_causal_6.png","0","",""
"","","","","","image-button-response","65","274486","0.0-12.0-1.0-2.2","0FF470B49575441C9F7D896D5175B919","0FF470B49575441C9F7D896D5175B919","86d0064c-4a8e-45c7-a1d7-f2d19810c827","a0a8f18c-a66e-4ba7-a170-23efbdc67501","{""participantId"":""0FF470B49575441C9F7D896D5175B919"",""assignmentId"":""86d0064c-4a8e-45c7-a1d7-f2d19810c827"",""projectId"":""a0a8f18c-a66e-4ba7-a170-23efbdc67501""}","https://test12345.live/?participantId=0FF470B49575441C9F7D896D5175B919&assignmentId=86d0064c-4a8e-45c7-a1d7-f2d19810c827&projectId=a0a8f18c-a66e-4ba7-a170-23efbdc67501","0FF470B49575441C9F7D896D5175B919-2024-11-24-18-46-23","","null","","[]","null","",""
"","","","","","image-button-response","66","279000","0.0-12.0-1.0-0.3","0FF470B49575441C9F7D896D5175B919","0FF470B49575441C9F7D896D5175B919","86d0064c-4a8e-45c7-a1d7-f2d19810c827","a0a8f18c-a66e-4ba7-a170-23efbdc67501","{""participantId"":""0FF470B49575441C9F7D896D5175B919"",""assignmentId"":""86d0064c-4a8e-45c7-a1d7-f2d19810c827"",""projectId"":""a0a8f18c-a66e-4ba7-a170-23efbdc67501""}","https://test12345.live/?participantId=0FF470B49575441C9F7D896D5175B919&assignmentId=86d0064c-4a8e-45c7-a1d7-f2d19810c827&projectId=a0a8f18c-a66e-4ba7-a170-23efbdc67501","0FF470B49575441C9F7D896D5175B919-2024-11-24-18-46-23","","null","","images/causal_sequence/dog_causal/dog_causal_1.png","null","",""
"","","","","","image-button-response","67","280782","0.0-12.0-1.0-1.3","0FF470B49575441C9F7D896D5175B919","0FF470B49575441C9F7D896D5175B919","86d0064c-4a8e-45c7-a1d7-f2d19810c827","a0a8f18c-a66e-4ba7-a170-23efbdc67501","{""participantId"":""0FF470B49575441C9F7D896D5175B919"",""assignmentId"":""86d0064c-4a8e-45c7-a1d7-f2d19810c827"",""projectId"":""a0a8f18c-a66e-4ba7-a170-23efbdc67501""}","https://test12345.live/?participantId=0FF470B49575441C9F7D896D5175B919&assignmentId=86d0064c-4a8e-45c7-a1d7-f2d19810c827&projectId=a0a8f18c-a66e-4ba7-a170-23efbdc67501","0FF470B49575441C9F7D896D5175B919-2024-11-24-18-46-23","","1782","","images/causal_sequence/dog_causal/dog_causal_1.png","0","",""
"","","","","","image-button-response","68","282593","0.0-12.0-1.0-2.3","0FF470B49575441C9F7D896D5175B919","0FF470B49575441C9F7D896D5175B919","86d0064c-4a8e-45c7-a1d7-f2d19810c827","a0a8f18c-a66e-4ba7-a170-23efbdc67501","{""participantId"":""0FF470B49575441C9F7D896D5175B919"",""assignmentId"":""86d0064c-4a8e-45c7-a1d7-f2d19810c827"",""projectId"":""a0a8f18c-a66e-4ba7-a170-23efbdc67501""}","https://test12345.live/?participantId=0FF470B49575441C9F7D896D5175B919&assignmentId=86d0064c-4a8e-45c7-a1d7-f2d19810c827&projectId=a0a8f18c-a66e-4ba7-a170-23efbdc67501","0FF470B49575441C9F7D896D5175B919-2024-11-24-18-46-23","","null","","[]","null","",""
"","","","","","image-button-response","69","287096","0.0-12.0-1.0-0.4","0FF470B49575441C9F7D896D5175B919","0FF470B49575441C9F7D896D5175B919","86d0064c-4a8e-45c7-a1d7-f2d19810c827","a0a8f18c-a66e-4ba7-a170-23efbdc67501","{""participantId"":""0FF470B49575441C9F7D896D5175B919"",""assignmentId"":""86d0064c-4a8e-45c7-a1d7-f2d19810c827"",""projectId"":""a0a8f18c-a66e-4ba7-a170-23efbdc67501""}","https://test12345.live/?participantId=0FF470B49575441C9F7D896D5175B919&assignmentId=86d0064c-4a8e-45c7-a1d7-f2d19810c827&projectId=a0a8f18c-a66e-4ba7-a170-23efbdc67501","0FF470B49575441C9F7D896D5175B919-2024-11-24-18-46-23","","null","","images/causal_sequence/dog_causal/dog_causal_7.png","null","",""
"","","","","","image-button-response","70","288431","0.0-12.0-1.0-1.4","0FF470B49575441C9F7D896D5175B919","0FF470B49575441C9F7D896D5175B919","86d0064c-4a8e-45c7-a1d7-f2d19810c827","a0a8f18c-a66e-4ba7-a170-23efbdc67501","{""participantId"":""0FF470B49575441C9F7D896D5175B919"",""assignmentId"":""86d0064c-4a8e-45c7-a1d7-f2d19810c827"",""projectId"":""a0a8f18c-a66e-4ba7-a170-23efbdc67501""}","https://test12345.live/?participantId=0FF470B49575441C9F7D896D5175B919&assignmentId=86d0064c-4a8e-45c7-a1d7-f2d19810c827&projectId=a0a8f18c-a66e-4ba7-a170-23efbdc67501","0FF470B49575441C9F7D896D5175B919-2024-11-24-18-46-23","","1334","","images/causal_sequence/dog_causal/dog_causal_7.png","0","",""
"","","","","","image-button-response","71","290239","0.0-12.0-1.0-2.4","0FF470B49575441C9F7D896D5175B919","0FF470B49575441C9F7D896D5175B919","86d0064c-4a8e-45c7-a1d7-f2d19810c827","a0a8f18c-a66e-4ba7-a170-23efbdc67501","{""participantId"":""0FF470B49575441C9F7D896D5175B919"",""assignmentId"":""86d0064c-4a8e-45c7-a1d7-f2d19810c827"",""projectId"":""a0a8f18c-a66e-4ba7-a170-23efbdc67501""}","https://test12345.live/?participantId=0FF470B49575441C9F7D896D5175B919&assignmentId=86d0064c-4a8e-45c7-a1d7-f2d19810c827&projectId=a0a8f18c-a66e-4ba7-a170-23efbdc67501","0FF470B49575441C9F7D896D5175B919-2024-11-24-18-46-23","","null","","[]","null","",""
"","","","","","image-button-response","72","294740","0.0-12.0-1.0-0.5","0FF470B49575441C9F7D896D5175B919","0FF470B49575441C9F7D896D5175B919","86d0064c-4a8e-45c7-a1d7-f2d19810c827","a0a8f18c-a66e-4ba7-a170-23efbdc67501","{""participantId"":""0FF470B49575441C9F7D896D5175B919"",""assignmentId"":""86d0064c-4a8e-45c7-a1d7-f2d19810c827"",""projectId"":""a0a8f18c-a66e-4ba7-a170-23efbdc67501""}","https://test12345.live/?participantId=0FF470B49575441C9F7D896D5175B919&assignmentId=86d0064c-4a8e-45c7-a1d7-f2d19810c827&projectId=a0a8f18c-a66e-4ba7-a170-23efbdc67501","0FF470B49575441C9F7D896D5175B919-2024-11-24-18-46-23","","null","","images/causal_sequence/dog_causal/dog_causal_ten.png","null","",""
"","","","","","image-button-response","73","296562","0.0-12.0-1.0-1.5","0FF470B49575441C9F7D896D5175B919","0FF470B49575441C9F7D896D5175B919","86d0064c-4a8e-45c7-a1d7-f2d19810c827","a0a8f18c-a66e-4ba7-a170-23efbdc67501","{""participantId"":""0FF470B49575441C9F7D896D5175B919"",""assignmentId"":""86d0064c-4a8e-45c7-a1d7-f2d19810c827"",""projectId"":""a0a8f18c-a66e-4ba7-a170-23efbdc67501""}","https://test12345.live/?participantId=0FF470B49575441C9F7D896D5175B919&assignmentId=86d0064c-4a8e-45c7-a1d7-f2d19810c827&projectId=a0a8f18c-a66e-4ba7-a170-23efbdc67501","0FF470B49575441C9F7D896D5175B919-2024-11-24-18-46-23","","1822","","images/causal_sequence/dog_causal/dog_causal_ten.png","0","",""
"","","","","","image-button-response","74","298376","0.0-12.0-1.0-2.5","0FF470B49575441C9F7D896D5175B919","0FF470B49575441C9F7D896D5175B919","86d0064c-4a8e-45c7-a1d7-f2d19810c827","a0a8f18c-a66e-4ba7-a170-23efbdc67501","{""participantId"":""0FF470B49575441C9F7D896D5175B919"",""assignmentId"":""86d0064c-4a8e-45c7-a1d7-f2d19810c827"",""projectId"":""a0a8f18c-a66e-4ba7-a170-23efbdc67501""}","https://test12345.live/?participantId=0FF470B49575441C9F7D896D5175B919&assignmentId=86d0064c-4a8e-45c7-a1d7-f2d19810c827&projectId=a0a8f18c-a66e-4ba7-a170-23efbdc67501","0FF470B49575441C9F7D896D5175B919-2024-11-24-18-46-23","","null","","[]","null","",""
"","","","","","image-button-response","75","302878","0.0-12.0-1.0-0.6","0FF470B49575441C9F7D896D5175B919","0FF470B49575441C9F7D896D5175B919","86d0064c-4a8e-45c7-a1d7-f2d19810c827","a0a8f18c-a66e-4ba7-a170-23efbdc67501","{""participantId"":""0FF470B49575441C9F7D896D5175B919"",""assignmentId"":""86d0064c-4a8e-45c7-a1d7-f2d19810c827"",""projectId"":""a0a8f18c-a66e-4ba7-a170-23efbdc67501""}","https://test12345.live/?participantId=0FF470B49575441C9F7D896D5175B919&assignmentId=86d0064c-4a8e-45c7-a1d7-f2d19810c827&projectId=a0a8f18c-a66e-4ba7-a170-23efbdc67501","0FF470B49575441C9F7D896D5175B919-2024-11-24-18-46-23","","null","","images/causal_sequence/dog_causal/dog_causal_4.png","null","",""
"","","","","","image-button-response","76","305058","0.0-12.0-1.0-1.6","0FF470B49575441C9F7D896D5175B919","0FF470B49575441C9F7D896D5175B919","86d0064c-4a8e-45c7-a1d7-f2d19810c827","a0a8f18c-a66e-4ba7-a170-23efbdc67501","{""participantId"":""0FF470B49575441C9F7D896D5175B919"",""assignmentId"":""86d0064c-4a8e-45c7-a1d7-f2d19810c827"",""projectId"":""a0a8f18c-a66e-4ba7-a170-23efbdc67501""}","https://test12345.live/?participantId=0FF470B49575441C9F7D896D5175B919&assignmentId=86d0064c-4a8e-45c7-a1d7-f2d19810c827&projectId=a0a8f18c-a66e-4ba7-a170-23efbdc67501","0FF470B49575441C9F7D896D5175B919-2024-11-24-18-46-23","","2179","","images/causal_sequence/dog_causal/dog_causal_4.png","0","",""
"","","","","","image-button-response","77","306866","0.0-12.0-1.0-2.6","0FF470B49575441C9F7D896D5175B919","0FF470B49575441C9F7D896D5175B919","86d0064c-4a8e-45c7-a1d7-f2d19810c827","a0a8f18c-a66e-4ba7-a170-23efbdc67501","{""participantId"":""0FF470B49575441C9F7D896D5175B919"",""assignmentId"":""86d0064c-4a8e-45c7-a1d7-f2d19810c827"",""projectId"":""a0a8f18c-a66e-4ba7-a170-23efbdc67501""}","https://test12345.live/?participantId=0FF470B49575441C9F7D896D5175B919&assignmentId=86d0064c-4a8e-45c7-a1d7-f2d19810c827&projectId=a0a8f18c-a66e-4ba7-a170-23efbdc67501","0FF470B49575441C9F7D896D5175B919-2024-11-24-18-46-23","","null","","[]","null","",""
"","","","","","image-button-response","78","311367","0.0-12.0-1.0-0.7","0FF470B49575441C9F7D896D5175B919","0FF470B49575441C9F7D896D5175B919","86d0064c-4a8e-45c7-a1d7-f2d19810c827","a0a8f18c-a66e-4ba7-a170-23efbdc67501","{""participantId"":""0FF470B49575441C9F7D896D5175B919"",""assignmentId"":""86d0064c-4a8e-45c7-a1d7-f2d19810c827"",""projectId"":""a0a8f18c-a66e-4ba7-a170-23efbdc67501""}","https://test12345.live/?participantId=0FF470B49575441C9F7D896D5175B919&assignmentId=86d0064c-4a8e-45c7-a1d7-f2d19810c827&projectId=a0a8f18c-a66e-4ba7-a170-23efbdc67501","0FF470B49575441C9F7D896D5175B919-2024-11-24-18-46-23","","null","","images/causal_sequence/dog_causal/dog_causal_3.png","null","",""
"","","","","","image-button-response","79","312186","0.0-12.0-1.0-1.7","0FF470B49575441C9F7D896D5175B919","0FF470B49575441C9F7D896D5175B919","86d0064c-4a8e-45c7-a1d7-f2d19810c827","a0a8f18c-a66e-4ba7-a170-23efbdc67501","{""participantId"":""0FF470B49575441C9F7D896D5175B919"",""assignmentId"":""86d0064c-4a8e-45c7-a1d7-f2d19810c827"",""projectId"":""a0a8f18c-a66e-4ba7-a170-23efbdc67501""}","https://test12345.live/?participantId=0FF470B49575441C9F7D896D5175B919&assignmentId=86d0064c-4a8e-45c7-a1d7-f2d19810c827&projectId=a0a8f18c-a66e-4ba7-a170-23efbdc67501","0FF470B49575441C9F7D896D5175B919-2024-11-24-18-46-23","","819","","images/causal_sequence/dog_causal/dog_causal_3.png","0","",""
"","","","","","image-button-response","80","314000","0.0-12.0-1.0-2.7","0FF470B49575441C9F7D896D5175B919","0FF470B49575441C9F7D896D5175B919","86d0064c-4a8e-45c7-a1d7-f2d19810c827","a0a8f18c-a66e-4ba7-a170-23efbdc67501","{""participantId"":""0FF470B49575441C9F7D896D5175B919"",""assignmentId"":""86d0064c-4a8e-45c7-a1d7-f2d19810c827"",""projectId"":""a0a8f18c-a66e-4ba7-a170-23efbdc67501""}","https://test12345.live/?participantId=0FF470B49575441C9F7D896D5175B919&assignmentId=86d0064c-4a8e-45c7-a1d7-f2d19810c827&projectId=a0a8f18c-a66e-4ba7-a170-23efbdc67501","0FF470B49575441C9F7D896D5175B919-2024-11-24-18-46-23","","null","","[]","null","",""
"","","","","","image-button-response","81","318501","0.0-12.0-1.0-0.8","0FF470B49575441C9F7D896D5175B919","0FF470B49575441C9F7D896D5175B919","86d0064c-4a8e-45c7-a1d7-f2d19810c827","a0a8f18c-a66e-4ba7-a170-23efbdc67501","{""participantId"":""0FF470B49575441C9F7D896D5175B919"",""assignmentId"":""86d0064c-4a8e-45c7-a1d7-f2d19810c827"",""projectId"":""a0a8f18c-a66e-4ba7-a170-23efbdc67501""}","https://test12345.live/?participantId=0FF470B49575441C9F7D896D5175B919&assignmentId=86d0064c-4a8e-45c7-a1d7-f2d19810c827&projectId=a0a8f18c-a66e-4ba7-a170-23efbdc67501","0FF470B49575441C9F7D896D5175B919-2024-11-24-18-46-23","","null","","images/causal_sequence/dog_causal/dog_causal_2.png","null","",""
"","","","","","image-button-response","82","320747","0.0-12.0-1.0-1.8","0FF470B49575441C9F7D896D5175B919","0FF470B49575441C9F7D896D5175B919","86d0064c-4a8e-45c7-a1d7-f2d19810c827","a0a8f18c-a66e-4ba7-a170-23efbdc67501","{""participantId"":""0FF470B49575441C9F7D896D5175B919"",""assignmentId"":""86d0064c-4a8e-45c7-a1d7-f2d19810c827"",""projectId"":""a0a8f18c-a66e-4ba7-a170-23efbdc67501""}","https://test12345.live/?participantId=0FF470B49575441C9F7D896D5175B919&assignmentId=86d0064c-4a8e-45c7-a1d7-f2d19810c827&projectId=a0a8f18c-a66e-4ba7-a170-23efbdc67501","0FF470B49575441C9F7D896D5175B919-2024-11-24-18-46-23","","2245","","images/causal_sequence/dog_causal/dog_causal_2.png","0","",""
"","","","","","image-button-response","83","322555","0.0-12.0-1.0-2.8","0FF470B49575441C9F7D896D5175B919","0FF470B49575441C9F7D896D5175B919","86d0064c-4a8e-45c7-a1d7-f2d19810c827","a0a8f18c-a66e-4ba7-a170-23efbdc67501","{""participantId"":""0FF470B49575441C9F7D896D5175B919"",""assignmentId"":""86d0064c-4a8e-45c7-a1d7-f2d19810c827"",""projectId"":""a0a8f18c-a66e-4ba7-a170-23efbdc67501""}","https://test12345.live/?participantId=0FF470B49575441C9F7D896D5175B919&assignmentId=86d0064c-4a8e-45c7-a1d7-f2d19810c827&projectId=a0a8f18c-a66e-4ba7-a170-23efbdc67501","0FF470B49575441C9F7D896D5175B919-2024-11-24-18-46-23","","null","","[]","null","",""
"","","","","","image-button-response","84","327061","0.0-12.0-1.0-0.9","0FF470B49575441C9F7D896D5175B919","0FF470B49575441C9F7D896D5175B919","86d0064c-4a8e-45c7-a1d7-f2d19810c827","a0a8f18c-a66e-4ba7-a170-23efbdc67501","{""participantId"":""0FF470B49575441C9F7D896D5175B919"",""assignmentId"":""86d0064c-4a8e-45c7-a1d7-f2d19810c827"",""projectId"":""a0a8f18c-a66e-4ba7-a170-23efbdc67501""}","https://test12345.live/?participantId=0FF470B49575441C9F7D896D5175B919&assignmentId=86d0064c-4a8e-45c7-a1d7-f2d19810c827&projectId=a0a8f18c-a66e-4ba7-a170-23efbdc67501","0FF470B49575441C9F7D896D5175B919-2024-11-24-18-46-23","","null","","images/causal_sequence/dog_causal/dog_causal_8.png","null","",""
"","","","","","image-button-response","85","328487","0.0-12.0-1.0-1.9","0FF470B49575441C9F7D896D5175B919","0FF470B49575441C9F7D896D5175B919","86d0064c-4a8e-45c7-a1d7-f2d19810c827","a0a8f18c-a66e-4ba7-a170-23efbdc67501","{""participantId"":""0FF470B49575441C9F7D896D5175B919"",""assignmentId"":""86d0064c-4a8e-45c7-a1d7-f2d19810c827"",""projectId"":""a0a8f18c-a66e-4ba7-a170-23efbdc67501""}","https://test12345.live/?participantId=0FF470B49575441C9F7D896D5175B919&assignmentId=86d0064c-4a8e-45c7-a1d7-f2d19810c827&projectId=a0a8f18c-a66e-4ba7-a170-23efbdc67501","0FF470B49575441C9F7D896D5175B919-2024-11-24-18-46-23","","1425","","images/causal_sequence/dog_causal/dog_causal_8.png","0","",""
"","","","","","image-button-response","86","330296","0.0-12.0-1.0-2.9","0FF470B49575441C9F7D896D5175B919","0FF470B49575441C9F7D896D5175B919","86d0064c-4a8e-45c7-a1d7-f2d19810c827","a0a8f18c-a66e-4ba7-a170-23efbdc67501","{""participantId"":""0FF470B49575441C9F7D896D5175B919"",""assignmentId"":""86d0064c-4a8e-45c7-a1d7-f2d19810c827"",""projectId"":""a0a8f18c-a66e-4ba7-a170-23efbdc67501""}","https://test12345.live/?participantId=0FF470B49575441C9F7D896D5175B919&assignmentId=86d0064c-4a8e-45c7-a1d7-f2d19810c827&projectId=a0a8f18c-a66e-4ba7-a170-23efbdc67501","0FF470B49575441C9F7D896D5175B919-2024-11-24-18-46-23","","null","","[]","null","",""
"","","","","","html-audio-response","87","366160","0.0-13.0","0FF470B49575441C9F7D896D5175B919","0FF470B49575441C9F7D896D5175B919","86d0064c-4a8e-45c7-a1d7-f2d19810c827","a0a8f18c-a66e-4ba7-a170-23efbdc67501","{""participantId"":""0FF470B49575441C9F7D896D5175B919"",""assignmentId"":""86d0064c-4a8e-45c7-a1d7-f2d19810c827"",""projectId"":""a0a8f18c-a66e-4ba7-a170-23efbdc67501""}","https://test12345.live/?participantId=0FF470B49575441C9F7D896D5175B919&assignmentId=86d0064c-4a8e-45c7-a1d7-f2d19810c827&projectId=a0a8f18c-a66e-4ba7-a170-23efbdc67501","0FF470B49575441C9F7D896D5175B919-2024-11-24-18-46-23","","34206","","[""<span style=\""color: red; font-size: 24px\""> NOW RECORDING</span><p>Please say out loud all the images you saw, as many as you can remember. The images can be said in any order.</p>""]","","8","dog_causal"
"","","","","","image-button-response","88","372168","0.0-14.0-0.0","0FF470B49575441C9F7D896D5175B919","0FF470B49575441C9F7D896D5175B919","86d0064c-4a8e-45c7-a1d7-f2d19810c827","a0a8f18c-a66e-4ba7-a170-23efbdc67501","{""participantId"":""0FF470B49575441C9F7D896D5175B919"",""assignmentId"":""86d0064c-4a8e-45c7-a1d7-f2d19810c827"",""projectId"":""a0a8f18c-a66e-4ba7-a170-23efbdc67501""}","https://test12345.live/?participantId=0FF470B49575441C9F7D896D5175B919&assignmentId=86d0064c-4a8e-45c7-a1d7-f2d19810c827&projectId=a0a8f18c-a66e-4ba7-a170-23efbdc67501","0FF470B49575441C9F7D896D5175B919-2024-11-24-18-46-23","","null","","images/semantic_sequence/physical_activity_semantic/physical_activity_semantic_0.png","null","",""
"","","","","","image-button-response","89","376674","0.0-14.0-1.0-0.0","0FF470B49575441C9F7D896D5175B919","0FF470B49575441C9F7D896D5175B919","86d0064c-4a8e-45c7-a1d7-f2d19810c827","a0a8f18c-a66e-4ba7-a170-23efbdc67501","{""participantId"":""0FF470B49575441C9F7D896D5175B919"",""assignmentId"":""86d0064c-4a8e-45c7-a1d7-f2d19810c827"",""projectId"":""a0a8f18c-a66e-4ba7-a170-23efbdc67501""}","https://test12345.live/?participantId=0FF470B49575441C9F7D896D5175B919&assignmentId=86d0064c-4a8e-45c7-a1d7-f2d19810c827&projectId=a0a8f18c-a66e-4ba7-a170-23efbdc67501","0FF470B49575441C9F7D896D5175B919-2024-11-24-18-46-23","","null","","images/semantic_sequence/physical_activity_semantic/physical_activity_semantic_1.png","null","",""
"","","","","","image-button-response","90","377680","0.0-14.0-1.0-1.0","0FF470B49575441C9F7D896D5175B919","0FF470B49575441C9F7D896D5175B919","86d0064c-4a8e-45c7-a1d7-f2d19810c827","a0a8f18c-a66e-4ba7-a170-23efbdc67501","{""participantId"":""0FF470B49575441C9F7D896D5175B919"",""assignmentId"":""86d0064c-4a8e-45c7-a1d7-f2d19810c827"",""projectId"":""a0a8f18c-a66e-4ba7-a170-23efbdc67501""}","https://test12345.live/?participantId=0FF470B49575441C9F7D896D5175B919&assignmentId=86d0064c-4a8e-45c7-a1d7-f2d19810c827&projectId=a0a8f18c-a66e-4ba7-a170-23efbdc67501","0FF470B49575441C9F7D896D5175B919-2024-11-24-18-46-23","","1005","","images/semantic_sequence/physical_activity_semantic/physical_activity_semantic_1.png","0","",""
"","","","","","image-button-response","91","379488","0.0-14.0-1.0-2.0","0FF470B49575441C9F7D896D5175B919","0FF470B49575441C9F7D896D5175B919","86d0064c-4a8e-45c7-a1d7-f2d19810c827","a0a8f18c-a66e-4ba7-a170-23efbdc67501","{""participantId"":""0FF470B49575441C9F7D896D5175B919"",""assignmentId"":""86d0064c-4a8e-45c7-a1d7-f2d19810c827"",""projectId"":""a0a8f18c-a66e-4ba7-a170-23efbdc67501""}","https://test12345.live/?participantId=0FF470B49575441C9F7D896D5175B919&assignmentId=86d0064c-4a8e-45c7-a1d7-f2d19810c827&projectId=a0a8f18c-a66e-4ba7-a170-23efbdc67501","0FF470B49575441C9F7D896D5175B919-2024-11-24-18-46-23","","null","","[]","null","",""
"","","","","","image-button-response","92","383994","0.0-14.0-1.0-0.1","0FF470B49575441C9F7D896D5175B919","0FF470B49575441C9F7D896D5175B919","86d0064c-4a8e-45c7-a1d7-f2d19810c827","a0a8f18c-a66e-4ba7-a170-23efbdc67501","{""participantId"":""0FF470B49575441C9F7D896D5175B919"",""assignmentId"":""86d0064c-4a8e-45c7-a1d7-f2d19810c827"",""projectId"":""a0a8f18c-a66e-4ba7-a170-23efbdc67501""}","https://test12345.live/?participantId=0FF470B49575441C9F7D896D5175B919&assignmentId=86d0064c-4a8e-45c7-a1d7-f2d19810c827&projectId=a0a8f18c-a66e-4ba7-a170-23efbdc67501","0FF470B49575441C9F7D896D5175B919-2024-11-24-18-46-23","","null","","images/semantic_sequence/physical_activity_semantic/physical_activity_semantic_2.png","null","",""
"","","","","","image-button-response","93","385624","0.0-14.0-1.0-1.1","0FF470B49575441C9F7D896D5175B919","0FF470B49575441C9F7D896D5175B919","86d0064c-4a8e-45c7-a1d7-f2d19810c827","a0a8f18c-a66e-4ba7-a170-23efbdc67501","{""participantId"":""0FF470B49575441C9F7D896D5175B919"",""assignmentId"":""86d0064c-4a8e-45c7-a1d7-f2d19810c827"",""projectId"":""a0a8f18c-a66e-4ba7-a170-23efbdc67501""}","https://test12345.live/?participantId=0FF470B49575441C9F7D896D5175B919&assignmentId=86d0064c-4a8e-45c7-a1d7-f2d19810c827&projectId=a0a8f18c-a66e-4ba7-a170-23efbdc67501","0FF470B49575441C9F7D896D5175B919-2024-11-24-18-46-23","","1629","","images/semantic_sequence/physical_activity_semantic/physical_activity_semantic_2.png","0","",""
"","","","","","image-button-response","94","387433","0.0-14.0-1.0-2.1","0FF470B49575441C9F7D896D5175B919","0FF470B49575441C9F7D896D5175B919","86d0064c-4a8e-45c7-a1d7-f2d19810c827","a0a8f18c-a66e-4ba7-a170-23efbdc67501","{""participantId"":""0FF470B49575441C9F7D896D5175B919"",""assignmentId"":""86d0064c-4a8e-45c7-a1d7-f2d19810c827"",""projectId"":""a0a8f18c-a66e-4ba7-a170-23efbdc67501""}","https://test12345.live/?participantId=0FF470B49575441C9F7D896D5175B919&assignmentId=86d0064c-4a8e-45c7-a1d7-f2d19810c827&projectId=a0a8f18c-a66e-4ba7-a170-23efbdc67501","0FF470B49575441C9F7D896D5175B919-2024-11-24-18-46-23","","null","","[]","null","",""
"","","","","","image-button-response","95","391936","0.0-14.0-1.0-0.2","0FF470B49575441C9F7D896D5175B919","0FF470B49575441C9F7D896D5175B919","86d0064c-4a8e-45c7-a1d7-f2d19810c827","a0a8f18c-a66e-4ba7-a170-23efbdc67501","{""participantId"":""0FF470B49575441C9F7D896D5175B919"",""assignmentId"":""86d0064c-4a8e-45c7-a1d7-f2d19810c827"",""projectId"":""a0a8f18c-a66e-4ba7-a170-23efbdc67501""}","https://test12345.live/?participantId=0FF470B49575441C9F7D896D5175B919&assignmentId=86d0064c-4a8e-45c7-a1d7-f2d19810c827&projectId=a0a8f18c-a66e-4ba7-a170-23efbdc67501","0FF470B49575441C9F7D896D5175B919-2024-11-24-18-46-23","","null","","images/semantic_sequence/physical_activity_semantic/physical_activity_semantic_3.png","null","",""
"","","","","","image-button-response","96","394148","0.0-14.0-1.0-1.2","0FF470B49575441C9F7D896D5175B919","0FF470B49575441C9F7D896D5175B919","86d0064c-4a8e-45c7-a1d7-f2d19810c827","a0a8f18c-a66e-4ba7-a170-23efbdc67501","{""participantId"":""0FF470B49575441C9F7D896D5175B919"",""assignmentId"":""86d0064c-4a8e-45c7-a1d7-f2d19810c827"",""projectId"":""a0a8f18c-a66e-4ba7-a170-23efbdc67501""}","https://test12345.live/?participantId=0FF470B49575441C9F7D896D5175B919&assignmentId=86d0064c-4a8e-45c7-a1d7-f2d19810c827&projectId=a0a8f18c-a66e-4ba7-a170-23efbdc67501","0FF470B49575441C9F7D896D5175B919-2024-11-24-18-46-23","","2211","","images/semantic_sequence/physical_activity_semantic/physical_activity_semantic_3.png","0","",""
"","","","","","image-button-response","97","395961","0.0-14.0-1.0-2.2","0FF470B49575441C9F7D896D5175B919","0FF470B49575441C9F7D896D5175B919","86d0064c-4a8e-45c7-a1d7-f2d19810c827","a0a8f18c-a66e-4ba7-a170-23efbdc67501","{""participantId"":""0FF470B49575441C9F7D896D5175B919"",""assignmentId"":""86d0064c-4a8e-45c7-a1d7-f2d19810c827"",""projectId"":""a0a8f18c-a66e-4ba7-a170-23efbdc67501""}","https://test12345.live/?participantId=0FF470B49575441C9F7D896D5175B919&assignmentId=86d0064c-4a8e-45c7-a1d7-f2d19810c827&projectId=a0a8f18c-a66e-4ba7-a170-23efbdc67501","0FF470B49575441C9F7D896D5175B919-2024-11-24-18-46-23","","null","","[]","null","",""
"","","","","","image-button-response","98","400463","0.0-14.0-1.0-0.3","0FF470B49575441C9F7D896D5175B919","0FF470B49575441C9F7D896D5175B919","86d0064c-4a8e-45c7-a1d7-f2d19810c827","a0a8f18c-a66e-4ba7-a170-23efbdc67501","{""participantId"":""0FF470B49575441C9F7D896D5175B919"",""assignmentId"":""86d0064c-4a8e-45c7-a1d7-f2d19810c827"",""projectId"":""a0a8f18c-a66e-4ba7-a170-23efbdc67501""}","https://test12345.live/?participantId=0FF470B49575441C9F7D896D5175B919&assignmentId=86d0064c-4a8e-45c7-a1d7-f2d19810c827&projectId=a0a8f18c-a66e-4ba7-a170-23efbdc67501","0FF470B49575441C9F7D896D5175B919-2024-11-24-18-46-23","","null","","images/semantic_sequence/physical_activity_semantic/physical_activity_semantic_4.png","null","",""
"","","","","","image-button-response","99","401668","0.0-14.0-1.0-1.3","0FF470B49575441C9F7D896D5175B919","0FF470B49575441C9F7D896D5175B919","86d0064c-4a8e-45c7-a1d7-f2d19810c827","a0a8f18c-a66e-4ba7-a170-23efbdc67501","{""participantId"":""0FF470B49575441C9F7D896D5175B919"",""assignmentId"":""86d0064c-4a8e-45c7-a1d7-f2d19810c827"",""projectId"":""a0a8f18c-a66e-4ba7-a170-23efbdc67501""}","https://test12345.live/?participantId=0FF470B49575441C9F7D896D5175B919&assignmentId=86d0064c-4a8e-45c7-a1d7-f2d19810c827&projectId=a0a8f18c-a66e-4ba7-a170-23efbdc67501","0FF470B49575441C9F7D896D5175B919-2024-11-24-18-46-23","","1204","","images/semantic_sequence/physical_activity_semantic/physical_activity_semantic_4.png","0","",""
"","","","","","image-button-response","100","403483","0.0-14.0-1.0-2.3","0FF470B49575441C9F7D896D5175B919","0FF470B49575441C9F7D896D5175B919","86d0064c-4a8e-45c7-a1d7-f2d19810c827","a0a8f18c-a66e-4ba7-a170-23efbdc67501","{""participantId"":""0FF470B49575441C9F7D896D5175B919"",""assignmentId"":""86d0064c-4a8e-45c7-a1d7-f2d19810c827"",""projectId"":""a0a8f18c-a66e-4ba7-a170-23efbdc67501""}","https://test12345.live/?participantId=0FF470B49575441C9F7D896D5175B919&assignmentId=86d0064c-4a8e-45c7-a1d7-f2d19810c827&projectId=a0a8f18c-a66e-4ba7-a170-23efbdc67501","0FF470B49575441C9F7D896D5175B919-2024-11-24-18-46-23","","null","","[]","null","",""
"","","","","","image-button-response","101","407984","0.0-14.0-1.0-0.4","0FF470B49575441C9F7D896D5175B919","0FF470B49575441C9F7D896D5175B919","86d0064c-4a8e-45c7-a1d7-f2d19810c827","a0a8f18c-a66e-4ba7-a170-23efbdc67501","{""participantId"":""0FF470B49575441C9F7D896D5175B919"",""assignmentId"":""86d0064c-4a8e-45c7-a1d7-f2d19810c827"",""projectId"":""a0a8f18c-a66e-4ba7-a170-23efbdc67501""}","https://test12345.live/?participantId=0FF470B49575441C9F7D896D5175B919&assignmentId=86d0064c-4a8e-45c7-a1d7-f2d19810c827&projectId=a0a8f18c-a66e-4ba7-a170-23efbdc67501","0FF470B49575441C9F7D896D5175B919-2024-11-24-18-46-23","","null","","images/semantic_sequence/physical_activity_semantic/physical_activity_semantic_5.png","null","",""
"","","","","","image-button-response","102","409016","0.0-14.0-1.0-1.4","0FF470B49575441C9F7D896D5175B919","0FF470B49575441C9F7D896D5175B919","86d0064c-4a8e-45c7-a1d7-f2d19810c827","a0a8f18c-a66e-4ba7-a170-23efbdc67501","{""participantId"":""0FF470B49575441C9F7D896D5175B919"",""assignmentId"":""86d0064c-4a8e-45c7-a1d7-f2d19810c827"",""projectId"":""a0a8f18c-a66e-4ba7-a170-23efbdc67501""}","https://test12345.live/?participantId=0FF470B49575441C9F7D896D5175B919&assignmentId=86d0064c-4a8e-45c7-a1d7-f2d19810c827&projectId=a0a8f18c-a66e-4ba7-a170-23efbdc67501","0FF470B49575441C9F7D896D5175B919-2024-11-24-18-46-23","","1031","","images/semantic_sequence/physical_activity_semantic/physical_activity_semantic_5.png","0","",""
"","","","","","image-button-response","103","410817","0.0-14.0-1.0-2.4","0FF470B49575441C9F7D896D5175B919","0FF470B49575441C9F7D896D5175B919","86d0064c-4a8e-45c7-a1d7-f2d19810c827","a0a8f18c-a66e-4ba7-a170-23efbdc67501","{""participantId"":""0FF470B49575441C9F7D896D5175B919"",""assignmentId"":""86d0064c-4a8e-45c7-a1d7-f2d19810c827"",""projectId"":""a0a8f18c-a66e-4ba7-a170-23efbdc67501""}","https://test12345.live/?participantId=0FF470B49575441C9F7D896D5175B919&assignmentId=86d0064c-4a8e-45c7-a1d7-f2d19810c827&projectId=a0a8f18c-a66e-4ba7-a170-23efbdc67501","0FF470B49575441C9F7D896D5175B919-2024-11-24-18-46-23","","null","","[]","null","",""
"","","","","","image-button-response","104","415324","0.0-14.0-1.0-0.5","0FF470B49575441C9F7D896D5175B919","0FF470B49575441C9F7D896D5175B919","86d0064c-4a8e-45c7-a1d7-f2d19810c827","a0a8f18c-a66e-4ba7-a170-23efbdc67501","{""participantId"":""0FF470B49575441C9F7D896D5175B919"",""assignmentId"":""86d0064c-4a8e-45c7-a1d7-f2d19810c827"",""projectId"":""a0a8f18c-a66e-4ba7-a170-23efbdc67501""}","https://test12345.live/?participantId=0FF470B49575441C9F7D896D5175B919&assignmentId=86d0064c-4a8e-45c7-a1d7-f2d19810c827&projectId=a0a8f18c-a66e-4ba7-a170-23efbdc67501","0FF470B49575441C9F7D896D5175B919-2024-11-24-18-46-23","","null","","images/semantic_sequence/physical_activity_semantic/physical_activity_semantic_6.png","null","",""
"","","","","","image-button-response","105","416180","0.0-14.0-1.0-1.5","0FF470B49575441C9F7D896D5175B919","0FF470B49575441C9F7D896D5175B919","86d0064c-4a8e-45c7-a1d7-f2d19810c827","a0a8f18c-a66e-4ba7-a170-23efbdc67501","{""participantId"":""0FF470B49575441C9F7D896D5175B919"",""assignmentId"":""86d0064c-4a8e-45c7-a1d7-f2d19810c827"",""projectId"":""a0a8f18c-a66e-4ba7-a170-23efbdc67501""}","https://test12345.live/?participantId=0FF470B49575441C9F7D896D5175B919&assignmentId=86d0064c-4a8e-45c7-a1d7-f2d19810c827&projectId=a0a8f18c-a66e-4ba7-a170-23efbdc67501","0FF470B49575441C9F7D896D5175B919-2024-11-24-18-46-23","","856","","images/semantic_sequence/physical_activity_semantic/physical_activity_semantic_6.png","0","",""
"","","","","","image-button-response","106","417993","0.0-14.0-1.0-2.5","0FF470B49575441C9F7D896D5175B919","0FF470B49575441C9F7D896D5175B919","86d0064c-4a8e-45c7-a1d7-f2d19810c827","a0a8f18c-a66e-4ba7-a170-23efbdc67501","{""participantId"":""0FF470B49575441C9F7D896D5175B919"",""assignmentId"":""86d0064c-4a8e-45c7-a1d7-f2d19810c827"",""projectId"":""a0a8f18c-a66e-4ba7-a170-23efbdc67501""}","https://test12345.live/?participantId=0FF470B49575441C9F7D896D5175B919&assignmentId=86d0064c-4a8e-45c7-a1d7-f2d19810c827&projectId=a0a8f18c-a66e-4ba7-a170-23efbdc67501","0FF470B49575441C9F7D896D5175B919-2024-11-24-18-46-23","","null","","[]","null","",""
"","","","","","image-button-response","107","422500","0.0-14.0-1.0-0.6","0FF470B49575441C9F7D896D5175B919","0FF470B49575441C9F7D896D5175B919","86d0064c-4a8e-45c7-a1d7-f2d19810c827","a0a8f18c-a66e-4ba7-a170-23efbdc67501","{""participantId"":""0FF470B49575441C9F7D896D5175B919"",""assignmentId"":""86d0064c-4a8e-45c7-a1d7-f2d19810c827"",""projectId"":""a0a8f18c-a66e-4ba7-a170-23efbdc67501""}","https://test12345.live/?participantId=0FF470B49575441C9F7D896D5175B919&assignmentId=86d0064c-4a8e-45c7-a1d7-f2d19810c827&projectId=a0a8f18c-a66e-4ba7-a170-23efbdc67501","0FF470B49575441C9F7D896D5175B919-2024-11-24-18-46-23","","null","","images/semantic_sequence/physical_activity_semantic/physical_activity_semantic_7.png","null","",""
"","","","","","image-button-response","108","423820","0.0-14.0-1.0-1.6","0FF470B49575441C9F7D896D5175B919","0FF470B49575441C9F7D896D5175B919","86d0064c-4a8e-45c7-a1d7-f2d19810c827","a0a8f18c-a66e-4ba7-a170-23efbdc67501","{""participantId"":""0FF470B49575441C9F7D896D5175B919"",""assignmentId"":""86d0064c-4a8e-45c7-a1d7-f2d19810c827"",""projectId"":""a0a8f18c-a66e-4ba7-a170-23efbdc67501""}","https://test12345.live/?participantId=0FF470B49575441C9F7D896D5175B919&assignmentId=86d0064c-4a8e-45c7-a1d7-f2d19810c827&projectId=a0a8f18c-a66e-4ba7-a170-23efbdc67501","0FF470B49575441C9F7D896D5175B919-2024-11-24-18-46-23","","1320","","images/semantic_sequence/physical_activity_semantic/physical_activity_semantic_7.png","0","",""
"","","","","","image-button-response","109","425625","0.0-14.0-1.0-2.6","0FF470B49575441C9F7D896D5175B919","0FF470B49575441C9F7D896D5175B919","86d0064c-4a8e-45c7-a1d7-f2d19810c827","a0a8f18c-a66e-4ba7-a170-23efbdc67501","{""participantId"":""0FF470B49575441C9F7D896D5175B919"",""assignmentId"":""86d0064c-4a8e-45c7-a1d7-f2d19810c827"",""projectId"":""a0a8f18c-a66e-4ba7-a170-23efbdc67501""}","https://test12345.live/?participantId=0FF470B49575441C9F7D896D5175B919&assignmentId=86d0064c-4a8e-45c7-a1d7-f2d19810c827&projectId=a0a8f18c-a66e-4ba7-a170-23efbdc67501","0FF470B49575441C9F7D896D5175B919-2024-11-24-18-46-23","","null","","[]","null","",""
"","","","","","image-button-response","110","430129","0.0-14.0-1.0-0.7","0FF470B49575441C9F7D896D5175B919","0FF470B49575441C9F7D896D5175B919","86d0064c-4a8e-45c7-a1d7-f2d19810c827","a0a8f18c-a66e-4ba7-a170-23efbdc67501","{""participantId"":""0FF470B49575441C9F7D896D5175B919"",""assignmentId"":""86d0064c-4a8e-45c7-a1d7-f2d19810c827"",""projectId"":""a0a8f18c-a66e-4ba7-a170-23efbdc67501""}","https://test12345.live/?participantId=0FF470B49575441C9F7D896D5175B919&assignmentId=86d0064c-4a8e-45c7-a1d7-f2d19810c827&projectId=a0a8f18c-a66e-4ba7-a170-23efbdc67501","0FF470B49575441C9F7D896D5175B919-2024-11-24-18-46-23","","null","","images/semantic_sequence/physical_activity_semantic/physical_activity_semantic_8.png","null","",""
"","","","","","image-button-response","111","431280","0.0-14.0-1.0-1.7","0FF470B49575441C9F7D896D5175B919","0FF470B49575441C9F7D896D5175B919","86d0064c-4a8e-45c7-a1d7-f2d19810c827","a0a8f18c-a66e-4ba7-a170-23efbdc67501","{""participantId"":""0FF470B49575441C9F7D896D5175B919"",""assignmentId"":""86d0064c-4a8e-45c7-a1d7-f2d19810c827"",""projectId"":""a0a8f18c-a66e-4ba7-a170-23efbdc67501""}","https://test12345.live/?participantId=0FF470B49575441C9F7D896D5175B919&assignmentId=86d0064c-4a8e-45c7-a1d7-f2d19810c827&projectId=a0a8f18c-a66e-4ba7-a170-23efbdc67501","0FF470B49575441C9F7D896D5175B919-2024-11-24-18-46-23","","1151","","images/semantic_sequence/physical_activity_semantic/physical_activity_semantic_8.png","0","",""
"","","","","","image-button-response","112","433086","0.0-14.0-1.0-2.7","0FF470B49575441C9F7D896D5175B919","0FF470B49575441C9F7D896D5175B919","86d0064c-4a8e-45c7-a1d7-f2d19810c827","a0a8f18c-a66e-4ba7-a170-23efbdc67501","{""participantId"":""0FF470B49575441C9F7D896D5175B919"",""assignmentId"":""86d0064c-4a8e-45c7-a1d7-f2d19810c827"",""projectId"":""a0a8f18c-a66e-4ba7-a170-23efbdc67501""}","https://test12345.live/?participantId=0FF470B49575441C9F7D896D5175B919&assignmentId=86d0064c-4a8e-45c7-a1d7-f2d19810c827&projectId=a0a8f18c-a66e-4ba7-a170-23efbdc67501","0FF470B49575441C9F7D896D5175B919-2024-11-24-18-46-23","","null","","[]","null","",""
"","","","","","image-button-response","113","437600","0.0-14.0-1.0-0.8","0FF470B49575441C9F7D896D5175B919","0FF470B49575441C9F7D896D5175B919","86d0064c-4a8e-45c7-a1d7-f2d19810c827","a0a8f18c-a66e-4ba7-a170-23efbdc67501","{""participantId"":""0FF470B49575441C9F7D896D5175B919"",""assignmentId"":""86d0064c-4a8e-45c7-a1d7-f2d19810c827"",""projectId"":""a0a8f18c-a66e-4ba7-a170-23efbdc67501""}","https://test12345.live/?participantId=0FF470B49575441C9F7D896D5175B919&assignmentId=86d0064c-4a8e-45c7-a1d7-f2d19810c827&projectId=a0a8f18c-a66e-4ba7-a170-23efbdc67501","0FF470B49575441C9F7D896D5175B919-2024-11-24-18-46-23","","null","","images/semantic_sequence/physical_activity_semantic/physical_activity_semantic_9.png","null","",""
"","","","","","image-button-response","114","438868","0.0-14.0-1.0-1.8","0FF470B49575441C9F7D896D5175B919","0FF470B49575441C9F7D896D5175B919","86d0064c-4a8e-45c7-a1d7-f2d19810c827","a0a8f18c-a66e-4ba7-a170-23efbdc67501","{""participantId"":""0FF470B49575441C9F7D896D5175B919"",""assignmentId"":""86d0064c-4a8e-45c7-a1d7-f2d19810c827"",""projectId"":""a0a8f18c-a66e-4ba7-a170-23efbdc67501""}","https://test12345.live/?participantId=0FF470B49575441C9F7D896D5175B919&assignmentId=86d0064c-4a8e-45c7-a1d7-f2d19810c827&projectId=a0a8f18c-a66e-4ba7-a170-23efbdc67501","0FF470B49575441C9F7D896D5175B919-2024-11-24-18-46-23","","1268","","images/semantic_sequence/physical_activity_semantic/physical_activity_semantic_9.png","0","",""
"","","","","","image-button-response","115","440678","0.0-14.0-1.0-2.8","0FF470B49575441C9F7D896D5175B919","0FF470B49575441C9F7D896D5175B919","86d0064c-4a8e-45c7-a1d7-f2d19810c827","a0a8f18c-a66e-4ba7-a170-23efbdc67501","{""participantId"":""0FF470B49575441C9F7D896D5175B919"",""assignmentId"":""86d0064c-4a8e-45c7-a1d7-f2d19810c827"",""projectId"":""a0a8f18c-a66e-4ba7-a170-23efbdc67501""}","https://test12345.live/?participantId=0FF470B49575441C9F7D896D5175B919&assignmentId=86d0064c-4a8e-45c7-a1d7-f2d19810c827&projectId=a0a8f18c-a66e-4ba7-a170-23efbdc67501","0FF470B49575441C9F7D896D5175B919-2024-11-24-18-46-23","","null","","[]","null","",""
"","","","","","image-button-response","116","445194","0.0-14.0-1.0-0.9","0FF470B49575441C9F7D896D5175B919","0FF470B49575441C9F7D896D5175B919","86d0064c-4a8e-45c7-a1d7-f2d19810c827","a0a8f18c-a66e-4ba7-a170-23efbdc67501","{""participantId"":""0FF470B49575441C9F7D896D5175B919"",""assignmentId"":""86d0064c-4a8e-45c7-a1d7-f2d19810c827"",""projectId"":""a0a8f18c-a66e-4ba7-a170-23efbdc67501""}","https://test12345.live/?participantId=0FF470B49575441C9F7D896D5175B919&assignmentId=86d0064c-4a8e-45c7-a1d7-f2d19810c827&projectId=a0a8f18c-a66e-4ba7-a170-23efbdc67501","0FF470B49575441C9F7D896D5175B919-2024-11-24-18-46-23","","null","","images/semantic_sequence/physical_activity_semantic/physical_activity_semantic_ten.png","null","",""
"","","","","","image-button-response","117","446852","0.0-14.0-1.0-1.9","0FF470B49575441C9F7D896D5175B919","0FF470B49575441C9F7D896D5175B919","86d0064c-4a8e-45c7-a1d7-f2d19810c827","a0a8f18c-a66e-4ba7-a170-23efbdc67501","{""participantId"":""0FF470B49575441C9F7D896D5175B919"",""assignmentId"":""86d0064c-4a8e-45c7-a1d7-f2d19810c827"",""projectId"":""a0a8f18c-a66e-4ba7-a170-23efbdc67501""}","https://test12345.live/?participantId=0FF470B49575441C9F7D896D5175B919&assignmentId=86d0064c-4a8e-45c7-a1d7-f2d19810c827&projectId=a0a8f18c-a66e-4ba7-a170-23efbdc67501","0FF470B49575441C9F7D896D5175B919-2024-11-24-18-46-23","","1658","","images/semantic_sequence/physical_activity_semantic/physical_activity_semantic_ten.png","0","",""
"","","","","","image-button-response","118","448666","0.0-14.0-1.0-2.9","0FF470B49575441C9F7D896D5175B919","0FF470B49575441C9F7D896D5175B919","86d0064c-4a8e-45c7-a1d7-f2d19810c827","a0a8f18c-a66e-4ba7-a170-23efbdc67501","{""participantId"":""0FF470B49575441C9F7D896D5175B919"",""assignmentId"":""86d0064c-4a8e-45c7-a1d7-f2d19810c827"",""projectId"":""a0a8f18c-a66e-4ba7-a170-23efbdc67501""}","https://test12345.live/?participantId=0FF470B49575441C9F7D896D5175B919&assignmentId=86d0064c-4a8e-45c7-a1d7-f2d19810c827&projectId=a0a8f18c-a66e-4ba7-a170-23efbdc67501","0FF470B49575441C9F7D896D5175B919-2024-11-24-18-46-23","","null","","[]","null","",""
"","","","","","html-audio-response","119","470609","0.0-15.0","0FF470B49575441C9F7D896D5175B919","0FF470B49575441C9F7D896D5175B919","86d0064c-4a8e-45c7-a1d7-f2d19810c827","a0a8f18c-a66e-4ba7-a170-23efbdc67501","{""participantId"":""0FF470B49575441C9F7D896D5175B919"",""assignmentId"":""86d0064c-4a8e-45c7-a1d7-f2d19810c827"",""projectId"":""a0a8f18c-a66e-4ba7-a170-23efbdc67501""}","https://test12345.live/?participantId=0FF470B49575441C9F7D896D5175B919&assignmentId=86d0064c-4a8e-45c7-a1d7-f2d19810c827&projectId=a0a8f18c-a66e-4ba7-a170-23efbdc67501","0FF470B49575441C9F7D896D5175B919-2024-11-24-18-46-23","","19888","","[""<span style=\""color: red; font-size: 24px\""> NOW RECORDING</span><p>Please say out loud all the images you saw, as many as you can remember. The images can be said in any order.</p>""]","","1","physical_activity_semantic"
"","","","","","image-button-response","120","476623","0.0-16.0-0.0","0FF470B49575441C9F7D896D5175B919","0FF470B49575441C9F7D896D5175B919","86d0064c-4a8e-45c7-a1d7-f2d19810c827","a0a8f18c-a66e-4ba7-a170-23efbdc67501","{""participantId"":""0FF470B49575441C9F7D896D5175B919"",""assignmentId"":""86d0064c-4a8e-45c7-a1d7-f2d19810c827"",""projectId"":""a0a8f18c-a66e-4ba7-a170-23efbdc67501""}","https://test12345.live/?participantId=0FF470B49575441C9F7D896D5175B919&assignmentId=86d0064c-4a8e-45c7-a1d7-f2d19810c827&projectId=a0a8f18c-a66e-4ba7-a170-23efbdc67501","0FF470B49575441C9F7D896D5175B919-2024-11-24-18-46-23","","null","","images/causal_sequence/museum_causal/museum_causal_0.png","null","",""
"","","","","","image-button-response","121","481125","0.0-16.0-1.0-0.0","0FF470B49575441C9F7D896D5175B919","0FF470B49575441C9F7D896D5175B919","86d0064c-4a8e-45c7-a1d7-f2d19810c827","a0a8f18c-a66e-4ba7-a170-23efbdc67501","{""participantId"":""0FF470B49575441C9F7D896D5175B919"",""assignmentId"":""86d0064c-4a8e-45c7-a1d7-f2d19810c827"",""projectId"":""a0a8f18c-a66e-4ba7-a170-23efbdc67501""}","https://test12345.live/?participantId=0FF470B49575441C9F7D896D5175B919&assignmentId=86d0064c-4a8e-45c7-a1d7-f2d19810c827&projectId=a0a8f18c-a66e-4ba7-a170-23efbdc67501","0FF470B49575441C9F7D896D5175B919-2024-11-24-18-46-23","","null","","images/causal_sequence/museum_causal/museum_causal_1.png","null","",""
"","","","","","image-button-response","122","482605","0.0-16.0-1.0-1.0","0FF470B49575441C9F7D896D5175B919","0FF470B49575441C9F7D896D5175B919","86d0064c-4a8e-45c7-a1d7-f2d19810c827","a0a8f18c-a66e-4ba7-a170-23efbdc67501","{""participantId"":""0FF470B49575441C9F7D896D5175B919"",""assignmentId"":""86d0064c-4a8e-45c7-a1d7-f2d19810c827"",""projectId"":""a0a8f18c-a66e-4ba7-a170-23efbdc67501""}","https://test12345.live/?participantId=0FF470B49575441C9F7D896D5175B919&assignmentId=86d0064c-4a8e-45c7-a1d7-f2d19810c827&projectId=a0a8f18c-a66e-4ba7-a170-23efbdc67501","0FF470B49575441C9F7D896D5175B919-2024-11-24-18-46-23","","1479","","images/causal_sequence/museum_causal/museum_causal_1.png","0","",""
"","","","","","image-button-response","123","484406","0.0-16.0-1.0-2.0","0FF470B49575441C9F7D896D5175B919","0FF470B49575441C9F7D896D5175B919","86d0064c-4a8e-45c7-a1d7-f2d19810c827","a0a8f18c-a66e-4ba7-a170-23efbdc67501","{""participantId"":""0FF470B49575441C9F7D896D5175B919"",""assignmentId"":""86d0064c-4a8e-45c7-a1d7-f2d19810c827"",""projectId"":""a0a8f18c-a66e-4ba7-a170-23efbdc67501""}","https://test12345.live/?participantId=0FF470B49575441C9F7D896D5175B919&assignmentId=86d0064c-4a8e-45c7-a1d7-f2d19810c827&projectId=a0a8f18c-a66e-4ba7-a170-23efbdc67501","0FF470B49575441C9F7D896D5175B919-2024-11-24-18-46-23","","null","","[]","null","",""
"","","","","","image-button-response","124","488912","0.0-16.0-1.0-0.1","0FF470B49575441C9F7D896D5175B919","0FF470B49575441C9F7D896D5175B919","86d0064c-4a8e-45c7-a1d7-f2d19810c827","a0a8f18c-a66e-4ba7-a170-23efbdc67501","{""participantId"":""0FF470B49575441C9F7D896D5175B919"",""assignmentId"":""86d0064c-4a8e-45c7-a1d7-f2d19810c827"",""projectId"":""a0a8f18c-a66e-4ba7-a170-23efbdc67501""}","https://test12345.live/?participantId=0FF470B49575441C9F7D896D5175B919&assignmentId=86d0064c-4a8e-45c7-a1d7-f2d19810c827&projectId=a0a8f18c-a66e-4ba7-a170-23efbdc67501","0FF470B49575441C9F7D896D5175B919-2024-11-24-18-46-23","","null","","images/causal_sequence/museum_causal/museum_causal_2.png","null","",""
"","","","","","image-button-response","125","490965","0.0-16.0-1.0-1.1","0FF470B49575441C9F7D896D5175B919","0FF470B49575441C9F7D896D5175B919","86d0064c-4a8e-45c7-a1d7-f2d19810c827","a0a8f18c-a66e-4ba7-a170-23efbdc67501","{""participantId"":""0FF470B49575441C9F7D896D5175B919"",""assignmentId"":""86d0064c-4a8e-45c7-a1d7-f2d19810c827"",""projectId"":""a0a8f18c-a66e-4ba7-a170-23efbdc67501""}","https://test12345.live/?participantId=0FF470B49575441C9F7D896D5175B919&assignmentId=86d0064c-4a8e-45c7-a1d7-f2d19810c827&projectId=a0a8f18c-a66e-4ba7-a170-23efbdc67501","0FF470B49575441C9F7D896D5175B919-2024-11-24-18-46-23","","2052","","images/causal_sequence/museum_causal/museum_causal_2.png","0","",""
"","","","","","image-button-response","126","492767","0.0-16.0-1.0-2.1","0FF470B49575441C9F7D896D5175B919","0FF470B49575441C9F7D896D5175B919","86d0064c-4a8e-45c7-a1d7-f2d19810c827","a0a8f18c-a66e-4ba7-a170-23efbdc67501","{""participantId"":""0FF470B49575441C9F7D896D5175B919"",""assignmentId"":""86d0064c-4a8e-45c7-a1d7-f2d19810c827"",""projectId"":""a0a8f18c-a66e-4ba7-a170-23efbdc67501""}","https://test12345.live/?participantId=0FF470B49575441C9F7D896D5175B919&assignmentId=86d0064c-4a8e-45c7-a1d7-f2d19810c827&projectId=a0a8f18c-a66e-4ba7-a170-23efbdc67501","0FF470B49575441C9F7D896D5175B919-2024-11-24-18-46-23","","null","","[]","null","",""
"","","","","","image-button-response","127","497273","0.0-16.0-1.0-0.2","0FF470B49575441C9F7D896D5175B919","0FF470B49575441C9F7D896D5175B919","86d0064c-4a8e-45c7-a1d7-f2d19810c827","a0a8f18c-a66e-4ba7-a170-23efbdc67501","{""participantId"":""0FF470B49575441C9F7D896D5175B919"",""assignmentId"":""86d0064c-4a8e-45c7-a1d7-f2d19810c827"",""projectId"":""a0a8f18c-a66e-4ba7-a170-23efbdc67501""}","https://test12345.live/?participantId=0FF470B49575441C9F7D896D5175B919&assignmentId=86d0064c-4a8e-45c7-a1d7-f2d19810c827&projectId=a0a8f18c-a66e-4ba7-a170-23efbdc67501","0FF470B49575441C9F7D896D5175B919-2024-11-24-18-46-23","","null","","images/causal_sequence/museum_causal/museum_causal_3.png","null","",""
"","","","","","image-button-response","128","498549","0.0-16.0-1.0-1.2","0FF470B49575441C9F7D896D5175B919","0FF470B49575441C9F7D896D5175B919","86d0064c-4a8e-45c7-a1d7-f2d19810c827","a0a8f18c-a66e-4ba7-a170-23efbdc67501","{""participantId"":""0FF470B49575441C9F7D896D5175B919"",""assignmentId"":""86d0064c-4a8e-45c7-a1d7-f2d19810c827"",""projectId"":""a0a8f18c-a66e-4ba7-a170-23efbdc67501""}","https://test12345.live/?participantId=0FF470B49575441C9F7D896D5175B919&assignmentId=86d0064c-4a8e-45c7-a1d7-f2d19810c827&projectId=a0a8f18c-a66e-4ba7-a170-23efbdc67501","0FF470B49575441C9F7D896D5175B919-2024-11-24-18-46-23","","1276","","images/causal_sequence/museum_causal/museum_causal_3.png","0","",""
"","","","","","image-button-response","129","500366","0.0-16.0-1.0-2.2","0FF470B49575441C9F7D896D5175B919","0FF470B49575441C9F7D896D5175B919","86d0064c-4a8e-45c7-a1d7-f2d19810c827","a0a8f18c-a66e-4ba7-a170-23efbdc67501","{""participantId"":""0FF470B49575441C9F7D896D5175B919"",""assignmentId"":""86d0064c-4a8e-45c7-a1d7-f2d19810c827"",""projectId"":""a0a8f18c-a66e-4ba7-a170-23efbdc67501""}","https://test12345.live/?participantId=0FF470B49575441C9F7D896D5175B919&assignmentId=86d0064c-4a8e-45c7-a1d7-f2d19810c827&projectId=a0a8f18c-a66e-4ba7-a170-23efbdc67501","0FF470B49575441C9F7D896D5175B919-2024-11-24-18-46-23","","null","","[]","null","",""
"","","","","","image-button-response","130","504874","0.0-16.0-1.0-0.3","0FF470B49575441C9F7D896D5175B919","0FF470B49575441C9F7D896D5175B919","86d0064c-4a8e-45c7-a1d7-f2d19810c827","a0a8f18c-a66e-4ba7-a170-23efbdc67501","{""participantId"":""0FF470B49575441C9F7D896D5175B919"",""assignmentId"":""86d0064c-4a8e-45c7-a1d7-f2d19810c827"",""projectId"":""a0a8f18c-a66e-4ba7-a170-23efbdc67501""}","https://test12345.live/?participantId=0FF470B49575441C9F7D896D5175B919&assignmentId=86d0064c-4a8e-45c7-a1d7-f2d19810c827&projectId=a0a8f18c-a66e-4ba7-a170-23efbdc67501","0FF470B49575441C9F7D896D5175B919-2024-11-24-18-46-23","","null","","images/causal_sequence/museum_causal/museum_causal_4.png","null","",""
"","","","","","image-button-response","131","506638","0.0-16.0-1.0-1.3","0FF470B49575441C9F7D896D5175B919","0FF470B49575441C9F7D896D5175B919","86d0064c-4a8e-45c7-a1d7-f2d19810c827","a0a8f18c-a66e-4ba7-a170-23efbdc67501","{""participantId"":""0FF470B49575441C9F7D896D5175B919"",""assignmentId"":""86d0064c-4a8e-45c7-a1d7-f2d19810c827"",""projectId"":""a0a8f18c-a66e-4ba7-a170-23efbdc67501""}","https://test12345.live/?participantId=0FF470B49575441C9F7D896D5175B919&assignmentId=86d0064c-4a8e-45c7-a1d7-f2d19810c827&projectId=a0a8f18c-a66e-4ba7-a170-23efbdc67501","0FF470B49575441C9F7D896D5175B919-2024-11-24-18-46-23","","1762","","images/causal_sequence/museum_causal/museum_causal_4.png","1","",""
"","","","","","image-button-response","132","508441","0.0-16.0-1.0-2.3","0FF470B49575441C9F7D896D5175B919","0FF470B49575441C9F7D896D5175B919","86d0064c-4a8e-45c7-a1d7-f2d19810c827","a0a8f18c-a66e-4ba7-a170-23efbdc67501","{""participantId"":""0FF470B49575441C9F7D896D5175B919"",""assignmentId"":""86d0064c-4a8e-45c7-a1d7-f2d19810c827"",""projectId"":""a0a8f18c-a66e-4ba7-a170-23efbdc67501""}","https://test12345.live/?participantId=0FF470B49575441C9F7D896D5175B919&assignmentId=86d0064c-4a8e-45c7-a1d7-f2d19810c827&projectId=a0a8f18c-a66e-4ba7-a170-23efbdc67501","0FF470B49575441C9F7D896D5175B919-2024-11-24-18-46-23","","null","","[]","null","",""
"","","","","","image-button-response","133","512950","0.0-16.0-1.0-0.4","0FF470B49575441C9F7D896D5175B919","0FF470B49575441C9F7D896D5175B919","86d0064c-4a8e-45c7-a1d7-f2d19810c827","a0a8f18c-a66e-4ba7-a170-23efbdc67501","{""participantId"":""0FF470B49575441C9F7D896D5175B919"",""assignmentId"":""86d0064c-4a8e-45c7-a1d7-f2d19810c827"",""projectId"":""a0a8f18c-a66e-4ba7-a170-23efbdc67501""}","https://test12345.live/?participantId=0FF470B49575441C9F7D896D5175B919&assignmentId=86d0064c-4a8e-45c7-a1d7-f2d19810c827&projectId=a0a8f18c-a66e-4ba7-a170-23efbdc67501","0FF470B49575441C9F7D896D5175B919-2024-11-24-18-46-23","","null","","images/causal_sequence/museum_causal/museum_causal_5.png","null","",""
"","","","","","image-button-response","134","514890","0.0-16.0-1.0-1.4","0FF470B49575441C9F7D896D5175B919","0FF470B49575441C9F7D896D5175B919","86d0064c-4a8e-45c7-a1d7-f2d19810c827","a0a8f18c-a66e-4ba7-a170-23efbdc67501","{""participantId"":""0FF470B49575441C9F7D896D5175B919"",""assignmentId"":""86d0064c-4a8e-45c7-a1d7-f2d19810c827"",""projectId"":""a0a8f18c-a66e-4ba7-a170-23efbdc67501""}","https://test12345.live/?participantId=0FF470B49575441C9F7D896D5175B919&assignmentId=86d0064c-4a8e-45c7-a1d7-f2d19810c827&projectId=a0a8f18c-a66e-4ba7-a170-23efbdc67501","0FF470B49575441C9F7D896D5175B919-2024-11-24-18-46-23","","1939","","images/causal_sequence/museum_causal/museum_causal_5.png","0","",""
"","","","","","image-button-response","135","516692","0.0-16.0-1.0-2.4","0FF470B49575441C9F7D896D5175B919","0FF470B49575441C9F7D896D5175B919","86d0064c-4a8e-45c7-a1d7-f2d19810c827","a0a8f18c-a66e-4ba7-a170-23efbdc67501","{""participantId"":""0FF470B49575441C9F7D896D5175B919"",""assignmentId"":""86d0064c-4a8e-45c7-a1d7-f2d19810c827"",""projectId"":""a0a8f18c-a66e-4ba7-a170-23efbdc67501""}","https://test12345.live/?participantId=0FF470B49575441C9F7D896D5175B919&assignmentId=86d0064c-4a8e-45c7-a1d7-f2d19810c827&projectId=a0a8f18c-a66e-4ba7-a170-23efbdc67501","0FF470B49575441C9F7D896D5175B919-2024-11-24-18-46-23","","null","","[]","null","",""
"","","","","","image-button-response","136","521196","0.0-16.0-1.0-0.5","0FF470B49575441C9F7D896D5175B919","0FF470B49575441C9F7D896D5175B919","86d0064c-4a8e-45c7-a1d7-f2d19810c827","a0a8f18c-a66e-4ba7-a170-23efbdc67501","{""participantId"":""0FF470B49575441C9F7D896D5175B919"",""assignmentId"":""86d0064c-4a8e-45c7-a1d7-f2d19810c827"",""projectId"":""a0a8f18c-a66e-4ba7-a170-23efbdc67501""}","https://test12345.live/?participantId=0FF470B49575441C9F7D896D5175B919&assignmentId=86d0064c-4a8e-45c7-a1d7-f2d19810c827&projectId=a0a8f18c-a66e-4ba7-a170-23efbdc67501","0FF470B49575441C9F7D896D5175B919-2024-11-24-18-46-23","","null","","images/causal_sequence/museum_causal/museum_causal_6.png","null","",""
"","","","","","image-button-response","137","522178","0.0-16.0-1.0-1.5","0FF470B49575441C9F7D896D5175B919","0FF470B49575441C9F7D896D5175B919","86d0064c-4a8e-45c7-a1d7-f2d19810c827","a0a8f18c-a66e-4ba7-a170-23efbdc67501","{""participantId"":""0FF470B49575441C9F7D896D5175B919"",""assignmentId"":""86d0064c-4a8e-45c7-a1d7-f2d19810c827"",""projectId"":""a0a8f18c-a66e-4ba7-a170-23efbdc67501""}","https://test12345.live/?participantId=0FF470B49575441C9F7D896D5175B919&assignmentId=86d0064c-4a8e-45c7-a1d7-f2d19810c827&projectId=a0a8f18c-a66e-4ba7-a170-23efbdc67501","0FF470B49575441C9F7D896D5175B919-2024-11-24-18-46-23","","981","","images/causal_sequence/museum_causal/museum_causal_6.png","0","",""
"","","","","","image-button-response","138","523987","0.0-16.0-1.0-2.5","0FF470B49575441C9F7D896D5175B919","0FF470B49575441C9F7D896D5175B919","86d0064c-4a8e-45c7-a1d7-f2d19810c827","a0a8f18c-a66e-4ba7-a170-23efbdc67501","{""participantId"":""0FF470B49575441C9F7D896D5175B919"",""assignmentId"":""86d0064c-4a8e-45c7-a1d7-f2d19810c827"",""projectId"":""a0a8f18c-a66e-4ba7-a170-23efbdc67501""}","https://test12345.live/?participantId=0FF470B49575441C9F7D896D5175B919&assignmentId=86d0064c-4a8e-45c7-a1d7-f2d19810c827&projectId=a0a8f18c-a66e-4ba7-a170-23efbdc67501","0FF470B49575441C9F7D896D5175B919-2024-11-24-18-46-23","","null","","[]","null","",""
"","","","","","image-button-response","139","528488","0.0-16.0-1.0-0.6","0FF470B49575441C9F7D896D5175B919","0FF470B49575441C9F7D896D5175B919","86d0064c-4a8e-45c7-a1d7-f2d19810c827","a0a8f18c-a66e-4ba7-a170-23efbdc67501","{""participantId"":""0FF470B49575441C9F7D896D5175B919"",""assignmentId"":""86d0064c-4a8e-45c7-a1d7-f2d19810c827"",""projectId"":""a0a8f18c-a66e-4ba7-a170-23efbdc67501""}","https://test12345.live/?participantId=0FF470B49575441C9F7D896D5175B919&assignmentId=86d0064c-4a8e-45c7-a1d7-f2d19810c827&projectId=a0a8f18c-a66e-4ba7-a170-23efbdc67501","0FF470B49575441C9F7D896D5175B919-2024-11-24-18-46-23","","null","","images/causal_sequence/museum_causal/museum_causal_7.png","null","",""
"","","","","","image-button-response","140","530614","0.0-16.0-1.0-1.6","0FF470B49575441C9F7D896D5175B919","0FF470B49575441C9F7D896D5175B919","86d0064c-4a8e-45c7-a1d7-f2d19810c827","a0a8f18c-a66e-4ba7-a170-23efbdc67501","{""participantId"":""0FF470B49575441C9F7D896D5175B919"",""assignmentId"":""86d0064c-4a8e-45c7-a1d7-f2d19810c827"",""projectId"":""a0a8f18c-a66e-4ba7-a170-23efbdc67501""}","https://test12345.live/?participantId=0FF470B49575441C9F7D896D5175B919&assignmentId=86d0064c-4a8e-45c7-a1d7-f2d19810c827&projectId=a0a8f18c-a66e-4ba7-a170-23efbdc67501","0FF470B49575441C9F7D896D5175B919-2024-11-24-18-46-23","","2125","","images/causal_sequence/museum_causal/museum_causal_7.png","1","",""
"","","","","","image-button-response","141","532426","0.0-16.0-1.0-2.6","0FF470B49575441C9F7D896D5175B919","0FF470B49575441C9F7D896D5175B919","86d0064c-4a8e-45c7-a1d7-f2d19810c827","a0a8f18c-a66e-4ba7-a170-23efbdc67501","{""participantId"":""0FF470B49575441C9F7D896D5175B919"",""assignmentId"":""86d0064c-4a8e-45c7-a1d7-f2d19810c827"",""projectId"":""a0a8f18c-a66e-4ba7-a170-23efbdc67501""}","https://test12345.live/?participantId=0FF470B49575441C9F7D896D5175B919&assignmentId=86d0064c-4a8e-45c7-a1d7-f2d19810c827&projectId=a0a8f18c-a66e-4ba7-a170-23efbdc67501","0FF470B49575441C9F7D896D5175B919-2024-11-24-18-46-23","","null","","[]","null","",""
"","","","","","image-button-response","142","536930","0.0-16.0-1.0-0.7","0FF470B49575441C9F7D896D5175B919","0FF470B49575441C9F7D896D5175B919","86d0064c-4a8e-45c7-a1d7-f2d19810c827","a0a8f18c-a66e-4ba7-a170-23efbdc67501","{""participantId"":""0FF470B49575441C9F7D896D5175B919"",""assignmentId"":""86d0064c-4a8e-45c7-a1d7-f2d19810c827"",""projectId"":""a0a8f18c-a66e-4ba7-a170-23efbdc67501""}","https://test12345.live/?participantId=0FF470B49575441C9F7D896D5175B919&assignmentId=86d0064c-4a8e-45c7-a1d7-f2d19810c827&projectId=a0a8f18c-a66e-4ba7-a170-23efbdc67501","0FF470B49575441C9F7D896D5175B919-2024-11-24-18-46-23","","null","","images/causal_sequence/museum_causal/museum_causal_8.png","null","",""
"","","","","","image-button-response","143","538202","0.0-16.0-1.0-1.7","0FF470B49575441C9F7D896D5175B919","0FF470B49575441C9F7D896D5175B919","86d0064c-4a8e-45c7-a1d7-f2d19810c827","a0a8f18c-a66e-4ba7-a170-23efbdc67501","{""participantId"":""0FF470B49575441C9F7D896D5175B919"",""assignmentId"":""86d0064c-4a8e-45c7-a1d7-f2d19810c827"",""projectId"":""a0a8f18c-a66e-4ba7-a170-23efbdc67501""}","https://test12345.live/?participantId=0FF470B49575441C9F7D896D5175B919&assignmentId=86d0064c-4a8e-45c7-a1d7-f2d19810c827&projectId=a0a8f18c-a66e-4ba7-a170-23efbdc67501","0FF470B49575441C9F7D896D5175B919-2024-11-24-18-46-23","","1271","","images/causal_sequence/museum_causal/museum_causal_8.png","0","",""
