"success","timeout","failed_images","failed_audio","failed_video","trial_type","trial_index","time_elapsed","internal_node_id","subject","subject_id","study_id","session_id","urlvar","current_url","audio_id","view_history","rt","device_id","stimulus","response","estimated_stimulus_onset","seq_name"
"true","false","[]","[]","[]","preload","0","857","0.0-0.0","10943C1C735143E88F4DA058CFE03C3F","10943C1C735143E88F4DA058CFE03C3F","db302a4d-b4e7-43b8-b4a0-280bff6dc36e","ba640c14-69c5-453e-80b2-29051492c0e0","{""num_scrambled_semantic"":""8"",""num_scrambled_causal"":""4"",""num_scrambled_schematic"":""4"",""participantId"":""10943C1C735143E88F4DA058CFE03C3F"",""assignmentId"":""db302a4d-b4e7-43b8-b4a0-280bff6dc36e"",""projectId"":""ba640c14-69c5-453e-80b2-29051492c0e0""}","https://test12345.live/?num_scrambled_semantic=8&num_scrambled_causal=4&num_scrambled_schematic=4&participantId=10943C1C735143E88F4DA058CFE03C3F&assignmentId=db302a4d-b4e7-43b8-b4a0-280bff6dc36e&projectId=ba640c14-69c5-453e-80b2-29051492c0e0","10943C1C735143E88F4DA058CFE03C3F-2025-05-14-22-09-24","","","","","","",""
"","","","","","instructions","1","9276","0.0-1.0","10943C1C735143E88F4DA058CFE03C3F","10943C1C735143E88F4DA058CFE03C3F","db302a4d-b4e7-43b8-b4a0-280bff6dc36e","ba640c14-69c5-453e-80b2-29051492c0e0","{""num_scrambled_semantic"":""8"",""num_scrambled_causal"":""4"",""num_scrambled_schematic"":""4"",""participantId"":""10943C1C735143E88F4DA058CFE03C3F"",""assignmentId"":""db302a4d-b4e7-43b8-b4a0-280bff6dc36e"",""projectId"":""ba640c14-69c5-453e-80b2-29051492c0e0""}","https://test12345.live/?num_scrambled_semantic=8&num_scrambled_causal=4&num_scrambled_schematic=4&participantId=10943C1C735143E88F4DA058CFE03C3F&assignmentId=db302a4d-b4e7-43b8-b4a0-280bff6dc36e&projectId=ba640c14-69c5-453e-80b2-29051492c0e0","10943C1C735143E88F4DA058CFE03C3F-2025-05-14-22-09-24","[{""page_index"":0,""viewing_time"":8417}]","8418","","","","",""
"","","","","","instructions","2","12892","0.0-2.0","10943C1C735143E88F4DA058CFE03C3F","10943C1C735143E88F4DA058CFE03C3F","db302a4d-b4e7-43b8-b4a0-280bff6dc36e","ba640c14-69c5-453e-80b2-29051492c0e0","{""num_scrambled_semantic"":""8"",""num_scrambled_causal"":""4"",""num_scrambled_schematic"":""4"",""participantId"":""10943C1C735143E88F4DA058CFE03C3F"",""assignmentId"":""db302a4d-b4e7-43b8-b4a0-280bff6dc36e"",""projectId"":""ba640c14-69c5-453e-80b2-29051492c0e0""}","https://test12345.live/?num_scrambled_semantic=8&num_scrambled_causal=4&num_scrambled_schematic=4&participantId=10943C1C735143E88F4DA058CFE03C3F&assignmentId=db302a4d-b4e7-43b8-b4a0-280bff6dc36e&projectId=ba640c14-69c5-453e-80b2-29051492c0e0","10943C1C735143E88F4DA058CFE03C3F-2025-05-14-22-09-24","[{""page_index"":0,""viewing_time"":3615}]","3615","","","","",""
"true","","","","","fullscreen","3","15492","0.0-3.0","10943C1C735143E88F4DA058CFE03C3F","10943C1C735143E88F4DA058CFE03C3F","db302a4d-b4e7-43b8-b4a0-280bff6dc36e","ba640c14-69c5-453e-80b2-29051492c0e0","{""num_scrambled_semantic"":""8"",""num_scrambled_causal"":""4"",""num_scrambled_schematic"":""4"",""participantId"":""10943C1C735143E88F4DA058CFE03C3F"",""assignmentId"":""db302a4d-b4e7-43b8-b4a0-280bff6dc36e"",""projectId"":""ba640c14-69c5-453e-80b2-29051492c0e0""}","https://test12345.live/?num_scrambled_semantic=8&num_scrambled_causal=4&num_scrambled_schematic=4&participantId=10943C1C735143E88F4DA058CFE03C3F&assignmentId=db302a4d-b4e7-43b8-b4a0-280bff6dc36e&projectId=ba640c14-69c5-453e-80b2-29051492c0e0","10943C1C735143E88F4DA058CFE03C3F-2025-05-14-22-09-24","","1598","","","","",""
"","","","","","initialize-microphone","4","27727","0.0-4.0-0.0","10943C1C735143E88F4DA058CFE03C3F","10943C1C735143E88F4DA058CFE03C3F","db302a4d-b4e7-43b8-b4a0-280bff6dc36e","ba640c14-69c5-453e-80b2-29051492c0e0","{""num_scrambled_semantic"":""8"",""num_scrambled_causal"":""4"",""num_scrambled_schematic"":""4"",""participantId"":""10943C1C735143E88F4DA058CFE03C3F"",""assignmentId"":""db302a4d-b4e7-43b8-b4a0-280bff6dc36e"",""projectId"":""ba640c14-69c5-453e-80b2-29051492c0e0""}","https://test12345.live/?num_scrambled_semantic=8&num_scrambled_causal=4&num_scrambled_schematic=4&participantId=10943C1C735143E88F4DA058CFE03C3F&assignmentId=db302a4d-b4e7-43b8-b4a0-280bff6dc36e&projectId=ba640c14-69c5-453e-80b2-29051492c0e0","10943C1C735143E88F4DA058CFE03C3F-2025-05-14-22-09-24","","","07622b27e003f937d29dc52d1b56da48985679eacb3e27a6e0f9ed30f9f4077e","","","",""
"","","","","","html-audio-response","5","39015","0.0-4.0-1.0","10943C1C735143E88F4DA058CFE03C3F","10943C1C735143E88F4DA058CFE03C3F","db302a4d-b4e7-43b8-b4a0-280bff6dc36e","ba640c14-69c5-453e-80b2-29051492c0e0","{""num_scrambled_semantic"":""8"",""num_scrambled_causal"":""4"",""num_scrambled_schematic"":""4"",""participantId"":""10943C1C735143E88F4DA058CFE03C3F"",""assignmentId"":""db302a4d-b4e7-43b8-b4a0-280bff6dc36e"",""projectId"":""ba640c14-69c5-453e-80b2-29051492c0e0""}","https://test12345.live/?num_scrambled_semantic=8&num_scrambled_causal=4&num_scrambled_schematic=4&participantId=10943C1C735143E88F4DA058CFE03C3F&assignmentId=db302a4d-b4e7-43b8-b4a0-280bff6dc36e&projectId=ba640c14-69c5-453e-80b2-29051492c0e0","10943C1C735143E88F4DA058CFE03C3F-2025-05-14-22-09-24","","8011","","<span style=""color: red; font-size: 24px""> NOW RECORDING</span>
        <p>Please test Microphone</p>","","5",""
"","","","","","html-button-response","6","45748","0.0-4.0-2.0","10943C1C735143E88F4DA058CFE03C3F","10943C1C735143E88F4DA058CFE03C3F","db302a4d-b4e7-43b8-b4a0-280bff6dc36e","ba640c14-69c5-453e-80b2-29051492c0e0","{""num_scrambled_semantic"":""8"",""num_scrambled_causal"":""4"",""num_scrambled_schematic"":""4"",""participantId"":""10943C1C735143E88F4DA058CFE03C3F"",""assignmentId"":""db302a4d-b4e7-43b8-b4a0-280bff6dc36e"",""projectId"":""ba640c14-69c5-453e-80b2-29051492c0e0""}","https://test12345.live/?num_scrambled_semantic=8&num_scrambled_causal=4&num_scrambled_schematic=4&participantId=10943C1C735143E88F4DA058CFE03C3F&assignmentId=db302a4d-b4e7-43b8-b4a0-280bff6dc36e&projectId=ba640c14-69c5-453e-80b2-29051492c0e0","10943C1C735143E88F4DA058CFE03C3F-2025-05-14-22-09-24","","6731","","<p style=""font-size:48px; color:red;"">Is Microphone OK?</p>","0","",""
"","","","","","initialize-microphone","7","47095","0.0-4.1-0.1","10943C1C735143E88F4DA058CFE03C3F","10943C1C735143E88F4DA058CFE03C3F","db302a4d-b4e7-43b8-b4a0-280bff6dc36e","ba640c14-69c5-453e-80b2-29051492c0e0","{""num_scrambled_semantic"":""8"",""num_scrambled_causal"":""4"",""num_scrambled_schematic"":""4"",""participantId"":""10943C1C735143E88F4DA058CFE03C3F"",""assignmentId"":""db302a4d-b4e7-43b8-b4a0-280bff6dc36e"",""projectId"":""ba640c14-69c5-453e-80b2-29051492c0e0""}","https://test12345.live/?num_scrambled_semantic=8&num_scrambled_causal=4&num_scrambled_schematic=4&participantId=10943C1C735143E88F4DA058CFE03C3F&assignmentId=db302a4d-b4e7-43b8-b4a0-280bff6dc36e&projectId=ba640c14-69c5-453e-80b2-29051492c0e0","10943C1C735143E88F4DA058CFE03C3F-2025-05-14-22-09-24","","","07622b27e003f937d29dc52d1b56da48985679eacb3e27a6e0f9ed30f9f4077e","","","",""
"","","","","","html-audio-response","8","57261","0.0-4.1-1.1","10943C1C735143E88F4DA058CFE03C3F","10943C1C735143E88F4DA058CFE03C3F","db302a4d-b4e7-43b8-b4a0-280bff6dc36e","ba640c14-69c5-453e-80b2-29051492c0e0","{""num_scrambled_semantic"":""8"",""num_scrambled_causal"":""4"",""num_scrambled_schematic"":""4"",""participantId"":""10943C1C735143E88F4DA058CFE03C3F"",""assignmentId"":""db302a4d-b4e7-43b8-b4a0-280bff6dc36e"",""projectId"":""ba640c14-69c5-453e-80b2-29051492c0e0""}","https://test12345.live/?num_scrambled_semantic=8&num_scrambled_causal=4&num_scrambled_schematic=4&participantId=10943C1C735143E88F4DA058CFE03C3F&assignmentId=db302a4d-b4e7-43b8-b4a0-280bff6dc36e&projectId=ba640c14-69c5-453e-80b2-29051492c0e0","10943C1C735143E88F4DA058CFE03C3F-2025-05-14-22-09-24","","4059","","<span style=""color: red; font-size: 24px""> NOW RECORDING</span>
        <p>Please test Microphone</p>","","2",""
"","","","","","html-button-response","9","58567","0.0-4.1-2.1","10943C1C735143E88F4DA058CFE03C3F","10943C1C735143E88F4DA058CFE03C3F","db302a4d-b4e7-43b8-b4a0-280bff6dc36e","ba640c14-69c5-453e-80b2-29051492c0e0","{""num_scrambled_semantic"":""8"",""num_scrambled_causal"":""4"",""num_scrambled_schematic"":""4"",""participantId"":""10943C1C735143E88F4DA058CFE03C3F"",""assignmentId"":""db302a4d-b4e7-43b8-b4a0-280bff6dc36e"",""projectId"":""ba640c14-69c5-453e-80b2-29051492c0e0""}","https://test12345.live/?num_scrambled_semantic=8&num_scrambled_causal=4&num_scrambled_schematic=4&participantId=10943C1C735143E88F4DA058CFE03C3F&assignmentId=db302a4d-b4e7-43b8-b4a0-280bff6dc36e&projectId=ba640c14-69c5-453e-80b2-29051492c0e0","10943C1C735143E88F4DA058CFE03C3F-2025-05-14-22-09-24","","1304","","<p style=""font-size:48px; color:red;"">Is Microphone OK?</p>","1","",""
"","","","","","instructions","10","69650","0.0-5.0","10943C1C735143E88F4DA058CFE03C3F","10943C1C735143E88F4DA058CFE03C3F","db302a4d-b4e7-43b8-b4a0-280bff6dc36e","ba640c14-69c5-453e-80b2-29051492c0e0","{""num_scrambled_semantic"":""8"",""num_scrambled_causal"":""4"",""num_scrambled_schematic"":""4"",""participantId"":""10943C1C735143E88F4DA058CFE03C3F"",""assignmentId"":""db302a4d-b4e7-43b8-b4a0-280bff6dc36e"",""projectId"":""ba640c14-69c5-453e-80b2-29051492c0e0""}","https://test12345.live/?num_scrambled_semantic=8&num_scrambled_causal=4&num_scrambled_schematic=4&participantId=10943C1C735143E88F4DA058CFE03C3F&assignmentId=db302a4d-b4e7-43b8-b4a0-280bff6dc36e&projectId=ba640c14-69c5-453e-80b2-29051492c0e0","10943C1C735143E88F4DA058CFE03C3F-2025-05-14-22-09-24","[{""page_index"":0,""viewing_time"":4912},{""page_index"":1,""viewing_time"":6170}]","11082","","","","",""
"","","","","","image-button-response","11","75659","0.0-6.0-0.0","10943C1C735143E88F4DA058CFE03C3F","10943C1C735143E88F4DA058CFE03C3F","db302a4d-b4e7-43b8-b4a0-280bff6dc36e","ba640c14-69c5-453e-80b2-29051492c0e0","{""num_scrambled_semantic"":""8"",""num_scrambled_causal"":""4"",""num_scrambled_schematic"":""4"",""participantId"":""10943C1C735143E88F4DA058CFE03C3F"",""assignmentId"":""db302a4d-b4e7-43b8-b4a0-280bff6dc36e"",""projectId"":""ba640c14-69c5-453e-80b2-29051492c0e0""}","https://test12345.live/?num_scrambled_semantic=8&num_scrambled_causal=4&num_scrambled_schematic=4&participantId=10943C1C735143E88F4DA058CFE03C3F&assignmentId=db302a4d-b4e7-43b8-b4a0-280bff6dc36e&projectId=ba640c14-69c5-453e-80b2-29051492c0e0","10943C1C735143E88F4DA058CFE03C3F-2025-05-14-22-09-24","","null","","images/instructions/movie_0.png","null","",""
"","","","","","image-button-response","12","80161","0.0-6.0-1.0-0.0","10943C1C735143E88F4DA058CFE03C3F","10943C1C735143E88F4DA058CFE03C3F","db302a4d-b4e7-43b8-b4a0-280bff6dc36e","ba640c14-69c5-453e-80b2-29051492c0e0","{""num_scrambled_semantic"":""8"",""num_scrambled_causal"":""4"",""num_scrambled_schematic"":""4"",""participantId"":""10943C1C735143E88F4DA058CFE03C3F"",""assignmentId"":""db302a4d-b4e7-43b8-b4a0-280bff6dc36e"",""projectId"":""ba640c14-69c5-453e-80b2-29051492c0e0""}","https://test12345.live/?num_scrambled_semantic=8&num_scrambled_causal=4&num_scrambled_schematic=4&participantId=10943C1C735143E88F4DA058CFE03C3F&assignmentId=db302a4d-b4e7-43b8-b4a0-280bff6dc36e&projectId=ba640c14-69c5-453e-80b2-29051492c0e0","10943C1C735143E88F4DA058CFE03C3F-2025-05-14-22-09-24","","null","","images/instructions/movie_1.png","null","",""
"","","","","","image-button-response","13","83284","0.0-6.0-1.0-1.0","10943C1C735143E88F4DA058CFE03C3F","10943C1C735143E88F4DA058CFE03C3F","db302a4d-b4e7-43b8-b4a0-280bff6dc36e","ba640c14-69c5-453e-80b2-29051492c0e0","{""num_scrambled_semantic"":""8"",""num_scrambled_causal"":""4"",""num_scrambled_schematic"":""4"",""participantId"":""10943C1C735143E88F4DA058CFE03C3F"",""assignmentId"":""db302a4d-b4e7-43b8-b4a0-280bff6dc36e"",""projectId"":""ba640c14-69c5-453e-80b2-29051492c0e0""}","https://test12345.live/?num_scrambled_semantic=8&num_scrambled_causal=4&num_scrambled_schematic=4&participantId=10943C1C735143E88F4DA058CFE03C3F&assignmentId=db302a4d-b4e7-43b8-b4a0-280bff6dc36e&projectId=ba640c14-69c5-453e-80b2-29051492c0e0","10943C1C735143E88F4DA058CFE03C3F-2025-05-14-22-09-24","","3122","","images/instructions/movie_1.png","0","",""
"","","","","","image-button-response","14","85090","0.0-6.0-1.0-2.0","10943C1C735143E88F4DA058CFE03C3F","10943C1C735143E88F4DA058CFE03C3F","db302a4d-b4e7-43b8-b4a0-280bff6dc36e","ba640c14-69c5-453e-80b2-29051492c0e0","{""num_scrambled_semantic"":""8"",""num_scrambled_causal"":""4"",""num_scrambled_schematic"":""4"",""participantId"":""10943C1C735143E88F4DA058CFE03C3F"",""assignmentId"":""db302a4d-b4e7-43b8-b4a0-280bff6dc36e"",""projectId"":""ba640c14-69c5-453e-80b2-29051492c0e0""}","https://test12345.live/?num_scrambled_semantic=8&num_scrambled_causal=4&num_scrambled_schematic=4&participantId=10943C1C735143E88F4DA058CFE03C3F&assignmentId=db302a4d-b4e7-43b8-b4a0-280bff6dc36e&projectId=ba640c14-69c5-453e-80b2-29051492c0e0","10943C1C735143E88F4DA058CFE03C3F-2025-05-14-22-09-24","","null","","[]","null","",""
"","","","","","image-button-response","15","89597","0.0-6.0-1.0-0.1","10943C1C735143E88F4DA058CFE03C3F","10943C1C735143E88F4DA058CFE03C3F","db302a4d-b4e7-43b8-b4a0-280bff6dc36e","ba640c14-69c5-453e-80b2-29051492c0e0","{""num_scrambled_semantic"":""8"",""num_scrambled_causal"":""4"",""num_scrambled_schematic"":""4"",""participantId"":""10943C1C735143E88F4DA058CFE03C3F"",""assignmentId"":""db302a4d-b4e7-43b8-b4a0-280bff6dc36e"",""projectId"":""ba640c14-69c5-453e-80b2-29051492c0e0""}","https://test12345.live/?num_scrambled_semantic=8&num_scrambled_causal=4&num_scrambled_schematic=4&participantId=10943C1C735143E88F4DA058CFE03C3F&assignmentId=db302a4d-b4e7-43b8-b4a0-280bff6dc36e&projectId=ba640c14-69c5-453e-80b2-29051492c0e0","10943C1C735143E88F4DA058CFE03C3F-2025-05-14-22-09-24","","null","","images/instructions/movie_2.png","null","",""
"","","","","","image-button-response","16","91165","0.0-6.0-1.0-1.1","10943C1C735143E88F4DA058CFE03C3F","10943C1C735143E88F4DA058CFE03C3F","db302a4d-b4e7-43b8-b4a0-280bff6dc36e","ba640c14-69c5-453e-80b2-29051492c0e0","{""num_scrambled_semantic"":""8"",""num_scrambled_causal"":""4"",""num_scrambled_schematic"":""4"",""participantId"":""10943C1C735143E88F4DA058CFE03C3F"",""assignmentId"":""db302a4d-b4e7-43b8-b4a0-280bff6dc36e"",""projectId"":""ba640c14-69c5-453e-80b2-29051492c0e0""}","https://test12345.live/?num_scrambled_semantic=8&num_scrambled_causal=4&num_scrambled_schematic=4&participantId=10943C1C735143E88F4DA058CFE03C3F&assignmentId=db302a4d-b4e7-43b8-b4a0-280bff6dc36e&projectId=ba640c14-69c5-453e-80b2-29051492c0e0","10943C1C735143E88F4DA058CFE03C3F-2025-05-14-22-09-24","","1566","","images/instructions/movie_2.png","1","",""
"","","","","","image-button-response","17","92970","0.0-6.0-1.0-2.1","10943C1C735143E88F4DA058CFE03C3F","10943C1C735143E88F4DA058CFE03C3F","db302a4d-b4e7-43b8-b4a0-280bff6dc36e","ba640c14-69c5-453e-80b2-29051492c0e0","{""num_scrambled_semantic"":""8"",""num_scrambled_causal"":""4"",""num_scrambled_schematic"":""4"",""participantId"":""10943C1C735143E88F4DA058CFE03C3F"",""assignmentId"":""db302a4d-b4e7-43b8-b4a0-280bff6dc36e"",""projectId"":""ba640c14-69c5-453e-80b2-29051492c0e0""}","https://test12345.live/?num_scrambled_semantic=8&num_scrambled_causal=4&num_scrambled_schematic=4&participantId=10943C1C735143E88F4DA058CFE03C3F&assignmentId=db302a4d-b4e7-43b8-b4a0-280bff6dc36e&projectId=ba640c14-69c5-453e-80b2-29051492c0e0","10943C1C735143E88F4DA058CFE03C3F-2025-05-14-22-09-24","","null","","[]","null","",""
"","","","","","image-button-response","18","97474","0.0-6.0-1.0-0.2","10943C1C735143E88F4DA058CFE03C3F","10943C1C735143E88F4DA058CFE03C3F","db302a4d-b4e7-43b8-b4a0-280bff6dc36e","ba640c14-69c5-453e-80b2-29051492c0e0","{""num_scrambled_semantic"":""8"",""num_scrambled_causal"":""4"",""num_scrambled_schematic"":""4"",""participantId"":""10943C1C735143E88F4DA058CFE03C3F"",""assignmentId"":""db302a4d-b4e7-43b8-b4a0-280bff6dc36e"",""projectId"":""ba640c14-69c5-453e-80b2-29051492c0e0""}","https://test12345.live/?num_scrambled_semantic=8&num_scrambled_causal=4&num_scrambled_schematic=4&participantId=10943C1C735143E88F4DA058CFE03C3F&assignmentId=db302a4d-b4e7-43b8-b4a0-280bff6dc36e&projectId=ba640c14-69c5-453e-80b2-29051492c0e0","10943C1C735143E88F4DA058CFE03C3F-2025-05-14-22-09-24","","null","","images/instructions/movie_3.png","null","",""
"","","","","","image-button-response","19","99032","0.0-6.0-1.0-1.2","10943C1C735143E88F4DA058CFE03C3F","10943C1C735143E88F4DA058CFE03C3F","db302a4d-b4e7-43b8-b4a0-280bff6dc36e","ba640c14-69c5-453e-80b2-29051492c0e0","{""num_scrambled_semantic"":""8"",""num_scrambled_causal"":""4"",""num_scrambled_schematic"":""4"",""participantId"":""10943C1C735143E88F4DA058CFE03C3F"",""assignmentId"":""db302a4d-b4e7-43b8-b4a0-280bff6dc36e"",""projectId"":""ba640c14-69c5-453e-80b2-29051492c0e0""}","https://test12345.live/?num_scrambled_semantic=8&num_scrambled_causal=4&num_scrambled_schematic=4&participantId=10943C1C735143E88F4DA058CFE03C3F&assignmentId=db302a4d-b4e7-43b8-b4a0-280bff6dc36e&projectId=ba640c14-69c5-453e-80b2-29051492c0e0","10943C1C735143E88F4DA058CFE03C3F-2025-05-14-22-09-24","","1556","","images/instructions/movie_3.png","0","",""
"","","","","","image-button-response","20","100839","0.0-6.0-1.0-2.2","10943C1C735143E88F4DA058CFE03C3F","10943C1C735143E88F4DA058CFE03C3F","db302a4d-b4e7-43b8-b4a0-280bff6dc36e","ba640c14-69c5-453e-80b2-29051492c0e0","{""num_scrambled_semantic"":""8"",""num_scrambled_causal"":""4"",""num_scrambled_schematic"":""4"",""participantId"":""10943C1C735143E88F4DA058CFE03C3F"",""assignmentId"":""db302a4d-b4e7-43b8-b4a0-280bff6dc36e"",""projectId"":""ba640c14-69c5-453e-80b2-29051492c0e0""}","https://test12345.live/?num_scrambled_semantic=8&num_scrambled_causal=4&num_scrambled_schematic=4&participantId=10943C1C735143E88F4DA058CFE03C3F&assignmentId=db302a4d-b4e7-43b8-b4a0-280bff6dc36e&projectId=ba640c14-69c5-453e-80b2-29051492c0e0","10943C1C735143E88F4DA058CFE03C3F-2025-05-14-22-09-24","","null","","[]","null","",""
"","","","","","image-button-response","21","105344","0.0-6.0-1.0-0.3","10943C1C735143E88F4DA058CFE03C3F","10943C1C735143E88F4DA058CFE03C3F","db302a4d-b4e7-43b8-b4a0-280bff6dc36e","ba640c14-69c5-453e-80b2-29051492c0e0","{""num_scrambled_semantic"":""8"",""num_scrambled_causal"":""4"",""num_scrambled_schematic"":""4"",""participantId"":""10943C1C735143E88F4DA058CFE03C3F"",""assignmentId"":""db302a4d-b4e7-43b8-b4a0-280bff6dc36e"",""projectId"":""ba640c14-69c5-453e-80b2-29051492c0e0""}","https://test12345.live/?num_scrambled_semantic=8&num_scrambled_causal=4&num_scrambled_schematic=4&participantId=10943C1C735143E88F4DA058CFE03C3F&assignmentId=db302a4d-b4e7-43b8-b4a0-280bff6dc36e&projectId=ba640c14-69c5-453e-80b2-29051492c0e0","10943C1C735143E88F4DA058CFE03C3F-2025-05-14-22-09-24","","null","","images/instructions/movie_4.png","null","",""
"","","","","","image-button-response","22","106903","0.0-6.0-1.0-1.3","10943C1C735143E88F4DA058CFE03C3F","10943C1C735143E88F4DA058CFE03C3F","db302a4d-b4e7-43b8-b4a0-280bff6dc36e","ba640c14-69c5-453e-80b2-29051492c0e0","{""num_scrambled_semantic"":""8"",""num_scrambled_causal"":""4"",""num_scrambled_schematic"":""4"",""participantId"":""10943C1C735143E88F4DA058CFE03C3F"",""assignmentId"":""db302a4d-b4e7-43b8-b4a0-280bff6dc36e"",""projectId"":""ba640c14-69c5-453e-80b2-29051492c0e0""}","https://test12345.live/?num_scrambled_semantic=8&num_scrambled_causal=4&num_scrambled_schematic=4&participantId=10943C1C735143E88F4DA058CFE03C3F&assignmentId=db302a4d-b4e7-43b8-b4a0-280bff6dc36e&projectId=ba640c14-69c5-453e-80b2-29051492c0e0","10943C1C735143E88F4DA058CFE03C3F-2025-05-14-22-09-24","","1556","","images/instructions/movie_4.png","0","",""
"","","","","","image-button-response","23","108709","0.0-6.0-1.0-2.3","10943C1C735143E88F4DA058CFE03C3F","10943C1C735143E88F4DA058CFE03C3F","db302a4d-b4e7-43b8-b4a0-280bff6dc36e","ba640c14-69c5-453e-80b2-29051492c0e0","{""num_scrambled_semantic"":""8"",""num_scrambled_causal"":""4"",""num_scrambled_schematic"":""4"",""participantId"":""10943C1C735143E88F4DA058CFE03C3F"",""assignmentId"":""db302a4d-b4e7-43b8-b4a0-280bff6dc36e"",""projectId"":""ba640c14-69c5-453e-80b2-29051492c0e0""}","https://test12345.live/?num_scrambled_semantic=8&num_scrambled_causal=4&num_scrambled_schematic=4&participantId=10943C1C735143E88F4DA058CFE03C3F&assignmentId=db302a4d-b4e7-43b8-b4a0-280bff6dc36e&projectId=ba640c14-69c5-453e-80b2-29051492c0e0","10943C1C735143E88F4DA058CFE03C3F-2025-05-14-22-09-24","","null","","[]","null","",""
"","","","","","instructions","24","116520","0.0-7.0","10943C1C735143E88F4DA058CFE03C3F","10943C1C735143E88F4DA058CFE03C3F","db302a4d-b4e7-43b8-b4a0-280bff6dc36e","ba640c14-69c5-453e-80b2-29051492c0e0","{""num_scrambled_semantic"":""8"",""num_scrambled_causal"":""4"",""num_scrambled_schematic"":""4"",""participantId"":""10943C1C735143E88F4DA058CFE03C3F"",""assignmentId"":""db302a4d-b4e7-43b8-b4a0-280bff6dc36e"",""projectId"":""ba640c14-69c5-453e-80b2-29051492c0e0""}","https://test12345.live/?num_scrambled_semantic=8&num_scrambled_causal=4&num_scrambled_schematic=4&participantId=10943C1C735143E88F4DA058CFE03C3F&assignmentId=db302a4d-b4e7-43b8-b4a0-280bff6dc36e&projectId=ba640c14-69c5-453e-80b2-29051492c0e0","10943C1C735143E88F4DA058CFE03C3F-2025-05-14-22-09-24","[{""page_index"":0,""viewing_time"":6144},{""page_index"":1,""viewing_time"":1666}]","7810","","","","",""
"","","","","","html-audio-response","25","130889","0.0-8.0","10943C1C735143E88F4DA058CFE03C3F","10943C1C735143E88F4DA058CFE03C3F","db302a4d-b4e7-43b8-b4a0-280bff6dc36e","ba640c14-69c5-453e-80b2-29051492c0e0","{""num_scrambled_semantic"":""8"",""num_scrambled_causal"":""4"",""num_scrambled_schematic"":""4"",""participantId"":""10943C1C735143E88F4DA058CFE03C3F"",""assignmentId"":""db302a4d-b4e7-43b8-b4a0-280bff6dc36e"",""projectId"":""ba640c14-69c5-453e-80b2-29051492c0e0""}","https://test12345.live/?num_scrambled_semantic=8&num_scrambled_causal=4&num_scrambled_schematic=4&participantId=10943C1C735143E88F4DA058CFE03C3F&assignmentId=db302a4d-b4e7-43b8-b4a0-280bff6dc36e&projectId=ba640c14-69c5-453e-80b2-29051492c0e0","10943C1C735143E88F4DA058CFE03C3F-2025-05-14-22-09-24","","12671","","[""<span style=\""color: red; font-size: 24px\""> NOW RECORDING</span><p>Please say out loud all the images you saw, as many as you can remember. The images can be said in any order.</p>""]","","2",""
"","","","","","instructions","26","132438","0.0-9.0","10943C1C735143E88F4DA058CFE03C3F","10943C1C735143E88F4DA058CFE03C3F","db302a4d-b4e7-43b8-b4a0-280bff6dc36e","ba640c14-69c5-453e-80b2-29051492c0e0","{""num_scrambled_semantic"":""8"",""num_scrambled_causal"":""4"",""num_scrambled_schematic"":""4"",""participantId"":""10943C1C735143E88F4DA058CFE03C3F"",""assignmentId"":""db302a4d-b4e7-43b8-b4a0-280bff6dc36e"",""projectId"":""ba640c14-69c5-453e-80b2-29051492c0e0""}","https://test12345.live/?num_scrambled_semantic=8&num_scrambled_causal=4&num_scrambled_schematic=4&participantId=10943C1C735143E88F4DA058CFE03C3F&assignmentId=db302a4d-b4e7-43b8-b4a0-280bff6dc36e&projectId=ba640c14-69c5-453e-80b2-29051492c0e0","10943C1C735143E88F4DA058CFE03C3F-2025-05-14-22-09-24","[{""page_index"":0,""viewing_time"":1541}]","1541","","","","",""
"","","","","","image-button-response","27","138446","0.0-10.0-0.0","10943C1C735143E88F4DA058CFE03C3F","10943C1C735143E88F4DA058CFE03C3F","db302a4d-b4e7-43b8-b4a0-280bff6dc36e","ba640c14-69c5-453e-80b2-29051492c0e0","{""num_scrambled_semantic"":""8"",""num_scrambled_causal"":""4"",""num_scrambled_schematic"":""4"",""participantId"":""10943C1C735143E88F4DA058CFE03C3F"",""assignmentId"":""db302a4d-b4e7-43b8-b4a0-280bff6dc36e"",""projectId"":""ba640c14-69c5-453e-80b2-29051492c0e0""}","https://test12345.live/?num_scrambled_semantic=8&num_scrambled_causal=4&num_scrambled_schematic=4&participantId=10943C1C735143E88F4DA058CFE03C3F&assignmentId=db302a4d-b4e7-43b8-b4a0-280bff6dc36e&projectId=ba640c14-69c5-453e-80b2-29051492c0e0","10943C1C735143E88F4DA058CFE03C3F-2025-05-14-22-09-24","","null","","images/schematic_sequence/interview_scheme/interview_scheme_0.png","null","",""
"","","","","","image-button-response","28","142950","0.0-10.0-1.0-0.0","10943C1C735143E88F4DA058CFE03C3F","10943C1C735143E88F4DA058CFE03C3F","db302a4d-b4e7-43b8-b4a0-280bff6dc36e","ba640c14-69c5-453e-80b2-29051492c0e0","{""num_scrambled_semantic"":""8"",""num_scrambled_causal"":""4"",""num_scrambled_schematic"":""4"",""participantId"":""10943C1C735143E88F4DA058CFE03C3F"",""assignmentId"":""db302a4d-b4e7-43b8-b4a0-280bff6dc36e"",""projectId"":""ba640c14-69c5-453e-80b2-29051492c0e0""}","https://test12345.live/?num_scrambled_semantic=8&num_scrambled_causal=4&num_scrambled_schematic=4&participantId=10943C1C735143E88F4DA058CFE03C3F&assignmentId=db302a4d-b4e7-43b8-b4a0-280bff6dc36e&projectId=ba640c14-69c5-453e-80b2-29051492c0e0","10943C1C735143E88F4DA058CFE03C3F-2025-05-14-22-09-24","","null","","images/schematic_sequence/interview_scheme/interview_scheme_1.png","null","",""
"","","","","","image-button-response","29","144623","0.0-10.0-1.0-1.0","10943C1C735143E88F4DA058CFE03C3F","10943C1C735143E88F4DA058CFE03C3F","db302a4d-b4e7-43b8-b4a0-280bff6dc36e","ba640c14-69c5-453e-80b2-29051492c0e0","{""num_scrambled_semantic"":""8"",""num_scrambled_causal"":""4"",""num_scrambled_schematic"":""4"",""participantId"":""10943C1C735143E88F4DA058CFE03C3F"",""assignmentId"":""db302a4d-b4e7-43b8-b4a0-280bff6dc36e"",""projectId"":""ba640c14-69c5-453e-80b2-29051492c0e0""}","https://test12345.live/?num_scrambled_semantic=8&num_scrambled_causal=4&num_scrambled_schematic=4&participantId=10943C1C735143E88F4DA058CFE03C3F&assignmentId=db302a4d-b4e7-43b8-b4a0-280bff6dc36e&projectId=ba640c14-69c5-453e-80b2-29051492c0e0","10943C1C735143E88F4DA058CFE03C3F-2025-05-14-22-09-24","","1671","","images/schematic_sequence/interview_scheme/interview_scheme_1.png","1","",""
"","","","","","image-button-response","30","146430","0.0-10.0-1.0-2.0","10943C1C735143E88F4DA058CFE03C3F","10943C1C735143E88F4DA058CFE03C3F","db302a4d-b4e7-43b8-b4a0-280bff6dc36e","ba640c14-69c5-453e-80b2-29051492c0e0","{""num_scrambled_semantic"":""8"",""num_scrambled_causal"":""4"",""num_scrambled_schematic"":""4"",""participantId"":""10943C1C735143E88F4DA058CFE03C3F"",""assignmentId"":""db302a4d-b4e7-43b8-b4a0-280bff6dc36e"",""projectId"":""ba640c14-69c5-453e-80b2-29051492c0e0""}","https://test12345.live/?num_scrambled_semantic=8&num_scrambled_causal=4&num_scrambled_schematic=4&participantId=10943C1C735143E88F4DA058CFE03C3F&assignmentId=db302a4d-b4e7-43b8-b4a0-280bff6dc36e&projectId=ba640c14-69c5-453e-80b2-29051492c0e0","10943C1C735143E88F4DA058CFE03C3F-2025-05-14-22-09-24","","null","","[]","null","",""
"","","","","","image-button-response","31","150936","0.0-10.0-1.0-0.1","10943C1C735143E88F4DA058CFE03C3F","10943C1C735143E88F4DA058CFE03C3F","db302a4d-b4e7-43b8-b4a0-280bff6dc36e","ba640c14-69c5-453e-80b2-29051492c0e0","{""num_scrambled_semantic"":""8"",""num_scrambled_causal"":""4"",""num_scrambled_schematic"":""4"",""participantId"":""10943C1C735143E88F4DA058CFE03C3F"",""assignmentId"":""db302a4d-b4e7-43b8-b4a0-280bff6dc36e"",""projectId"":""ba640c14-69c5-453e-80b2-29051492c0e0""}","https://test12345.live/?num_scrambled_semantic=8&num_scrambled_causal=4&num_scrambled_schematic=4&participantId=10943C1C735143E88F4DA058CFE03C3F&assignmentId=db302a4d-b4e7-43b8-b4a0-280bff6dc36e&projectId=ba640c14-69c5-453e-80b2-29051492c0e0","10943C1C735143E88F4DA058CFE03C3F-2025-05-14-22-09-24","","null","","images/schematic_sequence/interview_scheme/interview_scheme_2.png","null","",""
"","","","","","image-button-response","32","152606","0.0-10.0-1.0-1.1","10943C1C735143E88F4DA058CFE03C3F","10943C1C735143E88F4DA058CFE03C3F","db302a4d-b4e7-43b8-b4a0-280bff6dc36e","ba640c14-69c5-453e-80b2-29051492c0e0","{""num_scrambled_semantic"":""8"",""num_scrambled_causal"":""4"",""num_scrambled_schematic"":""4"",""participantId"":""10943C1C735143E88F4DA058CFE03C3F"",""assignmentId"":""db302a4d-b4e7-43b8-b4a0-280bff6dc36e"",""projectId"":""ba640c14-69c5-453e-80b2-29051492c0e0""}","https://test12345.live/?num_scrambled_semantic=8&num_scrambled_causal=4&num_scrambled_schematic=4&participantId=10943C1C735143E88F4DA058CFE03C3F&assignmentId=db302a4d-b4e7-43b8-b4a0-280bff6dc36e&projectId=ba640c14-69c5-453e-80b2-29051492c0e0","10943C1C735143E88F4DA058CFE03C3F-2025-05-14-22-09-24","","1668","","images/schematic_sequence/interview_scheme/interview_scheme_2.png","0","",""
"","","","","","image-button-response","33","154410","0.0-10.0-1.0-2.1","10943C1C735143E88F4DA058CFE03C3F","10943C1C735143E88F4DA058CFE03C3F","db302a4d-b4e7-43b8-b4a0-280bff6dc36e","ba640c14-69c5-453e-80b2-29051492c0e0","{""num_scrambled_semantic"":""8"",""num_scrambled_causal"":""4"",""num_scrambled_schematic"":""4"",""participantId"":""10943C1C735143E88F4DA058CFE03C3F"",""assignmentId"":""db302a4d-b4e7-43b8-b4a0-280bff6dc36e"",""projectId"":""ba640c14-69c5-453e-80b2-29051492c0e0""}","https://test12345.live/?num_scrambled_semantic=8&num_scrambled_causal=4&num_scrambled_schematic=4&participantId=10943C1C735143E88F4DA058CFE03C3F&assignmentId=db302a4d-b4e7-43b8-b4a0-280bff6dc36e&projectId=ba640c14-69c5-453e-80b2-29051492c0e0","10943C1C735143E88F4DA058CFE03C3F-2025-05-14-22-09-24","","null","","[]","null","",""
"","","","","","image-button-response","34","158916","0.0-10.0-1.0-0.2","10943C1C735143E88F4DA058CFE03C3F","10943C1C735143E88F4DA058CFE03C3F","db302a4d-b4e7-43b8-b4a0-280bff6dc36e","ba640c14-69c5-453e-80b2-29051492c0e0","{""num_scrambled_semantic"":""8"",""num_scrambled_causal"":""4"",""num_scrambled_schematic"":""4"",""participantId"":""10943C1C735143E88F4DA058CFE03C3F"",""assignmentId"":""db302a4d-b4e7-43b8-b4a0-280bff6dc36e"",""projectId"":""ba640c14-69c5-453e-80b2-29051492c0e0""}","https://test12345.live/?num_scrambled_semantic=8&num_scrambled_causal=4&num_scrambled_schematic=4&participantId=10943C1C735143E88F4DA058CFE03C3F&assignmentId=db302a4d-b4e7-43b8-b4a0-280bff6dc36e&projectId=ba640c14-69c5-453e-80b2-29051492c0e0","10943C1C735143E88F4DA058CFE03C3F-2025-05-14-22-09-24","","null","","images/schematic_sequence/interview_scheme/interview_scheme_3.png","null","",""
"","","","","","image-button-response","35","161191","0.0-10.0-1.0-1.2","10943C1C735143E88F4DA058CFE03C3F","10943C1C735143E88F4DA058CFE03C3F","db302a4d-b4e7-43b8-b4a0-280bff6dc36e","ba640c14-69c5-453e-80b2-29051492c0e0","{""num_scrambled_semantic"":""8"",""num_scrambled_causal"":""4"",""num_scrambled_schematic"":""4"",""participantId"":""10943C1C735143E88F4DA058CFE03C3F"",""assignmentId"":""db302a4d-b4e7-43b8-b4a0-280bff6dc36e"",""projectId"":""ba640c14-69c5-453e-80b2-29051492c0e0""}","https://test12345.live/?num_scrambled_semantic=8&num_scrambled_causal=4&num_scrambled_schematic=4&participantId=10943C1C735143E88F4DA058CFE03C3F&assignmentId=db302a4d-b4e7-43b8-b4a0-280bff6dc36e&projectId=ba640c14-69c5-453e-80b2-29051492c0e0","10943C1C735143E88F4DA058CFE03C3F-2025-05-14-22-09-24","","2273","","images/schematic_sequence/interview_scheme/interview_scheme_3.png","1","",""
"","","","","","image-button-response","36","162993","0.0-10.0-1.0-2.2","10943C1C735143E88F4DA058CFE03C3F","10943C1C735143E88F4DA058CFE03C3F","db302a4d-b4e7-43b8-b4a0-280bff6dc36e","ba640c14-69c5-453e-80b2-29051492c0e0","{""num_scrambled_semantic"":""8"",""num_scrambled_causal"":""4"",""num_scrambled_schematic"":""4"",""participantId"":""10943C1C735143E88F4DA058CFE03C3F"",""assignmentId"":""db302a4d-b4e7-43b8-b4a0-280bff6dc36e"",""projectId"":""ba640c14-69c5-453e-80b2-29051492c0e0""}","https://test12345.live/?num_scrambled_semantic=8&num_scrambled_causal=4&num_scrambled_schematic=4&participantId=10943C1C735143E88F4DA058CFE03C3F&assignmentId=db302a4d-b4e7-43b8-b4a0-280bff6dc36e&projectId=ba640c14-69c5-453e-80b2-29051492c0e0","10943C1C735143E88F4DA058CFE03C3F-2025-05-14-22-09-24","","null","","[]","null","",""
"","","","","","image-button-response","37","167500","0.0-10.0-1.0-0.3","10943C1C735143E88F4DA058CFE03C3F","10943C1C735143E88F4DA058CFE03C3F","db302a4d-b4e7-43b8-b4a0-280bff6dc36e","ba640c14-69c5-453e-80b2-29051492c0e0","{""num_scrambled_semantic"":""8"",""num_scrambled_causal"":""4"",""num_scrambled_schematic"":""4"",""participantId"":""10943C1C735143E88F4DA058CFE03C3F"",""assignmentId"":""db302a4d-b4e7-43b8-b4a0-280bff6dc36e"",""projectId"":""ba640c14-69c5-453e-80b2-29051492c0e0""}","https://test12345.live/?num_scrambled_semantic=8&num_scrambled_causal=4&num_scrambled_schematic=4&participantId=10943C1C735143E88F4DA058CFE03C3F&assignmentId=db302a4d-b4e7-43b8-b4a0-280bff6dc36e&projectId=ba640c14-69c5-453e-80b2-29051492c0e0","10943C1C735143E88F4DA058CFE03C3F-2025-05-14-22-09-24","","null","","images/schematic_sequence/interview_scheme/interview_scheme_4.png","null","",""
"","","","","","image-button-response","38","168857","0.0-10.0-1.0-1.3","10943C1C735143E88F4DA058CFE03C3F","10943C1C735143E88F4DA058CFE03C3F","db302a4d-b4e7-43b8-b4a0-280bff6dc36e","ba640c14-69c5-453e-80b2-29051492c0e0","{""num_scrambled_semantic"":""8"",""num_scrambled_causal"":""4"",""num_scrambled_schematic"":""4"",""participantId"":""10943C1C735143E88F4DA058CFE03C3F"",""assignmentId"":""db302a4d-b4e7-43b8-b4a0-280bff6dc36e"",""projectId"":""ba640c14-69c5-453e-80b2-29051492c0e0""}","https://test12345.live/?num_scrambled_semantic=8&num_scrambled_causal=4&num_scrambled_schematic=4&participantId=10943C1C735143E88F4DA058CFE03C3F&assignmentId=db302a4d-b4e7-43b8-b4a0-280bff6dc36e&projectId=ba640c14-69c5-453e-80b2-29051492c0e0","10943C1C735143E88F4DA058CFE03C3F-2025-05-14-22-09-24","","1355","","images/schematic_sequence/interview_scheme/interview_scheme_4.png","1","",""
"","","","","","image-button-response","39","170664","0.0-10.0-1.0-2.3","10943C1C735143E88F4DA058CFE03C3F","10943C1C735143E88F4DA058CFE03C3F","db302a4d-b4e7-43b8-b4a0-280bff6dc36e","ba640c14-69c5-453e-80b2-29051492c0e0","{""num_scrambled_semantic"":""8"",""num_scrambled_causal"":""4"",""num_scrambled_schematic"":""4"",""participantId"":""10943C1C735143E88F4DA058CFE03C3F"",""assignmentId"":""db302a4d-b4e7-43b8-b4a0-280bff6dc36e"",""projectId"":""ba640c14-69c5-453e-80b2-29051492c0e0""}","https://test12345.live/?num_scrambled_semantic=8&num_scrambled_causal=4&num_scrambled_schematic=4&participantId=10943C1C735143E88F4DA058CFE03C3F&assignmentId=db302a4d-b4e7-43b8-b4a0-280bff6dc36e&projectId=ba640c14-69c5-453e-80b2-29051492c0e0","10943C1C735143E88F4DA058CFE03C3F-2025-05-14-22-09-24","","null","","[]","null","",""
"","","","","","image-button-response","40","175165","0.0-10.0-1.0-0.4","10943C1C735143E88F4DA058CFE03C3F","10943C1C735143E88F4DA058CFE03C3F","db302a4d-b4e7-43b8-b4a0-280bff6dc36e","ba640c14-69c5-453e-80b2-29051492c0e0","{""num_scrambled_semantic"":""8"",""num_scrambled_causal"":""4"",""num_scrambled_schematic"":""4"",""participantId"":""10943C1C735143E88F4DA058CFE03C3F"",""assignmentId"":""db302a4d-b4e7-43b8-b4a0-280bff6dc36e"",""projectId"":""ba640c14-69c5-453e-80b2-29051492c0e0""}","https://test12345.live/?num_scrambled_semantic=8&num_scrambled_causal=4&num_scrambled_schematic=4&participantId=10943C1C735143E88F4DA058CFE03C3F&assignmentId=db302a4d-b4e7-43b8-b4a0-280bff6dc36e&projectId=ba640c14-69c5-453e-80b2-29051492c0e0","10943C1C735143E88F4DA058CFE03C3F-2025-05-14-22-09-24","","null","","images/schematic_sequence/interview_scheme/interview_scheme_5.png","null","",""
"","","","","","image-button-response","41","176472","0.0-10.0-1.0-1.4","10943C1C735143E88F4DA058CFE03C3F","10943C1C735143E88F4DA058CFE03C3F","db302a4d-b4e7-43b8-b4a0-280bff6dc36e","ba640c14-69c5-453e-80b2-29051492c0e0","{""num_scrambled_semantic"":""8"",""num_scrambled_causal"":""4"",""num_scrambled_schematic"":""4"",""participantId"":""10943C1C735143E88F4DA058CFE03C3F"",""assignmentId"":""db302a4d-b4e7-43b8-b4a0-280bff6dc36e"",""projectId"":""ba640c14-69c5-453e-80b2-29051492c0e0""}","https://test12345.live/?num_scrambled_semantic=8&num_scrambled_causal=4&num_scrambled_schematic=4&participantId=10943C1C735143E88F4DA058CFE03C3F&assignmentId=db302a4d-b4e7-43b8-b4a0-280bff6dc36e&projectId=ba640c14-69c5-453e-80b2-29051492c0e0","10943C1C735143E88F4DA058CFE03C3F-2025-05-14-22-09-24","","1305","","images/schematic_sequence/interview_scheme/interview_scheme_5.png","0","",""
"","","","","","image-button-response","42","178280","0.0-10.0-1.0-2.4","10943C1C735143E88F4DA058CFE03C3F","10943C1C735143E88F4DA058CFE03C3F","db302a4d-b4e7-43b8-b4a0-280bff6dc36e","ba640c14-69c5-453e-80b2-29051492c0e0","{""num_scrambled_semantic"":""8"",""num_scrambled_causal"":""4"",""num_scrambled_schematic"":""4"",""participantId"":""10943C1C735143E88F4DA058CFE03C3F"",""assignmentId"":""db302a4d-b4e7-43b8-b4a0-280bff6dc36e"",""projectId"":""ba640c14-69c5-453e-80b2-29051492c0e0""}","https://test12345.live/?num_scrambled_semantic=8&num_scrambled_causal=4&num_scrambled_schematic=4&participantId=10943C1C735143E88F4DA058CFE03C3F&assignmentId=db302a4d-b4e7-43b8-b4a0-280bff6dc36e&projectId=ba640c14-69c5-453e-80b2-29051492c0e0","10943C1C735143E88F4DA058CFE03C3F-2025-05-14-22-09-24","","null","","[]","null","",""
"","","","","","image-button-response","43","182782","0.0-10.0-1.0-0.5","10943C1C735143E88F4DA058CFE03C3F","10943C1C735143E88F4DA058CFE03C3F","db302a4d-b4e7-43b8-b4a0-280bff6dc36e","ba640c14-69c5-453e-80b2-29051492c0e0","{""num_scrambled_semantic"":""8"",""num_scrambled_causal"":""4"",""num_scrambled_schematic"":""4"",""participantId"":""10943C1C735143E88F4DA058CFE03C3F"",""assignmentId"":""db302a4d-b4e7-43b8-b4a0-280bff6dc36e"",""projectId"":""ba640c14-69c5-453e-80b2-29051492c0e0""}","https://test12345.live/?num_scrambled_semantic=8&num_scrambled_causal=4&num_scrambled_schematic=4&participantId=10943C1C735143E88F4DA058CFE03C3F&assignmentId=db302a4d-b4e7-43b8-b4a0-280bff6dc36e&projectId=ba640c14-69c5-453e-80b2-29051492c0e0","10943C1C735143E88F4DA058CFE03C3F-2025-05-14-22-09-24","","null","","images/schematic_sequence/interview_scheme/interview_scheme_6.png","null","",""
"","","","","","image-button-response","44","183725","0.0-10.0-1.0-1.5","10943C1C735143E88F4DA058CFE03C3F","10943C1C735143E88F4DA058CFE03C3F","db302a4d-b4e7-43b8-b4a0-280bff6dc36e","ba640c14-69c5-453e-80b2-29051492c0e0","{""num_scrambled_semantic"":""8"",""num_scrambled_causal"":""4"",""num_scrambled_schematic"":""4"",""participantId"":""10943C1C735143E88F4DA058CFE03C3F"",""assignmentId"":""db302a4d-b4e7-43b8-b4a0-280bff6dc36e"",""projectId"":""ba640c14-69c5-453e-80b2-29051492c0e0""}","https://test12345.live/?num_scrambled_semantic=8&num_scrambled_causal=4&num_scrambled_schematic=4&participantId=10943C1C735143E88F4DA058CFE03C3F&assignmentId=db302a4d-b4e7-43b8-b4a0-280bff6dc36e&projectId=ba640c14-69c5-453e-80b2-29051492c0e0","10943C1C735143E88F4DA058CFE03C3F-2025-05-14-22-09-24","","942","","images/schematic_sequence/interview_scheme/interview_scheme_6.png","0","",""
"","","","","","image-button-response","45","185530","0.0-10.0-1.0-2.5","10943C1C735143E88F4DA058CFE03C3F","10943C1C735143E88F4DA058CFE03C3F","db302a4d-b4e7-43b8-b4a0-280bff6dc36e","ba640c14-69c5-453e-80b2-29051492c0e0","{""num_scrambled_semantic"":""8"",""num_scrambled_causal"":""4"",""num_scrambled_schematic"":""4"",""participantId"":""10943C1C735143E88F4DA058CFE03C3F"",""assignmentId"":""db302a4d-b4e7-43b8-b4a0-280bff6dc36e"",""projectId"":""ba640c14-69c5-453e-80b2-29051492c0e0""}","https://test12345.live/?num_scrambled_semantic=8&num_scrambled_causal=4&num_scrambled_schematic=4&participantId=10943C1C735143E88F4DA058CFE03C3F&assignmentId=db302a4d-b4e7-43b8-b4a0-280bff6dc36e&projectId=ba640c14-69c5-453e-80b2-29051492c0e0","10943C1C735143E88F4DA058CFE03C3F-2025-05-14-22-09-24","","null","","[]","null","",""
"","","","","","image-button-response","46","190032","0.0-10.0-1.0-0.6","10943C1C735143E88F4DA058CFE03C3F","10943C1C735143E88F4DA058CFE03C3F","db302a4d-b4e7-43b8-b4a0-280bff6dc36e","ba640c14-69c5-453e-80b2-29051492c0e0","{""num_scrambled_semantic"":""8"",""num_scrambled_causal"":""4"",""num_scrambled_schematic"":""4"",""participantId"":""10943C1C735143E88F4DA058CFE03C3F"",""assignmentId"":""db302a4d-b4e7-43b8-b4a0-280bff6dc36e"",""projectId"":""ba640c14-69c5-453e-80b2-29051492c0e0""}","https://test12345.live/?num_scrambled_semantic=8&num_scrambled_causal=4&num_scrambled_schematic=4&participantId=10943C1C735143E88F4DA058CFE03C3F&assignmentId=db302a4d-b4e7-43b8-b4a0-280bff6dc36e&projectId=ba640c14-69c5-453e-80b2-29051492c0e0","10943C1C735143E88F4DA058CFE03C3F-2025-05-14-22-09-24","","null","","images/schematic_sequence/interview_scheme/interview_scheme_7.png","null","",""
"","","","","","image-button-response","47","191376","0.0-10.0-1.0-1.6","10943C1C735143E88F4DA058CFE03C3F","10943C1C735143E88F4DA058CFE03C3F","db302a4d-b4e7-43b8-b4a0-280bff6dc36e","ba640c14-69c5-453e-80b2-29051492c0e0","{""num_scrambled_semantic"":""8"",""num_scrambled_causal"":""4"",""num_scrambled_schematic"":""4"",""participantId"":""10943C1C735143E88F4DA058CFE03C3F"",""assignmentId"":""db302a4d-b4e7-43b8-b4a0-280bff6dc36e"",""projectId"":""ba640c14-69c5-453e-80b2-29051492c0e0""}","https://test12345.live/?num_scrambled_semantic=8&num_scrambled_causal=4&num_scrambled_schematic=4&participantId=10943C1C735143E88F4DA058CFE03C3F&assignmentId=db302a4d-b4e7-43b8-b4a0-280bff6dc36e&projectId=ba640c14-69c5-453e-80b2-29051492c0e0","10943C1C735143E88F4DA058CFE03C3F-2025-05-14-22-09-24","","1342","","images/schematic_sequence/interview_scheme/interview_scheme_7.png","0","",""
"","","","","","image-button-response","48","193180","0.0-10.0-1.0-2.6","10943C1C735143E88F4DA058CFE03C3F","10943C1C735143E88F4DA058CFE03C3F","db302a4d-b4e7-43b8-b4a0-280bff6dc36e","ba640c14-69c5-453e-80b2-29051492c0e0","{""num_scrambled_semantic"":""8"",""num_scrambled_causal"":""4"",""num_scrambled_schematic"":""4"",""participantId"":""10943C1C735143E88F4DA058CFE03C3F"",""assignmentId"":""db302a4d-b4e7-43b8-b4a0-280bff6dc36e"",""projectId"":""ba640c14-69c5-453e-80b2-29051492c0e0""}","https://test12345.live/?num_scrambled_semantic=8&num_scrambled_causal=4&num_scrambled_schematic=4&participantId=10943C1C735143E88F4DA058CFE03C3F&assignmentId=db302a4d-b4e7-43b8-b4a0-280bff6dc36e&projectId=ba640c14-69c5-453e-80b2-29051492c0e0","10943C1C735143E88F4DA058CFE03C3F-2025-05-14-22-09-24","","null","","[]","null","",""
"","","","","","image-button-response","49","197683","0.0-10.0-1.0-0.7","10943C1C735143E88F4DA058CFE03C3F","10943C1C735143E88F4DA058CFE03C3F","db302a4d-b4e7-43b8-b4a0-280bff6dc36e","ba640c14-69c5-453e-80b2-29051492c0e0","{""num_scrambled_semantic"":""8"",""num_scrambled_causal"":""4"",""num_scrambled_schematic"":""4"",""participantId"":""10943C1C735143E88F4DA058CFE03C3F"",""assignmentId"":""db302a4d-b4e7-43b8-b4a0-280bff6dc36e"",""projectId"":""ba640c14-69c5-453e-80b2-29051492c0e0""}","https://test12345.live/?num_scrambled_semantic=8&num_scrambled_causal=4&num_scrambled_schematic=4&participantId=10943C1C735143E88F4DA058CFE03C3F&assignmentId=db302a4d-b4e7-43b8-b4a0-280bff6dc36e&projectId=ba640c14-69c5-453e-80b2-29051492c0e0","10943C1C735143E88F4DA058CFE03C3F-2025-05-14-22-09-24","","null","","images/schematic_sequence/interview_scheme/interview_scheme_8.png","null","",""
"","","","","","image-button-response","50","198474","0.0-10.0-1.0-1.7","10943C1C735143E88F4DA058CFE03C3F","10943C1C735143E88F4DA058CFE03C3F","db302a4d-b4e7-43b8-b4a0-280bff6dc36e","ba640c14-69c5-453e-80b2-29051492c0e0","{""num_scrambled_semantic"":""8"",""num_scrambled_causal"":""4"",""num_scrambled_schematic"":""4"",""participantId"":""10943C1C735143E88F4DA058CFE03C3F"",""assignmentId"":""db302a4d-b4e7-43b8-b4a0-280bff6dc36e"",""projectId"":""ba640c14-69c5-453e-80b2-29051492c0e0""}","https://test12345.live/?num_scrambled_semantic=8&num_scrambled_causal=4&num_scrambled_schematic=4&participantId=10943C1C735143E88F4DA058CFE03C3F&assignmentId=db302a4d-b4e7-43b8-b4a0-280bff6dc36e&projectId=ba640c14-69c5-453e-80b2-29051492c0e0","10943C1C735143E88F4DA058CFE03C3F-2025-05-14-22-09-24","","789","","images/schematic_sequence/interview_scheme/interview_scheme_8.png","0","",""
"","","","","","image-button-response","51","200281","0.0-10.0-1.0-2.7","10943C1C735143E88F4DA058CFE03C3F","10943C1C735143E88F4DA058CFE03C3F","db302a4d-b4e7-43b8-b4a0-280bff6dc36e","ba640c14-69c5-453e-80b2-29051492c0e0","{""num_scrambled_semantic"":""8"",""num_scrambled_causal"":""4"",""num_scrambled_schematic"":""4"",""participantId"":""10943C1C735143E88F4DA058CFE03C3F"",""assignmentId"":""db302a4d-b4e7-43b8-b4a0-280bff6dc36e"",""projectId"":""ba640c14-69c5-453e-80b2-29051492c0e0""}","https://test12345.live/?num_scrambled_semantic=8&num_scrambled_causal=4&num_scrambled_schematic=4&participantId=10943C1C735143E88F4DA058CFE03C3F&assignmentId=db302a4d-b4e7-43b8-b4a0-280bff6dc36e&projectId=ba640c14-69c5-453e-80b2-29051492c0e0","10943C1C735143E88F4DA058CFE03C3F-2025-05-14-22-09-24","","null","","[]","null","",""
"","","","","","image-button-response","52","204785","0.0-10.0-1.0-0.8","10943C1C735143E88F4DA058CFE03C3F","10943C1C735143E88F4DA058CFE03C3F","db302a4d-b4e7-43b8-b4a0-280bff6dc36e","ba640c14-69c5-453e-80b2-29051492c0e0","{""num_scrambled_semantic"":""8"",""num_scrambled_causal"":""4"",""num_scrambled_schematic"":""4"",""participantId"":""10943C1C735143E88F4DA058CFE03C3F"",""assignmentId"":""db302a4d-b4e7-43b8-b4a0-280bff6dc36e"",""projectId"":""ba640c14-69c5-453e-80b2-29051492c0e0""}","https://test12345.live/?num_scrambled_semantic=8&num_scrambled_causal=4&num_scrambled_schematic=4&participantId=10943C1C735143E88F4DA058CFE03C3F&assignmentId=db302a4d-b4e7-43b8-b4a0-280bff6dc36e&projectId=ba640c14-69c5-453e-80b2-29051492c0e0","10943C1C735143E88F4DA058CFE03C3F-2025-05-14-22-09-24","","null","","images/schematic_sequence/interview_scheme/interview_scheme_9.png","null","",""
"","","","","","image-button-response","53","205611","0.0-10.0-1.0-1.8","10943C1C735143E88F4DA058CFE03C3F","10943C1C735143E88F4DA058CFE03C3F","db302a4d-b4e7-43b8-b4a0-280bff6dc36e","ba640c14-69c5-453e-80b2-29051492c0e0","{""num_scrambled_semantic"":""8"",""num_scrambled_causal"":""4"",""num_scrambled_schematic"":""4"",""participantId"":""10943C1C735143E88F4DA058CFE03C3F"",""assignmentId"":""db302a4d-b4e7-43b8-b4a0-280bff6dc36e"",""projectId"":""ba640c14-69c5-453e-80b2-29051492c0e0""}","https://test12345.live/?num_scrambled_semantic=8&num_scrambled_causal=4&num_scrambled_schematic=4&participantId=10943C1C735143E88F4DA058CFE03C3F&assignmentId=db302a4d-b4e7-43b8-b4a0-280bff6dc36e&projectId=ba640c14-69c5-453e-80b2-29051492c0e0","10943C1C735143E88F4DA058CFE03C3F-2025-05-14-22-09-24","","825","","images/schematic_sequence/interview_scheme/interview_scheme_9.png","0","",""
"","","","","","image-button-response","54","207413","0.0-10.0-1.0-2.8","10943C1C735143E88F4DA058CFE03C3F","10943C1C735143E88F4DA058CFE03C3F","db302a4d-b4e7-43b8-b4a0-280bff6dc36e","ba640c14-69c5-453e-80b2-29051492c0e0","{""num_scrambled_semantic"":""8"",""num_scrambled_causal"":""4"",""num_scrambled_schematic"":""4"",""participantId"":""10943C1C735143E88F4DA058CFE03C3F"",""assignmentId"":""db302a4d-b4e7-43b8-b4a0-280bff6dc36e"",""projectId"":""ba640c14-69c5-453e-80b2-29051492c0e0""}","https://test12345.live/?num_scrambled_semantic=8&num_scrambled_causal=4&num_scrambled_schematic=4&participantId=10943C1C735143E88F4DA058CFE03C3F&assignmentId=db302a4d-b4e7-43b8-b4a0-280bff6dc36e&projectId=ba640c14-69c5-453e-80b2-29051492c0e0","10943C1C735143E88F4DA058CFE03C3F-2025-05-14-22-09-24","","null","","[]","null","",""
"","","","","","image-button-response","55","211916","0.0-10.0-1.0-0.9","10943C1C735143E88F4DA058CFE03C3F","10943C1C735143E88F4DA058CFE03C3F","db302a4d-b4e7-43b8-b4a0-280bff6dc36e","ba640c14-69c5-453e-80b2-29051492c0e0","{""num_scrambled_semantic"":""8"",""num_scrambled_causal"":""4"",""num_scrambled_schematic"":""4"",""participantId"":""10943C1C735143E88F4DA058CFE03C3F"",""assignmentId"":""db302a4d-b4e7-43b8-b4a0-280bff6dc36e"",""projectId"":""ba640c14-69c5-453e-80b2-29051492c0e0""}","https://test12345.live/?num_scrambled_semantic=8&num_scrambled_causal=4&num_scrambled_schematic=4&participantId=10943C1C735143E88F4DA058CFE03C3F&assignmentId=db302a4d-b4e7-43b8-b4a0-280bff6dc36e&projectId=ba640c14-69c5-453e-80b2-29051492c0e0","10943C1C735143E88F4DA058CFE03C3F-2025-05-14-22-09-24","","null","","images/schematic_sequence/interview_scheme/interview_scheme_ten.png","null","",""
"","","","","","image-button-response","56","213011","0.0-10.0-1.0-1.9","10943C1C735143E88F4DA058CFE03C3F","10943C1C735143E88F4DA058CFE03C3F","db302a4d-b4e7-43b8-b4a0-280bff6dc36e","ba640c14-69c5-453e-80b2-29051492c0e0","{""num_scrambled_semantic"":""8"",""num_scrambled_causal"":""4"",""num_scrambled_schematic"":""4"",""participantId"":""10943C1C735143E88F4DA058CFE03C3F"",""assignmentId"":""db302a4d-b4e7-43b8-b4a0-280bff6dc36e"",""projectId"":""ba640c14-69c5-453e-80b2-29051492c0e0""}","https://test12345.live/?num_scrambled_semantic=8&num_scrambled_causal=4&num_scrambled_schematic=4&participantId=10943C1C735143E88F4DA058CFE03C3F&assignmentId=db302a4d-b4e7-43b8-b4a0-280bff6dc36e&projectId=ba640c14-69c5-453e-80b2-29051492c0e0","10943C1C735143E88F4DA058CFE03C3F-2025-05-14-22-09-24","","1094","","images/schematic_sequence/interview_scheme/interview_scheme_ten.png","0","",""
"","","","","","image-button-response","57","214819","0.0-10.0-1.0-2.9","10943C1C735143E88F4DA058CFE03C3F","10943C1C735143E88F4DA058CFE03C3F","db302a4d-b4e7-43b8-b4a0-280bff6dc36e","ba640c14-69c5-453e-80b2-29051492c0e0","{""num_scrambled_semantic"":""8"",""num_scrambled_causal"":""4"",""num_scrambled_schematic"":""4"",""participantId"":""10943C1C735143E88F4DA058CFE03C3F"",""assignmentId"":""db302a4d-b4e7-43b8-b4a0-280bff6dc36e"",""projectId"":""ba640c14-69c5-453e-80b2-29051492c0e0""}","https://test12345.live/?num_scrambled_semantic=8&num_scrambled_causal=4&num_scrambled_schematic=4&participantId=10943C1C735143E88F4DA058CFE03C3F&assignmentId=db302a4d-b4e7-43b8-b4a0-280bff6dc36e&projectId=ba640c14-69c5-453e-80b2-29051492c0e0","10943C1C735143E88F4DA058CFE03C3F-2025-05-14-22-09-24","","null","","[]","null","",""
"","","","","","html-audio-response","58","246566","0.0-11.0","10943C1C735143E88F4DA058CFE03C3F","10943C1C735143E88F4DA058CFE03C3F","db302a4d-b4e7-43b8-b4a0-280bff6dc36e","ba640c14-69c5-453e-80b2-29051492c0e0","{""num_scrambled_semantic"":""8"",""num_scrambled_causal"":""4"",""num_scrambled_schematic"":""4"",""participantId"":""10943C1C735143E88F4DA058CFE03C3F"",""assignmentId"":""db302a4d-b4e7-43b8-b4a0-280bff6dc36e"",""projectId"":""ba640c14-69c5-453e-80b2-29051492c0e0""}","https://test12345.live/?num_scrambled_semantic=8&num_scrambled_causal=4&num_scrambled_schematic=4&participantId=10943C1C735143E88F4DA058CFE03C3F&assignmentId=db302a4d-b4e7-43b8-b4a0-280bff6dc36e&projectId=ba640c14-69c5-453e-80b2-29051492c0e0","10943C1C735143E88F4DA058CFE03C3F-2025-05-14-22-09-24","","29717","","[""<span style=\""color: red; font-size: 24px\""> NOW RECORDING</span><p>Please say out loud all the images you saw, as many as you can remember. The images can be said in any order.</p>""]","","20","interview_scheme"
"","","","","","image-button-response","59","252582","0.0-12.0-0.0","10943C1C735143E88F4DA058CFE03C3F","10943C1C735143E88F4DA058CFE03C3F","db302a4d-b4e7-43b8-b4a0-280bff6dc36e","ba640c14-69c5-453e-80b2-29051492c0e0","{""num_scrambled_semantic"":""8"",""num_scrambled_causal"":""4"",""num_scrambled_schematic"":""4"",""participantId"":""10943C1C735143E88F4DA058CFE03C3F"",""assignmentId"":""db302a4d-b4e7-43b8-b4a0-280bff6dc36e"",""projectId"":""ba640c14-69c5-453e-80b2-29051492c0e0""}","https://test12345.live/?num_scrambled_semantic=8&num_scrambled_causal=4&num_scrambled_schematic=4&participantId=10943C1C735143E88F4DA058CFE03C3F&assignmentId=db302a4d-b4e7-43b8-b4a0-280bff6dc36e&projectId=ba640c14-69c5-453e-80b2-29051492c0e0","10943C1C735143E88F4DA058CFE03C3F-2025-05-14-22-09-24","","null","","images/semantic_sequence/redecorating_semantic/redecorating_semantic_0.png","null","",""
"","","","","","image-button-response","60","257084","0.0-12.0-1.0-0.0","10943C1C735143E88F4DA058CFE03C3F","10943C1C735143E88F4DA058CFE03C3F","db302a4d-b4e7-43b8-b4a0-280bff6dc36e","ba640c14-69c5-453e-80b2-29051492c0e0","{""num_scrambled_semantic"":""8"",""num_scrambled_causal"":""4"",""num_scrambled_schematic"":""4"",""participantId"":""10943C1C735143E88F4DA058CFE03C3F"",""assignmentId"":""db302a4d-b4e7-43b8-b4a0-280bff6dc36e"",""projectId"":""ba640c14-69c5-453e-80b2-29051492c0e0""}","https://test12345.live/?num_scrambled_semantic=8&num_scrambled_causal=4&num_scrambled_schematic=4&participantId=10943C1C735143E88F4DA058CFE03C3F&assignmentId=db302a4d-b4e7-43b8-b4a0-280bff6dc36e&projectId=ba640c14-69c5-453e-80b2-29051492c0e0","10943C1C735143E88F4DA058CFE03C3F-2025-05-14-22-09-24","","null","","images/semantic_sequence/redecorating_semantic/redecorating_semantic_7.png","null","",""
"","","","","","image-button-response","61","258953","0.0-12.0-1.0-1.0","10943C1C735143E88F4DA058CFE03C3F","10943C1C735143E88F4DA058CFE03C3F","db302a4d-b4e7-43b8-b4a0-280bff6dc36e","ba640c14-69c5-453e-80b2-29051492c0e0","{""num_scrambled_semantic"":""8"",""num_scrambled_causal"":""4"",""num_scrambled_schematic"":""4"",""participantId"":""10943C1C735143E88F4DA058CFE03C3F"",""assignmentId"":""db302a4d-b4e7-43b8-b4a0-280bff6dc36e"",""projectId"":""ba640c14-69c5-453e-80b2-29051492c0e0""}","https://test12345.live/?num_scrambled_semantic=8&num_scrambled_causal=4&num_scrambled_schematic=4&participantId=10943C1C735143E88F4DA058CFE03C3F&assignmentId=db302a4d-b4e7-43b8-b4a0-280bff6dc36e&projectId=ba640c14-69c5-453e-80b2-29051492c0e0","10943C1C735143E88F4DA058CFE03C3F-2025-05-14-22-09-24","","1866","","images/semantic_sequence/redecorating_semantic/redecorating_semantic_7.png","0","",""
"","","","","","image-button-response","62","260756","0.0-12.0-1.0-2.0","10943C1C735143E88F4DA058CFE03C3F","10943C1C735143E88F4DA058CFE03C3F","db302a4d-b4e7-43b8-b4a0-280bff6dc36e","ba640c14-69c5-453e-80b2-29051492c0e0","{""num_scrambled_semantic"":""8"",""num_scrambled_causal"":""4"",""num_scrambled_schematic"":""4"",""participantId"":""10943C1C735143E88F4DA058CFE03C3F"",""assignmentId"":""db302a4d-b4e7-43b8-b4a0-280bff6dc36e"",""projectId"":""ba640c14-69c5-453e-80b2-29051492c0e0""}","https://test12345.live/?num_scrambled_semantic=8&num_scrambled_causal=4&num_scrambled_schematic=4&participantId=10943C1C735143E88F4DA058CFE03C3F&assignmentId=db302a4d-b4e7-43b8-b4a0-280bff6dc36e&projectId=ba640c14-69c5-453e-80b2-29051492c0e0","10943C1C735143E88F4DA058CFE03C3F-2025-05-14-22-09-24","","null","","[]","null","",""
"","","","","","image-button-response","63","265259","0.0-12.0-1.0-0.1","10943C1C735143E88F4DA058CFE03C3F","10943C1C735143E88F4DA058CFE03C3F","db302a4d-b4e7-43b8-b4a0-280bff6dc36e","ba640c14-69c5-453e-80b2-29051492c0e0","{""num_scrambled_semantic"":""8"",""num_scrambled_causal"":""4"",""num_scrambled_schematic"":""4"",""participantId"":""10943C1C735143E88F4DA058CFE03C3F"",""assignmentId"":""db302a4d-b4e7-43b8-b4a0-280bff6dc36e"",""projectId"":""ba640c14-69c5-453e-80b2-29051492c0e0""}","https://test12345.live/?num_scrambled_semantic=8&num_scrambled_causal=4&num_scrambled_schematic=4&participantId=10943C1C735143E88F4DA058CFE03C3F&assignmentId=db302a4d-b4e7-43b8-b4a0-280bff6dc36e&projectId=ba640c14-69c5-453e-80b2-29051492c0e0","10943C1C735143E88F4DA058CFE03C3F-2025-05-14-22-09-24","","null","","images/semantic_sequence/redecorating_semantic/redecorating_semantic_2.png","null","",""
"","","","","","image-button-response","64","267020","0.0-12.0-1.0-1.1","10943C1C735143E88F4DA058CFE03C3F","10943C1C735143E88F4DA058CFE03C3F","db302a4d-b4e7-43b8-b4a0-280bff6dc36e","ba640c14-69c5-453e-80b2-29051492c0e0","{""num_scrambled_semantic"":""8"",""num_scrambled_causal"":""4"",""num_scrambled_schematic"":""4"",""participantId"":""10943C1C735143E88F4DA058CFE03C3F"",""assignmentId"":""db302a4d-b4e7-43b8-b4a0-280bff6dc36e"",""projectId"":""ba640c14-69c5-453e-80b2-29051492c0e0""}","https://test12345.live/?num_scrambled_semantic=8&num_scrambled_causal=4&num_scrambled_schematic=4&participantId=10943C1C735143E88F4DA058CFE03C3F&assignmentId=db302a4d-b4e7-43b8-b4a0-280bff6dc36e&projectId=ba640c14-69c5-453e-80b2-29051492c0e0","10943C1C735143E88F4DA058CFE03C3F-2025-05-14-22-09-24","","1759","","images/semantic_sequence/redecorating_semantic/redecorating_semantic_2.png","0","",""
"","","","","","image-button-response","65","268824","0.0-12.0-1.0-2.1","10943C1C735143E88F4DA058CFE03C3F","10943C1C735143E88F4DA058CFE03C3F","db302a4d-b4e7-43b8-b4a0-280bff6dc36e","ba640c14-69c5-453e-80b2-29051492c0e0","{""num_scrambled_semantic"":""8"",""num_scrambled_causal"":""4"",""num_scrambled_schematic"":""4"",""participantId"":""10943C1C735143E88F4DA058CFE03C3F"",""assignmentId"":""db302a4d-b4e7-43b8-b4a0-280bff6dc36e"",""projectId"":""ba640c14-69c5-453e-80b2-29051492c0e0""}","https://test12345.live/?num_scrambled_semantic=8&num_scrambled_causal=4&num_scrambled_schematic=4&participantId=10943C1C735143E88F4DA058CFE03C3F&assignmentId=db302a4d-b4e7-43b8-b4a0-280bff6dc36e&projectId=ba640c14-69c5-453e-80b2-29051492c0e0","10943C1C735143E88F4DA058CFE03C3F-2025-05-14-22-09-24","","null","","[]","null","",""
"","","","","","image-button-response","66","273329","0.0-12.0-1.0-0.2","10943C1C735143E88F4DA058CFE03C3F","10943C1C735143E88F4DA058CFE03C3F","db302a4d-b4e7-43b8-b4a0-280bff6dc36e","ba640c14-69c5-453e-80b2-29051492c0e0","{""num_scrambled_semantic"":""8"",""num_scrambled_causal"":""4"",""num_scrambled_schematic"":""4"",""participantId"":""10943C1C735143E88F4DA058CFE03C3F"",""assignmentId"":""db302a4d-b4e7-43b8-b4a0-280bff6dc36e"",""projectId"":""ba640c14-69c5-453e-80b2-29051492c0e0""}","https://test12345.live/?num_scrambled_semantic=8&num_scrambled_causal=4&num_scrambled_schematic=4&participantId=10943C1C735143E88F4DA058CFE03C3F&assignmentId=db302a4d-b4e7-43b8-b4a0-280bff6dc36e&projectId=ba640c14-69c5-453e-80b2-29051492c0e0","10943C1C735143E88F4DA058CFE03C3F-2025-05-14-22-09-24","","null","","images/semantic_sequence/redecorating_semantic/redecorating_semantic_9.png","null","",""
"","","","","","image-button-response","67","275072","0.0-12.0-1.0-1.2","10943C1C735143E88F4DA058CFE03C3F","10943C1C735143E88F4DA058CFE03C3F","db302a4d-b4e7-43b8-b4a0-280bff6dc36e","ba640c14-69c5-453e-80b2-29051492c0e0","{""num_scrambled_semantic"":""8"",""num_scrambled_causal"":""4"",""num_scrambled_schematic"":""4"",""participantId"":""10943C1C735143E88F4DA058CFE03C3F"",""assignmentId"":""db302a4d-b4e7-43b8-b4a0-280bff6dc36e"",""projectId"":""ba640c14-69c5-453e-80b2-29051492c0e0""}","https://test12345.live/?num_scrambled_semantic=8&num_scrambled_causal=4&num_scrambled_schematic=4&participantId=10943C1C735143E88F4DA058CFE03C3F&assignmentId=db302a4d-b4e7-43b8-b4a0-280bff6dc36e&projectId=ba640c14-69c5-453e-80b2-29051492c0e0","10943C1C735143E88F4DA058CFE03C3F-2025-05-14-22-09-24","","1741","","images/semantic_sequence/redecorating_semantic/redecorating_semantic_9.png","0","",""
"","","","","","image-button-response","68","276876","0.0-12.0-1.0-2.2","10943C1C735143E88F4DA058CFE03C3F","10943C1C735143E88F4DA058CFE03C3F","db302a4d-b4e7-43b8-b4a0-280bff6dc36e","ba640c14-69c5-453e-80b2-29051492c0e0","{""num_scrambled_semantic"":""8"",""num_scrambled_causal"":""4"",""num_scrambled_schematic"":""4"",""participantId"":""10943C1C735143E88F4DA058CFE03C3F"",""assignmentId"":""db302a4d-b4e7-43b8-b4a0-280bff6dc36e"",""projectId"":""ba640c14-69c5-453e-80b2-29051492c0e0""}","https://test12345.live/?num_scrambled_semantic=8&num_scrambled_causal=4&num_scrambled_schematic=4&participantId=10943C1C735143E88F4DA058CFE03C3F&assignmentId=db302a4d-b4e7-43b8-b4a0-280bff6dc36e&projectId=ba640c14-69c5-453e-80b2-29051492c0e0","10943C1C735143E88F4DA058CFE03C3F-2025-05-14-22-09-24","","null","","[]","null","",""
"","","","","","image-button-response","69","281382","0.0-12.0-1.0-0.3","10943C1C735143E88F4DA058CFE03C3F","10943C1C735143E88F4DA058CFE03C3F","db302a4d-b4e7-43b8-b4a0-280bff6dc36e","ba640c14-69c5-453e-80b2-29051492c0e0","{""num_scrambled_semantic"":""8"",""num_scrambled_causal"":""4"",""num_scrambled_schematic"":""4"",""participantId"":""10943C1C735143E88F4DA058CFE03C3F"",""assignmentId"":""db302a4d-b4e7-43b8-b4a0-280bff6dc36e"",""projectId"":""ba640c14-69c5-453e-80b2-29051492c0e0""}","https://test12345.live/?num_scrambled_semantic=8&num_scrambled_causal=4&num_scrambled_schematic=4&participantId=10943C1C735143E88F4DA058CFE03C3F&assignmentId=db302a4d-b4e7-43b8-b4a0-280bff6dc36e&projectId=ba640c14-69c5-453e-80b2-29051492c0e0","10943C1C735143E88F4DA058CFE03C3F-2025-05-14-22-09-24","","null","","images/semantic_sequence/redecorating_semantic/redecorating_semantic_5.png","null","",""
"","","","","","image-button-response","70","281989","0.0-12.0-1.0-1.3","10943C1C735143E88F4DA058CFE03C3F","10943C1C735143E88F4DA058CFE03C3F","db302a4d-b4e7-43b8-b4a0-280bff6dc36e","ba640c14-69c5-453e-80b2-29051492c0e0","{""num_scrambled_semantic"":""8"",""num_scrambled_causal"":""4"",""num_scrambled_schematic"":""4"",""participantId"":""10943C1C735143E88F4DA058CFE03C3F"",""assignmentId"":""db302a4d-b4e7-43b8-b4a0-280bff6dc36e"",""projectId"":""ba640c14-69c5-453e-80b2-29051492c0e0""}","https://test12345.live/?num_scrambled_semantic=8&num_scrambled_causal=4&num_scrambled_schematic=4&participantId=10943C1C735143E88F4DA058CFE03C3F&assignmentId=db302a4d-b4e7-43b8-b4a0-280bff6dc36e&projectId=ba640c14-69c5-453e-80b2-29051492c0e0","10943C1C735143E88F4DA058CFE03C3F-2025-05-14-22-09-24","","605","","images/semantic_sequence/redecorating_semantic/redecorating_semantic_5.png","0","",""
"","","","","","image-button-response","71","283795","0.0-12.0-1.0-2.3","10943C1C735143E88F4DA058CFE03C3F","10943C1C735143E88F4DA058CFE03C3F","db302a4d-b4e7-43b8-b4a0-280bff6dc36e","ba640c14-69c5-453e-80b2-29051492c0e0","{""num_scrambled_semantic"":""8"",""num_scrambled_causal"":""4"",""num_scrambled_schematic"":""4"",""participantId"":""10943C1C735143E88F4DA058CFE03C3F"",""assignmentId"":""db302a4d-b4e7-43b8-b4a0-280bff6dc36e"",""projectId"":""ba640c14-69c5-453e-80b2-29051492c0e0""}","https://test12345.live/?num_scrambled_semantic=8&num_scrambled_causal=4&num_scrambled_schematic=4&participantId=10943C1C735143E88F4DA058CFE03C3F&assignmentId=db302a4d-b4e7-43b8-b4a0-280bff6dc36e&projectId=ba640c14-69c5-453e-80b2-29051492c0e0","10943C1C735143E88F4DA058CFE03C3F-2025-05-14-22-09-24","","null","","[]","null","",""
"","","","","","image-button-response","72","288301","0.0-12.0-1.0-0.4","10943C1C735143E88F4DA058CFE03C3F","10943C1C735143E88F4DA058CFE03C3F","db302a4d-b4e7-43b8-b4a0-280bff6dc36e","ba640c14-69c5-453e-80b2-29051492c0e0","{""num_scrambled_semantic"":""8"",""num_scrambled_causal"":""4"",""num_scrambled_schematic"":""4"",""participantId"":""10943C1C735143E88F4DA058CFE03C3F"",""assignmentId"":""db302a4d-b4e7-43b8-b4a0-280bff6dc36e"",""projectId"":""ba640c14-69c5-453e-80b2-29051492c0e0""}","https://test12345.live/?num_scrambled_semantic=8&num_scrambled_causal=4&num_scrambled_schematic=4&participantId=10943C1C735143E88F4DA058CFE03C3F&assignmentId=db302a4d-b4e7-43b8-b4a0-280bff6dc36e&projectId=ba640c14-69c5-453e-80b2-29051492c0e0","10943C1C735143E88F4DA058CFE03C3F-2025-05-14-22-09-24","","null","","images/semantic_sequence/redecorating_semantic/redecorating_semantic_4.png","null","",""
"","","","","","image-button-response","73","289472","0.0-12.0-1.0-1.4","10943C1C735143E88F4DA058CFE03C3F","10943C1C735143E88F4DA058CFE03C3F","db302a4d-b4e7-43b8-b4a0-280bff6dc36e","ba640c14-69c5-453e-80b2-29051492c0e0","{""num_scrambled_semantic"":""8"",""num_scrambled_causal"":""4"",""num_scrambled_schematic"":""4"",""participantId"":""10943C1C735143E88F4DA058CFE03C3F"",""assignmentId"":""db302a4d-b4e7-43b8-b4a0-280bff6dc36e"",""projectId"":""ba640c14-69c5-453e-80b2-29051492c0e0""}","https://test12345.live/?num_scrambled_semantic=8&num_scrambled_causal=4&num_scrambled_schematic=4&participantId=10943C1C735143E88F4DA058CFE03C3F&assignmentId=db302a4d-b4e7-43b8-b4a0-280bff6dc36e&projectId=ba640c14-69c5-453e-80b2-29051492c0e0","10943C1C735143E88F4DA058CFE03C3F-2025-05-14-22-09-24","","1169","","images/semantic_sequence/redecorating_semantic/redecorating_semantic_4.png","0","",""
"","","","","","image-button-response","74","291279","0.0-12.0-1.0-2.4","10943C1C735143E88F4DA058CFE03C3F","10943C1C735143E88F4DA058CFE03C3F","db302a4d-b4e7-43b8-b4a0-280bff6dc36e","ba640c14-69c5-453e-80b2-29051492c0e0","{""num_scrambled_semantic"":""8"",""num_scrambled_causal"":""4"",""num_scrambled_schematic"":""4"",""participantId"":""10943C1C735143E88F4DA058CFE03C3F"",""assignmentId"":""db302a4d-b4e7-43b8-b4a0-280bff6dc36e"",""projectId"":""ba640c14-69c5-453e-80b2-29051492c0e0""}","https://test12345.live/?num_scrambled_semantic=8&num_scrambled_causal=4&num_scrambled_schematic=4&participantId=10943C1C735143E88F4DA058CFE03C3F&assignmentId=db302a4d-b4e7-43b8-b4a0-280bff6dc36e&projectId=ba640c14-69c5-453e-80b2-29051492c0e0","10943C1C735143E88F4DA058CFE03C3F-2025-05-14-22-09-24","","null","","[]","null","",""
"","","","","","image-button-response","75","295783","0.0-12.0-1.0-0.5","10943C1C735143E88F4DA058CFE03C3F","10943C1C735143E88F4DA058CFE03C3F","db302a4d-b4e7-43b8-b4a0-280bff6dc36e","ba640c14-69c5-453e-80b2-29051492c0e0","{""num_scrambled_semantic"":""8"",""num_scrambled_causal"":""4"",""num_scrambled_schematic"":""4"",""participantId"":""10943C1C735143E88F4DA058CFE03C3F"",""assignmentId"":""db302a4d-b4e7-43b8-b4a0-280bff6dc36e"",""projectId"":""ba640c14-69c5-453e-80b2-29051492c0e0""}","https://test12345.live/?num_scrambled_semantic=8&num_scrambled_causal=4&num_scrambled_schematic=4&participantId=10943C1C735143E88F4DA058CFE03C3F&assignmentId=db302a4d-b4e7-43b8-b4a0-280bff6dc36e&projectId=ba640c14-69c5-453e-80b2-29051492c0e0","10943C1C735143E88F4DA058CFE03C3F-2025-05-14-22-09-24","","null","","images/semantic_sequence/redecorating_semantic/redecorating_semantic_3.png","null","",""
"","","","","","image-button-response","76","297108","0.0-12.0-1.0-1.5","10943C1C735143E88F4DA058CFE03C3F","10943C1C735143E88F4DA058CFE03C3F","db302a4d-b4e7-43b8-b4a0-280bff6dc36e","ba640c14-69c5-453e-80b2-29051492c0e0","{""num_scrambled_semantic"":""8"",""num_scrambled_causal"":""4"",""num_scrambled_schematic"":""4"",""participantId"":""10943C1C735143E88F4DA058CFE03C3F"",""assignmentId"":""db302a4d-b4e7-43b8-b4a0-280bff6dc36e"",""projectId"":""ba640c14-69c5-453e-80b2-29051492c0e0""}","https://test12345.live/?num_scrambled_semantic=8&num_scrambled_causal=4&num_scrambled_schematic=4&participantId=10943C1C735143E88F4DA058CFE03C3F&assignmentId=db302a4d-b4e7-43b8-b4a0-280bff6dc36e&projectId=ba640c14-69c5-453e-80b2-29051492c0e0","10943C1C735143E88F4DA058CFE03C3F-2025-05-14-22-09-24","","1324","","images/semantic_sequence/redecorating_semantic/redecorating_semantic_3.png","0","",""
"","","","","","image-button-response","77","298913","0.0-12.0-1.0-2.5","10943C1C735143E88F4DA058CFE03C3F","10943C1C735143E88F4DA058CFE03C3F","db302a4d-b4e7-43b8-b4a0-280bff6dc36e","ba640c14-69c5-453e-80b2-29051492c0e0","{""num_scrambled_semantic"":""8"",""num_scrambled_causal"":""4"",""num_scrambled_schematic"":""4"",""participantId"":""10943C1C735143E88F4DA058CFE03C3F"",""assignmentId"":""db302a4d-b4e7-43b8-b4a0-280bff6dc36e"",""projectId"":""ba640c14-69c5-453e-80b2-29051492c0e0""}","https://test12345.live/?num_scrambled_semantic=8&num_scrambled_causal=4&num_scrambled_schematic=4&participantId=10943C1C735143E88F4DA058CFE03C3F&assignmentId=db302a4d-b4e7-43b8-b4a0-280bff6dc36e&projectId=ba640c14-69c5-453e-80b2-29051492c0e0","10943C1C735143E88F4DA058CFE03C3F-2025-05-14-22-09-24","","null","","[]","null","",""
"","","","","","image-button-response","78","303418","0.0-12.0-1.0-0.6","10943C1C735143E88F4DA058CFE03C3F","10943C1C735143E88F4DA058CFE03C3F","db302a4d-b4e7-43b8-b4a0-280bff6dc36e","ba640c14-69c5-453e-80b2-29051492c0e0","{""num_scrambled_semantic"":""8"",""num_scrambled_causal"":""4"",""num_scrambled_schematic"":""4"",""participantId"":""10943C1C735143E88F4DA058CFE03C3F"",""assignmentId"":""db302a4d-b4e7-43b8-b4a0-280bff6dc36e"",""projectId"":""ba640c14-69c5-453e-80b2-29051492c0e0""}","https://test12345.live/?num_scrambled_semantic=8&num_scrambled_causal=4&num_scrambled_schematic=4&participantId=10943C1C735143E88F4DA058CFE03C3F&assignmentId=db302a4d-b4e7-43b8-b4a0-280bff6dc36e&projectId=ba640c14-69c5-453e-80b2-29051492c0e0","10943C1C735143E88F4DA058CFE03C3F-2025-05-14-22-09-24","","null","","images/semantic_sequence/redecorating_semantic/redecorating_semantic_8.png","null","",""
"","","","","","image-button-response","79","304741","0.0-12.0-1.0-1.6","10943C1C735143E88F4DA058CFE03C3F","10943C1C735143E88F4DA058CFE03C3F","db302a4d-b4e7-43b8-b4a0-280bff6dc36e","ba640c14-69c5-453e-80b2-29051492c0e0","{""num_scrambled_semantic"":""8"",""num_scrambled_causal"":""4"",""num_scrambled_schematic"":""4"",""participantId"":""10943C1C735143E88F4DA058CFE03C3F"",""assignmentId"":""db302a4d-b4e7-43b8-b4a0-280bff6dc36e"",""projectId"":""ba640c14-69c5-453e-80b2-29051492c0e0""}","https://test12345.live/?num_scrambled_semantic=8&num_scrambled_causal=4&num_scrambled_schematic=4&participantId=10943C1C735143E88F4DA058CFE03C3F&assignmentId=db302a4d-b4e7-43b8-b4a0-280bff6dc36e&projectId=ba640c14-69c5-453e-80b2-29051492c0e0","10943C1C735143E88F4DA058CFE03C3F-2025-05-14-22-09-24","","1322","","images/semantic_sequence/redecorating_semantic/redecorating_semantic_8.png","0","",""
"","","","","","image-button-response","80","306547","0.0-12.0-1.0-2.6","10943C1C735143E88F4DA058CFE03C3F","10943C1C735143E88F4DA058CFE03C3F","db302a4d-b4e7-43b8-b4a0-280bff6dc36e","ba640c14-69c5-453e-80b2-29051492c0e0","{""num_scrambled_semantic"":""8"",""num_scrambled_causal"":""4"",""num_scrambled_schematic"":""4"",""participantId"":""10943C1C735143E88F4DA058CFE03C3F"",""assignmentId"":""db302a4d-b4e7-43b8-b4a0-280bff6dc36e"",""projectId"":""ba640c14-69c5-453e-80b2-29051492c0e0""}","https://test12345.live/?num_scrambled_semantic=8&num_scrambled_causal=4&num_scrambled_schematic=4&participantId=10943C1C735143E88F4DA058CFE03C3F&assignmentId=db302a4d-b4e7-43b8-b4a0-280bff6dc36e&projectId=ba640c14-69c5-453e-80b2-29051492c0e0","10943C1C735143E88F4DA058CFE03C3F-2025-05-14-22-09-24","","null","","[]","null","",""
"","","","","","image-button-response","81","311052","0.0-12.0-1.0-0.7","10943C1C735143E88F4DA058CFE03C3F","10943C1C735143E88F4DA058CFE03C3F","db302a4d-b4e7-43b8-b4a0-280bff6dc36e","ba640c14-69c5-453e-80b2-29051492c0e0","{""num_scrambled_semantic"":""8"",""num_scrambled_causal"":""4"",""num_scrambled_schematic"":""4"",""participantId"":""10943C1C735143E88F4DA058CFE03C3F"",""assignmentId"":""db302a4d-b4e7-43b8-b4a0-280bff6dc36e"",""projectId"":""ba640c14-69c5-453e-80b2-29051492c0e0""}","https://test12345.live/?num_scrambled_semantic=8&num_scrambled_causal=4&num_scrambled_schematic=4&participantId=10943C1C735143E88F4DA058CFE03C3F&assignmentId=db302a4d-b4e7-43b8-b4a0-280bff6dc36e&projectId=ba640c14-69c5-453e-80b2-29051492c0e0","10943C1C735143E88F4DA058CFE03C3F-2025-05-14-22-09-24","","null","","images/semantic_sequence/redecorating_semantic/redecorating_semantic_ten.png","null","",""
"","","","","","image-button-response","82","312909","0.0-12.0-1.0-1.7","10943C1C735143E88F4DA058CFE03C3F","10943C1C735143E88F4DA058CFE03C3F","db302a4d-b4e7-43b8-b4a0-280bff6dc36e","ba640c14-69c5-453e-80b2-29051492c0e0","{""num_scrambled_semantic"":""8"",""num_scrambled_causal"":""4"",""num_scrambled_schematic"":""4"",""participantId"":""10943C1C735143E88F4DA058CFE03C3F"",""assignmentId"":""db302a4d-b4e7-43b8-b4a0-280bff6dc36e"",""projectId"":""ba640c14-69c5-453e-80b2-29051492c0e0""}","https://test12345.live/?num_scrambled_semantic=8&num_scrambled_causal=4&num_scrambled_schematic=4&participantId=10943C1C735143E88F4DA058CFE03C3F&assignmentId=db302a4d-b4e7-43b8-b4a0-280bff6dc36e&projectId=ba640c14-69c5-453e-80b2-29051492c0e0","10943C1C735143E88F4DA058CFE03C3F-2025-05-14-22-09-24","","1856","","images/semantic_sequence/redecorating_semantic/redecorating_semantic_ten.png","0","",""
"","","","","","image-button-response","83","314711","0.0-12.0-1.0-2.7","10943C1C735143E88F4DA058CFE03C3F","10943C1C735143E88F4DA058CFE03C3F","db302a4d-b4e7-43b8-b4a0-280bff6dc36e","ba640c14-69c5-453e-80b2-29051492c0e0","{""num_scrambled_semantic"":""8"",""num_scrambled_causal"":""4"",""num_scrambled_schematic"":""4"",""participantId"":""10943C1C735143E88F4DA058CFE03C3F"",""assignmentId"":""db302a4d-b4e7-43b8-b4a0-280bff6dc36e"",""projectId"":""ba640c14-69c5-453e-80b2-29051492c0e0""}","https://test12345.live/?num_scrambled_semantic=8&num_scrambled_causal=4&num_scrambled_schematic=4&participantId=10943C1C735143E88F4DA058CFE03C3F&assignmentId=db302a4d-b4e7-43b8-b4a0-280bff6dc36e&projectId=ba640c14-69c5-453e-80b2-29051492c0e0","10943C1C735143E88F4DA058CFE03C3F-2025-05-14-22-09-24","","null","","[]","null","",""
"","","","","","image-button-response","84","319218","0.0-12.0-1.0-0.8","10943C1C735143E88F4DA058CFE03C3F","10943C1C735143E88F4DA058CFE03C3F","db302a4d-b4e7-43b8-b4a0-280bff6dc36e","ba640c14-69c5-453e-80b2-29051492c0e0","{""num_scrambled_semantic"":""8"",""num_scrambled_causal"":""4"",""num_scrambled_schematic"":""4"",""participantId"":""10943C1C735143E88F4DA058CFE03C3F"",""assignmentId"":""db302a4d-b4e7-43b8-b4a0-280bff6dc36e"",""projectId"":""ba640c14-69c5-453e-80b2-29051492c0e0""}","https://test12345.live/?num_scrambled_semantic=8&num_scrambled_causal=4&num_scrambled_schematic=4&participantId=10943C1C735143E88F4DA058CFE03C3F&assignmentId=db302a4d-b4e7-43b8-b4a0-280bff6dc36e&projectId=ba640c14-69c5-453e-80b2-29051492c0e0","10943C1C735143E88F4DA058CFE03C3F-2025-05-14-22-09-24","","null","","images/semantic_sequence/redecorating_semantic/redecorating_semantic_1.png","null","",""
"","","","","","image-button-response","85","320926","0.0-12.0-1.0-1.8","10943C1C735143E88F4DA058CFE03C3F","10943C1C735143E88F4DA058CFE03C3F","db302a4d-b4e7-43b8-b4a0-280bff6dc36e","ba640c14-69c5-453e-80b2-29051492c0e0","{""num_scrambled_semantic"":""8"",""num_scrambled_causal"":""4"",""num_scrambled_schematic"":""4"",""participantId"":""10943C1C735143E88F4DA058CFE03C3F"",""assignmentId"":""db302a4d-b4e7-43b8-b4a0-280bff6dc36e"",""projectId"":""ba640c14-69c5-453e-80b2-29051492c0e0""}","https://test12345.live/?num_scrambled_semantic=8&num_scrambled_causal=4&num_scrambled_schematic=4&participantId=10943C1C735143E88F4DA058CFE03C3F&assignmentId=db302a4d-b4e7-43b8-b4a0-280bff6dc36e&projectId=ba640c14-69c5-453e-80b2-29051492c0e0","10943C1C735143E88F4DA058CFE03C3F-2025-05-14-22-09-24","","1706","","images/semantic_sequence/redecorating_semantic/redecorating_semantic_1.png","0","",""
"","","","","","image-button-response","86","322731","0.0-12.0-1.0-2.8","10943C1C735143E88F4DA058CFE03C3F","10943C1C735143E88F4DA058CFE03C3F","db302a4d-b4e7-43b8-b4a0-280bff6dc36e","ba640c14-69c5-453e-80b2-29051492c0e0","{""num_scrambled_semantic"":""8"",""num_scrambled_causal"":""4"",""num_scrambled_schematic"":""4"",""participantId"":""10943C1C735143E88F4DA058CFE03C3F"",""assignmentId"":""db302a4d-b4e7-43b8-b4a0-280bff6dc36e"",""projectId"":""ba640c14-69c5-453e-80b2-29051492c0e0""}","https://test12345.live/?num_scrambled_semantic=8&num_scrambled_causal=4&num_scrambled_schematic=4&participantId=10943C1C735143E88F4DA058CFE03C3F&assignmentId=db302a4d-b4e7-43b8-b4a0-280bff6dc36e&projectId=ba640c14-69c5-453e-80b2-29051492c0e0","10943C1C735143E88F4DA058CFE03C3F-2025-05-14-22-09-24","","null","","[]","null","",""
"","","","","","image-button-response","87","327238","0.0-12.0-1.0-0.9","10943C1C735143E88F4DA058CFE03C3F","10943C1C735143E88F4DA058CFE03C3F","db302a4d-b4e7-43b8-b4a0-280bff6dc36e","ba640c14-69c5-453e-80b2-29051492c0e0","{""num_scrambled_semantic"":""8"",""num_scrambled_causal"":""4"",""num_scrambled_schematic"":""4"",""participantId"":""10943C1C735143E88F4DA058CFE03C3F"",""assignmentId"":""db302a4d-b4e7-43b8-b4a0-280bff6dc36e"",""projectId"":""ba640c14-69c5-453e-80b2-29051492c0e0""}","https://test12345.live/?num_scrambled_semantic=8&num_scrambled_causal=4&num_scrambled_schematic=4&participantId=10943C1C735143E88F4DA058CFE03C3F&assignmentId=db302a4d-b4e7-43b8-b4a0-280bff6dc36e&projectId=ba640c14-69c5-453e-80b2-29051492c0e0","10943C1C735143E88F4DA058CFE03C3F-2025-05-14-22-09-24","","null","","images/semantic_sequence/redecorating_semantic/redecorating_semantic_6.png","null","",""
"","","","","","image-button-response","88","327943","0.0-12.0-1.0-1.9","10943C1C735143E88F4DA058CFE03C3F","10943C1C735143E88F4DA058CFE03C3F","db302a4d-b4e7-43b8-b4a0-280bff6dc36e","ba640c14-69c5-453e-80b2-29051492c0e0","{""num_scrambled_semantic"":""8"",""num_scrambled_causal"":""4"",""num_scrambled_schematic"":""4"",""participantId"":""10943C1C735143E88F4DA058CFE03C3F"",""assignmentId"":""db302a4d-b4e7-43b8-b4a0-280bff6dc36e"",""projectId"":""ba640c14-69c5-453e-80b2-29051492c0e0""}","https://test12345.live/?num_scrambled_semantic=8&num_scrambled_causal=4&num_scrambled_schematic=4&participantId=10943C1C735143E88F4DA058CFE03C3F&assignmentId=db302a4d-b4e7-43b8-b4a0-280bff6dc36e&projectId=ba640c14-69c5-453e-80b2-29051492c0e0","10943C1C735143E88F4DA058CFE03C3F-2025-05-14-22-09-24","","704","","images/semantic_sequence/redecorating_semantic/redecorating_semantic_6.png","0","",""
"","","","","","image-button-response","89","329746","0.0-12.0-1.0-2.9","10943C1C735143E88F4DA058CFE03C3F","10943C1C735143E88F4DA058CFE03C3F","db302a4d-b4e7-43b8-b4a0-280bff6dc36e","ba640c14-69c5-453e-80b2-29051492c0e0","{""num_scrambled_semantic"":""8"",""num_scrambled_causal"":""4"",""num_scrambled_schematic"":""4"",""participantId"":""10943C1C735143E88F4DA058CFE03C3F"",""assignmentId"":""db302a4d-b4e7-43b8-b4a0-280bff6dc36e"",""projectId"":""ba640c14-69c5-453e-80b2-29051492c0e0""}","https://test12345.live/?num_scrambled_semantic=8&num_scrambled_causal=4&num_scrambled_schematic=4&participantId=10943C1C735143E88F4DA058CFE03C3F&assignmentId=db302a4d-b4e7-43b8-b4a0-280bff6dc36e&projectId=ba640c14-69c5-453e-80b2-29051492c0e0","10943C1C735143E88F4DA058CFE03C3F-2025-05-14-22-09-24","","null","","[]","null","",""
"","","","","","html-audio-response","90","353712","0.0-13.0","10943C1C735143E88F4DA058CFE03C3F","10943C1C735143E88F4DA058CFE03C3F","db302a4d-b4e7-43b8-b4a0-280bff6dc36e","ba640c14-69c5-453e-80b2-29051492c0e0","{""num_scrambled_semantic"":""8"",""num_scrambled_causal"":""4"",""num_scrambled_schematic"":""4"",""participantId"":""10943C1C735143E88F4DA058CFE03C3F"",""assignmentId"":""db302a4d-b4e7-43b8-b4a0-280bff6dc36e"",""projectId"":""ba640c14-69c5-453e-80b2-29051492c0e0""}","https://test12345.live/?num_scrambled_semantic=8&num_scrambled_causal=4&num_scrambled_schematic=4&participantId=10943C1C735143E88F4DA058CFE03C3F&assignmentId=db302a4d-b4e7-43b8-b4a0-280bff6dc36e&projectId=ba640c14-69c5-453e-80b2-29051492c0e0","10943C1C735143E88F4DA058CFE03C3F-2025-05-14-22-09-24","","22305","","[""<span style=\""color: red; font-size: 24px\""> NOW RECORDING</span><p>Please say out loud all the images you saw, as many as you can remember. The images can be said in any order.</p>""]","","7","redecorating_semantic"
"","","","","","image-button-response","91","359722","0.0-14.0-0.0","10943C1C735143E88F4DA058CFE03C3F","10943C1C735143E88F4DA058CFE03C3F","db302a4d-b4e7-43b8-b4a0-280bff6dc36e","ba640c14-69c5-453e-80b2-29051492c0e0","{""num_scrambled_semantic"":""8"",""num_scrambled_causal"":""4"",""num_scrambled_schematic"":""4"",""participantId"":""10943C1C735143E88F4DA058CFE03C3F"",""assignmentId"":""db302a4d-b4e7-43b8-b4a0-280bff6dc36e"",""projectId"":""ba640c14-69c5-453e-80b2-29051492c0e0""}","https://test12345.live/?num_scrambled_semantic=8&num_scrambled_causal=4&num_scrambled_schematic=4&participantId=10943C1C735143E88F4DA058CFE03C3F&assignmentId=db302a4d-b4e7-43b8-b4a0-280bff6dc36e&projectId=ba640c14-69c5-453e-80b2-29051492c0e0","10943C1C735143E88F4DA058CFE03C3F-2025-05-14-22-09-24","","null","","images/semantic_sequence/cat_care_semantic/cat_care_semantic_0.png","null","",""
"","","","","","image-button-response","92","364229","0.0-14.0-1.0-0.0","10943C1C735143E88F4DA058CFE03C3F","10943C1C735143E88F4DA058CFE03C3F","db302a4d-b4e7-43b8-b4a0-280bff6dc36e","ba640c14-69c5-453e-80b2-29051492c0e0","{""num_scrambled_semantic"":""8"",""num_scrambled_causal"":""4"",""num_scrambled_schematic"":""4"",""participantId"":""10943C1C735143E88F4DA058CFE03C3F"",""assignmentId"":""db302a4d-b4e7-43b8-b4a0-280bff6dc36e"",""projectId"":""ba640c14-69c5-453e-80b2-29051492c0e0""}","https://test12345.live/?num_scrambled_semantic=8&num_scrambled_causal=4&num_scrambled_schematic=4&participantId=10943C1C735143E88F4DA058CFE03C3F&assignmentId=db302a4d-b4e7-43b8-b4a0-280bff6dc36e&projectId=ba640c14-69c5-453e-80b2-29051492c0e0","10943C1C735143E88F4DA058CFE03C3F-2025-05-14-22-09-24","","null","","images/semantic_sequence/cat_care_semantic/cat_care_semantic_9.png","null","",""
"","","","","","image-button-response","93","367464","0.0-14.0-1.0-1.0","10943C1C735143E88F4DA058CFE03C3F","10943C1C735143E88F4DA058CFE03C3F","db302a4d-b4e7-43b8-b4a0-280bff6dc36e","ba640c14-69c5-453e-80b2-29051492c0e0","{""num_scrambled_semantic"":""8"",""num_scrambled_causal"":""4"",""num_scrambled_schematic"":""4"",""participantId"":""10943C1C735143E88F4DA058CFE03C3F"",""assignmentId"":""db302a4d-b4e7-43b8-b4a0-280bff6dc36e"",""projectId"":""ba640c14-69c5-453e-80b2-29051492c0e0""}","https://test12345.live/?num_scrambled_semantic=8&num_scrambled_causal=4&num_scrambled_schematic=4&participantId=10943C1C735143E88F4DA058CFE03C3F&assignmentId=db302a4d-b4e7-43b8-b4a0-280bff6dc36e&projectId=ba640c14-69c5-453e-80b2-29051492c0e0","10943C1C735143E88F4DA058CFE03C3F-2025-05-14-22-09-24","","3233","","images/semantic_sequence/cat_care_semantic/cat_care_semantic_9.png","0","",""
"","","","","","image-button-response","94","369270","0.0-14.0-1.0-2.0","10943C1C735143E88F4DA058CFE03C3F","10943C1C735143E88F4DA058CFE03C3F","db302a4d-b4e7-43b8-b4a0-280bff6dc36e","ba640c14-69c5-453e-80b2-29051492c0e0","{""num_scrambled_semantic"":""8"",""num_scrambled_causal"":""4"",""num_scrambled_schematic"":""4"",""participantId"":""10943C1C735143E88F4DA058CFE03C3F"",""assignmentId"":""db302a4d-b4e7-43b8-b4a0-280bff6dc36e"",""projectId"":""ba640c14-69c5-453e-80b2-29051492c0e0""}","https://test12345.live/?num_scrambled_semantic=8&num_scrambled_causal=4&num_scrambled_schematic=4&participantId=10943C1C735143E88F4DA058CFE03C3F&assignmentId=db302a4d-b4e7-43b8-b4a0-280bff6dc36e&projectId=ba640c14-69c5-453e-80b2-29051492c0e0","10943C1C735143E88F4DA058CFE03C3F-2025-05-14-22-09-24","","null","","[]","null","",""
"","","","","","image-button-response","95","373775","0.0-14.0-1.0-0.1","10943C1C735143E88F4DA058CFE03C3F","10943C1C735143E88F4DA058CFE03C3F","db302a4d-b4e7-43b8-b4a0-280bff6dc36e","ba640c14-69c5-453e-80b2-29051492c0e0","{""num_scrambled_semantic"":""8"",""num_scrambled_causal"":""4"",""num_scrambled_schematic"":""4"",""participantId"":""10943C1C735143E88F4DA058CFE03C3F"",""assignmentId"":""db302a4d-b4e7-43b8-b4a0-280bff6dc36e"",""projectId"":""ba640c14-69c5-453e-80b2-29051492c0e0""}","https://test12345.live/?num_scrambled_semantic=8&num_scrambled_causal=4&num_scrambled_schematic=4&participantId=10943C1C735143E88F4DA058CFE03C3F&assignmentId=db302a4d-b4e7-43b8-b4a0-280bff6dc36e&projectId=ba640c14-69c5-453e-80b2-29051492c0e0","10943C1C735143E88F4DA058CFE03C3F-2025-05-14-22-09-24","","null","","images/semantic_sequence/cat_care_semantic/cat_care_semantic_1.png","null","",""
"","","","","","image-button-response","96","375612","0.0-14.0-1.0-1.1","10943C1C735143E88F4DA058CFE03C3F","10943C1C735143E88F4DA058CFE03C3F","db302a4d-b4e7-43b8-b4a0-280bff6dc36e","ba640c14-69c5-453e-80b2-29051492c0e0","{""num_scrambled_semantic"":""8"",""num_scrambled_causal"":""4"",""num_scrambled_schematic"":""4"",""participantId"":""10943C1C735143E88F4DA058CFE03C3F"",""assignmentId"":""db302a4d-b4e7-43b8-b4a0-280bff6dc36e"",""projectId"":""ba640c14-69c5-453e-80b2-29051492c0e0""}","https://test12345.live/?num_scrambled_semantic=8&num_scrambled_causal=4&num_scrambled_schematic=4&participantId=10943C1C735143E88F4DA058CFE03C3F&assignmentId=db302a4d-b4e7-43b8-b4a0-280bff6dc36e&projectId=ba640c14-69c5-453e-80b2-29051492c0e0","10943C1C735143E88F4DA058CFE03C3F-2025-05-14-22-09-24","","1834","","images/semantic_sequence/cat_care_semantic/cat_care_semantic_1.png","0","",""
"","","","","","image-button-response","97","377417","0.0-14.0-1.0-2.1","10943C1C735143E88F4DA058CFE03C3F","10943C1C735143E88F4DA058CFE03C3F","db302a4d-b4e7-43b8-b4a0-280bff6dc36e","ba640c14-69c5-453e-80b2-29051492c0e0","{""num_scrambled_semantic"":""8"",""num_scrambled_causal"":""4"",""num_scrambled_schematic"":""4"",""participantId"":""10943C1C735143E88F4DA058CFE03C3F"",""assignmentId"":""db302a4d-b4e7-43b8-b4a0-280bff6dc36e"",""projectId"":""ba640c14-69c5-453e-80b2-29051492c0e0""}","https://test12345.live/?num_scrambled_semantic=8&num_scrambled_causal=4&num_scrambled_schematic=4&participantId=10943C1C735143E88F4DA058CFE03C3F&assignmentId=db302a4d-b4e7-43b8-b4a0-280bff6dc36e&projectId=ba640c14-69c5-453e-80b2-29051492c0e0","10943C1C735143E88F4DA058CFE03C3F-2025-05-14-22-09-24","","null","","[]","null","",""
"","","","","","image-button-response","98","381923","0.0-14.0-1.0-0.2","10943C1C735143E88F4DA058CFE03C3F","10943C1C735143E88F4DA058CFE03C3F","db302a4d-b4e7-43b8-b4a0-280bff6dc36e","ba640c14-69c5-453e-80b2-29051492c0e0","{""num_scrambled_semantic"":""8"",""num_scrambled_causal"":""4"",""num_scrambled_schematic"":""4"",""participantId"":""10943C1C735143E88F4DA058CFE03C3F"",""assignmentId"":""db302a4d-b4e7-43b8-b4a0-280bff6dc36e"",""projectId"":""ba640c14-69c5-453e-80b2-29051492c0e0""}","https://test12345.live/?num_scrambled_semantic=8&num_scrambled_causal=4&num_scrambled_schematic=4&participantId=10943C1C735143E88F4DA058CFE03C3F&assignmentId=db302a4d-b4e7-43b8-b4a0-280bff6dc36e&projectId=ba640c14-69c5-453e-80b2-29051492c0e0","10943C1C735143E88F4DA058CFE03C3F-2025-05-14-22-09-24","","null","","images/semantic_sequence/cat_care_semantic/cat_care_semantic_8.png","null","",""
"","","","","","image-button-response","99","383595","0.0-14.0-1.0-1.2","10943C1C735143E88F4DA058CFE03C3F","10943C1C735143E88F4DA058CFE03C3F","db302a4d-b4e7-43b8-b4a0-280bff6dc36e","ba640c14-69c5-453e-80b2-29051492c0e0","{""num_scrambled_semantic"":""8"",""num_scrambled_causal"":""4"",""num_scrambled_schematic"":""4"",""participantId"":""10943C1C735143E88F4DA058CFE03C3F"",""assignmentId"":""db302a4d-b4e7-43b8-b4a0-280bff6dc36e"",""projectId"":""ba640c14-69c5-453e-80b2-29051492c0e0""}","https://test12345.live/?num_scrambled_semantic=8&num_scrambled_causal=4&num_scrambled_schematic=4&participantId=10943C1C735143E88F4DA058CFE03C3F&assignmentId=db302a4d-b4e7-43b8-b4a0-280bff6dc36e&projectId=ba640c14-69c5-453e-80b2-29051492c0e0","10943C1C735143E88F4DA058CFE03C3F-2025-05-14-22-09-24","","1670","","images/semantic_sequence/cat_care_semantic/cat_care_semantic_8.png","0","",""
"","","","","","image-button-response","100","385400","0.0-14.0-1.0-2.2","10943C1C735143E88F4DA058CFE03C3F","10943C1C735143E88F4DA058CFE03C3F","db302a4d-b4e7-43b8-b4a0-280bff6dc36e","ba640c14-69c5-453e-80b2-29051492c0e0","{""num_scrambled_semantic"":""8"",""num_scrambled_causal"":""4"",""num_scrambled_schematic"":""4"",""participantId"":""10943C1C735143E88F4DA058CFE03C3F"",""assignmentId"":""db302a4d-b4e7-43b8-b4a0-280bff6dc36e"",""projectId"":""ba640c14-69c5-453e-80b2-29051492c0e0""}","https://test12345.live/?num_scrambled_semantic=8&num_scrambled_causal=4&num_scrambled_schematic=4&participantId=10943C1C735143E88F4DA058CFE03C3F&assignmentId=db302a4d-b4e7-43b8-b4a0-280bff6dc36e&projectId=ba640c14-69c5-453e-80b2-29051492c0e0","10943C1C735143E88F4DA058CFE03C3F-2025-05-14-22-09-24","","null","","[]","null","",""
"","","","","","image-button-response","101","389903","0.0-14.0-1.0-0.3","10943C1C735143E88F4DA058CFE03C3F","10943C1C735143E88F4DA058CFE03C3F","db302a4d-b4e7-43b8-b4a0-280bff6dc36e","ba640c14-69c5-453e-80b2-29051492c0e0","{""num_scrambled_semantic"":""8"",""num_scrambled_causal"":""4"",""num_scrambled_schematic"":""4"",""participantId"":""10943C1C735143E88F4DA058CFE03C3F"",""assignmentId"":""db302a4d-b4e7-43b8-b4a0-280bff6dc36e"",""projectId"":""ba640c14-69c5-453e-80b2-29051492c0e0""}","https://test12345.live/?num_scrambled_semantic=8&num_scrambled_causal=4&num_scrambled_schematic=4&participantId=10943C1C735143E88F4DA058CFE03C3F&assignmentId=db302a4d-b4e7-43b8-b4a0-280bff6dc36e&projectId=ba640c14-69c5-453e-80b2-29051492c0e0","10943C1C735143E88F4DA058CFE03C3F-2025-05-14-22-09-24","","null","","images/semantic_sequence/cat_care_semantic/cat_care_semantic_2.png","null","",""
"","","","","","image-button-response","102","390830","0.0-14.0-1.0-1.3","10943C1C735143E88F4DA058CFE03C3F","10943C1C735143E88F4DA058CFE03C3F","db302a4d-b4e7-43b8-b4a0-280bff6dc36e","ba640c14-69c5-453e-80b2-29051492c0e0","{""num_scrambled_semantic"":""8"",""num_scrambled_causal"":""4"",""num_scrambled_schematic"":""4"",""participantId"":""10943C1C735143E88F4DA058CFE03C3F"",""assignmentId"":""db302a4d-b4e7-43b8-b4a0-280bff6dc36e"",""projectId"":""ba640c14-69c5-453e-80b2-29051492c0e0""}","https://test12345.live/?num_scrambled_semantic=8&num_scrambled_causal=4&num_scrambled_schematic=4&participantId=10943C1C735143E88F4DA058CFE03C3F&assignmentId=db302a4d-b4e7-43b8-b4a0-280bff6dc36e&projectId=ba640c14-69c5-453e-80b2-29051492c0e0","10943C1C735143E88F4DA058CFE03C3F-2025-05-14-22-09-24","","925","","images/semantic_sequence/cat_care_semantic/cat_care_semantic_2.png","0","",""
"","","","","","image-button-response","103","392633","0.0-14.0-1.0-2.3","10943C1C735143E88F4DA058CFE03C3F","10943C1C735143E88F4DA058CFE03C3F","db302a4d-b4e7-43b8-b4a0-280bff6dc36e","ba640c14-69c5-453e-80b2-29051492c0e0","{""num_scrambled_semantic"":""8"",""num_scrambled_causal"":""4"",""num_scrambled_schematic"":""4"",""participantId"":""10943C1C735143E88F4DA058CFE03C3F"",""assignmentId"":""db302a4d-b4e7-43b8-b4a0-280bff6dc36e"",""projectId"":""ba640c14-69c5-453e-80b2-29051492c0e0""}","https://test12345.live/?num_scrambled_semantic=8&num_scrambled_causal=4&num_scrambled_schematic=4&participantId=10943C1C735143E88F4DA058CFE03C3F&assignmentId=db302a4d-b4e7-43b8-b4a0-280bff6dc36e&projectId=ba640c14-69c5-453e-80b2-29051492c0e0","10943C1C735143E88F4DA058CFE03C3F-2025-05-14-22-09-24","","null","","[]","null","",""
"","","","","","image-button-response","104","397140","0.0-14.0-1.0-0.4","10943C1C735143E88F4DA058CFE03C3F","10943C1C735143E88F4DA058CFE03C3F","db302a4d-b4e7-43b8-b4a0-280bff6dc36e","ba640c14-69c5-453e-80b2-29051492c0e0","{""num_scrambled_semantic"":""8"",""num_scrambled_causal"":""4"",""num_scrambled_schematic"":""4"",""participantId"":""10943C1C735143E88F4DA058CFE03C3F"",""assignmentId"":""db302a4d-b4e7-43b8-b4a0-280bff6dc36e"",""projectId"":""ba640c14-69c5-453e-80b2-29051492c0e0""}","https://test12345.live/?num_scrambled_semantic=8&num_scrambled_causal=4&num_scrambled_schematic=4&participantId=10943C1C735143E88F4DA058CFE03C3F&assignmentId=db302a4d-b4e7-43b8-b4a0-280bff6dc36e&projectId=ba640c14-69c5-453e-80b2-29051492c0e0","10943C1C735143E88F4DA058CFE03C3F-2025-05-14-22-09-24","","null","","images/semantic_sequence/cat_care_semantic/cat_care_semantic_ten.png","null","",""
"","","","","","image-button-response","105","398163","0.0-14.0-1.0-1.4","10943C1C735143E88F4DA058CFE03C3F","10943C1C735143E88F4DA058CFE03C3F","db302a4d-b4e7-43b8-b4a0-280bff6dc36e","ba640c14-69c5-453e-80b2-29051492c0e0","{""num_scrambled_semantic"":""8"",""num_scrambled_causal"":""4"",""num_scrambled_schematic"":""4"",""participantId"":""10943C1C735143E88F4DA058CFE03C3F"",""assignmentId"":""db302a4d-b4e7-43b8-b4a0-280bff6dc36e"",""projectId"":""ba640c14-69c5-453e-80b2-29051492c0e0""}","https://test12345.live/?num_scrambled_semantic=8&num_scrambled_causal=4&num_scrambled_schematic=4&participantId=10943C1C735143E88F4DA058CFE03C3F&assignmentId=db302a4d-b4e7-43b8-b4a0-280bff6dc36e&projectId=ba640c14-69c5-453e-80b2-29051492c0e0","10943C1C735143E88F4DA058CFE03C3F-2025-05-14-22-09-24","","1022","","images/semantic_sequence/cat_care_semantic/cat_care_semantic_ten.png","1","",""
"","","","","","image-button-response","106","399970","0.0-14.0-1.0-2.4","10943C1C735143E88F4DA058CFE03C3F","10943C1C735143E88F4DA058CFE03C3F","db302a4d-b4e7-43b8-b4a0-280bff6dc36e","ba640c14-69c5-453e-80b2-29051492c0e0","{""num_scrambled_semantic"":""8"",""num_scrambled_causal"":""4"",""num_scrambled_schematic"":""4"",""participantId"":""10943C1C735143E88F4DA058CFE03C3F"",""assignmentId"":""db302a4d-b4e7-43b8-b4a0-280bff6dc36e"",""projectId"":""ba640c14-69c5-453e-80b2-29051492c0e0""}","https://test12345.live/?num_scrambled_semantic=8&num_scrambled_causal=4&num_scrambled_schematic=4&participantId=10943C1C735143E88F4DA058CFE03C3F&assignmentId=db302a4d-b4e7-43b8-b4a0-280bff6dc36e&projectId=ba640c14-69c5-453e-80b2-29051492c0e0","10943C1C735143E88F4DA058CFE03C3F-2025-05-14-22-09-24","","null","","[]","null","",""
"","","","","","image-button-response","107","404473","0.0-14.0-1.0-0.5","10943C1C735143E88F4DA058CFE03C3F","10943C1C735143E88F4DA058CFE03C3F","db302a4d-b4e7-43b8-b4a0-280bff6dc36e","ba640c14-69c5-453e-80b2-29051492c0e0","{""num_scrambled_semantic"":""8"",""num_scrambled_causal"":""4"",""num_scrambled_schematic"":""4"",""participantId"":""10943C1C735143E88F4DA058CFE03C3F"",""assignmentId"":""db302a4d-b4e7-43b8-b4a0-280bff6dc36e"",""projectId"":""ba640c14-69c5-453e-80b2-29051492c0e0""}","https://test12345.live/?num_scrambled_semantic=8&num_scrambled_causal=4&num_scrambled_schematic=4&participantId=10943C1C735143E88F4DA058CFE03C3F&assignmentId=db302a4d-b4e7-43b8-b4a0-280bff6dc36e&projectId=ba640c14-69c5-453e-80b2-29051492c0e0","10943C1C735143E88F4DA058CFE03C3F-2025-05-14-22-09-24","","null","","images/semantic_sequence/cat_care_semantic/cat_care_semantic_7.png","null","",""
"","","","","","image-button-response","108","406417","0.0-14.0-1.0-1.5","10943C1C735143E88F4DA058CFE03C3F","10943C1C735143E88F4DA058CFE03C3F","db302a4d-b4e7-43b8-b4a0-280bff6dc36e","ba640c14-69c5-453e-80b2-29051492c0e0","{""num_scrambled_semantic"":""8"",""num_scrambled_causal"":""4"",""num_scrambled_schematic"":""4"",""participantId"":""10943C1C735143E88F4DA058CFE03C3F"",""assignmentId"":""db302a4d-b4e7-43b8-b4a0-280bff6dc36e"",""projectId"":""ba640c14-69c5-453e-80b2-29051492c0e0""}","https://test12345.live/?num_scrambled_semantic=8&num_scrambled_causal=4&num_scrambled_schematic=4&participantId=10943C1C735143E88F4DA058CFE03C3F&assignmentId=db302a4d-b4e7-43b8-b4a0-280bff6dc36e&projectId=ba640c14-69c5-453e-80b2-29051492c0e0","10943C1C735143E88F4DA058CFE03C3F-2025-05-14-22-09-24","","1943","","images/semantic_sequence/cat_care_semantic/cat_care_semantic_7.png","0","",""
"","","","","","image-button-response","109","408220","0.0-14.0-1.0-2.5","10943C1C735143E88F4DA058CFE03C3F","10943C1C735143E88F4DA058CFE03C3F","db302a4d-b4e7-43b8-b4a0-280bff6dc36e","ba640c14-69c5-453e-80b2-29051492c0e0","{""num_scrambled_semantic"":""8"",""num_scrambled_causal"":""4"",""num_scrambled_schematic"":""4"",""participantId"":""10943C1C735143E88F4DA058CFE03C3F"",""assignmentId"":""db302a4d-b4e7-43b8-b4a0-280bff6dc36e"",""projectId"":""ba640c14-69c5-453e-80b2-29051492c0e0""}","https://test12345.live/?num_scrambled_semantic=8&num_scrambled_causal=4&num_scrambled_schematic=4&participantId=10943C1C735143E88F4DA058CFE03C3F&assignmentId=db302a4d-b4e7-43b8-b4a0-280bff6dc36e&projectId=ba640c14-69c5-453e-80b2-29051492c0e0","10943C1C735143E88F4DA058CFE03C3F-2025-05-14-22-09-24","","null","","[]","null","",""
"","","","","","image-button-response","110","412722","0.0-14.0-1.0-0.6","10943C1C735143E88F4DA058CFE03C3F","10943C1C735143E88F4DA058CFE03C3F","db302a4d-b4e7-43b8-b4a0-280bff6dc36e","ba640c14-69c5-453e-80b2-29051492c0e0","{""num_scrambled_semantic"":""8"",""num_scrambled_causal"":""4"",""num_scrambled_schematic"":""4"",""participantId"":""10943C1C735143E88F4DA058CFE03C3F"",""assignmentId"":""db302a4d-b4e7-43b8-b4a0-280bff6dc36e"",""projectId"":""ba640c14-69c5-453e-80b2-29051492c0e0""}","https://test12345.live/?num_scrambled_semantic=8&num_scrambled_causal=4&num_scrambled_schematic=4&participantId=10943C1C735143E88F4DA058CFE03C3F&assignmentId=db302a4d-b4e7-43b8-b4a0-280bff6dc36e&projectId=ba640c14-69c5-453e-80b2-29051492c0e0","10943C1C735143E88F4DA058CFE03C3F-2025-05-14-22-09-24","","null","","images/semantic_sequence/cat_care_semantic/cat_care_semantic_5.png","null","",""
"","","","","","image-button-response","111","414352","0.0-14.0-1.0-1.6","10943C1C735143E88F4DA058CFE03C3F","10943C1C735143E88F4DA058CFE03C3F","db302a4d-b4e7-43b8-b4a0-280bff6dc36e","ba640c14-69c5-453e-80b2-29051492c0e0","{""num_scrambled_semantic"":""8"",""num_scrambled_causal"":""4"",""num_scrambled_schematic"":""4"",""participantId"":""10943C1C735143E88F4DA058CFE03C3F"",""assignmentId"":""db302a4d-b4e7-43b8-b4a0-280bff6dc36e"",""projectId"":""ba640c14-69c5-453e-80b2-29051492c0e0""}","https://test12345.live/?num_scrambled_semantic=8&num_scrambled_causal=4&num_scrambled_schematic=4&participantId=10943C1C735143E88F4DA058CFE03C3F&assignmentId=db302a4d-b4e7-43b8-b4a0-280bff6dc36e&projectId=ba640c14-69c5-453e-80b2-29051492c0e0","10943C1C735143E88F4DA058CFE03C3F-2025-05-14-22-09-24","","1628","","images/semantic_sequence/cat_care_semantic/cat_care_semantic_5.png","0","",""
"","","","","","image-button-response","112","416159","0.0-14.0-1.0-2.6","10943C1C735143E88F4DA058CFE03C3F","10943C1C735143E88F4DA058CFE03C3F","db302a4d-b4e7-43b8-b4a0-280bff6dc36e","ba640c14-69c5-453e-80b2-29051492c0e0","{""num_scrambled_semantic"":""8"",""num_scrambled_causal"":""4"",""num_scrambled_schematic"":""4"",""participantId"":""10943C1C735143E88F4DA058CFE03C3F"",""assignmentId"":""db302a4d-b4e7-43b8-b4a0-280bff6dc36e"",""projectId"":""ba640c14-69c5-453e-80b2-29051492c0e0""}","https://test12345.live/?num_scrambled_semantic=8&num_scrambled_causal=4&num_scrambled_schematic=4&participantId=10943C1C735143E88F4DA058CFE03C3F&assignmentId=db302a4d-b4e7-43b8-b4a0-280bff6dc36e&projectId=ba640c14-69c5-453e-80b2-29051492c0e0","10943C1C735143E88F4DA058CFE03C3F-2025-05-14-22-09-24","","null","","[]","null","",""
"","","","","","image-button-response","113","420661","0.0-14.0-1.0-0.7","10943C1C735143E88F4DA058CFE03C3F","10943C1C735143E88F4DA058CFE03C3F","db302a4d-b4e7-43b8-b4a0-280bff6dc36e","ba640c14-69c5-453e-80b2-29051492c0e0","{""num_scrambled_semantic"":""8"",""num_scrambled_causal"":""4"",""num_scrambled_schematic"":""4"",""participantId"":""10943C1C735143E88F4DA058CFE03C3F"",""assignmentId"":""db302a4d-b4e7-43b8-b4a0-280bff6dc36e"",""projectId"":""ba640c14-69c5-453e-80b2-29051492c0e0""}","https://test12345.live/?num_scrambled_semantic=8&num_scrambled_causal=4&num_scrambled_schematic=4&participantId=10943C1C735143E88F4DA058CFE03C3F&assignmentId=db302a4d-b4e7-43b8-b4a0-280bff6dc36e&projectId=ba640c14-69c5-453e-80b2-29051492c0e0","10943C1C735143E88F4DA058CFE03C3F-2025-05-14-22-09-24","","null","","images/semantic_sequence/cat_care_semantic/cat_care_semantic_6.png","null","",""
"","","","","","image-button-response","114","421204","0.0-14.0-1.0-1.7","10943C1C735143E88F4DA058CFE03C3F","10943C1C735143E88F4DA058CFE03C3F","db302a4d-b4e7-43b8-b4a0-280bff6dc36e","ba640c14-69c5-453e-80b2-29051492c0e0","{""num_scrambled_semantic"":""8"",""num_scrambled_causal"":""4"",""num_scrambled_schematic"":""4"",""participantId"":""10943C1C735143E88F4DA058CFE03C3F"",""assignmentId"":""db302a4d-b4e7-43b8-b4a0-280bff6dc36e"",""projectId"":""ba640c14-69c5-453e-80b2-29051492c0e0""}","https://test12345.live/?num_scrambled_semantic=8&num_scrambled_causal=4&num_scrambled_schematic=4&participantId=10943C1C735143E88F4DA058CFE03C3F&assignmentId=db302a4d-b4e7-43b8-b4a0-280bff6dc36e&projectId=ba640c14-69c5-453e-80b2-29051492c0e0","10943C1C735143E88F4DA058CFE03C3F-2025-05-14-22-09-24","","541","","images/semantic_sequence/cat_care_semantic/cat_care_semantic_6.png","0","",""
