"success","timeout","failed_images","failed_audio","failed_video","trial_type","trial_index","time_elapsed","internal_node_id","subject","subject_id","study_id","session_id","urlvar","current_url","audio_id","view_history","rt","device_id","stimulus","response","estimated_stimulus_onset","seq_name"
"true","false","[]","[]","[]","preload","0","15257","0.0-0.0","12C3E477AE1A410B94E12E5D7384F794","12C3E477AE1A410B94E12E5D7384F794","33af5214-77af-456e-8968-bec55cd6dd43","9076ac92-be42-43a2-9634-8b67c7fe93a7","{""num_scrambled_semantic"":""8"",""num_scrambled_causal"":""4"",""num_scrambled_schematic"":""4"",""participantId"":""12C3E477AE1A410B94E12E5D7384F794"",""assignmentId"":""33af5214-77af-456e-8968-bec55cd6dd43"",""projectId"":""9076ac92-be42-43a2-9634-8b67c7fe93a7""}","https://test12345.live/?num_scrambled_semantic=8&num_scrambled_causal=4&num_scrambled_schematic=4&participantId=12C3E477AE1A410B94E12E5D7384F794&assignmentId=33af5214-77af-456e-8968-bec55cd6dd43&projectId=9076ac92-be42-43a2-9634-8b67c7fe93a7","12C3E477AE1A410B94E12E5D7384F794-2025-05-22-20-15-33","","","","","","",""
"","","","","","instructions","1","41536","0.0-1.0","12C3E477AE1A410B94E12E5D7384F794","12C3E477AE1A410B94E12E5D7384F794","33af5214-77af-456e-8968-bec55cd6dd43","9076ac92-be42-43a2-9634-8b67c7fe93a7","{""num_scrambled_semantic"":""8"",""num_scrambled_causal"":""4"",""num_scrambled_schematic"":""4"",""participantId"":""12C3E477AE1A410B94E12E5D7384F794"",""assignmentId"":""33af5214-77af-456e-8968-bec55cd6dd43"",""projectId"":""9076ac92-be42-43a2-9634-8b67c7fe93a7""}","https://test12345.live/?num_scrambled_semantic=8&num_scrambled_causal=4&num_scrambled_schematic=4&participantId=12C3E477AE1A410B94E12E5D7384F794&assignmentId=33af5214-77af-456e-8968-bec55cd6dd43&projectId=9076ac92-be42-43a2-9634-8b67c7fe93a7","12C3E477AE1A410B94E12E5D7384F794-2025-05-22-20-15-33","[{""page_index"":0,""viewing_time"":26277}]","26277","","","","",""
"","","","","","instructions","2","50880","0.0-2.0","12C3E477AE1A410B94E12E5D7384F794","12C3E477AE1A410B94E12E5D7384F794","33af5214-77af-456e-8968-bec55cd6dd43","9076ac92-be42-43a2-9634-8b67c7fe93a7","{""num_scrambled_semantic"":""8"",""num_scrambled_causal"":""4"",""num_scrambled_schematic"":""4"",""participantId"":""12C3E477AE1A410B94E12E5D7384F794"",""assignmentId"":""33af5214-77af-456e-8968-bec55cd6dd43"",""projectId"":""9076ac92-be42-43a2-9634-8b67c7fe93a7""}","https://test12345.live/?num_scrambled_semantic=8&num_scrambled_causal=4&num_scrambled_schematic=4&participantId=12C3E477AE1A410B94E12E5D7384F794&assignmentId=33af5214-77af-456e-8968-bec55cd6dd43&projectId=9076ac92-be42-43a2-9634-8b67c7fe93a7","12C3E477AE1A410B94E12E5D7384F794-2025-05-22-20-15-33","[{""page_index"":0,""viewing_time"":9343}]","9344","","","","",""
"true","","","","","fullscreen","3","54001","0.0-3.0","12C3E477AE1A410B94E12E5D7384F794","12C3E477AE1A410B94E12E5D7384F794","33af5214-77af-456e-8968-bec55cd6dd43","9076ac92-be42-43a2-9634-8b67c7fe93a7","{""num_scrambled_semantic"":""8"",""num_scrambled_causal"":""4"",""num_scrambled_schematic"":""4"",""participantId"":""12C3E477AE1A410B94E12E5D7384F794"",""assignmentId"":""33af5214-77af-456e-8968-bec55cd6dd43"",""projectId"":""9076ac92-be42-43a2-9634-8b67c7fe93a7""}","https://test12345.live/?num_scrambled_semantic=8&num_scrambled_causal=4&num_scrambled_schematic=4&participantId=12C3E477AE1A410B94E12E5D7384F794&assignmentId=33af5214-77af-456e-8968-bec55cd6dd43&projectId=9076ac92-be42-43a2-9634-8b67c7fe93a7","12C3E477AE1A410B94E12E5D7384F794-2025-05-22-20-15-33","","2115","","","","",""
"","","","","","initialize-microphone","4","69092","0.0-4.0-0.0","12C3E477AE1A410B94E12E5D7384F794","12C3E477AE1A410B94E12E5D7384F794","33af5214-77af-456e-8968-bec55cd6dd43","9076ac92-be42-43a2-9634-8b67c7fe93a7","{""num_scrambled_semantic"":""8"",""num_scrambled_causal"":""4"",""num_scrambled_schematic"":""4"",""participantId"":""12C3E477AE1A410B94E12E5D7384F794"",""assignmentId"":""33af5214-77af-456e-8968-bec55cd6dd43"",""projectId"":""9076ac92-be42-43a2-9634-8b67c7fe93a7""}","https://test12345.live/?num_scrambled_semantic=8&num_scrambled_causal=4&num_scrambled_schematic=4&participantId=12C3E477AE1A410B94E12E5D7384F794&assignmentId=33af5214-77af-456e-8968-bec55cd6dd43&projectId=9076ac92-be42-43a2-9634-8b67c7fe93a7","12C3E477AE1A410B94E12E5D7384F794-2025-05-22-20-15-33","","","508e33521c9477be2ad3d31c61986ee1ab94bf9245f2f56d997f24db3d4b7fdf","","","",""
"","","","","","html-audio-response","5","82702","0.0-4.0-1.0","12C3E477AE1A410B94E12E5D7384F794","12C3E477AE1A410B94E12E5D7384F794","33af5214-77af-456e-8968-bec55cd6dd43","9076ac92-be42-43a2-9634-8b67c7fe93a7","{""num_scrambled_semantic"":""8"",""num_scrambled_causal"":""4"",""num_scrambled_schematic"":""4"",""participantId"":""12C3E477AE1A410B94E12E5D7384F794"",""assignmentId"":""33af5214-77af-456e-8968-bec55cd6dd43"",""projectId"":""9076ac92-be42-43a2-9634-8b67c7fe93a7""}","https://test12345.live/?num_scrambled_semantic=8&num_scrambled_causal=4&num_scrambled_schematic=4&participantId=12C3E477AE1A410B94E12E5D7384F794&assignmentId=33af5214-77af-456e-8968-bec55cd6dd43&projectId=9076ac92-be42-43a2-9634-8b67c7fe93a7","12C3E477AE1A410B94E12E5D7384F794-2025-05-22-20-15-33","","1404","","<span style=""color: red; font-size: 24px""> NOW RECORDING</span>
        <p>Please test Microphone</p>","","3",""
"","","","","","html-button-response","6","85012","0.0-4.0-2.0","12C3E477AE1A410B94E12E5D7384F794","12C3E477AE1A410B94E12E5D7384F794","33af5214-77af-456e-8968-bec55cd6dd43","9076ac92-be42-43a2-9634-8b67c7fe93a7","{""num_scrambled_semantic"":""8"",""num_scrambled_causal"":""4"",""num_scrambled_schematic"":""4"",""participantId"":""12C3E477AE1A410B94E12E5D7384F794"",""assignmentId"":""33af5214-77af-456e-8968-bec55cd6dd43"",""projectId"":""9076ac92-be42-43a2-9634-8b67c7fe93a7""}","https://test12345.live/?num_scrambled_semantic=8&num_scrambled_causal=4&num_scrambled_schematic=4&participantId=12C3E477AE1A410B94E12E5D7384F794&assignmentId=33af5214-77af-456e-8968-bec55cd6dd43&projectId=9076ac92-be42-43a2-9634-8b67c7fe93a7","12C3E477AE1A410B94E12E5D7384F794-2025-05-22-20-15-33","","2306","","<p style=""font-size:48px; color:red;"">Is Microphone OK?</p>","0","",""
"","","","","","initialize-microphone","7","87341","0.0-4.1-0.1","12C3E477AE1A410B94E12E5D7384F794","12C3E477AE1A410B94E12E5D7384F794","33af5214-77af-456e-8968-bec55cd6dd43","9076ac92-be42-43a2-9634-8b67c7fe93a7","{""num_scrambled_semantic"":""8"",""num_scrambled_causal"":""4"",""num_scrambled_schematic"":""4"",""participantId"":""12C3E477AE1A410B94E12E5D7384F794"",""assignmentId"":""33af5214-77af-456e-8968-bec55cd6dd43"",""projectId"":""9076ac92-be42-43a2-9634-8b67c7fe93a7""}","https://test12345.live/?num_scrambled_semantic=8&num_scrambled_causal=4&num_scrambled_schematic=4&participantId=12C3E477AE1A410B94E12E5D7384F794&assignmentId=33af5214-77af-456e-8968-bec55cd6dd43&projectId=9076ac92-be42-43a2-9634-8b67c7fe93a7","12C3E477AE1A410B94E12E5D7384F794-2025-05-22-20-15-33","","","508e33521c9477be2ad3d31c61986ee1ab94bf9245f2f56d997f24db3d4b7fdf","","","",""
"","","","","","html-audio-response","8","104124","0.0-4.1-1.1","12C3E477AE1A410B94E12E5D7384F794","12C3E477AE1A410B94E12E5D7384F794","33af5214-77af-456e-8968-bec55cd6dd43","9076ac92-be42-43a2-9634-8b67c7fe93a7","{""num_scrambled_semantic"":""8"",""num_scrambled_causal"":""4"",""num_scrambled_schematic"":""4"",""participantId"":""12C3E477AE1A410B94E12E5D7384F794"",""assignmentId"":""33af5214-77af-456e-8968-bec55cd6dd43"",""projectId"":""9076ac92-be42-43a2-9634-8b67c7fe93a7""}","https://test12345.live/?num_scrambled_semantic=8&num_scrambled_causal=4&num_scrambled_schematic=4&participantId=12C3E477AE1A410B94E12E5D7384F794&assignmentId=33af5214-77af-456e-8968-bec55cd6dd43&projectId=9076ac92-be42-43a2-9634-8b67c7fe93a7","12C3E477AE1A410B94E12E5D7384F794-2025-05-22-20-15-33","","6199","","<span style=""color: red; font-size: 24px""> NOW RECORDING</span>
        <p>Please test Microphone</p>","","3",""
"","","","","","html-button-response","9","105367","0.0-4.1-2.1","12C3E477AE1A410B94E12E5D7384F794","12C3E477AE1A410B94E12E5D7384F794","33af5214-77af-456e-8968-bec55cd6dd43","9076ac92-be42-43a2-9634-8b67c7fe93a7","{""num_scrambled_semantic"":""8"",""num_scrambled_causal"":""4"",""num_scrambled_schematic"":""4"",""participantId"":""12C3E477AE1A410B94E12E5D7384F794"",""assignmentId"":""33af5214-77af-456e-8968-bec55cd6dd43"",""projectId"":""9076ac92-be42-43a2-9634-8b67c7fe93a7""}","https://test12345.live/?num_scrambled_semantic=8&num_scrambled_causal=4&num_scrambled_schematic=4&participantId=12C3E477AE1A410B94E12E5D7384F794&assignmentId=33af5214-77af-456e-8968-bec55cd6dd43&projectId=9076ac92-be42-43a2-9634-8b67c7fe93a7","12C3E477AE1A410B94E12E5D7384F794-2025-05-22-20-15-33","","1240","","<p style=""font-size:48px; color:red;"">Is Microphone OK?</p>","1","",""
"","","","","","instructions","10","112446","0.0-5.0","12C3E477AE1A410B94E12E5D7384F794","12C3E477AE1A410B94E12E5D7384F794","33af5214-77af-456e-8968-bec55cd6dd43","9076ac92-be42-43a2-9634-8b67c7fe93a7","{""num_scrambled_semantic"":""8"",""num_scrambled_causal"":""4"",""num_scrambled_schematic"":""4"",""participantId"":""12C3E477AE1A410B94E12E5D7384F794"",""assignmentId"":""33af5214-77af-456e-8968-bec55cd6dd43"",""projectId"":""9076ac92-be42-43a2-9634-8b67c7fe93a7""}","https://test12345.live/?num_scrambled_semantic=8&num_scrambled_causal=4&num_scrambled_schematic=4&participantId=12C3E477AE1A410B94E12E5D7384F794&assignmentId=33af5214-77af-456e-8968-bec55cd6dd43&projectId=9076ac92-be42-43a2-9634-8b67c7fe93a7","12C3E477AE1A410B94E12E5D7384F794-2025-05-22-20-15-33","[{""page_index"":0,""viewing_time"":2287},{""page_index"":1,""viewing_time"":4789}]","7077","","","","",""
"","","","","","image-button-response","11","118453","0.0-6.0-0.0","12C3E477AE1A410B94E12E5D7384F794","12C3E477AE1A410B94E12E5D7384F794","33af5214-77af-456e-8968-bec55cd6dd43","9076ac92-be42-43a2-9634-8b67c7fe93a7","{""num_scrambled_semantic"":""8"",""num_scrambled_causal"":""4"",""num_scrambled_schematic"":""4"",""participantId"":""12C3E477AE1A410B94E12E5D7384F794"",""assignmentId"":""33af5214-77af-456e-8968-bec55cd6dd43"",""projectId"":""9076ac92-be42-43a2-9634-8b67c7fe93a7""}","https://test12345.live/?num_scrambled_semantic=8&num_scrambled_causal=4&num_scrambled_schematic=4&participantId=12C3E477AE1A410B94E12E5D7384F794&assignmentId=33af5214-77af-456e-8968-bec55cd6dd43&projectId=9076ac92-be42-43a2-9634-8b67c7fe93a7","12C3E477AE1A410B94E12E5D7384F794-2025-05-22-20-15-33","","null","","images/instructions/movie_0.png","null","",""
"","","","","","image-button-response","12","122960","0.0-6.0-1.0-0.0","12C3E477AE1A410B94E12E5D7384F794","12C3E477AE1A410B94E12E5D7384F794","33af5214-77af-456e-8968-bec55cd6dd43","9076ac92-be42-43a2-9634-8b67c7fe93a7","{""num_scrambled_semantic"":""8"",""num_scrambled_causal"":""4"",""num_scrambled_schematic"":""4"",""participantId"":""12C3E477AE1A410B94E12E5D7384F794"",""assignmentId"":""33af5214-77af-456e-8968-bec55cd6dd43"",""projectId"":""9076ac92-be42-43a2-9634-8b67c7fe93a7""}","https://test12345.live/?num_scrambled_semantic=8&num_scrambled_causal=4&num_scrambled_schematic=4&participantId=12C3E477AE1A410B94E12E5D7384F794&assignmentId=33af5214-77af-456e-8968-bec55cd6dd43&projectId=9076ac92-be42-43a2-9634-8b67c7fe93a7","12C3E477AE1A410B94E12E5D7384F794-2025-05-22-20-15-33","","null","","images/instructions/movie_1.png","null","",""
"","","","","","image-button-response","13","125572","0.0-6.0-1.0-1.0","12C3E477AE1A410B94E12E5D7384F794","12C3E477AE1A410B94E12E5D7384F794","33af5214-77af-456e-8968-bec55cd6dd43","9076ac92-be42-43a2-9634-8b67c7fe93a7","{""num_scrambled_semantic"":""8"",""num_scrambled_causal"":""4"",""num_scrambled_schematic"":""4"",""participantId"":""12C3E477AE1A410B94E12E5D7384F794"",""assignmentId"":""33af5214-77af-456e-8968-bec55cd6dd43"",""projectId"":""9076ac92-be42-43a2-9634-8b67c7fe93a7""}","https://test12345.live/?num_scrambled_semantic=8&num_scrambled_causal=4&num_scrambled_schematic=4&participantId=12C3E477AE1A410B94E12E5D7384F794&assignmentId=33af5214-77af-456e-8968-bec55cd6dd43&projectId=9076ac92-be42-43a2-9634-8b67c7fe93a7","12C3E477AE1A410B94E12E5D7384F794-2025-05-22-20-15-33","","2608","","images/instructions/movie_1.png","0","",""
"","","","","","image-button-response","14","127375","0.0-6.0-1.0-2.0","12C3E477AE1A410B94E12E5D7384F794","12C3E477AE1A410B94E12E5D7384F794","33af5214-77af-456e-8968-bec55cd6dd43","9076ac92-be42-43a2-9634-8b67c7fe93a7","{""num_scrambled_semantic"":""8"",""num_scrambled_causal"":""4"",""num_scrambled_schematic"":""4"",""participantId"":""12C3E477AE1A410B94E12E5D7384F794"",""assignmentId"":""33af5214-77af-456e-8968-bec55cd6dd43"",""projectId"":""9076ac92-be42-43a2-9634-8b67c7fe93a7""}","https://test12345.live/?num_scrambled_semantic=8&num_scrambled_causal=4&num_scrambled_schematic=4&participantId=12C3E477AE1A410B94E12E5D7384F794&assignmentId=33af5214-77af-456e-8968-bec55cd6dd43&projectId=9076ac92-be42-43a2-9634-8b67c7fe93a7","12C3E477AE1A410B94E12E5D7384F794-2025-05-22-20-15-33","","null","","[]","null","",""
"","","","","","image-button-response","15","131883","0.0-6.0-1.0-0.1","12C3E477AE1A410B94E12E5D7384F794","12C3E477AE1A410B94E12E5D7384F794","33af5214-77af-456e-8968-bec55cd6dd43","9076ac92-be42-43a2-9634-8b67c7fe93a7","{""num_scrambled_semantic"":""8"",""num_scrambled_causal"":""4"",""num_scrambled_schematic"":""4"",""participantId"":""12C3E477AE1A410B94E12E5D7384F794"",""assignmentId"":""33af5214-77af-456e-8968-bec55cd6dd43"",""projectId"":""9076ac92-be42-43a2-9634-8b67c7fe93a7""}","https://test12345.live/?num_scrambled_semantic=8&num_scrambled_causal=4&num_scrambled_schematic=4&participantId=12C3E477AE1A410B94E12E5D7384F794&assignmentId=33af5214-77af-456e-8968-bec55cd6dd43&projectId=9076ac92-be42-43a2-9634-8b67c7fe93a7","12C3E477AE1A410B94E12E5D7384F794-2025-05-22-20-15-33","","null","","images/instructions/movie_2.png","null","",""
"","","","","","image-button-response","16","135886","0.0-6.0-1.0-1.1","12C3E477AE1A410B94E12E5D7384F794","12C3E477AE1A410B94E12E5D7384F794","33af5214-77af-456e-8968-bec55cd6dd43","9076ac92-be42-43a2-9634-8b67c7fe93a7","{""num_scrambled_semantic"":""8"",""num_scrambled_causal"":""4"",""num_scrambled_schematic"":""4"",""participantId"":""12C3E477AE1A410B94E12E5D7384F794"",""assignmentId"":""33af5214-77af-456e-8968-bec55cd6dd43"",""projectId"":""9076ac92-be42-43a2-9634-8b67c7fe93a7""}","https://test12345.live/?num_scrambled_semantic=8&num_scrambled_causal=4&num_scrambled_schematic=4&participantId=12C3E477AE1A410B94E12E5D7384F794&assignmentId=33af5214-77af-456e-8968-bec55cd6dd43&projectId=9076ac92-be42-43a2-9634-8b67c7fe93a7","12C3E477AE1A410B94E12E5D7384F794-2025-05-22-20-15-33","","null","","images/instructions/movie_2.png","null","",""
"","","","","","image-button-response","17","137690","0.0-6.0-1.0-2.1","12C3E477AE1A410B94E12E5D7384F794","12C3E477AE1A410B94E12E5D7384F794","33af5214-77af-456e-8968-bec55cd6dd43","9076ac92-be42-43a2-9634-8b67c7fe93a7","{""num_scrambled_semantic"":""8"",""num_scrambled_causal"":""4"",""num_scrambled_schematic"":""4"",""participantId"":""12C3E477AE1A410B94E12E5D7384F794"",""assignmentId"":""33af5214-77af-456e-8968-bec55cd6dd43"",""projectId"":""9076ac92-be42-43a2-9634-8b67c7fe93a7""}","https://test12345.live/?num_scrambled_semantic=8&num_scrambled_causal=4&num_scrambled_schematic=4&participantId=12C3E477AE1A410B94E12E5D7384F794&assignmentId=33af5214-77af-456e-8968-bec55cd6dd43&projectId=9076ac92-be42-43a2-9634-8b67c7fe93a7","12C3E477AE1A410B94E12E5D7384F794-2025-05-22-20-15-33","","null","","[]","null","",""
"","","","","","image-button-response","18","142195","0.0-6.0-1.0-0.2","12C3E477AE1A410B94E12E5D7384F794","12C3E477AE1A410B94E12E5D7384F794","33af5214-77af-456e-8968-bec55cd6dd43","9076ac92-be42-43a2-9634-8b67c7fe93a7","{""num_scrambled_semantic"":""8"",""num_scrambled_causal"":""4"",""num_scrambled_schematic"":""4"",""participantId"":""12C3E477AE1A410B94E12E5D7384F794"",""assignmentId"":""33af5214-77af-456e-8968-bec55cd6dd43"",""projectId"":""9076ac92-be42-43a2-9634-8b67c7fe93a7""}","https://test12345.live/?num_scrambled_semantic=8&num_scrambled_causal=4&num_scrambled_schematic=4&participantId=12C3E477AE1A410B94E12E5D7384F794&assignmentId=33af5214-77af-456e-8968-bec55cd6dd43&projectId=9076ac92-be42-43a2-9634-8b67c7fe93a7","12C3E477AE1A410B94E12E5D7384F794-2025-05-22-20-15-33","","null","","images/instructions/movie_3.png","null","",""
"","","","","","image-button-response","19","143949","0.0-6.0-1.0-1.2","12C3E477AE1A410B94E12E5D7384F794","12C3E477AE1A410B94E12E5D7384F794","33af5214-77af-456e-8968-bec55cd6dd43","9076ac92-be42-43a2-9634-8b67c7fe93a7","{""num_scrambled_semantic"":""8"",""num_scrambled_causal"":""4"",""num_scrambled_schematic"":""4"",""participantId"":""12C3E477AE1A410B94E12E5D7384F794"",""assignmentId"":""33af5214-77af-456e-8968-bec55cd6dd43"",""projectId"":""9076ac92-be42-43a2-9634-8b67c7fe93a7""}","https://test12345.live/?num_scrambled_semantic=8&num_scrambled_causal=4&num_scrambled_schematic=4&participantId=12C3E477AE1A410B94E12E5D7384F794&assignmentId=33af5214-77af-456e-8968-bec55cd6dd43&projectId=9076ac92-be42-43a2-9634-8b67c7fe93a7","12C3E477AE1A410B94E12E5D7384F794-2025-05-22-20-15-33","","1751","","images/instructions/movie_3.png","0","",""
"","","","","","image-button-response","20","145753","0.0-6.0-1.0-2.2","12C3E477AE1A410B94E12E5D7384F794","12C3E477AE1A410B94E12E5D7384F794","33af5214-77af-456e-8968-bec55cd6dd43","9076ac92-be42-43a2-9634-8b67c7fe93a7","{""num_scrambled_semantic"":""8"",""num_scrambled_causal"":""4"",""num_scrambled_schematic"":""4"",""participantId"":""12C3E477AE1A410B94E12E5D7384F794"",""assignmentId"":""33af5214-77af-456e-8968-bec55cd6dd43"",""projectId"":""9076ac92-be42-43a2-9634-8b67c7fe93a7""}","https://test12345.live/?num_scrambled_semantic=8&num_scrambled_causal=4&num_scrambled_schematic=4&participantId=12C3E477AE1A410B94E12E5D7384F794&assignmentId=33af5214-77af-456e-8968-bec55cd6dd43&projectId=9076ac92-be42-43a2-9634-8b67c7fe93a7","12C3E477AE1A410B94E12E5D7384F794-2025-05-22-20-15-33","","null","","[]","null","",""
"","","","","","image-button-response","21","150259","0.0-6.0-1.0-0.3","12C3E477AE1A410B94E12E5D7384F794","12C3E477AE1A410B94E12E5D7384F794","33af5214-77af-456e-8968-bec55cd6dd43","9076ac92-be42-43a2-9634-8b67c7fe93a7","{""num_scrambled_semantic"":""8"",""num_scrambled_causal"":""4"",""num_scrambled_schematic"":""4"",""participantId"":""12C3E477AE1A410B94E12E5D7384F794"",""assignmentId"":""33af5214-77af-456e-8968-bec55cd6dd43"",""projectId"":""9076ac92-be42-43a2-9634-8b67c7fe93a7""}","https://test12345.live/?num_scrambled_semantic=8&num_scrambled_causal=4&num_scrambled_schematic=4&participantId=12C3E477AE1A410B94E12E5D7384F794&assignmentId=33af5214-77af-456e-8968-bec55cd6dd43&projectId=9076ac92-be42-43a2-9634-8b67c7fe93a7","12C3E477AE1A410B94E12E5D7384F794-2025-05-22-20-15-33","","null","","images/instructions/movie_4.png","null","",""
"","","","","","image-button-response","22","151930","0.0-6.0-1.0-1.3","12C3E477AE1A410B94E12E5D7384F794","12C3E477AE1A410B94E12E5D7384F794","33af5214-77af-456e-8968-bec55cd6dd43","9076ac92-be42-43a2-9634-8b67c7fe93a7","{""num_scrambled_semantic"":""8"",""num_scrambled_causal"":""4"",""num_scrambled_schematic"":""4"",""participantId"":""12C3E477AE1A410B94E12E5D7384F794"",""assignmentId"":""33af5214-77af-456e-8968-bec55cd6dd43"",""projectId"":""9076ac92-be42-43a2-9634-8b67c7fe93a7""}","https://test12345.live/?num_scrambled_semantic=8&num_scrambled_causal=4&num_scrambled_schematic=4&participantId=12C3E477AE1A410B94E12E5D7384F794&assignmentId=33af5214-77af-456e-8968-bec55cd6dd43&projectId=9076ac92-be42-43a2-9634-8b67c7fe93a7","12C3E477AE1A410B94E12E5D7384F794-2025-05-22-20-15-33","","1668","","images/instructions/movie_4.png","0","",""
"","","","","","image-button-response","23","153735","0.0-6.0-1.0-2.3","12C3E477AE1A410B94E12E5D7384F794","12C3E477AE1A410B94E12E5D7384F794","33af5214-77af-456e-8968-bec55cd6dd43","9076ac92-be42-43a2-9634-8b67c7fe93a7","{""num_scrambled_semantic"":""8"",""num_scrambled_causal"":""4"",""num_scrambled_schematic"":""4"",""participantId"":""12C3E477AE1A410B94E12E5D7384F794"",""assignmentId"":""33af5214-77af-456e-8968-bec55cd6dd43"",""projectId"":""9076ac92-be42-43a2-9634-8b67c7fe93a7""}","https://test12345.live/?num_scrambled_semantic=8&num_scrambled_causal=4&num_scrambled_schematic=4&participantId=12C3E477AE1A410B94E12E5D7384F794&assignmentId=33af5214-77af-456e-8968-bec55cd6dd43&projectId=9076ac92-be42-43a2-9634-8b67c7fe93a7","12C3E477AE1A410B94E12E5D7384F794-2025-05-22-20-15-33","","null","","[]","null","",""
"","","","","","instructions","24","162741","0.0-7.0","12C3E477AE1A410B94E12E5D7384F794","12C3E477AE1A410B94E12E5D7384F794","33af5214-77af-456e-8968-bec55cd6dd43","9076ac92-be42-43a2-9634-8b67c7fe93a7","{""num_scrambled_semantic"":""8"",""num_scrambled_causal"":""4"",""num_scrambled_schematic"":""4"",""participantId"":""12C3E477AE1A410B94E12E5D7384F794"",""assignmentId"":""33af5214-77af-456e-8968-bec55cd6dd43"",""projectId"":""9076ac92-be42-43a2-9634-8b67c7fe93a7""}","https://test12345.live/?num_scrambled_semantic=8&num_scrambled_causal=4&num_scrambled_schematic=4&participantId=12C3E477AE1A410B94E12E5D7384F794&assignmentId=33af5214-77af-456e-8968-bec55cd6dd43&projectId=9076ac92-be42-43a2-9634-8b67c7fe93a7","12C3E477AE1A410B94E12E5D7384F794-2025-05-22-20-15-33","[{""page_index"":0,""viewing_time"":7131},{""page_index"":1,""viewing_time"":1873}]","9005","","","","",""
"","","","","","html-audio-response","25","281201","0.0-8.0","12C3E477AE1A410B94E12E5D7384F794","12C3E477AE1A410B94E12E5D7384F794","33af5214-77af-456e-8968-bec55cd6dd43","9076ac92-be42-43a2-9634-8b67c7fe93a7","{""num_scrambled_semantic"":""8"",""num_scrambled_causal"":""4"",""num_scrambled_schematic"":""4"",""participantId"":""12C3E477AE1A410B94E12E5D7384F794"",""assignmentId"":""33af5214-77af-456e-8968-bec55cd6dd43"",""projectId"":""9076ac92-be42-43a2-9634-8b67c7fe93a7""}","https://test12345.live/?num_scrambled_semantic=8&num_scrambled_causal=4&num_scrambled_schematic=4&participantId=12C3E477AE1A410B94E12E5D7384F794&assignmentId=33af5214-77af-456e-8968-bec55cd6dd43&projectId=9076ac92-be42-43a2-9634-8b67c7fe93a7","12C3E477AE1A410B94E12E5D7384F794-2025-05-22-20-15-33","","43588","","[""<span style=\""color: red; font-size: 24px\""> NOW RECORDING</span><p>Please say out loud all the images you saw in the exact order you saw them. Try to recall as many images as you can, but remember: getting the order right is more important than the number of images you recall.</p>""]","","4",""
"","","","","","instructions","26","283272","0.0-9.0","12C3E477AE1A410B94E12E5D7384F794","12C3E477AE1A410B94E12E5D7384F794","33af5214-77af-456e-8968-bec55cd6dd43","9076ac92-be42-43a2-9634-8b67c7fe93a7","{""num_scrambled_semantic"":""8"",""num_scrambled_causal"":""4"",""num_scrambled_schematic"":""4"",""participantId"":""12C3E477AE1A410B94E12E5D7384F794"",""assignmentId"":""33af5214-77af-456e-8968-bec55cd6dd43"",""projectId"":""9076ac92-be42-43a2-9634-8b67c7fe93a7""}","https://test12345.live/?num_scrambled_semantic=8&num_scrambled_causal=4&num_scrambled_schematic=4&participantId=12C3E477AE1A410B94E12E5D7384F794&assignmentId=33af5214-77af-456e-8968-bec55cd6dd43&projectId=9076ac92-be42-43a2-9634-8b67c7fe93a7","12C3E477AE1A410B94E12E5D7384F794-2025-05-22-20-15-33","[{""page_index"":0,""viewing_time"":2037}]","2040","","","","",""
"","","","","","image-button-response","27","289276","0.0-10.0-0.0","12C3E477AE1A410B94E12E5D7384F794","12C3E477AE1A410B94E12E5D7384F794","33af5214-77af-456e-8968-bec55cd6dd43","9076ac92-be42-43a2-9634-8b67c7fe93a7","{""num_scrambled_semantic"":""8"",""num_scrambled_causal"":""4"",""num_scrambled_schematic"":""4"",""participantId"":""12C3E477AE1A410B94E12E5D7384F794"",""assignmentId"":""33af5214-77af-456e-8968-bec55cd6dd43"",""projectId"":""9076ac92-be42-43a2-9634-8b67c7fe93a7""}","https://test12345.live/?num_scrambled_semantic=8&num_scrambled_causal=4&num_scrambled_schematic=4&participantId=12C3E477AE1A410B94E12E5D7384F794&assignmentId=33af5214-77af-456e-8968-bec55cd6dd43&projectId=9076ac92-be42-43a2-9634-8b67c7fe93a7","12C3E477AE1A410B94E12E5D7384F794-2025-05-22-20-15-33","","null","","images/semantic_sequence/physical_activity_semantic/physical_activity_semantic_0.png","null","",""
"","","","","","image-button-response","28","293782","0.0-10.0-1.0-0.0","12C3E477AE1A410B94E12E5D7384F794","12C3E477AE1A410B94E12E5D7384F794","33af5214-77af-456e-8968-bec55cd6dd43","9076ac92-be42-43a2-9634-8b67c7fe93a7","{""num_scrambled_semantic"":""8"",""num_scrambled_causal"":""4"",""num_scrambled_schematic"":""4"",""participantId"":""12C3E477AE1A410B94E12E5D7384F794"",""assignmentId"":""33af5214-77af-456e-8968-bec55cd6dd43"",""projectId"":""9076ac92-be42-43a2-9634-8b67c7fe93a7""}","https://test12345.live/?num_scrambled_semantic=8&num_scrambled_causal=4&num_scrambled_schematic=4&participantId=12C3E477AE1A410B94E12E5D7384F794&assignmentId=33af5214-77af-456e-8968-bec55cd6dd43&projectId=9076ac92-be42-43a2-9634-8b67c7fe93a7","12C3E477AE1A410B94E12E5D7384F794-2025-05-22-20-15-33","","null","","images/semantic_sequence/physical_activity_semantic/physical_activity_semantic_7.png","null","",""
"","","","","","image-button-response","29","296098","0.0-10.0-1.0-1.0","12C3E477AE1A410B94E12E5D7384F794","12C3E477AE1A410B94E12E5D7384F794","33af5214-77af-456e-8968-bec55cd6dd43","9076ac92-be42-43a2-9634-8b67c7fe93a7","{""num_scrambled_semantic"":""8"",""num_scrambled_causal"":""4"",""num_scrambled_schematic"":""4"",""participantId"":""12C3E477AE1A410B94E12E5D7384F794"",""assignmentId"":""33af5214-77af-456e-8968-bec55cd6dd43"",""projectId"":""9076ac92-be42-43a2-9634-8b67c7fe93a7""}","https://test12345.live/?num_scrambled_semantic=8&num_scrambled_causal=4&num_scrambled_schematic=4&participantId=12C3E477AE1A410B94E12E5D7384F794&assignmentId=33af5214-77af-456e-8968-bec55cd6dd43&projectId=9076ac92-be42-43a2-9634-8b67c7fe93a7","12C3E477AE1A410B94E12E5D7384F794-2025-05-22-20-15-33","","2314","","images/semantic_sequence/physical_activity_semantic/physical_activity_semantic_7.png","0","",""
"","","","","","image-button-response","30","297905","0.0-10.0-1.0-2.0","12C3E477AE1A410B94E12E5D7384F794","12C3E477AE1A410B94E12E5D7384F794","33af5214-77af-456e-8968-bec55cd6dd43","9076ac92-be42-43a2-9634-8b67c7fe93a7","{""num_scrambled_semantic"":""8"",""num_scrambled_causal"":""4"",""num_scrambled_schematic"":""4"",""participantId"":""12C3E477AE1A410B94E12E5D7384F794"",""assignmentId"":""33af5214-77af-456e-8968-bec55cd6dd43"",""projectId"":""9076ac92-be42-43a2-9634-8b67c7fe93a7""}","https://test12345.live/?num_scrambled_semantic=8&num_scrambled_causal=4&num_scrambled_schematic=4&participantId=12C3E477AE1A410B94E12E5D7384F794&assignmentId=33af5214-77af-456e-8968-bec55cd6dd43&projectId=9076ac92-be42-43a2-9634-8b67c7fe93a7","12C3E477AE1A410B94E12E5D7384F794-2025-05-22-20-15-33","","null","","[]","null","",""
"","","","","","image-button-response","31","302411","0.0-10.0-1.0-0.1","12C3E477AE1A410B94E12E5D7384F794","12C3E477AE1A410B94E12E5D7384F794","33af5214-77af-456e-8968-bec55cd6dd43","9076ac92-be42-43a2-9634-8b67c7fe93a7","{""num_scrambled_semantic"":""8"",""num_scrambled_causal"":""4"",""num_scrambled_schematic"":""4"",""participantId"":""12C3E477AE1A410B94E12E5D7384F794"",""assignmentId"":""33af5214-77af-456e-8968-bec55cd6dd43"",""projectId"":""9076ac92-be42-43a2-9634-8b67c7fe93a7""}","https://test12345.live/?num_scrambled_semantic=8&num_scrambled_causal=4&num_scrambled_schematic=4&participantId=12C3E477AE1A410B94E12E5D7384F794&assignmentId=33af5214-77af-456e-8968-bec55cd6dd43&projectId=9076ac92-be42-43a2-9634-8b67c7fe93a7","12C3E477AE1A410B94E12E5D7384F794-2025-05-22-20-15-33","","null","","images/semantic_sequence/physical_activity_semantic/physical_activity_semantic_3.png","null","",""
"","","","","","image-button-response","32","303448","0.0-10.0-1.0-1.1","12C3E477AE1A410B94E12E5D7384F794","12C3E477AE1A410B94E12E5D7384F794","33af5214-77af-456e-8968-bec55cd6dd43","9076ac92-be42-43a2-9634-8b67c7fe93a7","{""num_scrambled_semantic"":""8"",""num_scrambled_causal"":""4"",""num_scrambled_schematic"":""4"",""participantId"":""12C3E477AE1A410B94E12E5D7384F794"",""assignmentId"":""33af5214-77af-456e-8968-bec55cd6dd43"",""projectId"":""9076ac92-be42-43a2-9634-8b67c7fe93a7""}","https://test12345.live/?num_scrambled_semantic=8&num_scrambled_causal=4&num_scrambled_schematic=4&participantId=12C3E477AE1A410B94E12E5D7384F794&assignmentId=33af5214-77af-456e-8968-bec55cd6dd43&projectId=9076ac92-be42-43a2-9634-8b67c7fe93a7","12C3E477AE1A410B94E12E5D7384F794-2025-05-22-20-15-33","","1035","","images/semantic_sequence/physical_activity_semantic/physical_activity_semantic_3.png","0","",""
"","","","","","image-button-response","33","305252","0.0-10.0-1.0-2.1","12C3E477AE1A410B94E12E5D7384F794","12C3E477AE1A410B94E12E5D7384F794","33af5214-77af-456e-8968-bec55cd6dd43","9076ac92-be42-43a2-9634-8b67c7fe93a7","{""num_scrambled_semantic"":""8"",""num_scrambled_causal"":""4"",""num_scrambled_schematic"":""4"",""participantId"":""12C3E477AE1A410B94E12E5D7384F794"",""assignmentId"":""33af5214-77af-456e-8968-bec55cd6dd43"",""projectId"":""9076ac92-be42-43a2-9634-8b67c7fe93a7""}","https://test12345.live/?num_scrambled_semantic=8&num_scrambled_causal=4&num_scrambled_schematic=4&participantId=12C3E477AE1A410B94E12E5D7384F794&assignmentId=33af5214-77af-456e-8968-bec55cd6dd43&projectId=9076ac92-be42-43a2-9634-8b67c7fe93a7","12C3E477AE1A410B94E12E5D7384F794-2025-05-22-20-15-33","","null","","[]","null","",""
"","","","","","image-button-response","34","309755","0.0-10.0-1.0-0.2","12C3E477AE1A410B94E12E5D7384F794","12C3E477AE1A410B94E12E5D7384F794","33af5214-77af-456e-8968-bec55cd6dd43","9076ac92-be42-43a2-9634-8b67c7fe93a7","{""num_scrambled_semantic"":""8"",""num_scrambled_causal"":""4"",""num_scrambled_schematic"":""4"",""participantId"":""12C3E477AE1A410B94E12E5D7384F794"",""assignmentId"":""33af5214-77af-456e-8968-bec55cd6dd43"",""projectId"":""9076ac92-be42-43a2-9634-8b67c7fe93a7""}","https://test12345.live/?num_scrambled_semantic=8&num_scrambled_causal=4&num_scrambled_schematic=4&participantId=12C3E477AE1A410B94E12E5D7384F794&assignmentId=33af5214-77af-456e-8968-bec55cd6dd43&projectId=9076ac92-be42-43a2-9634-8b67c7fe93a7","12C3E477AE1A410B94E12E5D7384F794-2025-05-22-20-15-33","","null","","images/semantic_sequence/physical_activity_semantic/physical_activity_semantic_4.png","null","",""
"","","","","","image-button-response","35","310979","0.0-10.0-1.0-1.2","12C3E477AE1A410B94E12E5D7384F794","12C3E477AE1A410B94E12E5D7384F794","33af5214-77af-456e-8968-bec55cd6dd43","9076ac92-be42-43a2-9634-8b67c7fe93a7","{""num_scrambled_semantic"":""8"",""num_scrambled_causal"":""4"",""num_scrambled_schematic"":""4"",""participantId"":""12C3E477AE1A410B94E12E5D7384F794"",""assignmentId"":""33af5214-77af-456e-8968-bec55cd6dd43"",""projectId"":""9076ac92-be42-43a2-9634-8b67c7fe93a7""}","https://test12345.live/?num_scrambled_semantic=8&num_scrambled_causal=4&num_scrambled_schematic=4&participantId=12C3E477AE1A410B94E12E5D7384F794&assignmentId=33af5214-77af-456e-8968-bec55cd6dd43&projectId=9076ac92-be42-43a2-9634-8b67c7fe93a7","12C3E477AE1A410B94E12E5D7384F794-2025-05-22-20-15-33","","1222","","images/semantic_sequence/physical_activity_semantic/physical_activity_semantic_4.png","0","",""
"","","","","","image-button-response","36","312782","0.0-10.0-1.0-2.2","12C3E477AE1A410B94E12E5D7384F794","12C3E477AE1A410B94E12E5D7384F794","33af5214-77af-456e-8968-bec55cd6dd43","9076ac92-be42-43a2-9634-8b67c7fe93a7","{""num_scrambled_semantic"":""8"",""num_scrambled_causal"":""4"",""num_scrambled_schematic"":""4"",""participantId"":""12C3E477AE1A410B94E12E5D7384F794"",""assignmentId"":""33af5214-77af-456e-8968-bec55cd6dd43"",""projectId"":""9076ac92-be42-43a2-9634-8b67c7fe93a7""}","https://test12345.live/?num_scrambled_semantic=8&num_scrambled_causal=4&num_scrambled_schematic=4&participantId=12C3E477AE1A410B94E12E5D7384F794&assignmentId=33af5214-77af-456e-8968-bec55cd6dd43&projectId=9076ac92-be42-43a2-9634-8b67c7fe93a7","12C3E477AE1A410B94E12E5D7384F794-2025-05-22-20-15-33","","null","","[]","null","",""
"","","","","","image-button-response","37","317283","0.0-10.0-1.0-0.3","12C3E477AE1A410B94E12E5D7384F794","12C3E477AE1A410B94E12E5D7384F794","33af5214-77af-456e-8968-bec55cd6dd43","9076ac92-be42-43a2-9634-8b67c7fe93a7","{""num_scrambled_semantic"":""8"",""num_scrambled_causal"":""4"",""num_scrambled_schematic"":""4"",""participantId"":""12C3E477AE1A410B94E12E5D7384F794"",""assignmentId"":""33af5214-77af-456e-8968-bec55cd6dd43"",""projectId"":""9076ac92-be42-43a2-9634-8b67c7fe93a7""}","https://test12345.live/?num_scrambled_semantic=8&num_scrambled_causal=4&num_scrambled_schematic=4&participantId=12C3E477AE1A410B94E12E5D7384F794&assignmentId=33af5214-77af-456e-8968-bec55cd6dd43&projectId=9076ac92-be42-43a2-9634-8b67c7fe93a7","12C3E477AE1A410B94E12E5D7384F794-2025-05-22-20-15-33","","null","","images/semantic_sequence/physical_activity_semantic/physical_activity_semantic_ten.png","null","",""
"","","","","","image-button-response","38","318253","0.0-10.0-1.0-1.3","12C3E477AE1A410B94E12E5D7384F794","12C3E477AE1A410B94E12E5D7384F794","33af5214-77af-456e-8968-bec55cd6dd43","9076ac92-be42-43a2-9634-8b67c7fe93a7","{""num_scrambled_semantic"":""8"",""num_scrambled_causal"":""4"",""num_scrambled_schematic"":""4"",""participantId"":""12C3E477AE1A410B94E12E5D7384F794"",""assignmentId"":""33af5214-77af-456e-8968-bec55cd6dd43"",""projectId"":""9076ac92-be42-43a2-9634-8b67c7fe93a7""}","https://test12345.live/?num_scrambled_semantic=8&num_scrambled_causal=4&num_scrambled_schematic=4&participantId=12C3E477AE1A410B94E12E5D7384F794&assignmentId=33af5214-77af-456e-8968-bec55cd6dd43&projectId=9076ac92-be42-43a2-9634-8b67c7fe93a7","12C3E477AE1A410B94E12E5D7384F794-2025-05-22-20-15-33","","966","","images/semantic_sequence/physical_activity_semantic/physical_activity_semantic_ten.png","0","",""
"","","","","","image-button-response","39","320058","0.0-10.0-1.0-2.3","12C3E477AE1A410B94E12E5D7384F794","12C3E477AE1A410B94E12E5D7384F794","33af5214-77af-456e-8968-bec55cd6dd43","9076ac92-be42-43a2-9634-8b67c7fe93a7","{""num_scrambled_semantic"":""8"",""num_scrambled_causal"":""4"",""num_scrambled_schematic"":""4"",""participantId"":""12C3E477AE1A410B94E12E5D7384F794"",""assignmentId"":""33af5214-77af-456e-8968-bec55cd6dd43"",""projectId"":""9076ac92-be42-43a2-9634-8b67c7fe93a7""}","https://test12345.live/?num_scrambled_semantic=8&num_scrambled_causal=4&num_scrambled_schematic=4&participantId=12C3E477AE1A410B94E12E5D7384F794&assignmentId=33af5214-77af-456e-8968-bec55cd6dd43&projectId=9076ac92-be42-43a2-9634-8b67c7fe93a7","12C3E477AE1A410B94E12E5D7384F794-2025-05-22-20-15-33","","null","","[]","null","",""
"","","","","","image-button-response","40","324562","0.0-10.0-1.0-0.4","12C3E477AE1A410B94E12E5D7384F794","12C3E477AE1A410B94E12E5D7384F794","33af5214-77af-456e-8968-bec55cd6dd43","9076ac92-be42-43a2-9634-8b67c7fe93a7","{""num_scrambled_semantic"":""8"",""num_scrambled_causal"":""4"",""num_scrambled_schematic"":""4"",""participantId"":""12C3E477AE1A410B94E12E5D7384F794"",""assignmentId"":""33af5214-77af-456e-8968-bec55cd6dd43"",""projectId"":""9076ac92-be42-43a2-9634-8b67c7fe93a7""}","https://test12345.live/?num_scrambled_semantic=8&num_scrambled_causal=4&num_scrambled_schematic=4&participantId=12C3E477AE1A410B94E12E5D7384F794&assignmentId=33af5214-77af-456e-8968-bec55cd6dd43&projectId=9076ac92-be42-43a2-9634-8b67c7fe93a7","12C3E477AE1A410B94E12E5D7384F794-2025-05-22-20-15-33","","null","","images/semantic_sequence/physical_activity_semantic/physical_activity_semantic_5.png","null","",""
"","","","","","image-button-response","41","325544","0.0-10.0-1.0-1.4","12C3E477AE1A410B94E12E5D7384F794","12C3E477AE1A410B94E12E5D7384F794","33af5214-77af-456e-8968-bec55cd6dd43","9076ac92-be42-43a2-9634-8b67c7fe93a7","{""num_scrambled_semantic"":""8"",""num_scrambled_causal"":""4"",""num_scrambled_schematic"":""4"",""participantId"":""12C3E477AE1A410B94E12E5D7384F794"",""assignmentId"":""33af5214-77af-456e-8968-bec55cd6dd43"",""projectId"":""9076ac92-be42-43a2-9634-8b67c7fe93a7""}","https://test12345.live/?num_scrambled_semantic=8&num_scrambled_causal=4&num_scrambled_schematic=4&participantId=12C3E477AE1A410B94E12E5D7384F794&assignmentId=33af5214-77af-456e-8968-bec55cd6dd43&projectId=9076ac92-be42-43a2-9634-8b67c7fe93a7","12C3E477AE1A410B94E12E5D7384F794-2025-05-22-20-15-33","","979","","images/semantic_sequence/physical_activity_semantic/physical_activity_semantic_5.png","0","",""
"","","","","","image-button-response","42","327352","0.0-10.0-1.0-2.4","12C3E477AE1A410B94E12E5D7384F794","12C3E477AE1A410B94E12E5D7384F794","33af5214-77af-456e-8968-bec55cd6dd43","9076ac92-be42-43a2-9634-8b67c7fe93a7","{""num_scrambled_semantic"":""8"",""num_scrambled_causal"":""4"",""num_scrambled_schematic"":""4"",""participantId"":""12C3E477AE1A410B94E12E5D7384F794"",""assignmentId"":""33af5214-77af-456e-8968-bec55cd6dd43"",""projectId"":""9076ac92-be42-43a2-9634-8b67c7fe93a7""}","https://test12345.live/?num_scrambled_semantic=8&num_scrambled_causal=4&num_scrambled_schematic=4&participantId=12C3E477AE1A410B94E12E5D7384F794&assignmentId=33af5214-77af-456e-8968-bec55cd6dd43&projectId=9076ac92-be42-43a2-9634-8b67c7fe93a7","12C3E477AE1A410B94E12E5D7384F794-2025-05-22-20-15-33","","null","","[]","null","",""
"","","","","","image-button-response","43","331856","0.0-10.0-1.0-0.5","12C3E477AE1A410B94E12E5D7384F794","12C3E477AE1A410B94E12E5D7384F794","33af5214-77af-456e-8968-bec55cd6dd43","9076ac92-be42-43a2-9634-8b67c7fe93a7","{""num_scrambled_semantic"":""8"",""num_scrambled_causal"":""4"",""num_scrambled_schematic"":""4"",""participantId"":""12C3E477AE1A410B94E12E5D7384F794"",""assignmentId"":""33af5214-77af-456e-8968-bec55cd6dd43"",""projectId"":""9076ac92-be42-43a2-9634-8b67c7fe93a7""}","https://test12345.live/?num_scrambled_semantic=8&num_scrambled_causal=4&num_scrambled_schematic=4&participantId=12C3E477AE1A410B94E12E5D7384F794&assignmentId=33af5214-77af-456e-8968-bec55cd6dd43&projectId=9076ac92-be42-43a2-9634-8b67c7fe93a7","12C3E477AE1A410B94E12E5D7384F794-2025-05-22-20-15-33","","null","","images/semantic_sequence/physical_activity_semantic/physical_activity_semantic_1.png","null","",""
"","","","","","image-button-response","44","332850","0.0-10.0-1.0-1.5","12C3E477AE1A410B94E12E5D7384F794","12C3E477AE1A410B94E12E5D7384F794","33af5214-77af-456e-8968-bec55cd6dd43","9076ac92-be42-43a2-9634-8b67c7fe93a7","{""num_scrambled_semantic"":""8"",""num_scrambled_causal"":""4"",""num_scrambled_schematic"":""4"",""participantId"":""12C3E477AE1A410B94E12E5D7384F794"",""assignmentId"":""33af5214-77af-456e-8968-bec55cd6dd43"",""projectId"":""9076ac92-be42-43a2-9634-8b67c7fe93a7""}","https://test12345.live/?num_scrambled_semantic=8&num_scrambled_causal=4&num_scrambled_schematic=4&participantId=12C3E477AE1A410B94E12E5D7384F794&assignmentId=33af5214-77af-456e-8968-bec55cd6dd43&projectId=9076ac92-be42-43a2-9634-8b67c7fe93a7","12C3E477AE1A410B94E12E5D7384F794-2025-05-22-20-15-33","","989","","images/semantic_sequence/physical_activity_semantic/physical_activity_semantic_1.png","0","",""
"","","","","","image-button-response","45","334655","0.0-10.0-1.0-2.5","12C3E477AE1A410B94E12E5D7384F794","12C3E477AE1A410B94E12E5D7384F794","33af5214-77af-456e-8968-bec55cd6dd43","9076ac92-be42-43a2-9634-8b67c7fe93a7","{""num_scrambled_semantic"":""8"",""num_scrambled_causal"":""4"",""num_scrambled_schematic"":""4"",""participantId"":""12C3E477AE1A410B94E12E5D7384F794"",""assignmentId"":""33af5214-77af-456e-8968-bec55cd6dd43"",""projectId"":""9076ac92-be42-43a2-9634-8b67c7fe93a7""}","https://test12345.live/?num_scrambled_semantic=8&num_scrambled_causal=4&num_scrambled_schematic=4&participantId=12C3E477AE1A410B94E12E5D7384F794&assignmentId=33af5214-77af-456e-8968-bec55cd6dd43&projectId=9076ac92-be42-43a2-9634-8b67c7fe93a7","12C3E477AE1A410B94E12E5D7384F794-2025-05-22-20-15-33","","null","","[]","null","",""
"","","","","","image-button-response","46","339157","0.0-10.0-1.0-0.6","12C3E477AE1A410B94E12E5D7384F794","12C3E477AE1A410B94E12E5D7384F794","33af5214-77af-456e-8968-bec55cd6dd43","9076ac92-be42-43a2-9634-8b67c7fe93a7","{""num_scrambled_semantic"":""8"",""num_scrambled_causal"":""4"",""num_scrambled_schematic"":""4"",""participantId"":""12C3E477AE1A410B94E12E5D7384F794"",""assignmentId"":""33af5214-77af-456e-8968-bec55cd6dd43"",""projectId"":""9076ac92-be42-43a2-9634-8b67c7fe93a7""}","https://test12345.live/?num_scrambled_semantic=8&num_scrambled_causal=4&num_scrambled_schematic=4&participantId=12C3E477AE1A410B94E12E5D7384F794&assignmentId=33af5214-77af-456e-8968-bec55cd6dd43&projectId=9076ac92-be42-43a2-9634-8b67c7fe93a7","12C3E477AE1A410B94E12E5D7384F794-2025-05-22-20-15-33","","null","","images/semantic_sequence/physical_activity_semantic/physical_activity_semantic_2.png","null","",""
"","","","","","image-button-response","47","340423","0.0-10.0-1.0-1.6","12C3E477AE1A410B94E12E5D7384F794","12C3E477AE1A410B94E12E5D7384F794","33af5214-77af-456e-8968-bec55cd6dd43","9076ac92-be42-43a2-9634-8b67c7fe93a7","{""num_scrambled_semantic"":""8"",""num_scrambled_causal"":""4"",""num_scrambled_schematic"":""4"",""participantId"":""12C3E477AE1A410B94E12E5D7384F794"",""assignmentId"":""33af5214-77af-456e-8968-bec55cd6dd43"",""projectId"":""9076ac92-be42-43a2-9634-8b67c7fe93a7""}","https://test12345.live/?num_scrambled_semantic=8&num_scrambled_causal=4&num_scrambled_schematic=4&participantId=12C3E477AE1A410B94E12E5D7384F794&assignmentId=33af5214-77af-456e-8968-bec55cd6dd43&projectId=9076ac92-be42-43a2-9634-8b67c7fe93a7","12C3E477AE1A410B94E12E5D7384F794-2025-05-22-20-15-33","","1263","","images/semantic_sequence/physical_activity_semantic/physical_activity_semantic_2.png","0","",""
"","","","","","image-button-response","48","342226","0.0-10.0-1.0-2.6","12C3E477AE1A410B94E12E5D7384F794","12C3E477AE1A410B94E12E5D7384F794","33af5214-77af-456e-8968-bec55cd6dd43","9076ac92-be42-43a2-9634-8b67c7fe93a7","{""num_scrambled_semantic"":""8"",""num_scrambled_causal"":""4"",""num_scrambled_schematic"":""4"",""participantId"":""12C3E477AE1A410B94E12E5D7384F794"",""assignmentId"":""33af5214-77af-456e-8968-bec55cd6dd43"",""projectId"":""9076ac92-be42-43a2-9634-8b67c7fe93a7""}","https://test12345.live/?num_scrambled_semantic=8&num_scrambled_causal=4&num_scrambled_schematic=4&participantId=12C3E477AE1A410B94E12E5D7384F794&assignmentId=33af5214-77af-456e-8968-bec55cd6dd43&projectId=9076ac92-be42-43a2-9634-8b67c7fe93a7","12C3E477AE1A410B94E12E5D7384F794-2025-05-22-20-15-33","","null","","[]","null","",""
"","","","","","image-button-response","49","346732","0.0-10.0-1.0-0.7","12C3E477AE1A410B94E12E5D7384F794","12C3E477AE1A410B94E12E5D7384F794","33af5214-77af-456e-8968-bec55cd6dd43","9076ac92-be42-43a2-9634-8b67c7fe93a7","{""num_scrambled_semantic"":""8"",""num_scrambled_causal"":""4"",""num_scrambled_schematic"":""4"",""participantId"":""12C3E477AE1A410B94E12E5D7384F794"",""assignmentId"":""33af5214-77af-456e-8968-bec55cd6dd43"",""projectId"":""9076ac92-be42-43a2-9634-8b67c7fe93a7""}","https://test12345.live/?num_scrambled_semantic=8&num_scrambled_causal=4&num_scrambled_schematic=4&participantId=12C3E477AE1A410B94E12E5D7384F794&assignmentId=33af5214-77af-456e-8968-bec55cd6dd43&projectId=9076ac92-be42-43a2-9634-8b67c7fe93a7","12C3E477AE1A410B94E12E5D7384F794-2025-05-22-20-15-33","","null","","images/semantic_sequence/physical_activity_semantic/physical_activity_semantic_9.png","null","",""
"","","","","","image-button-response","50","348029","0.0-10.0-1.0-1.7","12C3E477AE1A410B94E12E5D7384F794","12C3E477AE1A410B94E12E5D7384F794","33af5214-77af-456e-8968-bec55cd6dd43","9076ac92-be42-43a2-9634-8b67c7fe93a7","{""num_scrambled_semantic"":""8"",""num_scrambled_causal"":""4"",""num_scrambled_schematic"":""4"",""participantId"":""12C3E477AE1A410B94E12E5D7384F794"",""assignmentId"":""33af5214-77af-456e-8968-bec55cd6dd43"",""projectId"":""9076ac92-be42-43a2-9634-8b67c7fe93a7""}","https://test12345.live/?num_scrambled_semantic=8&num_scrambled_causal=4&num_scrambled_schematic=4&participantId=12C3E477AE1A410B94E12E5D7384F794&assignmentId=33af5214-77af-456e-8968-bec55cd6dd43&projectId=9076ac92-be42-43a2-9634-8b67c7fe93a7","12C3E477AE1A410B94E12E5D7384F794-2025-05-22-20-15-33","","1293","","images/semantic_sequence/physical_activity_semantic/physical_activity_semantic_9.png","0","",""
"","","","","","image-button-response","51","349833","0.0-10.0-1.0-2.7","12C3E477AE1A410B94E12E5D7384F794","12C3E477AE1A410B94E12E5D7384F794","33af5214-77af-456e-8968-bec55cd6dd43","9076ac92-be42-43a2-9634-8b67c7fe93a7","{""num_scrambled_semantic"":""8"",""num_scrambled_causal"":""4"",""num_scrambled_schematic"":""4"",""participantId"":""12C3E477AE1A410B94E12E5D7384F794"",""assignmentId"":""33af5214-77af-456e-8968-bec55cd6dd43"",""projectId"":""9076ac92-be42-43a2-9634-8b67c7fe93a7""}","https://test12345.live/?num_scrambled_semantic=8&num_scrambled_causal=4&num_scrambled_schematic=4&participantId=12C3E477AE1A410B94E12E5D7384F794&assignmentId=33af5214-77af-456e-8968-bec55cd6dd43&projectId=9076ac92-be42-43a2-9634-8b67c7fe93a7","12C3E477AE1A410B94E12E5D7384F794-2025-05-22-20-15-33","","null","","[]","null","",""
"","","","","","image-button-response","52","354336","0.0-10.0-1.0-0.8","12C3E477AE1A410B94E12E5D7384F794","12C3E477AE1A410B94E12E5D7384F794","33af5214-77af-456e-8968-bec55cd6dd43","9076ac92-be42-43a2-9634-8b67c7fe93a7","{""num_scrambled_semantic"":""8"",""num_scrambled_causal"":""4"",""num_scrambled_schematic"":""4"",""participantId"":""12C3E477AE1A410B94E12E5D7384F794"",""assignmentId"":""33af5214-77af-456e-8968-bec55cd6dd43"",""projectId"":""9076ac92-be42-43a2-9634-8b67c7fe93a7""}","https://test12345.live/?num_scrambled_semantic=8&num_scrambled_causal=4&num_scrambled_schematic=4&participantId=12C3E477AE1A410B94E12E5D7384F794&assignmentId=33af5214-77af-456e-8968-bec55cd6dd43&projectId=9076ac92-be42-43a2-9634-8b67c7fe93a7","12C3E477AE1A410B94E12E5D7384F794-2025-05-22-20-15-33","","null","","images/semantic_sequence/physical_activity_semantic/physical_activity_semantic_6.png","null","",""
"","","","","","image-button-response","53","355365","0.0-10.0-1.0-1.8","12C3E477AE1A410B94E12E5D7384F794","12C3E477AE1A410B94E12E5D7384F794","33af5214-77af-456e-8968-bec55cd6dd43","9076ac92-be42-43a2-9634-8b67c7fe93a7","{""num_scrambled_semantic"":""8"",""num_scrambled_causal"":""4"",""num_scrambled_schematic"":""4"",""participantId"":""12C3E477AE1A410B94E12E5D7384F794"",""assignmentId"":""33af5214-77af-456e-8968-bec55cd6dd43"",""projectId"":""9076ac92-be42-43a2-9634-8b67c7fe93a7""}","https://test12345.live/?num_scrambled_semantic=8&num_scrambled_causal=4&num_scrambled_schematic=4&participantId=12C3E477AE1A410B94E12E5D7384F794&assignmentId=33af5214-77af-456e-8968-bec55cd6dd43&projectId=9076ac92-be42-43a2-9634-8b67c7fe93a7","12C3E477AE1A410B94E12E5D7384F794-2025-05-22-20-15-33","","1024","","images/semantic_sequence/physical_activity_semantic/physical_activity_semantic_6.png","0","",""
"","","","","","image-button-response","54","357172","0.0-10.0-1.0-2.8","12C3E477AE1A410B94E12E5D7384F794","12C3E477AE1A410B94E12E5D7384F794","33af5214-77af-456e-8968-bec55cd6dd43","9076ac92-be42-43a2-9634-8b67c7fe93a7","{""num_scrambled_semantic"":""8"",""num_scrambled_causal"":""4"",""num_scrambled_schematic"":""4"",""participantId"":""12C3E477AE1A410B94E12E5D7384F794"",""assignmentId"":""33af5214-77af-456e-8968-bec55cd6dd43"",""projectId"":""9076ac92-be42-43a2-9634-8b67c7fe93a7""}","https://test12345.live/?num_scrambled_semantic=8&num_scrambled_causal=4&num_scrambled_schematic=4&participantId=12C3E477AE1A410B94E12E5D7384F794&assignmentId=33af5214-77af-456e-8968-bec55cd6dd43&projectId=9076ac92-be42-43a2-9634-8b67c7fe93a7","12C3E477AE1A410B94E12E5D7384F794-2025-05-22-20-15-33","","null","","[]","null","",""
"","","","","","image-button-response","55","361676","0.0-10.0-1.0-0.9","12C3E477AE1A410B94E12E5D7384F794","12C3E477AE1A410B94E12E5D7384F794","33af5214-77af-456e-8968-bec55cd6dd43","9076ac92-be42-43a2-9634-8b67c7fe93a7","{""num_scrambled_semantic"":""8"",""num_scrambled_causal"":""4"",""num_scrambled_schematic"":""4"",""participantId"":""12C3E477AE1A410B94E12E5D7384F794"",""assignmentId"":""33af5214-77af-456e-8968-bec55cd6dd43"",""projectId"":""9076ac92-be42-43a2-9634-8b67c7fe93a7""}","https://test12345.live/?num_scrambled_semantic=8&num_scrambled_causal=4&num_scrambled_schematic=4&participantId=12C3E477AE1A410B94E12E5D7384F794&assignmentId=33af5214-77af-456e-8968-bec55cd6dd43&projectId=9076ac92-be42-43a2-9634-8b67c7fe93a7","12C3E477AE1A410B94E12E5D7384F794-2025-05-22-20-15-33","","null","","images/semantic_sequence/physical_activity_semantic/physical_activity_semantic_8.png","null","",""
"","","","","","image-button-response","56","363439","0.0-10.0-1.0-1.9","12C3E477AE1A410B94E12E5D7384F794","12C3E477AE1A410B94E12E5D7384F794","33af5214-77af-456e-8968-bec55cd6dd43","9076ac92-be42-43a2-9634-8b67c7fe93a7","{""num_scrambled_semantic"":""8"",""num_scrambled_causal"":""4"",""num_scrambled_schematic"":""4"",""participantId"":""12C3E477AE1A410B94E12E5D7384F794"",""assignmentId"":""33af5214-77af-456e-8968-bec55cd6dd43"",""projectId"":""9076ac92-be42-43a2-9634-8b67c7fe93a7""}","https://test12345.live/?num_scrambled_semantic=8&num_scrambled_causal=4&num_scrambled_schematic=4&participantId=12C3E477AE1A410B94E12E5D7384F794&assignmentId=33af5214-77af-456e-8968-bec55cd6dd43&projectId=9076ac92-be42-43a2-9634-8b67c7fe93a7","12C3E477AE1A410B94E12E5D7384F794-2025-05-22-20-15-33","","1758","","images/semantic_sequence/physical_activity_semantic/physical_activity_semantic_8.png","0","",""
"","","","","","image-button-response","57","365246","0.0-10.0-1.0-2.9","12C3E477AE1A410B94E12E5D7384F794","12C3E477AE1A410B94E12E5D7384F794","33af5214-77af-456e-8968-bec55cd6dd43","9076ac92-be42-43a2-9634-8b67c7fe93a7","{""num_scrambled_semantic"":""8"",""num_scrambled_causal"":""4"",""num_scrambled_schematic"":""4"",""participantId"":""12C3E477AE1A410B94E12E5D7384F794"",""assignmentId"":""33af5214-77af-456e-8968-bec55cd6dd43"",""projectId"":""9076ac92-be42-43a2-9634-8b67c7fe93a7""}","https://test12345.live/?num_scrambled_semantic=8&num_scrambled_causal=4&num_scrambled_schematic=4&participantId=12C3E477AE1A410B94E12E5D7384F794&assignmentId=33af5214-77af-456e-8968-bec55cd6dd43&projectId=9076ac92-be42-43a2-9634-8b67c7fe93a7","12C3E477AE1A410B94E12E5D7384F794-2025-05-22-20-15-33","","null","","[]","null","",""
"","","","","","html-audio-response","58","423001","0.0-11.0","12C3E477AE1A410B94E12E5D7384F794","12C3E477AE1A410B94E12E5D7384F794","33af5214-77af-456e-8968-bec55cd6dd43","9076ac92-be42-43a2-9634-8b67c7fe93a7","{""num_scrambled_semantic"":""8"",""num_scrambled_causal"":""4"",""num_scrambled_schematic"":""4"",""participantId"":""12C3E477AE1A410B94E12E5D7384F794"",""assignmentId"":""33af5214-77af-456e-8968-bec55cd6dd43"",""projectId"":""9076ac92-be42-43a2-9634-8b67c7fe93a7""}","https://test12345.live/?num_scrambled_semantic=8&num_scrambled_causal=4&num_scrambled_schematic=4&participantId=12C3E477AE1A410B94E12E5D7384F794&assignmentId=33af5214-77af-456e-8968-bec55cd6dd43&projectId=9076ac92-be42-43a2-9634-8b67c7fe93a7","12C3E477AE1A410B94E12E5D7384F794-2025-05-22-20-15-33","","null","","[""<span style=\""color: red; font-size: 24px\""> NOW RECORDING</span><p>Please say out loud all the images you saw, in the exact order you saw them. Try to recall as many images as you can, but remember: getting the order right is more important than the number of images you recall.</p>""]","","3","physical_activity_semantic"
"","","","","","image-button-response","59","429021","0.0-12.0-0.0","12C3E477AE1A410B94E12E5D7384F794","12C3E477AE1A410B94E12E5D7384F794","33af5214-77af-456e-8968-bec55cd6dd43","9076ac92-be42-43a2-9634-8b67c7fe93a7","{""num_scrambled_semantic"":""8"",""num_scrambled_causal"":""4"",""num_scrambled_schematic"":""4"",""participantId"":""12C3E477AE1A410B94E12E5D7384F794"",""assignmentId"":""33af5214-77af-456e-8968-bec55cd6dd43"",""projectId"":""9076ac92-be42-43a2-9634-8b67c7fe93a7""}","https://test12345.live/?num_scrambled_semantic=8&num_scrambled_causal=4&num_scrambled_schematic=4&participantId=12C3E477AE1A410B94E12E5D7384F794&assignmentId=33af5214-77af-456e-8968-bec55cd6dd43&projectId=9076ac92-be42-43a2-9634-8b67c7fe93a7","12C3E477AE1A410B94E12E5D7384F794-2025-05-22-20-15-33","","null","","images/schematic_sequence/dinner_party_scheme/dinner_party_scheme_0.png","null","",""
"","","","","","image-button-response","60","433527","0.0-12.0-1.0-0.0","12C3E477AE1A410B94E12E5D7384F794","12C3E477AE1A410B94E12E5D7384F794","33af5214-77af-456e-8968-bec55cd6dd43","9076ac92-be42-43a2-9634-8b67c7fe93a7","{""num_scrambled_semantic"":""8"",""num_scrambled_causal"":""4"",""num_scrambled_schematic"":""4"",""participantId"":""12C3E477AE1A410B94E12E5D7384F794"",""assignmentId"":""33af5214-77af-456e-8968-bec55cd6dd43"",""projectId"":""9076ac92-be42-43a2-9634-8b67c7fe93a7""}","https://test12345.live/?num_scrambled_semantic=8&num_scrambled_causal=4&num_scrambled_schematic=4&participantId=12C3E477AE1A410B94E12E5D7384F794&assignmentId=33af5214-77af-456e-8968-bec55cd6dd43&projectId=9076ac92-be42-43a2-9634-8b67c7fe93a7","12C3E477AE1A410B94E12E5D7384F794-2025-05-22-20-15-33","","null","","images/schematic_sequence/dinner_party_scheme/dinner_party_scheme_1.png","null","",""
"","","","","","image-button-response","61","436318","0.0-12.0-1.0-1.0","12C3E477AE1A410B94E12E5D7384F794","12C3E477AE1A410B94E12E5D7384F794","33af5214-77af-456e-8968-bec55cd6dd43","9076ac92-be42-43a2-9634-8b67c7fe93a7","{""num_scrambled_semantic"":""8"",""num_scrambled_causal"":""4"",""num_scrambled_schematic"":""4"",""participantId"":""12C3E477AE1A410B94E12E5D7384F794"",""assignmentId"":""33af5214-77af-456e-8968-bec55cd6dd43"",""projectId"":""9076ac92-be42-43a2-9634-8b67c7fe93a7""}","https://test12345.live/?num_scrambled_semantic=8&num_scrambled_causal=4&num_scrambled_schematic=4&participantId=12C3E477AE1A410B94E12E5D7384F794&assignmentId=33af5214-77af-456e-8968-bec55cd6dd43&projectId=9076ac92-be42-43a2-9634-8b67c7fe93a7","12C3E477AE1A410B94E12E5D7384F794-2025-05-22-20-15-33","","2789","","images/schematic_sequence/dinner_party_scheme/dinner_party_scheme_1.png","0","",""
"","","","","","image-button-response","62","438124","0.0-12.0-1.0-2.0","12C3E477AE1A410B94E12E5D7384F794","12C3E477AE1A410B94E12E5D7384F794","33af5214-77af-456e-8968-bec55cd6dd43","9076ac92-be42-43a2-9634-8b67c7fe93a7","{""num_scrambled_semantic"":""8"",""num_scrambled_causal"":""4"",""num_scrambled_schematic"":""4"",""participantId"":""12C3E477AE1A410B94E12E5D7384F794"",""assignmentId"":""33af5214-77af-456e-8968-bec55cd6dd43"",""projectId"":""9076ac92-be42-43a2-9634-8b67c7fe93a7""}","https://test12345.live/?num_scrambled_semantic=8&num_scrambled_causal=4&num_scrambled_schematic=4&participantId=12C3E477AE1A410B94E12E5D7384F794&assignmentId=33af5214-77af-456e-8968-bec55cd6dd43&projectId=9076ac92-be42-43a2-9634-8b67c7fe93a7","12C3E477AE1A410B94E12E5D7384F794-2025-05-22-20-15-33","","null","","[]","null","",""
"","","","","","image-button-response","63","442627","0.0-12.0-1.0-0.1","12C3E477AE1A410B94E12E5D7384F794","12C3E477AE1A410B94E12E5D7384F794","33af5214-77af-456e-8968-bec55cd6dd43","9076ac92-be42-43a2-9634-8b67c7fe93a7","{""num_scrambled_semantic"":""8"",""num_scrambled_causal"":""4"",""num_scrambled_schematic"":""4"",""participantId"":""12C3E477AE1A410B94E12E5D7384F794"",""assignmentId"":""33af5214-77af-456e-8968-bec55cd6dd43"",""projectId"":""9076ac92-be42-43a2-9634-8b67c7fe93a7""}","https://test12345.live/?num_scrambled_semantic=8&num_scrambled_causal=4&num_scrambled_schematic=4&participantId=12C3E477AE1A410B94E12E5D7384F794&assignmentId=33af5214-77af-456e-8968-bec55cd6dd43&projectId=9076ac92-be42-43a2-9634-8b67c7fe93a7","12C3E477AE1A410B94E12E5D7384F794-2025-05-22-20-15-33","","null","","images/schematic_sequence/dinner_party_scheme/dinner_party_scheme_8.png","null","",""
"","","","","","image-button-response","64","444931","0.0-12.0-1.0-1.1","12C3E477AE1A410B94E12E5D7384F794","12C3E477AE1A410B94E12E5D7384F794","33af5214-77af-456e-8968-bec55cd6dd43","9076ac92-be42-43a2-9634-8b67c7fe93a7","{""num_scrambled_semantic"":""8"",""num_scrambled_causal"":""4"",""num_scrambled_schematic"":""4"",""participantId"":""12C3E477AE1A410B94E12E5D7384F794"",""assignmentId"":""33af5214-77af-456e-8968-bec55cd6dd43"",""projectId"":""9076ac92-be42-43a2-9634-8b67c7fe93a7""}","https://test12345.live/?num_scrambled_semantic=8&num_scrambled_causal=4&num_scrambled_schematic=4&participantId=12C3E477AE1A410B94E12E5D7384F794&assignmentId=33af5214-77af-456e-8968-bec55cd6dd43&projectId=9076ac92-be42-43a2-9634-8b67c7fe93a7","12C3E477AE1A410B94E12E5D7384F794-2025-05-22-20-15-33","","2301","","images/schematic_sequence/dinner_party_scheme/dinner_party_scheme_8.png","0","",""
"","","","","","image-button-response","65","446737","0.0-12.0-1.0-2.1","12C3E477AE1A410B94E12E5D7384F794","12C3E477AE1A410B94E12E5D7384F794","33af5214-77af-456e-8968-bec55cd6dd43","9076ac92-be42-43a2-9634-8b67c7fe93a7","{""num_scrambled_semantic"":""8"",""num_scrambled_causal"":""4"",""num_scrambled_schematic"":""4"",""participantId"":""12C3E477AE1A410B94E12E5D7384F794"",""assignmentId"":""33af5214-77af-456e-8968-bec55cd6dd43"",""projectId"":""9076ac92-be42-43a2-9634-8b67c7fe93a7""}","https://test12345.live/?num_scrambled_semantic=8&num_scrambled_causal=4&num_scrambled_schematic=4&participantId=12C3E477AE1A410B94E12E5D7384F794&assignmentId=33af5214-77af-456e-8968-bec55cd6dd43&projectId=9076ac92-be42-43a2-9634-8b67c7fe93a7","12C3E477AE1A410B94E12E5D7384F794-2025-05-22-20-15-33","","null","","[]","null","",""
"","","","","","image-button-response","66","451241","0.0-12.0-1.0-0.2","12C3E477AE1A410B94E12E5D7384F794","12C3E477AE1A410B94E12E5D7384F794","33af5214-77af-456e-8968-bec55cd6dd43","9076ac92-be42-43a2-9634-8b67c7fe93a7","{""num_scrambled_semantic"":""8"",""num_scrambled_causal"":""4"",""num_scrambled_schematic"":""4"",""participantId"":""12C3E477AE1A410B94E12E5D7384F794"",""assignmentId"":""33af5214-77af-456e-8968-bec55cd6dd43"",""projectId"":""9076ac92-be42-43a2-9634-8b67c7fe93a7""}","https://test12345.live/?num_scrambled_semantic=8&num_scrambled_causal=4&num_scrambled_schematic=4&participantId=12C3E477AE1A410B94E12E5D7384F794&assignmentId=33af5214-77af-456e-8968-bec55cd6dd43&projectId=9076ac92-be42-43a2-9634-8b67c7fe93a7","12C3E477AE1A410B94E12E5D7384F794-2025-05-22-20-15-33","","null","","images/schematic_sequence/dinner_party_scheme/dinner_party_scheme_6.png","null","",""
"","","","","","image-button-response","67","453373","0.0-12.0-1.0-1.2","12C3E477AE1A410B94E12E5D7384F794","12C3E477AE1A410B94E12E5D7384F794","33af5214-77af-456e-8968-bec55cd6dd43","9076ac92-be42-43a2-9634-8b67c7fe93a7","{""num_scrambled_semantic"":""8"",""num_scrambled_causal"":""4"",""num_scrambled_schematic"":""4"",""participantId"":""12C3E477AE1A410B94E12E5D7384F794"",""assignmentId"":""33af5214-77af-456e-8968-bec55cd6dd43"",""projectId"":""9076ac92-be42-43a2-9634-8b67c7fe93a7""}","https://test12345.live/?num_scrambled_semantic=8&num_scrambled_causal=4&num_scrambled_schematic=4&participantId=12C3E477AE1A410B94E12E5D7384F794&assignmentId=33af5214-77af-456e-8968-bec55cd6dd43&projectId=9076ac92-be42-43a2-9634-8b67c7fe93a7","12C3E477AE1A410B94E12E5D7384F794-2025-05-22-20-15-33","","2129","","images/schematic_sequence/dinner_party_scheme/dinner_party_scheme_6.png","0","",""
"","","","","","image-button-response","68","455177","0.0-12.0-1.0-2.2","12C3E477AE1A410B94E12E5D7384F794","12C3E477AE1A410B94E12E5D7384F794","33af5214-77af-456e-8968-bec55cd6dd43","9076ac92-be42-43a2-9634-8b67c7fe93a7","{""num_scrambled_semantic"":""8"",""num_scrambled_causal"":""4"",""num_scrambled_schematic"":""4"",""participantId"":""12C3E477AE1A410B94E12E5D7384F794"",""assignmentId"":""33af5214-77af-456e-8968-bec55cd6dd43"",""projectId"":""9076ac92-be42-43a2-9634-8b67c7fe93a7""}","https://test12345.live/?num_scrambled_semantic=8&num_scrambled_causal=4&num_scrambled_schematic=4&participantId=12C3E477AE1A410B94E12E5D7384F794&assignmentId=33af5214-77af-456e-8968-bec55cd6dd43&projectId=9076ac92-be42-43a2-9634-8b67c7fe93a7","12C3E477AE1A410B94E12E5D7384F794-2025-05-22-20-15-33","","null","","[]","null","",""
"","","","","","image-button-response","69","459682","0.0-12.0-1.0-0.3","12C3E477AE1A410B94E12E5D7384F794","12C3E477AE1A410B94E12E5D7384F794","33af5214-77af-456e-8968-bec55cd6dd43","9076ac92-be42-43a2-9634-8b67c7fe93a7","{""num_scrambled_semantic"":""8"",""num_scrambled_causal"":""4"",""num_scrambled_schematic"":""4"",""participantId"":""12C3E477AE1A410B94E12E5D7384F794"",""assignmentId"":""33af5214-77af-456e-8968-bec55cd6dd43"",""projectId"":""9076ac92-be42-43a2-9634-8b67c7fe93a7""}","https://test12345.live/?num_scrambled_semantic=8&num_scrambled_causal=4&num_scrambled_schematic=4&participantId=12C3E477AE1A410B94E12E5D7384F794&assignmentId=33af5214-77af-456e-8968-bec55cd6dd43&projectId=9076ac92-be42-43a2-9634-8b67c7fe93a7","12C3E477AE1A410B94E12E5D7384F794-2025-05-22-20-15-33","","null","","images/schematic_sequence/dinner_party_scheme/dinner_party_scheme_9.png","null","",""
"","","","","","image-button-response","70","461148","0.0-12.0-1.0-1.3","12C3E477AE1A410B94E12E5D7384F794","12C3E477AE1A410B94E12E5D7384F794","33af5214-77af-456e-8968-bec55cd6dd43","9076ac92-be42-43a2-9634-8b67c7fe93a7","{""num_scrambled_semantic"":""8"",""num_scrambled_causal"":""4"",""num_scrambled_schematic"":""4"",""participantId"":""12C3E477AE1A410B94E12E5D7384F794"",""assignmentId"":""33af5214-77af-456e-8968-bec55cd6dd43"",""projectId"":""9076ac92-be42-43a2-9634-8b67c7fe93a7""}","https://test12345.live/?num_scrambled_semantic=8&num_scrambled_causal=4&num_scrambled_schematic=4&participantId=12C3E477AE1A410B94E12E5D7384F794&assignmentId=33af5214-77af-456e-8968-bec55cd6dd43&projectId=9076ac92-be42-43a2-9634-8b67c7fe93a7","12C3E477AE1A410B94E12E5D7384F794-2025-05-22-20-15-33","","1460","","images/schematic_sequence/dinner_party_scheme/dinner_party_scheme_9.png","0","",""
"","","","","","image-button-response","71","462951","0.0-12.0-1.0-2.3","12C3E477AE1A410B94E12E5D7384F794","12C3E477AE1A410B94E12E5D7384F794","33af5214-77af-456e-8968-bec55cd6dd43","9076ac92-be42-43a2-9634-8b67c7fe93a7","{""num_scrambled_semantic"":""8"",""num_scrambled_causal"":""4"",""num_scrambled_schematic"":""4"",""participantId"":""12C3E477AE1A410B94E12E5D7384F794"",""assignmentId"":""33af5214-77af-456e-8968-bec55cd6dd43"",""projectId"":""9076ac92-be42-43a2-9634-8b67c7fe93a7""}","https://test12345.live/?num_scrambled_semantic=8&num_scrambled_causal=4&num_scrambled_schematic=4&participantId=12C3E477AE1A410B94E12E5D7384F794&assignmentId=33af5214-77af-456e-8968-bec55cd6dd43&projectId=9076ac92-be42-43a2-9634-8b67c7fe93a7","12C3E477AE1A410B94E12E5D7384F794-2025-05-22-20-15-33","","null","","[]","null","",""
"","","","","","image-button-response","72","467458","0.0-12.0-1.0-0.4","12C3E477AE1A410B94E12E5D7384F794","12C3E477AE1A410B94E12E5D7384F794","33af5214-77af-456e-8968-bec55cd6dd43","9076ac92-be42-43a2-9634-8b67c7fe93a7","{""num_scrambled_semantic"":""8"",""num_scrambled_causal"":""4"",""num_scrambled_schematic"":""4"",""participantId"":""12C3E477AE1A410B94E12E5D7384F794"",""assignmentId"":""33af5214-77af-456e-8968-bec55cd6dd43"",""projectId"":""9076ac92-be42-43a2-9634-8b67c7fe93a7""}","https://test12345.live/?num_scrambled_semantic=8&num_scrambled_causal=4&num_scrambled_schematic=4&participantId=12C3E477AE1A410B94E12E5D7384F794&assignmentId=33af5214-77af-456e-8968-bec55cd6dd43&projectId=9076ac92-be42-43a2-9634-8b67c7fe93a7","12C3E477AE1A410B94E12E5D7384F794-2025-05-22-20-15-33","","null","","images/schematic_sequence/dinner_party_scheme/dinner_party_scheme_ten.png","null","",""
"","","","","","image-button-response","73","468795","0.0-12.0-1.0-1.4","12C3E477AE1A410B94E12E5D7384F794","12C3E477AE1A410B94E12E5D7384F794","33af5214-77af-456e-8968-bec55cd6dd43","9076ac92-be42-43a2-9634-8b67c7fe93a7","{""num_scrambled_semantic"":""8"",""num_scrambled_causal"":""4"",""num_scrambled_schematic"":""4"",""participantId"":""12C3E477AE1A410B94E12E5D7384F794"",""assignmentId"":""33af5214-77af-456e-8968-bec55cd6dd43"",""projectId"":""9076ac92-be42-43a2-9634-8b67c7fe93a7""}","https://test12345.live/?num_scrambled_semantic=8&num_scrambled_causal=4&num_scrambled_schematic=4&participantId=12C3E477AE1A410B94E12E5D7384F794&assignmentId=33af5214-77af-456e-8968-bec55cd6dd43&projectId=9076ac92-be42-43a2-9634-8b67c7fe93a7","12C3E477AE1A410B94E12E5D7384F794-2025-05-22-20-15-33","","1335","","images/schematic_sequence/dinner_party_scheme/dinner_party_scheme_ten.png","0","",""
"","","","","","image-button-response","74","470604","0.0-12.0-1.0-2.4","12C3E477AE1A410B94E12E5D7384F794","12C3E477AE1A410B94E12E5D7384F794","33af5214-77af-456e-8968-bec55cd6dd43","9076ac92-be42-43a2-9634-8b67c7fe93a7","{""num_scrambled_semantic"":""8"",""num_scrambled_causal"":""4"",""num_scrambled_schematic"":""4"",""participantId"":""12C3E477AE1A410B94E12E5D7384F794"",""assignmentId"":""33af5214-77af-456e-8968-bec55cd6dd43"",""projectId"":""9076ac92-be42-43a2-9634-8b67c7fe93a7""}","https://test12345.live/?num_scrambled_semantic=8&num_scrambled_causal=4&num_scrambled_schematic=4&participantId=12C3E477AE1A410B94E12E5D7384F794&assignmentId=33af5214-77af-456e-8968-bec55cd6dd43&projectId=9076ac92-be42-43a2-9634-8b67c7fe93a7","12C3E477AE1A410B94E12E5D7384F794-2025-05-22-20-15-33","","null","","[]","null","",""
"","","","","","image-button-response","75","475106","0.0-12.0-1.0-0.5","12C3E477AE1A410B94E12E5D7384F794","12C3E477AE1A410B94E12E5D7384F794","33af5214-77af-456e-8968-bec55cd6dd43","9076ac92-be42-43a2-9634-8b67c7fe93a7","{""num_scrambled_semantic"":""8"",""num_scrambled_causal"":""4"",""num_scrambled_schematic"":""4"",""participantId"":""12C3E477AE1A410B94E12E5D7384F794"",""assignmentId"":""33af5214-77af-456e-8968-bec55cd6dd43"",""projectId"":""9076ac92-be42-43a2-9634-8b67c7fe93a7""}","https://test12345.live/?num_scrambled_semantic=8&num_scrambled_causal=4&num_scrambled_schematic=4&participantId=12C3E477AE1A410B94E12E5D7384F794&assignmentId=33af5214-77af-456e-8968-bec55cd6dd43&projectId=9076ac92-be42-43a2-9634-8b67c7fe93a7","12C3E477AE1A410B94E12E5D7384F794-2025-05-22-20-15-33","","null","","images/schematic_sequence/dinner_party_scheme/dinner_party_scheme_4.png","null","",""
"","","","","","image-button-response","76","475923","0.0-12.0-1.0-1.5","12C3E477AE1A410B94E12E5D7384F794","12C3E477AE1A410B94E12E5D7384F794","33af5214-77af-456e-8968-bec55cd6dd43","9076ac92-be42-43a2-9634-8b67c7fe93a7","{""num_scrambled_semantic"":""8"",""num_scrambled_causal"":""4"",""num_scrambled_schematic"":""4"",""participantId"":""12C3E477AE1A410B94E12E5D7384F794"",""assignmentId"":""33af5214-77af-456e-8968-bec55cd6dd43"",""projectId"":""9076ac92-be42-43a2-9634-8b67c7fe93a7""}","https://test12345.live/?num_scrambled_semantic=8&num_scrambled_causal=4&num_scrambled_schematic=4&participantId=12C3E477AE1A410B94E12E5D7384F794&assignmentId=33af5214-77af-456e-8968-bec55cd6dd43&projectId=9076ac92-be42-43a2-9634-8b67c7fe93a7","12C3E477AE1A410B94E12E5D7384F794-2025-05-22-20-15-33","","814","","images/schematic_sequence/dinner_party_scheme/dinner_party_scheme_4.png","0","",""
"","","","","","image-button-response","77","477725","0.0-12.0-1.0-2.5","12C3E477AE1A410B94E12E5D7384F794","12C3E477AE1A410B94E12E5D7384F794","33af5214-77af-456e-8968-bec55cd6dd43","9076ac92-be42-43a2-9634-8b67c7fe93a7","{""num_scrambled_semantic"":""8"",""num_scrambled_causal"":""4"",""num_scrambled_schematic"":""4"",""participantId"":""12C3E477AE1A410B94E12E5D7384F794"",""assignmentId"":""33af5214-77af-456e-8968-bec55cd6dd43"",""projectId"":""9076ac92-be42-43a2-9634-8b67c7fe93a7""}","https://test12345.live/?num_scrambled_semantic=8&num_scrambled_causal=4&num_scrambled_schematic=4&participantId=12C3E477AE1A410B94E12E5D7384F794&assignmentId=33af5214-77af-456e-8968-bec55cd6dd43&projectId=9076ac92-be42-43a2-9634-8b67c7fe93a7","12C3E477AE1A410B94E12E5D7384F794-2025-05-22-20-15-33","","null","","[]","null","",""
"","","","","","image-button-response","78","482232","0.0-12.0-1.0-0.6","12C3E477AE1A410B94E12E5D7384F794","12C3E477AE1A410B94E12E5D7384F794","33af5214-77af-456e-8968-bec55cd6dd43","9076ac92-be42-43a2-9634-8b67c7fe93a7","{""num_scrambled_semantic"":""8"",""num_scrambled_causal"":""4"",""num_scrambled_schematic"":""4"",""participantId"":""12C3E477AE1A410B94E12E5D7384F794"",""assignmentId"":""33af5214-77af-456e-8968-bec55cd6dd43"",""projectId"":""9076ac92-be42-43a2-9634-8b67c7fe93a7""}","https://test12345.live/?num_scrambled_semantic=8&num_scrambled_causal=4&num_scrambled_schematic=4&participantId=12C3E477AE1A410B94E12E5D7384F794&assignmentId=33af5214-77af-456e-8968-bec55cd6dd43&projectId=9076ac92-be42-43a2-9634-8b67c7fe93a7","12C3E477AE1A410B94E12E5D7384F794-2025-05-22-20-15-33","","null","","images/schematic_sequence/dinner_party_scheme/dinner_party_scheme_2.png","null","",""
"","","","","","image-button-response","79","483271","0.0-12.0-1.0-1.6","12C3E477AE1A410B94E12E5D7384F794","12C3E477AE1A410B94E12E5D7384F794","33af5214-77af-456e-8968-bec55cd6dd43","9076ac92-be42-43a2-9634-8b67c7fe93a7","{""num_scrambled_semantic"":""8"",""num_scrambled_causal"":""4"",""num_scrambled_schematic"":""4"",""participantId"":""12C3E477AE1A410B94E12E5D7384F794"",""assignmentId"":""33af5214-77af-456e-8968-bec55cd6dd43"",""projectId"":""9076ac92-be42-43a2-9634-8b67c7fe93a7""}","https://test12345.live/?num_scrambled_semantic=8&num_scrambled_causal=4&num_scrambled_schematic=4&participantId=12C3E477AE1A410B94E12E5D7384F794&assignmentId=33af5214-77af-456e-8968-bec55cd6dd43&projectId=9076ac92-be42-43a2-9634-8b67c7fe93a7","12C3E477AE1A410B94E12E5D7384F794-2025-05-22-20-15-33","","1037","","images/schematic_sequence/dinner_party_scheme/dinner_party_scheme_2.png","0","",""
"","","","","","image-button-response","80","485076","0.0-12.0-1.0-2.6","12C3E477AE1A410B94E12E5D7384F794","12C3E477AE1A410B94E12E5D7384F794","33af5214-77af-456e-8968-bec55cd6dd43","9076ac92-be42-43a2-9634-8b67c7fe93a7","{""num_scrambled_semantic"":""8"",""num_scrambled_causal"":""4"",""num_scrambled_schematic"":""4"",""participantId"":""12C3E477AE1A410B94E12E5D7384F794"",""assignmentId"":""33af5214-77af-456e-8968-bec55cd6dd43"",""projectId"":""9076ac92-be42-43a2-9634-8b67c7fe93a7""}","https://test12345.live/?num_scrambled_semantic=8&num_scrambled_causal=4&num_scrambled_schematic=4&participantId=12C3E477AE1A410B94E12E5D7384F794&assignmentId=33af5214-77af-456e-8968-bec55cd6dd43&projectId=9076ac92-be42-43a2-9634-8b67c7fe93a7","12C3E477AE1A410B94E12E5D7384F794-2025-05-22-20-15-33","","null","","[]","null","",""
"","","","","","image-button-response","81","489584","0.0-12.0-1.0-0.7","12C3E477AE1A410B94E12E5D7384F794","12C3E477AE1A410B94E12E5D7384F794","33af5214-77af-456e-8968-bec55cd6dd43","9076ac92-be42-43a2-9634-8b67c7fe93a7","{""num_scrambled_semantic"":""8"",""num_scrambled_causal"":""4"",""num_scrambled_schematic"":""4"",""participantId"":""12C3E477AE1A410B94E12E5D7384F794"",""assignmentId"":""33af5214-77af-456e-8968-bec55cd6dd43"",""projectId"":""9076ac92-be42-43a2-9634-8b67c7fe93a7""}","https://test12345.live/?num_scrambled_semantic=8&num_scrambled_causal=4&num_scrambled_schematic=4&participantId=12C3E477AE1A410B94E12E5D7384F794&assignmentId=33af5214-77af-456e-8968-bec55cd6dd43&projectId=9076ac92-be42-43a2-9634-8b67c7fe93a7","12C3E477AE1A410B94E12E5D7384F794-2025-05-22-20-15-33","","null","","images/schematic_sequence/dinner_party_scheme/dinner_party_scheme_7.png","null","",""
"","","","","","image-button-response","82","492705","0.0-12.0-1.0-1.7","12C3E477AE1A410B94E12E5D7384F794","12C3E477AE1A410B94E12E5D7384F794","33af5214-77af-456e-8968-bec55cd6dd43","9076ac92-be42-43a2-9634-8b67c7fe93a7","{""num_scrambled_semantic"":""8"",""num_scrambled_causal"":""4"",""num_scrambled_schematic"":""4"",""participantId"":""12C3E477AE1A410B94E12E5D7384F794"",""assignmentId"":""33af5214-77af-456e-8968-bec55cd6dd43"",""projectId"":""9076ac92-be42-43a2-9634-8b67c7fe93a7""}","https://test12345.live/?num_scrambled_semantic=8&num_scrambled_causal=4&num_scrambled_schematic=4&participantId=12C3E477AE1A410B94E12E5D7384F794&assignmentId=33af5214-77af-456e-8968-bec55cd6dd43&projectId=9076ac92-be42-43a2-9634-8b67c7fe93a7","12C3E477AE1A410B94E12E5D7384F794-2025-05-22-20-15-33","","3119","","images/schematic_sequence/dinner_party_scheme/dinner_party_scheme_7.png","0","",""
"","","","","","image-button-response","83","494511","0.0-12.0-1.0-2.7","12C3E477AE1A410B94E12E5D7384F794","12C3E477AE1A410B94E12E5D7384F794","33af5214-77af-456e-8968-bec55cd6dd43","9076ac92-be42-43a2-9634-8b67c7fe93a7","{""num_scrambled_semantic"":""8"",""num_scrambled_causal"":""4"",""num_scrambled_schematic"":""4"",""participantId"":""12C3E477AE1A410B94E12E5D7384F794"",""assignmentId"":""33af5214-77af-456e-8968-bec55cd6dd43"",""projectId"":""9076ac92-be42-43a2-9634-8b67c7fe93a7""}","https://test12345.live/?num_scrambled_semantic=8&num_scrambled_causal=4&num_scrambled_schematic=4&participantId=12C3E477AE1A410B94E12E5D7384F794&assignmentId=33af5214-77af-456e-8968-bec55cd6dd43&projectId=9076ac92-be42-43a2-9634-8b67c7fe93a7","12C3E477AE1A410B94E12E5D7384F794-2025-05-22-20-15-33","","null","","[]","null","",""
"","","","","","image-button-response","84","499014","0.0-12.0-1.0-0.8","12C3E477AE1A410B94E12E5D7384F794","12C3E477AE1A410B94E12E5D7384F794","33af5214-77af-456e-8968-bec55cd6dd43","9076ac92-be42-43a2-9634-8b67c7fe93a7","{""num_scrambled_semantic"":""8"",""num_scrambled_causal"":""4"",""num_scrambled_schematic"":""4"",""participantId"":""12C3E477AE1A410B94E12E5D7384F794"",""assignmentId"":""33af5214-77af-456e-8968-bec55cd6dd43"",""projectId"":""9076ac92-be42-43a2-9634-8b67c7fe93a7""}","https://test12345.live/?num_scrambled_semantic=8&num_scrambled_causal=4&num_scrambled_schematic=4&participantId=12C3E477AE1A410B94E12E5D7384F794&assignmentId=33af5214-77af-456e-8968-bec55cd6dd43&projectId=9076ac92-be42-43a2-9634-8b67c7fe93a7","12C3E477AE1A410B94E12E5D7384F794-2025-05-22-20-15-33","","null","","images/schematic_sequence/dinner_party_scheme/dinner_party_scheme_5.png","null","",""
"","","","","","image-button-response","85","499969","0.0-12.0-1.0-1.8","12C3E477AE1A410B94E12E5D7384F794","12C3E477AE1A410B94E12E5D7384F794","33af5214-77af-456e-8968-bec55cd6dd43","9076ac92-be42-43a2-9634-8b67c7fe93a7","{""num_scrambled_semantic"":""8"",""num_scrambled_causal"":""4"",""num_scrambled_schematic"":""4"",""participantId"":""12C3E477AE1A410B94E12E5D7384F794"",""assignmentId"":""33af5214-77af-456e-8968-bec55cd6dd43"",""projectId"":""9076ac92-be42-43a2-9634-8b67c7fe93a7""}","https://test12345.live/?num_scrambled_semantic=8&num_scrambled_causal=4&num_scrambled_schematic=4&participantId=12C3E477AE1A410B94E12E5D7384F794&assignmentId=33af5214-77af-456e-8968-bec55cd6dd43&projectId=9076ac92-be42-43a2-9634-8b67c7fe93a7","12C3E477AE1A410B94E12E5D7384F794-2025-05-22-20-15-33","","951","","images/schematic_sequence/dinner_party_scheme/dinner_party_scheme_5.png","0","",""
"","","","","","image-button-response","86","501774","0.0-12.0-1.0-2.8","12C3E477AE1A410B94E12E5D7384F794","12C3E477AE1A410B94E12E5D7384F794","33af5214-77af-456e-8968-bec55cd6dd43","9076ac92-be42-43a2-9634-8b67c7fe93a7","{""num_scrambled_semantic"":""8"",""num_scrambled_causal"":""4"",""num_scrambled_schematic"":""4"",""participantId"":""12C3E477AE1A410B94E12E5D7384F794"",""assignmentId"":""33af5214-77af-456e-8968-bec55cd6dd43"",""projectId"":""9076ac92-be42-43a2-9634-8b67c7fe93a7""}","https://test12345.live/?num_scrambled_semantic=8&num_scrambled_causal=4&num_scrambled_schematic=4&participantId=12C3E477AE1A410B94E12E5D7384F794&assignmentId=33af5214-77af-456e-8968-bec55cd6dd43&projectId=9076ac92-be42-43a2-9634-8b67c7fe93a7","12C3E477AE1A410B94E12E5D7384F794-2025-05-22-20-15-33","","null","","[]","null","",""
"","","","","","image-button-response","87","506278","0.0-12.0-1.0-0.9","12C3E477AE1A410B94E12E5D7384F794","12C3E477AE1A410B94E12E5D7384F794","33af5214-77af-456e-8968-bec55cd6dd43","9076ac92-be42-43a2-9634-8b67c7fe93a7","{""num_scrambled_semantic"":""8"",""num_scrambled_causal"":""4"",""num_scrambled_schematic"":""4"",""participantId"":""12C3E477AE1A410B94E12E5D7384F794"",""assignmentId"":""33af5214-77af-456e-8968-bec55cd6dd43"",""projectId"":""9076ac92-be42-43a2-9634-8b67c7fe93a7""}","https://test12345.live/?num_scrambled_semantic=8&num_scrambled_causal=4&num_scrambled_schematic=4&participantId=12C3E477AE1A410B94E12E5D7384F794&assignmentId=33af5214-77af-456e-8968-bec55cd6dd43&projectId=9076ac92-be42-43a2-9634-8b67c7fe93a7","12C3E477AE1A410B94E12E5D7384F794-2025-05-22-20-15-33","","null","","images/schematic_sequence/dinner_party_scheme/dinner_party_scheme_3.png","null","",""
"","","","","","image-button-response","88","507183","0.0-12.0-1.0-1.9","12C3E477AE1A410B94E12E5D7384F794","12C3E477AE1A410B94E12E5D7384F794","33af5214-77af-456e-8968-bec55cd6dd43","9076ac92-be42-43a2-9634-8b67c7fe93a7","{""num_scrambled_semantic"":""8"",""num_scrambled_causal"":""4"",""num_scrambled_schematic"":""4"",""participantId"":""12C3E477AE1A410B94E12E5D7384F794"",""assignmentId"":""33af5214-77af-456e-8968-bec55cd6dd43"",""projectId"":""9076ac92-be42-43a2-9634-8b67c7fe93a7""}","https://test12345.live/?num_scrambled_semantic=8&num_scrambled_causal=4&num_scrambled_schematic=4&participantId=12C3E477AE1A410B94E12E5D7384F794&assignmentId=33af5214-77af-456e-8968-bec55cd6dd43&projectId=9076ac92-be42-43a2-9634-8b67c7fe93a7","12C3E477AE1A410B94E12E5D7384F794-2025-05-22-20-15-33","","902","","images/schematic_sequence/dinner_party_scheme/dinner_party_scheme_3.png","0","",""
"","","","","","image-button-response","89","508990","0.0-12.0-1.0-2.9","12C3E477AE1A410B94E12E5D7384F794","12C3E477AE1A410B94E12E5D7384F794","33af5214-77af-456e-8968-bec55cd6dd43","9076ac92-be42-43a2-9634-8b67c7fe93a7","{""num_scrambled_semantic"":""8"",""num_scrambled_causal"":""4"",""num_scrambled_schematic"":""4"",""participantId"":""12C3E477AE1A410B94E12E5D7384F794"",""assignmentId"":""33af5214-77af-456e-8968-bec55cd6dd43"",""projectId"":""9076ac92-be42-43a2-9634-8b67c7fe93a7""}","https://test12345.live/?num_scrambled_semantic=8&num_scrambled_causal=4&num_scrambled_schematic=4&participantId=12C3E477AE1A410B94E12E5D7384F794&assignmentId=33af5214-77af-456e-8968-bec55cd6dd43&projectId=9076ac92-be42-43a2-9634-8b67c7fe93a7","12C3E477AE1A410B94E12E5D7384F794-2025-05-22-20-15-33","","null","","[]","null","",""
"","","","","","html-audio-response","90","550116","0.0-13.0","12C3E477AE1A410B94E12E5D7384F794","12C3E477AE1A410B94E12E5D7384F794","33af5214-77af-456e-8968-bec55cd6dd43","9076ac92-be42-43a2-9634-8b67c7fe93a7","{""num_scrambled_semantic"":""8"",""num_scrambled_causal"":""4"",""num_scrambled_schematic"":""4"",""participantId"":""12C3E477AE1A410B94E12E5D7384F794"",""assignmentId"":""33af5214-77af-456e-8968-bec55cd6dd43"",""projectId"":""9076ac92-be42-43a2-9634-8b67c7fe93a7""}","https://test12345.live/?num_scrambled_semantic=8&num_scrambled_causal=4&num_scrambled_schematic=4&participantId=12C3E477AE1A410B94E12E5D7384F794&assignmentId=33af5214-77af-456e-8968-bec55cd6dd43&projectId=9076ac92-be42-43a2-9634-8b67c7fe93a7","12C3E477AE1A410B94E12E5D7384F794-2025-05-22-20-15-33","","38829","","[""<span style=\""color: red; font-size: 24px\""> NOW RECORDING</span><p>Please say out loud all the images you saw, in the exact order you saw them. Try to recall as many images as you can, but remember: getting the order right is more important than the number of images you recall.</p>""]","","3","dinner_party_scheme"
"","","","","","image-button-response","91","556135","0.0-14.0-0.0","12C3E477AE1A410B94E12E5D7384F794","12C3E477AE1A410B94E12E5D7384F794","33af5214-77af-456e-8968-bec55cd6dd43","9076ac92-be42-43a2-9634-8b67c7fe93a7","{""num_scrambled_semantic"":""8"",""num_scrambled_causal"":""4"",""num_scrambled_schematic"":""4"",""participantId"":""12C3E477AE1A410B94E12E5D7384F794"",""assignmentId"":""33af5214-77af-456e-8968-bec55cd6dd43"",""projectId"":""9076ac92-be42-43a2-9634-8b67c7fe93a7""}","https://test12345.live/?num_scrambled_semantic=8&num_scrambled_causal=4&num_scrambled_schematic=4&participantId=12C3E477AE1A410B94E12E5D7384F794&assignmentId=33af5214-77af-456e-8968-bec55cd6dd43&projectId=9076ac92-be42-43a2-9634-8b67c7fe93a7","12C3E477AE1A410B94E12E5D7384F794-2025-05-22-20-15-33","","null","","images/schematic_sequence/interview_scheme/interview_scheme_0.png","null","",""
"","","","","","image-button-response","92","560641","0.0-14.0-1.0-0.0","12C3E477AE1A410B94E12E5D7384F794","12C3E477AE1A410B94E12E5D7384F794","33af5214-77af-456e-8968-bec55cd6dd43","9076ac92-be42-43a2-9634-8b67c7fe93a7","{""num_scrambled_semantic"":""8"",""num_scrambled_causal"":""4"",""num_scrambled_schematic"":""4"",""participantId"":""12C3E477AE1A410B94E12E5D7384F794"",""assignmentId"":""33af5214-77af-456e-8968-bec55cd6dd43"",""projectId"":""9076ac92-be42-43a2-9634-8b67c7fe93a7""}","https://test12345.live/?num_scrambled_semantic=8&num_scrambled_causal=4&num_scrambled_schematic=4&participantId=12C3E477AE1A410B94E12E5D7384F794&assignmentId=33af5214-77af-456e-8968-bec55cd6dd43&projectId=9076ac92-be42-43a2-9634-8b67c7fe93a7","12C3E477AE1A410B94E12E5D7384F794-2025-05-22-20-15-33","","null","","images/schematic_sequence/interview_scheme/interview_scheme_1.png","null","",""
"","","","","","image-button-response","93","564647","0.0-14.0-1.0-1.0","12C3E477AE1A410B94E12E5D7384F794","12C3E477AE1A410B94E12E5D7384F794","33af5214-77af-456e-8968-bec55cd6dd43","9076ac92-be42-43a2-9634-8b67c7fe93a7","{""num_scrambled_semantic"":""8"",""num_scrambled_causal"":""4"",""num_scrambled_schematic"":""4"",""participantId"":""12C3E477AE1A410B94E12E5D7384F794"",""assignmentId"":""33af5214-77af-456e-8968-bec55cd6dd43"",""projectId"":""9076ac92-be42-43a2-9634-8b67c7fe93a7""}","https://test12345.live/?num_scrambled_semantic=8&num_scrambled_causal=4&num_scrambled_schematic=4&participantId=12C3E477AE1A410B94E12E5D7384F794&assignmentId=33af5214-77af-456e-8968-bec55cd6dd43&projectId=9076ac92-be42-43a2-9634-8b67c7fe93a7","12C3E477AE1A410B94E12E5D7384F794-2025-05-22-20-15-33","","null","","images/schematic_sequence/interview_scheme/interview_scheme_1.png","null","",""
"","","","","","image-button-response","94","566455","0.0-14.0-1.0-2.0","12C3E477AE1A410B94E12E5D7384F794","12C3E477AE1A410B94E12E5D7384F794","33af5214-77af-456e-8968-bec55cd6dd43","9076ac92-be42-43a2-9634-8b67c7fe93a7","{""num_scrambled_semantic"":""8"",""num_scrambled_causal"":""4"",""num_scrambled_schematic"":""4"",""participantId"":""12C3E477AE1A410B94E12E5D7384F794"",""assignmentId"":""33af5214-77af-456e-8968-bec55cd6dd43"",""projectId"":""9076ac92-be42-43a2-9634-8b67c7fe93a7""}","https://test12345.live/?num_scrambled_semantic=8&num_scrambled_causal=4&num_scrambled_schematic=4&participantId=12C3E477AE1A410B94E12E5D7384F794&assignmentId=33af5214-77af-456e-8968-bec55cd6dd43&projectId=9076ac92-be42-43a2-9634-8b67c7fe93a7","12C3E477AE1A410B94E12E5D7384F794-2025-05-22-20-15-33","","null","","[]","null","",""
"","","","","","image-button-response","95","570956","0.0-14.0-1.0-0.1","12C3E477AE1A410B94E12E5D7384F794","12C3E477AE1A410B94E12E5D7384F794","33af5214-77af-456e-8968-bec55cd6dd43","9076ac92-be42-43a2-9634-8b67c7fe93a7","{""num_scrambled_semantic"":""8"",""num_scrambled_causal"":""4"",""num_scrambled_schematic"":""4"",""participantId"":""12C3E477AE1A410B94E12E5D7384F794"",""assignmentId"":""33af5214-77af-456e-8968-bec55cd6dd43"",""projectId"":""9076ac92-be42-43a2-9634-8b67c7fe93a7""}","https://test12345.live/?num_scrambled_semantic=8&num_scrambled_causal=4&num_scrambled_schematic=4&participantId=12C3E477AE1A410B94E12E5D7384F794&assignmentId=33af5214-77af-456e-8968-bec55cd6dd43&projectId=9076ac92-be42-43a2-9634-8b67c7fe93a7","12C3E477AE1A410B94E12E5D7384F794-2025-05-22-20-15-33","","null","","images/schematic_sequence/interview_scheme/interview_scheme_2.png","null","",""
"","","","","","image-button-response","96","573095","0.0-14.0-1.0-1.1","12C3E477AE1A410B94E12E5D7384F794","12C3E477AE1A410B94E12E5D7384F794","33af5214-77af-456e-8968-bec55cd6dd43","9076ac92-be42-43a2-9634-8b67c7fe93a7","{""num_scrambled_semantic"":""8"",""num_scrambled_causal"":""4"",""num_scrambled_schematic"":""4"",""participantId"":""12C3E477AE1A410B94E12E5D7384F794"",""assignmentId"":""33af5214-77af-456e-8968-bec55cd6dd43"",""projectId"":""9076ac92-be42-43a2-9634-8b67c7fe93a7""}","https://test12345.live/?num_scrambled_semantic=8&num_scrambled_causal=4&num_scrambled_schematic=4&participantId=12C3E477AE1A410B94E12E5D7384F794&assignmentId=33af5214-77af-456e-8968-bec55cd6dd43&projectId=9076ac92-be42-43a2-9634-8b67c7fe93a7","12C3E477AE1A410B94E12E5D7384F794-2025-05-22-20-15-33","","2136","","images/schematic_sequence/interview_scheme/interview_scheme_2.png","0","",""
"","","","","","image-button-response","97","574898","0.0-14.0-1.0-2.1","12C3E477AE1A410B94E12E5D7384F794","12C3E477AE1A410B94E12E5D7384F794","33af5214-77af-456e-8968-bec55cd6dd43","9076ac92-be42-43a2-9634-8b67c7fe93a7","{""num_scrambled_semantic"":""8"",""num_scrambled_causal"":""4"",""num_scrambled_schematic"":""4"",""participantId"":""12C3E477AE1A410B94E12E5D7384F794"",""assignmentId"":""33af5214-77af-456e-8968-bec55cd6dd43"",""projectId"":""9076ac92-be42-43a2-9634-8b67c7fe93a7""}","https://test12345.live/?num_scrambled_semantic=8&num_scrambled_causal=4&num_scrambled_schematic=4&participantId=12C3E477AE1A410B94E12E5D7384F794&assignmentId=33af5214-77af-456e-8968-bec55cd6dd43&projectId=9076ac92-be42-43a2-9634-8b67c7fe93a7","12C3E477AE1A410B94E12E5D7384F794-2025-05-22-20-15-33","","null","","[]","null","",""
"","","","","","image-button-response","98","579405","0.0-14.0-1.0-0.2","12C3E477AE1A410B94E12E5D7384F794","12C3E477AE1A410B94E12E5D7384F794","33af5214-77af-456e-8968-bec55cd6dd43","9076ac92-be42-43a2-9634-8b67c7fe93a7","{""num_scrambled_semantic"":""8"",""num_scrambled_causal"":""4"",""num_scrambled_schematic"":""4"",""participantId"":""12C3E477AE1A410B94E12E5D7384F794"",""assignmentId"":""33af5214-77af-456e-8968-bec55cd6dd43"",""projectId"":""9076ac92-be42-43a2-9634-8b67c7fe93a7""}","https://test12345.live/?num_scrambled_semantic=8&num_scrambled_causal=4&num_scrambled_schematic=4&participantId=12C3E477AE1A410B94E12E5D7384F794&assignmentId=33af5214-77af-456e-8968-bec55cd6dd43&projectId=9076ac92-be42-43a2-9634-8b67c7fe93a7","12C3E477AE1A410B94E12E5D7384F794-2025-05-22-20-15-33","","null","","images/schematic_sequence/interview_scheme/interview_scheme_3.png","null","",""
"","","","","","image-button-response","99","580820","0.0-14.0-1.0-1.2","12C3E477AE1A410B94E12E5D7384F794","12C3E477AE1A410B94E12E5D7384F794","33af5214-77af-456e-8968-bec55cd6dd43","9076ac92-be42-43a2-9634-8b67c7fe93a7","{""num_scrambled_semantic"":""8"",""num_scrambled_causal"":""4"",""num_scrambled_schematic"":""4"",""participantId"":""12C3E477AE1A410B94E12E5D7384F794"",""assignmentId"":""33af5214-77af-456e-8968-bec55cd6dd43"",""projectId"":""9076ac92-be42-43a2-9634-8b67c7fe93a7""}","https://test12345.live/?num_scrambled_semantic=8&num_scrambled_causal=4&num_scrambled_schematic=4&participantId=12C3E477AE1A410B94E12E5D7384F794&assignmentId=33af5214-77af-456e-8968-bec55cd6dd43&projectId=9076ac92-be42-43a2-9634-8b67c7fe93a7","12C3E477AE1A410B94E12E5D7384F794-2025-05-22-20-15-33","","1411","","images/schematic_sequence/interview_scheme/interview_scheme_3.png","0","",""
"","","","","","image-button-response","100","582626","0.0-14.0-1.0-2.2","12C3E477AE1A410B94E12E5D7384F794","12C3E477AE1A410B94E12E5D7384F794","33af5214-77af-456e-8968-bec55cd6dd43","9076ac92-be42-43a2-9634-8b67c7fe93a7","{""num_scrambled_semantic"":""8"",""num_scrambled_causal"":""4"",""num_scrambled_schematic"":""4"",""participantId"":""12C3E477AE1A410B94E12E5D7384F794"",""assignmentId"":""33af5214-77af-456e-8968-bec55cd6dd43"",""projectId"":""9076ac92-be42-43a2-9634-8b67c7fe93a7""}","https://test12345.live/?num_scrambled_semantic=8&num_scrambled_causal=4&num_scrambled_schematic=4&participantId=12C3E477AE1A410B94E12E5D7384F794&assignmentId=33af5214-77af-456e-8968-bec55cd6dd43&projectId=9076ac92-be42-43a2-9634-8b67c7fe93a7","12C3E477AE1A410B94E12E5D7384F794-2025-05-22-20-15-33","","null","","[]","null","",""
"","","","","","image-button-response","101","587133","0.0-14.0-1.0-0.3","12C3E477AE1A410B94E12E5D7384F794","12C3E477AE1A410B94E12E5D7384F794","33af5214-77af-456e-8968-bec55cd6dd43","9076ac92-be42-43a2-9634-8b67c7fe93a7","{""num_scrambled_semantic"":""8"",""num_scrambled_causal"":""4"",""num_scrambled_schematic"":""4"",""participantId"":""12C3E477AE1A410B94E12E5D7384F794"",""assignmentId"":""33af5214-77af-456e-8968-bec55cd6dd43"",""projectId"":""9076ac92-be42-43a2-9634-8b67c7fe93a7""}","https://test12345.live/?num_scrambled_semantic=8&num_scrambled_causal=4&num_scrambled_schematic=4&participantId=12C3E477AE1A410B94E12E5D7384F794&assignmentId=33af5214-77af-456e-8968-bec55cd6dd43&projectId=9076ac92-be42-43a2-9634-8b67c7fe93a7","12C3E477AE1A410B94E12E5D7384F794-2025-05-22-20-15-33","","null","","images/schematic_sequence/interview_scheme/interview_scheme_4.png","null","",""
"","","","","","image-button-response","102","588397","0.0-14.0-1.0-1.3","12C3E477AE1A410B94E12E5D7384F794","12C3E477AE1A410B94E12E5D7384F794","33af5214-77af-456e-8968-bec55cd6dd43","9076ac92-be42-43a2-9634-8b67c7fe93a7","{""num_scrambled_semantic"":""8"",""num_scrambled_causal"":""4"",""num_scrambled_schematic"":""4"",""participantId"":""12C3E477AE1A410B94E12E5D7384F794"",""assignmentId"":""33af5214-77af-456e-8968-bec55cd6dd43"",""projectId"":""9076ac92-be42-43a2-9634-8b67c7fe93a7""}","https://test12345.live/?num_scrambled_semantic=8&num_scrambled_causal=4&num_scrambled_schematic=4&participantId=12C3E477AE1A410B94E12E5D7384F794&assignmentId=33af5214-77af-456e-8968-bec55cd6dd43&projectId=9076ac92-be42-43a2-9634-8b67c7fe93a7","12C3E477AE1A410B94E12E5D7384F794-2025-05-22-20-15-33","","1260","","images/schematic_sequence/interview_scheme/interview_scheme_4.png","0","",""
"","","","","","image-button-response","103","590205","0.0-14.0-1.0-2.3","12C3E477AE1A410B94E12E5D7384F794","12C3E477AE1A410B94E12E5D7384F794","33af5214-77af-456e-8968-bec55cd6dd43","9076ac92-be42-43a2-9634-8b67c7fe93a7","{""num_scrambled_semantic"":""8"",""num_scrambled_causal"":""4"",""num_scrambled_schematic"":""4"",""participantId"":""12C3E477AE1A410B94E12E5D7384F794"",""assignmentId"":""33af5214-77af-456e-8968-bec55cd6dd43"",""projectId"":""9076ac92-be42-43a2-9634-8b67c7fe93a7""}","https://test12345.live/?num_scrambled_semantic=8&num_scrambled_causal=4&num_scrambled_schematic=4&participantId=12C3E477AE1A410B94E12E5D7384F794&assignmentId=33af5214-77af-456e-8968-bec55cd6dd43&projectId=9076ac92-be42-43a2-9634-8b67c7fe93a7","12C3E477AE1A410B94E12E5D7384F794-2025-05-22-20-15-33","","null","","[]","null","",""
"","","","","","image-button-response","104","594707","0.0-14.0-1.0-0.4","12C3E477AE1A410B94E12E5D7384F794","12C3E477AE1A410B94E12E5D7384F794","33af5214-77af-456e-8968-bec55cd6dd43","9076ac92-be42-43a2-9634-8b67c7fe93a7","{""num_scrambled_semantic"":""8"",""num_scrambled_causal"":""4"",""num_scrambled_schematic"":""4"",""participantId"":""12C3E477AE1A410B94E12E5D7384F794"",""assignmentId"":""33af5214-77af-456e-8968-bec55cd6dd43"",""projectId"":""9076ac92-be42-43a2-9634-8b67c7fe93a7""}","https://test12345.live/?num_scrambled_semantic=8&num_scrambled_causal=4&num_scrambled_schematic=4&participantId=12C3E477AE1A410B94E12E5D7384F794&assignmentId=33af5214-77af-456e-8968-bec55cd6dd43&projectId=9076ac92-be42-43a2-9634-8b67c7fe93a7","12C3E477AE1A410B94E12E5D7384F794-2025-05-22-20-15-33","","null","","images/schematic_sequence/interview_scheme/interview_scheme_5.png","null","",""
"","","","","","image-button-response","105","595776","0.0-14.0-1.0-1.4","12C3E477AE1A410B94E12E5D7384F794","12C3E477AE1A410B94E12E5D7384F794","33af5214-77af-456e-8968-bec55cd6dd43","9076ac92-be42-43a2-9634-8b67c7fe93a7","{""num_scrambled_semantic"":""8"",""num_scrambled_causal"":""4"",""num_scrambled_schematic"":""4"",""participantId"":""12C3E477AE1A410B94E12E5D7384F794"",""assignmentId"":""33af5214-77af-456e-8968-bec55cd6dd43"",""projectId"":""9076ac92-be42-43a2-9634-8b67c7fe93a7""}","https://test12345.live/?num_scrambled_semantic=8&num_scrambled_causal=4&num_scrambled_schematic=4&participantId=12C3E477AE1A410B94E12E5D7384F794&assignmentId=33af5214-77af-456e-8968-bec55cd6dd43&projectId=9076ac92-be42-43a2-9634-8b67c7fe93a7","12C3E477AE1A410B94E12E5D7384F794-2025-05-22-20-15-33","","1065","","images/schematic_sequence/interview_scheme/interview_scheme_5.png","0","",""
"","","","","","image-button-response","106","597580","0.0-14.0-1.0-2.4","12C3E477AE1A410B94E12E5D7384F794","12C3E477AE1A410B94E12E5D7384F794","33af5214-77af-456e-8968-bec55cd6dd43","9076ac92-be42-43a2-9634-8b67c7fe93a7","{""num_scrambled_semantic"":""8"",""num_scrambled_causal"":""4"",""num_scrambled_schematic"":""4"",""participantId"":""12C3E477AE1A410B94E12E5D7384F794"",""assignmentId"":""33af5214-77af-456e-8968-bec55cd6dd43"",""projectId"":""9076ac92-be42-43a2-9634-8b67c7fe93a7""}","https://test12345.live/?num_scrambled_semantic=8&num_scrambled_causal=4&num_scrambled_schematic=4&participantId=12C3E477AE1A410B94E12E5D7384F794&assignmentId=33af5214-77af-456e-8968-bec55cd6dd43&projectId=9076ac92-be42-43a2-9634-8b67c7fe93a7","12C3E477AE1A410B94E12E5D7384F794-2025-05-22-20-15-33","","null","","[]","null","",""
"","","","","","image-button-response","107","602081","0.0-14.0-1.0-0.5","12C3E477AE1A410B94E12E5D7384F794","12C3E477AE1A410B94E12E5D7384F794","33af5214-77af-456e-8968-bec55cd6dd43","9076ac92-be42-43a2-9634-8b67c7fe93a7","{""num_scrambled_semantic"":""8"",""num_scrambled_causal"":""4"",""num_scrambled_schematic"":""4"",""participantId"":""12C3E477AE1A410B94E12E5D7384F794"",""assignmentId"":""33af5214-77af-456e-8968-bec55cd6dd43"",""projectId"":""9076ac92-be42-43a2-9634-8b67c7fe93a7""}","https://test12345.live/?num_scrambled_semantic=8&num_scrambled_causal=4&num_scrambled_schematic=4&participantId=12C3E477AE1A410B94E12E5D7384F794&assignmentId=33af5214-77af-456e-8968-bec55cd6dd43&projectId=9076ac92-be42-43a2-9634-8b67c7fe93a7","12C3E477AE1A410B94E12E5D7384F794-2025-05-22-20-15-33","","null","","images/schematic_sequence/interview_scheme/interview_scheme_6.png","null","",""
"","","","","","image-button-response","108","603501","0.0-14.0-1.0-1.5","12C3E477AE1A410B94E12E5D7384F794","12C3E477AE1A410B94E12E5D7384F794","33af5214-77af-456e-8968-bec55cd6dd43","9076ac92-be42-43a2-9634-8b67c7fe93a7","{""num_scrambled_semantic"":""8"",""num_scrambled_causal"":""4"",""num_scrambled_schematic"":""4"",""participantId"":""12C3E477AE1A410B94E12E5D7384F794"",""assignmentId"":""33af5214-77af-456e-8968-bec55cd6dd43"",""projectId"":""9076ac92-be42-43a2-9634-8b67c7fe93a7""}","https://test12345.live/?num_scrambled_semantic=8&num_scrambled_causal=4&num_scrambled_schematic=4&participantId=12C3E477AE1A410B94E12E5D7384F794&assignmentId=33af5214-77af-456e-8968-bec55cd6dd43&projectId=9076ac92-be42-43a2-9634-8b67c7fe93a7","12C3E477AE1A410B94E12E5D7384F794-2025-05-22-20-15-33","","1417","","images/schematic_sequence/interview_scheme/interview_scheme_6.png","0","",""
"","","","","","image-button-response","109","605308","0.0-14.0-1.0-2.5","12C3E477AE1A410B94E12E5D7384F794","12C3E477AE1A410B94E12E5D7384F794","33af5214-77af-456e-8968-bec55cd6dd43","9076ac92-be42-43a2-9634-8b67c7fe93a7","{""num_scrambled_semantic"":""8"",""num_scrambled_causal"":""4"",""num_scrambled_schematic"":""4"",""participantId"":""12C3E477AE1A410B94E12E5D7384F794"",""assignmentId"":""33af5214-77af-456e-8968-bec55cd6dd43"",""projectId"":""9076ac92-be42-43a2-9634-8b67c7fe93a7""}","https://test12345.live/?num_scrambled_semantic=8&num_scrambled_causal=4&num_scrambled_schematic=4&participantId=12C3E477AE1A410B94E12E5D7384F794&assignmentId=33af5214-77af-456e-8968-bec55cd6dd43&projectId=9076ac92-be42-43a2-9634-8b67c7fe93a7","12C3E477AE1A410B94E12E5D7384F794-2025-05-22-20-15-33","","null","","[]","null","",""
"","","","","","image-button-response","110","609811","0.0-14.0-1.0-0.6","12C3E477AE1A410B94E12E5D7384F794","12C3E477AE1A410B94E12E5D7384F794","33af5214-77af-456e-8968-bec55cd6dd43","9076ac92-be42-43a2-9634-8b67c7fe93a7","{""num_scrambled_semantic"":""8"",""num_scrambled_causal"":""4"",""num_scrambled_schematic"":""4"",""participantId"":""12C3E477AE1A410B94E12E5D7384F794"",""assignmentId"":""33af5214-77af-456e-8968-bec55cd6dd43"",""projectId"":""9076ac92-be42-43a2-9634-8b67c7fe93a7""}","https://test12345.live/?num_scrambled_semantic=8&num_scrambled_causal=4&num_scrambled_schematic=4&participantId=12C3E477AE1A410B94E12E5D7384F794&assignmentId=33af5214-77af-456e-8968-bec55cd6dd43&projectId=9076ac92-be42-43a2-9634-8b67c7fe93a7","12C3E477AE1A410B94E12E5D7384F794-2025-05-22-20-15-33","","null","","images/schematic_sequence/interview_scheme/interview_scheme_7.png","null","",""
"","","","","","image-button-response","111","611224","0.0-14.0-1.0-1.6","12C3E477AE1A410B94E12E5D7384F794","12C3E477AE1A410B94E12E5D7384F794","33af5214-77af-456e-8968-bec55cd6dd43","9076ac92-be42-43a2-9634-8b67c7fe93a7","{""num_scrambled_semantic"":""8"",""num_scrambled_causal"":""4"",""num_scrambled_schematic"":""4"",""participantId"":""12C3E477AE1A410B94E12E5D7384F794"",""assignmentId"":""33af5214-77af-456e-8968-bec55cd6dd43"",""projectId"":""9076ac92-be42-43a2-9634-8b67c7fe93a7""}","https://test12345.live/?num_scrambled_semantic=8&num_scrambled_causal=4&num_scrambled_schematic=4&participantId=12C3E477AE1A410B94E12E5D7384F794&assignmentId=33af5214-77af-456e-8968-bec55cd6dd43&projectId=9076ac92-be42-43a2-9634-8b67c7fe93a7","12C3E477AE1A410B94E12E5D7384F794-2025-05-22-20-15-33","","1410","","images/schematic_sequence/interview_scheme/interview_scheme_7.png","0","",""
"","","","","","image-button-response","112","613030","0.0-14.0-1.0-2.6","12C3E477AE1A410B94E12E5D7384F794","12C3E477AE1A410B94E12E5D7384F794","33af5214-77af-456e-8968-bec55cd6dd43","9076ac92-be42-43a2-9634-8b67c7fe93a7","{""num_scrambled_semantic"":""8"",""num_scrambled_causal"":""4"",""num_scrambled_schematic"":""4"",""participantId"":""12C3E477AE1A410B94E12E5D7384F794"",""assignmentId"":""33af5214-77af-456e-8968-bec55cd6dd43"",""projectId"":""9076ac92-be42-43a2-9634-8b67c7fe93a7""}","https://test12345.live/?num_scrambled_semantic=8&num_scrambled_causal=4&num_scrambled_schematic=4&participantId=12C3E477AE1A410B94E12E5D7384F794&assignmentId=33af5214-77af-456e-8968-bec55cd6dd43&projectId=9076ac92-be42-43a2-9634-8b67c7fe93a7","12C3E477AE1A410B94E12E5D7384F794-2025-05-22-20-15-33","","null","","[]","null","",""
"","","","","","image-button-response","113","617533","0.0-14.0-1.0-0.7","12C3E477AE1A410B94E12E5D7384F794","12C3E477AE1A410B94E12E5D7384F794","33af5214-77af-456e-8968-bec55cd6dd43","9076ac92-be42-43a2-9634-8b67c7fe93a7","{""num_scrambled_semantic"":""8"",""num_scrambled_causal"":""4"",""num_scrambled_schematic"":""4"",""participantId"":""12C3E477AE1A410B94E12E5D7384F794"",""assignmentId"":""33af5214-77af-456e-8968-bec55cd6dd43"",""projectId"":""9076ac92-be42-43a2-9634-8b67c7fe93a7""}","https://test12345.live/?num_scrambled_semantic=8&num_scrambled_causal=4&num_scrambled_schematic=4&participantId=12C3E477AE1A410B94E12E5D7384F794&assignmentId=33af5214-77af-456e-8968-bec55cd6dd43&projectId=9076ac92-be42-43a2-9634-8b67c7fe93a7","12C3E477AE1A410B94E12E5D7384F794-2025-05-22-20-15-33","","null","","images/schematic_sequence/interview_scheme/interview_scheme_8.png","null","",""
