"success","timeout","failed_images","failed_audio","failed_video","trial_type","trial_index","time_elapsed","internal_node_id","subject","subject_id","study_id","session_id","urlvar","current_url","audio_id","view_history","rt","device_id","stimulus","response","estimated_stimulus_onset","seq_name"
"true","false","[]","[]","[]","preload","0","2230","0.0-0.0","14138DFBEEC041E28E13E8465B16F76F","14138DFBEEC041E28E13E8465B16F76F","7fade5c3-8340-44b6-a417-6aac0de824b8","a0a8f18c-a66e-4ba7-a170-23efbdc67501","{""participantId"":""14138DFBEEC041E28E13E8465B16F76F"",""assignmentId"":""7fade5c3-8340-44b6-a417-6aac0de824b8"",""projectId"":""a0a8f18c-a66e-4ba7-a170-23efbdc67501""}","https://test12345.live/?participantId=14138DFBEEC041E28E13E8465B16F76F&assignmentId=7fade5c3-8340-44b6-a417-6aac0de824b8&projectId=a0a8f18c-a66e-4ba7-a170-23efbdc67501","14138DFBEEC041E28E13E8465B16F76F-2024-11-24-18-44-05","","","","","","",""
"","","","","","instructions","1","32501","0.0-1.0","14138DFBEEC041E28E13E8465B16F76F","14138DFBEEC041E28E13E8465B16F76F","7fade5c3-8340-44b6-a417-6aac0de824b8","a0a8f18c-a66e-4ba7-a170-23efbdc67501","{""participantId"":""14138DFBEEC041E28E13E8465B16F76F"",""assignmentId"":""7fade5c3-8340-44b6-a417-6aac0de824b8"",""projectId"":""a0a8f18c-a66e-4ba7-a170-23efbdc67501""}","https://test12345.live/?participantId=14138DFBEEC041E28E13E8465B16F76F&assignmentId=7fade5c3-8340-44b6-a417-6aac0de824b8&projectId=a0a8f18c-a66e-4ba7-a170-23efbdc67501","14138DFBEEC041E28E13E8465B16F76F-2024-11-24-18-44-05","[{""page_index"":0,""viewing_time"":30270}]","30271","","","","",""
"","","","","","instructions","2","65488","0.0-2.0","14138DFBEEC041E28E13E8465B16F76F","14138DFBEEC041E28E13E8465B16F76F","7fade5c3-8340-44b6-a417-6aac0de824b8","a0a8f18c-a66e-4ba7-a170-23efbdc67501","{""participantId"":""14138DFBEEC041E28E13E8465B16F76F"",""assignmentId"":""7fade5c3-8340-44b6-a417-6aac0de824b8"",""projectId"":""a0a8f18c-a66e-4ba7-a170-23efbdc67501""}","https://test12345.live/?participantId=14138DFBEEC041E28E13E8465B16F76F&assignmentId=7fade5c3-8340-44b6-a417-6aac0de824b8&projectId=a0a8f18c-a66e-4ba7-a170-23efbdc67501","14138DFBEEC041E28E13E8465B16F76F-2024-11-24-18-44-05","[{""page_index"":0,""viewing_time"":32985}]","32985","","","","",""
"true","","","","","fullscreen","3","83775","0.0-3.0","14138DFBEEC041E28E13E8465B16F76F","14138DFBEEC041E28E13E8465B16F76F","7fade5c3-8340-44b6-a417-6aac0de824b8","a0a8f18c-a66e-4ba7-a170-23efbdc67501","{""participantId"":""14138DFBEEC041E28E13E8465B16F76F"",""assignmentId"":""7fade5c3-8340-44b6-a417-6aac0de824b8"",""projectId"":""a0a8f18c-a66e-4ba7-a170-23efbdc67501""}","https://test12345.live/?participantId=14138DFBEEC041E28E13E8465B16F76F&assignmentId=7fade5c3-8340-44b6-a417-6aac0de824b8&projectId=a0a8f18c-a66e-4ba7-a170-23efbdc67501","14138DFBEEC041E28E13E8465B16F76F-2024-11-24-18-44-05","","17230","","","","",""
"","","","","","initialize-microphone","4","97203","0.0-4.0-0.0","14138DFBEEC041E28E13E8465B16F76F","14138DFBEEC041E28E13E8465B16F76F","7fade5c3-8340-44b6-a417-6aac0de824b8","a0a8f18c-a66e-4ba7-a170-23efbdc67501","{""participantId"":""14138DFBEEC041E28E13E8465B16F76F"",""assignmentId"":""7fade5c3-8340-44b6-a417-6aac0de824b8"",""projectId"":""a0a8f18c-a66e-4ba7-a170-23efbdc67501""}","https://test12345.live/?participantId=14138DFBEEC041E28E13E8465B16F76F&assignmentId=7fade5c3-8340-44b6-a417-6aac0de824b8&projectId=a0a8f18c-a66e-4ba7-a170-23efbdc67501","14138DFBEEC041E28E13E8465B16F76F-2024-11-24-18-44-05","","","WrG57bnTRZzLxBNAOIRGaU3knK26fKCl/hhQBeGsQO0=","","","",""
"","","","","","html-audio-response","5","122246","0.0-4.0-1.0","14138DFBEEC041E28E13E8465B16F76F","14138DFBEEC041E28E13E8465B16F76F","7fade5c3-8340-44b6-a417-6aac0de824b8","a0a8f18c-a66e-4ba7-a170-23efbdc67501","{""participantId"":""14138DFBEEC041E28E13E8465B16F76F"",""assignmentId"":""7fade5c3-8340-44b6-a417-6aac0de824b8"",""projectId"":""a0a8f18c-a66e-4ba7-a170-23efbdc67501""}","https://test12345.live/?participantId=14138DFBEEC041E28E13E8465B16F76F&assignmentId=7fade5c3-8340-44b6-a417-6aac0de824b8&projectId=a0a8f18c-a66e-4ba7-a170-23efbdc67501","14138DFBEEC041E28E13E8465B16F76F-2024-11-24-18-44-05","","3636","","<span style=""color: red; font-size: 24px""> NOW RECORDING</span>
        <p>Please test Microphone</p>","","3",""
"","","","","","html-button-response","6","125256","0.0-4.0-2.0","14138DFBEEC041E28E13E8465B16F76F","14138DFBEEC041E28E13E8465B16F76F","7fade5c3-8340-44b6-a417-6aac0de824b8","a0a8f18c-a66e-4ba7-a170-23efbdc67501","{""participantId"":""14138DFBEEC041E28E13E8465B16F76F"",""assignmentId"":""7fade5c3-8340-44b6-a417-6aac0de824b8"",""projectId"":""a0a8f18c-a66e-4ba7-a170-23efbdc67501""}","https://test12345.live/?participantId=14138DFBEEC041E28E13E8465B16F76F&assignmentId=7fade5c3-8340-44b6-a417-6aac0de824b8&projectId=a0a8f18c-a66e-4ba7-a170-23efbdc67501","14138DFBEEC041E28E13E8465B16F76F-2024-11-24-18-44-05","","3006","","<p style=""font-size:48px; color:red;"">Is Microphone OK?</p>","1","",""
"","","","","","instructions","7","153966","0.0-5.0","14138DFBEEC041E28E13E8465B16F76F","14138DFBEEC041E28E13E8465B16F76F","7fade5c3-8340-44b6-a417-6aac0de824b8","a0a8f18c-a66e-4ba7-a170-23efbdc67501","{""participantId"":""14138DFBEEC041E28E13E8465B16F76F"",""assignmentId"":""7fade5c3-8340-44b6-a417-6aac0de824b8"",""projectId"":""a0a8f18c-a66e-4ba7-a170-23efbdc67501""}","https://test12345.live/?participantId=14138DFBEEC041E28E13E8465B16F76F&assignmentId=7fade5c3-8340-44b6-a417-6aac0de824b8&projectId=a0a8f18c-a66e-4ba7-a170-23efbdc67501","14138DFBEEC041E28E13E8465B16F76F-2024-11-24-18-44-05","[{""page_index"":0,""viewing_time"":11356},{""page_index"":1,""viewing_time"":17351}]","28707","","","","",""
"","","","","","image-button-response","8","160004","0.0-6.0-0.0","14138DFBEEC041E28E13E8465B16F76F","14138DFBEEC041E28E13E8465B16F76F","7fade5c3-8340-44b6-a417-6aac0de824b8","a0a8f18c-a66e-4ba7-a170-23efbdc67501","{""participantId"":""14138DFBEEC041E28E13E8465B16F76F"",""assignmentId"":""7fade5c3-8340-44b6-a417-6aac0de824b8"",""projectId"":""a0a8f18c-a66e-4ba7-a170-23efbdc67501""}","https://test12345.live/?participantId=14138DFBEEC041E28E13E8465B16F76F&assignmentId=7fade5c3-8340-44b6-a417-6aac0de824b8&projectId=a0a8f18c-a66e-4ba7-a170-23efbdc67501","14138DFBEEC041E28E13E8465B16F76F-2024-11-24-18-44-05","","null","","images/instructions/movie_0.png","null","",""
"","","","","","image-button-response","9","164554","0.0-6.0-1.0-0.0","14138DFBEEC041E28E13E8465B16F76F","14138DFBEEC041E28E13E8465B16F76F","7fade5c3-8340-44b6-a417-6aac0de824b8","a0a8f18c-a66e-4ba7-a170-23efbdc67501","{""participantId"":""14138DFBEEC041E28E13E8465B16F76F"",""assignmentId"":""7fade5c3-8340-44b6-a417-6aac0de824b8"",""projectId"":""a0a8f18c-a66e-4ba7-a170-23efbdc67501""}","https://test12345.live/?participantId=14138DFBEEC041E28E13E8465B16F76F&assignmentId=7fade5c3-8340-44b6-a417-6aac0de824b8&projectId=a0a8f18c-a66e-4ba7-a170-23efbdc67501","14138DFBEEC041E28E13E8465B16F76F-2024-11-24-18-44-05","","null","","images/instructions/movie_1.png","null","",""
"","","","","","image-button-response","10","168573","0.0-6.0-1.0-1.0","14138DFBEEC041E28E13E8465B16F76F","14138DFBEEC041E28E13E8465B16F76F","7fade5c3-8340-44b6-a417-6aac0de824b8","a0a8f18c-a66e-4ba7-a170-23efbdc67501","{""participantId"":""14138DFBEEC041E28E13E8465B16F76F"",""assignmentId"":""7fade5c3-8340-44b6-a417-6aac0de824b8"",""projectId"":""a0a8f18c-a66e-4ba7-a170-23efbdc67501""}","https://test12345.live/?participantId=14138DFBEEC041E28E13E8465B16F76F&assignmentId=7fade5c3-8340-44b6-a417-6aac0de824b8&projectId=a0a8f18c-a66e-4ba7-a170-23efbdc67501","14138DFBEEC041E28E13E8465B16F76F-2024-11-24-18-44-05","","null","","images/instructions/movie_1.png","null","",""
"","","","","","image-button-response","11","170584","0.0-6.0-1.0-2.0","14138DFBEEC041E28E13E8465B16F76F","14138DFBEEC041E28E13E8465B16F76F","7fade5c3-8340-44b6-a417-6aac0de824b8","a0a8f18c-a66e-4ba7-a170-23efbdc67501","{""participantId"":""14138DFBEEC041E28E13E8465B16F76F"",""assignmentId"":""7fade5c3-8340-44b6-a417-6aac0de824b8"",""projectId"":""a0a8f18c-a66e-4ba7-a170-23efbdc67501""}","https://test12345.live/?participantId=14138DFBEEC041E28E13E8465B16F76F&assignmentId=7fade5c3-8340-44b6-a417-6aac0de824b8&projectId=a0a8f18c-a66e-4ba7-a170-23efbdc67501","14138DFBEEC041E28E13E8465B16F76F-2024-11-24-18-44-05","","null","","[]","null","",""
"","","","","","image-button-response","12","175130","0.0-6.0-1.0-0.1","14138DFBEEC041E28E13E8465B16F76F","14138DFBEEC041E28E13E8465B16F76F","7fade5c3-8340-44b6-a417-6aac0de824b8","a0a8f18c-a66e-4ba7-a170-23efbdc67501","{""participantId"":""14138DFBEEC041E28E13E8465B16F76F"",""assignmentId"":""7fade5c3-8340-44b6-a417-6aac0de824b8"",""projectId"":""a0a8f18c-a66e-4ba7-a170-23efbdc67501""}","https://test12345.live/?participantId=14138DFBEEC041E28E13E8465B16F76F&assignmentId=7fade5c3-8340-44b6-a417-6aac0de824b8&projectId=a0a8f18c-a66e-4ba7-a170-23efbdc67501","14138DFBEEC041E28E13E8465B16F76F-2024-11-24-18-44-05","","null","","images/instructions/movie_2.png","null","",""
"","","","","","image-button-response","13","176832","0.0-6.0-1.0-1.1","14138DFBEEC041E28E13E8465B16F76F","14138DFBEEC041E28E13E8465B16F76F","7fade5c3-8340-44b6-a417-6aac0de824b8","a0a8f18c-a66e-4ba7-a170-23efbdc67501","{""participantId"":""14138DFBEEC041E28E13E8465B16F76F"",""assignmentId"":""7fade5c3-8340-44b6-a417-6aac0de824b8"",""projectId"":""a0a8f18c-a66e-4ba7-a170-23efbdc67501""}","https://test12345.live/?participantId=14138DFBEEC041E28E13E8465B16F76F&assignmentId=7fade5c3-8340-44b6-a417-6aac0de824b8&projectId=a0a8f18c-a66e-4ba7-a170-23efbdc67501","14138DFBEEC041E28E13E8465B16F76F-2024-11-24-18-44-05","","1699","","images/instructions/movie_2.png","0","",""
"","","","","","image-button-response","14","178639","0.0-6.0-1.0-2.1","14138DFBEEC041E28E13E8465B16F76F","14138DFBEEC041E28E13E8465B16F76F","7fade5c3-8340-44b6-a417-6aac0de824b8","a0a8f18c-a66e-4ba7-a170-23efbdc67501","{""participantId"":""14138DFBEEC041E28E13E8465B16F76F"",""assignmentId"":""7fade5c3-8340-44b6-a417-6aac0de824b8"",""projectId"":""a0a8f18c-a66e-4ba7-a170-23efbdc67501""}","https://test12345.live/?participantId=14138DFBEEC041E28E13E8465B16F76F&assignmentId=7fade5c3-8340-44b6-a417-6aac0de824b8&projectId=a0a8f18c-a66e-4ba7-a170-23efbdc67501","14138DFBEEC041E28E13E8465B16F76F-2024-11-24-18-44-05","","null","","[]","null","",""
"","","","","","image-button-response","15","183585","0.0-6.0-1.0-0.2","14138DFBEEC041E28E13E8465B16F76F","14138DFBEEC041E28E13E8465B16F76F","7fade5c3-8340-44b6-a417-6aac0de824b8","a0a8f18c-a66e-4ba7-a170-23efbdc67501","{""participantId"":""14138DFBEEC041E28E13E8465B16F76F"",""assignmentId"":""7fade5c3-8340-44b6-a417-6aac0de824b8"",""projectId"":""a0a8f18c-a66e-4ba7-a170-23efbdc67501""}","https://test12345.live/?participantId=14138DFBEEC041E28E13E8465B16F76F&assignmentId=7fade5c3-8340-44b6-a417-6aac0de824b8&projectId=a0a8f18c-a66e-4ba7-a170-23efbdc67501","14138DFBEEC041E28E13E8465B16F76F-2024-11-24-18-44-05","","null","","images/instructions/movie_3.png","null","",""
"","","","","","image-button-response","16","184848","0.0-6.0-1.0-1.2","14138DFBEEC041E28E13E8465B16F76F","14138DFBEEC041E28E13E8465B16F76F","7fade5c3-8340-44b6-a417-6aac0de824b8","a0a8f18c-a66e-4ba7-a170-23efbdc67501","{""participantId"":""14138DFBEEC041E28E13E8465B16F76F"",""assignmentId"":""7fade5c3-8340-44b6-a417-6aac0de824b8"",""projectId"":""a0a8f18c-a66e-4ba7-a170-23efbdc67501""}","https://test12345.live/?participantId=14138DFBEEC041E28E13E8465B16F76F&assignmentId=7fade5c3-8340-44b6-a417-6aac0de824b8&projectId=a0a8f18c-a66e-4ba7-a170-23efbdc67501","14138DFBEEC041E28E13E8465B16F76F-2024-11-24-18-44-05","","1261","","images/instructions/movie_3.png","0","",""
"","","","","","image-button-response","17","186655","0.0-6.0-1.0-2.2","14138DFBEEC041E28E13E8465B16F76F","14138DFBEEC041E28E13E8465B16F76F","7fade5c3-8340-44b6-a417-6aac0de824b8","a0a8f18c-a66e-4ba7-a170-23efbdc67501","{""participantId"":""14138DFBEEC041E28E13E8465B16F76F"",""assignmentId"":""7fade5c3-8340-44b6-a417-6aac0de824b8"",""projectId"":""a0a8f18c-a66e-4ba7-a170-23efbdc67501""}","https://test12345.live/?participantId=14138DFBEEC041E28E13E8465B16F76F&assignmentId=7fade5c3-8340-44b6-a417-6aac0de824b8&projectId=a0a8f18c-a66e-4ba7-a170-23efbdc67501","14138DFBEEC041E28E13E8465B16F76F-2024-11-24-18-44-05","","null","","[]","null","",""
"","","","","","image-button-response","18","191451","0.0-6.0-1.0-0.3","14138DFBEEC041E28E13E8465B16F76F","14138DFBEEC041E28E13E8465B16F76F","7fade5c3-8340-44b6-a417-6aac0de824b8","a0a8f18c-a66e-4ba7-a170-23efbdc67501","{""participantId"":""14138DFBEEC041E28E13E8465B16F76F"",""assignmentId"":""7fade5c3-8340-44b6-a417-6aac0de824b8"",""projectId"":""a0a8f18c-a66e-4ba7-a170-23efbdc67501""}","https://test12345.live/?participantId=14138DFBEEC041E28E13E8465B16F76F&assignmentId=7fade5c3-8340-44b6-a417-6aac0de824b8&projectId=a0a8f18c-a66e-4ba7-a170-23efbdc67501","14138DFBEEC041E28E13E8465B16F76F-2024-11-24-18-44-05","","null","","images/instructions/movie_4.png","null","",""
"","","","","","image-button-response","19","192579","0.0-6.0-1.0-1.3","14138DFBEEC041E28E13E8465B16F76F","14138DFBEEC041E28E13E8465B16F76F","7fade5c3-8340-44b6-a417-6aac0de824b8","a0a8f18c-a66e-4ba7-a170-23efbdc67501","{""participantId"":""14138DFBEEC041E28E13E8465B16F76F"",""assignmentId"":""7fade5c3-8340-44b6-a417-6aac0de824b8"",""projectId"":""a0a8f18c-a66e-4ba7-a170-23efbdc67501""}","https://test12345.live/?participantId=14138DFBEEC041E28E13E8465B16F76F&assignmentId=7fade5c3-8340-44b6-a417-6aac0de824b8&projectId=a0a8f18c-a66e-4ba7-a170-23efbdc67501","14138DFBEEC041E28E13E8465B16F76F-2024-11-24-18-44-05","","1127","","images/instructions/movie_4.png","0","",""
"","","","","","image-button-response","20","194495","0.0-6.0-1.0-2.3","14138DFBEEC041E28E13E8465B16F76F","14138DFBEEC041E28E13E8465B16F76F","7fade5c3-8340-44b6-a417-6aac0de824b8","a0a8f18c-a66e-4ba7-a170-23efbdc67501","{""participantId"":""14138DFBEEC041E28E13E8465B16F76F"",""assignmentId"":""7fade5c3-8340-44b6-a417-6aac0de824b8"",""projectId"":""a0a8f18c-a66e-4ba7-a170-23efbdc67501""}","https://test12345.live/?participantId=14138DFBEEC041E28E13E8465B16F76F&assignmentId=7fade5c3-8340-44b6-a417-6aac0de824b8&projectId=a0a8f18c-a66e-4ba7-a170-23efbdc67501","14138DFBEEC041E28E13E8465B16F76F-2024-11-24-18-44-05","","null","","[]","null","",""
"","","","","","instructions","21","206486","0.0-7.0","14138DFBEEC041E28E13E8465B16F76F","14138DFBEEC041E28E13E8465B16F76F","7fade5c3-8340-44b6-a417-6aac0de824b8","a0a8f18c-a66e-4ba7-a170-23efbdc67501","{""participantId"":""14138DFBEEC041E28E13E8465B16F76F"",""assignmentId"":""7fade5c3-8340-44b6-a417-6aac0de824b8"",""projectId"":""a0a8f18c-a66e-4ba7-a170-23efbdc67501""}","https://test12345.live/?participantId=14138DFBEEC041E28E13E8465B16F76F&assignmentId=7fade5c3-8340-44b6-a417-6aac0de824b8&projectId=a0a8f18c-a66e-4ba7-a170-23efbdc67501","14138DFBEEC041E28E13E8465B16F76F-2024-11-24-18-44-05","[{""page_index"":0,""viewing_time"":10090},{""page_index"":1,""viewing_time"":1900}]","11990","","","","",""
"","","","","","html-audio-response","22","248400","0.0-8.0","14138DFBEEC041E28E13E8465B16F76F","14138DFBEEC041E28E13E8465B16F76F","7fade5c3-8340-44b6-a417-6aac0de824b8","a0a8f18c-a66e-4ba7-a170-23efbdc67501","{""participantId"":""14138DFBEEC041E28E13E8465B16F76F"",""assignmentId"":""7fade5c3-8340-44b6-a417-6aac0de824b8"",""projectId"":""a0a8f18c-a66e-4ba7-a170-23efbdc67501""}","https://test12345.live/?participantId=14138DFBEEC041E28E13E8465B16F76F&assignmentId=7fade5c3-8340-44b6-a417-6aac0de824b8&projectId=a0a8f18c-a66e-4ba7-a170-23efbdc67501","14138DFBEEC041E28E13E8465B16F76F-2024-11-24-18-44-05","","7420","","[""<span style=\""color: red; font-size: 24px\""> NOW RECORDING</span><p>Please say out loud all the images you saw, as many as you can remember. The images can be said in any order.</p>""]","","3",""
"","","","","","instructions","23","251404","0.0-9.0","14138DFBEEC041E28E13E8465B16F76F","14138DFBEEC041E28E13E8465B16F76F","7fade5c3-8340-44b6-a417-6aac0de824b8","a0a8f18c-a66e-4ba7-a170-23efbdc67501","{""participantId"":""14138DFBEEC041E28E13E8465B16F76F"",""assignmentId"":""7fade5c3-8340-44b6-a417-6aac0de824b8"",""projectId"":""a0a8f18c-a66e-4ba7-a170-23efbdc67501""}","https://test12345.live/?participantId=14138DFBEEC041E28E13E8465B16F76F&assignmentId=7fade5c3-8340-44b6-a417-6aac0de824b8&projectId=a0a8f18c-a66e-4ba7-a170-23efbdc67501","14138DFBEEC041E28E13E8465B16F76F-2024-11-24-18-44-05","[{""page_index"":0,""viewing_time"":2998}]","2999","","","","",""
"","","","","","image-button-response","24","257441","0.0-10.0-0.0","14138DFBEEC041E28E13E8465B16F76F","14138DFBEEC041E28E13E8465B16F76F","7fade5c3-8340-44b6-a417-6aac0de824b8","a0a8f18c-a66e-4ba7-a170-23efbdc67501","{""participantId"":""14138DFBEEC041E28E13E8465B16F76F"",""assignmentId"":""7fade5c3-8340-44b6-a417-6aac0de824b8"",""projectId"":""a0a8f18c-a66e-4ba7-a170-23efbdc67501""}","https://test12345.live/?participantId=14138DFBEEC041E28E13E8465B16F76F&assignmentId=7fade5c3-8340-44b6-a417-6aac0de824b8&projectId=a0a8f18c-a66e-4ba7-a170-23efbdc67501","14138DFBEEC041E28E13E8465B16F76F-2024-11-24-18-44-05","","null","","images/causal_sequence/saving_a_cat_causal/saving_a_cat_causal_0.png","null","",""
"","","","","","image-button-response","25","261987","0.0-10.0-1.0-0.0","14138DFBEEC041E28E13E8465B16F76F","14138DFBEEC041E28E13E8465B16F76F","7fade5c3-8340-44b6-a417-6aac0de824b8","a0a8f18c-a66e-4ba7-a170-23efbdc67501","{""participantId"":""14138DFBEEC041E28E13E8465B16F76F"",""assignmentId"":""7fade5c3-8340-44b6-a417-6aac0de824b8"",""projectId"":""a0a8f18c-a66e-4ba7-a170-23efbdc67501""}","https://test12345.live/?participantId=14138DFBEEC041E28E13E8465B16F76F&assignmentId=7fade5c3-8340-44b6-a417-6aac0de824b8&projectId=a0a8f18c-a66e-4ba7-a170-23efbdc67501","14138DFBEEC041E28E13E8465B16F76F-2024-11-24-18-44-05","","null","","images/causal_sequence/saving_a_cat_causal/saving_a_cat_causal_9.png","null","",""
"","","","","","image-button-response","26","263832","0.0-10.0-1.0-1.0","14138DFBEEC041E28E13E8465B16F76F","14138DFBEEC041E28E13E8465B16F76F","7fade5c3-8340-44b6-a417-6aac0de824b8","a0a8f18c-a66e-4ba7-a170-23efbdc67501","{""participantId"":""14138DFBEEC041E28E13E8465B16F76F"",""assignmentId"":""7fade5c3-8340-44b6-a417-6aac0de824b8"",""projectId"":""a0a8f18c-a66e-4ba7-a170-23efbdc67501""}","https://test12345.live/?participantId=14138DFBEEC041E28E13E8465B16F76F&assignmentId=7fade5c3-8340-44b6-a417-6aac0de824b8&projectId=a0a8f18c-a66e-4ba7-a170-23efbdc67501","14138DFBEEC041E28E13E8465B16F76F-2024-11-24-18-44-05","","1843","","images/causal_sequence/saving_a_cat_causal/saving_a_cat_causal_9.png","0","",""
"","","","","","image-button-response","27","265634","0.0-10.0-1.0-2.0","14138DFBEEC041E28E13E8465B16F76F","14138DFBEEC041E28E13E8465B16F76F","7fade5c3-8340-44b6-a417-6aac0de824b8","a0a8f18c-a66e-4ba7-a170-23efbdc67501","{""participantId"":""14138DFBEEC041E28E13E8465B16F76F"",""assignmentId"":""7fade5c3-8340-44b6-a417-6aac0de824b8"",""projectId"":""a0a8f18c-a66e-4ba7-a170-23efbdc67501""}","https://test12345.live/?participantId=14138DFBEEC041E28E13E8465B16F76F&assignmentId=7fade5c3-8340-44b6-a417-6aac0de824b8&projectId=a0a8f18c-a66e-4ba7-a170-23efbdc67501","14138DFBEEC041E28E13E8465B16F76F-2024-11-24-18-44-05","","null","","[]","null","",""
"","","","","","image-button-response","28","270371","0.0-10.0-1.0-0.1","14138DFBEEC041E28E13E8465B16F76F","14138DFBEEC041E28E13E8465B16F76F","7fade5c3-8340-44b6-a417-6aac0de824b8","a0a8f18c-a66e-4ba7-a170-23efbdc67501","{""participantId"":""14138DFBEEC041E28E13E8465B16F76F"",""assignmentId"":""7fade5c3-8340-44b6-a417-6aac0de824b8"",""projectId"":""a0a8f18c-a66e-4ba7-a170-23efbdc67501""}","https://test12345.live/?participantId=14138DFBEEC041E28E13E8465B16F76F&assignmentId=7fade5c3-8340-44b6-a417-6aac0de824b8&projectId=a0a8f18c-a66e-4ba7-a170-23efbdc67501","14138DFBEEC041E28E13E8465B16F76F-2024-11-24-18-44-05","","null","","images/causal_sequence/saving_a_cat_causal/saving_a_cat_causal_6.png","null","",""
"","","","","","image-button-response","29","271715","0.0-10.0-1.0-1.1","14138DFBEEC041E28E13E8465B16F76F","14138DFBEEC041E28E13E8465B16F76F","7fade5c3-8340-44b6-a417-6aac0de824b8","a0a8f18c-a66e-4ba7-a170-23efbdc67501","{""participantId"":""14138DFBEEC041E28E13E8465B16F76F"",""assignmentId"":""7fade5c3-8340-44b6-a417-6aac0de824b8"",""projectId"":""a0a8f18c-a66e-4ba7-a170-23efbdc67501""}","https://test12345.live/?participantId=14138DFBEEC041E28E13E8465B16F76F&assignmentId=7fade5c3-8340-44b6-a417-6aac0de824b8&projectId=a0a8f18c-a66e-4ba7-a170-23efbdc67501","14138DFBEEC041E28E13E8465B16F76F-2024-11-24-18-44-05","","1341","","images/causal_sequence/saving_a_cat_causal/saving_a_cat_causal_6.png","0","",""
"","","","","","image-button-response","30","273526","0.0-10.0-1.0-2.1","14138DFBEEC041E28E13E8465B16F76F","14138DFBEEC041E28E13E8465B16F76F","7fade5c3-8340-44b6-a417-6aac0de824b8","a0a8f18c-a66e-4ba7-a170-23efbdc67501","{""participantId"":""14138DFBEEC041E28E13E8465B16F76F"",""assignmentId"":""7fade5c3-8340-44b6-a417-6aac0de824b8"",""projectId"":""a0a8f18c-a66e-4ba7-a170-23efbdc67501""}","https://test12345.live/?participantId=14138DFBEEC041E28E13E8465B16F76F&assignmentId=7fade5c3-8340-44b6-a417-6aac0de824b8&projectId=a0a8f18c-a66e-4ba7-a170-23efbdc67501","14138DFBEEC041E28E13E8465B16F76F-2024-11-24-18-44-05","","null","","[]","null","",""
"","","","","","image-button-response","31","278085","0.0-10.0-1.0-0.2","14138DFBEEC041E28E13E8465B16F76F","14138DFBEEC041E28E13E8465B16F76F","7fade5c3-8340-44b6-a417-6aac0de824b8","a0a8f18c-a66e-4ba7-a170-23efbdc67501","{""participantId"":""14138DFBEEC041E28E13E8465B16F76F"",""assignmentId"":""7fade5c3-8340-44b6-a417-6aac0de824b8"",""projectId"":""a0a8f18c-a66e-4ba7-a170-23efbdc67501""}","https://test12345.live/?participantId=14138DFBEEC041E28E13E8465B16F76F&assignmentId=7fade5c3-8340-44b6-a417-6aac0de824b8&projectId=a0a8f18c-a66e-4ba7-a170-23efbdc67501","14138DFBEEC041E28E13E8465B16F76F-2024-11-24-18-44-05","","null","","images/causal_sequence/saving_a_cat_causal/saving_a_cat_causal_ten.png","null","",""
"","","","","","image-button-response","32","279165","0.0-10.0-1.0-1.2","14138DFBEEC041E28E13E8465B16F76F","14138DFBEEC041E28E13E8465B16F76F","7fade5c3-8340-44b6-a417-6aac0de824b8","a0a8f18c-a66e-4ba7-a170-23efbdc67501","{""participantId"":""14138DFBEEC041E28E13E8465B16F76F"",""assignmentId"":""7fade5c3-8340-44b6-a417-6aac0de824b8"",""projectId"":""a0a8f18c-a66e-4ba7-a170-23efbdc67501""}","https://test12345.live/?participantId=14138DFBEEC041E28E13E8465B16F76F&assignmentId=7fade5c3-8340-44b6-a417-6aac0de824b8&projectId=a0a8f18c-a66e-4ba7-a170-23efbdc67501","14138DFBEEC041E28E13E8465B16F76F-2024-11-24-18-44-05","","1079","","images/causal_sequence/saving_a_cat_causal/saving_a_cat_causal_ten.png","0","",""
"","","","","","image-button-response","33","281154","0.0-10.0-1.0-2.2","14138DFBEEC041E28E13E8465B16F76F","14138DFBEEC041E28E13E8465B16F76F","7fade5c3-8340-44b6-a417-6aac0de824b8","a0a8f18c-a66e-4ba7-a170-23efbdc67501","{""participantId"":""14138DFBEEC041E28E13E8465B16F76F"",""assignmentId"":""7fade5c3-8340-44b6-a417-6aac0de824b8"",""projectId"":""a0a8f18c-a66e-4ba7-a170-23efbdc67501""}","https://test12345.live/?participantId=14138DFBEEC041E28E13E8465B16F76F&assignmentId=7fade5c3-8340-44b6-a417-6aac0de824b8&projectId=a0a8f18c-a66e-4ba7-a170-23efbdc67501","14138DFBEEC041E28E13E8465B16F76F-2024-11-24-18-44-05","","null","","[]","null","",""
"","","","","","image-button-response","34","286186","0.0-10.0-1.0-0.3","14138DFBEEC041E28E13E8465B16F76F","14138DFBEEC041E28E13E8465B16F76F","7fade5c3-8340-44b6-a417-6aac0de824b8","a0a8f18c-a66e-4ba7-a170-23efbdc67501","{""participantId"":""14138DFBEEC041E28E13E8465B16F76F"",""assignmentId"":""7fade5c3-8340-44b6-a417-6aac0de824b8"",""projectId"":""a0a8f18c-a66e-4ba7-a170-23efbdc67501""}","https://test12345.live/?participantId=14138DFBEEC041E28E13E8465B16F76F&assignmentId=7fade5c3-8340-44b6-a417-6aac0de824b8&projectId=a0a8f18c-a66e-4ba7-a170-23efbdc67501","14138DFBEEC041E28E13E8465B16F76F-2024-11-24-18-44-05","","null","","images/causal_sequence/saving_a_cat_causal/saving_a_cat_causal_2.png","null","",""
"","","","","","image-button-response","35","287329","0.0-10.0-1.0-1.3","14138DFBEEC041E28E13E8465B16F76F","14138DFBEEC041E28E13E8465B16F76F","7fade5c3-8340-44b6-a417-6aac0de824b8","a0a8f18c-a66e-4ba7-a170-23efbdc67501","{""participantId"":""14138DFBEEC041E28E13E8465B16F76F"",""assignmentId"":""7fade5c3-8340-44b6-a417-6aac0de824b8"",""projectId"":""a0a8f18c-a66e-4ba7-a170-23efbdc67501""}","https://test12345.live/?participantId=14138DFBEEC041E28E13E8465B16F76F&assignmentId=7fade5c3-8340-44b6-a417-6aac0de824b8&projectId=a0a8f18c-a66e-4ba7-a170-23efbdc67501","14138DFBEEC041E28E13E8465B16F76F-2024-11-24-18-44-05","","1142","","images/causal_sequence/saving_a_cat_causal/saving_a_cat_causal_2.png","0","",""
"","","","","","image-button-response","36","289147","0.0-10.0-1.0-2.3","14138DFBEEC041E28E13E8465B16F76F","14138DFBEEC041E28E13E8465B16F76F","7fade5c3-8340-44b6-a417-6aac0de824b8","a0a8f18c-a66e-4ba7-a170-23efbdc67501","{""participantId"":""14138DFBEEC041E28E13E8465B16F76F"",""assignmentId"":""7fade5c3-8340-44b6-a417-6aac0de824b8"",""projectId"":""a0a8f18c-a66e-4ba7-a170-23efbdc67501""}","https://test12345.live/?participantId=14138DFBEEC041E28E13E8465B16F76F&assignmentId=7fade5c3-8340-44b6-a417-6aac0de824b8&projectId=a0a8f18c-a66e-4ba7-a170-23efbdc67501","14138DFBEEC041E28E13E8465B16F76F-2024-11-24-18-44-05","","null","","[]","null","",""
"","","","","","image-button-response","37","294152","0.0-10.0-1.0-0.4","14138DFBEEC041E28E13E8465B16F76F","14138DFBEEC041E28E13E8465B16F76F","7fade5c3-8340-44b6-a417-6aac0de824b8","a0a8f18c-a66e-4ba7-a170-23efbdc67501","{""participantId"":""14138DFBEEC041E28E13E8465B16F76F"",""assignmentId"":""7fade5c3-8340-44b6-a417-6aac0de824b8"",""projectId"":""a0a8f18c-a66e-4ba7-a170-23efbdc67501""}","https://test12345.live/?participantId=14138DFBEEC041E28E13E8465B16F76F&assignmentId=7fade5c3-8340-44b6-a417-6aac0de824b8&projectId=a0a8f18c-a66e-4ba7-a170-23efbdc67501","14138DFBEEC041E28E13E8465B16F76F-2024-11-24-18-44-05","","null","","images/causal_sequence/saving_a_cat_causal/saving_a_cat_causal_3.png","null","",""
"","","","","","image-button-response","38","296636","0.0-10.0-1.0-1.4","14138DFBEEC041E28E13E8465B16F76F","14138DFBEEC041E28E13E8465B16F76F","7fade5c3-8340-44b6-a417-6aac0de824b8","a0a8f18c-a66e-4ba7-a170-23efbdc67501","{""participantId"":""14138DFBEEC041E28E13E8465B16F76F"",""assignmentId"":""7fade5c3-8340-44b6-a417-6aac0de824b8"",""projectId"":""a0a8f18c-a66e-4ba7-a170-23efbdc67501""}","https://test12345.live/?participantId=14138DFBEEC041E28E13E8465B16F76F&assignmentId=7fade5c3-8340-44b6-a417-6aac0de824b8&projectId=a0a8f18c-a66e-4ba7-a170-23efbdc67501","14138DFBEEC041E28E13E8465B16F76F-2024-11-24-18-44-05","","2481","","images/causal_sequence/saving_a_cat_causal/saving_a_cat_causal_3.png","1","",""
"","","","","","image-button-response","39","298443","0.0-10.0-1.0-2.4","14138DFBEEC041E28E13E8465B16F76F","14138DFBEEC041E28E13E8465B16F76F","7fade5c3-8340-44b6-a417-6aac0de824b8","a0a8f18c-a66e-4ba7-a170-23efbdc67501","{""participantId"":""14138DFBEEC041E28E13E8465B16F76F"",""assignmentId"":""7fade5c3-8340-44b6-a417-6aac0de824b8"",""projectId"":""a0a8f18c-a66e-4ba7-a170-23efbdc67501""}","https://test12345.live/?participantId=14138DFBEEC041E28E13E8465B16F76F&assignmentId=7fade5c3-8340-44b6-a417-6aac0de824b8&projectId=a0a8f18c-a66e-4ba7-a170-23efbdc67501","14138DFBEEC041E28E13E8465B16F76F-2024-11-24-18-44-05","","null","","[]","null","",""
"","","","","","image-button-response","40","303002","0.0-10.0-1.0-0.5","14138DFBEEC041E28E13E8465B16F76F","14138DFBEEC041E28E13E8465B16F76F","7fade5c3-8340-44b6-a417-6aac0de824b8","a0a8f18c-a66e-4ba7-a170-23efbdc67501","{""participantId"":""14138DFBEEC041E28E13E8465B16F76F"",""assignmentId"":""7fade5c3-8340-44b6-a417-6aac0de824b8"",""projectId"":""a0a8f18c-a66e-4ba7-a170-23efbdc67501""}","https://test12345.live/?participantId=14138DFBEEC041E28E13E8465B16F76F&assignmentId=7fade5c3-8340-44b6-a417-6aac0de824b8&projectId=a0a8f18c-a66e-4ba7-a170-23efbdc67501","14138DFBEEC041E28E13E8465B16F76F-2024-11-24-18-44-05","","null","","images/causal_sequence/saving_a_cat_causal/saving_a_cat_causal_1.png","null","",""
"","","","","","image-button-response","41","304804","0.0-10.0-1.0-1.5","14138DFBEEC041E28E13E8465B16F76F","14138DFBEEC041E28E13E8465B16F76F","7fade5c3-8340-44b6-a417-6aac0de824b8","a0a8f18c-a66e-4ba7-a170-23efbdc67501","{""participantId"":""14138DFBEEC041E28E13E8465B16F76F"",""assignmentId"":""7fade5c3-8340-44b6-a417-6aac0de824b8"",""projectId"":""a0a8f18c-a66e-4ba7-a170-23efbdc67501""}","https://test12345.live/?participantId=14138DFBEEC041E28E13E8465B16F76F&assignmentId=7fade5c3-8340-44b6-a417-6aac0de824b8&projectId=a0a8f18c-a66e-4ba7-a170-23efbdc67501","14138DFBEEC041E28E13E8465B16F76F-2024-11-24-18-44-05","","1799","","images/causal_sequence/saving_a_cat_causal/saving_a_cat_causal_1.png","0","",""
"","","","","","image-button-response","42","306620","0.0-10.0-1.0-2.5","14138DFBEEC041E28E13E8465B16F76F","14138DFBEEC041E28E13E8465B16F76F","7fade5c3-8340-44b6-a417-6aac0de824b8","a0a8f18c-a66e-4ba7-a170-23efbdc67501","{""participantId"":""14138DFBEEC041E28E13E8465B16F76F"",""assignmentId"":""7fade5c3-8340-44b6-a417-6aac0de824b8"",""projectId"":""a0a8f18c-a66e-4ba7-a170-23efbdc67501""}","https://test12345.live/?participantId=14138DFBEEC041E28E13E8465B16F76F&assignmentId=7fade5c3-8340-44b6-a417-6aac0de824b8&projectId=a0a8f18c-a66e-4ba7-a170-23efbdc67501","14138DFBEEC041E28E13E8465B16F76F-2024-11-24-18-44-05","","null","","[]","null","",""
"","","","","","image-button-response","43","311168","0.0-10.0-1.0-0.6","14138DFBEEC041E28E13E8465B16F76F","14138DFBEEC041E28E13E8465B16F76F","7fade5c3-8340-44b6-a417-6aac0de824b8","a0a8f18c-a66e-4ba7-a170-23efbdc67501","{""participantId"":""14138DFBEEC041E28E13E8465B16F76F"",""assignmentId"":""7fade5c3-8340-44b6-a417-6aac0de824b8"",""projectId"":""a0a8f18c-a66e-4ba7-a170-23efbdc67501""}","https://test12345.live/?participantId=14138DFBEEC041E28E13E8465B16F76F&assignmentId=7fade5c3-8340-44b6-a417-6aac0de824b8&projectId=a0a8f18c-a66e-4ba7-a170-23efbdc67501","14138DFBEEC041E28E13E8465B16F76F-2024-11-24-18-44-05","","null","","images/causal_sequence/saving_a_cat_causal/saving_a_cat_causal_4.png","null","",""
"","","","","","image-button-response","44","312872","0.0-10.0-1.0-1.6","14138DFBEEC041E28E13E8465B16F76F","14138DFBEEC041E28E13E8465B16F76F","7fade5c3-8340-44b6-a417-6aac0de824b8","a0a8f18c-a66e-4ba7-a170-23efbdc67501","{""participantId"":""14138DFBEEC041E28E13E8465B16F76F"",""assignmentId"":""7fade5c3-8340-44b6-a417-6aac0de824b8"",""projectId"":""a0a8f18c-a66e-4ba7-a170-23efbdc67501""}","https://test12345.live/?participantId=14138DFBEEC041E28E13E8465B16F76F&assignmentId=7fade5c3-8340-44b6-a417-6aac0de824b8&projectId=a0a8f18c-a66e-4ba7-a170-23efbdc67501","14138DFBEEC041E28E13E8465B16F76F-2024-11-24-18-44-05","","1702","","images/causal_sequence/saving_a_cat_causal/saving_a_cat_causal_4.png","0","",""
"","","","","","image-button-response","45","314703","0.0-10.0-1.0-2.6","14138DFBEEC041E28E13E8465B16F76F","14138DFBEEC041E28E13E8465B16F76F","7fade5c3-8340-44b6-a417-6aac0de824b8","a0a8f18c-a66e-4ba7-a170-23efbdc67501","{""participantId"":""14138DFBEEC041E28E13E8465B16F76F"",""assignmentId"":""7fade5c3-8340-44b6-a417-6aac0de824b8"",""projectId"":""a0a8f18c-a66e-4ba7-a170-23efbdc67501""}","https://test12345.live/?participantId=14138DFBEEC041E28E13E8465B16F76F&assignmentId=7fade5c3-8340-44b6-a417-6aac0de824b8&projectId=a0a8f18c-a66e-4ba7-a170-23efbdc67501","14138DFBEEC041E28E13E8465B16F76F-2024-11-24-18-44-05","","null","","[]","null","",""
"","","","","","image-button-response","46","319429","0.0-10.0-1.0-0.7","14138DFBEEC041E28E13E8465B16F76F","14138DFBEEC041E28E13E8465B16F76F","7fade5c3-8340-44b6-a417-6aac0de824b8","a0a8f18c-a66e-4ba7-a170-23efbdc67501","{""participantId"":""14138DFBEEC041E28E13E8465B16F76F"",""assignmentId"":""7fade5c3-8340-44b6-a417-6aac0de824b8"",""projectId"":""a0a8f18c-a66e-4ba7-a170-23efbdc67501""}","https://test12345.live/?participantId=14138DFBEEC041E28E13E8465B16F76F&assignmentId=7fade5c3-8340-44b6-a417-6aac0de824b8&projectId=a0a8f18c-a66e-4ba7-a170-23efbdc67501","14138DFBEEC041E28E13E8465B16F76F-2024-11-24-18-44-05","","null","","images/causal_sequence/saving_a_cat_causal/saving_a_cat_causal_5.png","null","",""
"","","","","","image-button-response","47","321428","0.0-10.0-1.0-1.7","14138DFBEEC041E28E13E8465B16F76F","14138DFBEEC041E28E13E8465B16F76F","7fade5c3-8340-44b6-a417-6aac0de824b8","a0a8f18c-a66e-4ba7-a170-23efbdc67501","{""participantId"":""14138DFBEEC041E28E13E8465B16F76F"",""assignmentId"":""7fade5c3-8340-44b6-a417-6aac0de824b8"",""projectId"":""a0a8f18c-a66e-4ba7-a170-23efbdc67501""}","https://test12345.live/?participantId=14138DFBEEC041E28E13E8465B16F76F&assignmentId=7fade5c3-8340-44b6-a417-6aac0de824b8&projectId=a0a8f18c-a66e-4ba7-a170-23efbdc67501","14138DFBEEC041E28E13E8465B16F76F-2024-11-24-18-44-05","","1999","","images/causal_sequence/saving_a_cat_causal/saving_a_cat_causal_5.png","0","",""
"","","","","","image-button-response","48","323231","0.0-10.0-1.0-2.7","14138DFBEEC041E28E13E8465B16F76F","14138DFBEEC041E28E13E8465B16F76F","7fade5c3-8340-44b6-a417-6aac0de824b8","a0a8f18c-a66e-4ba7-a170-23efbdc67501","{""participantId"":""14138DFBEEC041E28E13E8465B16F76F"",""assignmentId"":""7fade5c3-8340-44b6-a417-6aac0de824b8"",""projectId"":""a0a8f18c-a66e-4ba7-a170-23efbdc67501""}","https://test12345.live/?participantId=14138DFBEEC041E28E13E8465B16F76F&assignmentId=7fade5c3-8340-44b6-a417-6aac0de824b8&projectId=a0a8f18c-a66e-4ba7-a170-23efbdc67501","14138DFBEEC041E28E13E8465B16F76F-2024-11-24-18-44-05","","null","","[]","null","",""
"","","","","","image-button-response","49","327963","0.0-10.0-1.0-0.8","14138DFBEEC041E28E13E8465B16F76F","14138DFBEEC041E28E13E8465B16F76F","7fade5c3-8340-44b6-a417-6aac0de824b8","a0a8f18c-a66e-4ba7-a170-23efbdc67501","{""participantId"":""14138DFBEEC041E28E13E8465B16F76F"",""assignmentId"":""7fade5c3-8340-44b6-a417-6aac0de824b8"",""projectId"":""a0a8f18c-a66e-4ba7-a170-23efbdc67501""}","https://test12345.live/?participantId=14138DFBEEC041E28E13E8465B16F76F&assignmentId=7fade5c3-8340-44b6-a417-6aac0de824b8&projectId=a0a8f18c-a66e-4ba7-a170-23efbdc67501","14138DFBEEC041E28E13E8465B16F76F-2024-11-24-18-44-05","","null","","images/causal_sequence/saving_a_cat_causal/saving_a_cat_causal_7.png","null","",""
"","","","","","image-button-response","50","329307","0.0-10.0-1.0-1.8","14138DFBEEC041E28E13E8465B16F76F","14138DFBEEC041E28E13E8465B16F76F","7fade5c3-8340-44b6-a417-6aac0de824b8","a0a8f18c-a66e-4ba7-a170-23efbdc67501","{""participantId"":""14138DFBEEC041E28E13E8465B16F76F"",""assignmentId"":""7fade5c3-8340-44b6-a417-6aac0de824b8"",""projectId"":""a0a8f18c-a66e-4ba7-a170-23efbdc67501""}","https://test12345.live/?participantId=14138DFBEEC041E28E13E8465B16F76F&assignmentId=7fade5c3-8340-44b6-a417-6aac0de824b8&projectId=a0a8f18c-a66e-4ba7-a170-23efbdc67501","14138DFBEEC041E28E13E8465B16F76F-2024-11-24-18-44-05","","1342","","images/causal_sequence/saving_a_cat_causal/saving_a_cat_causal_7.png","0","",""
"","","","","","image-button-response","51","331125","0.0-10.0-1.0-2.8","14138DFBEEC041E28E13E8465B16F76F","14138DFBEEC041E28E13E8465B16F76F","7fade5c3-8340-44b6-a417-6aac0de824b8","a0a8f18c-a66e-4ba7-a170-23efbdc67501","{""participantId"":""14138DFBEEC041E28E13E8465B16F76F"",""assignmentId"":""7fade5c3-8340-44b6-a417-6aac0de824b8"",""projectId"":""a0a8f18c-a66e-4ba7-a170-23efbdc67501""}","https://test12345.live/?participantId=14138DFBEEC041E28E13E8465B16F76F&assignmentId=7fade5c3-8340-44b6-a417-6aac0de824b8&projectId=a0a8f18c-a66e-4ba7-a170-23efbdc67501","14138DFBEEC041E28E13E8465B16F76F-2024-11-24-18-44-05","","null","","[]","null","",""
"","","","","","image-button-response","52","335994","0.0-10.0-1.0-0.9","14138DFBEEC041E28E13E8465B16F76F","14138DFBEEC041E28E13E8465B16F76F","7fade5c3-8340-44b6-a417-6aac0de824b8","a0a8f18c-a66e-4ba7-a170-23efbdc67501","{""participantId"":""14138DFBEEC041E28E13E8465B16F76F"",""assignmentId"":""7fade5c3-8340-44b6-a417-6aac0de824b8"",""projectId"":""a0a8f18c-a66e-4ba7-a170-23efbdc67501""}","https://test12345.live/?participantId=14138DFBEEC041E28E13E8465B16F76F&assignmentId=7fade5c3-8340-44b6-a417-6aac0de824b8&projectId=a0a8f18c-a66e-4ba7-a170-23efbdc67501","14138DFBEEC041E28E13E8465B16F76F-2024-11-24-18-44-05","","null","","images/causal_sequence/saving_a_cat_causal/saving_a_cat_causal_8.png","null","",""
"","","","","","image-button-response","53","336946","0.0-10.0-1.0-1.9","14138DFBEEC041E28E13E8465B16F76F","14138DFBEEC041E28E13E8465B16F76F","7fade5c3-8340-44b6-a417-6aac0de824b8","a0a8f18c-a66e-4ba7-a170-23efbdc67501","{""participantId"":""14138DFBEEC041E28E13E8465B16F76F"",""assignmentId"":""7fade5c3-8340-44b6-a417-6aac0de824b8"",""projectId"":""a0a8f18c-a66e-4ba7-a170-23efbdc67501""}","https://test12345.live/?participantId=14138DFBEEC041E28E13E8465B16F76F&assignmentId=7fade5c3-8340-44b6-a417-6aac0de824b8&projectId=a0a8f18c-a66e-4ba7-a170-23efbdc67501","14138DFBEEC041E28E13E8465B16F76F-2024-11-24-18-44-05","","952","","images/causal_sequence/saving_a_cat_causal/saving_a_cat_causal_8.png","0","",""
"","","","","","image-button-response","54","338761","0.0-10.0-1.0-2.9","14138DFBEEC041E28E13E8465B16F76F","14138DFBEEC041E28E13E8465B16F76F","7fade5c3-8340-44b6-a417-6aac0de824b8","a0a8f18c-a66e-4ba7-a170-23efbdc67501","{""participantId"":""14138DFBEEC041E28E13E8465B16F76F"",""assignmentId"":""7fade5c3-8340-44b6-a417-6aac0de824b8"",""projectId"":""a0a8f18c-a66e-4ba7-a170-23efbdc67501""}","https://test12345.live/?participantId=14138DFBEEC041E28E13E8465B16F76F&assignmentId=7fade5c3-8340-44b6-a417-6aac0de824b8&projectId=a0a8f18c-a66e-4ba7-a170-23efbdc67501","14138DFBEEC041E28E13E8465B16F76F-2024-11-24-18-44-05","","null","","[]","null","",""
"","","","","","html-audio-response","55","392732","0.0-11.0","14138DFBEEC041E28E13E8465B16F76F","14138DFBEEC041E28E13E8465B16F76F","7fade5c3-8340-44b6-a417-6aac0de824b8","a0a8f18c-a66e-4ba7-a170-23efbdc67501","{""participantId"":""14138DFBEEC041E28E13E8465B16F76F"",""assignmentId"":""7fade5c3-8340-44b6-a417-6aac0de824b8"",""projectId"":""a0a8f18c-a66e-4ba7-a170-23efbdc67501""}","https://test12345.live/?participantId=14138DFBEEC041E28E13E8465B16F76F&assignmentId=7fade5c3-8340-44b6-a417-6aac0de824b8&projectId=a0a8f18c-a66e-4ba7-a170-23efbdc67501","14138DFBEEC041E28E13E8465B16F76F-2024-11-24-18-44-05","","19907","","[""<span style=\""color: red; font-size: 24px\""> NOW RECORDING</span><p>Please say out loud all the images you saw, as many as you can remember. The images can be said in any order.</p>""]","","1","saving_a_cat_causal"
"","","","","","image-button-response","56","399397","0.0-12.0-0.0","14138DFBEEC041E28E13E8465B16F76F","14138DFBEEC041E28E13E8465B16F76F","7fade5c3-8340-44b6-a417-6aac0de824b8","a0a8f18c-a66e-4ba7-a170-23efbdc67501","{""participantId"":""14138DFBEEC041E28E13E8465B16F76F"",""assignmentId"":""7fade5c3-8340-44b6-a417-6aac0de824b8"",""projectId"":""a0a8f18c-a66e-4ba7-a170-23efbdc67501""}","https://test12345.live/?participantId=14138DFBEEC041E28E13E8465B16F76F&assignmentId=7fade5c3-8340-44b6-a417-6aac0de824b8&projectId=a0a8f18c-a66e-4ba7-a170-23efbdc67501","14138DFBEEC041E28E13E8465B16F76F-2024-11-24-18-44-05","","null","","images/schematic_sequence/restaurant_scheme/restaurant_scheme_0.png","null","",""
"","","","","","image-button-response","57","403938","0.0-12.0-1.0-0.0","14138DFBEEC041E28E13E8465B16F76F","14138DFBEEC041E28E13E8465B16F76F","7fade5c3-8340-44b6-a417-6aac0de824b8","a0a8f18c-a66e-4ba7-a170-23efbdc67501","{""participantId"":""14138DFBEEC041E28E13E8465B16F76F"",""assignmentId"":""7fade5c3-8340-44b6-a417-6aac0de824b8"",""projectId"":""a0a8f18c-a66e-4ba7-a170-23efbdc67501""}","https://test12345.live/?participantId=14138DFBEEC041E28E13E8465B16F76F&assignmentId=7fade5c3-8340-44b6-a417-6aac0de824b8&projectId=a0a8f18c-a66e-4ba7-a170-23efbdc67501","14138DFBEEC041E28E13E8465B16F76F-2024-11-24-18-44-05","","null","","images/schematic_sequence/restaurant_scheme/restaurant_scheme_1.png","null","",""
"","","","","","image-button-response","58","406308","0.0-12.0-1.0-1.0","14138DFBEEC041E28E13E8465B16F76F","14138DFBEEC041E28E13E8465B16F76F","7fade5c3-8340-44b6-a417-6aac0de824b8","a0a8f18c-a66e-4ba7-a170-23efbdc67501","{""participantId"":""14138DFBEEC041E28E13E8465B16F76F"",""assignmentId"":""7fade5c3-8340-44b6-a417-6aac0de824b8"",""projectId"":""a0a8f18c-a66e-4ba7-a170-23efbdc67501""}","https://test12345.live/?participantId=14138DFBEEC041E28E13E8465B16F76F&assignmentId=7fade5c3-8340-44b6-a417-6aac0de824b8&projectId=a0a8f18c-a66e-4ba7-a170-23efbdc67501","14138DFBEEC041E28E13E8465B16F76F-2024-11-24-18-44-05","","2364","","images/schematic_sequence/restaurant_scheme/restaurant_scheme_1.png","0","",""
"","","","","","image-button-response","59","408277","0.0-12.0-1.0-2.0","14138DFBEEC041E28E13E8465B16F76F","14138DFBEEC041E28E13E8465B16F76F","7fade5c3-8340-44b6-a417-6aac0de824b8","a0a8f18c-a66e-4ba7-a170-23efbdc67501","{""participantId"":""14138DFBEEC041E28E13E8465B16F76F"",""assignmentId"":""7fade5c3-8340-44b6-a417-6aac0de824b8"",""projectId"":""a0a8f18c-a66e-4ba7-a170-23efbdc67501""}","https://test12345.live/?participantId=14138DFBEEC041E28E13E8465B16F76F&assignmentId=7fade5c3-8340-44b6-a417-6aac0de824b8&projectId=a0a8f18c-a66e-4ba7-a170-23efbdc67501","14138DFBEEC041E28E13E8465B16F76F-2024-11-24-18-44-05","","null","","[]","null","",""
"","","","","","image-button-response","60","412817","0.0-12.0-1.0-0.1","14138DFBEEC041E28E13E8465B16F76F","14138DFBEEC041E28E13E8465B16F76F","7fade5c3-8340-44b6-a417-6aac0de824b8","a0a8f18c-a66e-4ba7-a170-23efbdc67501","{""participantId"":""14138DFBEEC041E28E13E8465B16F76F"",""assignmentId"":""7fade5c3-8340-44b6-a417-6aac0de824b8"",""projectId"":""a0a8f18c-a66e-4ba7-a170-23efbdc67501""}","https://test12345.live/?participantId=14138DFBEEC041E28E13E8465B16F76F&assignmentId=7fade5c3-8340-44b6-a417-6aac0de824b8&projectId=a0a8f18c-a66e-4ba7-a170-23efbdc67501","14138DFBEEC041E28E13E8465B16F76F-2024-11-24-18-44-05","","null","","images/schematic_sequence/restaurant_scheme/restaurant_scheme_2.png","null","",""
"","","","","","image-button-response","61","414291","0.0-12.0-1.0-1.1","14138DFBEEC041E28E13E8465B16F76F","14138DFBEEC041E28E13E8465B16F76F","7fade5c3-8340-44b6-a417-6aac0de824b8","a0a8f18c-a66e-4ba7-a170-23efbdc67501","{""participantId"":""14138DFBEEC041E28E13E8465B16F76F"",""assignmentId"":""7fade5c3-8340-44b6-a417-6aac0de824b8"",""projectId"":""a0a8f18c-a66e-4ba7-a170-23efbdc67501""}","https://test12345.live/?participantId=14138DFBEEC041E28E13E8465B16F76F&assignmentId=7fade5c3-8340-44b6-a417-6aac0de824b8&projectId=a0a8f18c-a66e-4ba7-a170-23efbdc67501","14138DFBEEC041E28E13E8465B16F76F-2024-11-24-18-44-05","","1472","","images/schematic_sequence/restaurant_scheme/restaurant_scheme_2.png","0","",""
"","","","","","image-button-response","62","416101","0.0-12.0-1.0-2.1","14138DFBEEC041E28E13E8465B16F76F","14138DFBEEC041E28E13E8465B16F76F","7fade5c3-8340-44b6-a417-6aac0de824b8","a0a8f18c-a66e-4ba7-a170-23efbdc67501","{""participantId"":""14138DFBEEC041E28E13E8465B16F76F"",""assignmentId"":""7fade5c3-8340-44b6-a417-6aac0de824b8"",""projectId"":""a0a8f18c-a66e-4ba7-a170-23efbdc67501""}","https://test12345.live/?participantId=14138DFBEEC041E28E13E8465B16F76F&assignmentId=7fade5c3-8340-44b6-a417-6aac0de824b8&projectId=a0a8f18c-a66e-4ba7-a170-23efbdc67501","14138DFBEEC041E28E13E8465B16F76F-2024-11-24-18-44-05","","null","","[]","null","",""
"","","","","","image-button-response","63","420846","0.0-12.0-1.0-0.2","14138DFBEEC041E28E13E8465B16F76F","14138DFBEEC041E28E13E8465B16F76F","7fade5c3-8340-44b6-a417-6aac0de824b8","a0a8f18c-a66e-4ba7-a170-23efbdc67501","{""participantId"":""14138DFBEEC041E28E13E8465B16F76F"",""assignmentId"":""7fade5c3-8340-44b6-a417-6aac0de824b8"",""projectId"":""a0a8f18c-a66e-4ba7-a170-23efbdc67501""}","https://test12345.live/?participantId=14138DFBEEC041E28E13E8465B16F76F&assignmentId=7fade5c3-8340-44b6-a417-6aac0de824b8&projectId=a0a8f18c-a66e-4ba7-a170-23efbdc67501","14138DFBEEC041E28E13E8465B16F76F-2024-11-24-18-44-05","","null","","images/schematic_sequence/restaurant_scheme/restaurant_scheme_3.png","null","",""
"","","","","","image-button-response","64","421894","0.0-12.0-1.0-1.2","14138DFBEEC041E28E13E8465B16F76F","14138DFBEEC041E28E13E8465B16F76F","7fade5c3-8340-44b6-a417-6aac0de824b8","a0a8f18c-a66e-4ba7-a170-23efbdc67501","{""participantId"":""14138DFBEEC041E28E13E8465B16F76F"",""assignmentId"":""7fade5c3-8340-44b6-a417-6aac0de824b8"",""projectId"":""a0a8f18c-a66e-4ba7-a170-23efbdc67501""}","https://test12345.live/?participantId=14138DFBEEC041E28E13E8465B16F76F&assignmentId=7fade5c3-8340-44b6-a417-6aac0de824b8&projectId=a0a8f18c-a66e-4ba7-a170-23efbdc67501","14138DFBEEC041E28E13E8465B16F76F-2024-11-24-18-44-05","","1045","","images/schematic_sequence/restaurant_scheme/restaurant_scheme_3.png","1","",""
"","","","","","image-button-response","65","423712","0.0-12.0-1.0-2.2","14138DFBEEC041E28E13E8465B16F76F","14138DFBEEC041E28E13E8465B16F76F","7fade5c3-8340-44b6-a417-6aac0de824b8","a0a8f18c-a66e-4ba7-a170-23efbdc67501","{""participantId"":""14138DFBEEC041E28E13E8465B16F76F"",""assignmentId"":""7fade5c3-8340-44b6-a417-6aac0de824b8"",""projectId"":""a0a8f18c-a66e-4ba7-a170-23efbdc67501""}","https://test12345.live/?participantId=14138DFBEEC041E28E13E8465B16F76F&assignmentId=7fade5c3-8340-44b6-a417-6aac0de824b8&projectId=a0a8f18c-a66e-4ba7-a170-23efbdc67501","14138DFBEEC041E28E13E8465B16F76F-2024-11-24-18-44-05","","null","","[]","null","",""
"","","","","","image-button-response","66","428261","0.0-12.0-1.0-0.3","14138DFBEEC041E28E13E8465B16F76F","14138DFBEEC041E28E13E8465B16F76F","7fade5c3-8340-44b6-a417-6aac0de824b8","a0a8f18c-a66e-4ba7-a170-23efbdc67501","{""participantId"":""14138DFBEEC041E28E13E8465B16F76F"",""assignmentId"":""7fade5c3-8340-44b6-a417-6aac0de824b8"",""projectId"":""a0a8f18c-a66e-4ba7-a170-23efbdc67501""}","https://test12345.live/?participantId=14138DFBEEC041E28E13E8465B16F76F&assignmentId=7fade5c3-8340-44b6-a417-6aac0de824b8&projectId=a0a8f18c-a66e-4ba7-a170-23efbdc67501","14138DFBEEC041E28E13E8465B16F76F-2024-11-24-18-44-05","","null","","images/schematic_sequence/restaurant_scheme/restaurant_scheme_4.png","null","",""
"","","","","","image-button-response","67","429449","0.0-12.0-1.0-1.3","14138DFBEEC041E28E13E8465B16F76F","14138DFBEEC041E28E13E8465B16F76F","7fade5c3-8340-44b6-a417-6aac0de824b8","a0a8f18c-a66e-4ba7-a170-23efbdc67501","{""participantId"":""14138DFBEEC041E28E13E8465B16F76F"",""assignmentId"":""7fade5c3-8340-44b6-a417-6aac0de824b8"",""projectId"":""a0a8f18c-a66e-4ba7-a170-23efbdc67501""}","https://test12345.live/?participantId=14138DFBEEC041E28E13E8465B16F76F&assignmentId=7fade5c3-8340-44b6-a417-6aac0de824b8&projectId=a0a8f18c-a66e-4ba7-a170-23efbdc67501","14138DFBEEC041E28E13E8465B16F76F-2024-11-24-18-44-05","","1185","","images/schematic_sequence/restaurant_scheme/restaurant_scheme_4.png","0","",""
"","","","","","image-button-response","68","431401","0.0-12.0-1.0-2.3","14138DFBEEC041E28E13E8465B16F76F","14138DFBEEC041E28E13E8465B16F76F","7fade5c3-8340-44b6-a417-6aac0de824b8","a0a8f18c-a66e-4ba7-a170-23efbdc67501","{""participantId"":""14138DFBEEC041E28E13E8465B16F76F"",""assignmentId"":""7fade5c3-8340-44b6-a417-6aac0de824b8"",""projectId"":""a0a8f18c-a66e-4ba7-a170-23efbdc67501""}","https://test12345.live/?participantId=14138DFBEEC041E28E13E8465B16F76F&assignmentId=7fade5c3-8340-44b6-a417-6aac0de824b8&projectId=a0a8f18c-a66e-4ba7-a170-23efbdc67501","14138DFBEEC041E28E13E8465B16F76F-2024-11-24-18-44-05","","null","","[]","null","",""
"","","","","","image-button-response","69","436409","0.0-12.0-1.0-0.4","14138DFBEEC041E28E13E8465B16F76F","14138DFBEEC041E28E13E8465B16F76F","7fade5c3-8340-44b6-a417-6aac0de824b8","a0a8f18c-a66e-4ba7-a170-23efbdc67501","{""participantId"":""14138DFBEEC041E28E13E8465B16F76F"",""assignmentId"":""7fade5c3-8340-44b6-a417-6aac0de824b8"",""projectId"":""a0a8f18c-a66e-4ba7-a170-23efbdc67501""}","https://test12345.live/?participantId=14138DFBEEC041E28E13E8465B16F76F&assignmentId=7fade5c3-8340-44b6-a417-6aac0de824b8&projectId=a0a8f18c-a66e-4ba7-a170-23efbdc67501","14138DFBEEC041E28E13E8465B16F76F-2024-11-24-18-44-05","","null","","images/schematic_sequence/restaurant_scheme/restaurant_scheme_5.png","null","",""
"","","","","","image-button-response","70","437859","0.0-12.0-1.0-1.4","14138DFBEEC041E28E13E8465B16F76F","14138DFBEEC041E28E13E8465B16F76F","7fade5c3-8340-44b6-a417-6aac0de824b8","a0a8f18c-a66e-4ba7-a170-23efbdc67501","{""participantId"":""14138DFBEEC041E28E13E8465B16F76F"",""assignmentId"":""7fade5c3-8340-44b6-a417-6aac0de824b8"",""projectId"":""a0a8f18c-a66e-4ba7-a170-23efbdc67501""}","https://test12345.live/?participantId=14138DFBEEC041E28E13E8465B16F76F&assignmentId=7fade5c3-8340-44b6-a417-6aac0de824b8&projectId=a0a8f18c-a66e-4ba7-a170-23efbdc67501","14138DFBEEC041E28E13E8465B16F76F-2024-11-24-18-44-05","","1447","","images/schematic_sequence/restaurant_scheme/restaurant_scheme_5.png","0","",""
"","","","","","image-button-response","71","439866","0.0-12.0-1.0-2.4","14138DFBEEC041E28E13E8465B16F76F","14138DFBEEC041E28E13E8465B16F76F","7fade5c3-8340-44b6-a417-6aac0de824b8","a0a8f18c-a66e-4ba7-a170-23efbdc67501","{""participantId"":""14138DFBEEC041E28E13E8465B16F76F"",""assignmentId"":""7fade5c3-8340-44b6-a417-6aac0de824b8"",""projectId"":""a0a8f18c-a66e-4ba7-a170-23efbdc67501""}","https://test12345.live/?participantId=14138DFBEEC041E28E13E8465B16F76F&assignmentId=7fade5c3-8340-44b6-a417-6aac0de824b8&projectId=a0a8f18c-a66e-4ba7-a170-23efbdc67501","14138DFBEEC041E28E13E8465B16F76F-2024-11-24-18-44-05","","null","","[]","null","",""
"","","","","","image-button-response","72","444885","0.0-12.0-1.0-0.5","14138DFBEEC041E28E13E8465B16F76F","14138DFBEEC041E28E13E8465B16F76F","7fade5c3-8340-44b6-a417-6aac0de824b8","a0a8f18c-a66e-4ba7-a170-23efbdc67501","{""participantId"":""14138DFBEEC041E28E13E8465B16F76F"",""assignmentId"":""7fade5c3-8340-44b6-a417-6aac0de824b8"",""projectId"":""a0a8f18c-a66e-4ba7-a170-23efbdc67501""}","https://test12345.live/?participantId=14138DFBEEC041E28E13E8465B16F76F&assignmentId=7fade5c3-8340-44b6-a417-6aac0de824b8&projectId=a0a8f18c-a66e-4ba7-a170-23efbdc67501","14138DFBEEC041E28E13E8465B16F76F-2024-11-24-18-44-05","","null","","images/schematic_sequence/restaurant_scheme/restaurant_scheme_6.png","null","",""
"","","","","","image-button-response","73","446009","0.0-12.0-1.0-1.5","14138DFBEEC041E28E13E8465B16F76F","14138DFBEEC041E28E13E8465B16F76F","7fade5c3-8340-44b6-a417-6aac0de824b8","a0a8f18c-a66e-4ba7-a170-23efbdc67501","{""participantId"":""14138DFBEEC041E28E13E8465B16F76F"",""assignmentId"":""7fade5c3-8340-44b6-a417-6aac0de824b8"",""projectId"":""a0a8f18c-a66e-4ba7-a170-23efbdc67501""}","https://test12345.live/?participantId=14138DFBEEC041E28E13E8465B16F76F&assignmentId=7fade5c3-8340-44b6-a417-6aac0de824b8&projectId=a0a8f18c-a66e-4ba7-a170-23efbdc67501","14138DFBEEC041E28E13E8465B16F76F-2024-11-24-18-44-05","","1122","","images/schematic_sequence/restaurant_scheme/restaurant_scheme_6.png","1","",""
"","","","","","image-button-response","74","447998","0.0-12.0-1.0-2.5","14138DFBEEC041E28E13E8465B16F76F","14138DFBEEC041E28E13E8465B16F76F","7fade5c3-8340-44b6-a417-6aac0de824b8","a0a8f18c-a66e-4ba7-a170-23efbdc67501","{""participantId"":""14138DFBEEC041E28E13E8465B16F76F"",""assignmentId"":""7fade5c3-8340-44b6-a417-6aac0de824b8"",""projectId"":""a0a8f18c-a66e-4ba7-a170-23efbdc67501""}","https://test12345.live/?participantId=14138DFBEEC041E28E13E8465B16F76F&assignmentId=7fade5c3-8340-44b6-a417-6aac0de824b8&projectId=a0a8f18c-a66e-4ba7-a170-23efbdc67501","14138DFBEEC041E28E13E8465B16F76F-2024-11-24-18-44-05","","null","","[]","null","",""
"","","","","","image-button-response","75","452535","0.0-12.0-1.0-0.6","14138DFBEEC041E28E13E8465B16F76F","14138DFBEEC041E28E13E8465B16F76F","7fade5c3-8340-44b6-a417-6aac0de824b8","a0a8f18c-a66e-4ba7-a170-23efbdc67501","{""participantId"":""14138DFBEEC041E28E13E8465B16F76F"",""assignmentId"":""7fade5c3-8340-44b6-a417-6aac0de824b8"",""projectId"":""a0a8f18c-a66e-4ba7-a170-23efbdc67501""}","https://test12345.live/?participantId=14138DFBEEC041E28E13E8465B16F76F&assignmentId=7fade5c3-8340-44b6-a417-6aac0de824b8&projectId=a0a8f18c-a66e-4ba7-a170-23efbdc67501","14138DFBEEC041E28E13E8465B16F76F-2024-11-24-18-44-05","","null","","images/schematic_sequence/restaurant_scheme/restaurant_scheme_7.png","null","",""
"","","","","","image-button-response","76","453935","0.0-12.0-1.0-1.6","14138DFBEEC041E28E13E8465B16F76F","14138DFBEEC041E28E13E8465B16F76F","7fade5c3-8340-44b6-a417-6aac0de824b8","a0a8f18c-a66e-4ba7-a170-23efbdc67501","{""participantId"":""14138DFBEEC041E28E13E8465B16F76F"",""assignmentId"":""7fade5c3-8340-44b6-a417-6aac0de824b8"",""projectId"":""a0a8f18c-a66e-4ba7-a170-23efbdc67501""}","https://test12345.live/?participantId=14138DFBEEC041E28E13E8465B16F76F&assignmentId=7fade5c3-8340-44b6-a417-6aac0de824b8&projectId=a0a8f18c-a66e-4ba7-a170-23efbdc67501","14138DFBEEC041E28E13E8465B16F76F-2024-11-24-18-44-05","","1398","","images/schematic_sequence/restaurant_scheme/restaurant_scheme_7.png","1","",""
"","","","","","image-button-response","77","455747","0.0-12.0-1.0-2.6","14138DFBEEC041E28E13E8465B16F76F","14138DFBEEC041E28E13E8465B16F76F","7fade5c3-8340-44b6-a417-6aac0de824b8","a0a8f18c-a66e-4ba7-a170-23efbdc67501","{""participantId"":""14138DFBEEC041E28E13E8465B16F76F"",""assignmentId"":""7fade5c3-8340-44b6-a417-6aac0de824b8"",""projectId"":""a0a8f18c-a66e-4ba7-a170-23efbdc67501""}","https://test12345.live/?participantId=14138DFBEEC041E28E13E8465B16F76F&assignmentId=7fade5c3-8340-44b6-a417-6aac0de824b8&projectId=a0a8f18c-a66e-4ba7-a170-23efbdc67501","14138DFBEEC041E28E13E8465B16F76F-2024-11-24-18-44-05","","null","","[]","null","",""
"","","","","","image-button-response","78","460284","0.0-12.0-1.0-0.7","14138DFBEEC041E28E13E8465B16F76F","14138DFBEEC041E28E13E8465B16F76F","7fade5c3-8340-44b6-a417-6aac0de824b8","a0a8f18c-a66e-4ba7-a170-23efbdc67501","{""participantId"":""14138DFBEEC041E28E13E8465B16F76F"",""assignmentId"":""7fade5c3-8340-44b6-a417-6aac0de824b8"",""projectId"":""a0a8f18c-a66e-4ba7-a170-23efbdc67501""}","https://test12345.live/?participantId=14138DFBEEC041E28E13E8465B16F76F&assignmentId=7fade5c3-8340-44b6-a417-6aac0de824b8&projectId=a0a8f18c-a66e-4ba7-a170-23efbdc67501","14138DFBEEC041E28E13E8465B16F76F-2024-11-24-18-44-05","","null","","images/schematic_sequence/restaurant_scheme/restaurant_scheme_8.png","null","",""
"","","","","","image-button-response","79","462436","0.0-12.0-1.0-1.7","14138DFBEEC041E28E13E8465B16F76F","14138DFBEEC041E28E13E8465B16F76F","7fade5c3-8340-44b6-a417-6aac0de824b8","a0a8f18c-a66e-4ba7-a170-23efbdc67501","{""participantId"":""14138DFBEEC041E28E13E8465B16F76F"",""assignmentId"":""7fade5c3-8340-44b6-a417-6aac0de824b8"",""projectId"":""a0a8f18c-a66e-4ba7-a170-23efbdc67501""}","https://test12345.live/?participantId=14138DFBEEC041E28E13E8465B16F76F&assignmentId=7fade5c3-8340-44b6-a417-6aac0de824b8&projectId=a0a8f18c-a66e-4ba7-a170-23efbdc67501","14138DFBEEC041E28E13E8465B16F76F-2024-11-24-18-44-05","","2150","","images/schematic_sequence/restaurant_scheme/restaurant_scheme_8.png","1","",""
"","","","","","image-button-response","80","464248","0.0-12.0-1.0-2.7","14138DFBEEC041E28E13E8465B16F76F","14138DFBEEC041E28E13E8465B16F76F","7fade5c3-8340-44b6-a417-6aac0de824b8","a0a8f18c-a66e-4ba7-a170-23efbdc67501","{""participantId"":""14138DFBEEC041E28E13E8465B16F76F"",""assignmentId"":""7fade5c3-8340-44b6-a417-6aac0de824b8"",""projectId"":""a0a8f18c-a66e-4ba7-a170-23efbdc67501""}","https://test12345.live/?participantId=14138DFBEEC041E28E13E8465B16F76F&assignmentId=7fade5c3-8340-44b6-a417-6aac0de824b8&projectId=a0a8f18c-a66e-4ba7-a170-23efbdc67501","14138DFBEEC041E28E13E8465B16F76F-2024-11-24-18-44-05","","null","","[]","null","",""
"","","","","","image-button-response","81","468789","0.0-12.0-1.0-0.8","14138DFBEEC041E28E13E8465B16F76F","14138DFBEEC041E28E13E8465B16F76F","7fade5c3-8340-44b6-a417-6aac0de824b8","a0a8f18c-a66e-4ba7-a170-23efbdc67501","{""participantId"":""14138DFBEEC041E28E13E8465B16F76F"",""assignmentId"":""7fade5c3-8340-44b6-a417-6aac0de824b8"",""projectId"":""a0a8f18c-a66e-4ba7-a170-23efbdc67501""}","https://test12345.live/?participantId=14138DFBEEC041E28E13E8465B16F76F&assignmentId=7fade5c3-8340-44b6-a417-6aac0de824b8&projectId=a0a8f18c-a66e-4ba7-a170-23efbdc67501","14138DFBEEC041E28E13E8465B16F76F-2024-11-24-18-44-05","","null","","images/schematic_sequence/restaurant_scheme/restaurant_scheme_9.png","null","",""
"","","","","","image-button-response","82","470895","0.0-12.0-1.0-1.8","14138DFBEEC041E28E13E8465B16F76F","14138DFBEEC041E28E13E8465B16F76F","7fade5c3-8340-44b6-a417-6aac0de824b8","a0a8f18c-a66e-4ba7-a170-23efbdc67501","{""participantId"":""14138DFBEEC041E28E13E8465B16F76F"",""assignmentId"":""7fade5c3-8340-44b6-a417-6aac0de824b8"",""projectId"":""a0a8f18c-a66e-4ba7-a170-23efbdc67501""}","https://test12345.live/?participantId=14138DFBEEC041E28E13E8465B16F76F&assignmentId=7fade5c3-8340-44b6-a417-6aac0de824b8&projectId=a0a8f18c-a66e-4ba7-a170-23efbdc67501","14138DFBEEC041E28E13E8465B16F76F-2024-11-24-18-44-05","","2105","","images/schematic_sequence/restaurant_scheme/restaurant_scheme_9.png","0","",""
"","","","","","image-button-response","83","472919","0.0-12.0-1.0-2.8","14138DFBEEC041E28E13E8465B16F76F","14138DFBEEC041E28E13E8465B16F76F","7fade5c3-8340-44b6-a417-6aac0de824b8","a0a8f18c-a66e-4ba7-a170-23efbdc67501","{""participantId"":""14138DFBEEC041E28E13E8465B16F76F"",""assignmentId"":""7fade5c3-8340-44b6-a417-6aac0de824b8"",""projectId"":""a0a8f18c-a66e-4ba7-a170-23efbdc67501""}","https://test12345.live/?participantId=14138DFBEEC041E28E13E8465B16F76F&assignmentId=7fade5c3-8340-44b6-a417-6aac0de824b8&projectId=a0a8f18c-a66e-4ba7-a170-23efbdc67501","14138DFBEEC041E28E13E8465B16F76F-2024-11-24-18-44-05","","null","","[]","null","",""
"","","","","","image-button-response","84","477926","0.0-12.0-1.0-0.9","14138DFBEEC041E28E13E8465B16F76F","14138DFBEEC041E28E13E8465B16F76F","7fade5c3-8340-44b6-a417-6aac0de824b8","a0a8f18c-a66e-4ba7-a170-23efbdc67501","{""participantId"":""14138DFBEEC041E28E13E8465B16F76F"",""assignmentId"":""7fade5c3-8340-44b6-a417-6aac0de824b8"",""projectId"":""a0a8f18c-a66e-4ba7-a170-23efbdc67501""}","https://test12345.live/?participantId=14138DFBEEC041E28E13E8465B16F76F&assignmentId=7fade5c3-8340-44b6-a417-6aac0de824b8&projectId=a0a8f18c-a66e-4ba7-a170-23efbdc67501","14138DFBEEC041E28E13E8465B16F76F-2024-11-24-18-44-05","","null","","images/schematic_sequence/restaurant_scheme/restaurant_scheme_ten.png","null","",""
"","","","","","image-button-response","85","479375","0.0-12.0-1.0-1.9","14138DFBEEC041E28E13E8465B16F76F","14138DFBEEC041E28E13E8465B16F76F","7fade5c3-8340-44b6-a417-6aac0de824b8","a0a8f18c-a66e-4ba7-a170-23efbdc67501","{""participantId"":""14138DFBEEC041E28E13E8465B16F76F"",""assignmentId"":""7fade5c3-8340-44b6-a417-6aac0de824b8"",""projectId"":""a0a8f18c-a66e-4ba7-a170-23efbdc67501""}","https://test12345.live/?participantId=14138DFBEEC041E28E13E8465B16F76F&assignmentId=7fade5c3-8340-44b6-a417-6aac0de824b8&projectId=a0a8f18c-a66e-4ba7-a170-23efbdc67501","14138DFBEEC041E28E13E8465B16F76F-2024-11-24-18-44-05","","1447","","images/schematic_sequence/restaurant_scheme/restaurant_scheme_ten.png","0","",""
"","","","","","image-button-response","86","481185","0.0-12.0-1.0-2.9","14138DFBEEC041E28E13E8465B16F76F","14138DFBEEC041E28E13E8465B16F76F","7fade5c3-8340-44b6-a417-6aac0de824b8","a0a8f18c-a66e-4ba7-a170-23efbdc67501","{""participantId"":""14138DFBEEC041E28E13E8465B16F76F"",""assignmentId"":""7fade5c3-8340-44b6-a417-6aac0de824b8"",""projectId"":""a0a8f18c-a66e-4ba7-a170-23efbdc67501""}","https://test12345.live/?participantId=14138DFBEEC041E28E13E8465B16F76F&assignmentId=7fade5c3-8340-44b6-a417-6aac0de824b8&projectId=a0a8f18c-a66e-4ba7-a170-23efbdc67501","14138DFBEEC041E28E13E8465B16F76F-2024-11-24-18-44-05","","null","","[]","null","",""
"","","","","","html-audio-response","87","504226","0.0-13.0","14138DFBEEC041E28E13E8465B16F76F","14138DFBEEC041E28E13E8465B16F76F","7fade5c3-8340-44b6-a417-6aac0de824b8","a0a8f18c-a66e-4ba7-a170-23efbdc67501","{""participantId"":""14138DFBEEC041E28E13E8465B16F76F"",""assignmentId"":""7fade5c3-8340-44b6-a417-6aac0de824b8"",""projectId"":""a0a8f18c-a66e-4ba7-a170-23efbdc67501""}","https://test12345.live/?participantId=14138DFBEEC041E28E13E8465B16F76F&assignmentId=7fade5c3-8340-44b6-a417-6aac0de824b8&projectId=a0a8f18c-a66e-4ba7-a170-23efbdc67501","14138DFBEEC041E28E13E8465B16F76F-2024-11-24-18-44-05","","20087","","[""<span style=\""color: red; font-size: 24px\""> NOW RECORDING</span><p>Please say out loud all the images you saw, as many as you can remember. The images can be said in any order.</p>""]","","1","restaurant_scheme"
"","","","","","image-button-response","88","510268","0.0-14.0-0.0","14138DFBEEC041E28E13E8465B16F76F","14138DFBEEC041E28E13E8465B16F76F","7fade5c3-8340-44b6-a417-6aac0de824b8","a0a8f18c-a66e-4ba7-a170-23efbdc67501","{""participantId"":""14138DFBEEC041E28E13E8465B16F76F"",""assignmentId"":""7fade5c3-8340-44b6-a417-6aac0de824b8"",""projectId"":""a0a8f18c-a66e-4ba7-a170-23efbdc67501""}","https://test12345.live/?participantId=14138DFBEEC041E28E13E8465B16F76F&assignmentId=7fade5c3-8340-44b6-a417-6aac0de824b8&projectId=a0a8f18c-a66e-4ba7-a170-23efbdc67501","14138DFBEEC041E28E13E8465B16F76F-2024-11-24-18-44-05","","null","","images/causal_sequence/dog_causal/dog_causal_0.png","null","",""
"","","","","","image-button-response","89","514824","0.0-14.0-1.0-0.0","14138DFBEEC041E28E13E8465B16F76F","14138DFBEEC041E28E13E8465B16F76F","7fade5c3-8340-44b6-a417-6aac0de824b8","a0a8f18c-a66e-4ba7-a170-23efbdc67501","{""participantId"":""14138DFBEEC041E28E13E8465B16F76F"",""assignmentId"":""7fade5c3-8340-44b6-a417-6aac0de824b8"",""projectId"":""a0a8f18c-a66e-4ba7-a170-23efbdc67501""}","https://test12345.live/?participantId=14138DFBEEC041E28E13E8465B16F76F&assignmentId=7fade5c3-8340-44b6-a417-6aac0de824b8&projectId=a0a8f18c-a66e-4ba7-a170-23efbdc67501","14138DFBEEC041E28E13E8465B16F76F-2024-11-24-18-44-05","","null","","images/causal_sequence/dog_causal/dog_causal_1.png","null","",""
"","","","","","image-button-response","90","517522","0.0-14.0-1.0-1.0","14138DFBEEC041E28E13E8465B16F76F","14138DFBEEC041E28E13E8465B16F76F","7fade5c3-8340-44b6-a417-6aac0de824b8","a0a8f18c-a66e-4ba7-a170-23efbdc67501","{""participantId"":""14138DFBEEC041E28E13E8465B16F76F"",""assignmentId"":""7fade5c3-8340-44b6-a417-6aac0de824b8"",""projectId"":""a0a8f18c-a66e-4ba7-a170-23efbdc67501""}","https://test12345.live/?participantId=14138DFBEEC041E28E13E8465B16F76F&assignmentId=7fade5c3-8340-44b6-a417-6aac0de824b8&projectId=a0a8f18c-a66e-4ba7-a170-23efbdc67501","14138DFBEEC041E28E13E8465B16F76F-2024-11-24-18-44-05","","2698","","images/causal_sequence/dog_causal/dog_causal_1.png","0","",""
"","","","","","image-button-response","91","519531","0.0-14.0-1.0-2.0","14138DFBEEC041E28E13E8465B16F76F","14138DFBEEC041E28E13E8465B16F76F","7fade5c3-8340-44b6-a417-6aac0de824b8","a0a8f18c-a66e-4ba7-a170-23efbdc67501","{""participantId"":""14138DFBEEC041E28E13E8465B16F76F"",""assignmentId"":""7fade5c3-8340-44b6-a417-6aac0de824b8"",""projectId"":""a0a8f18c-a66e-4ba7-a170-23efbdc67501""}","https://test12345.live/?participantId=14138DFBEEC041E28E13E8465B16F76F&assignmentId=7fade5c3-8340-44b6-a417-6aac0de824b8&projectId=a0a8f18c-a66e-4ba7-a170-23efbdc67501","14138DFBEEC041E28E13E8465B16F76F-2024-11-24-18-44-05","","null","","[]","null","",""
"","","","","","image-button-response","92","524087","0.0-14.0-1.0-0.1","14138DFBEEC041E28E13E8465B16F76F","14138DFBEEC041E28E13E8465B16F76F","7fade5c3-8340-44b6-a417-6aac0de824b8","a0a8f18c-a66e-4ba7-a170-23efbdc67501","{""participantId"":""14138DFBEEC041E28E13E8465B16F76F"",""assignmentId"":""7fade5c3-8340-44b6-a417-6aac0de824b8"",""projectId"":""a0a8f18c-a66e-4ba7-a170-23efbdc67501""}","https://test12345.live/?participantId=14138DFBEEC041E28E13E8465B16F76F&assignmentId=7fade5c3-8340-44b6-a417-6aac0de824b8&projectId=a0a8f18c-a66e-4ba7-a170-23efbdc67501","14138DFBEEC041E28E13E8465B16F76F-2024-11-24-18-44-05","","null","","images/causal_sequence/dog_causal/dog_causal_2.png","null","",""
"","","","","","image-button-response","93","526115","0.0-14.0-1.0-1.1","14138DFBEEC041E28E13E8465B16F76F","14138DFBEEC041E28E13E8465B16F76F","7fade5c3-8340-44b6-a417-6aac0de824b8","a0a8f18c-a66e-4ba7-a170-23efbdc67501","{""participantId"":""14138DFBEEC041E28E13E8465B16F76F"",""assignmentId"":""7fade5c3-8340-44b6-a417-6aac0de824b8"",""projectId"":""a0a8f18c-a66e-4ba7-a170-23efbdc67501""}","https://test12345.live/?participantId=14138DFBEEC041E28E13E8465B16F76F&assignmentId=7fade5c3-8340-44b6-a417-6aac0de824b8&projectId=a0a8f18c-a66e-4ba7-a170-23efbdc67501","14138DFBEEC041E28E13E8465B16F76F-2024-11-24-18-44-05","","2025","","images/causal_sequence/dog_causal/dog_causal_2.png","0","",""
"","","","","","image-button-response","94","527935","0.0-14.0-1.0-2.1","14138DFBEEC041E28E13E8465B16F76F","14138DFBEEC041E28E13E8465B16F76F","7fade5c3-8340-44b6-a417-6aac0de824b8","a0a8f18c-a66e-4ba7-a170-23efbdc67501","{""participantId"":""14138DFBEEC041E28E13E8465B16F76F"",""assignmentId"":""7fade5c3-8340-44b6-a417-6aac0de824b8"",""projectId"":""a0a8f18c-a66e-4ba7-a170-23efbdc67501""}","https://test12345.live/?participantId=14138DFBEEC041E28E13E8465B16F76F&assignmentId=7fade5c3-8340-44b6-a417-6aac0de824b8&projectId=a0a8f18c-a66e-4ba7-a170-23efbdc67501","14138DFBEEC041E28E13E8465B16F76F-2024-11-24-18-44-05","","null","","[]","null","",""
"","","","","","image-button-response","95","532491","0.0-14.0-1.0-0.2","14138DFBEEC041E28E13E8465B16F76F","14138DFBEEC041E28E13E8465B16F76F","7fade5c3-8340-44b6-a417-6aac0de824b8","a0a8f18c-a66e-4ba7-a170-23efbdc67501","{""participantId"":""14138DFBEEC041E28E13E8465B16F76F"",""assignmentId"":""7fade5c3-8340-44b6-a417-6aac0de824b8"",""projectId"":""a0a8f18c-a66e-4ba7-a170-23efbdc67501""}","https://test12345.live/?participantId=14138DFBEEC041E28E13E8465B16F76F&assignmentId=7fade5c3-8340-44b6-a417-6aac0de824b8&projectId=a0a8f18c-a66e-4ba7-a170-23efbdc67501","14138DFBEEC041E28E13E8465B16F76F-2024-11-24-18-44-05","","null","","images/causal_sequence/dog_causal/dog_causal_3.png","null","",""
"","","","","","image-button-response","96","534549","0.0-14.0-1.0-1.2","14138DFBEEC041E28E13E8465B16F76F","14138DFBEEC041E28E13E8465B16F76F","7fade5c3-8340-44b6-a417-6aac0de824b8","a0a8f18c-a66e-4ba7-a170-23efbdc67501","{""participantId"":""14138DFBEEC041E28E13E8465B16F76F"",""assignmentId"":""7fade5c3-8340-44b6-a417-6aac0de824b8"",""projectId"":""a0a8f18c-a66e-4ba7-a170-23efbdc67501""}","https://test12345.live/?participantId=14138DFBEEC041E28E13E8465B16F76F&assignmentId=7fade5c3-8340-44b6-a417-6aac0de824b8&projectId=a0a8f18c-a66e-4ba7-a170-23efbdc67501","14138DFBEEC041E28E13E8465B16F76F-2024-11-24-18-44-05","","2055","","images/causal_sequence/dog_causal/dog_causal_3.png","0","",""
"","","","","","image-button-response","97","536557","0.0-14.0-1.0-2.2","14138DFBEEC041E28E13E8465B16F76F","14138DFBEEC041E28E13E8465B16F76F","7fade5c3-8340-44b6-a417-6aac0de824b8","a0a8f18c-a66e-4ba7-a170-23efbdc67501","{""participantId"":""14138DFBEEC041E28E13E8465B16F76F"",""assignmentId"":""7fade5c3-8340-44b6-a417-6aac0de824b8"",""projectId"":""a0a8f18c-a66e-4ba7-a170-23efbdc67501""}","https://test12345.live/?participantId=14138DFBEEC041E28E13E8465B16F76F&assignmentId=7fade5c3-8340-44b6-a417-6aac0de824b8&projectId=a0a8f18c-a66e-4ba7-a170-23efbdc67501","14138DFBEEC041E28E13E8465B16F76F-2024-11-24-18-44-05","","null","","[]","null","",""
"","","","","","image-button-response","98","541577","0.0-14.0-1.0-0.3","14138DFBEEC041E28E13E8465B16F76F","14138DFBEEC041E28E13E8465B16F76F","7fade5c3-8340-44b6-a417-6aac0de824b8","a0a8f18c-a66e-4ba7-a170-23efbdc67501","{""participantId"":""14138DFBEEC041E28E13E8465B16F76F"",""assignmentId"":""7fade5c3-8340-44b6-a417-6aac0de824b8"",""projectId"":""a0a8f18c-a66e-4ba7-a170-23efbdc67501""}","https://test12345.live/?participantId=14138DFBEEC041E28E13E8465B16F76F&assignmentId=7fade5c3-8340-44b6-a417-6aac0de824b8&projectId=a0a8f18c-a66e-4ba7-a170-23efbdc67501","14138DFBEEC041E28E13E8465B16F76F-2024-11-24-18-44-05","","null","","images/causal_sequence/dog_causal/dog_causal_4.png","null","",""
"","","","","","image-button-response","99","542534","0.0-14.0-1.0-1.3","14138DFBEEC041E28E13E8465B16F76F","14138DFBEEC041E28E13E8465B16F76F","7fade5c3-8340-44b6-a417-6aac0de824b8","a0a8f18c-a66e-4ba7-a170-23efbdc67501","{""participantId"":""14138DFBEEC041E28E13E8465B16F76F"",""assignmentId"":""7fade5c3-8340-44b6-a417-6aac0de824b8"",""projectId"":""a0a8f18c-a66e-4ba7-a170-23efbdc67501""}","https://test12345.live/?participantId=14138DFBEEC041E28E13E8465B16F76F&assignmentId=7fade5c3-8340-44b6-a417-6aac0de824b8&projectId=a0a8f18c-a66e-4ba7-a170-23efbdc67501","14138DFBEEC041E28E13E8465B16F76F-2024-11-24-18-44-05","","954","","images/causal_sequence/dog_causal/dog_causal_4.png","0","",""
"","","","","","image-button-response","100","544349","0.0-14.0-1.0-2.3","14138DFBEEC041E28E13E8465B16F76F","14138DFBEEC041E28E13E8465B16F76F","7fade5c3-8340-44b6-a417-6aac0de824b8","a0a8f18c-a66e-4ba7-a170-23efbdc67501","{""participantId"":""14138DFBEEC041E28E13E8465B16F76F"",""assignmentId"":""7fade5c3-8340-44b6-a417-6aac0de824b8"",""projectId"":""a0a8f18c-a66e-4ba7-a170-23efbdc67501""}","https://test12345.live/?participantId=14138DFBEEC041E28E13E8465B16F76F&assignmentId=7fade5c3-8340-44b6-a417-6aac0de824b8&projectId=a0a8f18c-a66e-4ba7-a170-23efbdc67501","14138DFBEEC041E28E13E8465B16F76F-2024-11-24-18-44-05","","null","","[]","null","",""
"","","","","","image-button-response","101","548903","0.0-14.0-1.0-0.4","14138DFBEEC041E28E13E8465B16F76F","14138DFBEEC041E28E13E8465B16F76F","7fade5c3-8340-44b6-a417-6aac0de824b8","a0a8f18c-a66e-4ba7-a170-23efbdc67501","{""participantId"":""14138DFBEEC041E28E13E8465B16F76F"",""assignmentId"":""7fade5c3-8340-44b6-a417-6aac0de824b8"",""projectId"":""a0a8f18c-a66e-4ba7-a170-23efbdc67501""}","https://test12345.live/?participantId=14138DFBEEC041E28E13E8465B16F76F&assignmentId=7fade5c3-8340-44b6-a417-6aac0de824b8&projectId=a0a8f18c-a66e-4ba7-a170-23efbdc67501","14138DFBEEC041E28E13E8465B16F76F-2024-11-24-18-44-05","","null","","images/causal_sequence/dog_causal/dog_causal_5.png","null","",""
"","","","","","image-button-response","102","550288","0.0-14.0-1.0-1.4","14138DFBEEC041E28E13E8465B16F76F","14138DFBEEC041E28E13E8465B16F76F","7fade5c3-8340-44b6-a417-6aac0de824b8","a0a8f18c-a66e-4ba7-a170-23efbdc67501","{""participantId"":""14138DFBEEC041E28E13E8465B16F76F"",""assignmentId"":""7fade5c3-8340-44b6-a417-6aac0de824b8"",""projectId"":""a0a8f18c-a66e-4ba7-a170-23efbdc67501""}","https://test12345.live/?participantId=14138DFBEEC041E28E13E8465B16F76F&assignmentId=7fade5c3-8340-44b6-a417-6aac0de824b8&projectId=a0a8f18c-a66e-4ba7-a170-23efbdc67501","14138DFBEEC041E28E13E8465B16F76F-2024-11-24-18-44-05","","1384","","images/causal_sequence/dog_causal/dog_causal_5.png","0","",""
"","","","","","image-button-response","103","552105","0.0-14.0-1.0-2.4","14138DFBEEC041E28E13E8465B16F76F","14138DFBEEC041E28E13E8465B16F76F","7fade5c3-8340-44b6-a417-6aac0de824b8","a0a8f18c-a66e-4ba7-a170-23efbdc67501","{""participantId"":""14138DFBEEC041E28E13E8465B16F76F"",""assignmentId"":""7fade5c3-8340-44b6-a417-6aac0de824b8"",""projectId"":""a0a8f18c-a66e-4ba7-a170-23efbdc67501""}","https://test12345.live/?participantId=14138DFBEEC041E28E13E8465B16F76F&assignmentId=7fade5c3-8340-44b6-a417-6aac0de824b8&projectId=a0a8f18c-a66e-4ba7-a170-23efbdc67501","14138DFBEEC041E28E13E8465B16F76F-2024-11-24-18-44-05","","null","","[]","null","",""
"","","","","","image-button-response","104","556662","0.0-14.0-1.0-0.5","14138DFBEEC041E28E13E8465B16F76F","14138DFBEEC041E28E13E8465B16F76F","7fade5c3-8340-44b6-a417-6aac0de824b8","a0a8f18c-a66e-4ba7-a170-23efbdc67501","{""participantId"":""14138DFBEEC041E28E13E8465B16F76F"",""assignmentId"":""7fade5c3-8340-44b6-a417-6aac0de824b8"",""projectId"":""a0a8f18c-a66e-4ba7-a170-23efbdc67501""}","https://test12345.live/?participantId=14138DFBEEC041E28E13E8465B16F76F&assignmentId=7fade5c3-8340-44b6-a417-6aac0de824b8&projectId=a0a8f18c-a66e-4ba7-a170-23efbdc67501","14138DFBEEC041E28E13E8465B16F76F-2024-11-24-18-44-05","","null","","images/causal_sequence/dog_causal/dog_causal_6.png","null","",""
"","","","","","image-button-response","105","557508","0.0-14.0-1.0-1.5","14138DFBEEC041E28E13E8465B16F76F","14138DFBEEC041E28E13E8465B16F76F","7fade5c3-8340-44b6-a417-6aac0de824b8","a0a8f18c-a66e-4ba7-a170-23efbdc67501","{""participantId"":""14138DFBEEC041E28E13E8465B16F76F"",""assignmentId"":""7fade5c3-8340-44b6-a417-6aac0de824b8"",""projectId"":""a0a8f18c-a66e-4ba7-a170-23efbdc67501""}","https://test12345.live/?participantId=14138DFBEEC041E28E13E8465B16F76F&assignmentId=7fade5c3-8340-44b6-a417-6aac0de824b8&projectId=a0a8f18c-a66e-4ba7-a170-23efbdc67501","14138DFBEEC041E28E13E8465B16F76F-2024-11-24-18-44-05","","845","","images/causal_sequence/dog_causal/dog_causal_6.png","0","",""
"","","","","","image-button-response","106","559513","0.0-14.0-1.0-2.5","14138DFBEEC041E28E13E8465B16F76F","14138DFBEEC041E28E13E8465B16F76F","7fade5c3-8340-44b6-a417-6aac0de824b8","a0a8f18c-a66e-4ba7-a170-23efbdc67501","{""participantId"":""14138DFBEEC041E28E13E8465B16F76F"",""assignmentId"":""7fade5c3-8340-44b6-a417-6aac0de824b8"",""projectId"":""a0a8f18c-a66e-4ba7-a170-23efbdc67501""}","https://test12345.live/?participantId=14138DFBEEC041E28E13E8465B16F76F&assignmentId=7fade5c3-8340-44b6-a417-6aac0de824b8&projectId=a0a8f18c-a66e-4ba7-a170-23efbdc67501","14138DFBEEC041E28E13E8465B16F76F-2024-11-24-18-44-05","","null","","[]","null","",""
"","","","","","image-button-response","107","564078","0.0-14.0-1.0-0.6","14138DFBEEC041E28E13E8465B16F76F","14138DFBEEC041E28E13E8465B16F76F","7fade5c3-8340-44b6-a417-6aac0de824b8","a0a8f18c-a66e-4ba7-a170-23efbdc67501","{""participantId"":""14138DFBEEC041E28E13E8465B16F76F"",""assignmentId"":""7fade5c3-8340-44b6-a417-6aac0de824b8"",""projectId"":""a0a8f18c-a66e-4ba7-a170-23efbdc67501""}","https://test12345.live/?participantId=14138DFBEEC041E28E13E8465B16F76F&assignmentId=7fade5c3-8340-44b6-a417-6aac0de824b8&projectId=a0a8f18c-a66e-4ba7-a170-23efbdc67501","14138DFBEEC041E28E13E8465B16F76F-2024-11-24-18-44-05","","null","","images/causal_sequence/dog_causal/dog_causal_7.png","null","",""
"","","","","","image-button-response","108","565344","0.0-14.0-1.0-1.6","14138DFBEEC041E28E13E8465B16F76F","14138DFBEEC041E28E13E8465B16F76F","7fade5c3-8340-44b6-a417-6aac0de824b8","a0a8f18c-a66e-4ba7-a170-23efbdc67501","{""participantId"":""14138DFBEEC041E28E13E8465B16F76F"",""assignmentId"":""7fade5c3-8340-44b6-a417-6aac0de824b8"",""projectId"":""a0a8f18c-a66e-4ba7-a170-23efbdc67501""}","https://test12345.live/?participantId=14138DFBEEC041E28E13E8465B16F76F&assignmentId=7fade5c3-8340-44b6-a417-6aac0de824b8&projectId=a0a8f18c-a66e-4ba7-a170-23efbdc67501","14138DFBEEC041E28E13E8465B16F76F-2024-11-24-18-44-05","","1265","","images/causal_sequence/dog_causal/dog_causal_7.png","0","",""
"","","","","","image-button-response","109","567154","0.0-14.0-1.0-2.6","14138DFBEEC041E28E13E8465B16F76F","14138DFBEEC041E28E13E8465B16F76F","7fade5c3-8340-44b6-a417-6aac0de824b8","a0a8f18c-a66e-4ba7-a170-23efbdc67501","{""participantId"":""14138DFBEEC041E28E13E8465B16F76F"",""assignmentId"":""7fade5c3-8340-44b6-a417-6aac0de824b8"",""projectId"":""a0a8f18c-a66e-4ba7-a170-23efbdc67501""}","https://test12345.live/?participantId=14138DFBEEC041E28E13E8465B16F76F&assignmentId=7fade5c3-8340-44b6-a417-6aac0de824b8&projectId=a0a8f18c-a66e-4ba7-a170-23efbdc67501","14138DFBEEC041E28E13E8465B16F76F-2024-11-24-18-44-05","","null","","[]","null","",""
"","","","","","image-button-response","110","571717","0.0-14.0-1.0-0.7","14138DFBEEC041E28E13E8465B16F76F","14138DFBEEC041E28E13E8465B16F76F","7fade5c3-8340-44b6-a417-6aac0de824b8","a0a8f18c-a66e-4ba7-a170-23efbdc67501","{""participantId"":""14138DFBEEC041E28E13E8465B16F76F"",""assignmentId"":""7fade5c3-8340-44b6-a417-6aac0de824b8"",""projectId"":""a0a8f18c-a66e-4ba7-a170-23efbdc67501""}","https://test12345.live/?participantId=14138DFBEEC041E28E13E8465B16F76F&assignmentId=7fade5c3-8340-44b6-a417-6aac0de824b8&projectId=a0a8f18c-a66e-4ba7-a170-23efbdc67501","14138DFBEEC041E28E13E8465B16F76F-2024-11-24-18-44-05","","null","","images/causal_sequence/dog_causal/dog_causal_8.png","null","",""
"","","","","","image-button-response","111","572738","0.0-14.0-1.0-1.7","14138DFBEEC041E28E13E8465B16F76F","14138DFBEEC041E28E13E8465B16F76F","7fade5c3-8340-44b6-a417-6aac0de824b8","a0a8f18c-a66e-4ba7-a170-23efbdc67501","{""participantId"":""14138DFBEEC041E28E13E8465B16F76F"",""assignmentId"":""7fade5c3-8340-44b6-a417-6aac0de824b8"",""projectId"":""a0a8f18c-a66e-4ba7-a170-23efbdc67501""}","https://test12345.live/?participantId=14138DFBEEC041E28E13E8465B16F76F&assignmentId=7fade5c3-8340-44b6-a417-6aac0de824b8&projectId=a0a8f18c-a66e-4ba7-a170-23efbdc67501","14138DFBEEC041E28E13E8465B16F76F-2024-11-24-18-44-05","","1019","","images/causal_sequence/dog_causal/dog_causal_8.png","0","",""
"","","","","","image-button-response","112","574759","0.0-14.0-1.0-2.7","14138DFBEEC041E28E13E8465B16F76F","14138DFBEEC041E28E13E8465B16F76F","7fade5c3-8340-44b6-a417-6aac0de824b8","a0a8f18c-a66e-4ba7-a170-23efbdc67501","{""participantId"":""14138DFBEEC041E28E13E8465B16F76F"",""assignmentId"":""7fade5c3-8340-44b6-a417-6aac0de824b8"",""projectId"":""a0a8f18c-a66e-4ba7-a170-23efbdc67501""}","https://test12345.live/?participantId=14138DFBEEC041E28E13E8465B16F76F&assignmentId=7fade5c3-8340-44b6-a417-6aac0de824b8&projectId=a0a8f18c-a66e-4ba7-a170-23efbdc67501","14138DFBEEC041E28E13E8465B16F76F-2024-11-24-18-44-05","","null","","[]","null","",""
"","","","","","image-button-response","113","579761","0.0-14.0-1.0-0.8","14138DFBEEC041E28E13E8465B16F76F","14138DFBEEC041E28E13E8465B16F76F","7fade5c3-8340-44b6-a417-6aac0de824b8","a0a8f18c-a66e-4ba7-a170-23efbdc67501","{""participantId"":""14138DFBEEC041E28E13E8465B16F76F"",""assignmentId"":""7fade5c3-8340-44b6-a417-6aac0de824b8"",""projectId"":""a0a8f18c-a66e-4ba7-a170-23efbdc67501""}","https://test12345.live/?participantId=14138DFBEEC041E28E13E8465B16F76F&assignmentId=7fade5c3-8340-44b6-a417-6aac0de824b8&projectId=a0a8f18c-a66e-4ba7-a170-23efbdc67501","14138DFBEEC041E28E13E8465B16F76F-2024-11-24-18-44-05","","null","","images/causal_sequence/dog_causal/dog_causal_9.png","null","",""
"","","","","","image-button-response","114","580652","0.0-14.0-1.0-1.8","14138DFBEEC041E28E13E8465B16F76F","14138DFBEEC041E28E13E8465B16F76F","7fade5c3-8340-44b6-a417-6aac0de824b8","a0a8f18c-a66e-4ba7-a170-23efbdc67501","{""participantId"":""14138DFBEEC041E28E13E8465B16F76F"",""assignmentId"":""7fade5c3-8340-44b6-a417-6aac0de824b8"",""projectId"":""a0a8f18c-a66e-4ba7-a170-23efbdc67501""}","https://test12345.live/?participantId=14138DFBEEC041E28E13E8465B16F76F&assignmentId=7fade5c3-8340-44b6-a417-6aac0de824b8&projectId=a0a8f18c-a66e-4ba7-a170-23efbdc67501","14138DFBEEC041E28E13E8465B16F76F-2024-11-24-18-44-05","","889","","images/causal_sequence/dog_causal/dog_causal_9.png","0","",""
"","","","","","image-button-response","115","582658","0.0-14.0-1.0-2.8","14138DFBEEC041E28E13E8465B16F76F","14138DFBEEC041E28E13E8465B16F76F","7fade5c3-8340-44b6-a417-6aac0de824b8","a0a8f18c-a66e-4ba7-a170-23efbdc67501","{""participantId"":""14138DFBEEC041E28E13E8465B16F76F"",""assignmentId"":""7fade5c3-8340-44b6-a417-6aac0de824b8"",""projectId"":""a0a8f18c-a66e-4ba7-a170-23efbdc67501""}","https://test12345.live/?participantId=14138DFBEEC041E28E13E8465B16F76F&assignmentId=7fade5c3-8340-44b6-a417-6aac0de824b8&projectId=a0a8f18c-a66e-4ba7-a170-23efbdc67501","14138DFBEEC041E28E13E8465B16F76F-2024-11-24-18-44-05","","null","","[]","null","",""
"","","","","","image-button-response","116","587204","0.0-14.0-1.0-0.9","14138DFBEEC041E28E13E8465B16F76F","14138DFBEEC041E28E13E8465B16F76F","7fade5c3-8340-44b6-a417-6aac0de824b8","a0a8f18c-a66e-4ba7-a170-23efbdc67501","{""participantId"":""14138DFBEEC041E28E13E8465B16F76F"",""assignmentId"":""7fade5c3-8340-44b6-a417-6aac0de824b8"",""projectId"":""a0a8f18c-a66e-4ba7-a170-23efbdc67501""}","https://test12345.live/?participantId=14138DFBEEC041E28E13E8465B16F76F&assignmentId=7fade5c3-8340-44b6-a417-6aac0de824b8&projectId=a0a8f18c-a66e-4ba7-a170-23efbdc67501","14138DFBEEC041E28E13E8465B16F76F-2024-11-24-18-44-05","","null","","images/causal_sequence/dog_causal/dog_causal_ten.png","null","",""
"","","","","","image-button-response","117","589064","0.0-14.0-1.0-1.9","14138DFBEEC041E28E13E8465B16F76F","14138DFBEEC041E28E13E8465B16F76F","7fade5c3-8340-44b6-a417-6aac0de824b8","a0a8f18c-a66e-4ba7-a170-23efbdc67501","{""participantId"":""14138DFBEEC041E28E13E8465B16F76F"",""assignmentId"":""7fade5c3-8340-44b6-a417-6aac0de824b8"",""projectId"":""a0a8f18c-a66e-4ba7-a170-23efbdc67501""}","https://test12345.live/?participantId=14138DFBEEC041E28E13E8465B16F76F&assignmentId=7fade5c3-8340-44b6-a417-6aac0de824b8&projectId=a0a8f18c-a66e-4ba7-a170-23efbdc67501","14138DFBEEC041E28E13E8465B16F76F-2024-11-24-18-44-05","","1857","","images/causal_sequence/dog_causal/dog_causal_ten.png","0","",""
"","","","","","image-button-response","118","590877","0.0-14.0-1.0-2.9","14138DFBEEC041E28E13E8465B16F76F","14138DFBEEC041E28E13E8465B16F76F","7fade5c3-8340-44b6-a417-6aac0de824b8","a0a8f18c-a66e-4ba7-a170-23efbdc67501","{""participantId"":""14138DFBEEC041E28E13E8465B16F76F"",""assignmentId"":""7fade5c3-8340-44b6-a417-6aac0de824b8"",""projectId"":""a0a8f18c-a66e-4ba7-a170-23efbdc67501""}","https://test12345.live/?participantId=14138DFBEEC041E28E13E8465B16F76F&assignmentId=7fade5c3-8340-44b6-a417-6aac0de824b8&projectId=a0a8f18c-a66e-4ba7-a170-23efbdc67501","14138DFBEEC041E28E13E8465B16F76F-2024-11-24-18-44-05","","null","","[]","null","",""
"","","","","","html-audio-response","119","616477","0.0-15.0","14138DFBEEC041E28E13E8465B16F76F","14138DFBEEC041E28E13E8465B16F76F","7fade5c3-8340-44b6-a417-6aac0de824b8","a0a8f18c-a66e-4ba7-a170-23efbdc67501","{""participantId"":""14138DFBEEC041E28E13E8465B16F76F"",""assignmentId"":""7fade5c3-8340-44b6-a417-6aac0de824b8"",""projectId"":""a0a8f18c-a66e-4ba7-a170-23efbdc67501""}","https://test12345.live/?participantId=14138DFBEEC041E28E13E8465B16F76F&assignmentId=7fade5c3-8340-44b6-a417-6aac0de824b8&projectId=a0a8f18c-a66e-4ba7-a170-23efbdc67501","14138DFBEEC041E28E13E8465B16F76F-2024-11-24-18-44-05","","23614","","[""<span style=\""color: red; font-size: 24px\""> NOW RECORDING</span><p>Please say out loud all the images you saw, as many as you can remember. The images can be said in any order.</p>""]","","0","dog_causal"
"","","","","","image-button-response","120","622509","0.0-16.0-0.0","14138DFBEEC041E28E13E8465B16F76F","14138DFBEEC041E28E13E8465B16F76F","7fade5c3-8340-44b6-a417-6aac0de824b8","a0a8f18c-a66e-4ba7-a170-23efbdc67501","{""participantId"":""14138DFBEEC041E28E13E8465B16F76F"",""assignmentId"":""7fade5c3-8340-44b6-a417-6aac0de824b8"",""projectId"":""a0a8f18c-a66e-4ba7-a170-23efbdc67501""}","https://test12345.live/?participantId=14138DFBEEC041E28E13E8465B16F76F&assignmentId=7fade5c3-8340-44b6-a417-6aac0de824b8&projectId=a0a8f18c-a66e-4ba7-a170-23efbdc67501","14138DFBEEC041E28E13E8465B16F76F-2024-11-24-18-44-05","","null","","images/schematic_sequence/flight_scheme/flight_scheme_0.png","null","",""
"","","","","","image-button-response","121","627046","0.0-16.0-1.0-0.0","14138DFBEEC041E28E13E8465B16F76F","14138DFBEEC041E28E13E8465B16F76F","7fade5c3-8340-44b6-a417-6aac0de824b8","a0a8f18c-a66e-4ba7-a170-23efbdc67501","{""participantId"":""14138DFBEEC041E28E13E8465B16F76F"",""assignmentId"":""7fade5c3-8340-44b6-a417-6aac0de824b8"",""projectId"":""a0a8f18c-a66e-4ba7-a170-23efbdc67501""}","https://test12345.live/?participantId=14138DFBEEC041E28E13E8465B16F76F&assignmentId=7fade5c3-8340-44b6-a417-6aac0de824b8&projectId=a0a8f18c-a66e-4ba7-a170-23efbdc67501","14138DFBEEC041E28E13E8465B16F76F-2024-11-24-18-44-05","","null","","images/schematic_sequence/flight_scheme/flight_scheme_4.png","null","",""
"","","","","","image-button-response","122","629616","0.0-16.0-1.0-1.0","14138DFBEEC041E28E13E8465B16F76F","14138DFBEEC041E28E13E8465B16F76F","7fade5c3-8340-44b6-a417-6aac0de824b8","a0a8f18c-a66e-4ba7-a170-23efbdc67501","{""participantId"":""14138DFBEEC041E28E13E8465B16F76F"",""assignmentId"":""7fade5c3-8340-44b6-a417-6aac0de824b8"",""projectId"":""a0a8f18c-a66e-4ba7-a170-23efbdc67501""}","https://test12345.live/?participantId=14138DFBEEC041E28E13E8465B16F76F&assignmentId=7fade5c3-8340-44b6-a417-6aac0de824b8&projectId=a0a8f18c-a66e-4ba7-a170-23efbdc67501","14138DFBEEC041E28E13E8465B16F76F-2024-11-24-18-44-05","","2567","","images/schematic_sequence/flight_scheme/flight_scheme_4.png","0","",""
"","","","","","image-button-response","123","631578","0.0-16.0-1.0-2.0","14138DFBEEC041E28E13E8465B16F76F","14138DFBEEC041E28E13E8465B16F76F","7fade5c3-8340-44b6-a417-6aac0de824b8","a0a8f18c-a66e-4ba7-a170-23efbdc67501","{""participantId"":""14138DFBEEC041E28E13E8465B16F76F"",""assignmentId"":""7fade5c3-8340-44b6-a417-6aac0de824b8"",""projectId"":""a0a8f18c-a66e-4ba7-a170-23efbdc67501""}","https://test12345.live/?participantId=14138DFBEEC041E28E13E8465B16F76F&assignmentId=7fade5c3-8340-44b6-a417-6aac0de824b8&projectId=a0a8f18c-a66e-4ba7-a170-23efbdc67501","14138DFBEEC041E28E13E8465B16F76F-2024-11-24-18-44-05","","null","","[]","null","",""
"","","","","","image-button-response","124","636637","0.0-16.0-1.0-0.1","14138DFBEEC041E28E13E8465B16F76F","14138DFBEEC041E28E13E8465B16F76F","7fade5c3-8340-44b6-a417-6aac0de824b8","a0a8f18c-a66e-4ba7-a170-23efbdc67501","{""participantId"":""14138DFBEEC041E28E13E8465B16F76F"",""assignmentId"":""7fade5c3-8340-44b6-a417-6aac0de824b8"",""projectId"":""a0a8f18c-a66e-4ba7-a170-23efbdc67501""}","https://test12345.live/?participantId=14138DFBEEC041E28E13E8465B16F76F&assignmentId=7fade5c3-8340-44b6-a417-6aac0de824b8&projectId=a0a8f18c-a66e-4ba7-a170-23efbdc67501","14138DFBEEC041E28E13E8465B16F76F-2024-11-24-18-44-05","","null","","images/schematic_sequence/flight_scheme/flight_scheme_6.png","null","",""
"","","","","","image-button-response","125","639008","0.0-16.0-1.0-1.1","14138DFBEEC041E28E13E8465B16F76F","14138DFBEEC041E28E13E8465B16F76F","7fade5c3-8340-44b6-a417-6aac0de824b8","a0a8f18c-a66e-4ba7-a170-23efbdc67501","{""participantId"":""14138DFBEEC041E28E13E8465B16F76F"",""assignmentId"":""7fade5c3-8340-44b6-a417-6aac0de824b8"",""projectId"":""a0a8f18c-a66e-4ba7-a170-23efbdc67501""}","https://test12345.live/?participantId=14138DFBEEC041E28E13E8465B16F76F&assignmentId=7fade5c3-8340-44b6-a417-6aac0de824b8&projectId=a0a8f18c-a66e-4ba7-a170-23efbdc67501","14138DFBEEC041E28E13E8465B16F76F-2024-11-24-18-44-05","","2370","","images/schematic_sequence/flight_scheme/flight_scheme_6.png","1","",""
"","","","","","image-button-response","126","641020","0.0-16.0-1.0-2.1","14138DFBEEC041E28E13E8465B16F76F","14138DFBEEC041E28E13E8465B16F76F","7fade5c3-8340-44b6-a417-6aac0de824b8","a0a8f18c-a66e-4ba7-a170-23efbdc67501","{""participantId"":""14138DFBEEC041E28E13E8465B16F76F"",""assignmentId"":""7fade5c3-8340-44b6-a417-6aac0de824b8"",""projectId"":""a0a8f18c-a66e-4ba7-a170-23efbdc67501""}","https://test12345.live/?participantId=14138DFBEEC041E28E13E8465B16F76F&assignmentId=7fade5c3-8340-44b6-a417-6aac0de824b8&projectId=a0a8f18c-a66e-4ba7-a170-23efbdc67501","14138DFBEEC041E28E13E8465B16F76F-2024-11-24-18-44-05","","null","","[]","null","",""
"","","","","","image-button-response","127","645568","0.0-16.0-1.0-0.2","14138DFBEEC041E28E13E8465B16F76F","14138DFBEEC041E28E13E8465B16F76F","7fade5c3-8340-44b6-a417-6aac0de824b8","a0a8f18c-a66e-4ba7-a170-23efbdc67501","{""participantId"":""14138DFBEEC041E28E13E8465B16F76F"",""assignmentId"":""7fade5c3-8340-44b6-a417-6aac0de824b8"",""projectId"":""a0a8f18c-a66e-4ba7-a170-23efbdc67501""}","https://test12345.live/?participantId=14138DFBEEC041E28E13E8465B16F76F&assignmentId=7fade5c3-8340-44b6-a417-6aac0de824b8&projectId=a0a8f18c-a66e-4ba7-a170-23efbdc67501","14138DFBEEC041E28E13E8465B16F76F-2024-11-24-18-44-05","","null","","images/schematic_sequence/flight_scheme/flight_scheme_9.png","null","",""
"","","","","","image-button-response","128","648264","0.0-16.0-1.0-1.2","14138DFBEEC041E28E13E8465B16F76F","14138DFBEEC041E28E13E8465B16F76F","7fade5c3-8340-44b6-a417-6aac0de824b8","a0a8f18c-a66e-4ba7-a170-23efbdc67501","{""participantId"":""14138DFBEEC041E28E13E8465B16F76F"",""assignmentId"":""7fade5c3-8340-44b6-a417-6aac0de824b8"",""projectId"":""a0a8f18c-a66e-4ba7-a170-23efbdc67501""}","https://test12345.live/?participantId=14138DFBEEC041E28E13E8465B16F76F&assignmentId=7fade5c3-8340-44b6-a417-6aac0de824b8&projectId=a0a8f18c-a66e-4ba7-a170-23efbdc67501","14138DFBEEC041E28E13E8465B16F76F-2024-11-24-18-44-05","","2695","","images/schematic_sequence/flight_scheme/flight_scheme_9.png","0","",""
"","","","","","image-button-response","129","650072","0.0-16.0-1.0-2.2","14138DFBEEC041E28E13E8465B16F76F","14138DFBEEC041E28E13E8465B16F76F","7fade5c3-8340-44b6-a417-6aac0de824b8","a0a8f18c-a66e-4ba7-a170-23efbdc67501","{""participantId"":""14138DFBEEC041E28E13E8465B16F76F"",""assignmentId"":""7fade5c3-8340-44b6-a417-6aac0de824b8"",""projectId"":""a0a8f18c-a66e-4ba7-a170-23efbdc67501""}","https://test12345.live/?participantId=14138DFBEEC041E28E13E8465B16F76F&assignmentId=7fade5c3-8340-44b6-a417-6aac0de824b8&projectId=a0a8f18c-a66e-4ba7-a170-23efbdc67501","14138DFBEEC041E28E13E8465B16F76F-2024-11-24-18-44-05","","null","","[]","null","",""
"","","","","","image-button-response","130","654606","0.0-16.0-1.0-0.3","14138DFBEEC041E28E13E8465B16F76F","14138DFBEEC041E28E13E8465B16F76F","7fade5c3-8340-44b6-a417-6aac0de824b8","a0a8f18c-a66e-4ba7-a170-23efbdc67501","{""participantId"":""14138DFBEEC041E28E13E8465B16F76F"",""assignmentId"":""7fade5c3-8340-44b6-a417-6aac0de824b8"",""projectId"":""a0a8f18c-a66e-4ba7-a170-23efbdc67501""}","https://test12345.live/?participantId=14138DFBEEC041E28E13E8465B16F76F&assignmentId=7fade5c3-8340-44b6-a417-6aac0de824b8&projectId=a0a8f18c-a66e-4ba7-a170-23efbdc67501","14138DFBEEC041E28E13E8465B16F76F-2024-11-24-18-44-05","","null","","images/schematic_sequence/flight_scheme/flight_scheme_5.png","null","",""
"","","","","","image-button-response","131","657268","0.0-16.0-1.0-1.3","14138DFBEEC041E28E13E8465B16F76F","14138DFBEEC041E28E13E8465B16F76F","7fade5c3-8340-44b6-a417-6aac0de824b8","a0a8f18c-a66e-4ba7-a170-23efbdc67501","{""participantId"":""14138DFBEEC041E28E13E8465B16F76F"",""assignmentId"":""7fade5c3-8340-44b6-a417-6aac0de824b8"",""projectId"":""a0a8f18c-a66e-4ba7-a170-23efbdc67501""}","https://test12345.live/?participantId=14138DFBEEC041E28E13E8465B16F76F&assignmentId=7fade5c3-8340-44b6-a417-6aac0de824b8&projectId=a0a8f18c-a66e-4ba7-a170-23efbdc67501","14138DFBEEC041E28E13E8465B16F76F-2024-11-24-18-44-05","","2661","","images/schematic_sequence/flight_scheme/flight_scheme_5.png","0","",""
"","","","","","image-button-response","132","659081","0.0-16.0-1.0-2.3","14138DFBEEC041E28E13E8465B16F76F","14138DFBEEC041E28E13E8465B16F76F","7fade5c3-8340-44b6-a417-6aac0de824b8","a0a8f18c-a66e-4ba7-a170-23efbdc67501","{""participantId"":""14138DFBEEC041E28E13E8465B16F76F"",""assignmentId"":""7fade5c3-8340-44b6-a417-6aac0de824b8"",""projectId"":""a0a8f18c-a66e-4ba7-a170-23efbdc67501""}","https://test12345.live/?participantId=14138DFBEEC041E28E13E8465B16F76F&assignmentId=7fade5c3-8340-44b6-a417-6aac0de824b8&projectId=a0a8f18c-a66e-4ba7-a170-23efbdc67501","14138DFBEEC041E28E13E8465B16F76F-2024-11-24-18-44-05","","null","","[]","null","",""
"","","","","","image-button-response","133","663616","0.0-16.0-1.0-0.4","14138DFBEEC041E28E13E8465B16F76F","14138DFBEEC041E28E13E8465B16F76F","7fade5c3-8340-44b6-a417-6aac0de824b8","a0a8f18c-a66e-4ba7-a170-23efbdc67501","{""participantId"":""14138DFBEEC041E28E13E8465B16F76F"",""assignmentId"":""7fade5c3-8340-44b6-a417-6aac0de824b8"",""projectId"":""a0a8f18c-a66e-4ba7-a170-23efbdc67501""}","https://test12345.live/?participantId=14138DFBEEC041E28E13E8465B16F76F&assignmentId=7fade5c3-8340-44b6-a417-6aac0de824b8&projectId=a0a8f18c-a66e-4ba7-a170-23efbdc67501","14138DFBEEC041E28E13E8465B16F76F-2024-11-24-18-44-05","","null","","images/schematic_sequence/flight_scheme/flight_scheme_8.png","null","",""
"","","","","","image-button-response","134","665701","0.0-16.0-1.0-1.4","14138DFBEEC041E28E13E8465B16F76F","14138DFBEEC041E28E13E8465B16F76F","7fade5c3-8340-44b6-a417-6aac0de824b8","a0a8f18c-a66e-4ba7-a170-23efbdc67501","{""participantId"":""14138DFBEEC041E28E13E8465B16F76F"",""assignmentId"":""7fade5c3-8340-44b6-a417-6aac0de824b8"",""projectId"":""a0a8f18c-a66e-4ba7-a170-23efbdc67501""}","https://test12345.live/?participantId=14138DFBEEC041E28E13E8465B16F76F&assignmentId=7fade5c3-8340-44b6-a417-6aac0de824b8&projectId=a0a8f18c-a66e-4ba7-a170-23efbdc67501","14138DFBEEC041E28E13E8465B16F76F-2024-11-24-18-44-05","","2084","","images/schematic_sequence/flight_scheme/flight_scheme_8.png","1","",""
"","","","","","image-button-response","135","667705","0.0-16.0-1.0-2.4","14138DFBEEC041E28E13E8465B16F76F","14138DFBEEC041E28E13E8465B16F76F","7fade5c3-8340-44b6-a417-6aac0de824b8","a0a8f18c-a66e-4ba7-a170-23efbdc67501","{""participantId"":""14138DFBEEC041E28E13E8465B16F76F"",""assignmentId"":""7fade5c3-8340-44b6-a417-6aac0de824b8"",""projectId"":""a0a8f18c-a66e-4ba7-a170-23efbdc67501""}","https://test12345.live/?participantId=14138DFBEEC041E28E13E8465B16F76F&assignmentId=7fade5c3-8340-44b6-a417-6aac0de824b8&projectId=a0a8f18c-a66e-4ba7-a170-23efbdc67501","14138DFBEEC041E28E13E8465B16F76F-2024-11-24-18-44-05","","null","","[]","null","",""
"","","","","","image-button-response","136","672719","0.0-16.0-1.0-0.5","14138DFBEEC041E28E13E8465B16F76F","14138DFBEEC041E28E13E8465B16F76F","7fade5c3-8340-44b6-a417-6aac0de824b8","a0a8f18c-a66e-4ba7-a170-23efbdc67501","{""participantId"":""14138DFBEEC041E28E13E8465B16F76F"",""assignmentId"":""7fade5c3-8340-44b6-a417-6aac0de824b8"",""projectId"":""a0a8f18c-a66e-4ba7-a170-23efbdc67501""}","https://test12345.live/?participantId=14138DFBEEC041E28E13E8465B16F76F&assignmentId=7fade5c3-8340-44b6-a417-6aac0de824b8&projectId=a0a8f18c-a66e-4ba7-a170-23efbdc67501","14138DFBEEC041E28E13E8465B16F76F-2024-11-24-18-44-05","","null","","images/schematic_sequence/flight_scheme/flight_scheme_3.png","null","",""
"","","","","","image-button-response","137","674092","0.0-16.0-1.0-1.5","14138DFBEEC041E28E13E8465B16F76F","14138DFBEEC041E28E13E8465B16F76F","7fade5c3-8340-44b6-a417-6aac0de824b8","a0a8f18c-a66e-4ba7-a170-23efbdc67501","{""participantId"":""14138DFBEEC041E28E13E8465B16F76F"",""assignmentId"":""7fade5c3-8340-44b6-a417-6aac0de824b8"",""projectId"":""a0a8f18c-a66e-4ba7-a170-23efbdc67501""}","https://test12345.live/?participantId=14138DFBEEC041E28E13E8465B16F76F&assignmentId=7fade5c3-8340-44b6-a417-6aac0de824b8&projectId=a0a8f18c-a66e-4ba7-a170-23efbdc67501","14138DFBEEC041E28E13E8465B16F76F-2024-11-24-18-44-05","","1370","","images/schematic_sequence/flight_scheme/flight_scheme_3.png","0","",""
"","","","","","image-button-response","138","675909","0.0-16.0-1.0-2.5","14138DFBEEC041E28E13E8465B16F76F","14138DFBEEC041E28E13E8465B16F76F","7fade5c3-8340-44b6-a417-6aac0de824b8","a0a8f18c-a66e-4ba7-a170-23efbdc67501","{""participantId"":""14138DFBEEC041E28E13E8465B16F76F"",""assignmentId"":""7fade5c3-8340-44b6-a417-6aac0de824b8"",""projectId"":""a0a8f18c-a66e-4ba7-a170-23efbdc67501""}","https://test12345.live/?participantId=14138DFBEEC041E28E13E8465B16F76F&assignmentId=7fade5c3-8340-44b6-a417-6aac0de824b8&projectId=a0a8f18c-a66e-4ba7-a170-23efbdc67501","14138DFBEEC041E28E13E8465B16F76F-2024-11-24-18-44-05","","null","","[]","null","",""
"","","","","","image-button-response","139","680453","0.0-16.0-1.0-0.6","14138DFBEEC041E28E13E8465B16F76F","14138DFBEEC041E28E13E8465B16F76F","7fade5c3-8340-44b6-a417-6aac0de824b8","a0a8f18c-a66e-4ba7-a170-23efbdc67501","{""participantId"":""14138DFBEEC041E28E13E8465B16F76F"",""assignmentId"":""7fade5c3-8340-44b6-a417-6aac0de824b8"",""projectId"":""a0a8f18c-a66e-4ba7-a170-23efbdc67501""}","https://test12345.live/?participantId=14138DFBEEC041E28E13E8465B16F76F&assignmentId=7fade5c3-8340-44b6-a417-6aac0de824b8&projectId=a0a8f18c-a66e-4ba7-a170-23efbdc67501","14138DFBEEC041E28E13E8465B16F76F-2024-11-24-18-44-05","","null","","images/schematic_sequence/flight_scheme/flight_scheme_2.png","null","",""
"","","","","","image-button-response","140","681749","0.0-16.0-1.0-1.6","14138DFBEEC041E28E13E8465B16F76F","14138DFBEEC041E28E13E8465B16F76F","7fade5c3-8340-44b6-a417-6aac0de824b8","a0a8f18c-a66e-4ba7-a170-23efbdc67501","{""participantId"":""14138DFBEEC041E28E13E8465B16F76F"",""assignmentId"":""7fade5c3-8340-44b6-a417-6aac0de824b8"",""projectId"":""a0a8f18c-a66e-4ba7-a170-23efbdc67501""}","https://test12345.live/?participantId=14138DFBEEC041E28E13E8465B16F76F&assignmentId=7fade5c3-8340-44b6-a417-6aac0de824b8&projectId=a0a8f18c-a66e-4ba7-a170-23efbdc67501","14138DFBEEC041E28E13E8465B16F76F-2024-11-24-18-44-05","","1295","","images/schematic_sequence/flight_scheme/flight_scheme_2.png","1","",""
"","","","","","image-button-response","141","683557","0.0-16.0-1.0-2.6","14138DFBEEC041E28E13E8465B16F76F","14138DFBEEC041E28E13E8465B16F76F","7fade5c3-8340-44b6-a417-6aac0de824b8","a0a8f18c-a66e-4ba7-a170-23efbdc67501","{""participantId"":""14138DFBEEC041E28E13E8465B16F76F"",""assignmentId"":""7fade5c3-8340-44b6-a417-6aac0de824b8"",""projectId"":""a0a8f18c-a66e-4ba7-a170-23efbdc67501""}","https://test12345.live/?participantId=14138DFBEEC041E28E13E8465B16F76F&assignmentId=7fade5c3-8340-44b6-a417-6aac0de824b8&projectId=a0a8f18c-a66e-4ba7-a170-23efbdc67501","14138DFBEEC041E28E13E8465B16F76F-2024-11-24-18-44-05","","null","","[]","null","",""
"","","","","","image-button-response","142","688147","0.0-16.0-1.0-0.7","14138DFBEEC041E28E13E8465B16F76F","14138DFBEEC041E28E13E8465B16F76F","7fade5c3-8340-44b6-a417-6aac0de824b8","a0a8f18c-a66e-4ba7-a170-23efbdc67501","{""participantId"":""14138DFBEEC041E28E13E8465B16F76F"",""assignmentId"":""7fade5c3-8340-44b6-a417-6aac0de824b8"",""projectId"":""a0a8f18c-a66e-4ba7-a170-23efbdc67501""}","https://test12345.live/?participantId=14138DFBEEC041E28E13E8465B16F76F&assignmentId=7fade5c3-8340-44b6-a417-6aac0de824b8&projectId=a0a8f18c-a66e-4ba7-a170-23efbdc67501","14138DFBEEC041E28E13E8465B16F76F-2024-11-24-18-44-05","","null","","images/schematic_sequence/flight_scheme/flight_scheme_ten.png","null","",""
"","","","","","image-button-response","143","691092","0.0-16.0-1.0-1.7","14138DFBEEC041E28E13E8465B16F76F","14138DFBEEC041E28E13E8465B16F76F","7fade5c3-8340-44b6-a417-6aac0de824b8","a0a8f18c-a66e-4ba7-a170-23efbdc67501","{""participantId"":""14138DFBEEC041E28E13E8465B16F76F"",""assignmentId"":""7fade5c3-8340-44b6-a417-6aac0de824b8"",""projectId"":""a0a8f18c-a66e-4ba7-a170-23efbdc67501""}","https://test12345.live/?participantId=14138DFBEEC041E28E13E8465B16F76F&assignmentId=7fade5c3-8340-44b6-a417-6aac0de824b8&projectId=a0a8f18c-a66e-4ba7-a170-23efbdc67501","14138DFBEEC041E28E13E8465B16F76F-2024-11-24-18-44-05","","2945","","images/schematic_sequence/flight_scheme/flight_scheme_ten.png","0","",""
