"success","timeout","failed_images","failed_audio","failed_video","trial_type","trial_index","time_elapsed","internal_node_id","subject","subject_id","study_id","session_id","urlvar","current_url","audio_id","view_history","rt","device_id","stimulus","response","estimated_stimulus_onset","seq_name"
"true","false","[]","[]","[]","preload","0","11665","0.0-0.0","143A508813DA45C2852DC6A78FD99FC0","143A508813DA45C2852DC6A78FD99FC0","2c6e3c65-13d1-46ed-a543-4a89d6aa8019","a9f3d40c-5730-405c-b25e-1034c4c56f3f","{""num_scrambled_semantic"":""8"",""num_scrambled_causal"":""4"",""num_scrambled_schematic"":""4"",""participantId"":""143A508813DA45C2852DC6A78FD99FC0"",""assignmentId"":""2c6e3c65-13d1-46ed-a543-4a89d6aa8019"",""projectId"":""a9f3d40c-5730-405c-b25e-1034c4c56f3f""}","https://test12345.live/?num_scrambled_semantic=8&num_scrambled_causal=4&num_scrambled_schematic=4&participantId=143A508813DA45C2852DC6A78FD99FC0&assignmentId=2c6e3c65-13d1-46ed-a543-4a89d6aa8019&projectId=a9f3d40c-5730-405c-b25e-1034c4c56f3f","143A508813DA45C2852DC6A78FD99FC0-2025-08-07-20-29-14","","","","","","",""
"","","","","","instructions","1","44943","0.0-1.0","143A508813DA45C2852DC6A78FD99FC0","143A508813DA45C2852DC6A78FD99FC0","2c6e3c65-13d1-46ed-a543-4a89d6aa8019","a9f3d40c-5730-405c-b25e-1034c4c56f3f","{""num_scrambled_semantic"":""8"",""num_scrambled_causal"":""4"",""num_scrambled_schematic"":""4"",""participantId"":""143A508813DA45C2852DC6A78FD99FC0"",""assignmentId"":""2c6e3c65-13d1-46ed-a543-4a89d6aa8019"",""projectId"":""a9f3d40c-5730-405c-b25e-1034c4c56f3f""}","https://test12345.live/?num_scrambled_semantic=8&num_scrambled_causal=4&num_scrambled_schematic=4&participantId=143A508813DA45C2852DC6A78FD99FC0&assignmentId=2c6e3c65-13d1-46ed-a543-4a89d6aa8019&projectId=a9f3d40c-5730-405c-b25e-1034c4c56f3f","143A508813DA45C2852DC6A78FD99FC0-2025-08-07-20-29-14","[{""page_index"":0,""viewing_time"":33278}]","33278","","","","",""
"","","","","","instructions","2","59614","0.0-2.0","143A508813DA45C2852DC6A78FD99FC0","143A508813DA45C2852DC6A78FD99FC0","2c6e3c65-13d1-46ed-a543-4a89d6aa8019","a9f3d40c-5730-405c-b25e-1034c4c56f3f","{""num_scrambled_semantic"":""8"",""num_scrambled_causal"":""4"",""num_scrambled_schematic"":""4"",""participantId"":""143A508813DA45C2852DC6A78FD99FC0"",""assignmentId"":""2c6e3c65-13d1-46ed-a543-4a89d6aa8019"",""projectId"":""a9f3d40c-5730-405c-b25e-1034c4c56f3f""}","https://test12345.live/?num_scrambled_semantic=8&num_scrambled_causal=4&num_scrambled_schematic=4&participantId=143A508813DA45C2852DC6A78FD99FC0&assignmentId=2c6e3c65-13d1-46ed-a543-4a89d6aa8019&projectId=a9f3d40c-5730-405c-b25e-1034c4c56f3f","143A508813DA45C2852DC6A78FD99FC0-2025-08-07-20-29-14","[{""page_index"":0,""viewing_time"":14670}]","14670","","","","",""
"true","","","","","fullscreen","3","62544","0.0-3.0","143A508813DA45C2852DC6A78FD99FC0","143A508813DA45C2852DC6A78FD99FC0","2c6e3c65-13d1-46ed-a543-4a89d6aa8019","a9f3d40c-5730-405c-b25e-1034c4c56f3f","{""num_scrambled_semantic"":""8"",""num_scrambled_causal"":""4"",""num_scrambled_schematic"":""4"",""participantId"":""143A508813DA45C2852DC6A78FD99FC0"",""assignmentId"":""2c6e3c65-13d1-46ed-a543-4a89d6aa8019"",""projectId"":""a9f3d40c-5730-405c-b25e-1034c4c56f3f""}","https://test12345.live/?num_scrambled_semantic=8&num_scrambled_causal=4&num_scrambled_schematic=4&participantId=143A508813DA45C2852DC6A78FD99FC0&assignmentId=2c6e3c65-13d1-46ed-a543-4a89d6aa8019&projectId=a9f3d40c-5730-405c-b25e-1034c4c56f3f","143A508813DA45C2852DC6A78FD99FC0-2025-08-07-20-29-14","","1925","","","","",""
"","","","","","initialize-microphone","4","120238","0.0-4.0-0.0","143A508813DA45C2852DC6A78FD99FC0","143A508813DA45C2852DC6A78FD99FC0","2c6e3c65-13d1-46ed-a543-4a89d6aa8019","a9f3d40c-5730-405c-b25e-1034c4c56f3f","{""num_scrambled_semantic"":""8"",""num_scrambled_causal"":""4"",""num_scrambled_schematic"":""4"",""participantId"":""143A508813DA45C2852DC6A78FD99FC0"",""assignmentId"":""2c6e3c65-13d1-46ed-a543-4a89d6aa8019"",""projectId"":""a9f3d40c-5730-405c-b25e-1034c4c56f3f""}","https://test12345.live/?num_scrambled_semantic=8&num_scrambled_causal=4&num_scrambled_schematic=4&participantId=143A508813DA45C2852DC6A78FD99FC0&assignmentId=2c6e3c65-13d1-46ed-a543-4a89d6aa8019&projectId=a9f3d40c-5730-405c-b25e-1034c4c56f3f","143A508813DA45C2852DC6A78FD99FC0-2025-08-07-20-29-14","","","1f8c344284b6345d9dcac40fd58a3c240028f98c2218e1e865585a22d59f7750","","","",""
"","","","","","html-audio-response","5","149676","0.0-4.0-1.0","143A508813DA45C2852DC6A78FD99FC0","143A508813DA45C2852DC6A78FD99FC0","2c6e3c65-13d1-46ed-a543-4a89d6aa8019","a9f3d40c-5730-405c-b25e-1034c4c56f3f","{""num_scrambled_semantic"":""8"",""num_scrambled_causal"":""4"",""num_scrambled_schematic"":""4"",""participantId"":""143A508813DA45C2852DC6A78FD99FC0"",""assignmentId"":""2c6e3c65-13d1-46ed-a543-4a89d6aa8019"",""projectId"":""a9f3d40c-5730-405c-b25e-1034c4c56f3f""}","https://test12345.live/?num_scrambled_semantic=8&num_scrambled_causal=4&num_scrambled_schematic=4&participantId=143A508813DA45C2852DC6A78FD99FC0&assignmentId=2c6e3c65-13d1-46ed-a543-4a89d6aa8019&projectId=a9f3d40c-5730-405c-b25e-1034c4c56f3f","143A508813DA45C2852DC6A78FD99FC0-2025-08-07-20-29-14","","13798","","<span style=""color: red; font-size: 24px""> NOW RECORDING</span>
        <p>Please test Microphone</p>","","3",""
"","","","","","html-button-response","6","152432","0.0-4.0-2.0","143A508813DA45C2852DC6A78FD99FC0","143A508813DA45C2852DC6A78FD99FC0","2c6e3c65-13d1-46ed-a543-4a89d6aa8019","a9f3d40c-5730-405c-b25e-1034c4c56f3f","{""num_scrambled_semantic"":""8"",""num_scrambled_causal"":""4"",""num_scrambled_schematic"":""4"",""participantId"":""143A508813DA45C2852DC6A78FD99FC0"",""assignmentId"":""2c6e3c65-13d1-46ed-a543-4a89d6aa8019"",""projectId"":""a9f3d40c-5730-405c-b25e-1034c4c56f3f""}","https://test12345.live/?num_scrambled_semantic=8&num_scrambled_causal=4&num_scrambled_schematic=4&participantId=143A508813DA45C2852DC6A78FD99FC0&assignmentId=2c6e3c65-13d1-46ed-a543-4a89d6aa8019&projectId=a9f3d40c-5730-405c-b25e-1034c4c56f3f","143A508813DA45C2852DC6A78FD99FC0-2025-08-07-20-29-14","","2755","","<p style=""font-size:48px; color:red;"">Is Microphone OK?</p>","1","",""
"","","","","","instructions","7","166680","0.0-5.0","143A508813DA45C2852DC6A78FD99FC0","143A508813DA45C2852DC6A78FD99FC0","2c6e3c65-13d1-46ed-a543-4a89d6aa8019","a9f3d40c-5730-405c-b25e-1034c4c56f3f","{""num_scrambled_semantic"":""8"",""num_scrambled_causal"":""4"",""num_scrambled_schematic"":""4"",""participantId"":""143A508813DA45C2852DC6A78FD99FC0"",""assignmentId"":""2c6e3c65-13d1-46ed-a543-4a89d6aa8019"",""projectId"":""a9f3d40c-5730-405c-b25e-1034c4c56f3f""}","https://test12345.live/?num_scrambled_semantic=8&num_scrambled_causal=4&num_scrambled_schematic=4&participantId=143A508813DA45C2852DC6A78FD99FC0&assignmentId=2c6e3c65-13d1-46ed-a543-4a89d6aa8019&projectId=a9f3d40c-5730-405c-b25e-1034c4c56f3f","143A508813DA45C2852DC6A78FD99FC0-2025-08-07-20-29-14","[{""page_index"":0,""viewing_time"":7457},{""page_index"":1,""viewing_time"":6790}]","14247","","","","",""
"","","","","","image-button-response","8","172703","0.0-6.0-0.0","143A508813DA45C2852DC6A78FD99FC0","143A508813DA45C2852DC6A78FD99FC0","2c6e3c65-13d1-46ed-a543-4a89d6aa8019","a9f3d40c-5730-405c-b25e-1034c4c56f3f","{""num_scrambled_semantic"":""8"",""num_scrambled_causal"":""4"",""num_scrambled_schematic"":""4"",""participantId"":""143A508813DA45C2852DC6A78FD99FC0"",""assignmentId"":""2c6e3c65-13d1-46ed-a543-4a89d6aa8019"",""projectId"":""a9f3d40c-5730-405c-b25e-1034c4c56f3f""}","https://test12345.live/?num_scrambled_semantic=8&num_scrambled_causal=4&num_scrambled_schematic=4&participantId=143A508813DA45C2852DC6A78FD99FC0&assignmentId=2c6e3c65-13d1-46ed-a543-4a89d6aa8019&projectId=a9f3d40c-5730-405c-b25e-1034c4c56f3f","143A508813DA45C2852DC6A78FD99FC0-2025-08-07-20-29-14","","null","","images/instructions/movie_0.png","null","",""
"","","","","","image-button-response","9","177223","0.0-6.0-1.0-0.0","143A508813DA45C2852DC6A78FD99FC0","143A508813DA45C2852DC6A78FD99FC0","2c6e3c65-13d1-46ed-a543-4a89d6aa8019","a9f3d40c-5730-405c-b25e-1034c4c56f3f","{""num_scrambled_semantic"":""8"",""num_scrambled_causal"":""4"",""num_scrambled_schematic"":""4"",""participantId"":""143A508813DA45C2852DC6A78FD99FC0"",""assignmentId"":""2c6e3c65-13d1-46ed-a543-4a89d6aa8019"",""projectId"":""a9f3d40c-5730-405c-b25e-1034c4c56f3f""}","https://test12345.live/?num_scrambled_semantic=8&num_scrambled_causal=4&num_scrambled_schematic=4&participantId=143A508813DA45C2852DC6A78FD99FC0&assignmentId=2c6e3c65-13d1-46ed-a543-4a89d6aa8019&projectId=a9f3d40c-5730-405c-b25e-1034c4c56f3f","143A508813DA45C2852DC6A78FD99FC0-2025-08-07-20-29-14","","null","","images/instructions/movie_1.png","null","",""
"","","","","","image-button-response","10","180054","0.0-6.0-1.0-1.0","143A508813DA45C2852DC6A78FD99FC0","143A508813DA45C2852DC6A78FD99FC0","2c6e3c65-13d1-46ed-a543-4a89d6aa8019","a9f3d40c-5730-405c-b25e-1034c4c56f3f","{""num_scrambled_semantic"":""8"",""num_scrambled_causal"":""4"",""num_scrambled_schematic"":""4"",""participantId"":""143A508813DA45C2852DC6A78FD99FC0"",""assignmentId"":""2c6e3c65-13d1-46ed-a543-4a89d6aa8019"",""projectId"":""a9f3d40c-5730-405c-b25e-1034c4c56f3f""}","https://test12345.live/?num_scrambled_semantic=8&num_scrambled_causal=4&num_scrambled_schematic=4&participantId=143A508813DA45C2852DC6A78FD99FC0&assignmentId=2c6e3c65-13d1-46ed-a543-4a89d6aa8019&projectId=a9f3d40c-5730-405c-b25e-1034c4c56f3f","143A508813DA45C2852DC6A78FD99FC0-2025-08-07-20-29-14","","2830","","images/instructions/movie_1.png","0","",""
"","","","","","image-button-response","11","181873","0.0-6.0-1.0-2.0","143A508813DA45C2852DC6A78FD99FC0","143A508813DA45C2852DC6A78FD99FC0","2c6e3c65-13d1-46ed-a543-4a89d6aa8019","a9f3d40c-5730-405c-b25e-1034c4c56f3f","{""num_scrambled_semantic"":""8"",""num_scrambled_causal"":""4"",""num_scrambled_schematic"":""4"",""participantId"":""143A508813DA45C2852DC6A78FD99FC0"",""assignmentId"":""2c6e3c65-13d1-46ed-a543-4a89d6aa8019"",""projectId"":""a9f3d40c-5730-405c-b25e-1034c4c56f3f""}","https://test12345.live/?num_scrambled_semantic=8&num_scrambled_causal=4&num_scrambled_schematic=4&participantId=143A508813DA45C2852DC6A78FD99FC0&assignmentId=2c6e3c65-13d1-46ed-a543-4a89d6aa8019&projectId=a9f3d40c-5730-405c-b25e-1034c4c56f3f","143A508813DA45C2852DC6A78FD99FC0-2025-08-07-20-29-14","","null","","[]","null","",""
"","","","","","image-button-response","12","186393","0.0-6.0-1.0-0.1","143A508813DA45C2852DC6A78FD99FC0","143A508813DA45C2852DC6A78FD99FC0","2c6e3c65-13d1-46ed-a543-4a89d6aa8019","a9f3d40c-5730-405c-b25e-1034c4c56f3f","{""num_scrambled_semantic"":""8"",""num_scrambled_causal"":""4"",""num_scrambled_schematic"":""4"",""participantId"":""143A508813DA45C2852DC6A78FD99FC0"",""assignmentId"":""2c6e3c65-13d1-46ed-a543-4a89d6aa8019"",""projectId"":""a9f3d40c-5730-405c-b25e-1034c4c56f3f""}","https://test12345.live/?num_scrambled_semantic=8&num_scrambled_causal=4&num_scrambled_schematic=4&participantId=143A508813DA45C2852DC6A78FD99FC0&assignmentId=2c6e3c65-13d1-46ed-a543-4a89d6aa8019&projectId=a9f3d40c-5730-405c-b25e-1034c4c56f3f","143A508813DA45C2852DC6A78FD99FC0-2025-08-07-20-29-14","","null","","images/instructions/movie_2.png","null","",""
"","","","","","image-button-response","13","189874","0.0-6.0-1.0-1.1","143A508813DA45C2852DC6A78FD99FC0","143A508813DA45C2852DC6A78FD99FC0","2c6e3c65-13d1-46ed-a543-4a89d6aa8019","a9f3d40c-5730-405c-b25e-1034c4c56f3f","{""num_scrambled_semantic"":""8"",""num_scrambled_causal"":""4"",""num_scrambled_schematic"":""4"",""participantId"":""143A508813DA45C2852DC6A78FD99FC0"",""assignmentId"":""2c6e3c65-13d1-46ed-a543-4a89d6aa8019"",""projectId"":""a9f3d40c-5730-405c-b25e-1034c4c56f3f""}","https://test12345.live/?num_scrambled_semantic=8&num_scrambled_causal=4&num_scrambled_schematic=4&participantId=143A508813DA45C2852DC6A78FD99FC0&assignmentId=2c6e3c65-13d1-46ed-a543-4a89d6aa8019&projectId=a9f3d40c-5730-405c-b25e-1034c4c56f3f","143A508813DA45C2852DC6A78FD99FC0-2025-08-07-20-29-14","","3480","","images/instructions/movie_2.png","0","",""
"","","","","","image-button-response","14","191692","0.0-6.0-1.0-2.1","143A508813DA45C2852DC6A78FD99FC0","143A508813DA45C2852DC6A78FD99FC0","2c6e3c65-13d1-46ed-a543-4a89d6aa8019","a9f3d40c-5730-405c-b25e-1034c4c56f3f","{""num_scrambled_semantic"":""8"",""num_scrambled_causal"":""4"",""num_scrambled_schematic"":""4"",""participantId"":""143A508813DA45C2852DC6A78FD99FC0"",""assignmentId"":""2c6e3c65-13d1-46ed-a543-4a89d6aa8019"",""projectId"":""a9f3d40c-5730-405c-b25e-1034c4c56f3f""}","https://test12345.live/?num_scrambled_semantic=8&num_scrambled_causal=4&num_scrambled_schematic=4&participantId=143A508813DA45C2852DC6A78FD99FC0&assignmentId=2c6e3c65-13d1-46ed-a543-4a89d6aa8019&projectId=a9f3d40c-5730-405c-b25e-1034c4c56f3f","143A508813DA45C2852DC6A78FD99FC0-2025-08-07-20-29-14","","null","","[]","null","",""
"","","","","","image-button-response","15","196201","0.0-6.0-1.0-0.2","143A508813DA45C2852DC6A78FD99FC0","143A508813DA45C2852DC6A78FD99FC0","2c6e3c65-13d1-46ed-a543-4a89d6aa8019","a9f3d40c-5730-405c-b25e-1034c4c56f3f","{""num_scrambled_semantic"":""8"",""num_scrambled_causal"":""4"",""num_scrambled_schematic"":""4"",""participantId"":""143A508813DA45C2852DC6A78FD99FC0"",""assignmentId"":""2c6e3c65-13d1-46ed-a543-4a89d6aa8019"",""projectId"":""a9f3d40c-5730-405c-b25e-1034c4c56f3f""}","https://test12345.live/?num_scrambled_semantic=8&num_scrambled_causal=4&num_scrambled_schematic=4&participantId=143A508813DA45C2852DC6A78FD99FC0&assignmentId=2c6e3c65-13d1-46ed-a543-4a89d6aa8019&projectId=a9f3d40c-5730-405c-b25e-1034c4c56f3f","143A508813DA45C2852DC6A78FD99FC0-2025-08-07-20-29-14","","null","","images/instructions/movie_3.png","null","",""
"","","","","","image-button-response","16","197954","0.0-6.0-1.0-1.2","143A508813DA45C2852DC6A78FD99FC0","143A508813DA45C2852DC6A78FD99FC0","2c6e3c65-13d1-46ed-a543-4a89d6aa8019","a9f3d40c-5730-405c-b25e-1034c4c56f3f","{""num_scrambled_semantic"":""8"",""num_scrambled_causal"":""4"",""num_scrambled_schematic"":""4"",""participantId"":""143A508813DA45C2852DC6A78FD99FC0"",""assignmentId"":""2c6e3c65-13d1-46ed-a543-4a89d6aa8019"",""projectId"":""a9f3d40c-5730-405c-b25e-1034c4c56f3f""}","https://test12345.live/?num_scrambled_semantic=8&num_scrambled_causal=4&num_scrambled_schematic=4&participantId=143A508813DA45C2852DC6A78FD99FC0&assignmentId=2c6e3c65-13d1-46ed-a543-4a89d6aa8019&projectId=a9f3d40c-5730-405c-b25e-1034c4c56f3f","143A508813DA45C2852DC6A78FD99FC0-2025-08-07-20-29-14","","1751","","images/instructions/movie_3.png","0","",""
"","","","","","image-button-response","17","199773","0.0-6.0-1.0-2.2","143A508813DA45C2852DC6A78FD99FC0","143A508813DA45C2852DC6A78FD99FC0","2c6e3c65-13d1-46ed-a543-4a89d6aa8019","a9f3d40c-5730-405c-b25e-1034c4c56f3f","{""num_scrambled_semantic"":""8"",""num_scrambled_causal"":""4"",""num_scrambled_schematic"":""4"",""participantId"":""143A508813DA45C2852DC6A78FD99FC0"",""assignmentId"":""2c6e3c65-13d1-46ed-a543-4a89d6aa8019"",""projectId"":""a9f3d40c-5730-405c-b25e-1034c4c56f3f""}","https://test12345.live/?num_scrambled_semantic=8&num_scrambled_causal=4&num_scrambled_schematic=4&participantId=143A508813DA45C2852DC6A78FD99FC0&assignmentId=2c6e3c65-13d1-46ed-a543-4a89d6aa8019&projectId=a9f3d40c-5730-405c-b25e-1034c4c56f3f","143A508813DA45C2852DC6A78FD99FC0-2025-08-07-20-29-14","","null","","[]","null","",""
"","","","","","image-button-response","18","204293","0.0-6.0-1.0-0.3","143A508813DA45C2852DC6A78FD99FC0","143A508813DA45C2852DC6A78FD99FC0","2c6e3c65-13d1-46ed-a543-4a89d6aa8019","a9f3d40c-5730-405c-b25e-1034c4c56f3f","{""num_scrambled_semantic"":""8"",""num_scrambled_causal"":""4"",""num_scrambled_schematic"":""4"",""participantId"":""143A508813DA45C2852DC6A78FD99FC0"",""assignmentId"":""2c6e3c65-13d1-46ed-a543-4a89d6aa8019"",""projectId"":""a9f3d40c-5730-405c-b25e-1034c4c56f3f""}","https://test12345.live/?num_scrambled_semantic=8&num_scrambled_causal=4&num_scrambled_schematic=4&participantId=143A508813DA45C2852DC6A78FD99FC0&assignmentId=2c6e3c65-13d1-46ed-a543-4a89d6aa8019&projectId=a9f3d40c-5730-405c-b25e-1034c4c56f3f","143A508813DA45C2852DC6A78FD99FC0-2025-08-07-20-29-14","","null","","images/instructions/movie_4.png","null","",""
"","","","","","image-button-response","19","205316","0.0-6.0-1.0-1.3","143A508813DA45C2852DC6A78FD99FC0","143A508813DA45C2852DC6A78FD99FC0","2c6e3c65-13d1-46ed-a543-4a89d6aa8019","a9f3d40c-5730-405c-b25e-1034c4c56f3f","{""num_scrambled_semantic"":""8"",""num_scrambled_causal"":""4"",""num_scrambled_schematic"":""4"",""participantId"":""143A508813DA45C2852DC6A78FD99FC0"",""assignmentId"":""2c6e3c65-13d1-46ed-a543-4a89d6aa8019"",""projectId"":""a9f3d40c-5730-405c-b25e-1034c4c56f3f""}","https://test12345.live/?num_scrambled_semantic=8&num_scrambled_causal=4&num_scrambled_schematic=4&participantId=143A508813DA45C2852DC6A78FD99FC0&assignmentId=2c6e3c65-13d1-46ed-a543-4a89d6aa8019&projectId=a9f3d40c-5730-405c-b25e-1034c4c56f3f","143A508813DA45C2852DC6A78FD99FC0-2025-08-07-20-29-14","","1022","","images/instructions/movie_4.png","0","",""
"","","","","","image-button-response","20","207122","0.0-6.0-1.0-2.3","143A508813DA45C2852DC6A78FD99FC0","143A508813DA45C2852DC6A78FD99FC0","2c6e3c65-13d1-46ed-a543-4a89d6aa8019","a9f3d40c-5730-405c-b25e-1034c4c56f3f","{""num_scrambled_semantic"":""8"",""num_scrambled_causal"":""4"",""num_scrambled_schematic"":""4"",""participantId"":""143A508813DA45C2852DC6A78FD99FC0"",""assignmentId"":""2c6e3c65-13d1-46ed-a543-4a89d6aa8019"",""projectId"":""a9f3d40c-5730-405c-b25e-1034c4c56f3f""}","https://test12345.live/?num_scrambled_semantic=8&num_scrambled_causal=4&num_scrambled_schematic=4&participantId=143A508813DA45C2852DC6A78FD99FC0&assignmentId=2c6e3c65-13d1-46ed-a543-4a89d6aa8019&projectId=a9f3d40c-5730-405c-b25e-1034c4c56f3f","143A508813DA45C2852DC6A78FD99FC0-2025-08-07-20-29-14","","null","","[]","null","",""
"","","","","","instructions","21","216490","0.0-7.0","143A508813DA45C2852DC6A78FD99FC0","143A508813DA45C2852DC6A78FD99FC0","2c6e3c65-13d1-46ed-a543-4a89d6aa8019","a9f3d40c-5730-405c-b25e-1034c4c56f3f","{""num_scrambled_semantic"":""8"",""num_scrambled_causal"":""4"",""num_scrambled_schematic"":""4"",""participantId"":""143A508813DA45C2852DC6A78FD99FC0"",""assignmentId"":""2c6e3c65-13d1-46ed-a543-4a89d6aa8019"",""projectId"":""a9f3d40c-5730-405c-b25e-1034c4c56f3f""}","https://test12345.live/?num_scrambled_semantic=8&num_scrambled_causal=4&num_scrambled_schematic=4&participantId=143A508813DA45C2852DC6A78FD99FC0&assignmentId=2c6e3c65-13d1-46ed-a543-4a89d6aa8019&projectId=a9f3d40c-5730-405c-b25e-1034c4c56f3f","143A508813DA45C2852DC6A78FD99FC0-2025-08-07-20-29-14","[{""page_index"":0,""viewing_time"":8615},{""page_index"":1,""viewing_time"":752}]","9368","","","","",""
"","","","","","html-audio-response","22","258704","0.0-8.0","143A508813DA45C2852DC6A78FD99FC0","143A508813DA45C2852DC6A78FD99FC0","2c6e3c65-13d1-46ed-a543-4a89d6aa8019","a9f3d40c-5730-405c-b25e-1034c4c56f3f","{""num_scrambled_semantic"":""8"",""num_scrambled_causal"":""4"",""num_scrambled_schematic"":""4"",""participantId"":""143A508813DA45C2852DC6A78FD99FC0"",""assignmentId"":""2c6e3c65-13d1-46ed-a543-4a89d6aa8019"",""projectId"":""a9f3d40c-5730-405c-b25e-1034c4c56f3f""}","https://test12345.live/?num_scrambled_semantic=8&num_scrambled_causal=4&num_scrambled_schematic=4&participantId=143A508813DA45C2852DC6A78FD99FC0&assignmentId=2c6e3c65-13d1-46ed-a543-4a89d6aa8019&projectId=a9f3d40c-5730-405c-b25e-1034c4c56f3f","143A508813DA45C2852DC6A78FD99FC0-2025-08-07-20-29-14","","20162","","[""<span style=\""color: red; font-size: 24px\""> NOW RECORDING</span><p>Please say out loud all the images you saw, as many as you can remember. The images can be said in any order.</p>""]","","2",""
"","","","","","instructions","23","260224","0.0-9.0","143A508813DA45C2852DC6A78FD99FC0","143A508813DA45C2852DC6A78FD99FC0","2c6e3c65-13d1-46ed-a543-4a89d6aa8019","a9f3d40c-5730-405c-b25e-1034c4c56f3f","{""num_scrambled_semantic"":""8"",""num_scrambled_causal"":""4"",""num_scrambled_schematic"":""4"",""participantId"":""143A508813DA45C2852DC6A78FD99FC0"",""assignmentId"":""2c6e3c65-13d1-46ed-a543-4a89d6aa8019"",""projectId"":""a9f3d40c-5730-405c-b25e-1034c4c56f3f""}","https://test12345.live/?num_scrambled_semantic=8&num_scrambled_causal=4&num_scrambled_schematic=4&participantId=143A508813DA45C2852DC6A78FD99FC0&assignmentId=2c6e3c65-13d1-46ed-a543-4a89d6aa8019&projectId=a9f3d40c-5730-405c-b25e-1034c4c56f3f","143A508813DA45C2852DC6A78FD99FC0-2025-08-07-20-29-14","[{""page_index"":0,""viewing_time"":1516}]","1517","","","","",""
"","","","","","image-button-response","24","266242","0.0-10.0-0.0","143A508813DA45C2852DC6A78FD99FC0","143A508813DA45C2852DC6A78FD99FC0","2c6e3c65-13d1-46ed-a543-4a89d6aa8019","a9f3d40c-5730-405c-b25e-1034c4c56f3f","{""num_scrambled_semantic"":""8"",""num_scrambled_causal"":""4"",""num_scrambled_schematic"":""4"",""participantId"":""143A508813DA45C2852DC6A78FD99FC0"",""assignmentId"":""2c6e3c65-13d1-46ed-a543-4a89d6aa8019"",""projectId"":""a9f3d40c-5730-405c-b25e-1034c4c56f3f""}","https://test12345.live/?num_scrambled_semantic=8&num_scrambled_causal=4&num_scrambled_schematic=4&participantId=143A508813DA45C2852DC6A78FD99FC0&assignmentId=2c6e3c65-13d1-46ed-a543-4a89d6aa8019&projectId=a9f3d40c-5730-405c-b25e-1034c4c56f3f","143A508813DA45C2852DC6A78FD99FC0-2025-08-07-20-29-14","","null","","images/causal_sequence/coin_causal/coin_causal_0.png","null","",""
"","","","","","image-button-response","25","270763","0.0-10.0-1.0-0.0","143A508813DA45C2852DC6A78FD99FC0","143A508813DA45C2852DC6A78FD99FC0","2c6e3c65-13d1-46ed-a543-4a89d6aa8019","a9f3d40c-5730-405c-b25e-1034c4c56f3f","{""num_scrambled_semantic"":""8"",""num_scrambled_causal"":""4"",""num_scrambled_schematic"":""4"",""participantId"":""143A508813DA45C2852DC6A78FD99FC0"",""assignmentId"":""2c6e3c65-13d1-46ed-a543-4a89d6aa8019"",""projectId"":""a9f3d40c-5730-405c-b25e-1034c4c56f3f""}","https://test12345.live/?num_scrambled_semantic=8&num_scrambled_causal=4&num_scrambled_schematic=4&participantId=143A508813DA45C2852DC6A78FD99FC0&assignmentId=2c6e3c65-13d1-46ed-a543-4a89d6aa8019&projectId=a9f3d40c-5730-405c-b25e-1034c4c56f3f","143A508813DA45C2852DC6A78FD99FC0-2025-08-07-20-29-14","","null","","images/causal_sequence/coin_causal/coin_causal_2.png","null","",""
"","","","","","image-button-response","26","272834","0.0-10.0-1.0-1.0","143A508813DA45C2852DC6A78FD99FC0","143A508813DA45C2852DC6A78FD99FC0","2c6e3c65-13d1-46ed-a543-4a89d6aa8019","a9f3d40c-5730-405c-b25e-1034c4c56f3f","{""num_scrambled_semantic"":""8"",""num_scrambled_causal"":""4"",""num_scrambled_schematic"":""4"",""participantId"":""143A508813DA45C2852DC6A78FD99FC0"",""assignmentId"":""2c6e3c65-13d1-46ed-a543-4a89d6aa8019"",""projectId"":""a9f3d40c-5730-405c-b25e-1034c4c56f3f""}","https://test12345.live/?num_scrambled_semantic=8&num_scrambled_causal=4&num_scrambled_schematic=4&participantId=143A508813DA45C2852DC6A78FD99FC0&assignmentId=2c6e3c65-13d1-46ed-a543-4a89d6aa8019&projectId=a9f3d40c-5730-405c-b25e-1034c4c56f3f","143A508813DA45C2852DC6A78FD99FC0-2025-08-07-20-29-14","","2070","","images/causal_sequence/coin_causal/coin_causal_2.png","0","",""
"","","","","","image-button-response","27","274653","0.0-10.0-1.0-2.0","143A508813DA45C2852DC6A78FD99FC0","143A508813DA45C2852DC6A78FD99FC0","2c6e3c65-13d1-46ed-a543-4a89d6aa8019","a9f3d40c-5730-405c-b25e-1034c4c56f3f","{""num_scrambled_semantic"":""8"",""num_scrambled_causal"":""4"",""num_scrambled_schematic"":""4"",""participantId"":""143A508813DA45C2852DC6A78FD99FC0"",""assignmentId"":""2c6e3c65-13d1-46ed-a543-4a89d6aa8019"",""projectId"":""a9f3d40c-5730-405c-b25e-1034c4c56f3f""}","https://test12345.live/?num_scrambled_semantic=8&num_scrambled_causal=4&num_scrambled_schematic=4&participantId=143A508813DA45C2852DC6A78FD99FC0&assignmentId=2c6e3c65-13d1-46ed-a543-4a89d6aa8019&projectId=a9f3d40c-5730-405c-b25e-1034c4c56f3f","143A508813DA45C2852DC6A78FD99FC0-2025-08-07-20-29-14","","null","","[]","null","",""
"","","","","","image-button-response","28","279162","0.0-10.0-1.0-0.1","143A508813DA45C2852DC6A78FD99FC0","143A508813DA45C2852DC6A78FD99FC0","2c6e3c65-13d1-46ed-a543-4a89d6aa8019","a9f3d40c-5730-405c-b25e-1034c4c56f3f","{""num_scrambled_semantic"":""8"",""num_scrambled_causal"":""4"",""num_scrambled_schematic"":""4"",""participantId"":""143A508813DA45C2852DC6A78FD99FC0"",""assignmentId"":""2c6e3c65-13d1-46ed-a543-4a89d6aa8019"",""projectId"":""a9f3d40c-5730-405c-b25e-1034c4c56f3f""}","https://test12345.live/?num_scrambled_semantic=8&num_scrambled_causal=4&num_scrambled_schematic=4&participantId=143A508813DA45C2852DC6A78FD99FC0&assignmentId=2c6e3c65-13d1-46ed-a543-4a89d6aa8019&projectId=a9f3d40c-5730-405c-b25e-1034c4c56f3f","143A508813DA45C2852DC6A78FD99FC0-2025-08-07-20-29-14","","null","","images/causal_sequence/coin_causal/coin_causal_8.png","null","",""
"","","","","","image-button-response","29","280638","0.0-10.0-1.0-1.1","143A508813DA45C2852DC6A78FD99FC0","143A508813DA45C2852DC6A78FD99FC0","2c6e3c65-13d1-46ed-a543-4a89d6aa8019","a9f3d40c-5730-405c-b25e-1034c4c56f3f","{""num_scrambled_semantic"":""8"",""num_scrambled_causal"":""4"",""num_scrambled_schematic"":""4"",""participantId"":""143A508813DA45C2852DC6A78FD99FC0"",""assignmentId"":""2c6e3c65-13d1-46ed-a543-4a89d6aa8019"",""projectId"":""a9f3d40c-5730-405c-b25e-1034c4c56f3f""}","https://test12345.live/?num_scrambled_semantic=8&num_scrambled_causal=4&num_scrambled_schematic=4&participantId=143A508813DA45C2852DC6A78FD99FC0&assignmentId=2c6e3c65-13d1-46ed-a543-4a89d6aa8019&projectId=a9f3d40c-5730-405c-b25e-1034c4c56f3f","143A508813DA45C2852DC6A78FD99FC0-2025-08-07-20-29-14","","1475","","images/causal_sequence/coin_causal/coin_causal_8.png","0","",""
"","","","","","image-button-response","30","282452","0.0-10.0-1.0-2.1","143A508813DA45C2852DC6A78FD99FC0","143A508813DA45C2852DC6A78FD99FC0","2c6e3c65-13d1-46ed-a543-4a89d6aa8019","a9f3d40c-5730-405c-b25e-1034c4c56f3f","{""num_scrambled_semantic"":""8"",""num_scrambled_causal"":""4"",""num_scrambled_schematic"":""4"",""participantId"":""143A508813DA45C2852DC6A78FD99FC0"",""assignmentId"":""2c6e3c65-13d1-46ed-a543-4a89d6aa8019"",""projectId"":""a9f3d40c-5730-405c-b25e-1034c4c56f3f""}","https://test12345.live/?num_scrambled_semantic=8&num_scrambled_causal=4&num_scrambled_schematic=4&participantId=143A508813DA45C2852DC6A78FD99FC0&assignmentId=2c6e3c65-13d1-46ed-a543-4a89d6aa8019&projectId=a9f3d40c-5730-405c-b25e-1034c4c56f3f","143A508813DA45C2852DC6A78FD99FC0-2025-08-07-20-29-14","","null","","[]","null","",""
"","","","","","image-button-response","31","286969","0.0-10.0-1.0-0.2","143A508813DA45C2852DC6A78FD99FC0","143A508813DA45C2852DC6A78FD99FC0","2c6e3c65-13d1-46ed-a543-4a89d6aa8019","a9f3d40c-5730-405c-b25e-1034c4c56f3f","{""num_scrambled_semantic"":""8"",""num_scrambled_causal"":""4"",""num_scrambled_schematic"":""4"",""participantId"":""143A508813DA45C2852DC6A78FD99FC0"",""assignmentId"":""2c6e3c65-13d1-46ed-a543-4a89d6aa8019"",""projectId"":""a9f3d40c-5730-405c-b25e-1034c4c56f3f""}","https://test12345.live/?num_scrambled_semantic=8&num_scrambled_causal=4&num_scrambled_schematic=4&participantId=143A508813DA45C2852DC6A78FD99FC0&assignmentId=2c6e3c65-13d1-46ed-a543-4a89d6aa8019&projectId=a9f3d40c-5730-405c-b25e-1034c4c56f3f","143A508813DA45C2852DC6A78FD99FC0-2025-08-07-20-29-14","","null","","images/causal_sequence/coin_causal/coin_causal_5.png","null","",""
"","","","","","image-button-response","32","287954","0.0-10.0-1.0-1.2","143A508813DA45C2852DC6A78FD99FC0","143A508813DA45C2852DC6A78FD99FC0","2c6e3c65-13d1-46ed-a543-4a89d6aa8019","a9f3d40c-5730-405c-b25e-1034c4c56f3f","{""num_scrambled_semantic"":""8"",""num_scrambled_causal"":""4"",""num_scrambled_schematic"":""4"",""participantId"":""143A508813DA45C2852DC6A78FD99FC0"",""assignmentId"":""2c6e3c65-13d1-46ed-a543-4a89d6aa8019"",""projectId"":""a9f3d40c-5730-405c-b25e-1034c4c56f3f""}","https://test12345.live/?num_scrambled_semantic=8&num_scrambled_causal=4&num_scrambled_schematic=4&participantId=143A508813DA45C2852DC6A78FD99FC0&assignmentId=2c6e3c65-13d1-46ed-a543-4a89d6aa8019&projectId=a9f3d40c-5730-405c-b25e-1034c4c56f3f","143A508813DA45C2852DC6A78FD99FC0-2025-08-07-20-29-14","","984","","images/causal_sequence/coin_causal/coin_causal_5.png","0","",""
"","","","","","image-button-response","33","289763","0.0-10.0-1.0-2.2","143A508813DA45C2852DC6A78FD99FC0","143A508813DA45C2852DC6A78FD99FC0","2c6e3c65-13d1-46ed-a543-4a89d6aa8019","a9f3d40c-5730-405c-b25e-1034c4c56f3f","{""num_scrambled_semantic"":""8"",""num_scrambled_causal"":""4"",""num_scrambled_schematic"":""4"",""participantId"":""143A508813DA45C2852DC6A78FD99FC0"",""assignmentId"":""2c6e3c65-13d1-46ed-a543-4a89d6aa8019"",""projectId"":""a9f3d40c-5730-405c-b25e-1034c4c56f3f""}","https://test12345.live/?num_scrambled_semantic=8&num_scrambled_causal=4&num_scrambled_schematic=4&participantId=143A508813DA45C2852DC6A78FD99FC0&assignmentId=2c6e3c65-13d1-46ed-a543-4a89d6aa8019&projectId=a9f3d40c-5730-405c-b25e-1034c4c56f3f","143A508813DA45C2852DC6A78FD99FC0-2025-08-07-20-29-14","","null","","[]","null","",""
"","","","","","image-button-response","34","294275","0.0-10.0-1.0-0.3","143A508813DA45C2852DC6A78FD99FC0","143A508813DA45C2852DC6A78FD99FC0","2c6e3c65-13d1-46ed-a543-4a89d6aa8019","a9f3d40c-5730-405c-b25e-1034c4c56f3f","{""num_scrambled_semantic"":""8"",""num_scrambled_causal"":""4"",""num_scrambled_schematic"":""4"",""participantId"":""143A508813DA45C2852DC6A78FD99FC0"",""assignmentId"":""2c6e3c65-13d1-46ed-a543-4a89d6aa8019"",""projectId"":""a9f3d40c-5730-405c-b25e-1034c4c56f3f""}","https://test12345.live/?num_scrambled_semantic=8&num_scrambled_causal=4&num_scrambled_schematic=4&participantId=143A508813DA45C2852DC6A78FD99FC0&assignmentId=2c6e3c65-13d1-46ed-a543-4a89d6aa8019&projectId=a9f3d40c-5730-405c-b25e-1034c4c56f3f","143A508813DA45C2852DC6A78FD99FC0-2025-08-07-20-29-14","","null","","images/causal_sequence/coin_causal/coin_causal_6.png","null","",""
"","","","","","image-button-response","35","294668","0.0-10.0-1.0-1.3","143A508813DA45C2852DC6A78FD99FC0","143A508813DA45C2852DC6A78FD99FC0","2c6e3c65-13d1-46ed-a543-4a89d6aa8019","a9f3d40c-5730-405c-b25e-1034c4c56f3f","{""num_scrambled_semantic"":""8"",""num_scrambled_causal"":""4"",""num_scrambled_schematic"":""4"",""participantId"":""143A508813DA45C2852DC6A78FD99FC0"",""assignmentId"":""2c6e3c65-13d1-46ed-a543-4a89d6aa8019"",""projectId"":""a9f3d40c-5730-405c-b25e-1034c4c56f3f""}","https://test12345.live/?num_scrambled_semantic=8&num_scrambled_causal=4&num_scrambled_schematic=4&participantId=143A508813DA45C2852DC6A78FD99FC0&assignmentId=2c6e3c65-13d1-46ed-a543-4a89d6aa8019&projectId=a9f3d40c-5730-405c-b25e-1034c4c56f3f","143A508813DA45C2852DC6A78FD99FC0-2025-08-07-20-29-14","","392","","images/causal_sequence/coin_causal/coin_causal_6.png","0","",""
"","","","","","image-button-response","36","296482","0.0-10.0-1.0-2.3","143A508813DA45C2852DC6A78FD99FC0","143A508813DA45C2852DC6A78FD99FC0","2c6e3c65-13d1-46ed-a543-4a89d6aa8019","a9f3d40c-5730-405c-b25e-1034c4c56f3f","{""num_scrambled_semantic"":""8"",""num_scrambled_causal"":""4"",""num_scrambled_schematic"":""4"",""participantId"":""143A508813DA45C2852DC6A78FD99FC0"",""assignmentId"":""2c6e3c65-13d1-46ed-a543-4a89d6aa8019"",""projectId"":""a9f3d40c-5730-405c-b25e-1034c4c56f3f""}","https://test12345.live/?num_scrambled_semantic=8&num_scrambled_causal=4&num_scrambled_schematic=4&participantId=143A508813DA45C2852DC6A78FD99FC0&assignmentId=2c6e3c65-13d1-46ed-a543-4a89d6aa8019&projectId=a9f3d40c-5730-405c-b25e-1034c4c56f3f","143A508813DA45C2852DC6A78FD99FC0-2025-08-07-20-29-14","","null","","[]","null","",""
"","","","","","image-button-response","37","301003","0.0-10.0-1.0-0.4","143A508813DA45C2852DC6A78FD99FC0","143A508813DA45C2852DC6A78FD99FC0","2c6e3c65-13d1-46ed-a543-4a89d6aa8019","a9f3d40c-5730-405c-b25e-1034c4c56f3f","{""num_scrambled_semantic"":""8"",""num_scrambled_causal"":""4"",""num_scrambled_schematic"":""4"",""participantId"":""143A508813DA45C2852DC6A78FD99FC0"",""assignmentId"":""2c6e3c65-13d1-46ed-a543-4a89d6aa8019"",""projectId"":""a9f3d40c-5730-405c-b25e-1034c4c56f3f""}","https://test12345.live/?num_scrambled_semantic=8&num_scrambled_causal=4&num_scrambled_schematic=4&participantId=143A508813DA45C2852DC6A78FD99FC0&assignmentId=2c6e3c65-13d1-46ed-a543-4a89d6aa8019&projectId=a9f3d40c-5730-405c-b25e-1034c4c56f3f","143A508813DA45C2852DC6A78FD99FC0-2025-08-07-20-29-14","","null","","images/causal_sequence/coin_causal/coin_causal_9.png","null","",""
"","","","","","image-button-response","38","301434","0.0-10.0-1.0-1.4","143A508813DA45C2852DC6A78FD99FC0","143A508813DA45C2852DC6A78FD99FC0","2c6e3c65-13d1-46ed-a543-4a89d6aa8019","a9f3d40c-5730-405c-b25e-1034c4c56f3f","{""num_scrambled_semantic"":""8"",""num_scrambled_causal"":""4"",""num_scrambled_schematic"":""4"",""participantId"":""143A508813DA45C2852DC6A78FD99FC0"",""assignmentId"":""2c6e3c65-13d1-46ed-a543-4a89d6aa8019"",""projectId"":""a9f3d40c-5730-405c-b25e-1034c4c56f3f""}","https://test12345.live/?num_scrambled_semantic=8&num_scrambled_causal=4&num_scrambled_schematic=4&participantId=143A508813DA45C2852DC6A78FD99FC0&assignmentId=2c6e3c65-13d1-46ed-a543-4a89d6aa8019&projectId=a9f3d40c-5730-405c-b25e-1034c4c56f3f","143A508813DA45C2852DC6A78FD99FC0-2025-08-07-20-29-14","","431","","images/causal_sequence/coin_causal/coin_causal_9.png","0","",""
"","","","","","image-button-response","39","303243","0.0-10.0-1.0-2.4","143A508813DA45C2852DC6A78FD99FC0","143A508813DA45C2852DC6A78FD99FC0","2c6e3c65-13d1-46ed-a543-4a89d6aa8019","a9f3d40c-5730-405c-b25e-1034c4c56f3f","{""num_scrambled_semantic"":""8"",""num_scrambled_causal"":""4"",""num_scrambled_schematic"":""4"",""participantId"":""143A508813DA45C2852DC6A78FD99FC0"",""assignmentId"":""2c6e3c65-13d1-46ed-a543-4a89d6aa8019"",""projectId"":""a9f3d40c-5730-405c-b25e-1034c4c56f3f""}","https://test12345.live/?num_scrambled_semantic=8&num_scrambled_causal=4&num_scrambled_schematic=4&participantId=143A508813DA45C2852DC6A78FD99FC0&assignmentId=2c6e3c65-13d1-46ed-a543-4a89d6aa8019&projectId=a9f3d40c-5730-405c-b25e-1034c4c56f3f","143A508813DA45C2852DC6A78FD99FC0-2025-08-07-20-29-14","","null","","[]","null","",""
"","","","","","image-button-response","40","307752","0.0-10.0-1.0-0.5","143A508813DA45C2852DC6A78FD99FC0","143A508813DA45C2852DC6A78FD99FC0","2c6e3c65-13d1-46ed-a543-4a89d6aa8019","a9f3d40c-5730-405c-b25e-1034c4c56f3f","{""num_scrambled_semantic"":""8"",""num_scrambled_causal"":""4"",""num_scrambled_schematic"":""4"",""participantId"":""143A508813DA45C2852DC6A78FD99FC0"",""assignmentId"":""2c6e3c65-13d1-46ed-a543-4a89d6aa8019"",""projectId"":""a9f3d40c-5730-405c-b25e-1034c4c56f3f""}","https://test12345.live/?num_scrambled_semantic=8&num_scrambled_causal=4&num_scrambled_schematic=4&participantId=143A508813DA45C2852DC6A78FD99FC0&assignmentId=2c6e3c65-13d1-46ed-a543-4a89d6aa8019&projectId=a9f3d40c-5730-405c-b25e-1034c4c56f3f","143A508813DA45C2852DC6A78FD99FC0-2025-08-07-20-29-14","","null","","images/causal_sequence/coin_causal/coin_causal_3.png","null","",""
"","","","","","image-button-response","41","308786","0.0-10.0-1.0-1.5","143A508813DA45C2852DC6A78FD99FC0","143A508813DA45C2852DC6A78FD99FC0","2c6e3c65-13d1-46ed-a543-4a89d6aa8019","a9f3d40c-5730-405c-b25e-1034c4c56f3f","{""num_scrambled_semantic"":""8"",""num_scrambled_causal"":""4"",""num_scrambled_schematic"":""4"",""participantId"":""143A508813DA45C2852DC6A78FD99FC0"",""assignmentId"":""2c6e3c65-13d1-46ed-a543-4a89d6aa8019"",""projectId"":""a9f3d40c-5730-405c-b25e-1034c4c56f3f""}","https://test12345.live/?num_scrambled_semantic=8&num_scrambled_causal=4&num_scrambled_schematic=4&participantId=143A508813DA45C2852DC6A78FD99FC0&assignmentId=2c6e3c65-13d1-46ed-a543-4a89d6aa8019&projectId=a9f3d40c-5730-405c-b25e-1034c4c56f3f","143A508813DA45C2852DC6A78FD99FC0-2025-08-07-20-29-14","","1032","","images/causal_sequence/coin_causal/coin_causal_3.png","0","",""
"","","","","","image-button-response","42","310602","0.0-10.0-1.0-2.5","143A508813DA45C2852DC6A78FD99FC0","143A508813DA45C2852DC6A78FD99FC0","2c6e3c65-13d1-46ed-a543-4a89d6aa8019","a9f3d40c-5730-405c-b25e-1034c4c56f3f","{""num_scrambled_semantic"":""8"",""num_scrambled_causal"":""4"",""num_scrambled_schematic"":""4"",""participantId"":""143A508813DA45C2852DC6A78FD99FC0"",""assignmentId"":""2c6e3c65-13d1-46ed-a543-4a89d6aa8019"",""projectId"":""a9f3d40c-5730-405c-b25e-1034c4c56f3f""}","https://test12345.live/?num_scrambled_semantic=8&num_scrambled_causal=4&num_scrambled_schematic=4&participantId=143A508813DA45C2852DC6A78FD99FC0&assignmentId=2c6e3c65-13d1-46ed-a543-4a89d6aa8019&projectId=a9f3d40c-5730-405c-b25e-1034c4c56f3f","143A508813DA45C2852DC6A78FD99FC0-2025-08-07-20-29-14","","null","","[]","null","",""
"","","","","","image-button-response","43","315112","0.0-10.0-1.0-0.6","143A508813DA45C2852DC6A78FD99FC0","143A508813DA45C2852DC6A78FD99FC0","2c6e3c65-13d1-46ed-a543-4a89d6aa8019","a9f3d40c-5730-405c-b25e-1034c4c56f3f","{""num_scrambled_semantic"":""8"",""num_scrambled_causal"":""4"",""num_scrambled_schematic"":""4"",""participantId"":""143A508813DA45C2852DC6A78FD99FC0"",""assignmentId"":""2c6e3c65-13d1-46ed-a543-4a89d6aa8019"",""projectId"":""a9f3d40c-5730-405c-b25e-1034c4c56f3f""}","https://test12345.live/?num_scrambled_semantic=8&num_scrambled_causal=4&num_scrambled_schematic=4&participantId=143A508813DA45C2852DC6A78FD99FC0&assignmentId=2c6e3c65-13d1-46ed-a543-4a89d6aa8019&projectId=a9f3d40c-5730-405c-b25e-1034c4c56f3f","143A508813DA45C2852DC6A78FD99FC0-2025-08-07-20-29-14","","null","","images/causal_sequence/coin_causal/coin_causal_4.png","null","",""
"","","","","","image-button-response","44","315611","0.0-10.0-1.0-1.6","143A508813DA45C2852DC6A78FD99FC0","143A508813DA45C2852DC6A78FD99FC0","2c6e3c65-13d1-46ed-a543-4a89d6aa8019","a9f3d40c-5730-405c-b25e-1034c4c56f3f","{""num_scrambled_semantic"":""8"",""num_scrambled_causal"":""4"",""num_scrambled_schematic"":""4"",""participantId"":""143A508813DA45C2852DC6A78FD99FC0"",""assignmentId"":""2c6e3c65-13d1-46ed-a543-4a89d6aa8019"",""projectId"":""a9f3d40c-5730-405c-b25e-1034c4c56f3f""}","https://test12345.live/?num_scrambled_semantic=8&num_scrambled_causal=4&num_scrambled_schematic=4&participantId=143A508813DA45C2852DC6A78FD99FC0&assignmentId=2c6e3c65-13d1-46ed-a543-4a89d6aa8019&projectId=a9f3d40c-5730-405c-b25e-1034c4c56f3f","143A508813DA45C2852DC6A78FD99FC0-2025-08-07-20-29-14","","497","","images/causal_sequence/coin_causal/coin_causal_4.png","0","",""
"","","","","","image-button-response","45","317422","0.0-10.0-1.0-2.6","143A508813DA45C2852DC6A78FD99FC0","143A508813DA45C2852DC6A78FD99FC0","2c6e3c65-13d1-46ed-a543-4a89d6aa8019","a9f3d40c-5730-405c-b25e-1034c4c56f3f","{""num_scrambled_semantic"":""8"",""num_scrambled_causal"":""4"",""num_scrambled_schematic"":""4"",""participantId"":""143A508813DA45C2852DC6A78FD99FC0"",""assignmentId"":""2c6e3c65-13d1-46ed-a543-4a89d6aa8019"",""projectId"":""a9f3d40c-5730-405c-b25e-1034c4c56f3f""}","https://test12345.live/?num_scrambled_semantic=8&num_scrambled_causal=4&num_scrambled_schematic=4&participantId=143A508813DA45C2852DC6A78FD99FC0&assignmentId=2c6e3c65-13d1-46ed-a543-4a89d6aa8019&projectId=a9f3d40c-5730-405c-b25e-1034c4c56f3f","143A508813DA45C2852DC6A78FD99FC0-2025-08-07-20-29-14","","null","","[]","null","",""
"","","","","","image-button-response","46","321942","0.0-10.0-1.0-0.7","143A508813DA45C2852DC6A78FD99FC0","143A508813DA45C2852DC6A78FD99FC0","2c6e3c65-13d1-46ed-a543-4a89d6aa8019","a9f3d40c-5730-405c-b25e-1034c4c56f3f","{""num_scrambled_semantic"":""8"",""num_scrambled_causal"":""4"",""num_scrambled_schematic"":""4"",""participantId"":""143A508813DA45C2852DC6A78FD99FC0"",""assignmentId"":""2c6e3c65-13d1-46ed-a543-4a89d6aa8019"",""projectId"":""a9f3d40c-5730-405c-b25e-1034c4c56f3f""}","https://test12345.live/?num_scrambled_semantic=8&num_scrambled_causal=4&num_scrambled_schematic=4&participantId=143A508813DA45C2852DC6A78FD99FC0&assignmentId=2c6e3c65-13d1-46ed-a543-4a89d6aa8019&projectId=a9f3d40c-5730-405c-b25e-1034c4c56f3f","143A508813DA45C2852DC6A78FD99FC0-2025-08-07-20-29-14","","null","","images/causal_sequence/coin_causal/coin_causal_1.png","null","",""
"","","","","","image-button-response","47","322398","0.0-10.0-1.0-1.7","143A508813DA45C2852DC6A78FD99FC0","143A508813DA45C2852DC6A78FD99FC0","2c6e3c65-13d1-46ed-a543-4a89d6aa8019","a9f3d40c-5730-405c-b25e-1034c4c56f3f","{""num_scrambled_semantic"":""8"",""num_scrambled_causal"":""4"",""num_scrambled_schematic"":""4"",""participantId"":""143A508813DA45C2852DC6A78FD99FC0"",""assignmentId"":""2c6e3c65-13d1-46ed-a543-4a89d6aa8019"",""projectId"":""a9f3d40c-5730-405c-b25e-1034c4c56f3f""}","https://test12345.live/?num_scrambled_semantic=8&num_scrambled_causal=4&num_scrambled_schematic=4&participantId=143A508813DA45C2852DC6A78FD99FC0&assignmentId=2c6e3c65-13d1-46ed-a543-4a89d6aa8019&projectId=a9f3d40c-5730-405c-b25e-1034c4c56f3f","143A508813DA45C2852DC6A78FD99FC0-2025-08-07-20-29-14","","455","","images/causal_sequence/coin_causal/coin_causal_1.png","0","",""
"","","","","","image-button-response","48","324202","0.0-10.0-1.0-2.7","143A508813DA45C2852DC6A78FD99FC0","143A508813DA45C2852DC6A78FD99FC0","2c6e3c65-13d1-46ed-a543-4a89d6aa8019","a9f3d40c-5730-405c-b25e-1034c4c56f3f","{""num_scrambled_semantic"":""8"",""num_scrambled_causal"":""4"",""num_scrambled_schematic"":""4"",""participantId"":""143A508813DA45C2852DC6A78FD99FC0"",""assignmentId"":""2c6e3c65-13d1-46ed-a543-4a89d6aa8019"",""projectId"":""a9f3d40c-5730-405c-b25e-1034c4c56f3f""}","https://test12345.live/?num_scrambled_semantic=8&num_scrambled_causal=4&num_scrambled_schematic=4&participantId=143A508813DA45C2852DC6A78FD99FC0&assignmentId=2c6e3c65-13d1-46ed-a543-4a89d6aa8019&projectId=a9f3d40c-5730-405c-b25e-1034c4c56f3f","143A508813DA45C2852DC6A78FD99FC0-2025-08-07-20-29-14","","null","","[]","null","",""
"","","","","","image-button-response","49","328722","0.0-10.0-1.0-0.8","143A508813DA45C2852DC6A78FD99FC0","143A508813DA45C2852DC6A78FD99FC0","2c6e3c65-13d1-46ed-a543-4a89d6aa8019","a9f3d40c-5730-405c-b25e-1034c4c56f3f","{""num_scrambled_semantic"":""8"",""num_scrambled_causal"":""4"",""num_scrambled_schematic"":""4"",""participantId"":""143A508813DA45C2852DC6A78FD99FC0"",""assignmentId"":""2c6e3c65-13d1-46ed-a543-4a89d6aa8019"",""projectId"":""a9f3d40c-5730-405c-b25e-1034c4c56f3f""}","https://test12345.live/?num_scrambled_semantic=8&num_scrambled_causal=4&num_scrambled_schematic=4&participantId=143A508813DA45C2852DC6A78FD99FC0&assignmentId=2c6e3c65-13d1-46ed-a543-4a89d6aa8019&projectId=a9f3d40c-5730-405c-b25e-1034c4c56f3f","143A508813DA45C2852DC6A78FD99FC0-2025-08-07-20-29-14","","null","","images/causal_sequence/coin_causal/coin_causal_7.png","null","",""
"","","","","","image-button-response","50","329082","0.0-10.0-1.0-1.8","143A508813DA45C2852DC6A78FD99FC0","143A508813DA45C2852DC6A78FD99FC0","2c6e3c65-13d1-46ed-a543-4a89d6aa8019","a9f3d40c-5730-405c-b25e-1034c4c56f3f","{""num_scrambled_semantic"":""8"",""num_scrambled_causal"":""4"",""num_scrambled_schematic"":""4"",""participantId"":""143A508813DA45C2852DC6A78FD99FC0"",""assignmentId"":""2c6e3c65-13d1-46ed-a543-4a89d6aa8019"",""projectId"":""a9f3d40c-5730-405c-b25e-1034c4c56f3f""}","https://test12345.live/?num_scrambled_semantic=8&num_scrambled_causal=4&num_scrambled_schematic=4&participantId=143A508813DA45C2852DC6A78FD99FC0&assignmentId=2c6e3c65-13d1-46ed-a543-4a89d6aa8019&projectId=a9f3d40c-5730-405c-b25e-1034c4c56f3f","143A508813DA45C2852DC6A78FD99FC0-2025-08-07-20-29-14","","358","","images/causal_sequence/coin_causal/coin_causal_7.png","0","",""
"","","","","","image-button-response","51","330902","0.0-10.0-1.0-2.8","143A508813DA45C2852DC6A78FD99FC0","143A508813DA45C2852DC6A78FD99FC0","2c6e3c65-13d1-46ed-a543-4a89d6aa8019","a9f3d40c-5730-405c-b25e-1034c4c56f3f","{""num_scrambled_semantic"":""8"",""num_scrambled_causal"":""4"",""num_scrambled_schematic"":""4"",""participantId"":""143A508813DA45C2852DC6A78FD99FC0"",""assignmentId"":""2c6e3c65-13d1-46ed-a543-4a89d6aa8019"",""projectId"":""a9f3d40c-5730-405c-b25e-1034c4c56f3f""}","https://test12345.live/?num_scrambled_semantic=8&num_scrambled_causal=4&num_scrambled_schematic=4&participantId=143A508813DA45C2852DC6A78FD99FC0&assignmentId=2c6e3c65-13d1-46ed-a543-4a89d6aa8019&projectId=a9f3d40c-5730-405c-b25e-1034c4c56f3f","143A508813DA45C2852DC6A78FD99FC0-2025-08-07-20-29-14","","null","","[]","null","",""
"","","","","","image-button-response","52","335404","0.0-10.0-1.0-0.9","143A508813DA45C2852DC6A78FD99FC0","143A508813DA45C2852DC6A78FD99FC0","2c6e3c65-13d1-46ed-a543-4a89d6aa8019","a9f3d40c-5730-405c-b25e-1034c4c56f3f","{""num_scrambled_semantic"":""8"",""num_scrambled_causal"":""4"",""num_scrambled_schematic"":""4"",""participantId"":""143A508813DA45C2852DC6A78FD99FC0"",""assignmentId"":""2c6e3c65-13d1-46ed-a543-4a89d6aa8019"",""projectId"":""a9f3d40c-5730-405c-b25e-1034c4c56f3f""}","https://test12345.live/?num_scrambled_semantic=8&num_scrambled_causal=4&num_scrambled_schematic=4&participantId=143A508813DA45C2852DC6A78FD99FC0&assignmentId=2c6e3c65-13d1-46ed-a543-4a89d6aa8019&projectId=a9f3d40c-5730-405c-b25e-1034c4c56f3f","143A508813DA45C2852DC6A78FD99FC0-2025-08-07-20-29-14","","null","","images/causal_sequence/coin_causal/coin_causal_ten.png","null","",""
"","","","","","image-button-response","53","336084","0.0-10.0-1.0-1.9","143A508813DA45C2852DC6A78FD99FC0","143A508813DA45C2852DC6A78FD99FC0","2c6e3c65-13d1-46ed-a543-4a89d6aa8019","a9f3d40c-5730-405c-b25e-1034c4c56f3f","{""num_scrambled_semantic"":""8"",""num_scrambled_causal"":""4"",""num_scrambled_schematic"":""4"",""participantId"":""143A508813DA45C2852DC6A78FD99FC0"",""assignmentId"":""2c6e3c65-13d1-46ed-a543-4a89d6aa8019"",""projectId"":""a9f3d40c-5730-405c-b25e-1034c4c56f3f""}","https://test12345.live/?num_scrambled_semantic=8&num_scrambled_causal=4&num_scrambled_schematic=4&participantId=143A508813DA45C2852DC6A78FD99FC0&assignmentId=2c6e3c65-13d1-46ed-a543-4a89d6aa8019&projectId=a9f3d40c-5730-405c-b25e-1034c4c56f3f","143A508813DA45C2852DC6A78FD99FC0-2025-08-07-20-29-14","","679","","images/causal_sequence/coin_causal/coin_causal_ten.png","0","",""
"","","","","","image-button-response","54","337903","0.0-10.0-1.0-2.9","143A508813DA45C2852DC6A78FD99FC0","143A508813DA45C2852DC6A78FD99FC0","2c6e3c65-13d1-46ed-a543-4a89d6aa8019","a9f3d40c-5730-405c-b25e-1034c4c56f3f","{""num_scrambled_semantic"":""8"",""num_scrambled_causal"":""4"",""num_scrambled_schematic"":""4"",""participantId"":""143A508813DA45C2852DC6A78FD99FC0"",""assignmentId"":""2c6e3c65-13d1-46ed-a543-4a89d6aa8019"",""projectId"":""a9f3d40c-5730-405c-b25e-1034c4c56f3f""}","https://test12345.live/?num_scrambled_semantic=8&num_scrambled_causal=4&num_scrambled_schematic=4&participantId=143A508813DA45C2852DC6A78FD99FC0&assignmentId=2c6e3c65-13d1-46ed-a543-4a89d6aa8019&projectId=a9f3d40c-5730-405c-b25e-1034c4c56f3f","143A508813DA45C2852DC6A78FD99FC0-2025-08-07-20-29-14","","null","","[]","null","",""
"","","","","","html-audio-response","55","395034","0.0-11.0","143A508813DA45C2852DC6A78FD99FC0","143A508813DA45C2852DC6A78FD99FC0","2c6e3c65-13d1-46ed-a543-4a89d6aa8019","a9f3d40c-5730-405c-b25e-1034c4c56f3f","{""num_scrambled_semantic"":""8"",""num_scrambled_causal"":""4"",""num_scrambled_schematic"":""4"",""participantId"":""143A508813DA45C2852DC6A78FD99FC0"",""assignmentId"":""2c6e3c65-13d1-46ed-a543-4a89d6aa8019"",""projectId"":""a9f3d40c-5730-405c-b25e-1034c4c56f3f""}","https://test12345.live/?num_scrambled_semantic=8&num_scrambled_causal=4&num_scrambled_schematic=4&participantId=143A508813DA45C2852DC6A78FD99FC0&assignmentId=2c6e3c65-13d1-46ed-a543-4a89d6aa8019&projectId=a9f3d40c-5730-405c-b25e-1034c4c56f3f","143A508813DA45C2852DC6A78FD99FC0-2025-08-07-20-29-14","","null","","[""<span style=\""color: red; font-size: 24px\""> NOW RECORDING</span><p>Please say out loud all the images you saw, as many as you can remember. The images can be said in any order.</p>""]","","1","coin_causal"
"","","","","","image-button-response","56","401043","0.0-12.0-0.0","143A508813DA45C2852DC6A78FD99FC0","143A508813DA45C2852DC6A78FD99FC0","2c6e3c65-13d1-46ed-a543-4a89d6aa8019","a9f3d40c-5730-405c-b25e-1034c4c56f3f","{""num_scrambled_semantic"":""8"",""num_scrambled_causal"":""4"",""num_scrambled_schematic"":""4"",""participantId"":""143A508813DA45C2852DC6A78FD99FC0"",""assignmentId"":""2c6e3c65-13d1-46ed-a543-4a89d6aa8019"",""projectId"":""a9f3d40c-5730-405c-b25e-1034c4c56f3f""}","https://test12345.live/?num_scrambled_semantic=8&num_scrambled_causal=4&num_scrambled_schematic=4&participantId=143A508813DA45C2852DC6A78FD99FC0&assignmentId=2c6e3c65-13d1-46ed-a543-4a89d6aa8019&projectId=a9f3d40c-5730-405c-b25e-1034c4c56f3f","143A508813DA45C2852DC6A78FD99FC0-2025-08-07-20-29-14","","null","","images/semantic_sequence/maintaining_a_car_semantic/maintaining_a_car_semantic_0.png","null","",""
"","","","","","image-button-response","57","405552","0.0-12.0-1.0-0.0","143A508813DA45C2852DC6A78FD99FC0","143A508813DA45C2852DC6A78FD99FC0","2c6e3c65-13d1-46ed-a543-4a89d6aa8019","a9f3d40c-5730-405c-b25e-1034c4c56f3f","{""num_scrambled_semantic"":""8"",""num_scrambled_causal"":""4"",""num_scrambled_schematic"":""4"",""participantId"":""143A508813DA45C2852DC6A78FD99FC0"",""assignmentId"":""2c6e3c65-13d1-46ed-a543-4a89d6aa8019"",""projectId"":""a9f3d40c-5730-405c-b25e-1034c4c56f3f""}","https://test12345.live/?num_scrambled_semantic=8&num_scrambled_causal=4&num_scrambled_schematic=4&participantId=143A508813DA45C2852DC6A78FD99FC0&assignmentId=2c6e3c65-13d1-46ed-a543-4a89d6aa8019&projectId=a9f3d40c-5730-405c-b25e-1034c4c56f3f","143A508813DA45C2852DC6A78FD99FC0-2025-08-07-20-29-14","","null","","images/semantic_sequence/maintaining_a_car_semantic/maintaining_a_car_semantic_3.png","null","",""
"","","","","","image-button-response","58","406846","0.0-12.0-1.0-1.0","143A508813DA45C2852DC6A78FD99FC0","143A508813DA45C2852DC6A78FD99FC0","2c6e3c65-13d1-46ed-a543-4a89d6aa8019","a9f3d40c-5730-405c-b25e-1034c4c56f3f","{""num_scrambled_semantic"":""8"",""num_scrambled_causal"":""4"",""num_scrambled_schematic"":""4"",""participantId"":""143A508813DA45C2852DC6A78FD99FC0"",""assignmentId"":""2c6e3c65-13d1-46ed-a543-4a89d6aa8019"",""projectId"":""a9f3d40c-5730-405c-b25e-1034c4c56f3f""}","https://test12345.live/?num_scrambled_semantic=8&num_scrambled_causal=4&num_scrambled_schematic=4&participantId=143A508813DA45C2852DC6A78FD99FC0&assignmentId=2c6e3c65-13d1-46ed-a543-4a89d6aa8019&projectId=a9f3d40c-5730-405c-b25e-1034c4c56f3f","143A508813DA45C2852DC6A78FD99FC0-2025-08-07-20-29-14","","1293","","images/semantic_sequence/maintaining_a_car_semantic/maintaining_a_car_semantic_3.png","0","",""
"","","","","","image-button-response","59","408653","0.0-12.0-1.0-2.0","143A508813DA45C2852DC6A78FD99FC0","143A508813DA45C2852DC6A78FD99FC0","2c6e3c65-13d1-46ed-a543-4a89d6aa8019","a9f3d40c-5730-405c-b25e-1034c4c56f3f","{""num_scrambled_semantic"":""8"",""num_scrambled_causal"":""4"",""num_scrambled_schematic"":""4"",""participantId"":""143A508813DA45C2852DC6A78FD99FC0"",""assignmentId"":""2c6e3c65-13d1-46ed-a543-4a89d6aa8019"",""projectId"":""a9f3d40c-5730-405c-b25e-1034c4c56f3f""}","https://test12345.live/?num_scrambled_semantic=8&num_scrambled_causal=4&num_scrambled_schematic=4&participantId=143A508813DA45C2852DC6A78FD99FC0&assignmentId=2c6e3c65-13d1-46ed-a543-4a89d6aa8019&projectId=a9f3d40c-5730-405c-b25e-1034c4c56f3f","143A508813DA45C2852DC6A78FD99FC0-2025-08-07-20-29-14","","null","","[]","null","",""
"","","","","","image-button-response","60","413162","0.0-12.0-1.0-0.1","143A508813DA45C2852DC6A78FD99FC0","143A508813DA45C2852DC6A78FD99FC0","2c6e3c65-13d1-46ed-a543-4a89d6aa8019","a9f3d40c-5730-405c-b25e-1034c4c56f3f","{""num_scrambled_semantic"":""8"",""num_scrambled_causal"":""4"",""num_scrambled_schematic"":""4"",""participantId"":""143A508813DA45C2852DC6A78FD99FC0"",""assignmentId"":""2c6e3c65-13d1-46ed-a543-4a89d6aa8019"",""projectId"":""a9f3d40c-5730-405c-b25e-1034c4c56f3f""}","https://test12345.live/?num_scrambled_semantic=8&num_scrambled_causal=4&num_scrambled_schematic=4&participantId=143A508813DA45C2852DC6A78FD99FC0&assignmentId=2c6e3c65-13d1-46ed-a543-4a89d6aa8019&projectId=a9f3d40c-5730-405c-b25e-1034c4c56f3f","143A508813DA45C2852DC6A78FD99FC0-2025-08-07-20-29-14","","null","","images/semantic_sequence/maintaining_a_car_semantic/maintaining_a_car_semantic_9.png","null","",""
"","","","","","image-button-response","61","413876","0.0-12.0-1.0-1.1","143A508813DA45C2852DC6A78FD99FC0","143A508813DA45C2852DC6A78FD99FC0","2c6e3c65-13d1-46ed-a543-4a89d6aa8019","a9f3d40c-5730-405c-b25e-1034c4c56f3f","{""num_scrambled_semantic"":""8"",""num_scrambled_causal"":""4"",""num_scrambled_schematic"":""4"",""participantId"":""143A508813DA45C2852DC6A78FD99FC0"",""assignmentId"":""2c6e3c65-13d1-46ed-a543-4a89d6aa8019"",""projectId"":""a9f3d40c-5730-405c-b25e-1034c4c56f3f""}","https://test12345.live/?num_scrambled_semantic=8&num_scrambled_causal=4&num_scrambled_schematic=4&participantId=143A508813DA45C2852DC6A78FD99FC0&assignmentId=2c6e3c65-13d1-46ed-a543-4a89d6aa8019&projectId=a9f3d40c-5730-405c-b25e-1034c4c56f3f","143A508813DA45C2852DC6A78FD99FC0-2025-08-07-20-29-14","","712","","images/semantic_sequence/maintaining_a_car_semantic/maintaining_a_car_semantic_9.png","0","",""
"","","","","","image-button-response","62","415692","0.0-12.0-1.0-2.1","143A508813DA45C2852DC6A78FD99FC0","143A508813DA45C2852DC6A78FD99FC0","2c6e3c65-13d1-46ed-a543-4a89d6aa8019","a9f3d40c-5730-405c-b25e-1034c4c56f3f","{""num_scrambled_semantic"":""8"",""num_scrambled_causal"":""4"",""num_scrambled_schematic"":""4"",""participantId"":""143A508813DA45C2852DC6A78FD99FC0"",""assignmentId"":""2c6e3c65-13d1-46ed-a543-4a89d6aa8019"",""projectId"":""a9f3d40c-5730-405c-b25e-1034c4c56f3f""}","https://test12345.live/?num_scrambled_semantic=8&num_scrambled_causal=4&num_scrambled_schematic=4&participantId=143A508813DA45C2852DC6A78FD99FC0&assignmentId=2c6e3c65-13d1-46ed-a543-4a89d6aa8019&projectId=a9f3d40c-5730-405c-b25e-1034c4c56f3f","143A508813DA45C2852DC6A78FD99FC0-2025-08-07-20-29-14","","null","","[]","null","",""
"","","","","","image-button-response","63","420194","0.0-12.0-1.0-0.2","143A508813DA45C2852DC6A78FD99FC0","143A508813DA45C2852DC6A78FD99FC0","2c6e3c65-13d1-46ed-a543-4a89d6aa8019","a9f3d40c-5730-405c-b25e-1034c4c56f3f","{""num_scrambled_semantic"":""8"",""num_scrambled_causal"":""4"",""num_scrambled_schematic"":""4"",""participantId"":""143A508813DA45C2852DC6A78FD99FC0"",""assignmentId"":""2c6e3c65-13d1-46ed-a543-4a89d6aa8019"",""projectId"":""a9f3d40c-5730-405c-b25e-1034c4c56f3f""}","https://test12345.live/?num_scrambled_semantic=8&num_scrambled_causal=4&num_scrambled_schematic=4&participantId=143A508813DA45C2852DC6A78FD99FC0&assignmentId=2c6e3c65-13d1-46ed-a543-4a89d6aa8019&projectId=a9f3d40c-5730-405c-b25e-1034c4c56f3f","143A508813DA45C2852DC6A78FD99FC0-2025-08-07-20-29-14","","null","","images/semantic_sequence/maintaining_a_car_semantic/maintaining_a_car_semantic_4.png","null","",""
"","","","","","image-button-response","64","420690","0.0-12.0-1.0-1.2","143A508813DA45C2852DC6A78FD99FC0","143A508813DA45C2852DC6A78FD99FC0","2c6e3c65-13d1-46ed-a543-4a89d6aa8019","a9f3d40c-5730-405c-b25e-1034c4c56f3f","{""num_scrambled_semantic"":""8"",""num_scrambled_causal"":""4"",""num_scrambled_schematic"":""4"",""participantId"":""143A508813DA45C2852DC6A78FD99FC0"",""assignmentId"":""2c6e3c65-13d1-46ed-a543-4a89d6aa8019"",""projectId"":""a9f3d40c-5730-405c-b25e-1034c4c56f3f""}","https://test12345.live/?num_scrambled_semantic=8&num_scrambled_causal=4&num_scrambled_schematic=4&participantId=143A508813DA45C2852DC6A78FD99FC0&assignmentId=2c6e3c65-13d1-46ed-a543-4a89d6aa8019&projectId=a9f3d40c-5730-405c-b25e-1034c4c56f3f","143A508813DA45C2852DC6A78FD99FC0-2025-08-07-20-29-14","","495","","images/semantic_sequence/maintaining_a_car_semantic/maintaining_a_car_semantic_4.png","0","",""
"","","","","","image-button-response","65","422502","0.0-12.0-1.0-2.2","143A508813DA45C2852DC6A78FD99FC0","143A508813DA45C2852DC6A78FD99FC0","2c6e3c65-13d1-46ed-a543-4a89d6aa8019","a9f3d40c-5730-405c-b25e-1034c4c56f3f","{""num_scrambled_semantic"":""8"",""num_scrambled_causal"":""4"",""num_scrambled_schematic"":""4"",""participantId"":""143A508813DA45C2852DC6A78FD99FC0"",""assignmentId"":""2c6e3c65-13d1-46ed-a543-4a89d6aa8019"",""projectId"":""a9f3d40c-5730-405c-b25e-1034c4c56f3f""}","https://test12345.live/?num_scrambled_semantic=8&num_scrambled_causal=4&num_scrambled_schematic=4&participantId=143A508813DA45C2852DC6A78FD99FC0&assignmentId=2c6e3c65-13d1-46ed-a543-4a89d6aa8019&projectId=a9f3d40c-5730-405c-b25e-1034c4c56f3f","143A508813DA45C2852DC6A78FD99FC0-2025-08-07-20-29-14","","null","","[]","null","",""
"","","","","","image-button-response","66","427010","0.0-12.0-1.0-0.3","143A508813DA45C2852DC6A78FD99FC0","143A508813DA45C2852DC6A78FD99FC0","2c6e3c65-13d1-46ed-a543-4a89d6aa8019","a9f3d40c-5730-405c-b25e-1034c4c56f3f","{""num_scrambled_semantic"":""8"",""num_scrambled_causal"":""4"",""num_scrambled_schematic"":""4"",""participantId"":""143A508813DA45C2852DC6A78FD99FC0"",""assignmentId"":""2c6e3c65-13d1-46ed-a543-4a89d6aa8019"",""projectId"":""a9f3d40c-5730-405c-b25e-1034c4c56f3f""}","https://test12345.live/?num_scrambled_semantic=8&num_scrambled_causal=4&num_scrambled_schematic=4&participantId=143A508813DA45C2852DC6A78FD99FC0&assignmentId=2c6e3c65-13d1-46ed-a543-4a89d6aa8019&projectId=a9f3d40c-5730-405c-b25e-1034c4c56f3f","143A508813DA45C2852DC6A78FD99FC0-2025-08-07-20-29-14","","null","","images/semantic_sequence/maintaining_a_car_semantic/maintaining_a_car_semantic_6.png","null","",""
"","","","","","image-button-response","67","427448","0.0-12.0-1.0-1.3","143A508813DA45C2852DC6A78FD99FC0","143A508813DA45C2852DC6A78FD99FC0","2c6e3c65-13d1-46ed-a543-4a89d6aa8019","a9f3d40c-5730-405c-b25e-1034c4c56f3f","{""num_scrambled_semantic"":""8"",""num_scrambled_causal"":""4"",""num_scrambled_schematic"":""4"",""participantId"":""143A508813DA45C2852DC6A78FD99FC0"",""assignmentId"":""2c6e3c65-13d1-46ed-a543-4a89d6aa8019"",""projectId"":""a9f3d40c-5730-405c-b25e-1034c4c56f3f""}","https://test12345.live/?num_scrambled_semantic=8&num_scrambled_causal=4&num_scrambled_schematic=4&participantId=143A508813DA45C2852DC6A78FD99FC0&assignmentId=2c6e3c65-13d1-46ed-a543-4a89d6aa8019&projectId=a9f3d40c-5730-405c-b25e-1034c4c56f3f","143A508813DA45C2852DC6A78FD99FC0-2025-08-07-20-29-14","","437","","images/semantic_sequence/maintaining_a_car_semantic/maintaining_a_car_semantic_6.png","0","",""
"","","","","","image-button-response","68","429252","0.0-12.0-1.0-2.3","143A508813DA45C2852DC6A78FD99FC0","143A508813DA45C2852DC6A78FD99FC0","2c6e3c65-13d1-46ed-a543-4a89d6aa8019","a9f3d40c-5730-405c-b25e-1034c4c56f3f","{""num_scrambled_semantic"":""8"",""num_scrambled_causal"":""4"",""num_scrambled_schematic"":""4"",""participantId"":""143A508813DA45C2852DC6A78FD99FC0"",""assignmentId"":""2c6e3c65-13d1-46ed-a543-4a89d6aa8019"",""projectId"":""a9f3d40c-5730-405c-b25e-1034c4c56f3f""}","https://test12345.live/?num_scrambled_semantic=8&num_scrambled_causal=4&num_scrambled_schematic=4&participantId=143A508813DA45C2852DC6A78FD99FC0&assignmentId=2c6e3c65-13d1-46ed-a543-4a89d6aa8019&projectId=a9f3d40c-5730-405c-b25e-1034c4c56f3f","143A508813DA45C2852DC6A78FD99FC0-2025-08-07-20-29-14","","null","","[]","null","",""
"","","","","","image-button-response","69","433754","0.0-12.0-1.0-0.4","143A508813DA45C2852DC6A78FD99FC0","143A508813DA45C2852DC6A78FD99FC0","2c6e3c65-13d1-46ed-a543-4a89d6aa8019","a9f3d40c-5730-405c-b25e-1034c4c56f3f","{""num_scrambled_semantic"":""8"",""num_scrambled_causal"":""4"",""num_scrambled_schematic"":""4"",""participantId"":""143A508813DA45C2852DC6A78FD99FC0"",""assignmentId"":""2c6e3c65-13d1-46ed-a543-4a89d6aa8019"",""projectId"":""a9f3d40c-5730-405c-b25e-1034c4c56f3f""}","https://test12345.live/?num_scrambled_semantic=8&num_scrambled_causal=4&num_scrambled_schematic=4&participantId=143A508813DA45C2852DC6A78FD99FC0&assignmentId=2c6e3c65-13d1-46ed-a543-4a89d6aa8019&projectId=a9f3d40c-5730-405c-b25e-1034c4c56f3f","143A508813DA45C2852DC6A78FD99FC0-2025-08-07-20-29-14","","null","","images/semantic_sequence/maintaining_a_car_semantic/maintaining_a_car_semantic_ten.png","null","",""
"","","","","","image-button-response","70","434312","0.0-12.0-1.0-1.4","143A508813DA45C2852DC6A78FD99FC0","143A508813DA45C2852DC6A78FD99FC0","2c6e3c65-13d1-46ed-a543-4a89d6aa8019","a9f3d40c-5730-405c-b25e-1034c4c56f3f","{""num_scrambled_semantic"":""8"",""num_scrambled_causal"":""4"",""num_scrambled_schematic"":""4"",""participantId"":""143A508813DA45C2852DC6A78FD99FC0"",""assignmentId"":""2c6e3c65-13d1-46ed-a543-4a89d6aa8019"",""projectId"":""a9f3d40c-5730-405c-b25e-1034c4c56f3f""}","https://test12345.live/?num_scrambled_semantic=8&num_scrambled_causal=4&num_scrambled_schematic=4&participantId=143A508813DA45C2852DC6A78FD99FC0&assignmentId=2c6e3c65-13d1-46ed-a543-4a89d6aa8019&projectId=a9f3d40c-5730-405c-b25e-1034c4c56f3f","143A508813DA45C2852DC6A78FD99FC0-2025-08-07-20-29-14","","557","","images/semantic_sequence/maintaining_a_car_semantic/maintaining_a_car_semantic_ten.png","0","",""
"","","","","","image-button-response","71","436122","0.0-12.0-1.0-2.4","143A508813DA45C2852DC6A78FD99FC0","143A508813DA45C2852DC6A78FD99FC0","2c6e3c65-13d1-46ed-a543-4a89d6aa8019","a9f3d40c-5730-405c-b25e-1034c4c56f3f","{""num_scrambled_semantic"":""8"",""num_scrambled_causal"":""4"",""num_scrambled_schematic"":""4"",""participantId"":""143A508813DA45C2852DC6A78FD99FC0"",""assignmentId"":""2c6e3c65-13d1-46ed-a543-4a89d6aa8019"",""projectId"":""a9f3d40c-5730-405c-b25e-1034c4c56f3f""}","https://test12345.live/?num_scrambled_semantic=8&num_scrambled_causal=4&num_scrambled_schematic=4&participantId=143A508813DA45C2852DC6A78FD99FC0&assignmentId=2c6e3c65-13d1-46ed-a543-4a89d6aa8019&projectId=a9f3d40c-5730-405c-b25e-1034c4c56f3f","143A508813DA45C2852DC6A78FD99FC0-2025-08-07-20-29-14","","null","","[]","null","",""
"","","","","","image-button-response","72","440642","0.0-12.0-1.0-0.5","143A508813DA45C2852DC6A78FD99FC0","143A508813DA45C2852DC6A78FD99FC0","2c6e3c65-13d1-46ed-a543-4a89d6aa8019","a9f3d40c-5730-405c-b25e-1034c4c56f3f","{""num_scrambled_semantic"":""8"",""num_scrambled_causal"":""4"",""num_scrambled_schematic"":""4"",""participantId"":""143A508813DA45C2852DC6A78FD99FC0"",""assignmentId"":""2c6e3c65-13d1-46ed-a543-4a89d6aa8019"",""projectId"":""a9f3d40c-5730-405c-b25e-1034c4c56f3f""}","https://test12345.live/?num_scrambled_semantic=8&num_scrambled_causal=4&num_scrambled_schematic=4&participantId=143A508813DA45C2852DC6A78FD99FC0&assignmentId=2c6e3c65-13d1-46ed-a543-4a89d6aa8019&projectId=a9f3d40c-5730-405c-b25e-1034c4c56f3f","143A508813DA45C2852DC6A78FD99FC0-2025-08-07-20-29-14","","null","","images/semantic_sequence/maintaining_a_car_semantic/maintaining_a_car_semantic_1.png","null","",""
"","","","","","image-button-response","73","441199","0.0-12.0-1.0-1.5","143A508813DA45C2852DC6A78FD99FC0","143A508813DA45C2852DC6A78FD99FC0","2c6e3c65-13d1-46ed-a543-4a89d6aa8019","a9f3d40c-5730-405c-b25e-1034c4c56f3f","{""num_scrambled_semantic"":""8"",""num_scrambled_causal"":""4"",""num_scrambled_schematic"":""4"",""participantId"":""143A508813DA45C2852DC6A78FD99FC0"",""assignmentId"":""2c6e3c65-13d1-46ed-a543-4a89d6aa8019"",""projectId"":""a9f3d40c-5730-405c-b25e-1034c4c56f3f""}","https://test12345.live/?num_scrambled_semantic=8&num_scrambled_causal=4&num_scrambled_schematic=4&participantId=143A508813DA45C2852DC6A78FD99FC0&assignmentId=2c6e3c65-13d1-46ed-a543-4a89d6aa8019&projectId=a9f3d40c-5730-405c-b25e-1034c4c56f3f","143A508813DA45C2852DC6A78FD99FC0-2025-08-07-20-29-14","","556","","images/semantic_sequence/maintaining_a_car_semantic/maintaining_a_car_semantic_1.png","0","",""
"","","","","","image-button-response","74","443012","0.0-12.0-1.0-2.5","143A508813DA45C2852DC6A78FD99FC0","143A508813DA45C2852DC6A78FD99FC0","2c6e3c65-13d1-46ed-a543-4a89d6aa8019","a9f3d40c-5730-405c-b25e-1034c4c56f3f","{""num_scrambled_semantic"":""8"",""num_scrambled_causal"":""4"",""num_scrambled_schematic"":""4"",""participantId"":""143A508813DA45C2852DC6A78FD99FC0"",""assignmentId"":""2c6e3c65-13d1-46ed-a543-4a89d6aa8019"",""projectId"":""a9f3d40c-5730-405c-b25e-1034c4c56f3f""}","https://test12345.live/?num_scrambled_semantic=8&num_scrambled_causal=4&num_scrambled_schematic=4&participantId=143A508813DA45C2852DC6A78FD99FC0&assignmentId=2c6e3c65-13d1-46ed-a543-4a89d6aa8019&projectId=a9f3d40c-5730-405c-b25e-1034c4c56f3f","143A508813DA45C2852DC6A78FD99FC0-2025-08-07-20-29-14","","null","","[]","null","",""
"","","","","","image-button-response","75","447532","0.0-12.0-1.0-0.6","143A508813DA45C2852DC6A78FD99FC0","143A508813DA45C2852DC6A78FD99FC0","2c6e3c65-13d1-46ed-a543-4a89d6aa8019","a9f3d40c-5730-405c-b25e-1034c4c56f3f","{""num_scrambled_semantic"":""8"",""num_scrambled_causal"":""4"",""num_scrambled_schematic"":""4"",""participantId"":""143A508813DA45C2852DC6A78FD99FC0"",""assignmentId"":""2c6e3c65-13d1-46ed-a543-4a89d6aa8019"",""projectId"":""a9f3d40c-5730-405c-b25e-1034c4c56f3f""}","https://test12345.live/?num_scrambled_semantic=8&num_scrambled_causal=4&num_scrambled_schematic=4&participantId=143A508813DA45C2852DC6A78FD99FC0&assignmentId=2c6e3c65-13d1-46ed-a543-4a89d6aa8019&projectId=a9f3d40c-5730-405c-b25e-1034c4c56f3f","143A508813DA45C2852DC6A78FD99FC0-2025-08-07-20-29-14","","null","","images/semantic_sequence/maintaining_a_car_semantic/maintaining_a_car_semantic_7.png","null","",""
"","","","","","image-button-response","76","448254","0.0-12.0-1.0-1.6","143A508813DA45C2852DC6A78FD99FC0","143A508813DA45C2852DC6A78FD99FC0","2c6e3c65-13d1-46ed-a543-4a89d6aa8019","a9f3d40c-5730-405c-b25e-1034c4c56f3f","{""num_scrambled_semantic"":""8"",""num_scrambled_causal"":""4"",""num_scrambled_schematic"":""4"",""participantId"":""143A508813DA45C2852DC6A78FD99FC0"",""assignmentId"":""2c6e3c65-13d1-46ed-a543-4a89d6aa8019"",""projectId"":""a9f3d40c-5730-405c-b25e-1034c4c56f3f""}","https://test12345.live/?num_scrambled_semantic=8&num_scrambled_causal=4&num_scrambled_schematic=4&participantId=143A508813DA45C2852DC6A78FD99FC0&assignmentId=2c6e3c65-13d1-46ed-a543-4a89d6aa8019&projectId=a9f3d40c-5730-405c-b25e-1034c4c56f3f","143A508813DA45C2852DC6A78FD99FC0-2025-08-07-20-29-14","","721","","images/semantic_sequence/maintaining_a_car_semantic/maintaining_a_car_semantic_7.png","0","",""
"","","","","","image-button-response","77","450072","0.0-12.0-1.0-2.6","143A508813DA45C2852DC6A78FD99FC0","143A508813DA45C2852DC6A78FD99FC0","2c6e3c65-13d1-46ed-a543-4a89d6aa8019","a9f3d40c-5730-405c-b25e-1034c4c56f3f","{""num_scrambled_semantic"":""8"",""num_scrambled_causal"":""4"",""num_scrambled_schematic"":""4"",""participantId"":""143A508813DA45C2852DC6A78FD99FC0"",""assignmentId"":""2c6e3c65-13d1-46ed-a543-4a89d6aa8019"",""projectId"":""a9f3d40c-5730-405c-b25e-1034c4c56f3f""}","https://test12345.live/?num_scrambled_semantic=8&num_scrambled_causal=4&num_scrambled_schematic=4&participantId=143A508813DA45C2852DC6A78FD99FC0&assignmentId=2c6e3c65-13d1-46ed-a543-4a89d6aa8019&projectId=a9f3d40c-5730-405c-b25e-1034c4c56f3f","143A508813DA45C2852DC6A78FD99FC0-2025-08-07-20-29-14","","null","","[]","null","",""
"","","","","","image-button-response","78","454582","0.0-12.0-1.0-0.7","143A508813DA45C2852DC6A78FD99FC0","143A508813DA45C2852DC6A78FD99FC0","2c6e3c65-13d1-46ed-a543-4a89d6aa8019","a9f3d40c-5730-405c-b25e-1034c4c56f3f","{""num_scrambled_semantic"":""8"",""num_scrambled_causal"":""4"",""num_scrambled_schematic"":""4"",""participantId"":""143A508813DA45C2852DC6A78FD99FC0"",""assignmentId"":""2c6e3c65-13d1-46ed-a543-4a89d6aa8019"",""projectId"":""a9f3d40c-5730-405c-b25e-1034c4c56f3f""}","https://test12345.live/?num_scrambled_semantic=8&num_scrambled_causal=4&num_scrambled_schematic=4&participantId=143A508813DA45C2852DC6A78FD99FC0&assignmentId=2c6e3c65-13d1-46ed-a543-4a89d6aa8019&projectId=a9f3d40c-5730-405c-b25e-1034c4c56f3f","143A508813DA45C2852DC6A78FD99FC0-2025-08-07-20-29-14","","null","","images/semantic_sequence/maintaining_a_car_semantic/maintaining_a_car_semantic_2.png","null","",""
"","","","","","image-button-response","79","455418","0.0-12.0-1.0-1.7","143A508813DA45C2852DC6A78FD99FC0","143A508813DA45C2852DC6A78FD99FC0","2c6e3c65-13d1-46ed-a543-4a89d6aa8019","a9f3d40c-5730-405c-b25e-1034c4c56f3f","{""num_scrambled_semantic"":""8"",""num_scrambled_causal"":""4"",""num_scrambled_schematic"":""4"",""participantId"":""143A508813DA45C2852DC6A78FD99FC0"",""assignmentId"":""2c6e3c65-13d1-46ed-a543-4a89d6aa8019"",""projectId"":""a9f3d40c-5730-405c-b25e-1034c4c56f3f""}","https://test12345.live/?num_scrambled_semantic=8&num_scrambled_causal=4&num_scrambled_schematic=4&participantId=143A508813DA45C2852DC6A78FD99FC0&assignmentId=2c6e3c65-13d1-46ed-a543-4a89d6aa8019&projectId=a9f3d40c-5730-405c-b25e-1034c4c56f3f","143A508813DA45C2852DC6A78FD99FC0-2025-08-07-20-29-14","","835","","images/semantic_sequence/maintaining_a_car_semantic/maintaining_a_car_semantic_2.png","0","",""
"","","","","","image-button-response","80","457232","0.0-12.0-1.0-2.7","143A508813DA45C2852DC6A78FD99FC0","143A508813DA45C2852DC6A78FD99FC0","2c6e3c65-13d1-46ed-a543-4a89d6aa8019","a9f3d40c-5730-405c-b25e-1034c4c56f3f","{""num_scrambled_semantic"":""8"",""num_scrambled_causal"":""4"",""num_scrambled_schematic"":""4"",""participantId"":""143A508813DA45C2852DC6A78FD99FC0"",""assignmentId"":""2c6e3c65-13d1-46ed-a543-4a89d6aa8019"",""projectId"":""a9f3d40c-5730-405c-b25e-1034c4c56f3f""}","https://test12345.live/?num_scrambled_semantic=8&num_scrambled_causal=4&num_scrambled_schematic=4&participantId=143A508813DA45C2852DC6A78FD99FC0&assignmentId=2c6e3c65-13d1-46ed-a543-4a89d6aa8019&projectId=a9f3d40c-5730-405c-b25e-1034c4c56f3f","143A508813DA45C2852DC6A78FD99FC0-2025-08-07-20-29-14","","null","","[]","null","",""
"","","","","","image-button-response","81","461739","0.0-12.0-1.0-0.8","143A508813DA45C2852DC6A78FD99FC0","143A508813DA45C2852DC6A78FD99FC0","2c6e3c65-13d1-46ed-a543-4a89d6aa8019","a9f3d40c-5730-405c-b25e-1034c4c56f3f","{""num_scrambled_semantic"":""8"",""num_scrambled_causal"":""4"",""num_scrambled_schematic"":""4"",""participantId"":""143A508813DA45C2852DC6A78FD99FC0"",""assignmentId"":""2c6e3c65-13d1-46ed-a543-4a89d6aa8019"",""projectId"":""a9f3d40c-5730-405c-b25e-1034c4c56f3f""}","https://test12345.live/?num_scrambled_semantic=8&num_scrambled_causal=4&num_scrambled_schematic=4&participantId=143A508813DA45C2852DC6A78FD99FC0&assignmentId=2c6e3c65-13d1-46ed-a543-4a89d6aa8019&projectId=a9f3d40c-5730-405c-b25e-1034c4c56f3f","143A508813DA45C2852DC6A78FD99FC0-2025-08-07-20-29-14","","null","","images/semantic_sequence/maintaining_a_car_semantic/maintaining_a_car_semantic_5.png","null","",""
"","","","","","image-button-response","82","462290","0.0-12.0-1.0-1.8","143A508813DA45C2852DC6A78FD99FC0","143A508813DA45C2852DC6A78FD99FC0","2c6e3c65-13d1-46ed-a543-4a89d6aa8019","a9f3d40c-5730-405c-b25e-1034c4c56f3f","{""num_scrambled_semantic"":""8"",""num_scrambled_causal"":""4"",""num_scrambled_schematic"":""4"",""participantId"":""143A508813DA45C2852DC6A78FD99FC0"",""assignmentId"":""2c6e3c65-13d1-46ed-a543-4a89d6aa8019"",""projectId"":""a9f3d40c-5730-405c-b25e-1034c4c56f3f""}","https://test12345.live/?num_scrambled_semantic=8&num_scrambled_causal=4&num_scrambled_schematic=4&participantId=143A508813DA45C2852DC6A78FD99FC0&assignmentId=2c6e3c65-13d1-46ed-a543-4a89d6aa8019&projectId=a9f3d40c-5730-405c-b25e-1034c4c56f3f","143A508813DA45C2852DC6A78FD99FC0-2025-08-07-20-29-14","","550","","images/semantic_sequence/maintaining_a_car_semantic/maintaining_a_car_semantic_5.png","0","",""
"","","","","","image-button-response","83","464102","0.0-12.0-1.0-2.8","143A508813DA45C2852DC6A78FD99FC0","143A508813DA45C2852DC6A78FD99FC0","2c6e3c65-13d1-46ed-a543-4a89d6aa8019","a9f3d40c-5730-405c-b25e-1034c4c56f3f","{""num_scrambled_semantic"":""8"",""num_scrambled_causal"":""4"",""num_scrambled_schematic"":""4"",""participantId"":""143A508813DA45C2852DC6A78FD99FC0"",""assignmentId"":""2c6e3c65-13d1-46ed-a543-4a89d6aa8019"",""projectId"":""a9f3d40c-5730-405c-b25e-1034c4c56f3f""}","https://test12345.live/?num_scrambled_semantic=8&num_scrambled_causal=4&num_scrambled_schematic=4&participantId=143A508813DA45C2852DC6A78FD99FC0&assignmentId=2c6e3c65-13d1-46ed-a543-4a89d6aa8019&projectId=a9f3d40c-5730-405c-b25e-1034c4c56f3f","143A508813DA45C2852DC6A78FD99FC0-2025-08-07-20-29-14","","null","","[]","null","",""
"","","","","","image-button-response","84","468612","0.0-12.0-1.0-0.9","143A508813DA45C2852DC6A78FD99FC0","143A508813DA45C2852DC6A78FD99FC0","2c6e3c65-13d1-46ed-a543-4a89d6aa8019","a9f3d40c-5730-405c-b25e-1034c4c56f3f","{""num_scrambled_semantic"":""8"",""num_scrambled_causal"":""4"",""num_scrambled_schematic"":""4"",""participantId"":""143A508813DA45C2852DC6A78FD99FC0"",""assignmentId"":""2c6e3c65-13d1-46ed-a543-4a89d6aa8019"",""projectId"":""a9f3d40c-5730-405c-b25e-1034c4c56f3f""}","https://test12345.live/?num_scrambled_semantic=8&num_scrambled_causal=4&num_scrambled_schematic=4&participantId=143A508813DA45C2852DC6A78FD99FC0&assignmentId=2c6e3c65-13d1-46ed-a543-4a89d6aa8019&projectId=a9f3d40c-5730-405c-b25e-1034c4c56f3f","143A508813DA45C2852DC6A78FD99FC0-2025-08-07-20-29-14","","null","","images/semantic_sequence/maintaining_a_car_semantic/maintaining_a_car_semantic_8.png","null","",""
"","","","","","image-button-response","85","469481","0.0-12.0-1.0-1.9","143A508813DA45C2852DC6A78FD99FC0","143A508813DA45C2852DC6A78FD99FC0","2c6e3c65-13d1-46ed-a543-4a89d6aa8019","a9f3d40c-5730-405c-b25e-1034c4c56f3f","{""num_scrambled_semantic"":""8"",""num_scrambled_causal"":""4"",""num_scrambled_schematic"":""4"",""participantId"":""143A508813DA45C2852DC6A78FD99FC0"",""assignmentId"":""2c6e3c65-13d1-46ed-a543-4a89d6aa8019"",""projectId"":""a9f3d40c-5730-405c-b25e-1034c4c56f3f""}","https://test12345.live/?num_scrambled_semantic=8&num_scrambled_causal=4&num_scrambled_schematic=4&participantId=143A508813DA45C2852DC6A78FD99FC0&assignmentId=2c6e3c65-13d1-46ed-a543-4a89d6aa8019&projectId=a9f3d40c-5730-405c-b25e-1034c4c56f3f","143A508813DA45C2852DC6A78FD99FC0-2025-08-07-20-29-14","","867","","images/semantic_sequence/maintaining_a_car_semantic/maintaining_a_car_semantic_8.png","0","",""
"","","","","","image-button-response","86","471282","0.0-12.0-1.0-2.9","143A508813DA45C2852DC6A78FD99FC0","143A508813DA45C2852DC6A78FD99FC0","2c6e3c65-13d1-46ed-a543-4a89d6aa8019","a9f3d40c-5730-405c-b25e-1034c4c56f3f","{""num_scrambled_semantic"":""8"",""num_scrambled_causal"":""4"",""num_scrambled_schematic"":""4"",""participantId"":""143A508813DA45C2852DC6A78FD99FC0"",""assignmentId"":""2c6e3c65-13d1-46ed-a543-4a89d6aa8019"",""projectId"":""a9f3d40c-5730-405c-b25e-1034c4c56f3f""}","https://test12345.live/?num_scrambled_semantic=8&num_scrambled_causal=4&num_scrambled_schematic=4&participantId=143A508813DA45C2852DC6A78FD99FC0&assignmentId=2c6e3c65-13d1-46ed-a543-4a89d6aa8019&projectId=a9f3d40c-5730-405c-b25e-1034c4c56f3f","143A508813DA45C2852DC6A78FD99FC0-2025-08-07-20-29-14","","null","","[]","null","",""
"","","","","","html-audio-response","87","504904","0.0-13.0","143A508813DA45C2852DC6A78FD99FC0","143A508813DA45C2852DC6A78FD99FC0","2c6e3c65-13d1-46ed-a543-4a89d6aa8019","a9f3d40c-5730-405c-b25e-1034c4c56f3f","{""num_scrambled_semantic"":""8"",""num_scrambled_causal"":""4"",""num_scrambled_schematic"":""4"",""participantId"":""143A508813DA45C2852DC6A78FD99FC0"",""assignmentId"":""2c6e3c65-13d1-46ed-a543-4a89d6aa8019"",""projectId"":""a9f3d40c-5730-405c-b25e-1034c4c56f3f""}","https://test12345.live/?num_scrambled_semantic=8&num_scrambled_causal=4&num_scrambled_schematic=4&participantId=143A508813DA45C2852DC6A78FD99FC0&assignmentId=2c6e3c65-13d1-46ed-a543-4a89d6aa8019&projectId=a9f3d40c-5730-405c-b25e-1034c4c56f3f","143A508813DA45C2852DC6A78FD99FC0-2025-08-07-20-29-14","","32772","","[""<span style=\""color: red; font-size: 24px\""> NOW RECORDING</span><p>Please say out loud all the images you saw, as many as you can remember. The images can be said in any order.</p>""]","","8","maintaining_a_car_semantic"
"","","","","","image-button-response","88","510922","0.0-14.0-0.0","143A508813DA45C2852DC6A78FD99FC0","143A508813DA45C2852DC6A78FD99FC0","2c6e3c65-13d1-46ed-a543-4a89d6aa8019","a9f3d40c-5730-405c-b25e-1034c4c56f3f","{""num_scrambled_semantic"":""8"",""num_scrambled_causal"":""4"",""num_scrambled_schematic"":""4"",""participantId"":""143A508813DA45C2852DC6A78FD99FC0"",""assignmentId"":""2c6e3c65-13d1-46ed-a543-4a89d6aa8019"",""projectId"":""a9f3d40c-5730-405c-b25e-1034c4c56f3f""}","https://test12345.live/?num_scrambled_semantic=8&num_scrambled_causal=4&num_scrambled_schematic=4&participantId=143A508813DA45C2852DC6A78FD99FC0&assignmentId=2c6e3c65-13d1-46ed-a543-4a89d6aa8019&projectId=a9f3d40c-5730-405c-b25e-1034c4c56f3f","143A508813DA45C2852DC6A78FD99FC0-2025-08-07-20-29-14","","null","","images/causal_sequence/dog_causal/dog_causal_0.png","null","",""
"","","","","","image-button-response","89","515442","0.0-14.0-1.0-0.0","143A508813DA45C2852DC6A78FD99FC0","143A508813DA45C2852DC6A78FD99FC0","2c6e3c65-13d1-46ed-a543-4a89d6aa8019","a9f3d40c-5730-405c-b25e-1034c4c56f3f","{""num_scrambled_semantic"":""8"",""num_scrambled_causal"":""4"",""num_scrambled_schematic"":""4"",""participantId"":""143A508813DA45C2852DC6A78FD99FC0"",""assignmentId"":""2c6e3c65-13d1-46ed-a543-4a89d6aa8019"",""projectId"":""a9f3d40c-5730-405c-b25e-1034c4c56f3f""}","https://test12345.live/?num_scrambled_semantic=8&num_scrambled_causal=4&num_scrambled_schematic=4&participantId=143A508813DA45C2852DC6A78FD99FC0&assignmentId=2c6e3c65-13d1-46ed-a543-4a89d6aa8019&projectId=a9f3d40c-5730-405c-b25e-1034c4c56f3f","143A508813DA45C2852DC6A78FD99FC0-2025-08-07-20-29-14","","null","","images/causal_sequence/dog_causal/dog_causal_6.png","null","",""
"","","","","","image-button-response","90","516904","0.0-14.0-1.0-1.0","143A508813DA45C2852DC6A78FD99FC0","143A508813DA45C2852DC6A78FD99FC0","2c6e3c65-13d1-46ed-a543-4a89d6aa8019","a9f3d40c-5730-405c-b25e-1034c4c56f3f","{""num_scrambled_semantic"":""8"",""num_scrambled_causal"":""4"",""num_scrambled_schematic"":""4"",""participantId"":""143A508813DA45C2852DC6A78FD99FC0"",""assignmentId"":""2c6e3c65-13d1-46ed-a543-4a89d6aa8019"",""projectId"":""a9f3d40c-5730-405c-b25e-1034c4c56f3f""}","https://test12345.live/?num_scrambled_semantic=8&num_scrambled_causal=4&num_scrambled_schematic=4&participantId=143A508813DA45C2852DC6A78FD99FC0&assignmentId=2c6e3c65-13d1-46ed-a543-4a89d6aa8019&projectId=a9f3d40c-5730-405c-b25e-1034c4c56f3f","143A508813DA45C2852DC6A78FD99FC0-2025-08-07-20-29-14","","1461","","images/causal_sequence/dog_causal/dog_causal_6.png","0","",""
"","","","","","image-button-response","91","518712","0.0-14.0-1.0-2.0","143A508813DA45C2852DC6A78FD99FC0","143A508813DA45C2852DC6A78FD99FC0","2c6e3c65-13d1-46ed-a543-4a89d6aa8019","a9f3d40c-5730-405c-b25e-1034c4c56f3f","{""num_scrambled_semantic"":""8"",""num_scrambled_causal"":""4"",""num_scrambled_schematic"":""4"",""participantId"":""143A508813DA45C2852DC6A78FD99FC0"",""assignmentId"":""2c6e3c65-13d1-46ed-a543-4a89d6aa8019"",""projectId"":""a9f3d40c-5730-405c-b25e-1034c4c56f3f""}","https://test12345.live/?num_scrambled_semantic=8&num_scrambled_causal=4&num_scrambled_schematic=4&participantId=143A508813DA45C2852DC6A78FD99FC0&assignmentId=2c6e3c65-13d1-46ed-a543-4a89d6aa8019&projectId=a9f3d40c-5730-405c-b25e-1034c4c56f3f","143A508813DA45C2852DC6A78FD99FC0-2025-08-07-20-29-14","","null","","[]","null","",""
"","","","","","image-button-response","92","523222","0.0-14.0-1.0-0.1","143A508813DA45C2852DC6A78FD99FC0","143A508813DA45C2852DC6A78FD99FC0","2c6e3c65-13d1-46ed-a543-4a89d6aa8019","a9f3d40c-5730-405c-b25e-1034c4c56f3f","{""num_scrambled_semantic"":""8"",""num_scrambled_causal"":""4"",""num_scrambled_schematic"":""4"",""participantId"":""143A508813DA45C2852DC6A78FD99FC0"",""assignmentId"":""2c6e3c65-13d1-46ed-a543-4a89d6aa8019"",""projectId"":""a9f3d40c-5730-405c-b25e-1034c4c56f3f""}","https://test12345.live/?num_scrambled_semantic=8&num_scrambled_causal=4&num_scrambled_schematic=4&participantId=143A508813DA45C2852DC6A78FD99FC0&assignmentId=2c6e3c65-13d1-46ed-a543-4a89d6aa8019&projectId=a9f3d40c-5730-405c-b25e-1034c4c56f3f","143A508813DA45C2852DC6A78FD99FC0-2025-08-07-20-29-14","","null","","images/causal_sequence/dog_causal/dog_causal_9.png","null","",""
"","","","","","image-button-response","93","524434","0.0-14.0-1.0-1.1","143A508813DA45C2852DC6A78FD99FC0","143A508813DA45C2852DC6A78FD99FC0","2c6e3c65-13d1-46ed-a543-4a89d6aa8019","a9f3d40c-5730-405c-b25e-1034c4c56f3f","{""num_scrambled_semantic"":""8"",""num_scrambled_causal"":""4"",""num_scrambled_schematic"":""4"",""participantId"":""143A508813DA45C2852DC6A78FD99FC0"",""assignmentId"":""2c6e3c65-13d1-46ed-a543-4a89d6aa8019"",""projectId"":""a9f3d40c-5730-405c-b25e-1034c4c56f3f""}","https://test12345.live/?num_scrambled_semantic=8&num_scrambled_causal=4&num_scrambled_schematic=4&participantId=143A508813DA45C2852DC6A78FD99FC0&assignmentId=2c6e3c65-13d1-46ed-a543-4a89d6aa8019&projectId=a9f3d40c-5730-405c-b25e-1034c4c56f3f","143A508813DA45C2852DC6A78FD99FC0-2025-08-07-20-29-14","","1211","","images/causal_sequence/dog_causal/dog_causal_9.png","0","",""
"","","","","","image-button-response","94","526240","0.0-14.0-1.0-2.1","143A508813DA45C2852DC6A78FD99FC0","143A508813DA45C2852DC6A78FD99FC0","2c6e3c65-13d1-46ed-a543-4a89d6aa8019","a9f3d40c-5730-405c-b25e-1034c4c56f3f","{""num_scrambled_semantic"":""8"",""num_scrambled_causal"":""4"",""num_scrambled_schematic"":""4"",""participantId"":""143A508813DA45C2852DC6A78FD99FC0"",""assignmentId"":""2c6e3c65-13d1-46ed-a543-4a89d6aa8019"",""projectId"":""a9f3d40c-5730-405c-b25e-1034c4c56f3f""}","https://test12345.live/?num_scrambled_semantic=8&num_scrambled_causal=4&num_scrambled_schematic=4&participantId=143A508813DA45C2852DC6A78FD99FC0&assignmentId=2c6e3c65-13d1-46ed-a543-4a89d6aa8019&projectId=a9f3d40c-5730-405c-b25e-1034c4c56f3f","143A508813DA45C2852DC6A78FD99FC0-2025-08-07-20-29-14","","null","","[]","null","",""
"","","","","","image-button-response","95","530752","0.0-14.0-1.0-0.2","143A508813DA45C2852DC6A78FD99FC0","143A508813DA45C2852DC6A78FD99FC0","2c6e3c65-13d1-46ed-a543-4a89d6aa8019","a9f3d40c-5730-405c-b25e-1034c4c56f3f","{""num_scrambled_semantic"":""8"",""num_scrambled_causal"":""4"",""num_scrambled_schematic"":""4"",""participantId"":""143A508813DA45C2852DC6A78FD99FC0"",""assignmentId"":""2c6e3c65-13d1-46ed-a543-4a89d6aa8019"",""projectId"":""a9f3d40c-5730-405c-b25e-1034c4c56f3f""}","https://test12345.live/?num_scrambled_semantic=8&num_scrambled_causal=4&num_scrambled_schematic=4&participantId=143A508813DA45C2852DC6A78FD99FC0&assignmentId=2c6e3c65-13d1-46ed-a543-4a89d6aa8019&projectId=a9f3d40c-5730-405c-b25e-1034c4c56f3f","143A508813DA45C2852DC6A78FD99FC0-2025-08-07-20-29-14","","null","","images/causal_sequence/dog_causal/dog_causal_1.png","null","",""
"","","","","","image-button-response","96","531692","0.0-14.0-1.0-1.2","143A508813DA45C2852DC6A78FD99FC0","143A508813DA45C2852DC6A78FD99FC0","2c6e3c65-13d1-46ed-a543-4a89d6aa8019","a9f3d40c-5730-405c-b25e-1034c4c56f3f","{""num_scrambled_semantic"":""8"",""num_scrambled_causal"":""4"",""num_scrambled_schematic"":""4"",""participantId"":""143A508813DA45C2852DC6A78FD99FC0"",""assignmentId"":""2c6e3c65-13d1-46ed-a543-4a89d6aa8019"",""projectId"":""a9f3d40c-5730-405c-b25e-1034c4c56f3f""}","https://test12345.live/?num_scrambled_semantic=8&num_scrambled_causal=4&num_scrambled_schematic=4&participantId=143A508813DA45C2852DC6A78FD99FC0&assignmentId=2c6e3c65-13d1-46ed-a543-4a89d6aa8019&projectId=a9f3d40c-5730-405c-b25e-1034c4c56f3f","143A508813DA45C2852DC6A78FD99FC0-2025-08-07-20-29-14","","939","","images/causal_sequence/dog_causal/dog_causal_1.png","0","",""
"","","","","","image-button-response","97","533512","0.0-14.0-1.0-2.2","143A508813DA45C2852DC6A78FD99FC0","143A508813DA45C2852DC6A78FD99FC0","2c6e3c65-13d1-46ed-a543-4a89d6aa8019","a9f3d40c-5730-405c-b25e-1034c4c56f3f","{""num_scrambled_semantic"":""8"",""num_scrambled_causal"":""4"",""num_scrambled_schematic"":""4"",""participantId"":""143A508813DA45C2852DC6A78FD99FC0"",""assignmentId"":""2c6e3c65-13d1-46ed-a543-4a89d6aa8019"",""projectId"":""a9f3d40c-5730-405c-b25e-1034c4c56f3f""}","https://test12345.live/?num_scrambled_semantic=8&num_scrambled_causal=4&num_scrambled_schematic=4&participantId=143A508813DA45C2852DC6A78FD99FC0&assignmentId=2c6e3c65-13d1-46ed-a543-4a89d6aa8019&projectId=a9f3d40c-5730-405c-b25e-1034c4c56f3f","143A508813DA45C2852DC6A78FD99FC0-2025-08-07-20-29-14","","null","","[]","null","",""
"","","","","","image-button-response","98","538016","0.0-14.0-1.0-0.3","143A508813DA45C2852DC6A78FD99FC0","143A508813DA45C2852DC6A78FD99FC0","2c6e3c65-13d1-46ed-a543-4a89d6aa8019","a9f3d40c-5730-405c-b25e-1034c4c56f3f","{""num_scrambled_semantic"":""8"",""num_scrambled_causal"":""4"",""num_scrambled_schematic"":""4"",""participantId"":""143A508813DA45C2852DC6A78FD99FC0"",""assignmentId"":""2c6e3c65-13d1-46ed-a543-4a89d6aa8019"",""projectId"":""a9f3d40c-5730-405c-b25e-1034c4c56f3f""}","https://test12345.live/?num_scrambled_semantic=8&num_scrambled_causal=4&num_scrambled_schematic=4&participantId=143A508813DA45C2852DC6A78FD99FC0&assignmentId=2c6e3c65-13d1-46ed-a543-4a89d6aa8019&projectId=a9f3d40c-5730-405c-b25e-1034c4c56f3f","143A508813DA45C2852DC6A78FD99FC0-2025-08-07-20-29-14","","null","","images/causal_sequence/dog_causal/dog_causal_ten.png","null","",""
"","","","","","image-button-response","99","538660","0.0-14.0-1.0-1.3","143A508813DA45C2852DC6A78FD99FC0","143A508813DA45C2852DC6A78FD99FC0","2c6e3c65-13d1-46ed-a543-4a89d6aa8019","a9f3d40c-5730-405c-b25e-1034c4c56f3f","{""num_scrambled_semantic"":""8"",""num_scrambled_causal"":""4"",""num_scrambled_schematic"":""4"",""participantId"":""143A508813DA45C2852DC6A78FD99FC0"",""assignmentId"":""2c6e3c65-13d1-46ed-a543-4a89d6aa8019"",""projectId"":""a9f3d40c-5730-405c-b25e-1034c4c56f3f""}","https://test12345.live/?num_scrambled_semantic=8&num_scrambled_causal=4&num_scrambled_schematic=4&participantId=143A508813DA45C2852DC6A78FD99FC0&assignmentId=2c6e3c65-13d1-46ed-a543-4a89d6aa8019&projectId=a9f3d40c-5730-405c-b25e-1034c4c56f3f","143A508813DA45C2852DC6A78FD99FC0-2025-08-07-20-29-14","","643","","images/causal_sequence/dog_causal/dog_causal_ten.png","0","",""
"","","","","","image-button-response","100","540462","0.0-14.0-1.0-2.3","143A508813DA45C2852DC6A78FD99FC0","143A508813DA45C2852DC6A78FD99FC0","2c6e3c65-13d1-46ed-a543-4a89d6aa8019","a9f3d40c-5730-405c-b25e-1034c4c56f3f","{""num_scrambled_semantic"":""8"",""num_scrambled_causal"":""4"",""num_scrambled_schematic"":""4"",""participantId"":""143A508813DA45C2852DC6A78FD99FC0"",""assignmentId"":""2c6e3c65-13d1-46ed-a543-4a89d6aa8019"",""projectId"":""a9f3d40c-5730-405c-b25e-1034c4c56f3f""}","https://test12345.live/?num_scrambled_semantic=8&num_scrambled_causal=4&num_scrambled_schematic=4&participantId=143A508813DA45C2852DC6A78FD99FC0&assignmentId=2c6e3c65-13d1-46ed-a543-4a89d6aa8019&projectId=a9f3d40c-5730-405c-b25e-1034c4c56f3f","143A508813DA45C2852DC6A78FD99FC0-2025-08-07-20-29-14","","null","","[]","null","",""
"","","","","","image-button-response","101","544972","0.0-14.0-1.0-0.4","143A508813DA45C2852DC6A78FD99FC0","143A508813DA45C2852DC6A78FD99FC0","2c6e3c65-13d1-46ed-a543-4a89d6aa8019","a9f3d40c-5730-405c-b25e-1034c4c56f3f","{""num_scrambled_semantic"":""8"",""num_scrambled_causal"":""4"",""num_scrambled_schematic"":""4"",""participantId"":""143A508813DA45C2852DC6A78FD99FC0"",""assignmentId"":""2c6e3c65-13d1-46ed-a543-4a89d6aa8019"",""projectId"":""a9f3d40c-5730-405c-b25e-1034c4c56f3f""}","https://test12345.live/?num_scrambled_semantic=8&num_scrambled_causal=4&num_scrambled_schematic=4&participantId=143A508813DA45C2852DC6A78FD99FC0&assignmentId=2c6e3c65-13d1-46ed-a543-4a89d6aa8019&projectId=a9f3d40c-5730-405c-b25e-1034c4c56f3f","143A508813DA45C2852DC6A78FD99FC0-2025-08-07-20-29-14","","null","","images/causal_sequence/dog_causal/dog_causal_8.png","null","",""
"","","","","","image-button-response","102","547702","0.0-14.0-1.0-1.4","143A508813DA45C2852DC6A78FD99FC0","143A508813DA45C2852DC6A78FD99FC0","2c6e3c65-13d1-46ed-a543-4a89d6aa8019","a9f3d40c-5730-405c-b25e-1034c4c56f3f","{""num_scrambled_semantic"":""8"",""num_scrambled_causal"":""4"",""num_scrambled_schematic"":""4"",""participantId"":""143A508813DA45C2852DC6A78FD99FC0"",""assignmentId"":""2c6e3c65-13d1-46ed-a543-4a89d6aa8019"",""projectId"":""a9f3d40c-5730-405c-b25e-1034c4c56f3f""}","https://test12345.live/?num_scrambled_semantic=8&num_scrambled_causal=4&num_scrambled_schematic=4&participantId=143A508813DA45C2852DC6A78FD99FC0&assignmentId=2c6e3c65-13d1-46ed-a543-4a89d6aa8019&projectId=a9f3d40c-5730-405c-b25e-1034c4c56f3f","143A508813DA45C2852DC6A78FD99FC0-2025-08-07-20-29-14","","2729","","images/causal_sequence/dog_causal/dog_causal_8.png","0","",""
"","","","","","image-button-response","103","549507","0.0-14.0-1.0-2.4","143A508813DA45C2852DC6A78FD99FC0","143A508813DA45C2852DC6A78FD99FC0","2c6e3c65-13d1-46ed-a543-4a89d6aa8019","a9f3d40c-5730-405c-b25e-1034c4c56f3f","{""num_scrambled_semantic"":""8"",""num_scrambled_causal"":""4"",""num_scrambled_schematic"":""4"",""participantId"":""143A508813DA45C2852DC6A78FD99FC0"",""assignmentId"":""2c6e3c65-13d1-46ed-a543-4a89d6aa8019"",""projectId"":""a9f3d40c-5730-405c-b25e-1034c4c56f3f""}","https://test12345.live/?num_scrambled_semantic=8&num_scrambled_causal=4&num_scrambled_schematic=4&participantId=143A508813DA45C2852DC6A78FD99FC0&assignmentId=2c6e3c65-13d1-46ed-a543-4a89d6aa8019&projectId=a9f3d40c-5730-405c-b25e-1034c4c56f3f","143A508813DA45C2852DC6A78FD99FC0-2025-08-07-20-29-14","","null","","[]","null","",""
"","","","","","image-button-response","104","554010","0.0-14.0-1.0-0.5","143A508813DA45C2852DC6A78FD99FC0","143A508813DA45C2852DC6A78FD99FC0","2c6e3c65-13d1-46ed-a543-4a89d6aa8019","a9f3d40c-5730-405c-b25e-1034c4c56f3f","{""num_scrambled_semantic"":""8"",""num_scrambled_causal"":""4"",""num_scrambled_schematic"":""4"",""participantId"":""143A508813DA45C2852DC6A78FD99FC0"",""assignmentId"":""2c6e3c65-13d1-46ed-a543-4a89d6aa8019"",""projectId"":""a9f3d40c-5730-405c-b25e-1034c4c56f3f""}","https://test12345.live/?num_scrambled_semantic=8&num_scrambled_causal=4&num_scrambled_schematic=4&participantId=143A508813DA45C2852DC6A78FD99FC0&assignmentId=2c6e3c65-13d1-46ed-a543-4a89d6aa8019&projectId=a9f3d40c-5730-405c-b25e-1034c4c56f3f","143A508813DA45C2852DC6A78FD99FC0-2025-08-07-20-29-14","","null","","images/causal_sequence/dog_causal/dog_causal_3.png","null","",""
"","","","","","image-button-response","105","554762","0.0-14.0-1.0-1.5","143A508813DA45C2852DC6A78FD99FC0","143A508813DA45C2852DC6A78FD99FC0","2c6e3c65-13d1-46ed-a543-4a89d6aa8019","a9f3d40c-5730-405c-b25e-1034c4c56f3f","{""num_scrambled_semantic"":""8"",""num_scrambled_causal"":""4"",""num_scrambled_schematic"":""4"",""participantId"":""143A508813DA45C2852DC6A78FD99FC0"",""assignmentId"":""2c6e3c65-13d1-46ed-a543-4a89d6aa8019"",""projectId"":""a9f3d40c-5730-405c-b25e-1034c4c56f3f""}","https://test12345.live/?num_scrambled_semantic=8&num_scrambled_causal=4&num_scrambled_schematic=4&participantId=143A508813DA45C2852DC6A78FD99FC0&assignmentId=2c6e3c65-13d1-46ed-a543-4a89d6aa8019&projectId=a9f3d40c-5730-405c-b25e-1034c4c56f3f","143A508813DA45C2852DC6A78FD99FC0-2025-08-07-20-29-14","","751","","images/causal_sequence/dog_causal/dog_causal_3.png","0","",""
"","","","","","image-button-response","106","556572","0.0-14.0-1.0-2.5","143A508813DA45C2852DC6A78FD99FC0","143A508813DA45C2852DC6A78FD99FC0","2c6e3c65-13d1-46ed-a543-4a89d6aa8019","a9f3d40c-5730-405c-b25e-1034c4c56f3f","{""num_scrambled_semantic"":""8"",""num_scrambled_causal"":""4"",""num_scrambled_schematic"":""4"",""participantId"":""143A508813DA45C2852DC6A78FD99FC0"",""assignmentId"":""2c6e3c65-13d1-46ed-a543-4a89d6aa8019"",""projectId"":""a9f3d40c-5730-405c-b25e-1034c4c56f3f""}","https://test12345.live/?num_scrambled_semantic=8&num_scrambled_causal=4&num_scrambled_schematic=4&participantId=143A508813DA45C2852DC6A78FD99FC0&assignmentId=2c6e3c65-13d1-46ed-a543-4a89d6aa8019&projectId=a9f3d40c-5730-405c-b25e-1034c4c56f3f","143A508813DA45C2852DC6A78FD99FC0-2025-08-07-20-29-14","","null","","[]","null","",""
"","","","","","image-button-response","107","561092","0.0-14.0-1.0-0.6","143A508813DA45C2852DC6A78FD99FC0","143A508813DA45C2852DC6A78FD99FC0","2c6e3c65-13d1-46ed-a543-4a89d6aa8019","a9f3d40c-5730-405c-b25e-1034c4c56f3f","{""num_scrambled_semantic"":""8"",""num_scrambled_causal"":""4"",""num_scrambled_schematic"":""4"",""participantId"":""143A508813DA45C2852DC6A78FD99FC0"",""assignmentId"":""2c6e3c65-13d1-46ed-a543-4a89d6aa8019"",""projectId"":""a9f3d40c-5730-405c-b25e-1034c4c56f3f""}","https://test12345.live/?num_scrambled_semantic=8&num_scrambled_causal=4&num_scrambled_schematic=4&participantId=143A508813DA45C2852DC6A78FD99FC0&assignmentId=2c6e3c65-13d1-46ed-a543-4a89d6aa8019&projectId=a9f3d40c-5730-405c-b25e-1034c4c56f3f","143A508813DA45C2852DC6A78FD99FC0-2025-08-07-20-29-14","","null","","images/causal_sequence/dog_causal/dog_causal_4.png","null","",""
"","","","","","image-button-response","108","562373","0.0-14.0-1.0-1.6","143A508813DA45C2852DC6A78FD99FC0","143A508813DA45C2852DC6A78FD99FC0","2c6e3c65-13d1-46ed-a543-4a89d6aa8019","a9f3d40c-5730-405c-b25e-1034c4c56f3f","{""num_scrambled_semantic"":""8"",""num_scrambled_causal"":""4"",""num_scrambled_schematic"":""4"",""participantId"":""143A508813DA45C2852DC6A78FD99FC0"",""assignmentId"":""2c6e3c65-13d1-46ed-a543-4a89d6aa8019"",""projectId"":""a9f3d40c-5730-405c-b25e-1034c4c56f3f""}","https://test12345.live/?num_scrambled_semantic=8&num_scrambled_causal=4&num_scrambled_schematic=4&participantId=143A508813DA45C2852DC6A78FD99FC0&assignmentId=2c6e3c65-13d1-46ed-a543-4a89d6aa8019&projectId=a9f3d40c-5730-405c-b25e-1034c4c56f3f","143A508813DA45C2852DC6A78FD99FC0-2025-08-07-20-29-14","","1280","","images/causal_sequence/dog_causal/dog_causal_4.png","0","",""
"","","","","","image-button-response","109","564182","0.0-14.0-1.0-2.6","143A508813DA45C2852DC6A78FD99FC0","143A508813DA45C2852DC6A78FD99FC0","2c6e3c65-13d1-46ed-a543-4a89d6aa8019","a9f3d40c-5730-405c-b25e-1034c4c56f3f","{""num_scrambled_semantic"":""8"",""num_scrambled_causal"":""4"",""num_scrambled_schematic"":""4"",""participantId"":""143A508813DA45C2852DC6A78FD99FC0"",""assignmentId"":""2c6e3c65-13d1-46ed-a543-4a89d6aa8019"",""projectId"":""a9f3d40c-5730-405c-b25e-1034c4c56f3f""}","https://test12345.live/?num_scrambled_semantic=8&num_scrambled_causal=4&num_scrambled_schematic=4&participantId=143A508813DA45C2852DC6A78FD99FC0&assignmentId=2c6e3c65-13d1-46ed-a543-4a89d6aa8019&projectId=a9f3d40c-5730-405c-b25e-1034c4c56f3f","143A508813DA45C2852DC6A78FD99FC0-2025-08-07-20-29-14","","null","","[]","null","",""
"","","","","","image-button-response","110","568702","0.0-14.0-1.0-0.7","143A508813DA45C2852DC6A78FD99FC0","143A508813DA45C2852DC6A78FD99FC0","2c6e3c65-13d1-46ed-a543-4a89d6aa8019","a9f3d40c-5730-405c-b25e-1034c4c56f3f","{""num_scrambled_semantic"":""8"",""num_scrambled_causal"":""4"",""num_scrambled_schematic"":""4"",""participantId"":""143A508813DA45C2852DC6A78FD99FC0"",""assignmentId"":""2c6e3c65-13d1-46ed-a543-4a89d6aa8019"",""projectId"":""a9f3d40c-5730-405c-b25e-1034c4c56f3f""}","https://test12345.live/?num_scrambled_semantic=8&num_scrambled_causal=4&num_scrambled_schematic=4&participantId=143A508813DA45C2852DC6A78FD99FC0&assignmentId=2c6e3c65-13d1-46ed-a543-4a89d6aa8019&projectId=a9f3d40c-5730-405c-b25e-1034c4c56f3f","143A508813DA45C2852DC6A78FD99FC0-2025-08-07-20-29-14","","null","","images/causal_sequence/dog_causal/dog_causal_7.png","null","",""
"","","","","","image-button-response","111","569516","0.0-14.0-1.0-1.7","143A508813DA45C2852DC6A78FD99FC0","143A508813DA45C2852DC6A78FD99FC0","2c6e3c65-13d1-46ed-a543-4a89d6aa8019","a9f3d40c-5730-405c-b25e-1034c4c56f3f","{""num_scrambled_semantic"":""8"",""num_scrambled_causal"":""4"",""num_scrambled_schematic"":""4"",""participantId"":""143A508813DA45C2852DC6A78FD99FC0"",""assignmentId"":""2c6e3c65-13d1-46ed-a543-4a89d6aa8019"",""projectId"":""a9f3d40c-5730-405c-b25e-1034c4c56f3f""}","https://test12345.live/?num_scrambled_semantic=8&num_scrambled_causal=4&num_scrambled_schematic=4&participantId=143A508813DA45C2852DC6A78FD99FC0&assignmentId=2c6e3c65-13d1-46ed-a543-4a89d6aa8019&projectId=a9f3d40c-5730-405c-b25e-1034c4c56f3f","143A508813DA45C2852DC6A78FD99FC0-2025-08-07-20-29-14","","813","","images/causal_sequence/dog_causal/dog_causal_7.png","0","",""
"","","","","","image-button-response","112","571322","0.0-14.0-1.0-2.7","143A508813DA45C2852DC6A78FD99FC0","143A508813DA45C2852DC6A78FD99FC0","2c6e3c65-13d1-46ed-a543-4a89d6aa8019","a9f3d40c-5730-405c-b25e-1034c4c56f3f","{""num_scrambled_semantic"":""8"",""num_scrambled_causal"":""4"",""num_scrambled_schematic"":""4"",""participantId"":""143A508813DA45C2852DC6A78FD99FC0"",""assignmentId"":""2c6e3c65-13d1-46ed-a543-4a89d6aa8019"",""projectId"":""a9f3d40c-5730-405c-b25e-1034c4c56f3f""}","https://test12345.live/?num_scrambled_semantic=8&num_scrambled_causal=4&num_scrambled_schematic=4&participantId=143A508813DA45C2852DC6A78FD99FC0&assignmentId=2c6e3c65-13d1-46ed-a543-4a89d6aa8019&projectId=a9f3d40c-5730-405c-b25e-1034c4c56f3f","143A508813DA45C2852DC6A78FD99FC0-2025-08-07-20-29-14","","null","","[]","null","",""
"","","","","","image-button-response","113","575842","0.0-14.0-1.0-0.8","143A508813DA45C2852DC6A78FD99FC0","143A508813DA45C2852DC6A78FD99FC0","2c6e3c65-13d1-46ed-a543-4a89d6aa8019","a9f3d40c-5730-405c-b25e-1034c4c56f3f","{""num_scrambled_semantic"":""8"",""num_scrambled_causal"":""4"",""num_scrambled_schematic"":""4"",""participantId"":""143A508813DA45C2852DC6A78FD99FC0"",""assignmentId"":""2c6e3c65-13d1-46ed-a543-4a89d6aa8019"",""projectId"":""a9f3d40c-5730-405c-b25e-1034c4c56f3f""}","https://test12345.live/?num_scrambled_semantic=8&num_scrambled_causal=4&num_scrambled_schematic=4&participantId=143A508813DA45C2852DC6A78FD99FC0&assignmentId=2c6e3c65-13d1-46ed-a543-4a89d6aa8019&projectId=a9f3d40c-5730-405c-b25e-1034c4c56f3f","143A508813DA45C2852DC6A78FD99FC0-2025-08-07-20-29-14","","null","","images/causal_sequence/dog_causal/dog_causal_5.png","null","",""
"","","","","","image-button-response","114","577950","0.0-14.0-1.0-1.8","143A508813DA45C2852DC6A78FD99FC0","143A508813DA45C2852DC6A78FD99FC0","2c6e3c65-13d1-46ed-a543-4a89d6aa8019","a9f3d40c-5730-405c-b25e-1034c4c56f3f","{""num_scrambled_semantic"":""8"",""num_scrambled_causal"":""4"",""num_scrambled_schematic"":""4"",""participantId"":""143A508813DA45C2852DC6A78FD99FC0"",""assignmentId"":""2c6e3c65-13d1-46ed-a543-4a89d6aa8019"",""projectId"":""a9f3d40c-5730-405c-b25e-1034c4c56f3f""}","https://test12345.live/?num_scrambled_semantic=8&num_scrambled_causal=4&num_scrambled_schematic=4&participantId=143A508813DA45C2852DC6A78FD99FC0&assignmentId=2c6e3c65-13d1-46ed-a543-4a89d6aa8019&projectId=a9f3d40c-5730-405c-b25e-1034c4c56f3f","143A508813DA45C2852DC6A78FD99FC0-2025-08-07-20-29-14","","2107","","images/causal_sequence/dog_causal/dog_causal_5.png","0","",""
