"success","timeout","failed_images","failed_audio","failed_video","trial_type","trial_index","time_elapsed","internal_node_id","subject","subject_id","study_id","session_id","urlvar","current_url","audio_id","view_history","rt","device_id","stimulus","response","estimated_stimulus_onset","seq_name"
"true","false","[]","[]","[]","preload","0","5395","0.0-0.0","164CFCF7AA2142BF8E980A3E25CC6FE4","164CFCF7AA2142BF8E980A3E25CC6FE4","aa80b3d9-95b2-4f8a-b67a-c5cb8818e738","5e631737-0fa4-44a6-b227-7ba1d7345015","{""num_scrambled_semantic"":""8"",""num_scrambled_causal"":""4"",""num_scrambled_schematic"":""4"",""participantId"":""164CFCF7AA2142BF8E980A3E25CC6FE4"",""assignmentId"":""aa80b3d9-95b2-4f8a-b67a-c5cb8818e738"",""projectId"":""5e631737-0fa4-44a6-b227-7ba1d7345015""}","https://test12345.live/?num_scrambled_semantic=8&num_scrambled_causal=4&num_scrambled_schematic=4&participantId=164CFCF7AA2142BF8E980A3E25CC6FE4&assignmentId=aa80b3d9-95b2-4f8a-b67a-c5cb8818e738&projectId=5e631737-0fa4-44a6-b227-7ba1d7345015","164CFCF7AA2142BF8E980A3E25CC6FE4-2025-05-27-18-35-25","","","","","","",""
"","","","","","instructions","1","169659","0.0-1.0","164CFCF7AA2142BF8E980A3E25CC6FE4","164CFCF7AA2142BF8E980A3E25CC6FE4","aa80b3d9-95b2-4f8a-b67a-c5cb8818e738","5e631737-0fa4-44a6-b227-7ba1d7345015","{""num_scrambled_semantic"":""8"",""num_scrambled_causal"":""4"",""num_scrambled_schematic"":""4"",""participantId"":""164CFCF7AA2142BF8E980A3E25CC6FE4"",""assignmentId"":""aa80b3d9-95b2-4f8a-b67a-c5cb8818e738"",""projectId"":""5e631737-0fa4-44a6-b227-7ba1d7345015""}","https://test12345.live/?num_scrambled_semantic=8&num_scrambled_causal=4&num_scrambled_schematic=4&participantId=164CFCF7AA2142BF8E980A3E25CC6FE4&assignmentId=aa80b3d9-95b2-4f8a-b67a-c5cb8818e738&projectId=5e631737-0fa4-44a6-b227-7ba1d7345015","164CFCF7AA2142BF8E980A3E25CC6FE4-2025-05-27-18-35-25","[{""page_index"":0,""viewing_time"":164263}]","164264","","","","",""
"","","","","","instructions","2","172904","0.0-2.0","164CFCF7AA2142BF8E980A3E25CC6FE4","164CFCF7AA2142BF8E980A3E25CC6FE4","aa80b3d9-95b2-4f8a-b67a-c5cb8818e738","5e631737-0fa4-44a6-b227-7ba1d7345015","{""num_scrambled_semantic"":""8"",""num_scrambled_causal"":""4"",""num_scrambled_schematic"":""4"",""participantId"":""164CFCF7AA2142BF8E980A3E25CC6FE4"",""assignmentId"":""aa80b3d9-95b2-4f8a-b67a-c5cb8818e738"",""projectId"":""5e631737-0fa4-44a6-b227-7ba1d7345015""}","https://test12345.live/?num_scrambled_semantic=8&num_scrambled_causal=4&num_scrambled_schematic=4&participantId=164CFCF7AA2142BF8E980A3E25CC6FE4&assignmentId=aa80b3d9-95b2-4f8a-b67a-c5cb8818e738&projectId=5e631737-0fa4-44a6-b227-7ba1d7345015","164CFCF7AA2142BF8E980A3E25CC6FE4-2025-05-27-18-35-25","[{""page_index"":0,""viewing_time"":3244}]","3244","","","","",""
"true","","","","","fullscreen","3","175728","0.0-3.0","164CFCF7AA2142BF8E980A3E25CC6FE4","164CFCF7AA2142BF8E980A3E25CC6FE4","aa80b3d9-95b2-4f8a-b67a-c5cb8818e738","5e631737-0fa4-44a6-b227-7ba1d7345015","{""num_scrambled_semantic"":""8"",""num_scrambled_causal"":""4"",""num_scrambled_schematic"":""4"",""participantId"":""164CFCF7AA2142BF8E980A3E25CC6FE4"",""assignmentId"":""aa80b3d9-95b2-4f8a-b67a-c5cb8818e738"",""projectId"":""5e631737-0fa4-44a6-b227-7ba1d7345015""}","https://test12345.live/?num_scrambled_semantic=8&num_scrambled_causal=4&num_scrambled_schematic=4&participantId=164CFCF7AA2142BF8E980A3E25CC6FE4&assignmentId=aa80b3d9-95b2-4f8a-b67a-c5cb8818e738&projectId=5e631737-0fa4-44a6-b227-7ba1d7345015","164CFCF7AA2142BF8E980A3E25CC6FE4-2025-05-27-18-35-25","","1813","","","","",""
"","","","","","initialize-microphone","4","178909","0.0-4.0-0.0","164CFCF7AA2142BF8E980A3E25CC6FE4","164CFCF7AA2142BF8E980A3E25CC6FE4","aa80b3d9-95b2-4f8a-b67a-c5cb8818e738","5e631737-0fa4-44a6-b227-7ba1d7345015","{""num_scrambled_semantic"":""8"",""num_scrambled_causal"":""4"",""num_scrambled_schematic"":""4"",""participantId"":""164CFCF7AA2142BF8E980A3E25CC6FE4"",""assignmentId"":""aa80b3d9-95b2-4f8a-b67a-c5cb8818e738"",""projectId"":""5e631737-0fa4-44a6-b227-7ba1d7345015""}","https://test12345.live/?num_scrambled_semantic=8&num_scrambled_causal=4&num_scrambled_schematic=4&participantId=164CFCF7AA2142BF8E980A3E25CC6FE4&assignmentId=aa80b3d9-95b2-4f8a-b67a-c5cb8818e738&projectId=5e631737-0fa4-44a6-b227-7ba1d7345015","164CFCF7AA2142BF8E980A3E25CC6FE4-2025-05-27-18-35-25","","","fd428e64df016887dc4bf93bde140d546651c3b45f6f8399c25fef10933aeabb","","","",""
"","","","","","html-audio-response","5","184286","0.0-4.0-1.0","164CFCF7AA2142BF8E980A3E25CC6FE4","164CFCF7AA2142BF8E980A3E25CC6FE4","aa80b3d9-95b2-4f8a-b67a-c5cb8818e738","5e631737-0fa4-44a6-b227-7ba1d7345015","{""num_scrambled_semantic"":""8"",""num_scrambled_causal"":""4"",""num_scrambled_schematic"":""4"",""participantId"":""164CFCF7AA2142BF8E980A3E25CC6FE4"",""assignmentId"":""aa80b3d9-95b2-4f8a-b67a-c5cb8818e738"",""projectId"":""5e631737-0fa4-44a6-b227-7ba1d7345015""}","https://test12345.live/?num_scrambled_semantic=8&num_scrambled_causal=4&num_scrambled_schematic=4&participantId=164CFCF7AA2142BF8E980A3E25CC6FE4&assignmentId=aa80b3d9-95b2-4f8a-b67a-c5cb8818e738&projectId=5e631737-0fa4-44a6-b227-7ba1d7345015","164CFCF7AA2142BF8E980A3E25CC6FE4-2025-05-27-18-35-25","","1803","","<span style=""color: red; font-size: 24px""> NOW RECORDING</span>
        <p>Please test Microphone</p>","","4",""
"","","","","","html-button-response","6","185399","0.0-4.0-2.0","164CFCF7AA2142BF8E980A3E25CC6FE4","164CFCF7AA2142BF8E980A3E25CC6FE4","aa80b3d9-95b2-4f8a-b67a-c5cb8818e738","5e631737-0fa4-44a6-b227-7ba1d7345015","{""num_scrambled_semantic"":""8"",""num_scrambled_causal"":""4"",""num_scrambled_schematic"":""4"",""participantId"":""164CFCF7AA2142BF8E980A3E25CC6FE4"",""assignmentId"":""aa80b3d9-95b2-4f8a-b67a-c5cb8818e738"",""projectId"":""5e631737-0fa4-44a6-b227-7ba1d7345015""}","https://test12345.live/?num_scrambled_semantic=8&num_scrambled_causal=4&num_scrambled_schematic=4&participantId=164CFCF7AA2142BF8E980A3E25CC6FE4&assignmentId=aa80b3d9-95b2-4f8a-b67a-c5cb8818e738&projectId=5e631737-0fa4-44a6-b227-7ba1d7345015","164CFCF7AA2142BF8E980A3E25CC6FE4-2025-05-27-18-35-25","","1112","","<p style=""font-size:48px; color:red;"">Is Microphone OK?</p>","1","",""
"","","","","","instructions","7","302648","0.0-5.0","164CFCF7AA2142BF8E980A3E25CC6FE4","164CFCF7AA2142BF8E980A3E25CC6FE4","aa80b3d9-95b2-4f8a-b67a-c5cb8818e738","5e631737-0fa4-44a6-b227-7ba1d7345015","{""num_scrambled_semantic"":""8"",""num_scrambled_causal"":""4"",""num_scrambled_schematic"":""4"",""participantId"":""164CFCF7AA2142BF8E980A3E25CC6FE4"",""assignmentId"":""aa80b3d9-95b2-4f8a-b67a-c5cb8818e738"",""projectId"":""5e631737-0fa4-44a6-b227-7ba1d7345015""}","https://test12345.live/?num_scrambled_semantic=8&num_scrambled_causal=4&num_scrambled_schematic=4&participantId=164CFCF7AA2142BF8E980A3E25CC6FE4&assignmentId=aa80b3d9-95b2-4f8a-b67a-c5cb8818e738&projectId=5e631737-0fa4-44a6-b227-7ba1d7345015","164CFCF7AA2142BF8E980A3E25CC6FE4-2025-05-27-18-35-25","[{""page_index"":0,""viewing_time"":67940},{""page_index"":1,""viewing_time"":49308}]","117249","","","","",""
"","","","","","image-button-response","8","308663","0.0-6.0-0.0","164CFCF7AA2142BF8E980A3E25CC6FE4","164CFCF7AA2142BF8E980A3E25CC6FE4","aa80b3d9-95b2-4f8a-b67a-c5cb8818e738","5e631737-0fa4-44a6-b227-7ba1d7345015","{""num_scrambled_semantic"":""8"",""num_scrambled_causal"":""4"",""num_scrambled_schematic"":""4"",""participantId"":""164CFCF7AA2142BF8E980A3E25CC6FE4"",""assignmentId"":""aa80b3d9-95b2-4f8a-b67a-c5cb8818e738"",""projectId"":""5e631737-0fa4-44a6-b227-7ba1d7345015""}","https://test12345.live/?num_scrambled_semantic=8&num_scrambled_causal=4&num_scrambled_schematic=4&participantId=164CFCF7AA2142BF8E980A3E25CC6FE4&assignmentId=aa80b3d9-95b2-4f8a-b67a-c5cb8818e738&projectId=5e631737-0fa4-44a6-b227-7ba1d7345015","164CFCF7AA2142BF8E980A3E25CC6FE4-2025-05-27-18-35-25","","null","","images/instructions/movie_0.png","null","",""
"","","","","","image-button-response","9","313173","0.0-6.0-1.0-0.0","164CFCF7AA2142BF8E980A3E25CC6FE4","164CFCF7AA2142BF8E980A3E25CC6FE4","aa80b3d9-95b2-4f8a-b67a-c5cb8818e738","5e631737-0fa4-44a6-b227-7ba1d7345015","{""num_scrambled_semantic"":""8"",""num_scrambled_causal"":""4"",""num_scrambled_schematic"":""4"",""participantId"":""164CFCF7AA2142BF8E980A3E25CC6FE4"",""assignmentId"":""aa80b3d9-95b2-4f8a-b67a-c5cb8818e738"",""projectId"":""5e631737-0fa4-44a6-b227-7ba1d7345015""}","https://test12345.live/?num_scrambled_semantic=8&num_scrambled_causal=4&num_scrambled_schematic=4&participantId=164CFCF7AA2142BF8E980A3E25CC6FE4&assignmentId=aa80b3d9-95b2-4f8a-b67a-c5cb8818e738&projectId=5e631737-0fa4-44a6-b227-7ba1d7345015","164CFCF7AA2142BF8E980A3E25CC6FE4-2025-05-27-18-35-25","","null","","images/instructions/movie_1.png","null","",""
"","","","","","image-button-response","10","315175","0.0-6.0-1.0-1.0","164CFCF7AA2142BF8E980A3E25CC6FE4","164CFCF7AA2142BF8E980A3E25CC6FE4","aa80b3d9-95b2-4f8a-b67a-c5cb8818e738","5e631737-0fa4-44a6-b227-7ba1d7345015","{""num_scrambled_semantic"":""8"",""num_scrambled_causal"":""4"",""num_scrambled_schematic"":""4"",""participantId"":""164CFCF7AA2142BF8E980A3E25CC6FE4"",""assignmentId"":""aa80b3d9-95b2-4f8a-b67a-c5cb8818e738"",""projectId"":""5e631737-0fa4-44a6-b227-7ba1d7345015""}","https://test12345.live/?num_scrambled_semantic=8&num_scrambled_causal=4&num_scrambled_schematic=4&participantId=164CFCF7AA2142BF8E980A3E25CC6FE4&assignmentId=aa80b3d9-95b2-4f8a-b67a-c5cb8818e738&projectId=5e631737-0fa4-44a6-b227-7ba1d7345015","164CFCF7AA2142BF8E980A3E25CC6FE4-2025-05-27-18-35-25","","2000","","images/instructions/movie_1.png","0","",""
"","","","","","image-button-response","11","316979","0.0-6.0-1.0-2.0","164CFCF7AA2142BF8E980A3E25CC6FE4","164CFCF7AA2142BF8E980A3E25CC6FE4","aa80b3d9-95b2-4f8a-b67a-c5cb8818e738","5e631737-0fa4-44a6-b227-7ba1d7345015","{""num_scrambled_semantic"":""8"",""num_scrambled_causal"":""4"",""num_scrambled_schematic"":""4"",""participantId"":""164CFCF7AA2142BF8E980A3E25CC6FE4"",""assignmentId"":""aa80b3d9-95b2-4f8a-b67a-c5cb8818e738"",""projectId"":""5e631737-0fa4-44a6-b227-7ba1d7345015""}","https://test12345.live/?num_scrambled_semantic=8&num_scrambled_causal=4&num_scrambled_schematic=4&participantId=164CFCF7AA2142BF8E980A3E25CC6FE4&assignmentId=aa80b3d9-95b2-4f8a-b67a-c5cb8818e738&projectId=5e631737-0fa4-44a6-b227-7ba1d7345015","164CFCF7AA2142BF8E980A3E25CC6FE4-2025-05-27-18-35-25","","null","","[]","null","",""
"","","","","","image-button-response","12","321485","0.0-6.0-1.0-0.1","164CFCF7AA2142BF8E980A3E25CC6FE4","164CFCF7AA2142BF8E980A3E25CC6FE4","aa80b3d9-95b2-4f8a-b67a-c5cb8818e738","5e631737-0fa4-44a6-b227-7ba1d7345015","{""num_scrambled_semantic"":""8"",""num_scrambled_causal"":""4"",""num_scrambled_schematic"":""4"",""participantId"":""164CFCF7AA2142BF8E980A3E25CC6FE4"",""assignmentId"":""aa80b3d9-95b2-4f8a-b67a-c5cb8818e738"",""projectId"":""5e631737-0fa4-44a6-b227-7ba1d7345015""}","https://test12345.live/?num_scrambled_semantic=8&num_scrambled_causal=4&num_scrambled_schematic=4&participantId=164CFCF7AA2142BF8E980A3E25CC6FE4&assignmentId=aa80b3d9-95b2-4f8a-b67a-c5cb8818e738&projectId=5e631737-0fa4-44a6-b227-7ba1d7345015","164CFCF7AA2142BF8E980A3E25CC6FE4-2025-05-27-18-35-25","","null","","images/instructions/movie_2.png","null","",""
"","","","","","image-button-response","13","324676","0.0-6.0-1.0-1.1","164CFCF7AA2142BF8E980A3E25CC6FE4","164CFCF7AA2142BF8E980A3E25CC6FE4","aa80b3d9-95b2-4f8a-b67a-c5cb8818e738","5e631737-0fa4-44a6-b227-7ba1d7345015","{""num_scrambled_semantic"":""8"",""num_scrambled_causal"":""4"",""num_scrambled_schematic"":""4"",""participantId"":""164CFCF7AA2142BF8E980A3E25CC6FE4"",""assignmentId"":""aa80b3d9-95b2-4f8a-b67a-c5cb8818e738"",""projectId"":""5e631737-0fa4-44a6-b227-7ba1d7345015""}","https://test12345.live/?num_scrambled_semantic=8&num_scrambled_causal=4&num_scrambled_schematic=4&participantId=164CFCF7AA2142BF8E980A3E25CC6FE4&assignmentId=aa80b3d9-95b2-4f8a-b67a-c5cb8818e738&projectId=5e631737-0fa4-44a6-b227-7ba1d7345015","164CFCF7AA2142BF8E980A3E25CC6FE4-2025-05-27-18-35-25","","3190","","images/instructions/movie_2.png","0","",""
"","","","","","image-button-response","14","326490","0.0-6.0-1.0-2.1","164CFCF7AA2142BF8E980A3E25CC6FE4","164CFCF7AA2142BF8E980A3E25CC6FE4","aa80b3d9-95b2-4f8a-b67a-c5cb8818e738","5e631737-0fa4-44a6-b227-7ba1d7345015","{""num_scrambled_semantic"":""8"",""num_scrambled_causal"":""4"",""num_scrambled_schematic"":""4"",""participantId"":""164CFCF7AA2142BF8E980A3E25CC6FE4"",""assignmentId"":""aa80b3d9-95b2-4f8a-b67a-c5cb8818e738"",""projectId"":""5e631737-0fa4-44a6-b227-7ba1d7345015""}","https://test12345.live/?num_scrambled_semantic=8&num_scrambled_causal=4&num_scrambled_schematic=4&participantId=164CFCF7AA2142BF8E980A3E25CC6FE4&assignmentId=aa80b3d9-95b2-4f8a-b67a-c5cb8818e738&projectId=5e631737-0fa4-44a6-b227-7ba1d7345015","164CFCF7AA2142BF8E980A3E25CC6FE4-2025-05-27-18-35-25","","null","","[]","null","",""
"","","","","","image-button-response","15","331005","0.0-6.0-1.0-0.2","164CFCF7AA2142BF8E980A3E25CC6FE4","164CFCF7AA2142BF8E980A3E25CC6FE4","aa80b3d9-95b2-4f8a-b67a-c5cb8818e738","5e631737-0fa4-44a6-b227-7ba1d7345015","{""num_scrambled_semantic"":""8"",""num_scrambled_causal"":""4"",""num_scrambled_schematic"":""4"",""participantId"":""164CFCF7AA2142BF8E980A3E25CC6FE4"",""assignmentId"":""aa80b3d9-95b2-4f8a-b67a-c5cb8818e738"",""projectId"":""5e631737-0fa4-44a6-b227-7ba1d7345015""}","https://test12345.live/?num_scrambled_semantic=8&num_scrambled_causal=4&num_scrambled_schematic=4&participantId=164CFCF7AA2142BF8E980A3E25CC6FE4&assignmentId=aa80b3d9-95b2-4f8a-b67a-c5cb8818e738&projectId=5e631737-0fa4-44a6-b227-7ba1d7345015","164CFCF7AA2142BF8E980A3E25CC6FE4-2025-05-27-18-35-25","","null","","images/instructions/movie_3.png","null","",""
"","","","","","image-button-response","16","335011","0.0-6.0-1.0-1.2","164CFCF7AA2142BF8E980A3E25CC6FE4","164CFCF7AA2142BF8E980A3E25CC6FE4","aa80b3d9-95b2-4f8a-b67a-c5cb8818e738","5e631737-0fa4-44a6-b227-7ba1d7345015","{""num_scrambled_semantic"":""8"",""num_scrambled_causal"":""4"",""num_scrambled_schematic"":""4"",""participantId"":""164CFCF7AA2142BF8E980A3E25CC6FE4"",""assignmentId"":""aa80b3d9-95b2-4f8a-b67a-c5cb8818e738"",""projectId"":""5e631737-0fa4-44a6-b227-7ba1d7345015""}","https://test12345.live/?num_scrambled_semantic=8&num_scrambled_causal=4&num_scrambled_schematic=4&participantId=164CFCF7AA2142BF8E980A3E25CC6FE4&assignmentId=aa80b3d9-95b2-4f8a-b67a-c5cb8818e738&projectId=5e631737-0fa4-44a6-b227-7ba1d7345015","164CFCF7AA2142BF8E980A3E25CC6FE4-2025-05-27-18-35-25","","null","","images/instructions/movie_3.png","null","",""
"","","","","","image-button-response","17","336822","0.0-6.0-1.0-2.2","164CFCF7AA2142BF8E980A3E25CC6FE4","164CFCF7AA2142BF8E980A3E25CC6FE4","aa80b3d9-95b2-4f8a-b67a-c5cb8818e738","5e631737-0fa4-44a6-b227-7ba1d7345015","{""num_scrambled_semantic"":""8"",""num_scrambled_causal"":""4"",""num_scrambled_schematic"":""4"",""participantId"":""164CFCF7AA2142BF8E980A3E25CC6FE4"",""assignmentId"":""aa80b3d9-95b2-4f8a-b67a-c5cb8818e738"",""projectId"":""5e631737-0fa4-44a6-b227-7ba1d7345015""}","https://test12345.live/?num_scrambled_semantic=8&num_scrambled_causal=4&num_scrambled_schematic=4&participantId=164CFCF7AA2142BF8E980A3E25CC6FE4&assignmentId=aa80b3d9-95b2-4f8a-b67a-c5cb8818e738&projectId=5e631737-0fa4-44a6-b227-7ba1d7345015","164CFCF7AA2142BF8E980A3E25CC6FE4-2025-05-27-18-35-25","","null","","[]","null","",""
"","","","","","image-button-response","18","341327","0.0-6.0-1.0-0.3","164CFCF7AA2142BF8E980A3E25CC6FE4","164CFCF7AA2142BF8E980A3E25CC6FE4","aa80b3d9-95b2-4f8a-b67a-c5cb8818e738","5e631737-0fa4-44a6-b227-7ba1d7345015","{""num_scrambled_semantic"":""8"",""num_scrambled_causal"":""4"",""num_scrambled_schematic"":""4"",""participantId"":""164CFCF7AA2142BF8E980A3E25CC6FE4"",""assignmentId"":""aa80b3d9-95b2-4f8a-b67a-c5cb8818e738"",""projectId"":""5e631737-0fa4-44a6-b227-7ba1d7345015""}","https://test12345.live/?num_scrambled_semantic=8&num_scrambled_causal=4&num_scrambled_schematic=4&participantId=164CFCF7AA2142BF8E980A3E25CC6FE4&assignmentId=aa80b3d9-95b2-4f8a-b67a-c5cb8818e738&projectId=5e631737-0fa4-44a6-b227-7ba1d7345015","164CFCF7AA2142BF8E980A3E25CC6FE4-2025-05-27-18-35-25","","null","","images/instructions/movie_4.png","null","",""
"","","","","","image-button-response","19","341851","0.0-6.0-1.0-1.3","164CFCF7AA2142BF8E980A3E25CC6FE4","164CFCF7AA2142BF8E980A3E25CC6FE4","aa80b3d9-95b2-4f8a-b67a-c5cb8818e738","5e631737-0fa4-44a6-b227-7ba1d7345015","{""num_scrambled_semantic"":""8"",""num_scrambled_causal"":""4"",""num_scrambled_schematic"":""4"",""participantId"":""164CFCF7AA2142BF8E980A3E25CC6FE4"",""assignmentId"":""aa80b3d9-95b2-4f8a-b67a-c5cb8818e738"",""projectId"":""5e631737-0fa4-44a6-b227-7ba1d7345015""}","https://test12345.live/?num_scrambled_semantic=8&num_scrambled_causal=4&num_scrambled_schematic=4&participantId=164CFCF7AA2142BF8E980A3E25CC6FE4&assignmentId=aa80b3d9-95b2-4f8a-b67a-c5cb8818e738&projectId=5e631737-0fa4-44a6-b227-7ba1d7345015","164CFCF7AA2142BF8E980A3E25CC6FE4-2025-05-27-18-35-25","","522","","images/instructions/movie_4.png","0","",""
"","","","","","image-button-response","20","343653","0.0-6.0-1.0-2.3","164CFCF7AA2142BF8E980A3E25CC6FE4","164CFCF7AA2142BF8E980A3E25CC6FE4","aa80b3d9-95b2-4f8a-b67a-c5cb8818e738","5e631737-0fa4-44a6-b227-7ba1d7345015","{""num_scrambled_semantic"":""8"",""num_scrambled_causal"":""4"",""num_scrambled_schematic"":""4"",""participantId"":""164CFCF7AA2142BF8E980A3E25CC6FE4"",""assignmentId"":""aa80b3d9-95b2-4f8a-b67a-c5cb8818e738"",""projectId"":""5e631737-0fa4-44a6-b227-7ba1d7345015""}","https://test12345.live/?num_scrambled_semantic=8&num_scrambled_causal=4&num_scrambled_schematic=4&participantId=164CFCF7AA2142BF8E980A3E25CC6FE4&assignmentId=aa80b3d9-95b2-4f8a-b67a-c5cb8818e738&projectId=5e631737-0fa4-44a6-b227-7ba1d7345015","164CFCF7AA2142BF8E980A3E25CC6FE4-2025-05-27-18-35-25","","null","","[]","null","",""
"","","","","","instructions","21","351795","0.0-7.0","164CFCF7AA2142BF8E980A3E25CC6FE4","164CFCF7AA2142BF8E980A3E25CC6FE4","aa80b3d9-95b2-4f8a-b67a-c5cb8818e738","5e631737-0fa4-44a6-b227-7ba1d7345015","{""num_scrambled_semantic"":""8"",""num_scrambled_causal"":""4"",""num_scrambled_schematic"":""4"",""participantId"":""164CFCF7AA2142BF8E980A3E25CC6FE4"",""assignmentId"":""aa80b3d9-95b2-4f8a-b67a-c5cb8818e738"",""projectId"":""5e631737-0fa4-44a6-b227-7ba1d7345015""}","https://test12345.live/?num_scrambled_semantic=8&num_scrambled_causal=4&num_scrambled_schematic=4&participantId=164CFCF7AA2142BF8E980A3E25CC6FE4&assignmentId=aa80b3d9-95b2-4f8a-b67a-c5cb8818e738&projectId=5e631737-0fa4-44a6-b227-7ba1d7345015","164CFCF7AA2142BF8E980A3E25CC6FE4-2025-05-27-18-35-25","[{""page_index"":0,""viewing_time"":7340},{""page_index"":1,""viewing_time"":801}]","8141","","","","",""
"","","","","","html-audio-response","22","372513","0.0-8.0","164CFCF7AA2142BF8E980A3E25CC6FE4","164CFCF7AA2142BF8E980A3E25CC6FE4","aa80b3d9-95b2-4f8a-b67a-c5cb8818e738","5e631737-0fa4-44a6-b227-7ba1d7345015","{""num_scrambled_semantic"":""8"",""num_scrambled_causal"":""4"",""num_scrambled_schematic"":""4"",""participantId"":""164CFCF7AA2142BF8E980A3E25CC6FE4"",""assignmentId"":""aa80b3d9-95b2-4f8a-b67a-c5cb8818e738"",""projectId"":""5e631737-0fa4-44a6-b227-7ba1d7345015""}","https://test12345.live/?num_scrambled_semantic=8&num_scrambled_causal=4&num_scrambled_schematic=4&participantId=164CFCF7AA2142BF8E980A3E25CC6FE4&assignmentId=aa80b3d9-95b2-4f8a-b67a-c5cb8818e738&projectId=5e631737-0fa4-44a6-b227-7ba1d7345015","164CFCF7AA2142BF8E980A3E25CC6FE4-2025-05-27-18-35-25","","11241","","[""<span style=\""color: red; font-size: 24px\""> NOW RECORDING</span><p>Please say out loud all the images you saw in the exact order you saw them. Try to recall as many images as you can, but remember: getting the order right is more important than the number of images you recall.</p>""]","","2",""
"","","","","","instructions","23","373780","0.0-9.0","164CFCF7AA2142BF8E980A3E25CC6FE4","164CFCF7AA2142BF8E980A3E25CC6FE4","aa80b3d9-95b2-4f8a-b67a-c5cb8818e738","5e631737-0fa4-44a6-b227-7ba1d7345015","{""num_scrambled_semantic"":""8"",""num_scrambled_causal"":""4"",""num_scrambled_schematic"":""4"",""participantId"":""164CFCF7AA2142BF8E980A3E25CC6FE4"",""assignmentId"":""aa80b3d9-95b2-4f8a-b67a-c5cb8818e738"",""projectId"":""5e631737-0fa4-44a6-b227-7ba1d7345015""}","https://test12345.live/?num_scrambled_semantic=8&num_scrambled_causal=4&num_scrambled_schematic=4&participantId=164CFCF7AA2142BF8E980A3E25CC6FE4&assignmentId=aa80b3d9-95b2-4f8a-b67a-c5cb8818e738&projectId=5e631737-0fa4-44a6-b227-7ba1d7345015","164CFCF7AA2142BF8E980A3E25CC6FE4-2025-05-27-18-35-25","[{""page_index"":0,""viewing_time"":1264}]","1265","","","","",""
"","","","","","image-button-response","24","379795","0.0-10.0-0.0","164CFCF7AA2142BF8E980A3E25CC6FE4","164CFCF7AA2142BF8E980A3E25CC6FE4","aa80b3d9-95b2-4f8a-b67a-c5cb8818e738","5e631737-0fa4-44a6-b227-7ba1d7345015","{""num_scrambled_semantic"":""8"",""num_scrambled_causal"":""4"",""num_scrambled_schematic"":""4"",""participantId"":""164CFCF7AA2142BF8E980A3E25CC6FE4"",""assignmentId"":""aa80b3d9-95b2-4f8a-b67a-c5cb8818e738"",""projectId"":""5e631737-0fa4-44a6-b227-7ba1d7345015""}","https://test12345.live/?num_scrambled_semantic=8&num_scrambled_causal=4&num_scrambled_schematic=4&participantId=164CFCF7AA2142BF8E980A3E25CC6FE4&assignmentId=aa80b3d9-95b2-4f8a-b67a-c5cb8818e738&projectId=5e631737-0fa4-44a6-b227-7ba1d7345015","164CFCF7AA2142BF8E980A3E25CC6FE4-2025-05-27-18-35-25","","null","","images/schematic_sequence/dinner_party_scheme/dinner_party_scheme_0.png","null","",""
"","","","","","image-button-response","25","384311","0.0-10.0-1.0-0.0","164CFCF7AA2142BF8E980A3E25CC6FE4","164CFCF7AA2142BF8E980A3E25CC6FE4","aa80b3d9-95b2-4f8a-b67a-c5cb8818e738","5e631737-0fa4-44a6-b227-7ba1d7345015","{""num_scrambled_semantic"":""8"",""num_scrambled_causal"":""4"",""num_scrambled_schematic"":""4"",""participantId"":""164CFCF7AA2142BF8E980A3E25CC6FE4"",""assignmentId"":""aa80b3d9-95b2-4f8a-b67a-c5cb8818e738"",""projectId"":""5e631737-0fa4-44a6-b227-7ba1d7345015""}","https://test12345.live/?num_scrambled_semantic=8&num_scrambled_causal=4&num_scrambled_schematic=4&participantId=164CFCF7AA2142BF8E980A3E25CC6FE4&assignmentId=aa80b3d9-95b2-4f8a-b67a-c5cb8818e738&projectId=5e631737-0fa4-44a6-b227-7ba1d7345015","164CFCF7AA2142BF8E980A3E25CC6FE4-2025-05-27-18-35-25","","null","","images/schematic_sequence/dinner_party_scheme/dinner_party_scheme_3.png","null","",""
"","","","","","image-button-response","26","386606","0.0-10.0-1.0-1.0","164CFCF7AA2142BF8E980A3E25CC6FE4","164CFCF7AA2142BF8E980A3E25CC6FE4","aa80b3d9-95b2-4f8a-b67a-c5cb8818e738","5e631737-0fa4-44a6-b227-7ba1d7345015","{""num_scrambled_semantic"":""8"",""num_scrambled_causal"":""4"",""num_scrambled_schematic"":""4"",""participantId"":""164CFCF7AA2142BF8E980A3E25CC6FE4"",""assignmentId"":""aa80b3d9-95b2-4f8a-b67a-c5cb8818e738"",""projectId"":""5e631737-0fa4-44a6-b227-7ba1d7345015""}","https://test12345.live/?num_scrambled_semantic=8&num_scrambled_causal=4&num_scrambled_schematic=4&participantId=164CFCF7AA2142BF8E980A3E25CC6FE4&assignmentId=aa80b3d9-95b2-4f8a-b67a-c5cb8818e738&projectId=5e631737-0fa4-44a6-b227-7ba1d7345015","164CFCF7AA2142BF8E980A3E25CC6FE4-2025-05-27-18-35-25","","2294","","images/schematic_sequence/dinner_party_scheme/dinner_party_scheme_3.png","0","",""
"","","","","","image-button-response","27","388422","0.0-10.0-1.0-2.0","164CFCF7AA2142BF8E980A3E25CC6FE4","164CFCF7AA2142BF8E980A3E25CC6FE4","aa80b3d9-95b2-4f8a-b67a-c5cb8818e738","5e631737-0fa4-44a6-b227-7ba1d7345015","{""num_scrambled_semantic"":""8"",""num_scrambled_causal"":""4"",""num_scrambled_schematic"":""4"",""participantId"":""164CFCF7AA2142BF8E980A3E25CC6FE4"",""assignmentId"":""aa80b3d9-95b2-4f8a-b67a-c5cb8818e738"",""projectId"":""5e631737-0fa4-44a6-b227-7ba1d7345015""}","https://test12345.live/?num_scrambled_semantic=8&num_scrambled_causal=4&num_scrambled_schematic=4&participantId=164CFCF7AA2142BF8E980A3E25CC6FE4&assignmentId=aa80b3d9-95b2-4f8a-b67a-c5cb8818e738&projectId=5e631737-0fa4-44a6-b227-7ba1d7345015","164CFCF7AA2142BF8E980A3E25CC6FE4-2025-05-27-18-35-25","","null","","[]","null","",""
"","","","","","image-button-response","28","392931","0.0-10.0-1.0-0.1","164CFCF7AA2142BF8E980A3E25CC6FE4","164CFCF7AA2142BF8E980A3E25CC6FE4","aa80b3d9-95b2-4f8a-b67a-c5cb8818e738","5e631737-0fa4-44a6-b227-7ba1d7345015","{""num_scrambled_semantic"":""8"",""num_scrambled_causal"":""4"",""num_scrambled_schematic"":""4"",""participantId"":""164CFCF7AA2142BF8E980A3E25CC6FE4"",""assignmentId"":""aa80b3d9-95b2-4f8a-b67a-c5cb8818e738"",""projectId"":""5e631737-0fa4-44a6-b227-7ba1d7345015""}","https://test12345.live/?num_scrambled_semantic=8&num_scrambled_causal=4&num_scrambled_schematic=4&participantId=164CFCF7AA2142BF8E980A3E25CC6FE4&assignmentId=aa80b3d9-95b2-4f8a-b67a-c5cb8818e738&projectId=5e631737-0fa4-44a6-b227-7ba1d7345015","164CFCF7AA2142BF8E980A3E25CC6FE4-2025-05-27-18-35-25","","null","","images/schematic_sequence/dinner_party_scheme/dinner_party_scheme_6.png","null","",""
"","","","","","image-button-response","29","394018","0.0-10.0-1.0-1.1","164CFCF7AA2142BF8E980A3E25CC6FE4","164CFCF7AA2142BF8E980A3E25CC6FE4","aa80b3d9-95b2-4f8a-b67a-c5cb8818e738","5e631737-0fa4-44a6-b227-7ba1d7345015","{""num_scrambled_semantic"":""8"",""num_scrambled_causal"":""4"",""num_scrambled_schematic"":""4"",""participantId"":""164CFCF7AA2142BF8E980A3E25CC6FE4"",""assignmentId"":""aa80b3d9-95b2-4f8a-b67a-c5cb8818e738"",""projectId"":""5e631737-0fa4-44a6-b227-7ba1d7345015""}","https://test12345.live/?num_scrambled_semantic=8&num_scrambled_causal=4&num_scrambled_schematic=4&participantId=164CFCF7AA2142BF8E980A3E25CC6FE4&assignmentId=aa80b3d9-95b2-4f8a-b67a-c5cb8818e738&projectId=5e631737-0fa4-44a6-b227-7ba1d7345015","164CFCF7AA2142BF8E980A3E25CC6FE4-2025-05-27-18-35-25","","1085","","images/schematic_sequence/dinner_party_scheme/dinner_party_scheme_6.png","0","",""
"","","","","","image-button-response","30","395829","0.0-10.0-1.0-2.1","164CFCF7AA2142BF8E980A3E25CC6FE4","164CFCF7AA2142BF8E980A3E25CC6FE4","aa80b3d9-95b2-4f8a-b67a-c5cb8818e738","5e631737-0fa4-44a6-b227-7ba1d7345015","{""num_scrambled_semantic"":""8"",""num_scrambled_causal"":""4"",""num_scrambled_schematic"":""4"",""participantId"":""164CFCF7AA2142BF8E980A3E25CC6FE4"",""assignmentId"":""aa80b3d9-95b2-4f8a-b67a-c5cb8818e738"",""projectId"":""5e631737-0fa4-44a6-b227-7ba1d7345015""}","https://test12345.live/?num_scrambled_semantic=8&num_scrambled_causal=4&num_scrambled_schematic=4&participantId=164CFCF7AA2142BF8E980A3E25CC6FE4&assignmentId=aa80b3d9-95b2-4f8a-b67a-c5cb8818e738&projectId=5e631737-0fa4-44a6-b227-7ba1d7345015","164CFCF7AA2142BF8E980A3E25CC6FE4-2025-05-27-18-35-25","","null","","[]","null","",""
"","","","","","image-button-response","31","400336","0.0-10.0-1.0-0.2","164CFCF7AA2142BF8E980A3E25CC6FE4","164CFCF7AA2142BF8E980A3E25CC6FE4","aa80b3d9-95b2-4f8a-b67a-c5cb8818e738","5e631737-0fa4-44a6-b227-7ba1d7345015","{""num_scrambled_semantic"":""8"",""num_scrambled_causal"":""4"",""num_scrambled_schematic"":""4"",""participantId"":""164CFCF7AA2142BF8E980A3E25CC6FE4"",""assignmentId"":""aa80b3d9-95b2-4f8a-b67a-c5cb8818e738"",""projectId"":""5e631737-0fa4-44a6-b227-7ba1d7345015""}","https://test12345.live/?num_scrambled_semantic=8&num_scrambled_causal=4&num_scrambled_schematic=4&participantId=164CFCF7AA2142BF8E980A3E25CC6FE4&assignmentId=aa80b3d9-95b2-4f8a-b67a-c5cb8818e738&projectId=5e631737-0fa4-44a6-b227-7ba1d7345015","164CFCF7AA2142BF8E980A3E25CC6FE4-2025-05-27-18-35-25","","null","","images/schematic_sequence/dinner_party_scheme/dinner_party_scheme_ten.png","null","",""
"","","","","","image-button-response","32","402228","0.0-10.0-1.0-1.2","164CFCF7AA2142BF8E980A3E25CC6FE4","164CFCF7AA2142BF8E980A3E25CC6FE4","aa80b3d9-95b2-4f8a-b67a-c5cb8818e738","5e631737-0fa4-44a6-b227-7ba1d7345015","{""num_scrambled_semantic"":""8"",""num_scrambled_causal"":""4"",""num_scrambled_schematic"":""4"",""participantId"":""164CFCF7AA2142BF8E980A3E25CC6FE4"",""assignmentId"":""aa80b3d9-95b2-4f8a-b67a-c5cb8818e738"",""projectId"":""5e631737-0fa4-44a6-b227-7ba1d7345015""}","https://test12345.live/?num_scrambled_semantic=8&num_scrambled_causal=4&num_scrambled_schematic=4&participantId=164CFCF7AA2142BF8E980A3E25CC6FE4&assignmentId=aa80b3d9-95b2-4f8a-b67a-c5cb8818e738&projectId=5e631737-0fa4-44a6-b227-7ba1d7345015","164CFCF7AA2142BF8E980A3E25CC6FE4-2025-05-27-18-35-25","","1891","","images/schematic_sequence/dinner_party_scheme/dinner_party_scheme_ten.png","0","",""
"","","","","","image-button-response","33","404032","0.0-10.0-1.0-2.2","164CFCF7AA2142BF8E980A3E25CC6FE4","164CFCF7AA2142BF8E980A3E25CC6FE4","aa80b3d9-95b2-4f8a-b67a-c5cb8818e738","5e631737-0fa4-44a6-b227-7ba1d7345015","{""num_scrambled_semantic"":""8"",""num_scrambled_causal"":""4"",""num_scrambled_schematic"":""4"",""participantId"":""164CFCF7AA2142BF8E980A3E25CC6FE4"",""assignmentId"":""aa80b3d9-95b2-4f8a-b67a-c5cb8818e738"",""projectId"":""5e631737-0fa4-44a6-b227-7ba1d7345015""}","https://test12345.live/?num_scrambled_semantic=8&num_scrambled_causal=4&num_scrambled_schematic=4&participantId=164CFCF7AA2142BF8E980A3E25CC6FE4&assignmentId=aa80b3d9-95b2-4f8a-b67a-c5cb8818e738&projectId=5e631737-0fa4-44a6-b227-7ba1d7345015","164CFCF7AA2142BF8E980A3E25CC6FE4-2025-05-27-18-35-25","","null","","[]","null","",""
"","","","","","image-button-response","34","408548","0.0-10.0-1.0-0.3","164CFCF7AA2142BF8E980A3E25CC6FE4","164CFCF7AA2142BF8E980A3E25CC6FE4","aa80b3d9-95b2-4f8a-b67a-c5cb8818e738","5e631737-0fa4-44a6-b227-7ba1d7345015","{""num_scrambled_semantic"":""8"",""num_scrambled_causal"":""4"",""num_scrambled_schematic"":""4"",""participantId"":""164CFCF7AA2142BF8E980A3E25CC6FE4"",""assignmentId"":""aa80b3d9-95b2-4f8a-b67a-c5cb8818e738"",""projectId"":""5e631737-0fa4-44a6-b227-7ba1d7345015""}","https://test12345.live/?num_scrambled_semantic=8&num_scrambled_causal=4&num_scrambled_schematic=4&participantId=164CFCF7AA2142BF8E980A3E25CC6FE4&assignmentId=aa80b3d9-95b2-4f8a-b67a-c5cb8818e738&projectId=5e631737-0fa4-44a6-b227-7ba1d7345015","164CFCF7AA2142BF8E980A3E25CC6FE4-2025-05-27-18-35-25","","null","","images/schematic_sequence/dinner_party_scheme/dinner_party_scheme_4.png","null","",""
"","","","","","image-button-response","35","409290","0.0-10.0-1.0-1.3","164CFCF7AA2142BF8E980A3E25CC6FE4","164CFCF7AA2142BF8E980A3E25CC6FE4","aa80b3d9-95b2-4f8a-b67a-c5cb8818e738","5e631737-0fa4-44a6-b227-7ba1d7345015","{""num_scrambled_semantic"":""8"",""num_scrambled_causal"":""4"",""num_scrambled_schematic"":""4"",""participantId"":""164CFCF7AA2142BF8E980A3E25CC6FE4"",""assignmentId"":""aa80b3d9-95b2-4f8a-b67a-c5cb8818e738"",""projectId"":""5e631737-0fa4-44a6-b227-7ba1d7345015""}","https://test12345.live/?num_scrambled_semantic=8&num_scrambled_causal=4&num_scrambled_schematic=4&participantId=164CFCF7AA2142BF8E980A3E25CC6FE4&assignmentId=aa80b3d9-95b2-4f8a-b67a-c5cb8818e738&projectId=5e631737-0fa4-44a6-b227-7ba1d7345015","164CFCF7AA2142BF8E980A3E25CC6FE4-2025-05-27-18-35-25","","740","","images/schematic_sequence/dinner_party_scheme/dinner_party_scheme_4.png","0","",""
"","","","","","image-button-response","36","411104","0.0-10.0-1.0-2.3","164CFCF7AA2142BF8E980A3E25CC6FE4","164CFCF7AA2142BF8E980A3E25CC6FE4","aa80b3d9-95b2-4f8a-b67a-c5cb8818e738","5e631737-0fa4-44a6-b227-7ba1d7345015","{""num_scrambled_semantic"":""8"",""num_scrambled_causal"":""4"",""num_scrambled_schematic"":""4"",""participantId"":""164CFCF7AA2142BF8E980A3E25CC6FE4"",""assignmentId"":""aa80b3d9-95b2-4f8a-b67a-c5cb8818e738"",""projectId"":""5e631737-0fa4-44a6-b227-7ba1d7345015""}","https://test12345.live/?num_scrambled_semantic=8&num_scrambled_causal=4&num_scrambled_schematic=4&participantId=164CFCF7AA2142BF8E980A3E25CC6FE4&assignmentId=aa80b3d9-95b2-4f8a-b67a-c5cb8818e738&projectId=5e631737-0fa4-44a6-b227-7ba1d7345015","164CFCF7AA2142BF8E980A3E25CC6FE4-2025-05-27-18-35-25","","null","","[]","null","",""
"","","","","","image-button-response","37","415608","0.0-10.0-1.0-0.4","164CFCF7AA2142BF8E980A3E25CC6FE4","164CFCF7AA2142BF8E980A3E25CC6FE4","aa80b3d9-95b2-4f8a-b67a-c5cb8818e738","5e631737-0fa4-44a6-b227-7ba1d7345015","{""num_scrambled_semantic"":""8"",""num_scrambled_causal"":""4"",""num_scrambled_schematic"":""4"",""participantId"":""164CFCF7AA2142BF8E980A3E25CC6FE4"",""assignmentId"":""aa80b3d9-95b2-4f8a-b67a-c5cb8818e738"",""projectId"":""5e631737-0fa4-44a6-b227-7ba1d7345015""}","https://test12345.live/?num_scrambled_semantic=8&num_scrambled_causal=4&num_scrambled_schematic=4&participantId=164CFCF7AA2142BF8E980A3E25CC6FE4&assignmentId=aa80b3d9-95b2-4f8a-b67a-c5cb8818e738&projectId=5e631737-0fa4-44a6-b227-7ba1d7345015","164CFCF7AA2142BF8E980A3E25CC6FE4-2025-05-27-18-35-25","","null","","images/schematic_sequence/dinner_party_scheme/dinner_party_scheme_2.png","null","",""
"","","","","","image-button-response","38","417988","0.0-10.0-1.0-1.4","164CFCF7AA2142BF8E980A3E25CC6FE4","164CFCF7AA2142BF8E980A3E25CC6FE4","aa80b3d9-95b2-4f8a-b67a-c5cb8818e738","5e631737-0fa4-44a6-b227-7ba1d7345015","{""num_scrambled_semantic"":""8"",""num_scrambled_causal"":""4"",""num_scrambled_schematic"":""4"",""participantId"":""164CFCF7AA2142BF8E980A3E25CC6FE4"",""assignmentId"":""aa80b3d9-95b2-4f8a-b67a-c5cb8818e738"",""projectId"":""5e631737-0fa4-44a6-b227-7ba1d7345015""}","https://test12345.live/?num_scrambled_semantic=8&num_scrambled_causal=4&num_scrambled_schematic=4&participantId=164CFCF7AA2142BF8E980A3E25CC6FE4&assignmentId=aa80b3d9-95b2-4f8a-b67a-c5cb8818e738&projectId=5e631737-0fa4-44a6-b227-7ba1d7345015","164CFCF7AA2142BF8E980A3E25CC6FE4-2025-05-27-18-35-25","","2379","","images/schematic_sequence/dinner_party_scheme/dinner_party_scheme_2.png","1","",""
"","","","","","image-button-response","39","419801","0.0-10.0-1.0-2.4","164CFCF7AA2142BF8E980A3E25CC6FE4","164CFCF7AA2142BF8E980A3E25CC6FE4","aa80b3d9-95b2-4f8a-b67a-c5cb8818e738","5e631737-0fa4-44a6-b227-7ba1d7345015","{""num_scrambled_semantic"":""8"",""num_scrambled_causal"":""4"",""num_scrambled_schematic"":""4"",""participantId"":""164CFCF7AA2142BF8E980A3E25CC6FE4"",""assignmentId"":""aa80b3d9-95b2-4f8a-b67a-c5cb8818e738"",""projectId"":""5e631737-0fa4-44a6-b227-7ba1d7345015""}","https://test12345.live/?num_scrambled_semantic=8&num_scrambled_causal=4&num_scrambled_schematic=4&participantId=164CFCF7AA2142BF8E980A3E25CC6FE4&assignmentId=aa80b3d9-95b2-4f8a-b67a-c5cb8818e738&projectId=5e631737-0fa4-44a6-b227-7ba1d7345015","164CFCF7AA2142BF8E980A3E25CC6FE4-2025-05-27-18-35-25","","null","","[]","null","",""
"","","","","","image-button-response","40","424309","0.0-10.0-1.0-0.5","164CFCF7AA2142BF8E980A3E25CC6FE4","164CFCF7AA2142BF8E980A3E25CC6FE4","aa80b3d9-95b2-4f8a-b67a-c5cb8818e738","5e631737-0fa4-44a6-b227-7ba1d7345015","{""num_scrambled_semantic"":""8"",""num_scrambled_causal"":""4"",""num_scrambled_schematic"":""4"",""participantId"":""164CFCF7AA2142BF8E980A3E25CC6FE4"",""assignmentId"":""aa80b3d9-95b2-4f8a-b67a-c5cb8818e738"",""projectId"":""5e631737-0fa4-44a6-b227-7ba1d7345015""}","https://test12345.live/?num_scrambled_semantic=8&num_scrambled_causal=4&num_scrambled_schematic=4&participantId=164CFCF7AA2142BF8E980A3E25CC6FE4&assignmentId=aa80b3d9-95b2-4f8a-b67a-c5cb8818e738&projectId=5e631737-0fa4-44a6-b227-7ba1d7345015","164CFCF7AA2142BF8E980A3E25CC6FE4-2025-05-27-18-35-25","","null","","images/schematic_sequence/dinner_party_scheme/dinner_party_scheme_8.png","null","",""
"","","","","","image-button-response","41","425246","0.0-10.0-1.0-1.5","164CFCF7AA2142BF8E980A3E25CC6FE4","164CFCF7AA2142BF8E980A3E25CC6FE4","aa80b3d9-95b2-4f8a-b67a-c5cb8818e738","5e631737-0fa4-44a6-b227-7ba1d7345015","{""num_scrambled_semantic"":""8"",""num_scrambled_causal"":""4"",""num_scrambled_schematic"":""4"",""participantId"":""164CFCF7AA2142BF8E980A3E25CC6FE4"",""assignmentId"":""aa80b3d9-95b2-4f8a-b67a-c5cb8818e738"",""projectId"":""5e631737-0fa4-44a6-b227-7ba1d7345015""}","https://test12345.live/?num_scrambled_semantic=8&num_scrambled_causal=4&num_scrambled_schematic=4&participantId=164CFCF7AA2142BF8E980A3E25CC6FE4&assignmentId=aa80b3d9-95b2-4f8a-b67a-c5cb8818e738&projectId=5e631737-0fa4-44a6-b227-7ba1d7345015","164CFCF7AA2142BF8E980A3E25CC6FE4-2025-05-27-18-35-25","","935","","images/schematic_sequence/dinner_party_scheme/dinner_party_scheme_8.png","0","",""
"","","","","","image-button-response","42","427049","0.0-10.0-1.0-2.5","164CFCF7AA2142BF8E980A3E25CC6FE4","164CFCF7AA2142BF8E980A3E25CC6FE4","aa80b3d9-95b2-4f8a-b67a-c5cb8818e738","5e631737-0fa4-44a6-b227-7ba1d7345015","{""num_scrambled_semantic"":""8"",""num_scrambled_causal"":""4"",""num_scrambled_schematic"":""4"",""participantId"":""164CFCF7AA2142BF8E980A3E25CC6FE4"",""assignmentId"":""aa80b3d9-95b2-4f8a-b67a-c5cb8818e738"",""projectId"":""5e631737-0fa4-44a6-b227-7ba1d7345015""}","https://test12345.live/?num_scrambled_semantic=8&num_scrambled_causal=4&num_scrambled_schematic=4&participantId=164CFCF7AA2142BF8E980A3E25CC6FE4&assignmentId=aa80b3d9-95b2-4f8a-b67a-c5cb8818e738&projectId=5e631737-0fa4-44a6-b227-7ba1d7345015","164CFCF7AA2142BF8E980A3E25CC6FE4-2025-05-27-18-35-25","","null","","[]","null","",""
"","","","","","image-button-response","43","431551","0.0-10.0-1.0-0.6","164CFCF7AA2142BF8E980A3E25CC6FE4","164CFCF7AA2142BF8E980A3E25CC6FE4","aa80b3d9-95b2-4f8a-b67a-c5cb8818e738","5e631737-0fa4-44a6-b227-7ba1d7345015","{""num_scrambled_semantic"":""8"",""num_scrambled_causal"":""4"",""num_scrambled_schematic"":""4"",""participantId"":""164CFCF7AA2142BF8E980A3E25CC6FE4"",""assignmentId"":""aa80b3d9-95b2-4f8a-b67a-c5cb8818e738"",""projectId"":""5e631737-0fa4-44a6-b227-7ba1d7345015""}","https://test12345.live/?num_scrambled_semantic=8&num_scrambled_causal=4&num_scrambled_schematic=4&participantId=164CFCF7AA2142BF8E980A3E25CC6FE4&assignmentId=aa80b3d9-95b2-4f8a-b67a-c5cb8818e738&projectId=5e631737-0fa4-44a6-b227-7ba1d7345015","164CFCF7AA2142BF8E980A3E25CC6FE4-2025-05-27-18-35-25","","null","","images/schematic_sequence/dinner_party_scheme/dinner_party_scheme_1.png","null","",""
"","","","","","image-button-response","44","433215","0.0-10.0-1.0-1.6","164CFCF7AA2142BF8E980A3E25CC6FE4","164CFCF7AA2142BF8E980A3E25CC6FE4","aa80b3d9-95b2-4f8a-b67a-c5cb8818e738","5e631737-0fa4-44a6-b227-7ba1d7345015","{""num_scrambled_semantic"":""8"",""num_scrambled_causal"":""4"",""num_scrambled_schematic"":""4"",""participantId"":""164CFCF7AA2142BF8E980A3E25CC6FE4"",""assignmentId"":""aa80b3d9-95b2-4f8a-b67a-c5cb8818e738"",""projectId"":""5e631737-0fa4-44a6-b227-7ba1d7345015""}","https://test12345.live/?num_scrambled_semantic=8&num_scrambled_causal=4&num_scrambled_schematic=4&participantId=164CFCF7AA2142BF8E980A3E25CC6FE4&assignmentId=aa80b3d9-95b2-4f8a-b67a-c5cb8818e738&projectId=5e631737-0fa4-44a6-b227-7ba1d7345015","164CFCF7AA2142BF8E980A3E25CC6FE4-2025-05-27-18-35-25","","1662","","images/schematic_sequence/dinner_party_scheme/dinner_party_scheme_1.png","0","",""
"","","","","","image-button-response","45","435017","0.0-10.0-1.0-2.6","164CFCF7AA2142BF8E980A3E25CC6FE4","164CFCF7AA2142BF8E980A3E25CC6FE4","aa80b3d9-95b2-4f8a-b67a-c5cb8818e738","5e631737-0fa4-44a6-b227-7ba1d7345015","{""num_scrambled_semantic"":""8"",""num_scrambled_causal"":""4"",""num_scrambled_schematic"":""4"",""participantId"":""164CFCF7AA2142BF8E980A3E25CC6FE4"",""assignmentId"":""aa80b3d9-95b2-4f8a-b67a-c5cb8818e738"",""projectId"":""5e631737-0fa4-44a6-b227-7ba1d7345015""}","https://test12345.live/?num_scrambled_semantic=8&num_scrambled_causal=4&num_scrambled_schematic=4&participantId=164CFCF7AA2142BF8E980A3E25CC6FE4&assignmentId=aa80b3d9-95b2-4f8a-b67a-c5cb8818e738&projectId=5e631737-0fa4-44a6-b227-7ba1d7345015","164CFCF7AA2142BF8E980A3E25CC6FE4-2025-05-27-18-35-25","","null","","[]","null","",""
"","","","","","image-button-response","46","439518","0.0-10.0-1.0-0.7","164CFCF7AA2142BF8E980A3E25CC6FE4","164CFCF7AA2142BF8E980A3E25CC6FE4","aa80b3d9-95b2-4f8a-b67a-c5cb8818e738","5e631737-0fa4-44a6-b227-7ba1d7345015","{""num_scrambled_semantic"":""8"",""num_scrambled_causal"":""4"",""num_scrambled_schematic"":""4"",""participantId"":""164CFCF7AA2142BF8E980A3E25CC6FE4"",""assignmentId"":""aa80b3d9-95b2-4f8a-b67a-c5cb8818e738"",""projectId"":""5e631737-0fa4-44a6-b227-7ba1d7345015""}","https://test12345.live/?num_scrambled_semantic=8&num_scrambled_causal=4&num_scrambled_schematic=4&participantId=164CFCF7AA2142BF8E980A3E25CC6FE4&assignmentId=aa80b3d9-95b2-4f8a-b67a-c5cb8818e738&projectId=5e631737-0fa4-44a6-b227-7ba1d7345015","164CFCF7AA2142BF8E980A3E25CC6FE4-2025-05-27-18-35-25","","null","","images/schematic_sequence/dinner_party_scheme/dinner_party_scheme_7.png","null","",""
"","","","","","image-button-response","47","442168","0.0-10.0-1.0-1.7","164CFCF7AA2142BF8E980A3E25CC6FE4","164CFCF7AA2142BF8E980A3E25CC6FE4","aa80b3d9-95b2-4f8a-b67a-c5cb8818e738","5e631737-0fa4-44a6-b227-7ba1d7345015","{""num_scrambled_semantic"":""8"",""num_scrambled_causal"":""4"",""num_scrambled_schematic"":""4"",""participantId"":""164CFCF7AA2142BF8E980A3E25CC6FE4"",""assignmentId"":""aa80b3d9-95b2-4f8a-b67a-c5cb8818e738"",""projectId"":""5e631737-0fa4-44a6-b227-7ba1d7345015""}","https://test12345.live/?num_scrambled_semantic=8&num_scrambled_causal=4&num_scrambled_schematic=4&participantId=164CFCF7AA2142BF8E980A3E25CC6FE4&assignmentId=aa80b3d9-95b2-4f8a-b67a-c5cb8818e738&projectId=5e631737-0fa4-44a6-b227-7ba1d7345015","164CFCF7AA2142BF8E980A3E25CC6FE4-2025-05-27-18-35-25","","2648","","images/schematic_sequence/dinner_party_scheme/dinner_party_scheme_7.png","0","",""
"","","","","","image-button-response","48","443984","0.0-10.0-1.0-2.7","164CFCF7AA2142BF8E980A3E25CC6FE4","164CFCF7AA2142BF8E980A3E25CC6FE4","aa80b3d9-95b2-4f8a-b67a-c5cb8818e738","5e631737-0fa4-44a6-b227-7ba1d7345015","{""num_scrambled_semantic"":""8"",""num_scrambled_causal"":""4"",""num_scrambled_schematic"":""4"",""participantId"":""164CFCF7AA2142BF8E980A3E25CC6FE4"",""assignmentId"":""aa80b3d9-95b2-4f8a-b67a-c5cb8818e738"",""projectId"":""5e631737-0fa4-44a6-b227-7ba1d7345015""}","https://test12345.live/?num_scrambled_semantic=8&num_scrambled_causal=4&num_scrambled_schematic=4&participantId=164CFCF7AA2142BF8E980A3E25CC6FE4&assignmentId=aa80b3d9-95b2-4f8a-b67a-c5cb8818e738&projectId=5e631737-0fa4-44a6-b227-7ba1d7345015","164CFCF7AA2142BF8E980A3E25CC6FE4-2025-05-27-18-35-25","","null","","[]","null","",""
"","","","","","image-button-response","49","448487","0.0-10.0-1.0-0.8","164CFCF7AA2142BF8E980A3E25CC6FE4","164CFCF7AA2142BF8E980A3E25CC6FE4","aa80b3d9-95b2-4f8a-b67a-c5cb8818e738","5e631737-0fa4-44a6-b227-7ba1d7345015","{""num_scrambled_semantic"":""8"",""num_scrambled_causal"":""4"",""num_scrambled_schematic"":""4"",""participantId"":""164CFCF7AA2142BF8E980A3E25CC6FE4"",""assignmentId"":""aa80b3d9-95b2-4f8a-b67a-c5cb8818e738"",""projectId"":""5e631737-0fa4-44a6-b227-7ba1d7345015""}","https://test12345.live/?num_scrambled_semantic=8&num_scrambled_causal=4&num_scrambled_schematic=4&participantId=164CFCF7AA2142BF8E980A3E25CC6FE4&assignmentId=aa80b3d9-95b2-4f8a-b67a-c5cb8818e738&projectId=5e631737-0fa4-44a6-b227-7ba1d7345015","164CFCF7AA2142BF8E980A3E25CC6FE4-2025-05-27-18-35-25","","null","","images/schematic_sequence/dinner_party_scheme/dinner_party_scheme_9.png","null","",""
"","","","","","image-button-response","50","449413","0.0-10.0-1.0-1.8","164CFCF7AA2142BF8E980A3E25CC6FE4","164CFCF7AA2142BF8E980A3E25CC6FE4","aa80b3d9-95b2-4f8a-b67a-c5cb8818e738","5e631737-0fa4-44a6-b227-7ba1d7345015","{""num_scrambled_semantic"":""8"",""num_scrambled_causal"":""4"",""num_scrambled_schematic"":""4"",""participantId"":""164CFCF7AA2142BF8E980A3E25CC6FE4"",""assignmentId"":""aa80b3d9-95b2-4f8a-b67a-c5cb8818e738"",""projectId"":""5e631737-0fa4-44a6-b227-7ba1d7345015""}","https://test12345.live/?num_scrambled_semantic=8&num_scrambled_causal=4&num_scrambled_schematic=4&participantId=164CFCF7AA2142BF8E980A3E25CC6FE4&assignmentId=aa80b3d9-95b2-4f8a-b67a-c5cb8818e738&projectId=5e631737-0fa4-44a6-b227-7ba1d7345015","164CFCF7AA2142BF8E980A3E25CC6FE4-2025-05-27-18-35-25","","926","","images/schematic_sequence/dinner_party_scheme/dinner_party_scheme_9.png","0","",""
"","","","","","image-button-response","51","451219","0.0-10.0-1.0-2.8","164CFCF7AA2142BF8E980A3E25CC6FE4","164CFCF7AA2142BF8E980A3E25CC6FE4","aa80b3d9-95b2-4f8a-b67a-c5cb8818e738","5e631737-0fa4-44a6-b227-7ba1d7345015","{""num_scrambled_semantic"":""8"",""num_scrambled_causal"":""4"",""num_scrambled_schematic"":""4"",""participantId"":""164CFCF7AA2142BF8E980A3E25CC6FE4"",""assignmentId"":""aa80b3d9-95b2-4f8a-b67a-c5cb8818e738"",""projectId"":""5e631737-0fa4-44a6-b227-7ba1d7345015""}","https://test12345.live/?num_scrambled_semantic=8&num_scrambled_causal=4&num_scrambled_schematic=4&participantId=164CFCF7AA2142BF8E980A3E25CC6FE4&assignmentId=aa80b3d9-95b2-4f8a-b67a-c5cb8818e738&projectId=5e631737-0fa4-44a6-b227-7ba1d7345015","164CFCF7AA2142BF8E980A3E25CC6FE4-2025-05-27-18-35-25","","null","","[]","null","",""
"","","","","","image-button-response","52","455720","0.0-10.0-1.0-0.9","164CFCF7AA2142BF8E980A3E25CC6FE4","164CFCF7AA2142BF8E980A3E25CC6FE4","aa80b3d9-95b2-4f8a-b67a-c5cb8818e738","5e631737-0fa4-44a6-b227-7ba1d7345015","{""num_scrambled_semantic"":""8"",""num_scrambled_causal"":""4"",""num_scrambled_schematic"":""4"",""participantId"":""164CFCF7AA2142BF8E980A3E25CC6FE4"",""assignmentId"":""aa80b3d9-95b2-4f8a-b67a-c5cb8818e738"",""projectId"":""5e631737-0fa4-44a6-b227-7ba1d7345015""}","https://test12345.live/?num_scrambled_semantic=8&num_scrambled_causal=4&num_scrambled_schematic=4&participantId=164CFCF7AA2142BF8E980A3E25CC6FE4&assignmentId=aa80b3d9-95b2-4f8a-b67a-c5cb8818e738&projectId=5e631737-0fa4-44a6-b227-7ba1d7345015","164CFCF7AA2142BF8E980A3E25CC6FE4-2025-05-27-18-35-25","","null","","images/schematic_sequence/dinner_party_scheme/dinner_party_scheme_5.png","null","",""
"","","","","","image-button-response","53","456366","0.0-10.0-1.0-1.9","164CFCF7AA2142BF8E980A3E25CC6FE4","164CFCF7AA2142BF8E980A3E25CC6FE4","aa80b3d9-95b2-4f8a-b67a-c5cb8818e738","5e631737-0fa4-44a6-b227-7ba1d7345015","{""num_scrambled_semantic"":""8"",""num_scrambled_causal"":""4"",""num_scrambled_schematic"":""4"",""participantId"":""164CFCF7AA2142BF8E980A3E25CC6FE4"",""assignmentId"":""aa80b3d9-95b2-4f8a-b67a-c5cb8818e738"",""projectId"":""5e631737-0fa4-44a6-b227-7ba1d7345015""}","https://test12345.live/?num_scrambled_semantic=8&num_scrambled_causal=4&num_scrambled_schematic=4&participantId=164CFCF7AA2142BF8E980A3E25CC6FE4&assignmentId=aa80b3d9-95b2-4f8a-b67a-c5cb8818e738&projectId=5e631737-0fa4-44a6-b227-7ba1d7345015","164CFCF7AA2142BF8E980A3E25CC6FE4-2025-05-27-18-35-25","","644","","images/schematic_sequence/dinner_party_scheme/dinner_party_scheme_5.png","0","",""
"","","","","","image-button-response","54","458175","0.0-10.0-1.0-2.9","164CFCF7AA2142BF8E980A3E25CC6FE4","164CFCF7AA2142BF8E980A3E25CC6FE4","aa80b3d9-95b2-4f8a-b67a-c5cb8818e738","5e631737-0fa4-44a6-b227-7ba1d7345015","{""num_scrambled_semantic"":""8"",""num_scrambled_causal"":""4"",""num_scrambled_schematic"":""4"",""participantId"":""164CFCF7AA2142BF8E980A3E25CC6FE4"",""assignmentId"":""aa80b3d9-95b2-4f8a-b67a-c5cb8818e738"",""projectId"":""5e631737-0fa4-44a6-b227-7ba1d7345015""}","https://test12345.live/?num_scrambled_semantic=8&num_scrambled_causal=4&num_scrambled_schematic=4&participantId=164CFCF7AA2142BF8E980A3E25CC6FE4&assignmentId=aa80b3d9-95b2-4f8a-b67a-c5cb8818e738&projectId=5e631737-0fa4-44a6-b227-7ba1d7345015","164CFCF7AA2142BF8E980A3E25CC6FE4-2025-05-27-18-35-25","","null","","[]","null","",""
"","","","","","html-audio-response","55","488181","0.0-11.0","164CFCF7AA2142BF8E980A3E25CC6FE4","164CFCF7AA2142BF8E980A3E25CC6FE4","aa80b3d9-95b2-4f8a-b67a-c5cb8818e738","5e631737-0fa4-44a6-b227-7ba1d7345015","{""num_scrambled_semantic"":""8"",""num_scrambled_causal"":""4"",""num_scrambled_schematic"":""4"",""participantId"":""164CFCF7AA2142BF8E980A3E25CC6FE4"",""assignmentId"":""aa80b3d9-95b2-4f8a-b67a-c5cb8818e738"",""projectId"":""5e631737-0fa4-44a6-b227-7ba1d7345015""}","https://test12345.live/?num_scrambled_semantic=8&num_scrambled_causal=4&num_scrambled_schematic=4&participantId=164CFCF7AA2142BF8E980A3E25CC6FE4&assignmentId=aa80b3d9-95b2-4f8a-b67a-c5cb8818e738&projectId=5e631737-0fa4-44a6-b227-7ba1d7345015","164CFCF7AA2142BF8E980A3E25CC6FE4-2025-05-27-18-35-25","","25682","","[""<span style=\""color: red; font-size: 24px\""> NOW RECORDING</span><p>Please say out loud all the images you saw, in the exact order you saw them. Try to recall as many images as you can, but remember: getting the order right is more important than the number of images you recall.</p>""]","","7","dinner_party_scheme"
"","","","","","image-button-response","56","494196","0.0-12.0-0.0","164CFCF7AA2142BF8E980A3E25CC6FE4","164CFCF7AA2142BF8E980A3E25CC6FE4","aa80b3d9-95b2-4f8a-b67a-c5cb8818e738","5e631737-0fa4-44a6-b227-7ba1d7345015","{""num_scrambled_semantic"":""8"",""num_scrambled_causal"":""4"",""num_scrambled_schematic"":""4"",""participantId"":""164CFCF7AA2142BF8E980A3E25CC6FE4"",""assignmentId"":""aa80b3d9-95b2-4f8a-b67a-c5cb8818e738"",""projectId"":""5e631737-0fa4-44a6-b227-7ba1d7345015""}","https://test12345.live/?num_scrambled_semantic=8&num_scrambled_causal=4&num_scrambled_schematic=4&participantId=164CFCF7AA2142BF8E980A3E25CC6FE4&assignmentId=aa80b3d9-95b2-4f8a-b67a-c5cb8818e738&projectId=5e631737-0fa4-44a6-b227-7ba1d7345015","164CFCF7AA2142BF8E980A3E25CC6FE4-2025-05-27-18-35-25","","null","","images/schematic_sequence/restaurant_scheme/restaurant_scheme_0.png","null","",""
"","","","","","image-button-response","57","498698","0.0-12.0-1.0-0.0","164CFCF7AA2142BF8E980A3E25CC6FE4","164CFCF7AA2142BF8E980A3E25CC6FE4","aa80b3d9-95b2-4f8a-b67a-c5cb8818e738","5e631737-0fa4-44a6-b227-7ba1d7345015","{""num_scrambled_semantic"":""8"",""num_scrambled_causal"":""4"",""num_scrambled_schematic"":""4"",""participantId"":""164CFCF7AA2142BF8E980A3E25CC6FE4"",""assignmentId"":""aa80b3d9-95b2-4f8a-b67a-c5cb8818e738"",""projectId"":""5e631737-0fa4-44a6-b227-7ba1d7345015""}","https://test12345.live/?num_scrambled_semantic=8&num_scrambled_causal=4&num_scrambled_schematic=4&participantId=164CFCF7AA2142BF8E980A3E25CC6FE4&assignmentId=aa80b3d9-95b2-4f8a-b67a-c5cb8818e738&projectId=5e631737-0fa4-44a6-b227-7ba1d7345015","164CFCF7AA2142BF8E980A3E25CC6FE4-2025-05-27-18-35-25","","null","","images/schematic_sequence/restaurant_scheme/restaurant_scheme_7.png","null","",""
"","","","","","image-button-response","58","501246","0.0-12.0-1.0-1.0","164CFCF7AA2142BF8E980A3E25CC6FE4","164CFCF7AA2142BF8E980A3E25CC6FE4","aa80b3d9-95b2-4f8a-b67a-c5cb8818e738","5e631737-0fa4-44a6-b227-7ba1d7345015","{""num_scrambled_semantic"":""8"",""num_scrambled_causal"":""4"",""num_scrambled_schematic"":""4"",""participantId"":""164CFCF7AA2142BF8E980A3E25CC6FE4"",""assignmentId"":""aa80b3d9-95b2-4f8a-b67a-c5cb8818e738"",""projectId"":""5e631737-0fa4-44a6-b227-7ba1d7345015""}","https://test12345.live/?num_scrambled_semantic=8&num_scrambled_causal=4&num_scrambled_schematic=4&participantId=164CFCF7AA2142BF8E980A3E25CC6FE4&assignmentId=aa80b3d9-95b2-4f8a-b67a-c5cb8818e738&projectId=5e631737-0fa4-44a6-b227-7ba1d7345015","164CFCF7AA2142BF8E980A3E25CC6FE4-2025-05-27-18-35-25","","2548","","images/schematic_sequence/restaurant_scheme/restaurant_scheme_7.png","1","",""
"","","","","","image-button-response","59","503060","0.0-12.0-1.0-2.0","164CFCF7AA2142BF8E980A3E25CC6FE4","164CFCF7AA2142BF8E980A3E25CC6FE4","aa80b3d9-95b2-4f8a-b67a-c5cb8818e738","5e631737-0fa4-44a6-b227-7ba1d7345015","{""num_scrambled_semantic"":""8"",""num_scrambled_causal"":""4"",""num_scrambled_schematic"":""4"",""participantId"":""164CFCF7AA2142BF8E980A3E25CC6FE4"",""assignmentId"":""aa80b3d9-95b2-4f8a-b67a-c5cb8818e738"",""projectId"":""5e631737-0fa4-44a6-b227-7ba1d7345015""}","https://test12345.live/?num_scrambled_semantic=8&num_scrambled_causal=4&num_scrambled_schematic=4&participantId=164CFCF7AA2142BF8E980A3E25CC6FE4&assignmentId=aa80b3d9-95b2-4f8a-b67a-c5cb8818e738&projectId=5e631737-0fa4-44a6-b227-7ba1d7345015","164CFCF7AA2142BF8E980A3E25CC6FE4-2025-05-27-18-35-25","","null","","[]","null","",""
"","","","","","image-button-response","60","507567","0.0-12.0-1.0-0.1","164CFCF7AA2142BF8E980A3E25CC6FE4","164CFCF7AA2142BF8E980A3E25CC6FE4","aa80b3d9-95b2-4f8a-b67a-c5cb8818e738","5e631737-0fa4-44a6-b227-7ba1d7345015","{""num_scrambled_semantic"":""8"",""num_scrambled_causal"":""4"",""num_scrambled_schematic"":""4"",""participantId"":""164CFCF7AA2142BF8E980A3E25CC6FE4"",""assignmentId"":""aa80b3d9-95b2-4f8a-b67a-c5cb8818e738"",""projectId"":""5e631737-0fa4-44a6-b227-7ba1d7345015""}","https://test12345.live/?num_scrambled_semantic=8&num_scrambled_causal=4&num_scrambled_schematic=4&participantId=164CFCF7AA2142BF8E980A3E25CC6FE4&assignmentId=aa80b3d9-95b2-4f8a-b67a-c5cb8818e738&projectId=5e631737-0fa4-44a6-b227-7ba1d7345015","164CFCF7AA2142BF8E980A3E25CC6FE4-2025-05-27-18-35-25","","null","","images/schematic_sequence/restaurant_scheme/restaurant_scheme_4.png","null","",""
"","","","","","image-button-response","61","508861","0.0-12.0-1.0-1.1","164CFCF7AA2142BF8E980A3E25CC6FE4","164CFCF7AA2142BF8E980A3E25CC6FE4","aa80b3d9-95b2-4f8a-b67a-c5cb8818e738","5e631737-0fa4-44a6-b227-7ba1d7345015","{""num_scrambled_semantic"":""8"",""num_scrambled_causal"":""4"",""num_scrambled_schematic"":""4"",""participantId"":""164CFCF7AA2142BF8E980A3E25CC6FE4"",""assignmentId"":""aa80b3d9-95b2-4f8a-b67a-c5cb8818e738"",""projectId"":""5e631737-0fa4-44a6-b227-7ba1d7345015""}","https://test12345.live/?num_scrambled_semantic=8&num_scrambled_causal=4&num_scrambled_schematic=4&participantId=164CFCF7AA2142BF8E980A3E25CC6FE4&assignmentId=aa80b3d9-95b2-4f8a-b67a-c5cb8818e738&projectId=5e631737-0fa4-44a6-b227-7ba1d7345015","164CFCF7AA2142BF8E980A3E25CC6FE4-2025-05-27-18-35-25","","1293","","images/schematic_sequence/restaurant_scheme/restaurant_scheme_4.png","0","",""
"","","","","","image-button-response","62","510676","0.0-12.0-1.0-2.1","164CFCF7AA2142BF8E980A3E25CC6FE4","164CFCF7AA2142BF8E980A3E25CC6FE4","aa80b3d9-95b2-4f8a-b67a-c5cb8818e738","5e631737-0fa4-44a6-b227-7ba1d7345015","{""num_scrambled_semantic"":""8"",""num_scrambled_causal"":""4"",""num_scrambled_schematic"":""4"",""participantId"":""164CFCF7AA2142BF8E980A3E25CC6FE4"",""assignmentId"":""aa80b3d9-95b2-4f8a-b67a-c5cb8818e738"",""projectId"":""5e631737-0fa4-44a6-b227-7ba1d7345015""}","https://test12345.live/?num_scrambled_semantic=8&num_scrambled_causal=4&num_scrambled_schematic=4&participantId=164CFCF7AA2142BF8E980A3E25CC6FE4&assignmentId=aa80b3d9-95b2-4f8a-b67a-c5cb8818e738&projectId=5e631737-0fa4-44a6-b227-7ba1d7345015","164CFCF7AA2142BF8E980A3E25CC6FE4-2025-05-27-18-35-25","","null","","[]","null","",""
"","","","","","image-button-response","63","515180","0.0-12.0-1.0-0.2","164CFCF7AA2142BF8E980A3E25CC6FE4","164CFCF7AA2142BF8E980A3E25CC6FE4","aa80b3d9-95b2-4f8a-b67a-c5cb8818e738","5e631737-0fa4-44a6-b227-7ba1d7345015","{""num_scrambled_semantic"":""8"",""num_scrambled_causal"":""4"",""num_scrambled_schematic"":""4"",""participantId"":""164CFCF7AA2142BF8E980A3E25CC6FE4"",""assignmentId"":""aa80b3d9-95b2-4f8a-b67a-c5cb8818e738"",""projectId"":""5e631737-0fa4-44a6-b227-7ba1d7345015""}","https://test12345.live/?num_scrambled_semantic=8&num_scrambled_causal=4&num_scrambled_schematic=4&participantId=164CFCF7AA2142BF8E980A3E25CC6FE4&assignmentId=aa80b3d9-95b2-4f8a-b67a-c5cb8818e738&projectId=5e631737-0fa4-44a6-b227-7ba1d7345015","164CFCF7AA2142BF8E980A3E25CC6FE4-2025-05-27-18-35-25","","null","","images/schematic_sequence/restaurant_scheme/restaurant_scheme_5.png","null","",""
"","","","","","image-button-response","64","517084","0.0-12.0-1.0-1.2","164CFCF7AA2142BF8E980A3E25CC6FE4","164CFCF7AA2142BF8E980A3E25CC6FE4","aa80b3d9-95b2-4f8a-b67a-c5cb8818e738","5e631737-0fa4-44a6-b227-7ba1d7345015","{""num_scrambled_semantic"":""8"",""num_scrambled_causal"":""4"",""num_scrambled_schematic"":""4"",""participantId"":""164CFCF7AA2142BF8E980A3E25CC6FE4"",""assignmentId"":""aa80b3d9-95b2-4f8a-b67a-c5cb8818e738"",""projectId"":""5e631737-0fa4-44a6-b227-7ba1d7345015""}","https://test12345.live/?num_scrambled_semantic=8&num_scrambled_causal=4&num_scrambled_schematic=4&participantId=164CFCF7AA2142BF8E980A3E25CC6FE4&assignmentId=aa80b3d9-95b2-4f8a-b67a-c5cb8818e738&projectId=5e631737-0fa4-44a6-b227-7ba1d7345015","164CFCF7AA2142BF8E980A3E25CC6FE4-2025-05-27-18-35-25","","1902","","images/schematic_sequence/restaurant_scheme/restaurant_scheme_5.png","0","",""
"","","","","","image-button-response","65","518892","0.0-12.0-1.0-2.2","164CFCF7AA2142BF8E980A3E25CC6FE4","164CFCF7AA2142BF8E980A3E25CC6FE4","aa80b3d9-95b2-4f8a-b67a-c5cb8818e738","5e631737-0fa4-44a6-b227-7ba1d7345015","{""num_scrambled_semantic"":""8"",""num_scrambled_causal"":""4"",""num_scrambled_schematic"":""4"",""participantId"":""164CFCF7AA2142BF8E980A3E25CC6FE4"",""assignmentId"":""aa80b3d9-95b2-4f8a-b67a-c5cb8818e738"",""projectId"":""5e631737-0fa4-44a6-b227-7ba1d7345015""}","https://test12345.live/?num_scrambled_semantic=8&num_scrambled_causal=4&num_scrambled_schematic=4&participantId=164CFCF7AA2142BF8E980A3E25CC6FE4&assignmentId=aa80b3d9-95b2-4f8a-b67a-c5cb8818e738&projectId=5e631737-0fa4-44a6-b227-7ba1d7345015","164CFCF7AA2142BF8E980A3E25CC6FE4-2025-05-27-18-35-25","","null","","[]","null","",""
"","","","","","image-button-response","66","523400","0.0-12.0-1.0-0.3","164CFCF7AA2142BF8E980A3E25CC6FE4","164CFCF7AA2142BF8E980A3E25CC6FE4","aa80b3d9-95b2-4f8a-b67a-c5cb8818e738","5e631737-0fa4-44a6-b227-7ba1d7345015","{""num_scrambled_semantic"":""8"",""num_scrambled_causal"":""4"",""num_scrambled_schematic"":""4"",""participantId"":""164CFCF7AA2142BF8E980A3E25CC6FE4"",""assignmentId"":""aa80b3d9-95b2-4f8a-b67a-c5cb8818e738"",""projectId"":""5e631737-0fa4-44a6-b227-7ba1d7345015""}","https://test12345.live/?num_scrambled_semantic=8&num_scrambled_causal=4&num_scrambled_schematic=4&participantId=164CFCF7AA2142BF8E980A3E25CC6FE4&assignmentId=aa80b3d9-95b2-4f8a-b67a-c5cb8818e738&projectId=5e631737-0fa4-44a6-b227-7ba1d7345015","164CFCF7AA2142BF8E980A3E25CC6FE4-2025-05-27-18-35-25","","null","","images/schematic_sequence/restaurant_scheme/restaurant_scheme_ten.png","null","",""
"","","","","","image-button-response","67","526037","0.0-12.0-1.0-1.3","164CFCF7AA2142BF8E980A3E25CC6FE4","164CFCF7AA2142BF8E980A3E25CC6FE4","aa80b3d9-95b2-4f8a-b67a-c5cb8818e738","5e631737-0fa4-44a6-b227-7ba1d7345015","{""num_scrambled_semantic"":""8"",""num_scrambled_causal"":""4"",""num_scrambled_schematic"":""4"",""participantId"":""164CFCF7AA2142BF8E980A3E25CC6FE4"",""assignmentId"":""aa80b3d9-95b2-4f8a-b67a-c5cb8818e738"",""projectId"":""5e631737-0fa4-44a6-b227-7ba1d7345015""}","https://test12345.live/?num_scrambled_semantic=8&num_scrambled_causal=4&num_scrambled_schematic=4&participantId=164CFCF7AA2142BF8E980A3E25CC6FE4&assignmentId=aa80b3d9-95b2-4f8a-b67a-c5cb8818e738&projectId=5e631737-0fa4-44a6-b227-7ba1d7345015","164CFCF7AA2142BF8E980A3E25CC6FE4-2025-05-27-18-35-25","","2637","","images/schematic_sequence/restaurant_scheme/restaurant_scheme_ten.png","0","",""
"","","","","","image-button-response","68","527853","0.0-12.0-1.0-2.3","164CFCF7AA2142BF8E980A3E25CC6FE4","164CFCF7AA2142BF8E980A3E25CC6FE4","aa80b3d9-95b2-4f8a-b67a-c5cb8818e738","5e631737-0fa4-44a6-b227-7ba1d7345015","{""num_scrambled_semantic"":""8"",""num_scrambled_causal"":""4"",""num_scrambled_schematic"":""4"",""participantId"":""164CFCF7AA2142BF8E980A3E25CC6FE4"",""assignmentId"":""aa80b3d9-95b2-4f8a-b67a-c5cb8818e738"",""projectId"":""5e631737-0fa4-44a6-b227-7ba1d7345015""}","https://test12345.live/?num_scrambled_semantic=8&num_scrambled_causal=4&num_scrambled_schematic=4&participantId=164CFCF7AA2142BF8E980A3E25CC6FE4&assignmentId=aa80b3d9-95b2-4f8a-b67a-c5cb8818e738&projectId=5e631737-0fa4-44a6-b227-7ba1d7345015","164CFCF7AA2142BF8E980A3E25CC6FE4-2025-05-27-18-35-25","","null","","[]","null","",""
"","","","","","image-button-response","69","532363","0.0-12.0-1.0-0.4","164CFCF7AA2142BF8E980A3E25CC6FE4","164CFCF7AA2142BF8E980A3E25CC6FE4","aa80b3d9-95b2-4f8a-b67a-c5cb8818e738","5e631737-0fa4-44a6-b227-7ba1d7345015","{""num_scrambled_semantic"":""8"",""num_scrambled_causal"":""4"",""num_scrambled_schematic"":""4"",""participantId"":""164CFCF7AA2142BF8E980A3E25CC6FE4"",""assignmentId"":""aa80b3d9-95b2-4f8a-b67a-c5cb8818e738"",""projectId"":""5e631737-0fa4-44a6-b227-7ba1d7345015""}","https://test12345.live/?num_scrambled_semantic=8&num_scrambled_causal=4&num_scrambled_schematic=4&participantId=164CFCF7AA2142BF8E980A3E25CC6FE4&assignmentId=aa80b3d9-95b2-4f8a-b67a-c5cb8818e738&projectId=5e631737-0fa4-44a6-b227-7ba1d7345015","164CFCF7AA2142BF8E980A3E25CC6FE4-2025-05-27-18-35-25","","null","","images/schematic_sequence/restaurant_scheme/restaurant_scheme_3.png","null","",""
"","","","","","image-button-response","70","533416","0.0-12.0-1.0-1.4","164CFCF7AA2142BF8E980A3E25CC6FE4","164CFCF7AA2142BF8E980A3E25CC6FE4","aa80b3d9-95b2-4f8a-b67a-c5cb8818e738","5e631737-0fa4-44a6-b227-7ba1d7345015","{""num_scrambled_semantic"":""8"",""num_scrambled_causal"":""4"",""num_scrambled_schematic"":""4"",""participantId"":""164CFCF7AA2142BF8E980A3E25CC6FE4"",""assignmentId"":""aa80b3d9-95b2-4f8a-b67a-c5cb8818e738"",""projectId"":""5e631737-0fa4-44a6-b227-7ba1d7345015""}","https://test12345.live/?num_scrambled_semantic=8&num_scrambled_causal=4&num_scrambled_schematic=4&participantId=164CFCF7AA2142BF8E980A3E25CC6FE4&assignmentId=aa80b3d9-95b2-4f8a-b67a-c5cb8818e738&projectId=5e631737-0fa4-44a6-b227-7ba1d7345015","164CFCF7AA2142BF8E980A3E25CC6FE4-2025-05-27-18-35-25","","1052","","images/schematic_sequence/restaurant_scheme/restaurant_scheme_3.png","0","",""
"","","","","","image-button-response","71","535223","0.0-12.0-1.0-2.4","164CFCF7AA2142BF8E980A3E25CC6FE4","164CFCF7AA2142BF8E980A3E25CC6FE4","aa80b3d9-95b2-4f8a-b67a-c5cb8818e738","5e631737-0fa4-44a6-b227-7ba1d7345015","{""num_scrambled_semantic"":""8"",""num_scrambled_causal"":""4"",""num_scrambled_schematic"":""4"",""participantId"":""164CFCF7AA2142BF8E980A3E25CC6FE4"",""assignmentId"":""aa80b3d9-95b2-4f8a-b67a-c5cb8818e738"",""projectId"":""5e631737-0fa4-44a6-b227-7ba1d7345015""}","https://test12345.live/?num_scrambled_semantic=8&num_scrambled_causal=4&num_scrambled_schematic=4&participantId=164CFCF7AA2142BF8E980A3E25CC6FE4&assignmentId=aa80b3d9-95b2-4f8a-b67a-c5cb8818e738&projectId=5e631737-0fa4-44a6-b227-7ba1d7345015","164CFCF7AA2142BF8E980A3E25CC6FE4-2025-05-27-18-35-25","","null","","[]","null","",""
"","","","","","image-button-response","72","539734","0.0-12.0-1.0-0.5","164CFCF7AA2142BF8E980A3E25CC6FE4","164CFCF7AA2142BF8E980A3E25CC6FE4","aa80b3d9-95b2-4f8a-b67a-c5cb8818e738","5e631737-0fa4-44a6-b227-7ba1d7345015","{""num_scrambled_semantic"":""8"",""num_scrambled_causal"":""4"",""num_scrambled_schematic"":""4"",""participantId"":""164CFCF7AA2142BF8E980A3E25CC6FE4"",""assignmentId"":""aa80b3d9-95b2-4f8a-b67a-c5cb8818e738"",""projectId"":""5e631737-0fa4-44a6-b227-7ba1d7345015""}","https://test12345.live/?num_scrambled_semantic=8&num_scrambled_causal=4&num_scrambled_schematic=4&participantId=164CFCF7AA2142BF8E980A3E25CC6FE4&assignmentId=aa80b3d9-95b2-4f8a-b67a-c5cb8818e738&projectId=5e631737-0fa4-44a6-b227-7ba1d7345015","164CFCF7AA2142BF8E980A3E25CC6FE4-2025-05-27-18-35-25","","null","","images/schematic_sequence/restaurant_scheme/restaurant_scheme_1.png","null","",""
"","","","","","image-button-response","73","541084","0.0-12.0-1.0-1.5","164CFCF7AA2142BF8E980A3E25CC6FE4","164CFCF7AA2142BF8E980A3E25CC6FE4","aa80b3d9-95b2-4f8a-b67a-c5cb8818e738","5e631737-0fa4-44a6-b227-7ba1d7345015","{""num_scrambled_semantic"":""8"",""num_scrambled_causal"":""4"",""num_scrambled_schematic"":""4"",""participantId"":""164CFCF7AA2142BF8E980A3E25CC6FE4"",""assignmentId"":""aa80b3d9-95b2-4f8a-b67a-c5cb8818e738"",""projectId"":""5e631737-0fa4-44a6-b227-7ba1d7345015""}","https://test12345.live/?num_scrambled_semantic=8&num_scrambled_causal=4&num_scrambled_schematic=4&participantId=164CFCF7AA2142BF8E980A3E25CC6FE4&assignmentId=aa80b3d9-95b2-4f8a-b67a-c5cb8818e738&projectId=5e631737-0fa4-44a6-b227-7ba1d7345015","164CFCF7AA2142BF8E980A3E25CC6FE4-2025-05-27-18-35-25","","1349","","images/schematic_sequence/restaurant_scheme/restaurant_scheme_1.png","0","",""
"","","","","","image-button-response","74","542887","0.0-12.0-1.0-2.5","164CFCF7AA2142BF8E980A3E25CC6FE4","164CFCF7AA2142BF8E980A3E25CC6FE4","aa80b3d9-95b2-4f8a-b67a-c5cb8818e738","5e631737-0fa4-44a6-b227-7ba1d7345015","{""num_scrambled_semantic"":""8"",""num_scrambled_causal"":""4"",""num_scrambled_schematic"":""4"",""participantId"":""164CFCF7AA2142BF8E980A3E25CC6FE4"",""assignmentId"":""aa80b3d9-95b2-4f8a-b67a-c5cb8818e738"",""projectId"":""5e631737-0fa4-44a6-b227-7ba1d7345015""}","https://test12345.live/?num_scrambled_semantic=8&num_scrambled_causal=4&num_scrambled_schematic=4&participantId=164CFCF7AA2142BF8E980A3E25CC6FE4&assignmentId=aa80b3d9-95b2-4f8a-b67a-c5cb8818e738&projectId=5e631737-0fa4-44a6-b227-7ba1d7345015","164CFCF7AA2142BF8E980A3E25CC6FE4-2025-05-27-18-35-25","","null","","[]","null","",""
"","","","","","image-button-response","75","547399","0.0-12.0-1.0-0.6","164CFCF7AA2142BF8E980A3E25CC6FE4","164CFCF7AA2142BF8E980A3E25CC6FE4","aa80b3d9-95b2-4f8a-b67a-c5cb8818e738","5e631737-0fa4-44a6-b227-7ba1d7345015","{""num_scrambled_semantic"":""8"",""num_scrambled_causal"":""4"",""num_scrambled_schematic"":""4"",""participantId"":""164CFCF7AA2142BF8E980A3E25CC6FE4"",""assignmentId"":""aa80b3d9-95b2-4f8a-b67a-c5cb8818e738"",""projectId"":""5e631737-0fa4-44a6-b227-7ba1d7345015""}","https://test12345.live/?num_scrambled_semantic=8&num_scrambled_causal=4&num_scrambled_schematic=4&participantId=164CFCF7AA2142BF8E980A3E25CC6FE4&assignmentId=aa80b3d9-95b2-4f8a-b67a-c5cb8818e738&projectId=5e631737-0fa4-44a6-b227-7ba1d7345015","164CFCF7AA2142BF8E980A3E25CC6FE4-2025-05-27-18-35-25","","null","","images/schematic_sequence/restaurant_scheme/restaurant_scheme_8.png","null","",""
"","","","","","image-button-response","76","547883","0.0-12.0-1.0-1.6","164CFCF7AA2142BF8E980A3E25CC6FE4","164CFCF7AA2142BF8E980A3E25CC6FE4","aa80b3d9-95b2-4f8a-b67a-c5cb8818e738","5e631737-0fa4-44a6-b227-7ba1d7345015","{""num_scrambled_semantic"":""8"",""num_scrambled_causal"":""4"",""num_scrambled_schematic"":""4"",""participantId"":""164CFCF7AA2142BF8E980A3E25CC6FE4"",""assignmentId"":""aa80b3d9-95b2-4f8a-b67a-c5cb8818e738"",""projectId"":""5e631737-0fa4-44a6-b227-7ba1d7345015""}","https://test12345.live/?num_scrambled_semantic=8&num_scrambled_causal=4&num_scrambled_schematic=4&participantId=164CFCF7AA2142BF8E980A3E25CC6FE4&assignmentId=aa80b3d9-95b2-4f8a-b67a-c5cb8818e738&projectId=5e631737-0fa4-44a6-b227-7ba1d7345015","164CFCF7AA2142BF8E980A3E25CC6FE4-2025-05-27-18-35-25","","483","","images/schematic_sequence/restaurant_scheme/restaurant_scheme_8.png","0","",""
"","","","","","image-button-response","77","549696","0.0-12.0-1.0-2.6","164CFCF7AA2142BF8E980A3E25CC6FE4","164CFCF7AA2142BF8E980A3E25CC6FE4","aa80b3d9-95b2-4f8a-b67a-c5cb8818e738","5e631737-0fa4-44a6-b227-7ba1d7345015","{""num_scrambled_semantic"":""8"",""num_scrambled_causal"":""4"",""num_scrambled_schematic"":""4"",""participantId"":""164CFCF7AA2142BF8E980A3E25CC6FE4"",""assignmentId"":""aa80b3d9-95b2-4f8a-b67a-c5cb8818e738"",""projectId"":""5e631737-0fa4-44a6-b227-7ba1d7345015""}","https://test12345.live/?num_scrambled_semantic=8&num_scrambled_causal=4&num_scrambled_schematic=4&participantId=164CFCF7AA2142BF8E980A3E25CC6FE4&assignmentId=aa80b3d9-95b2-4f8a-b67a-c5cb8818e738&projectId=5e631737-0fa4-44a6-b227-7ba1d7345015","164CFCF7AA2142BF8E980A3E25CC6FE4-2025-05-27-18-35-25","","null","","[]","null","",""
"","","","","","image-button-response","78","554197","0.0-12.0-1.0-0.7","164CFCF7AA2142BF8E980A3E25CC6FE4","164CFCF7AA2142BF8E980A3E25CC6FE4","aa80b3d9-95b2-4f8a-b67a-c5cb8818e738","5e631737-0fa4-44a6-b227-7ba1d7345015","{""num_scrambled_semantic"":""8"",""num_scrambled_causal"":""4"",""num_scrambled_schematic"":""4"",""participantId"":""164CFCF7AA2142BF8E980A3E25CC6FE4"",""assignmentId"":""aa80b3d9-95b2-4f8a-b67a-c5cb8818e738"",""projectId"":""5e631737-0fa4-44a6-b227-7ba1d7345015""}","https://test12345.live/?num_scrambled_semantic=8&num_scrambled_causal=4&num_scrambled_schematic=4&participantId=164CFCF7AA2142BF8E980A3E25CC6FE4&assignmentId=aa80b3d9-95b2-4f8a-b67a-c5cb8818e738&projectId=5e631737-0fa4-44a6-b227-7ba1d7345015","164CFCF7AA2142BF8E980A3E25CC6FE4-2025-05-27-18-35-25","","null","","images/schematic_sequence/restaurant_scheme/restaurant_scheme_6.png","null","",""
"","","","","","image-button-response","79","555166","0.0-12.0-1.0-1.7","164CFCF7AA2142BF8E980A3E25CC6FE4","164CFCF7AA2142BF8E980A3E25CC6FE4","aa80b3d9-95b2-4f8a-b67a-c5cb8818e738","5e631737-0fa4-44a6-b227-7ba1d7345015","{""num_scrambled_semantic"":""8"",""num_scrambled_causal"":""4"",""num_scrambled_schematic"":""4"",""participantId"":""164CFCF7AA2142BF8E980A3E25CC6FE4"",""assignmentId"":""aa80b3d9-95b2-4f8a-b67a-c5cb8818e738"",""projectId"":""5e631737-0fa4-44a6-b227-7ba1d7345015""}","https://test12345.live/?num_scrambled_semantic=8&num_scrambled_causal=4&num_scrambled_schematic=4&participantId=164CFCF7AA2142BF8E980A3E25CC6FE4&assignmentId=aa80b3d9-95b2-4f8a-b67a-c5cb8818e738&projectId=5e631737-0fa4-44a6-b227-7ba1d7345015","164CFCF7AA2142BF8E980A3E25CC6FE4-2025-05-27-18-35-25","","968","","images/schematic_sequence/restaurant_scheme/restaurant_scheme_6.png","1","",""
"","","","","","image-button-response","80","556980","0.0-12.0-1.0-2.7","164CFCF7AA2142BF8E980A3E25CC6FE4","164CFCF7AA2142BF8E980A3E25CC6FE4","aa80b3d9-95b2-4f8a-b67a-c5cb8818e738","5e631737-0fa4-44a6-b227-7ba1d7345015","{""num_scrambled_semantic"":""8"",""num_scrambled_causal"":""4"",""num_scrambled_schematic"":""4"",""participantId"":""164CFCF7AA2142BF8E980A3E25CC6FE4"",""assignmentId"":""aa80b3d9-95b2-4f8a-b67a-c5cb8818e738"",""projectId"":""5e631737-0fa4-44a6-b227-7ba1d7345015""}","https://test12345.live/?num_scrambled_semantic=8&num_scrambled_causal=4&num_scrambled_schematic=4&participantId=164CFCF7AA2142BF8E980A3E25CC6FE4&assignmentId=aa80b3d9-95b2-4f8a-b67a-c5cb8818e738&projectId=5e631737-0fa4-44a6-b227-7ba1d7345015","164CFCF7AA2142BF8E980A3E25CC6FE4-2025-05-27-18-35-25","","null","","[]","null","",""
"","","","","","image-button-response","81","561485","0.0-12.0-1.0-0.8","164CFCF7AA2142BF8E980A3E25CC6FE4","164CFCF7AA2142BF8E980A3E25CC6FE4","aa80b3d9-95b2-4f8a-b67a-c5cb8818e738","5e631737-0fa4-44a6-b227-7ba1d7345015","{""num_scrambled_semantic"":""8"",""num_scrambled_causal"":""4"",""num_scrambled_schematic"":""4"",""participantId"":""164CFCF7AA2142BF8E980A3E25CC6FE4"",""assignmentId"":""aa80b3d9-95b2-4f8a-b67a-c5cb8818e738"",""projectId"":""5e631737-0fa4-44a6-b227-7ba1d7345015""}","https://test12345.live/?num_scrambled_semantic=8&num_scrambled_causal=4&num_scrambled_schematic=4&participantId=164CFCF7AA2142BF8E980A3E25CC6FE4&assignmentId=aa80b3d9-95b2-4f8a-b67a-c5cb8818e738&projectId=5e631737-0fa4-44a6-b227-7ba1d7345015","164CFCF7AA2142BF8E980A3E25CC6FE4-2025-05-27-18-35-25","","null","","images/schematic_sequence/restaurant_scheme/restaurant_scheme_9.png","null","",""
"","","","","","image-button-response","82","562187","0.0-12.0-1.0-1.8","164CFCF7AA2142BF8E980A3E25CC6FE4","164CFCF7AA2142BF8E980A3E25CC6FE4","aa80b3d9-95b2-4f8a-b67a-c5cb8818e738","5e631737-0fa4-44a6-b227-7ba1d7345015","{""num_scrambled_semantic"":""8"",""num_scrambled_causal"":""4"",""num_scrambled_schematic"":""4"",""participantId"":""164CFCF7AA2142BF8E980A3E25CC6FE4"",""assignmentId"":""aa80b3d9-95b2-4f8a-b67a-c5cb8818e738"",""projectId"":""5e631737-0fa4-44a6-b227-7ba1d7345015""}","https://test12345.live/?num_scrambled_semantic=8&num_scrambled_causal=4&num_scrambled_schematic=4&participantId=164CFCF7AA2142BF8E980A3E25CC6FE4&assignmentId=aa80b3d9-95b2-4f8a-b67a-c5cb8818e738&projectId=5e631737-0fa4-44a6-b227-7ba1d7345015","164CFCF7AA2142BF8E980A3E25CC6FE4-2025-05-27-18-35-25","","700","","images/schematic_sequence/restaurant_scheme/restaurant_scheme_9.png","0","",""
"","","","","","image-button-response","83","564000","0.0-12.0-1.0-2.8","164CFCF7AA2142BF8E980A3E25CC6FE4","164CFCF7AA2142BF8E980A3E25CC6FE4","aa80b3d9-95b2-4f8a-b67a-c5cb8818e738","5e631737-0fa4-44a6-b227-7ba1d7345015","{""num_scrambled_semantic"":""8"",""num_scrambled_causal"":""4"",""num_scrambled_schematic"":""4"",""participantId"":""164CFCF7AA2142BF8E980A3E25CC6FE4"",""assignmentId"":""aa80b3d9-95b2-4f8a-b67a-c5cb8818e738"",""projectId"":""5e631737-0fa4-44a6-b227-7ba1d7345015""}","https://test12345.live/?num_scrambled_semantic=8&num_scrambled_causal=4&num_scrambled_schematic=4&participantId=164CFCF7AA2142BF8E980A3E25CC6FE4&assignmentId=aa80b3d9-95b2-4f8a-b67a-c5cb8818e738&projectId=5e631737-0fa4-44a6-b227-7ba1d7345015","164CFCF7AA2142BF8E980A3E25CC6FE4-2025-05-27-18-35-25","","null","","[]","null","",""
"","","","","","image-button-response","84","568501","0.0-12.0-1.0-0.9","164CFCF7AA2142BF8E980A3E25CC6FE4","164CFCF7AA2142BF8E980A3E25CC6FE4","aa80b3d9-95b2-4f8a-b67a-c5cb8818e738","5e631737-0fa4-44a6-b227-7ba1d7345015","{""num_scrambled_semantic"":""8"",""num_scrambled_causal"":""4"",""num_scrambled_schematic"":""4"",""participantId"":""164CFCF7AA2142BF8E980A3E25CC6FE4"",""assignmentId"":""aa80b3d9-95b2-4f8a-b67a-c5cb8818e738"",""projectId"":""5e631737-0fa4-44a6-b227-7ba1d7345015""}","https://test12345.live/?num_scrambled_semantic=8&num_scrambled_causal=4&num_scrambled_schematic=4&participantId=164CFCF7AA2142BF8E980A3E25CC6FE4&assignmentId=aa80b3d9-95b2-4f8a-b67a-c5cb8818e738&projectId=5e631737-0fa4-44a6-b227-7ba1d7345015","164CFCF7AA2142BF8E980A3E25CC6FE4-2025-05-27-18-35-25","","null","","images/schematic_sequence/restaurant_scheme/restaurant_scheme_2.png","null","",""
"","","","","","image-button-response","85","569899","0.0-12.0-1.0-1.9","164CFCF7AA2142BF8E980A3E25CC6FE4","164CFCF7AA2142BF8E980A3E25CC6FE4","aa80b3d9-95b2-4f8a-b67a-c5cb8818e738","5e631737-0fa4-44a6-b227-7ba1d7345015","{""num_scrambled_semantic"":""8"",""num_scrambled_causal"":""4"",""num_scrambled_schematic"":""4"",""participantId"":""164CFCF7AA2142BF8E980A3E25CC6FE4"",""assignmentId"":""aa80b3d9-95b2-4f8a-b67a-c5cb8818e738"",""projectId"":""5e631737-0fa4-44a6-b227-7ba1d7345015""}","https://test12345.live/?num_scrambled_semantic=8&num_scrambled_causal=4&num_scrambled_schematic=4&participantId=164CFCF7AA2142BF8E980A3E25CC6FE4&assignmentId=aa80b3d9-95b2-4f8a-b67a-c5cb8818e738&projectId=5e631737-0fa4-44a6-b227-7ba1d7345015","164CFCF7AA2142BF8E980A3E25CC6FE4-2025-05-27-18-35-25","","1397","","images/schematic_sequence/restaurant_scheme/restaurant_scheme_2.png","1","",""
"","","","","","image-button-response","86","571702","0.0-12.0-1.0-2.9","164CFCF7AA2142BF8E980A3E25CC6FE4","164CFCF7AA2142BF8E980A3E25CC6FE4","aa80b3d9-95b2-4f8a-b67a-c5cb8818e738","5e631737-0fa4-44a6-b227-7ba1d7345015","{""num_scrambled_semantic"":""8"",""num_scrambled_causal"":""4"",""num_scrambled_schematic"":""4"",""participantId"":""164CFCF7AA2142BF8E980A3E25CC6FE4"",""assignmentId"":""aa80b3d9-95b2-4f8a-b67a-c5cb8818e738"",""projectId"":""5e631737-0fa4-44a6-b227-7ba1d7345015""}","https://test12345.live/?num_scrambled_semantic=8&num_scrambled_causal=4&num_scrambled_schematic=4&participantId=164CFCF7AA2142BF8E980A3E25CC6FE4&assignmentId=aa80b3d9-95b2-4f8a-b67a-c5cb8818e738&projectId=5e631737-0fa4-44a6-b227-7ba1d7345015","164CFCF7AA2142BF8E980A3E25CC6FE4-2025-05-27-18-35-25","","null","","[]","null","",""
"","","","","","html-audio-response","87","603663","0.0-13.0","164CFCF7AA2142BF8E980A3E25CC6FE4","164CFCF7AA2142BF8E980A3E25CC6FE4","aa80b3d9-95b2-4f8a-b67a-c5cb8818e738","5e631737-0fa4-44a6-b227-7ba1d7345015","{""num_scrambled_semantic"":""8"",""num_scrambled_causal"":""4"",""num_scrambled_schematic"":""4"",""participantId"":""164CFCF7AA2142BF8E980A3E25CC6FE4"",""assignmentId"":""aa80b3d9-95b2-4f8a-b67a-c5cb8818e738"",""projectId"":""5e631737-0fa4-44a6-b227-7ba1d7345015""}","https://test12345.live/?num_scrambled_semantic=8&num_scrambled_causal=4&num_scrambled_schematic=4&participantId=164CFCF7AA2142BF8E980A3E25CC6FE4&assignmentId=aa80b3d9-95b2-4f8a-b67a-c5cb8818e738&projectId=5e631737-0fa4-44a6-b227-7ba1d7345015","164CFCF7AA2142BF8E980A3E25CC6FE4-2025-05-27-18-35-25","","31006","","[""<span style=\""color: red; font-size: 24px\""> NOW RECORDING</span><p>Please say out loud all the images you saw, in the exact order you saw them. Try to recall as many images as you can, but remember: getting the order right is more important than the number of images you recall.</p>""]","","11","restaurant_scheme"
"","","","","","image-button-response","88","609677","0.0-14.0-0.0","164CFCF7AA2142BF8E980A3E25CC6FE4","164CFCF7AA2142BF8E980A3E25CC6FE4","aa80b3d9-95b2-4f8a-b67a-c5cb8818e738","5e631737-0fa4-44a6-b227-7ba1d7345015","{""num_scrambled_semantic"":""8"",""num_scrambled_causal"":""4"",""num_scrambled_schematic"":""4"",""participantId"":""164CFCF7AA2142BF8E980A3E25CC6FE4"",""assignmentId"":""aa80b3d9-95b2-4f8a-b67a-c5cb8818e738"",""projectId"":""5e631737-0fa4-44a6-b227-7ba1d7345015""}","https://test12345.live/?num_scrambled_semantic=8&num_scrambled_causal=4&num_scrambled_schematic=4&participantId=164CFCF7AA2142BF8E980A3E25CC6FE4&assignmentId=aa80b3d9-95b2-4f8a-b67a-c5cb8818e738&projectId=5e631737-0fa4-44a6-b227-7ba1d7345015","164CFCF7AA2142BF8E980A3E25CC6FE4-2025-05-27-18-35-25","","null","","images/schematic_sequence/flight_scheme/flight_scheme_0.png","null","",""
"","","","","","image-button-response","89","614180","0.0-14.0-1.0-0.0","164CFCF7AA2142BF8E980A3E25CC6FE4","164CFCF7AA2142BF8E980A3E25CC6FE4","aa80b3d9-95b2-4f8a-b67a-c5cb8818e738","5e631737-0fa4-44a6-b227-7ba1d7345015","{""num_scrambled_semantic"":""8"",""num_scrambled_causal"":""4"",""num_scrambled_schematic"":""4"",""participantId"":""164CFCF7AA2142BF8E980A3E25CC6FE4"",""assignmentId"":""aa80b3d9-95b2-4f8a-b67a-c5cb8818e738"",""projectId"":""5e631737-0fa4-44a6-b227-7ba1d7345015""}","https://test12345.live/?num_scrambled_semantic=8&num_scrambled_causal=4&num_scrambled_schematic=4&participantId=164CFCF7AA2142BF8E980A3E25CC6FE4&assignmentId=aa80b3d9-95b2-4f8a-b67a-c5cb8818e738&projectId=5e631737-0fa4-44a6-b227-7ba1d7345015","164CFCF7AA2142BF8E980A3E25CC6FE4-2025-05-27-18-35-25","","null","","images/schematic_sequence/flight_scheme/flight_scheme_8.png","null","",""
"","","","","","image-button-response","90","617930","0.0-14.0-1.0-1.0","164CFCF7AA2142BF8E980A3E25CC6FE4","164CFCF7AA2142BF8E980A3E25CC6FE4","aa80b3d9-95b2-4f8a-b67a-c5cb8818e738","5e631737-0fa4-44a6-b227-7ba1d7345015","{""num_scrambled_semantic"":""8"",""num_scrambled_causal"":""4"",""num_scrambled_schematic"":""4"",""participantId"":""164CFCF7AA2142BF8E980A3E25CC6FE4"",""assignmentId"":""aa80b3d9-95b2-4f8a-b67a-c5cb8818e738"",""projectId"":""5e631737-0fa4-44a6-b227-7ba1d7345015""}","https://test12345.live/?num_scrambled_semantic=8&num_scrambled_causal=4&num_scrambled_schematic=4&participantId=164CFCF7AA2142BF8E980A3E25CC6FE4&assignmentId=aa80b3d9-95b2-4f8a-b67a-c5cb8818e738&projectId=5e631737-0fa4-44a6-b227-7ba1d7345015","164CFCF7AA2142BF8E980A3E25CC6FE4-2025-05-27-18-35-25","","3748","","images/schematic_sequence/flight_scheme/flight_scheme_8.png","1","",""
"","","","","","image-button-response","91","619739","0.0-14.0-1.0-2.0","164CFCF7AA2142BF8E980A3E25CC6FE4","164CFCF7AA2142BF8E980A3E25CC6FE4","aa80b3d9-95b2-4f8a-b67a-c5cb8818e738","5e631737-0fa4-44a6-b227-7ba1d7345015","{""num_scrambled_semantic"":""8"",""num_scrambled_causal"":""4"",""num_scrambled_schematic"":""4"",""participantId"":""164CFCF7AA2142BF8E980A3E25CC6FE4"",""assignmentId"":""aa80b3d9-95b2-4f8a-b67a-c5cb8818e738"",""projectId"":""5e631737-0fa4-44a6-b227-7ba1d7345015""}","https://test12345.live/?num_scrambled_semantic=8&num_scrambled_causal=4&num_scrambled_schematic=4&participantId=164CFCF7AA2142BF8E980A3E25CC6FE4&assignmentId=aa80b3d9-95b2-4f8a-b67a-c5cb8818e738&projectId=5e631737-0fa4-44a6-b227-7ba1d7345015","164CFCF7AA2142BF8E980A3E25CC6FE4-2025-05-27-18-35-25","","null","","[]","null","",""
"","","","","","image-button-response","92","624252","0.0-14.0-1.0-0.1","164CFCF7AA2142BF8E980A3E25CC6FE4","164CFCF7AA2142BF8E980A3E25CC6FE4","aa80b3d9-95b2-4f8a-b67a-c5cb8818e738","5e631737-0fa4-44a6-b227-7ba1d7345015","{""num_scrambled_semantic"":""8"",""num_scrambled_causal"":""4"",""num_scrambled_schematic"":""4"",""participantId"":""164CFCF7AA2142BF8E980A3E25CC6FE4"",""assignmentId"":""aa80b3d9-95b2-4f8a-b67a-c5cb8818e738"",""projectId"":""5e631737-0fa4-44a6-b227-7ba1d7345015""}","https://test12345.live/?num_scrambled_semantic=8&num_scrambled_causal=4&num_scrambled_schematic=4&participantId=164CFCF7AA2142BF8E980A3E25CC6FE4&assignmentId=aa80b3d9-95b2-4f8a-b67a-c5cb8818e738&projectId=5e631737-0fa4-44a6-b227-7ba1d7345015","164CFCF7AA2142BF8E980A3E25CC6FE4-2025-05-27-18-35-25","","null","","images/schematic_sequence/flight_scheme/flight_scheme_5.png","null","",""
"","","","","","image-button-response","93","624837","0.0-14.0-1.0-1.1","164CFCF7AA2142BF8E980A3E25CC6FE4","164CFCF7AA2142BF8E980A3E25CC6FE4","aa80b3d9-95b2-4f8a-b67a-c5cb8818e738","5e631737-0fa4-44a6-b227-7ba1d7345015","{""num_scrambled_semantic"":""8"",""num_scrambled_causal"":""4"",""num_scrambled_schematic"":""4"",""participantId"":""164CFCF7AA2142BF8E980A3E25CC6FE4"",""assignmentId"":""aa80b3d9-95b2-4f8a-b67a-c5cb8818e738"",""projectId"":""5e631737-0fa4-44a6-b227-7ba1d7345015""}","https://test12345.live/?num_scrambled_semantic=8&num_scrambled_causal=4&num_scrambled_schematic=4&participantId=164CFCF7AA2142BF8E980A3E25CC6FE4&assignmentId=aa80b3d9-95b2-4f8a-b67a-c5cb8818e738&projectId=5e631737-0fa4-44a6-b227-7ba1d7345015","164CFCF7AA2142BF8E980A3E25CC6FE4-2025-05-27-18-35-25","","583","","images/schematic_sequence/flight_scheme/flight_scheme_5.png","0","",""
"","","","","","image-button-response","94","626648","0.0-14.0-1.0-2.1","164CFCF7AA2142BF8E980A3E25CC6FE4","164CFCF7AA2142BF8E980A3E25CC6FE4","aa80b3d9-95b2-4f8a-b67a-c5cb8818e738","5e631737-0fa4-44a6-b227-7ba1d7345015","{""num_scrambled_semantic"":""8"",""num_scrambled_causal"":""4"",""num_scrambled_schematic"":""4"",""participantId"":""164CFCF7AA2142BF8E980A3E25CC6FE4"",""assignmentId"":""aa80b3d9-95b2-4f8a-b67a-c5cb8818e738"",""projectId"":""5e631737-0fa4-44a6-b227-7ba1d7345015""}","https://test12345.live/?num_scrambled_semantic=8&num_scrambled_causal=4&num_scrambled_schematic=4&participantId=164CFCF7AA2142BF8E980A3E25CC6FE4&assignmentId=aa80b3d9-95b2-4f8a-b67a-c5cb8818e738&projectId=5e631737-0fa4-44a6-b227-7ba1d7345015","164CFCF7AA2142BF8E980A3E25CC6FE4-2025-05-27-18-35-25","","null","","[]","null","",""
"","","","","","image-button-response","95","631164","0.0-14.0-1.0-0.2","164CFCF7AA2142BF8E980A3E25CC6FE4","164CFCF7AA2142BF8E980A3E25CC6FE4","aa80b3d9-95b2-4f8a-b67a-c5cb8818e738","5e631737-0fa4-44a6-b227-7ba1d7345015","{""num_scrambled_semantic"":""8"",""num_scrambled_causal"":""4"",""num_scrambled_schematic"":""4"",""participantId"":""164CFCF7AA2142BF8E980A3E25CC6FE4"",""assignmentId"":""aa80b3d9-95b2-4f8a-b67a-c5cb8818e738"",""projectId"":""5e631737-0fa4-44a6-b227-7ba1d7345015""}","https://test12345.live/?num_scrambled_semantic=8&num_scrambled_causal=4&num_scrambled_schematic=4&participantId=164CFCF7AA2142BF8E980A3E25CC6FE4&assignmentId=aa80b3d9-95b2-4f8a-b67a-c5cb8818e738&projectId=5e631737-0fa4-44a6-b227-7ba1d7345015","164CFCF7AA2142BF8E980A3E25CC6FE4-2025-05-27-18-35-25","","null","","images/schematic_sequence/flight_scheme/flight_scheme_7.png","null","",""
"","","","","","image-button-response","96","633142","0.0-14.0-1.0-1.2","164CFCF7AA2142BF8E980A3E25CC6FE4","164CFCF7AA2142BF8E980A3E25CC6FE4","aa80b3d9-95b2-4f8a-b67a-c5cb8818e738","5e631737-0fa4-44a6-b227-7ba1d7345015","{""num_scrambled_semantic"":""8"",""num_scrambled_causal"":""4"",""num_scrambled_schematic"":""4"",""participantId"":""164CFCF7AA2142BF8E980A3E25CC6FE4"",""assignmentId"":""aa80b3d9-95b2-4f8a-b67a-c5cb8818e738"",""projectId"":""5e631737-0fa4-44a6-b227-7ba1d7345015""}","https://test12345.live/?num_scrambled_semantic=8&num_scrambled_causal=4&num_scrambled_schematic=4&participantId=164CFCF7AA2142BF8E980A3E25CC6FE4&assignmentId=aa80b3d9-95b2-4f8a-b67a-c5cb8818e738&projectId=5e631737-0fa4-44a6-b227-7ba1d7345015","164CFCF7AA2142BF8E980A3E25CC6FE4-2025-05-27-18-35-25","","1976","","images/schematic_sequence/flight_scheme/flight_scheme_7.png","1","",""
"","","","","","image-button-response","97","634958","0.0-14.0-1.0-2.2","164CFCF7AA2142BF8E980A3E25CC6FE4","164CFCF7AA2142BF8E980A3E25CC6FE4","aa80b3d9-95b2-4f8a-b67a-c5cb8818e738","5e631737-0fa4-44a6-b227-7ba1d7345015","{""num_scrambled_semantic"":""8"",""num_scrambled_causal"":""4"",""num_scrambled_schematic"":""4"",""participantId"":""164CFCF7AA2142BF8E980A3E25CC6FE4"",""assignmentId"":""aa80b3d9-95b2-4f8a-b67a-c5cb8818e738"",""projectId"":""5e631737-0fa4-44a6-b227-7ba1d7345015""}","https://test12345.live/?num_scrambled_semantic=8&num_scrambled_causal=4&num_scrambled_schematic=4&participantId=164CFCF7AA2142BF8E980A3E25CC6FE4&assignmentId=aa80b3d9-95b2-4f8a-b67a-c5cb8818e738&projectId=5e631737-0fa4-44a6-b227-7ba1d7345015","164CFCF7AA2142BF8E980A3E25CC6FE4-2025-05-27-18-35-25","","null","","[]","null","",""
"","","","","","image-button-response","98","639470","0.0-14.0-1.0-0.3","164CFCF7AA2142BF8E980A3E25CC6FE4","164CFCF7AA2142BF8E980A3E25CC6FE4","aa80b3d9-95b2-4f8a-b67a-c5cb8818e738","5e631737-0fa4-44a6-b227-7ba1d7345015","{""num_scrambled_semantic"":""8"",""num_scrambled_causal"":""4"",""num_scrambled_schematic"":""4"",""participantId"":""164CFCF7AA2142BF8E980A3E25CC6FE4"",""assignmentId"":""aa80b3d9-95b2-4f8a-b67a-c5cb8818e738"",""projectId"":""5e631737-0fa4-44a6-b227-7ba1d7345015""}","https://test12345.live/?num_scrambled_semantic=8&num_scrambled_causal=4&num_scrambled_schematic=4&participantId=164CFCF7AA2142BF8E980A3E25CC6FE4&assignmentId=aa80b3d9-95b2-4f8a-b67a-c5cb8818e738&projectId=5e631737-0fa4-44a6-b227-7ba1d7345015","164CFCF7AA2142BF8E980A3E25CC6FE4-2025-05-27-18-35-25","","null","","images/schematic_sequence/flight_scheme/flight_scheme_2.png","null","",""
"","","","","","image-button-response","99","640700","0.0-14.0-1.0-1.3","164CFCF7AA2142BF8E980A3E25CC6FE4","164CFCF7AA2142BF8E980A3E25CC6FE4","aa80b3d9-95b2-4f8a-b67a-c5cb8818e738","5e631737-0fa4-44a6-b227-7ba1d7345015","{""num_scrambled_semantic"":""8"",""num_scrambled_causal"":""4"",""num_scrambled_schematic"":""4"",""participantId"":""164CFCF7AA2142BF8E980A3E25CC6FE4"",""assignmentId"":""aa80b3d9-95b2-4f8a-b67a-c5cb8818e738"",""projectId"":""5e631737-0fa4-44a6-b227-7ba1d7345015""}","https://test12345.live/?num_scrambled_semantic=8&num_scrambled_causal=4&num_scrambled_schematic=4&participantId=164CFCF7AA2142BF8E980A3E25CC6FE4&assignmentId=aa80b3d9-95b2-4f8a-b67a-c5cb8818e738&projectId=5e631737-0fa4-44a6-b227-7ba1d7345015","164CFCF7AA2142BF8E980A3E25CC6FE4-2025-05-27-18-35-25","","1229","","images/schematic_sequence/flight_scheme/flight_scheme_2.png","1","",""
"","","","","","image-button-response","100","642515","0.0-14.0-1.0-2.3","164CFCF7AA2142BF8E980A3E25CC6FE4","164CFCF7AA2142BF8E980A3E25CC6FE4","aa80b3d9-95b2-4f8a-b67a-c5cb8818e738","5e631737-0fa4-44a6-b227-7ba1d7345015","{""num_scrambled_semantic"":""8"",""num_scrambled_causal"":""4"",""num_scrambled_schematic"":""4"",""participantId"":""164CFCF7AA2142BF8E980A3E25CC6FE4"",""assignmentId"":""aa80b3d9-95b2-4f8a-b67a-c5cb8818e738"",""projectId"":""5e631737-0fa4-44a6-b227-7ba1d7345015""}","https://test12345.live/?num_scrambled_semantic=8&num_scrambled_causal=4&num_scrambled_schematic=4&participantId=164CFCF7AA2142BF8E980A3E25CC6FE4&assignmentId=aa80b3d9-95b2-4f8a-b67a-c5cb8818e738&projectId=5e631737-0fa4-44a6-b227-7ba1d7345015","164CFCF7AA2142BF8E980A3E25CC6FE4-2025-05-27-18-35-25","","null","","[]","null","",""
"","","","","","image-button-response","101","647017","0.0-14.0-1.0-0.4","164CFCF7AA2142BF8E980A3E25CC6FE4","164CFCF7AA2142BF8E980A3E25CC6FE4","aa80b3d9-95b2-4f8a-b67a-c5cb8818e738","5e631737-0fa4-44a6-b227-7ba1d7345015","{""num_scrambled_semantic"":""8"",""num_scrambled_causal"":""4"",""num_scrambled_schematic"":""4"",""participantId"":""164CFCF7AA2142BF8E980A3E25CC6FE4"",""assignmentId"":""aa80b3d9-95b2-4f8a-b67a-c5cb8818e738"",""projectId"":""5e631737-0fa4-44a6-b227-7ba1d7345015""}","https://test12345.live/?num_scrambled_semantic=8&num_scrambled_causal=4&num_scrambled_schematic=4&participantId=164CFCF7AA2142BF8E980A3E25CC6FE4&assignmentId=aa80b3d9-95b2-4f8a-b67a-c5cb8818e738&projectId=5e631737-0fa4-44a6-b227-7ba1d7345015","164CFCF7AA2142BF8E980A3E25CC6FE4-2025-05-27-18-35-25","","null","","images/schematic_sequence/flight_scheme/flight_scheme_4.png","null","",""
"","","","","","image-button-response","102","648338","0.0-14.0-1.0-1.4","164CFCF7AA2142BF8E980A3E25CC6FE4","164CFCF7AA2142BF8E980A3E25CC6FE4","aa80b3d9-95b2-4f8a-b67a-c5cb8818e738","5e631737-0fa4-44a6-b227-7ba1d7345015","{""num_scrambled_semantic"":""8"",""num_scrambled_causal"":""4"",""num_scrambled_schematic"":""4"",""participantId"":""164CFCF7AA2142BF8E980A3E25CC6FE4"",""assignmentId"":""aa80b3d9-95b2-4f8a-b67a-c5cb8818e738"",""projectId"":""5e631737-0fa4-44a6-b227-7ba1d7345015""}","https://test12345.live/?num_scrambled_semantic=8&num_scrambled_causal=4&num_scrambled_schematic=4&participantId=164CFCF7AA2142BF8E980A3E25CC6FE4&assignmentId=aa80b3d9-95b2-4f8a-b67a-c5cb8818e738&projectId=5e631737-0fa4-44a6-b227-7ba1d7345015","164CFCF7AA2142BF8E980A3E25CC6FE4-2025-05-27-18-35-25","","1320","","images/schematic_sequence/flight_scheme/flight_scheme_4.png","0","",""
"","","","","","image-button-response","103","650143","0.0-14.0-1.0-2.4","164CFCF7AA2142BF8E980A3E25CC6FE4","164CFCF7AA2142BF8E980A3E25CC6FE4","aa80b3d9-95b2-4f8a-b67a-c5cb8818e738","5e631737-0fa4-44a6-b227-7ba1d7345015","{""num_scrambled_semantic"":""8"",""num_scrambled_causal"":""4"",""num_scrambled_schematic"":""4"",""participantId"":""164CFCF7AA2142BF8E980A3E25CC6FE4"",""assignmentId"":""aa80b3d9-95b2-4f8a-b67a-c5cb8818e738"",""projectId"":""5e631737-0fa4-44a6-b227-7ba1d7345015""}","https://test12345.live/?num_scrambled_semantic=8&num_scrambled_causal=4&num_scrambled_schematic=4&participantId=164CFCF7AA2142BF8E980A3E25CC6FE4&assignmentId=aa80b3d9-95b2-4f8a-b67a-c5cb8818e738&projectId=5e631737-0fa4-44a6-b227-7ba1d7345015","164CFCF7AA2142BF8E980A3E25CC6FE4-2025-05-27-18-35-25","","null","","[]","null","",""
"","","","","","image-button-response","104","654648","0.0-14.0-1.0-0.5","164CFCF7AA2142BF8E980A3E25CC6FE4","164CFCF7AA2142BF8E980A3E25CC6FE4","aa80b3d9-95b2-4f8a-b67a-c5cb8818e738","5e631737-0fa4-44a6-b227-7ba1d7345015","{""num_scrambled_semantic"":""8"",""num_scrambled_causal"":""4"",""num_scrambled_schematic"":""4"",""participantId"":""164CFCF7AA2142BF8E980A3E25CC6FE4"",""assignmentId"":""aa80b3d9-95b2-4f8a-b67a-c5cb8818e738"",""projectId"":""5e631737-0fa4-44a6-b227-7ba1d7345015""}","https://test12345.live/?num_scrambled_semantic=8&num_scrambled_causal=4&num_scrambled_schematic=4&participantId=164CFCF7AA2142BF8E980A3E25CC6FE4&assignmentId=aa80b3d9-95b2-4f8a-b67a-c5cb8818e738&projectId=5e631737-0fa4-44a6-b227-7ba1d7345015","164CFCF7AA2142BF8E980A3E25CC6FE4-2025-05-27-18-35-25","","null","","images/schematic_sequence/flight_scheme/flight_scheme_6.png","null","",""
"","","","","","image-button-response","105","656264","0.0-14.0-1.0-1.5","164CFCF7AA2142BF8E980A3E25CC6FE4","164CFCF7AA2142BF8E980A3E25CC6FE4","aa80b3d9-95b2-4f8a-b67a-c5cb8818e738","5e631737-0fa4-44a6-b227-7ba1d7345015","{""num_scrambled_semantic"":""8"",""num_scrambled_causal"":""4"",""num_scrambled_schematic"":""4"",""participantId"":""164CFCF7AA2142BF8E980A3E25CC6FE4"",""assignmentId"":""aa80b3d9-95b2-4f8a-b67a-c5cb8818e738"",""projectId"":""5e631737-0fa4-44a6-b227-7ba1d7345015""}","https://test12345.live/?num_scrambled_semantic=8&num_scrambled_causal=4&num_scrambled_schematic=4&participantId=164CFCF7AA2142BF8E980A3E25CC6FE4&assignmentId=aa80b3d9-95b2-4f8a-b67a-c5cb8818e738&projectId=5e631737-0fa4-44a6-b227-7ba1d7345015","164CFCF7AA2142BF8E980A3E25CC6FE4-2025-05-27-18-35-25","","1616","","images/schematic_sequence/flight_scheme/flight_scheme_6.png","1","",""
"","","","","","image-button-response","106","658071","0.0-14.0-1.0-2.5","164CFCF7AA2142BF8E980A3E25CC6FE4","164CFCF7AA2142BF8E980A3E25CC6FE4","aa80b3d9-95b2-4f8a-b67a-c5cb8818e738","5e631737-0fa4-44a6-b227-7ba1d7345015","{""num_scrambled_semantic"":""8"",""num_scrambled_causal"":""4"",""num_scrambled_schematic"":""4"",""participantId"":""164CFCF7AA2142BF8E980A3E25CC6FE4"",""assignmentId"":""aa80b3d9-95b2-4f8a-b67a-c5cb8818e738"",""projectId"":""5e631737-0fa4-44a6-b227-7ba1d7345015""}","https://test12345.live/?num_scrambled_semantic=8&num_scrambled_causal=4&num_scrambled_schematic=4&participantId=164CFCF7AA2142BF8E980A3E25CC6FE4&assignmentId=aa80b3d9-95b2-4f8a-b67a-c5cb8818e738&projectId=5e631737-0fa4-44a6-b227-7ba1d7345015","164CFCF7AA2142BF8E980A3E25CC6FE4-2025-05-27-18-35-25","","null","","[]","null","",""
"","","","","","image-button-response","107","662584","0.0-14.0-1.0-0.6","164CFCF7AA2142BF8E980A3E25CC6FE4","164CFCF7AA2142BF8E980A3E25CC6FE4","aa80b3d9-95b2-4f8a-b67a-c5cb8818e738","5e631737-0fa4-44a6-b227-7ba1d7345015","{""num_scrambled_semantic"":""8"",""num_scrambled_causal"":""4"",""num_scrambled_schematic"":""4"",""participantId"":""164CFCF7AA2142BF8E980A3E25CC6FE4"",""assignmentId"":""aa80b3d9-95b2-4f8a-b67a-c5cb8818e738"",""projectId"":""5e631737-0fa4-44a6-b227-7ba1d7345015""}","https://test12345.live/?num_scrambled_semantic=8&num_scrambled_causal=4&num_scrambled_schematic=4&participantId=164CFCF7AA2142BF8E980A3E25CC6FE4&assignmentId=aa80b3d9-95b2-4f8a-b67a-c5cb8818e738&projectId=5e631737-0fa4-44a6-b227-7ba1d7345015","164CFCF7AA2142BF8E980A3E25CC6FE4-2025-05-27-18-35-25","","null","","images/schematic_sequence/flight_scheme/flight_scheme_1.png","null","",""
"","","","","","image-button-response","108","663530","0.0-14.0-1.0-1.6","164CFCF7AA2142BF8E980A3E25CC6FE4","164CFCF7AA2142BF8E980A3E25CC6FE4","aa80b3d9-95b2-4f8a-b67a-c5cb8818e738","5e631737-0fa4-44a6-b227-7ba1d7345015","{""num_scrambled_semantic"":""8"",""num_scrambled_causal"":""4"",""num_scrambled_schematic"":""4"",""participantId"":""164CFCF7AA2142BF8E980A3E25CC6FE4"",""assignmentId"":""aa80b3d9-95b2-4f8a-b67a-c5cb8818e738"",""projectId"":""5e631737-0fa4-44a6-b227-7ba1d7345015""}","https://test12345.live/?num_scrambled_semantic=8&num_scrambled_causal=4&num_scrambled_schematic=4&participantId=164CFCF7AA2142BF8E980A3E25CC6FE4&assignmentId=aa80b3d9-95b2-4f8a-b67a-c5cb8818e738&projectId=5e631737-0fa4-44a6-b227-7ba1d7345015","164CFCF7AA2142BF8E980A3E25CC6FE4-2025-05-27-18-35-25","","944","","images/schematic_sequence/flight_scheme/flight_scheme_1.png","0","",""
"","","","","","image-button-response","109","665333","0.0-14.0-1.0-2.6","164CFCF7AA2142BF8E980A3E25CC6FE4","164CFCF7AA2142BF8E980A3E25CC6FE4","aa80b3d9-95b2-4f8a-b67a-c5cb8818e738","5e631737-0fa4-44a6-b227-7ba1d7345015","{""num_scrambled_semantic"":""8"",""num_scrambled_causal"":""4"",""num_scrambled_schematic"":""4"",""participantId"":""164CFCF7AA2142BF8E980A3E25CC6FE4"",""assignmentId"":""aa80b3d9-95b2-4f8a-b67a-c5cb8818e738"",""projectId"":""5e631737-0fa4-44a6-b227-7ba1d7345015""}","https://test12345.live/?num_scrambled_semantic=8&num_scrambled_causal=4&num_scrambled_schematic=4&participantId=164CFCF7AA2142BF8E980A3E25CC6FE4&assignmentId=aa80b3d9-95b2-4f8a-b67a-c5cb8818e738&projectId=5e631737-0fa4-44a6-b227-7ba1d7345015","164CFCF7AA2142BF8E980A3E25CC6FE4-2025-05-27-18-35-25","","null","","[]","null","",""
"","","","","","image-button-response","110","669849","0.0-14.0-1.0-0.7","164CFCF7AA2142BF8E980A3E25CC6FE4","164CFCF7AA2142BF8E980A3E25CC6FE4","aa80b3d9-95b2-4f8a-b67a-c5cb8818e738","5e631737-0fa4-44a6-b227-7ba1d7345015","{""num_scrambled_semantic"":""8"",""num_scrambled_causal"":""4"",""num_scrambled_schematic"":""4"",""participantId"":""164CFCF7AA2142BF8E980A3E25CC6FE4"",""assignmentId"":""aa80b3d9-95b2-4f8a-b67a-c5cb8818e738"",""projectId"":""5e631737-0fa4-44a6-b227-7ba1d7345015""}","https://test12345.live/?num_scrambled_semantic=8&num_scrambled_causal=4&num_scrambled_schematic=4&participantId=164CFCF7AA2142BF8E980A3E25CC6FE4&assignmentId=aa80b3d9-95b2-4f8a-b67a-c5cb8818e738&projectId=5e631737-0fa4-44a6-b227-7ba1d7345015","164CFCF7AA2142BF8E980A3E25CC6FE4-2025-05-27-18-35-25","","null","","images/schematic_sequence/flight_scheme/flight_scheme_ten.png","null","",""
"","","","","","image-button-response","111","672644","0.0-14.0-1.0-1.7","164CFCF7AA2142BF8E980A3E25CC6FE4","164CFCF7AA2142BF8E980A3E25CC6FE4","aa80b3d9-95b2-4f8a-b67a-c5cb8818e738","5e631737-0fa4-44a6-b227-7ba1d7345015","{""num_scrambled_semantic"":""8"",""num_scrambled_causal"":""4"",""num_scrambled_schematic"":""4"",""participantId"":""164CFCF7AA2142BF8E980A3E25CC6FE4"",""assignmentId"":""aa80b3d9-95b2-4f8a-b67a-c5cb8818e738"",""projectId"":""5e631737-0fa4-44a6-b227-7ba1d7345015""}","https://test12345.live/?num_scrambled_semantic=8&num_scrambled_causal=4&num_scrambled_schematic=4&participantId=164CFCF7AA2142BF8E980A3E25CC6FE4&assignmentId=aa80b3d9-95b2-4f8a-b67a-c5cb8818e738&projectId=5e631737-0fa4-44a6-b227-7ba1d7345015","164CFCF7AA2142BF8E980A3E25CC6FE4-2025-05-27-18-35-25","","2793","","images/schematic_sequence/flight_scheme/flight_scheme_ten.png","0","",""
"","","","","","image-button-response","112","674446","0.0-14.0-1.0-2.7","164CFCF7AA2142BF8E980A3E25CC6FE4","164CFCF7AA2142BF8E980A3E25CC6FE4","aa80b3d9-95b2-4f8a-b67a-c5cb8818e738","5e631737-0fa4-44a6-b227-7ba1d7345015","{""num_scrambled_semantic"":""8"",""num_scrambled_causal"":""4"",""num_scrambled_schematic"":""4"",""participantId"":""164CFCF7AA2142BF8E980A3E25CC6FE4"",""assignmentId"":""aa80b3d9-95b2-4f8a-b67a-c5cb8818e738"",""projectId"":""5e631737-0fa4-44a6-b227-7ba1d7345015""}","https://test12345.live/?num_scrambled_semantic=8&num_scrambled_causal=4&num_scrambled_schematic=4&participantId=164CFCF7AA2142BF8E980A3E25CC6FE4&assignmentId=aa80b3d9-95b2-4f8a-b67a-c5cb8818e738&projectId=5e631737-0fa4-44a6-b227-7ba1d7345015","164CFCF7AA2142BF8E980A3E25CC6FE4-2025-05-27-18-35-25","","null","","[]","null","",""
"","","","","","image-button-response","113","678959","0.0-14.0-1.0-0.8","164CFCF7AA2142BF8E980A3E25CC6FE4","164CFCF7AA2142BF8E980A3E25CC6FE4","aa80b3d9-95b2-4f8a-b67a-c5cb8818e738","5e631737-0fa4-44a6-b227-7ba1d7345015","{""num_scrambled_semantic"":""8"",""num_scrambled_causal"":""4"",""num_scrambled_schematic"":""4"",""participantId"":""164CFCF7AA2142BF8E980A3E25CC6FE4"",""assignmentId"":""aa80b3d9-95b2-4f8a-b67a-c5cb8818e738"",""projectId"":""5e631737-0fa4-44a6-b227-7ba1d7345015""}","https://test12345.live/?num_scrambled_semantic=8&num_scrambled_causal=4&num_scrambled_schematic=4&participantId=164CFCF7AA2142BF8E980A3E25CC6FE4&assignmentId=aa80b3d9-95b2-4f8a-b67a-c5cb8818e738&projectId=5e631737-0fa4-44a6-b227-7ba1d7345015","164CFCF7AA2142BF8E980A3E25CC6FE4-2025-05-27-18-35-25","","null","","images/schematic_sequence/flight_scheme/flight_scheme_3.png","null","",""
"","","","","","image-button-response","114","679993","0.0-14.0-1.0-1.8","164CFCF7AA2142BF8E980A3E25CC6FE4","164CFCF7AA2142BF8E980A3E25CC6FE4","aa80b3d9-95b2-4f8a-b67a-c5cb8818e738","5e631737-0fa4-44a6-b227-7ba1d7345015","{""num_scrambled_semantic"":""8"",""num_scrambled_causal"":""4"",""num_scrambled_schematic"":""4"",""participantId"":""164CFCF7AA2142BF8E980A3E25CC6FE4"",""assignmentId"":""aa80b3d9-95b2-4f8a-b67a-c5cb8818e738"",""projectId"":""5e631737-0fa4-44a6-b227-7ba1d7345015""}","https://test12345.live/?num_scrambled_semantic=8&num_scrambled_causal=4&num_scrambled_schematic=4&participantId=164CFCF7AA2142BF8E980A3E25CC6FE4&assignmentId=aa80b3d9-95b2-4f8a-b67a-c5cb8818e738&projectId=5e631737-0fa4-44a6-b227-7ba1d7345015","164CFCF7AA2142BF8E980A3E25CC6FE4-2025-05-27-18-35-25","","1033","","images/schematic_sequence/flight_scheme/flight_scheme_3.png","0","",""
