"success","timeout","failed_images","failed_audio","failed_video","trial_type","trial_index","time_elapsed","internal_node_id","subject","subject_id","study_id","session_id","urlvar","current_url","audio_id","view_history","rt","device_id","stimulus","response","estimated_stimulus_onset","seq_name"
"true","false","[]","[]","[]","preload","0","10855","0.0-0.0","164CFCF7AA2142BF8E980A3E25CC6FE4","164CFCF7AA2142BF8E980A3E25CC6FE4","e3698efa-036e-41f0-a296-0c43e1f36483","a9f3d40c-5730-405c-b25e-1034c4c56f3f","{""num_scrambled_semantic"":""8"",""num_scrambled_causal"":""4"",""num_scrambled_schematic"":""4"",""participantId"":""164CFCF7AA2142BF8E980A3E25CC6FE4"",""assignmentId"":""e3698efa-036e-41f0-a296-0c43e1f36483"",""projectId"":""a9f3d40c-5730-405c-b25e-1034c4c56f3f""}","https://test12345.live/?num_scrambled_semantic=8&num_scrambled_causal=4&num_scrambled_schematic=4&participantId=164CFCF7AA2142BF8E980A3E25CC6FE4&assignmentId=e3698efa-036e-41f0-a296-0c43e1f36483&projectId=a9f3d40c-5730-405c-b25e-1034c4c56f3f","164CFCF7AA2142BF8E980A3E25CC6FE4-2025-08-07-18-52-10","","","","","","",""
"","","","","","instructions","1","18743","0.0-1.0","164CFCF7AA2142BF8E980A3E25CC6FE4","164CFCF7AA2142BF8E980A3E25CC6FE4","e3698efa-036e-41f0-a296-0c43e1f36483","a9f3d40c-5730-405c-b25e-1034c4c56f3f","{""num_scrambled_semantic"":""8"",""num_scrambled_causal"":""4"",""num_scrambled_schematic"":""4"",""participantId"":""164CFCF7AA2142BF8E980A3E25CC6FE4"",""assignmentId"":""e3698efa-036e-41f0-a296-0c43e1f36483"",""projectId"":""a9f3d40c-5730-405c-b25e-1034c4c56f3f""}","https://test12345.live/?num_scrambled_semantic=8&num_scrambled_causal=4&num_scrambled_schematic=4&participantId=164CFCF7AA2142BF8E980A3E25CC6FE4&assignmentId=e3698efa-036e-41f0-a296-0c43e1f36483&projectId=a9f3d40c-5730-405c-b25e-1034c4c56f3f","164CFCF7AA2142BF8E980A3E25CC6FE4-2025-08-07-18-52-10","[{""page_index"":0,""viewing_time"":7887}]","7888","","","","",""
"","","","","","instructions","2","21263","0.0-2.0","164CFCF7AA2142BF8E980A3E25CC6FE4","164CFCF7AA2142BF8E980A3E25CC6FE4","e3698efa-036e-41f0-a296-0c43e1f36483","a9f3d40c-5730-405c-b25e-1034c4c56f3f","{""num_scrambled_semantic"":""8"",""num_scrambled_causal"":""4"",""num_scrambled_schematic"":""4"",""participantId"":""164CFCF7AA2142BF8E980A3E25CC6FE4"",""assignmentId"":""e3698efa-036e-41f0-a296-0c43e1f36483"",""projectId"":""a9f3d40c-5730-405c-b25e-1034c4c56f3f""}","https://test12345.live/?num_scrambled_semantic=8&num_scrambled_causal=4&num_scrambled_schematic=4&participantId=164CFCF7AA2142BF8E980A3E25CC6FE4&assignmentId=e3698efa-036e-41f0-a296-0c43e1f36483&projectId=a9f3d40c-5730-405c-b25e-1034c4c56f3f","164CFCF7AA2142BF8E980A3E25CC6FE4-2025-08-07-18-52-10","[{""page_index"":0,""viewing_time"":2520}]","2520","","","","",""
"true","","","","","fullscreen","3","23519","0.0-3.0","164CFCF7AA2142BF8E980A3E25CC6FE4","164CFCF7AA2142BF8E980A3E25CC6FE4","e3698efa-036e-41f0-a296-0c43e1f36483","a9f3d40c-5730-405c-b25e-1034c4c56f3f","{""num_scrambled_semantic"":""8"",""num_scrambled_causal"":""4"",""num_scrambled_schematic"":""4"",""participantId"":""164CFCF7AA2142BF8E980A3E25CC6FE4"",""assignmentId"":""e3698efa-036e-41f0-a296-0c43e1f36483"",""projectId"":""a9f3d40c-5730-405c-b25e-1034c4c56f3f""}","https://test12345.live/?num_scrambled_semantic=8&num_scrambled_causal=4&num_scrambled_schematic=4&participantId=164CFCF7AA2142BF8E980A3E25CC6FE4&assignmentId=e3698efa-036e-41f0-a296-0c43e1f36483&projectId=a9f3d40c-5730-405c-b25e-1034c4c56f3f","164CFCF7AA2142BF8E980A3E25CC6FE4-2025-08-07-18-52-10","","1245","","","","",""
"","","","","","initialize-microphone","4","42939","0.0-4.0-0.0","164CFCF7AA2142BF8E980A3E25CC6FE4","164CFCF7AA2142BF8E980A3E25CC6FE4","e3698efa-036e-41f0-a296-0c43e1f36483","a9f3d40c-5730-405c-b25e-1034c4c56f3f","{""num_scrambled_semantic"":""8"",""num_scrambled_causal"":""4"",""num_scrambled_schematic"":""4"",""participantId"":""164CFCF7AA2142BF8E980A3E25CC6FE4"",""assignmentId"":""e3698efa-036e-41f0-a296-0c43e1f36483"",""projectId"":""a9f3d40c-5730-405c-b25e-1034c4c56f3f""}","https://test12345.live/?num_scrambled_semantic=8&num_scrambled_causal=4&num_scrambled_schematic=4&participantId=164CFCF7AA2142BF8E980A3E25CC6FE4&assignmentId=e3698efa-036e-41f0-a296-0c43e1f36483&projectId=a9f3d40c-5730-405c-b25e-1034c4c56f3f","164CFCF7AA2142BF8E980A3E25CC6FE4-2025-08-07-18-52-10","","","dde954add507b234d11b7ec8958cd0b6387703ad1a52261e81e54be6f3cc5070","","","",""
"","","","","","html-audio-response","5","48017","0.0-4.0-1.0","164CFCF7AA2142BF8E980A3E25CC6FE4","164CFCF7AA2142BF8E980A3E25CC6FE4","e3698efa-036e-41f0-a296-0c43e1f36483","a9f3d40c-5730-405c-b25e-1034c4c56f3f","{""num_scrambled_semantic"":""8"",""num_scrambled_causal"":""4"",""num_scrambled_schematic"":""4"",""participantId"":""164CFCF7AA2142BF8E980A3E25CC6FE4"",""assignmentId"":""e3698efa-036e-41f0-a296-0c43e1f36483"",""projectId"":""a9f3d40c-5730-405c-b25e-1034c4c56f3f""}","https://test12345.live/?num_scrambled_semantic=8&num_scrambled_causal=4&num_scrambled_schematic=4&participantId=164CFCF7AA2142BF8E980A3E25CC6FE4&assignmentId=e3698efa-036e-41f0-a296-0c43e1f36483&projectId=a9f3d40c-5730-405c-b25e-1034c4c56f3f","164CFCF7AA2142BF8E980A3E25CC6FE4-2025-08-07-18-52-10","","2006","","<span style=""color: red; font-size: 24px""> NOW RECORDING</span>
        <p>Please test Microphone</p>","","17",""
"","","","","","html-button-response","6","49075","0.0-4.0-2.0","164CFCF7AA2142BF8E980A3E25CC6FE4","164CFCF7AA2142BF8E980A3E25CC6FE4","e3698efa-036e-41f0-a296-0c43e1f36483","a9f3d40c-5730-405c-b25e-1034c4c56f3f","{""num_scrambled_semantic"":""8"",""num_scrambled_causal"":""4"",""num_scrambled_schematic"":""4"",""participantId"":""164CFCF7AA2142BF8E980A3E25CC6FE4"",""assignmentId"":""e3698efa-036e-41f0-a296-0c43e1f36483"",""projectId"":""a9f3d40c-5730-405c-b25e-1034c4c56f3f""}","https://test12345.live/?num_scrambled_semantic=8&num_scrambled_causal=4&num_scrambled_schematic=4&participantId=164CFCF7AA2142BF8E980A3E25CC6FE4&assignmentId=e3698efa-036e-41f0-a296-0c43e1f36483&projectId=a9f3d40c-5730-405c-b25e-1034c4c56f3f","164CFCF7AA2142BF8E980A3E25CC6FE4-2025-08-07-18-52-10","","1057","","<p style=""font-size:48px; color:red;"">Is Microphone OK?</p>","1","",""
"","","","","","instructions","7","53590","0.0-5.0","164CFCF7AA2142BF8E980A3E25CC6FE4","164CFCF7AA2142BF8E980A3E25CC6FE4","e3698efa-036e-41f0-a296-0c43e1f36483","a9f3d40c-5730-405c-b25e-1034c4c56f3f","{""num_scrambled_semantic"":""8"",""num_scrambled_causal"":""4"",""num_scrambled_schematic"":""4"",""participantId"":""164CFCF7AA2142BF8E980A3E25CC6FE4"",""assignmentId"":""e3698efa-036e-41f0-a296-0c43e1f36483"",""projectId"":""a9f3d40c-5730-405c-b25e-1034c4c56f3f""}","https://test12345.live/?num_scrambled_semantic=8&num_scrambled_causal=4&num_scrambled_schematic=4&participantId=164CFCF7AA2142BF8E980A3E25CC6FE4&assignmentId=e3698efa-036e-41f0-a296-0c43e1f36483&projectId=a9f3d40c-5730-405c-b25e-1034c4c56f3f","164CFCF7AA2142BF8E980A3E25CC6FE4-2025-08-07-18-52-10","[{""page_index"":0,""viewing_time"":1965},{""page_index"":1,""viewing_time"":2550}]","4515","","","","",""
"","","","","","image-button-response","8","59592","0.0-6.0-0.0","164CFCF7AA2142BF8E980A3E25CC6FE4","164CFCF7AA2142BF8E980A3E25CC6FE4","e3698efa-036e-41f0-a296-0c43e1f36483","a9f3d40c-5730-405c-b25e-1034c4c56f3f","{""num_scrambled_semantic"":""8"",""num_scrambled_causal"":""4"",""num_scrambled_schematic"":""4"",""participantId"":""164CFCF7AA2142BF8E980A3E25CC6FE4"",""assignmentId"":""e3698efa-036e-41f0-a296-0c43e1f36483"",""projectId"":""a9f3d40c-5730-405c-b25e-1034c4c56f3f""}","https://test12345.live/?num_scrambled_semantic=8&num_scrambled_causal=4&num_scrambled_schematic=4&participantId=164CFCF7AA2142BF8E980A3E25CC6FE4&assignmentId=e3698efa-036e-41f0-a296-0c43e1f36483&projectId=a9f3d40c-5730-405c-b25e-1034c4c56f3f","164CFCF7AA2142BF8E980A3E25CC6FE4-2025-08-07-18-52-10","","null","","images/instructions/movie_0.png","null","",""
"","","","","","image-button-response","9","64104","0.0-6.0-1.0-0.0","164CFCF7AA2142BF8E980A3E25CC6FE4","164CFCF7AA2142BF8E980A3E25CC6FE4","e3698efa-036e-41f0-a296-0c43e1f36483","a9f3d40c-5730-405c-b25e-1034c4c56f3f","{""num_scrambled_semantic"":""8"",""num_scrambled_causal"":""4"",""num_scrambled_schematic"":""4"",""participantId"":""164CFCF7AA2142BF8E980A3E25CC6FE4"",""assignmentId"":""e3698efa-036e-41f0-a296-0c43e1f36483"",""projectId"":""a9f3d40c-5730-405c-b25e-1034c4c56f3f""}","https://test12345.live/?num_scrambled_semantic=8&num_scrambled_causal=4&num_scrambled_schematic=4&participantId=164CFCF7AA2142BF8E980A3E25CC6FE4&assignmentId=e3698efa-036e-41f0-a296-0c43e1f36483&projectId=a9f3d40c-5730-405c-b25e-1034c4c56f3f","164CFCF7AA2142BF8E980A3E25CC6FE4-2025-08-07-18-52-10","","null","","images/instructions/movie_1.png","null","",""
"","","","","","image-button-response","10","65995","0.0-6.0-1.0-1.0","164CFCF7AA2142BF8E980A3E25CC6FE4","164CFCF7AA2142BF8E980A3E25CC6FE4","e3698efa-036e-41f0-a296-0c43e1f36483","a9f3d40c-5730-405c-b25e-1034c4c56f3f","{""num_scrambled_semantic"":""8"",""num_scrambled_causal"":""4"",""num_scrambled_schematic"":""4"",""participantId"":""164CFCF7AA2142BF8E980A3E25CC6FE4"",""assignmentId"":""e3698efa-036e-41f0-a296-0c43e1f36483"",""projectId"":""a9f3d40c-5730-405c-b25e-1034c4c56f3f""}","https://test12345.live/?num_scrambled_semantic=8&num_scrambled_causal=4&num_scrambled_schematic=4&participantId=164CFCF7AA2142BF8E980A3E25CC6FE4&assignmentId=e3698efa-036e-41f0-a296-0c43e1f36483&projectId=a9f3d40c-5730-405c-b25e-1034c4c56f3f","164CFCF7AA2142BF8E980A3E25CC6FE4-2025-08-07-18-52-10","","1890","","images/instructions/movie_1.png","0","",""
"","","","","","image-button-response","11","67810","0.0-6.0-1.0-2.0","164CFCF7AA2142BF8E980A3E25CC6FE4","164CFCF7AA2142BF8E980A3E25CC6FE4","e3698efa-036e-41f0-a296-0c43e1f36483","a9f3d40c-5730-405c-b25e-1034c4c56f3f","{""num_scrambled_semantic"":""8"",""num_scrambled_causal"":""4"",""num_scrambled_schematic"":""4"",""participantId"":""164CFCF7AA2142BF8E980A3E25CC6FE4"",""assignmentId"":""e3698efa-036e-41f0-a296-0c43e1f36483"",""projectId"":""a9f3d40c-5730-405c-b25e-1034c4c56f3f""}","https://test12345.live/?num_scrambled_semantic=8&num_scrambled_causal=4&num_scrambled_schematic=4&participantId=164CFCF7AA2142BF8E980A3E25CC6FE4&assignmentId=e3698efa-036e-41f0-a296-0c43e1f36483&projectId=a9f3d40c-5730-405c-b25e-1034c4c56f3f","164CFCF7AA2142BF8E980A3E25CC6FE4-2025-08-07-18-52-10","","null","","[]","null","",""
"","","","","","image-button-response","12","72312","0.0-6.0-1.0-0.1","164CFCF7AA2142BF8E980A3E25CC6FE4","164CFCF7AA2142BF8E980A3E25CC6FE4","e3698efa-036e-41f0-a296-0c43e1f36483","a9f3d40c-5730-405c-b25e-1034c4c56f3f","{""num_scrambled_semantic"":""8"",""num_scrambled_causal"":""4"",""num_scrambled_schematic"":""4"",""participantId"":""164CFCF7AA2142BF8E980A3E25CC6FE4"",""assignmentId"":""e3698efa-036e-41f0-a296-0c43e1f36483"",""projectId"":""a9f3d40c-5730-405c-b25e-1034c4c56f3f""}","https://test12345.live/?num_scrambled_semantic=8&num_scrambled_causal=4&num_scrambled_schematic=4&participantId=164CFCF7AA2142BF8E980A3E25CC6FE4&assignmentId=e3698efa-036e-41f0-a296-0c43e1f36483&projectId=a9f3d40c-5730-405c-b25e-1034c4c56f3f","164CFCF7AA2142BF8E980A3E25CC6FE4-2025-08-07-18-52-10","","null","","images/instructions/movie_2.png","null","",""
"","","","","","image-button-response","13","75047","0.0-6.0-1.0-1.1","164CFCF7AA2142BF8E980A3E25CC6FE4","164CFCF7AA2142BF8E980A3E25CC6FE4","e3698efa-036e-41f0-a296-0c43e1f36483","a9f3d40c-5730-405c-b25e-1034c4c56f3f","{""num_scrambled_semantic"":""8"",""num_scrambled_causal"":""4"",""num_scrambled_schematic"":""4"",""participantId"":""164CFCF7AA2142BF8E980A3E25CC6FE4"",""assignmentId"":""e3698efa-036e-41f0-a296-0c43e1f36483"",""projectId"":""a9f3d40c-5730-405c-b25e-1034c4c56f3f""}","https://test12345.live/?num_scrambled_semantic=8&num_scrambled_causal=4&num_scrambled_schematic=4&participantId=164CFCF7AA2142BF8E980A3E25CC6FE4&assignmentId=e3698efa-036e-41f0-a296-0c43e1f36483&projectId=a9f3d40c-5730-405c-b25e-1034c4c56f3f","164CFCF7AA2142BF8E980A3E25CC6FE4-2025-08-07-18-52-10","","2735","","images/instructions/movie_2.png","1","",""
"","","","","","image-button-response","14","76858","0.0-6.0-1.0-2.1","164CFCF7AA2142BF8E980A3E25CC6FE4","164CFCF7AA2142BF8E980A3E25CC6FE4","e3698efa-036e-41f0-a296-0c43e1f36483","a9f3d40c-5730-405c-b25e-1034c4c56f3f","{""num_scrambled_semantic"":""8"",""num_scrambled_causal"":""4"",""num_scrambled_schematic"":""4"",""participantId"":""164CFCF7AA2142BF8E980A3E25CC6FE4"",""assignmentId"":""e3698efa-036e-41f0-a296-0c43e1f36483"",""projectId"":""a9f3d40c-5730-405c-b25e-1034c4c56f3f""}","https://test12345.live/?num_scrambled_semantic=8&num_scrambled_causal=4&num_scrambled_schematic=4&participantId=164CFCF7AA2142BF8E980A3E25CC6FE4&assignmentId=e3698efa-036e-41f0-a296-0c43e1f36483&projectId=a9f3d40c-5730-405c-b25e-1034c4c56f3f","164CFCF7AA2142BF8E980A3E25CC6FE4-2025-08-07-18-52-10","","null","","[]","null","",""
"","","","","","image-button-response","15","81360","0.0-6.0-1.0-0.2","164CFCF7AA2142BF8E980A3E25CC6FE4","164CFCF7AA2142BF8E980A3E25CC6FE4","e3698efa-036e-41f0-a296-0c43e1f36483","a9f3d40c-5730-405c-b25e-1034c4c56f3f","{""num_scrambled_semantic"":""8"",""num_scrambled_causal"":""4"",""num_scrambled_schematic"":""4"",""participantId"":""164CFCF7AA2142BF8E980A3E25CC6FE4"",""assignmentId"":""e3698efa-036e-41f0-a296-0c43e1f36483"",""projectId"":""a9f3d40c-5730-405c-b25e-1034c4c56f3f""}","https://test12345.live/?num_scrambled_semantic=8&num_scrambled_causal=4&num_scrambled_schematic=4&participantId=164CFCF7AA2142BF8E980A3E25CC6FE4&assignmentId=e3698efa-036e-41f0-a296-0c43e1f36483&projectId=a9f3d40c-5730-405c-b25e-1034c4c56f3f","164CFCF7AA2142BF8E980A3E25CC6FE4-2025-08-07-18-52-10","","null","","images/instructions/movie_3.png","null","",""
"","","","","","image-button-response","16","82008","0.0-6.0-1.0-1.2","164CFCF7AA2142BF8E980A3E25CC6FE4","164CFCF7AA2142BF8E980A3E25CC6FE4","e3698efa-036e-41f0-a296-0c43e1f36483","a9f3d40c-5730-405c-b25e-1034c4c56f3f","{""num_scrambled_semantic"":""8"",""num_scrambled_causal"":""4"",""num_scrambled_schematic"":""4"",""participantId"":""164CFCF7AA2142BF8E980A3E25CC6FE4"",""assignmentId"":""e3698efa-036e-41f0-a296-0c43e1f36483"",""projectId"":""a9f3d40c-5730-405c-b25e-1034c4c56f3f""}","https://test12345.live/?num_scrambled_semantic=8&num_scrambled_causal=4&num_scrambled_schematic=4&participantId=164CFCF7AA2142BF8E980A3E25CC6FE4&assignmentId=e3698efa-036e-41f0-a296-0c43e1f36483&projectId=a9f3d40c-5730-405c-b25e-1034c4c56f3f","164CFCF7AA2142BF8E980A3E25CC6FE4-2025-08-07-18-52-10","","647","","images/instructions/movie_3.png","0","",""
"","","","","","image-button-response","17","83821","0.0-6.0-1.0-2.2","164CFCF7AA2142BF8E980A3E25CC6FE4","164CFCF7AA2142BF8E980A3E25CC6FE4","e3698efa-036e-41f0-a296-0c43e1f36483","a9f3d40c-5730-405c-b25e-1034c4c56f3f","{""num_scrambled_semantic"":""8"",""num_scrambled_causal"":""4"",""num_scrambled_schematic"":""4"",""participantId"":""164CFCF7AA2142BF8E980A3E25CC6FE4"",""assignmentId"":""e3698efa-036e-41f0-a296-0c43e1f36483"",""projectId"":""a9f3d40c-5730-405c-b25e-1034c4c56f3f""}","https://test12345.live/?num_scrambled_semantic=8&num_scrambled_causal=4&num_scrambled_schematic=4&participantId=164CFCF7AA2142BF8E980A3E25CC6FE4&assignmentId=e3698efa-036e-41f0-a296-0c43e1f36483&projectId=a9f3d40c-5730-405c-b25e-1034c4c56f3f","164CFCF7AA2142BF8E980A3E25CC6FE4-2025-08-07-18-52-10","","null","","[]","null","",""
"","","","","","image-button-response","18","88329","0.0-6.0-1.0-0.3","164CFCF7AA2142BF8E980A3E25CC6FE4","164CFCF7AA2142BF8E980A3E25CC6FE4","e3698efa-036e-41f0-a296-0c43e1f36483","a9f3d40c-5730-405c-b25e-1034c4c56f3f","{""num_scrambled_semantic"":""8"",""num_scrambled_causal"":""4"",""num_scrambled_schematic"":""4"",""participantId"":""164CFCF7AA2142BF8E980A3E25CC6FE4"",""assignmentId"":""e3698efa-036e-41f0-a296-0c43e1f36483"",""projectId"":""a9f3d40c-5730-405c-b25e-1034c4c56f3f""}","https://test12345.live/?num_scrambled_semantic=8&num_scrambled_causal=4&num_scrambled_schematic=4&participantId=164CFCF7AA2142BF8E980A3E25CC6FE4&assignmentId=e3698efa-036e-41f0-a296-0c43e1f36483&projectId=a9f3d40c-5730-405c-b25e-1034c4c56f3f","164CFCF7AA2142BF8E980A3E25CC6FE4-2025-08-07-18-52-10","","null","","images/instructions/movie_4.png","null","",""
"","","","","","image-button-response","19","90049","0.0-6.0-1.0-1.3","164CFCF7AA2142BF8E980A3E25CC6FE4","164CFCF7AA2142BF8E980A3E25CC6FE4","e3698efa-036e-41f0-a296-0c43e1f36483","a9f3d40c-5730-405c-b25e-1034c4c56f3f","{""num_scrambled_semantic"":""8"",""num_scrambled_causal"":""4"",""num_scrambled_schematic"":""4"",""participantId"":""164CFCF7AA2142BF8E980A3E25CC6FE4"",""assignmentId"":""e3698efa-036e-41f0-a296-0c43e1f36483"",""projectId"":""a9f3d40c-5730-405c-b25e-1034c4c56f3f""}","https://test12345.live/?num_scrambled_semantic=8&num_scrambled_causal=4&num_scrambled_schematic=4&participantId=164CFCF7AA2142BF8E980A3E25CC6FE4&assignmentId=e3698efa-036e-41f0-a296-0c43e1f36483&projectId=a9f3d40c-5730-405c-b25e-1034c4c56f3f","164CFCF7AA2142BF8E980A3E25CC6FE4-2025-08-07-18-52-10","","1719","","images/instructions/movie_4.png","0","",""
"","","","","","image-button-response","20","91850","0.0-6.0-1.0-2.3","164CFCF7AA2142BF8E980A3E25CC6FE4","164CFCF7AA2142BF8E980A3E25CC6FE4","e3698efa-036e-41f0-a296-0c43e1f36483","a9f3d40c-5730-405c-b25e-1034c4c56f3f","{""num_scrambled_semantic"":""8"",""num_scrambled_causal"":""4"",""num_scrambled_schematic"":""4"",""participantId"":""164CFCF7AA2142BF8E980A3E25CC6FE4"",""assignmentId"":""e3698efa-036e-41f0-a296-0c43e1f36483"",""projectId"":""a9f3d40c-5730-405c-b25e-1034c4c56f3f""}","https://test12345.live/?num_scrambled_semantic=8&num_scrambled_causal=4&num_scrambled_schematic=4&participantId=164CFCF7AA2142BF8E980A3E25CC6FE4&assignmentId=e3698efa-036e-41f0-a296-0c43e1f36483&projectId=a9f3d40c-5730-405c-b25e-1034c4c56f3f","164CFCF7AA2142BF8E980A3E25CC6FE4-2025-08-07-18-52-10","","null","","[]","null","",""
"","","","","","instructions","21","96604","0.0-7.0","164CFCF7AA2142BF8E980A3E25CC6FE4","164CFCF7AA2142BF8E980A3E25CC6FE4","e3698efa-036e-41f0-a296-0c43e1f36483","a9f3d40c-5730-405c-b25e-1034c4c56f3f","{""num_scrambled_semantic"":""8"",""num_scrambled_causal"":""4"",""num_scrambled_schematic"":""4"",""participantId"":""164CFCF7AA2142BF8E980A3E25CC6FE4"",""assignmentId"":""e3698efa-036e-41f0-a296-0c43e1f36483"",""projectId"":""a9f3d40c-5730-405c-b25e-1034c4c56f3f""}","https://test12345.live/?num_scrambled_semantic=8&num_scrambled_causal=4&num_scrambled_schematic=4&participantId=164CFCF7AA2142BF8E980A3E25CC6FE4&assignmentId=e3698efa-036e-41f0-a296-0c43e1f36483&projectId=a9f3d40c-5730-405c-b25e-1034c4c56f3f","164CFCF7AA2142BF8E980A3E25CC6FE4-2025-08-07-18-52-10","[{""page_index"":0,""viewing_time"":2953},{""page_index"":1,""viewing_time"":1800}]","4753","","","","",""
"","","","","","html-audio-response","22","109759","0.0-8.0","164CFCF7AA2142BF8E980A3E25CC6FE4","164CFCF7AA2142BF8E980A3E25CC6FE4","e3698efa-036e-41f0-a296-0c43e1f36483","a9f3d40c-5730-405c-b25e-1034c4c56f3f","{""num_scrambled_semantic"":""8"",""num_scrambled_causal"":""4"",""num_scrambled_schematic"":""4"",""participantId"":""164CFCF7AA2142BF8E980A3E25CC6FE4"",""assignmentId"":""e3698efa-036e-41f0-a296-0c43e1f36483"",""projectId"":""a9f3d40c-5730-405c-b25e-1034c4c56f3f""}","https://test12345.live/?num_scrambled_semantic=8&num_scrambled_causal=4&num_scrambled_schematic=4&participantId=164CFCF7AA2142BF8E980A3E25CC6FE4&assignmentId=e3698efa-036e-41f0-a296-0c43e1f36483&projectId=a9f3d40c-5730-405c-b25e-1034c4c56f3f","164CFCF7AA2142BF8E980A3E25CC6FE4-2025-08-07-18-52-10","","11743","","[""<span style=\""color: red; font-size: 24px\""> NOW RECORDING</span><p>Please say out loud all the images you saw, as many as you can remember. The images can be said in any order.</p>""]","","1",""
"","","","","","instructions","23","110441","0.0-9.0","164CFCF7AA2142BF8E980A3E25CC6FE4","164CFCF7AA2142BF8E980A3E25CC6FE4","e3698efa-036e-41f0-a296-0c43e1f36483","a9f3d40c-5730-405c-b25e-1034c4c56f3f","{""num_scrambled_semantic"":""8"",""num_scrambled_causal"":""4"",""num_scrambled_schematic"":""4"",""participantId"":""164CFCF7AA2142BF8E980A3E25CC6FE4"",""assignmentId"":""e3698efa-036e-41f0-a296-0c43e1f36483"",""projectId"":""a9f3d40c-5730-405c-b25e-1034c4c56f3f""}","https://test12345.live/?num_scrambled_semantic=8&num_scrambled_causal=4&num_scrambled_schematic=4&participantId=164CFCF7AA2142BF8E980A3E25CC6FE4&assignmentId=e3698efa-036e-41f0-a296-0c43e1f36483&projectId=a9f3d40c-5730-405c-b25e-1034c4c56f3f","164CFCF7AA2142BF8E980A3E25CC6FE4-2025-08-07-18-52-10","[{""page_index"":0,""viewing_time"":681}]","681","","","","",""
"","","","","","image-button-response","24","116446","0.0-10.0-0.0","164CFCF7AA2142BF8E980A3E25CC6FE4","164CFCF7AA2142BF8E980A3E25CC6FE4","e3698efa-036e-41f0-a296-0c43e1f36483","a9f3d40c-5730-405c-b25e-1034c4c56f3f","{""num_scrambled_semantic"":""8"",""num_scrambled_causal"":""4"",""num_scrambled_schematic"":""4"",""participantId"":""164CFCF7AA2142BF8E980A3E25CC6FE4"",""assignmentId"":""e3698efa-036e-41f0-a296-0c43e1f36483"",""projectId"":""a9f3d40c-5730-405c-b25e-1034c4c56f3f""}","https://test12345.live/?num_scrambled_semantic=8&num_scrambled_causal=4&num_scrambled_schematic=4&participantId=164CFCF7AA2142BF8E980A3E25CC6FE4&assignmentId=e3698efa-036e-41f0-a296-0c43e1f36483&projectId=a9f3d40c-5730-405c-b25e-1034c4c56f3f","164CFCF7AA2142BF8E980A3E25CC6FE4-2025-08-07-18-52-10","","null","","images/causal_sequence/dog_causal/dog_causal_0.png","null","",""
"","","","","","image-button-response","25","120947","0.0-10.0-1.0-0.0","164CFCF7AA2142BF8E980A3E25CC6FE4","164CFCF7AA2142BF8E980A3E25CC6FE4","e3698efa-036e-41f0-a296-0c43e1f36483","a9f3d40c-5730-405c-b25e-1034c4c56f3f","{""num_scrambled_semantic"":""8"",""num_scrambled_causal"":""4"",""num_scrambled_schematic"":""4"",""participantId"":""164CFCF7AA2142BF8E980A3E25CC6FE4"",""assignmentId"":""e3698efa-036e-41f0-a296-0c43e1f36483"",""projectId"":""a9f3d40c-5730-405c-b25e-1034c4c56f3f""}","https://test12345.live/?num_scrambled_semantic=8&num_scrambled_causal=4&num_scrambled_schematic=4&participantId=164CFCF7AA2142BF8E980A3E25CC6FE4&assignmentId=e3698efa-036e-41f0-a296-0c43e1f36483&projectId=a9f3d40c-5730-405c-b25e-1034c4c56f3f","164CFCF7AA2142BF8E980A3E25CC6FE4-2025-08-07-18-52-10","","null","","images/causal_sequence/dog_causal/dog_causal_1.png","null","",""
"","","","","","image-button-response","26","122884","0.0-10.0-1.0-1.0","164CFCF7AA2142BF8E980A3E25CC6FE4","164CFCF7AA2142BF8E980A3E25CC6FE4","e3698efa-036e-41f0-a296-0c43e1f36483","a9f3d40c-5730-405c-b25e-1034c4c56f3f","{""num_scrambled_semantic"":""8"",""num_scrambled_causal"":""4"",""num_scrambled_schematic"":""4"",""participantId"":""164CFCF7AA2142BF8E980A3E25CC6FE4"",""assignmentId"":""e3698efa-036e-41f0-a296-0c43e1f36483"",""projectId"":""a9f3d40c-5730-405c-b25e-1034c4c56f3f""}","https://test12345.live/?num_scrambled_semantic=8&num_scrambled_causal=4&num_scrambled_schematic=4&participantId=164CFCF7AA2142BF8E980A3E25CC6FE4&assignmentId=e3698efa-036e-41f0-a296-0c43e1f36483&projectId=a9f3d40c-5730-405c-b25e-1034c4c56f3f","164CFCF7AA2142BF8E980A3E25CC6FE4-2025-08-07-18-52-10","","1936","","images/causal_sequence/dog_causal/dog_causal_1.png","0","",""
"","","","","","image-button-response","27","124700","0.0-10.0-1.0-2.0","164CFCF7AA2142BF8E980A3E25CC6FE4","164CFCF7AA2142BF8E980A3E25CC6FE4","e3698efa-036e-41f0-a296-0c43e1f36483","a9f3d40c-5730-405c-b25e-1034c4c56f3f","{""num_scrambled_semantic"":""8"",""num_scrambled_causal"":""4"",""num_scrambled_schematic"":""4"",""participantId"":""164CFCF7AA2142BF8E980A3E25CC6FE4"",""assignmentId"":""e3698efa-036e-41f0-a296-0c43e1f36483"",""projectId"":""a9f3d40c-5730-405c-b25e-1034c4c56f3f""}","https://test12345.live/?num_scrambled_semantic=8&num_scrambled_causal=4&num_scrambled_schematic=4&participantId=164CFCF7AA2142BF8E980A3E25CC6FE4&assignmentId=e3698efa-036e-41f0-a296-0c43e1f36483&projectId=a9f3d40c-5730-405c-b25e-1034c4c56f3f","164CFCF7AA2142BF8E980A3E25CC6FE4-2025-08-07-18-52-10","","null","","[]","null","",""
"","","","","","image-button-response","28","129209","0.0-10.0-1.0-0.1","164CFCF7AA2142BF8E980A3E25CC6FE4","164CFCF7AA2142BF8E980A3E25CC6FE4","e3698efa-036e-41f0-a296-0c43e1f36483","a9f3d40c-5730-405c-b25e-1034c4c56f3f","{""num_scrambled_semantic"":""8"",""num_scrambled_causal"":""4"",""num_scrambled_schematic"":""4"",""participantId"":""164CFCF7AA2142BF8E980A3E25CC6FE4"",""assignmentId"":""e3698efa-036e-41f0-a296-0c43e1f36483"",""projectId"":""a9f3d40c-5730-405c-b25e-1034c4c56f3f""}","https://test12345.live/?num_scrambled_semantic=8&num_scrambled_causal=4&num_scrambled_schematic=4&participantId=164CFCF7AA2142BF8E980A3E25CC6FE4&assignmentId=e3698efa-036e-41f0-a296-0c43e1f36483&projectId=a9f3d40c-5730-405c-b25e-1034c4c56f3f","164CFCF7AA2142BF8E980A3E25CC6FE4-2025-08-07-18-52-10","","null","","images/causal_sequence/dog_causal/dog_causal_2.png","null","",""
"","","","","","image-button-response","29","129694","0.0-10.0-1.0-1.1","164CFCF7AA2142BF8E980A3E25CC6FE4","164CFCF7AA2142BF8E980A3E25CC6FE4","e3698efa-036e-41f0-a296-0c43e1f36483","a9f3d40c-5730-405c-b25e-1034c4c56f3f","{""num_scrambled_semantic"":""8"",""num_scrambled_causal"":""4"",""num_scrambled_schematic"":""4"",""participantId"":""164CFCF7AA2142BF8E980A3E25CC6FE4"",""assignmentId"":""e3698efa-036e-41f0-a296-0c43e1f36483"",""projectId"":""a9f3d40c-5730-405c-b25e-1034c4c56f3f""}","https://test12345.live/?num_scrambled_semantic=8&num_scrambled_causal=4&num_scrambled_schematic=4&participantId=164CFCF7AA2142BF8E980A3E25CC6FE4&assignmentId=e3698efa-036e-41f0-a296-0c43e1f36483&projectId=a9f3d40c-5730-405c-b25e-1034c4c56f3f","164CFCF7AA2142BF8E980A3E25CC6FE4-2025-08-07-18-52-10","","485","","images/causal_sequence/dog_causal/dog_causal_2.png","0","",""
"","","","","","image-button-response","30","131500","0.0-10.0-1.0-2.1","164CFCF7AA2142BF8E980A3E25CC6FE4","164CFCF7AA2142BF8E980A3E25CC6FE4","e3698efa-036e-41f0-a296-0c43e1f36483","a9f3d40c-5730-405c-b25e-1034c4c56f3f","{""num_scrambled_semantic"":""8"",""num_scrambled_causal"":""4"",""num_scrambled_schematic"":""4"",""participantId"":""164CFCF7AA2142BF8E980A3E25CC6FE4"",""assignmentId"":""e3698efa-036e-41f0-a296-0c43e1f36483"",""projectId"":""a9f3d40c-5730-405c-b25e-1034c4c56f3f""}","https://test12345.live/?num_scrambled_semantic=8&num_scrambled_causal=4&num_scrambled_schematic=4&participantId=164CFCF7AA2142BF8E980A3E25CC6FE4&assignmentId=e3698efa-036e-41f0-a296-0c43e1f36483&projectId=a9f3d40c-5730-405c-b25e-1034c4c56f3f","164CFCF7AA2142BF8E980A3E25CC6FE4-2025-08-07-18-52-10","","null","","[]","null","",""
"","","","","","image-button-response","31","136001","0.0-10.0-1.0-0.2","164CFCF7AA2142BF8E980A3E25CC6FE4","164CFCF7AA2142BF8E980A3E25CC6FE4","e3698efa-036e-41f0-a296-0c43e1f36483","a9f3d40c-5730-405c-b25e-1034c4c56f3f","{""num_scrambled_semantic"":""8"",""num_scrambled_causal"":""4"",""num_scrambled_schematic"":""4"",""participantId"":""164CFCF7AA2142BF8E980A3E25CC6FE4"",""assignmentId"":""e3698efa-036e-41f0-a296-0c43e1f36483"",""projectId"":""a9f3d40c-5730-405c-b25e-1034c4c56f3f""}","https://test12345.live/?num_scrambled_semantic=8&num_scrambled_causal=4&num_scrambled_schematic=4&participantId=164CFCF7AA2142BF8E980A3E25CC6FE4&assignmentId=e3698efa-036e-41f0-a296-0c43e1f36483&projectId=a9f3d40c-5730-405c-b25e-1034c4c56f3f","164CFCF7AA2142BF8E980A3E25CC6FE4-2025-08-07-18-52-10","","null","","images/causal_sequence/dog_causal/dog_causal_3.png","null","",""
"","","","","","image-button-response","32","137345","0.0-10.0-1.0-1.2","164CFCF7AA2142BF8E980A3E25CC6FE4","164CFCF7AA2142BF8E980A3E25CC6FE4","e3698efa-036e-41f0-a296-0c43e1f36483","a9f3d40c-5730-405c-b25e-1034c4c56f3f","{""num_scrambled_semantic"":""8"",""num_scrambled_causal"":""4"",""num_scrambled_schematic"":""4"",""participantId"":""164CFCF7AA2142BF8E980A3E25CC6FE4"",""assignmentId"":""e3698efa-036e-41f0-a296-0c43e1f36483"",""projectId"":""a9f3d40c-5730-405c-b25e-1034c4c56f3f""}","https://test12345.live/?num_scrambled_semantic=8&num_scrambled_causal=4&num_scrambled_schematic=4&participantId=164CFCF7AA2142BF8E980A3E25CC6FE4&assignmentId=e3698efa-036e-41f0-a296-0c43e1f36483&projectId=a9f3d40c-5730-405c-b25e-1034c4c56f3f","164CFCF7AA2142BF8E980A3E25CC6FE4-2025-08-07-18-52-10","","1343","","images/causal_sequence/dog_causal/dog_causal_3.png","0","",""
"","","","","","image-button-response","33","139146","0.0-10.0-1.0-2.2","164CFCF7AA2142BF8E980A3E25CC6FE4","164CFCF7AA2142BF8E980A3E25CC6FE4","e3698efa-036e-41f0-a296-0c43e1f36483","a9f3d40c-5730-405c-b25e-1034c4c56f3f","{""num_scrambled_semantic"":""8"",""num_scrambled_causal"":""4"",""num_scrambled_schematic"":""4"",""participantId"":""164CFCF7AA2142BF8E980A3E25CC6FE4"",""assignmentId"":""e3698efa-036e-41f0-a296-0c43e1f36483"",""projectId"":""a9f3d40c-5730-405c-b25e-1034c4c56f3f""}","https://test12345.live/?num_scrambled_semantic=8&num_scrambled_causal=4&num_scrambled_schematic=4&participantId=164CFCF7AA2142BF8E980A3E25CC6FE4&assignmentId=e3698efa-036e-41f0-a296-0c43e1f36483&projectId=a9f3d40c-5730-405c-b25e-1034c4c56f3f","164CFCF7AA2142BF8E980A3E25CC6FE4-2025-08-07-18-52-10","","null","","[]","null","",""
"","","","","","image-button-response","34","143651","0.0-10.0-1.0-0.3","164CFCF7AA2142BF8E980A3E25CC6FE4","164CFCF7AA2142BF8E980A3E25CC6FE4","e3698efa-036e-41f0-a296-0c43e1f36483","a9f3d40c-5730-405c-b25e-1034c4c56f3f","{""num_scrambled_semantic"":""8"",""num_scrambled_causal"":""4"",""num_scrambled_schematic"":""4"",""participantId"":""164CFCF7AA2142BF8E980A3E25CC6FE4"",""assignmentId"":""e3698efa-036e-41f0-a296-0c43e1f36483"",""projectId"":""a9f3d40c-5730-405c-b25e-1034c4c56f3f""}","https://test12345.live/?num_scrambled_semantic=8&num_scrambled_causal=4&num_scrambled_schematic=4&participantId=164CFCF7AA2142BF8E980A3E25CC6FE4&assignmentId=e3698efa-036e-41f0-a296-0c43e1f36483&projectId=a9f3d40c-5730-405c-b25e-1034c4c56f3f","164CFCF7AA2142BF8E980A3E25CC6FE4-2025-08-07-18-52-10","","null","","images/causal_sequence/dog_causal/dog_causal_4.png","null","",""
"","","","","","image-button-response","35","144507","0.0-10.0-1.0-1.3","164CFCF7AA2142BF8E980A3E25CC6FE4","164CFCF7AA2142BF8E980A3E25CC6FE4","e3698efa-036e-41f0-a296-0c43e1f36483","a9f3d40c-5730-405c-b25e-1034c4c56f3f","{""num_scrambled_semantic"":""8"",""num_scrambled_causal"":""4"",""num_scrambled_schematic"":""4"",""participantId"":""164CFCF7AA2142BF8E980A3E25CC6FE4"",""assignmentId"":""e3698efa-036e-41f0-a296-0c43e1f36483"",""projectId"":""a9f3d40c-5730-405c-b25e-1034c4c56f3f""}","https://test12345.live/?num_scrambled_semantic=8&num_scrambled_causal=4&num_scrambled_schematic=4&participantId=164CFCF7AA2142BF8E980A3E25CC6FE4&assignmentId=e3698efa-036e-41f0-a296-0c43e1f36483&projectId=a9f3d40c-5730-405c-b25e-1034c4c56f3f","164CFCF7AA2142BF8E980A3E25CC6FE4-2025-08-07-18-52-10","","855","","images/causal_sequence/dog_causal/dog_causal_4.png","0","",""
"","","","","","image-button-response","36","146316","0.0-10.0-1.0-2.3","164CFCF7AA2142BF8E980A3E25CC6FE4","164CFCF7AA2142BF8E980A3E25CC6FE4","e3698efa-036e-41f0-a296-0c43e1f36483","a9f3d40c-5730-405c-b25e-1034c4c56f3f","{""num_scrambled_semantic"":""8"",""num_scrambled_causal"":""4"",""num_scrambled_schematic"":""4"",""participantId"":""164CFCF7AA2142BF8E980A3E25CC6FE4"",""assignmentId"":""e3698efa-036e-41f0-a296-0c43e1f36483"",""projectId"":""a9f3d40c-5730-405c-b25e-1034c4c56f3f""}","https://test12345.live/?num_scrambled_semantic=8&num_scrambled_causal=4&num_scrambled_schematic=4&participantId=164CFCF7AA2142BF8E980A3E25CC6FE4&assignmentId=e3698efa-036e-41f0-a296-0c43e1f36483&projectId=a9f3d40c-5730-405c-b25e-1034c4c56f3f","164CFCF7AA2142BF8E980A3E25CC6FE4-2025-08-07-18-52-10","","null","","[]","null","",""
"","","","","","image-button-response","37","150816","0.0-10.0-1.0-0.4","164CFCF7AA2142BF8E980A3E25CC6FE4","164CFCF7AA2142BF8E980A3E25CC6FE4","e3698efa-036e-41f0-a296-0c43e1f36483","a9f3d40c-5730-405c-b25e-1034c4c56f3f","{""num_scrambled_semantic"":""8"",""num_scrambled_causal"":""4"",""num_scrambled_schematic"":""4"",""participantId"":""164CFCF7AA2142BF8E980A3E25CC6FE4"",""assignmentId"":""e3698efa-036e-41f0-a296-0c43e1f36483"",""projectId"":""a9f3d40c-5730-405c-b25e-1034c4c56f3f""}","https://test12345.live/?num_scrambled_semantic=8&num_scrambled_causal=4&num_scrambled_schematic=4&participantId=164CFCF7AA2142BF8E980A3E25CC6FE4&assignmentId=e3698efa-036e-41f0-a296-0c43e1f36483&projectId=a9f3d40c-5730-405c-b25e-1034c4c56f3f","164CFCF7AA2142BF8E980A3E25CC6FE4-2025-08-07-18-52-10","","null","","images/causal_sequence/dog_causal/dog_causal_5.png","null","",""
"","","","","","image-button-response","38","153283","0.0-10.0-1.0-1.4","164CFCF7AA2142BF8E980A3E25CC6FE4","164CFCF7AA2142BF8E980A3E25CC6FE4","e3698efa-036e-41f0-a296-0c43e1f36483","a9f3d40c-5730-405c-b25e-1034c4c56f3f","{""num_scrambled_semantic"":""8"",""num_scrambled_causal"":""4"",""num_scrambled_schematic"":""4"",""participantId"":""164CFCF7AA2142BF8E980A3E25CC6FE4"",""assignmentId"":""e3698efa-036e-41f0-a296-0c43e1f36483"",""projectId"":""a9f3d40c-5730-405c-b25e-1034c4c56f3f""}","https://test12345.live/?num_scrambled_semantic=8&num_scrambled_causal=4&num_scrambled_schematic=4&participantId=164CFCF7AA2142BF8E980A3E25CC6FE4&assignmentId=e3698efa-036e-41f0-a296-0c43e1f36483&projectId=a9f3d40c-5730-405c-b25e-1034c4c56f3f","164CFCF7AA2142BF8E980A3E25CC6FE4-2025-08-07-18-52-10","","2466","","images/causal_sequence/dog_causal/dog_causal_5.png","0","",""
"","","","","","image-button-response","39","155087","0.0-10.0-1.0-2.4","164CFCF7AA2142BF8E980A3E25CC6FE4","164CFCF7AA2142BF8E980A3E25CC6FE4","e3698efa-036e-41f0-a296-0c43e1f36483","a9f3d40c-5730-405c-b25e-1034c4c56f3f","{""num_scrambled_semantic"":""8"",""num_scrambled_causal"":""4"",""num_scrambled_schematic"":""4"",""participantId"":""164CFCF7AA2142BF8E980A3E25CC6FE4"",""assignmentId"":""e3698efa-036e-41f0-a296-0c43e1f36483"",""projectId"":""a9f3d40c-5730-405c-b25e-1034c4c56f3f""}","https://test12345.live/?num_scrambled_semantic=8&num_scrambled_causal=4&num_scrambled_schematic=4&participantId=164CFCF7AA2142BF8E980A3E25CC6FE4&assignmentId=e3698efa-036e-41f0-a296-0c43e1f36483&projectId=a9f3d40c-5730-405c-b25e-1034c4c56f3f","164CFCF7AA2142BF8E980A3E25CC6FE4-2025-08-07-18-52-10","","null","","[]","null","",""
"","","","","","image-button-response","40","159589","0.0-10.0-1.0-0.5","164CFCF7AA2142BF8E980A3E25CC6FE4","164CFCF7AA2142BF8E980A3E25CC6FE4","e3698efa-036e-41f0-a296-0c43e1f36483","a9f3d40c-5730-405c-b25e-1034c4c56f3f","{""num_scrambled_semantic"":""8"",""num_scrambled_causal"":""4"",""num_scrambled_schematic"":""4"",""participantId"":""164CFCF7AA2142BF8E980A3E25CC6FE4"",""assignmentId"":""e3698efa-036e-41f0-a296-0c43e1f36483"",""projectId"":""a9f3d40c-5730-405c-b25e-1034c4c56f3f""}","https://test12345.live/?num_scrambled_semantic=8&num_scrambled_causal=4&num_scrambled_schematic=4&participantId=164CFCF7AA2142BF8E980A3E25CC6FE4&assignmentId=e3698efa-036e-41f0-a296-0c43e1f36483&projectId=a9f3d40c-5730-405c-b25e-1034c4c56f3f","164CFCF7AA2142BF8E980A3E25CC6FE4-2025-08-07-18-52-10","","null","","images/causal_sequence/dog_causal/dog_causal_6.png","null","",""
"","","","","","image-button-response","41","160220","0.0-10.0-1.0-1.5","164CFCF7AA2142BF8E980A3E25CC6FE4","164CFCF7AA2142BF8E980A3E25CC6FE4","e3698efa-036e-41f0-a296-0c43e1f36483","a9f3d40c-5730-405c-b25e-1034c4c56f3f","{""num_scrambled_semantic"":""8"",""num_scrambled_causal"":""4"",""num_scrambled_schematic"":""4"",""participantId"":""164CFCF7AA2142BF8E980A3E25CC6FE4"",""assignmentId"":""e3698efa-036e-41f0-a296-0c43e1f36483"",""projectId"":""a9f3d40c-5730-405c-b25e-1034c4c56f3f""}","https://test12345.live/?num_scrambled_semantic=8&num_scrambled_causal=4&num_scrambled_schematic=4&participantId=164CFCF7AA2142BF8E980A3E25CC6FE4&assignmentId=e3698efa-036e-41f0-a296-0c43e1f36483&projectId=a9f3d40c-5730-405c-b25e-1034c4c56f3f","164CFCF7AA2142BF8E980A3E25CC6FE4-2025-08-07-18-52-10","","631","","images/causal_sequence/dog_causal/dog_causal_6.png","0","",""
"","","","","","image-button-response","42","162028","0.0-10.0-1.0-2.5","164CFCF7AA2142BF8E980A3E25CC6FE4","164CFCF7AA2142BF8E980A3E25CC6FE4","e3698efa-036e-41f0-a296-0c43e1f36483","a9f3d40c-5730-405c-b25e-1034c4c56f3f","{""num_scrambled_semantic"":""8"",""num_scrambled_causal"":""4"",""num_scrambled_schematic"":""4"",""participantId"":""164CFCF7AA2142BF8E980A3E25CC6FE4"",""assignmentId"":""e3698efa-036e-41f0-a296-0c43e1f36483"",""projectId"":""a9f3d40c-5730-405c-b25e-1034c4c56f3f""}","https://test12345.live/?num_scrambled_semantic=8&num_scrambled_causal=4&num_scrambled_schematic=4&participantId=164CFCF7AA2142BF8E980A3E25CC6FE4&assignmentId=e3698efa-036e-41f0-a296-0c43e1f36483&projectId=a9f3d40c-5730-405c-b25e-1034c4c56f3f","164CFCF7AA2142BF8E980A3E25CC6FE4-2025-08-07-18-52-10","","null","","[]","null","",""
"","","","","","image-button-response","43","166536","0.0-10.0-1.0-0.6","164CFCF7AA2142BF8E980A3E25CC6FE4","164CFCF7AA2142BF8E980A3E25CC6FE4","e3698efa-036e-41f0-a296-0c43e1f36483","a9f3d40c-5730-405c-b25e-1034c4c56f3f","{""num_scrambled_semantic"":""8"",""num_scrambled_causal"":""4"",""num_scrambled_schematic"":""4"",""participantId"":""164CFCF7AA2142BF8E980A3E25CC6FE4"",""assignmentId"":""e3698efa-036e-41f0-a296-0c43e1f36483"",""projectId"":""a9f3d40c-5730-405c-b25e-1034c4c56f3f""}","https://test12345.live/?num_scrambled_semantic=8&num_scrambled_causal=4&num_scrambled_schematic=4&participantId=164CFCF7AA2142BF8E980A3E25CC6FE4&assignmentId=e3698efa-036e-41f0-a296-0c43e1f36483&projectId=a9f3d40c-5730-405c-b25e-1034c4c56f3f","164CFCF7AA2142BF8E980A3E25CC6FE4-2025-08-07-18-52-10","","null","","images/causal_sequence/dog_causal/dog_causal_7.png","null","",""
"","","","","","image-button-response","44","167811","0.0-10.0-1.0-1.6","164CFCF7AA2142BF8E980A3E25CC6FE4","164CFCF7AA2142BF8E980A3E25CC6FE4","e3698efa-036e-41f0-a296-0c43e1f36483","a9f3d40c-5730-405c-b25e-1034c4c56f3f","{""num_scrambled_semantic"":""8"",""num_scrambled_causal"":""4"",""num_scrambled_schematic"":""4"",""participantId"":""164CFCF7AA2142BF8E980A3E25CC6FE4"",""assignmentId"":""e3698efa-036e-41f0-a296-0c43e1f36483"",""projectId"":""a9f3d40c-5730-405c-b25e-1034c4c56f3f""}","https://test12345.live/?num_scrambled_semantic=8&num_scrambled_causal=4&num_scrambled_schematic=4&participantId=164CFCF7AA2142BF8E980A3E25CC6FE4&assignmentId=e3698efa-036e-41f0-a296-0c43e1f36483&projectId=a9f3d40c-5730-405c-b25e-1034c4c56f3f","164CFCF7AA2142BF8E980A3E25CC6FE4-2025-08-07-18-52-10","","1274","","images/causal_sequence/dog_causal/dog_causal_7.png","0","",""
"","","","","","image-button-response","45","169623","0.0-10.0-1.0-2.6","164CFCF7AA2142BF8E980A3E25CC6FE4","164CFCF7AA2142BF8E980A3E25CC6FE4","e3698efa-036e-41f0-a296-0c43e1f36483","a9f3d40c-5730-405c-b25e-1034c4c56f3f","{""num_scrambled_semantic"":""8"",""num_scrambled_causal"":""4"",""num_scrambled_schematic"":""4"",""participantId"":""164CFCF7AA2142BF8E980A3E25CC6FE4"",""assignmentId"":""e3698efa-036e-41f0-a296-0c43e1f36483"",""projectId"":""a9f3d40c-5730-405c-b25e-1034c4c56f3f""}","https://test12345.live/?num_scrambled_semantic=8&num_scrambled_causal=4&num_scrambled_schematic=4&participantId=164CFCF7AA2142BF8E980A3E25CC6FE4&assignmentId=e3698efa-036e-41f0-a296-0c43e1f36483&projectId=a9f3d40c-5730-405c-b25e-1034c4c56f3f","164CFCF7AA2142BF8E980A3E25CC6FE4-2025-08-07-18-52-10","","null","","[]","null","",""
"","","","","","image-button-response","46","174125","0.0-10.0-1.0-0.7","164CFCF7AA2142BF8E980A3E25CC6FE4","164CFCF7AA2142BF8E980A3E25CC6FE4","e3698efa-036e-41f0-a296-0c43e1f36483","a9f3d40c-5730-405c-b25e-1034c4c56f3f","{""num_scrambled_semantic"":""8"",""num_scrambled_causal"":""4"",""num_scrambled_schematic"":""4"",""participantId"":""164CFCF7AA2142BF8E980A3E25CC6FE4"",""assignmentId"":""e3698efa-036e-41f0-a296-0c43e1f36483"",""projectId"":""a9f3d40c-5730-405c-b25e-1034c4c56f3f""}","https://test12345.live/?num_scrambled_semantic=8&num_scrambled_causal=4&num_scrambled_schematic=4&participantId=164CFCF7AA2142BF8E980A3E25CC6FE4&assignmentId=e3698efa-036e-41f0-a296-0c43e1f36483&projectId=a9f3d40c-5730-405c-b25e-1034c4c56f3f","164CFCF7AA2142BF8E980A3E25CC6FE4-2025-08-07-18-52-10","","null","","images/causal_sequence/dog_causal/dog_causal_8.png","null","",""
"","","","","","image-button-response","47","174996","0.0-10.0-1.0-1.7","164CFCF7AA2142BF8E980A3E25CC6FE4","164CFCF7AA2142BF8E980A3E25CC6FE4","e3698efa-036e-41f0-a296-0c43e1f36483","a9f3d40c-5730-405c-b25e-1034c4c56f3f","{""num_scrambled_semantic"":""8"",""num_scrambled_causal"":""4"",""num_scrambled_schematic"":""4"",""participantId"":""164CFCF7AA2142BF8E980A3E25CC6FE4"",""assignmentId"":""e3698efa-036e-41f0-a296-0c43e1f36483"",""projectId"":""a9f3d40c-5730-405c-b25e-1034c4c56f3f""}","https://test12345.live/?num_scrambled_semantic=8&num_scrambled_causal=4&num_scrambled_schematic=4&participantId=164CFCF7AA2142BF8E980A3E25CC6FE4&assignmentId=e3698efa-036e-41f0-a296-0c43e1f36483&projectId=a9f3d40c-5730-405c-b25e-1034c4c56f3f","164CFCF7AA2142BF8E980A3E25CC6FE4-2025-08-07-18-52-10","","870","","images/causal_sequence/dog_causal/dog_causal_8.png","0","",""
"","","","","","image-button-response","48","176802","0.0-10.0-1.0-2.7","164CFCF7AA2142BF8E980A3E25CC6FE4","164CFCF7AA2142BF8E980A3E25CC6FE4","e3698efa-036e-41f0-a296-0c43e1f36483","a9f3d40c-5730-405c-b25e-1034c4c56f3f","{""num_scrambled_semantic"":""8"",""num_scrambled_causal"":""4"",""num_scrambled_schematic"":""4"",""participantId"":""164CFCF7AA2142BF8E980A3E25CC6FE4"",""assignmentId"":""e3698efa-036e-41f0-a296-0c43e1f36483"",""projectId"":""a9f3d40c-5730-405c-b25e-1034c4c56f3f""}","https://test12345.live/?num_scrambled_semantic=8&num_scrambled_causal=4&num_scrambled_schematic=4&participantId=164CFCF7AA2142BF8E980A3E25CC6FE4&assignmentId=e3698efa-036e-41f0-a296-0c43e1f36483&projectId=a9f3d40c-5730-405c-b25e-1034c4c56f3f","164CFCF7AA2142BF8E980A3E25CC6FE4-2025-08-07-18-52-10","","null","","[]","null","",""
"","","","","","image-button-response","49","181310","0.0-10.0-1.0-0.8","164CFCF7AA2142BF8E980A3E25CC6FE4","164CFCF7AA2142BF8E980A3E25CC6FE4","e3698efa-036e-41f0-a296-0c43e1f36483","a9f3d40c-5730-405c-b25e-1034c4c56f3f","{""num_scrambled_semantic"":""8"",""num_scrambled_causal"":""4"",""num_scrambled_schematic"":""4"",""participantId"":""164CFCF7AA2142BF8E980A3E25CC6FE4"",""assignmentId"":""e3698efa-036e-41f0-a296-0c43e1f36483"",""projectId"":""a9f3d40c-5730-405c-b25e-1034c4c56f3f""}","https://test12345.live/?num_scrambled_semantic=8&num_scrambled_causal=4&num_scrambled_schematic=4&participantId=164CFCF7AA2142BF8E980A3E25CC6FE4&assignmentId=e3698efa-036e-41f0-a296-0c43e1f36483&projectId=a9f3d40c-5730-405c-b25e-1034c4c56f3f","164CFCF7AA2142BF8E980A3E25CC6FE4-2025-08-07-18-52-10","","null","","images/causal_sequence/dog_causal/dog_causal_9.png","null","",""
"","","","","","image-button-response","50","181717","0.0-10.0-1.0-1.8","164CFCF7AA2142BF8E980A3E25CC6FE4","164CFCF7AA2142BF8E980A3E25CC6FE4","e3698efa-036e-41f0-a296-0c43e1f36483","a9f3d40c-5730-405c-b25e-1034c4c56f3f","{""num_scrambled_semantic"":""8"",""num_scrambled_causal"":""4"",""num_scrambled_schematic"":""4"",""participantId"":""164CFCF7AA2142BF8E980A3E25CC6FE4"",""assignmentId"":""e3698efa-036e-41f0-a296-0c43e1f36483"",""projectId"":""a9f3d40c-5730-405c-b25e-1034c4c56f3f""}","https://test12345.live/?num_scrambled_semantic=8&num_scrambled_causal=4&num_scrambled_schematic=4&participantId=164CFCF7AA2142BF8E980A3E25CC6FE4&assignmentId=e3698efa-036e-41f0-a296-0c43e1f36483&projectId=a9f3d40c-5730-405c-b25e-1034c4c56f3f","164CFCF7AA2142BF8E980A3E25CC6FE4-2025-08-07-18-52-10","","406","","images/causal_sequence/dog_causal/dog_causal_9.png","0","",""
"","","","","","image-button-response","51","183524","0.0-10.0-1.0-2.8","164CFCF7AA2142BF8E980A3E25CC6FE4","164CFCF7AA2142BF8E980A3E25CC6FE4","e3698efa-036e-41f0-a296-0c43e1f36483","a9f3d40c-5730-405c-b25e-1034c4c56f3f","{""num_scrambled_semantic"":""8"",""num_scrambled_causal"":""4"",""num_scrambled_schematic"":""4"",""participantId"":""164CFCF7AA2142BF8E980A3E25CC6FE4"",""assignmentId"":""e3698efa-036e-41f0-a296-0c43e1f36483"",""projectId"":""a9f3d40c-5730-405c-b25e-1034c4c56f3f""}","https://test12345.live/?num_scrambled_semantic=8&num_scrambled_causal=4&num_scrambled_schematic=4&participantId=164CFCF7AA2142BF8E980A3E25CC6FE4&assignmentId=e3698efa-036e-41f0-a296-0c43e1f36483&projectId=a9f3d40c-5730-405c-b25e-1034c4c56f3f","164CFCF7AA2142BF8E980A3E25CC6FE4-2025-08-07-18-52-10","","null","","[]","null","",""
"","","","","","image-button-response","52","188038","0.0-10.0-1.0-0.9","164CFCF7AA2142BF8E980A3E25CC6FE4","164CFCF7AA2142BF8E980A3E25CC6FE4","e3698efa-036e-41f0-a296-0c43e1f36483","a9f3d40c-5730-405c-b25e-1034c4c56f3f","{""num_scrambled_semantic"":""8"",""num_scrambled_causal"":""4"",""num_scrambled_schematic"":""4"",""participantId"":""164CFCF7AA2142BF8E980A3E25CC6FE4"",""assignmentId"":""e3698efa-036e-41f0-a296-0c43e1f36483"",""projectId"":""a9f3d40c-5730-405c-b25e-1034c4c56f3f""}","https://test12345.live/?num_scrambled_semantic=8&num_scrambled_causal=4&num_scrambled_schematic=4&participantId=164CFCF7AA2142BF8E980A3E25CC6FE4&assignmentId=e3698efa-036e-41f0-a296-0c43e1f36483&projectId=a9f3d40c-5730-405c-b25e-1034c4c56f3f","164CFCF7AA2142BF8E980A3E25CC6FE4-2025-08-07-18-52-10","","null","","images/causal_sequence/dog_causal/dog_causal_ten.png","null","",""
"","","","","","image-button-response","53","188624","0.0-10.0-1.0-1.9","164CFCF7AA2142BF8E980A3E25CC6FE4","164CFCF7AA2142BF8E980A3E25CC6FE4","e3698efa-036e-41f0-a296-0c43e1f36483","a9f3d40c-5730-405c-b25e-1034c4c56f3f","{""num_scrambled_semantic"":""8"",""num_scrambled_causal"":""4"",""num_scrambled_schematic"":""4"",""participantId"":""164CFCF7AA2142BF8E980A3E25CC6FE4"",""assignmentId"":""e3698efa-036e-41f0-a296-0c43e1f36483"",""projectId"":""a9f3d40c-5730-405c-b25e-1034c4c56f3f""}","https://test12345.live/?num_scrambled_semantic=8&num_scrambled_causal=4&num_scrambled_schematic=4&participantId=164CFCF7AA2142BF8E980A3E25CC6FE4&assignmentId=e3698efa-036e-41f0-a296-0c43e1f36483&projectId=a9f3d40c-5730-405c-b25e-1034c4c56f3f","164CFCF7AA2142BF8E980A3E25CC6FE4-2025-08-07-18-52-10","","586","","images/causal_sequence/dog_causal/dog_causal_ten.png","0","",""
"","","","","","image-button-response","54","190441","0.0-10.0-1.0-2.9","164CFCF7AA2142BF8E980A3E25CC6FE4","164CFCF7AA2142BF8E980A3E25CC6FE4","e3698efa-036e-41f0-a296-0c43e1f36483","a9f3d40c-5730-405c-b25e-1034c4c56f3f","{""num_scrambled_semantic"":""8"",""num_scrambled_causal"":""4"",""num_scrambled_schematic"":""4"",""participantId"":""164CFCF7AA2142BF8E980A3E25CC6FE4"",""assignmentId"":""e3698efa-036e-41f0-a296-0c43e1f36483"",""projectId"":""a9f3d40c-5730-405c-b25e-1034c4c56f3f""}","https://test12345.live/?num_scrambled_semantic=8&num_scrambled_causal=4&num_scrambled_schematic=4&participantId=164CFCF7AA2142BF8E980A3E25CC6FE4&assignmentId=e3698efa-036e-41f0-a296-0c43e1f36483&projectId=a9f3d40c-5730-405c-b25e-1034c4c56f3f","164CFCF7AA2142BF8E980A3E25CC6FE4-2025-08-07-18-52-10","","null","","[]","null","",""
"","","","","","html-audio-response","55","228270","0.0-11.0","164CFCF7AA2142BF8E980A3E25CC6FE4","164CFCF7AA2142BF8E980A3E25CC6FE4","e3698efa-036e-41f0-a296-0c43e1f36483","a9f3d40c-5730-405c-b25e-1034c4c56f3f","{""num_scrambled_semantic"":""8"",""num_scrambled_causal"":""4"",""num_scrambled_schematic"":""4"",""participantId"":""164CFCF7AA2142BF8E980A3E25CC6FE4"",""assignmentId"":""e3698efa-036e-41f0-a296-0c43e1f36483"",""projectId"":""a9f3d40c-5730-405c-b25e-1034c4c56f3f""}","https://test12345.live/?num_scrambled_semantic=8&num_scrambled_causal=4&num_scrambled_schematic=4&participantId=164CFCF7AA2142BF8E980A3E25CC6FE4&assignmentId=e3698efa-036e-41f0-a296-0c43e1f36483&projectId=a9f3d40c-5730-405c-b25e-1034c4c56f3f","164CFCF7AA2142BF8E980A3E25CC6FE4-2025-08-07-18-52-10","","26144","","[""<span style=\""color: red; font-size: 24px\""> NOW RECORDING</span><p>Please say out loud all the images you saw, as many as you can remember. The images can be said in any order.</p>""]","","6","dog_causal"
"","","","","","image-button-response","56","234273","0.0-12.0-0.0","164CFCF7AA2142BF8E980A3E25CC6FE4","164CFCF7AA2142BF8E980A3E25CC6FE4","e3698efa-036e-41f0-a296-0c43e1f36483","a9f3d40c-5730-405c-b25e-1034c4c56f3f","{""num_scrambled_semantic"":""8"",""num_scrambled_causal"":""4"",""num_scrambled_schematic"":""4"",""participantId"":""164CFCF7AA2142BF8E980A3E25CC6FE4"",""assignmentId"":""e3698efa-036e-41f0-a296-0c43e1f36483"",""projectId"":""a9f3d40c-5730-405c-b25e-1034c4c56f3f""}","https://test12345.live/?num_scrambled_semantic=8&num_scrambled_causal=4&num_scrambled_schematic=4&participantId=164CFCF7AA2142BF8E980A3E25CC6FE4&assignmentId=e3698efa-036e-41f0-a296-0c43e1f36483&projectId=a9f3d40c-5730-405c-b25e-1034c4c56f3f","164CFCF7AA2142BF8E980A3E25CC6FE4-2025-08-07-18-52-10","","null","","images/causal_sequence/coin_causal/coin_causal_0.png","null","",""
"","","","","","image-button-response","57","238775","0.0-12.0-1.0-0.0","164CFCF7AA2142BF8E980A3E25CC6FE4","164CFCF7AA2142BF8E980A3E25CC6FE4","e3698efa-036e-41f0-a296-0c43e1f36483","a9f3d40c-5730-405c-b25e-1034c4c56f3f","{""num_scrambled_semantic"":""8"",""num_scrambled_causal"":""4"",""num_scrambled_schematic"":""4"",""participantId"":""164CFCF7AA2142BF8E980A3E25CC6FE4"",""assignmentId"":""e3698efa-036e-41f0-a296-0c43e1f36483"",""projectId"":""a9f3d40c-5730-405c-b25e-1034c4c56f3f""}","https://test12345.live/?num_scrambled_semantic=8&num_scrambled_causal=4&num_scrambled_schematic=4&participantId=164CFCF7AA2142BF8E980A3E25CC6FE4&assignmentId=e3698efa-036e-41f0-a296-0c43e1f36483&projectId=a9f3d40c-5730-405c-b25e-1034c4c56f3f","164CFCF7AA2142BF8E980A3E25CC6FE4-2025-08-07-18-52-10","","null","","images/causal_sequence/coin_causal/coin_causal_4.png","null","",""
"","","","","","image-button-response","58","240908","0.0-12.0-1.0-1.0","164CFCF7AA2142BF8E980A3E25CC6FE4","164CFCF7AA2142BF8E980A3E25CC6FE4","e3698efa-036e-41f0-a296-0c43e1f36483","a9f3d40c-5730-405c-b25e-1034c4c56f3f","{""num_scrambled_semantic"":""8"",""num_scrambled_causal"":""4"",""num_scrambled_schematic"":""4"",""participantId"":""164CFCF7AA2142BF8E980A3E25CC6FE4"",""assignmentId"":""e3698efa-036e-41f0-a296-0c43e1f36483"",""projectId"":""a9f3d40c-5730-405c-b25e-1034c4c56f3f""}","https://test12345.live/?num_scrambled_semantic=8&num_scrambled_causal=4&num_scrambled_schematic=4&participantId=164CFCF7AA2142BF8E980A3E25CC6FE4&assignmentId=e3698efa-036e-41f0-a296-0c43e1f36483&projectId=a9f3d40c-5730-405c-b25e-1034c4c56f3f","164CFCF7AA2142BF8E980A3E25CC6FE4-2025-08-07-18-52-10","","2132","","images/causal_sequence/coin_causal/coin_causal_4.png","0","",""
"","","","","","image-button-response","59","242709","0.0-12.0-1.0-2.0","164CFCF7AA2142BF8E980A3E25CC6FE4","164CFCF7AA2142BF8E980A3E25CC6FE4","e3698efa-036e-41f0-a296-0c43e1f36483","a9f3d40c-5730-405c-b25e-1034c4c56f3f","{""num_scrambled_semantic"":""8"",""num_scrambled_causal"":""4"",""num_scrambled_schematic"":""4"",""participantId"":""164CFCF7AA2142BF8E980A3E25CC6FE4"",""assignmentId"":""e3698efa-036e-41f0-a296-0c43e1f36483"",""projectId"":""a9f3d40c-5730-405c-b25e-1034c4c56f3f""}","https://test12345.live/?num_scrambled_semantic=8&num_scrambled_causal=4&num_scrambled_schematic=4&participantId=164CFCF7AA2142BF8E980A3E25CC6FE4&assignmentId=e3698efa-036e-41f0-a296-0c43e1f36483&projectId=a9f3d40c-5730-405c-b25e-1034c4c56f3f","164CFCF7AA2142BF8E980A3E25CC6FE4-2025-08-07-18-52-10","","null","","[]","null","",""
"","","","","","image-button-response","60","247224","0.0-12.0-1.0-0.1","164CFCF7AA2142BF8E980A3E25CC6FE4","164CFCF7AA2142BF8E980A3E25CC6FE4","e3698efa-036e-41f0-a296-0c43e1f36483","a9f3d40c-5730-405c-b25e-1034c4c56f3f","{""num_scrambled_semantic"":""8"",""num_scrambled_causal"":""4"",""num_scrambled_schematic"":""4"",""participantId"":""164CFCF7AA2142BF8E980A3E25CC6FE4"",""assignmentId"":""e3698efa-036e-41f0-a296-0c43e1f36483"",""projectId"":""a9f3d40c-5730-405c-b25e-1034c4c56f3f""}","https://test12345.live/?num_scrambled_semantic=8&num_scrambled_causal=4&num_scrambled_schematic=4&participantId=164CFCF7AA2142BF8E980A3E25CC6FE4&assignmentId=e3698efa-036e-41f0-a296-0c43e1f36483&projectId=a9f3d40c-5730-405c-b25e-1034c4c56f3f","164CFCF7AA2142BF8E980A3E25CC6FE4-2025-08-07-18-52-10","","null","","images/causal_sequence/coin_causal/coin_causal_1.png","null","",""
"","","","","","image-button-response","61","248251","0.0-12.0-1.0-1.1","164CFCF7AA2142BF8E980A3E25CC6FE4","164CFCF7AA2142BF8E980A3E25CC6FE4","e3698efa-036e-41f0-a296-0c43e1f36483","a9f3d40c-5730-405c-b25e-1034c4c56f3f","{""num_scrambled_semantic"":""8"",""num_scrambled_causal"":""4"",""num_scrambled_schematic"":""4"",""participantId"":""164CFCF7AA2142BF8E980A3E25CC6FE4"",""assignmentId"":""e3698efa-036e-41f0-a296-0c43e1f36483"",""projectId"":""a9f3d40c-5730-405c-b25e-1034c4c56f3f""}","https://test12345.live/?num_scrambled_semantic=8&num_scrambled_causal=4&num_scrambled_schematic=4&participantId=164CFCF7AA2142BF8E980A3E25CC6FE4&assignmentId=e3698efa-036e-41f0-a296-0c43e1f36483&projectId=a9f3d40c-5730-405c-b25e-1034c4c56f3f","164CFCF7AA2142BF8E980A3E25CC6FE4-2025-08-07-18-52-10","","1026","","images/causal_sequence/coin_causal/coin_causal_1.png","0","",""
"","","","","","image-button-response","62","250053","0.0-12.0-1.0-2.1","164CFCF7AA2142BF8E980A3E25CC6FE4","164CFCF7AA2142BF8E980A3E25CC6FE4","e3698efa-036e-41f0-a296-0c43e1f36483","a9f3d40c-5730-405c-b25e-1034c4c56f3f","{""num_scrambled_semantic"":""8"",""num_scrambled_causal"":""4"",""num_scrambled_schematic"":""4"",""participantId"":""164CFCF7AA2142BF8E980A3E25CC6FE4"",""assignmentId"":""e3698efa-036e-41f0-a296-0c43e1f36483"",""projectId"":""a9f3d40c-5730-405c-b25e-1034c4c56f3f""}","https://test12345.live/?num_scrambled_semantic=8&num_scrambled_causal=4&num_scrambled_schematic=4&participantId=164CFCF7AA2142BF8E980A3E25CC6FE4&assignmentId=e3698efa-036e-41f0-a296-0c43e1f36483&projectId=a9f3d40c-5730-405c-b25e-1034c4c56f3f","164CFCF7AA2142BF8E980A3E25CC6FE4-2025-08-07-18-52-10","","null","","[]","null","",""
"","","","","","image-button-response","63","254564","0.0-12.0-1.0-0.2","164CFCF7AA2142BF8E980A3E25CC6FE4","164CFCF7AA2142BF8E980A3E25CC6FE4","e3698efa-036e-41f0-a296-0c43e1f36483","a9f3d40c-5730-405c-b25e-1034c4c56f3f","{""num_scrambled_semantic"":""8"",""num_scrambled_causal"":""4"",""num_scrambled_schematic"":""4"",""participantId"":""164CFCF7AA2142BF8E980A3E25CC6FE4"",""assignmentId"":""e3698efa-036e-41f0-a296-0c43e1f36483"",""projectId"":""a9f3d40c-5730-405c-b25e-1034c4c56f3f""}","https://test12345.live/?num_scrambled_semantic=8&num_scrambled_causal=4&num_scrambled_schematic=4&participantId=164CFCF7AA2142BF8E980A3E25CC6FE4&assignmentId=e3698efa-036e-41f0-a296-0c43e1f36483&projectId=a9f3d40c-5730-405c-b25e-1034c4c56f3f","164CFCF7AA2142BF8E980A3E25CC6FE4-2025-08-07-18-52-10","","null","","images/causal_sequence/coin_causal/coin_causal_8.png","null","",""
"","","","","","image-button-response","64","255549","0.0-12.0-1.0-1.2","164CFCF7AA2142BF8E980A3E25CC6FE4","164CFCF7AA2142BF8E980A3E25CC6FE4","e3698efa-036e-41f0-a296-0c43e1f36483","a9f3d40c-5730-405c-b25e-1034c4c56f3f","{""num_scrambled_semantic"":""8"",""num_scrambled_causal"":""4"",""num_scrambled_schematic"":""4"",""participantId"":""164CFCF7AA2142BF8E980A3E25CC6FE4"",""assignmentId"":""e3698efa-036e-41f0-a296-0c43e1f36483"",""projectId"":""a9f3d40c-5730-405c-b25e-1034c4c56f3f""}","https://test12345.live/?num_scrambled_semantic=8&num_scrambled_causal=4&num_scrambled_schematic=4&participantId=164CFCF7AA2142BF8E980A3E25CC6FE4&assignmentId=e3698efa-036e-41f0-a296-0c43e1f36483&projectId=a9f3d40c-5730-405c-b25e-1034c4c56f3f","164CFCF7AA2142BF8E980A3E25CC6FE4-2025-08-07-18-52-10","","984","","images/causal_sequence/coin_causal/coin_causal_8.png","0","",""
"","","","","","image-button-response","65","257359","0.0-12.0-1.0-2.2","164CFCF7AA2142BF8E980A3E25CC6FE4","164CFCF7AA2142BF8E980A3E25CC6FE4","e3698efa-036e-41f0-a296-0c43e1f36483","a9f3d40c-5730-405c-b25e-1034c4c56f3f","{""num_scrambled_semantic"":""8"",""num_scrambled_causal"":""4"",""num_scrambled_schematic"":""4"",""participantId"":""164CFCF7AA2142BF8E980A3E25CC6FE4"",""assignmentId"":""e3698efa-036e-41f0-a296-0c43e1f36483"",""projectId"":""a9f3d40c-5730-405c-b25e-1034c4c56f3f""}","https://test12345.live/?num_scrambled_semantic=8&num_scrambled_causal=4&num_scrambled_schematic=4&participantId=164CFCF7AA2142BF8E980A3E25CC6FE4&assignmentId=e3698efa-036e-41f0-a296-0c43e1f36483&projectId=a9f3d40c-5730-405c-b25e-1034c4c56f3f","164CFCF7AA2142BF8E980A3E25CC6FE4-2025-08-07-18-52-10","","null","","[]","null","",""
"","","","","","image-button-response","66","261864","0.0-12.0-1.0-0.3","164CFCF7AA2142BF8E980A3E25CC6FE4","164CFCF7AA2142BF8E980A3E25CC6FE4","e3698efa-036e-41f0-a296-0c43e1f36483","a9f3d40c-5730-405c-b25e-1034c4c56f3f","{""num_scrambled_semantic"":""8"",""num_scrambled_causal"":""4"",""num_scrambled_schematic"":""4"",""participantId"":""164CFCF7AA2142BF8E980A3E25CC6FE4"",""assignmentId"":""e3698efa-036e-41f0-a296-0c43e1f36483"",""projectId"":""a9f3d40c-5730-405c-b25e-1034c4c56f3f""}","https://test12345.live/?num_scrambled_semantic=8&num_scrambled_causal=4&num_scrambled_schematic=4&participantId=164CFCF7AA2142BF8E980A3E25CC6FE4&assignmentId=e3698efa-036e-41f0-a296-0c43e1f36483&projectId=a9f3d40c-5730-405c-b25e-1034c4c56f3f","164CFCF7AA2142BF8E980A3E25CC6FE4-2025-08-07-18-52-10","","null","","images/causal_sequence/coin_causal/coin_causal_2.png","null","",""
"","","","","","image-button-response","67","262584","0.0-12.0-1.0-1.3","164CFCF7AA2142BF8E980A3E25CC6FE4","164CFCF7AA2142BF8E980A3E25CC6FE4","e3698efa-036e-41f0-a296-0c43e1f36483","a9f3d40c-5730-405c-b25e-1034c4c56f3f","{""num_scrambled_semantic"":""8"",""num_scrambled_causal"":""4"",""num_scrambled_schematic"":""4"",""participantId"":""164CFCF7AA2142BF8E980A3E25CC6FE4"",""assignmentId"":""e3698efa-036e-41f0-a296-0c43e1f36483"",""projectId"":""a9f3d40c-5730-405c-b25e-1034c4c56f3f""}","https://test12345.live/?num_scrambled_semantic=8&num_scrambled_causal=4&num_scrambled_schematic=4&participantId=164CFCF7AA2142BF8E980A3E25CC6FE4&assignmentId=e3698efa-036e-41f0-a296-0c43e1f36483&projectId=a9f3d40c-5730-405c-b25e-1034c4c56f3f","164CFCF7AA2142BF8E980A3E25CC6FE4-2025-08-07-18-52-10","","719","","images/causal_sequence/coin_causal/coin_causal_2.png","0","",""
"","","","","","image-button-response","68","264390","0.0-12.0-1.0-2.3","164CFCF7AA2142BF8E980A3E25CC6FE4","164CFCF7AA2142BF8E980A3E25CC6FE4","e3698efa-036e-41f0-a296-0c43e1f36483","a9f3d40c-5730-405c-b25e-1034c4c56f3f","{""num_scrambled_semantic"":""8"",""num_scrambled_causal"":""4"",""num_scrambled_schematic"":""4"",""participantId"":""164CFCF7AA2142BF8E980A3E25CC6FE4"",""assignmentId"":""e3698efa-036e-41f0-a296-0c43e1f36483"",""projectId"":""a9f3d40c-5730-405c-b25e-1034c4c56f3f""}","https://test12345.live/?num_scrambled_semantic=8&num_scrambled_causal=4&num_scrambled_schematic=4&participantId=164CFCF7AA2142BF8E980A3E25CC6FE4&assignmentId=e3698efa-036e-41f0-a296-0c43e1f36483&projectId=a9f3d40c-5730-405c-b25e-1034c4c56f3f","164CFCF7AA2142BF8E980A3E25CC6FE4-2025-08-07-18-52-10","","null","","[]","null","",""
"","","","","","image-button-response","69","268900","0.0-12.0-1.0-0.4","164CFCF7AA2142BF8E980A3E25CC6FE4","164CFCF7AA2142BF8E980A3E25CC6FE4","e3698efa-036e-41f0-a296-0c43e1f36483","a9f3d40c-5730-405c-b25e-1034c4c56f3f","{""num_scrambled_semantic"":""8"",""num_scrambled_causal"":""4"",""num_scrambled_schematic"":""4"",""participantId"":""164CFCF7AA2142BF8E980A3E25CC6FE4"",""assignmentId"":""e3698efa-036e-41f0-a296-0c43e1f36483"",""projectId"":""a9f3d40c-5730-405c-b25e-1034c4c56f3f""}","https://test12345.live/?num_scrambled_semantic=8&num_scrambled_causal=4&num_scrambled_schematic=4&participantId=164CFCF7AA2142BF8E980A3E25CC6FE4&assignmentId=e3698efa-036e-41f0-a296-0c43e1f36483&projectId=a9f3d40c-5730-405c-b25e-1034c4c56f3f","164CFCF7AA2142BF8E980A3E25CC6FE4-2025-08-07-18-52-10","","null","","images/causal_sequence/coin_causal/coin_causal_6.png","null","",""
"","","","","","image-button-response","70","269573","0.0-12.0-1.0-1.4","164CFCF7AA2142BF8E980A3E25CC6FE4","164CFCF7AA2142BF8E980A3E25CC6FE4","e3698efa-036e-41f0-a296-0c43e1f36483","a9f3d40c-5730-405c-b25e-1034c4c56f3f","{""num_scrambled_semantic"":""8"",""num_scrambled_causal"":""4"",""num_scrambled_schematic"":""4"",""participantId"":""164CFCF7AA2142BF8E980A3E25CC6FE4"",""assignmentId"":""e3698efa-036e-41f0-a296-0c43e1f36483"",""projectId"":""a9f3d40c-5730-405c-b25e-1034c4c56f3f""}","https://test12345.live/?num_scrambled_semantic=8&num_scrambled_causal=4&num_scrambled_schematic=4&participantId=164CFCF7AA2142BF8E980A3E25CC6FE4&assignmentId=e3698efa-036e-41f0-a296-0c43e1f36483&projectId=a9f3d40c-5730-405c-b25e-1034c4c56f3f","164CFCF7AA2142BF8E980A3E25CC6FE4-2025-08-07-18-52-10","","673","","images/causal_sequence/coin_causal/coin_causal_6.png","0","",""
"","","","","","image-button-response","71","271374","0.0-12.0-1.0-2.4","164CFCF7AA2142BF8E980A3E25CC6FE4","164CFCF7AA2142BF8E980A3E25CC6FE4","e3698efa-036e-41f0-a296-0c43e1f36483","a9f3d40c-5730-405c-b25e-1034c4c56f3f","{""num_scrambled_semantic"":""8"",""num_scrambled_causal"":""4"",""num_scrambled_schematic"":""4"",""participantId"":""164CFCF7AA2142BF8E980A3E25CC6FE4"",""assignmentId"":""e3698efa-036e-41f0-a296-0c43e1f36483"",""projectId"":""a9f3d40c-5730-405c-b25e-1034c4c56f3f""}","https://test12345.live/?num_scrambled_semantic=8&num_scrambled_causal=4&num_scrambled_schematic=4&participantId=164CFCF7AA2142BF8E980A3E25CC6FE4&assignmentId=e3698efa-036e-41f0-a296-0c43e1f36483&projectId=a9f3d40c-5730-405c-b25e-1034c4c56f3f","164CFCF7AA2142BF8E980A3E25CC6FE4-2025-08-07-18-52-10","","null","","[]","null","",""
"","","","","","image-button-response","72","275879","0.0-12.0-1.0-0.5","164CFCF7AA2142BF8E980A3E25CC6FE4","164CFCF7AA2142BF8E980A3E25CC6FE4","e3698efa-036e-41f0-a296-0c43e1f36483","a9f3d40c-5730-405c-b25e-1034c4c56f3f","{""num_scrambled_semantic"":""8"",""num_scrambled_causal"":""4"",""num_scrambled_schematic"":""4"",""participantId"":""164CFCF7AA2142BF8E980A3E25CC6FE4"",""assignmentId"":""e3698efa-036e-41f0-a296-0c43e1f36483"",""projectId"":""a9f3d40c-5730-405c-b25e-1034c4c56f3f""}","https://test12345.live/?num_scrambled_semantic=8&num_scrambled_causal=4&num_scrambled_schematic=4&participantId=164CFCF7AA2142BF8E980A3E25CC6FE4&assignmentId=e3698efa-036e-41f0-a296-0c43e1f36483&projectId=a9f3d40c-5730-405c-b25e-1034c4c56f3f","164CFCF7AA2142BF8E980A3E25CC6FE4-2025-08-07-18-52-10","","null","","images/causal_sequence/coin_causal/coin_causal_3.png","null","",""
"","","","","","image-button-response","73","276542","0.0-12.0-1.0-1.5","164CFCF7AA2142BF8E980A3E25CC6FE4","164CFCF7AA2142BF8E980A3E25CC6FE4","e3698efa-036e-41f0-a296-0c43e1f36483","a9f3d40c-5730-405c-b25e-1034c4c56f3f","{""num_scrambled_semantic"":""8"",""num_scrambled_causal"":""4"",""num_scrambled_schematic"":""4"",""participantId"":""164CFCF7AA2142BF8E980A3E25CC6FE4"",""assignmentId"":""e3698efa-036e-41f0-a296-0c43e1f36483"",""projectId"":""a9f3d40c-5730-405c-b25e-1034c4c56f3f""}","https://test12345.live/?num_scrambled_semantic=8&num_scrambled_causal=4&num_scrambled_schematic=4&participantId=164CFCF7AA2142BF8E980A3E25CC6FE4&assignmentId=e3698efa-036e-41f0-a296-0c43e1f36483&projectId=a9f3d40c-5730-405c-b25e-1034c4c56f3f","164CFCF7AA2142BF8E980A3E25CC6FE4-2025-08-07-18-52-10","","662","","images/causal_sequence/coin_causal/coin_causal_3.png","0","",""
"","","","","","image-button-response","74","278350","0.0-12.0-1.0-2.5","164CFCF7AA2142BF8E980A3E25CC6FE4","164CFCF7AA2142BF8E980A3E25CC6FE4","e3698efa-036e-41f0-a296-0c43e1f36483","a9f3d40c-5730-405c-b25e-1034c4c56f3f","{""num_scrambled_semantic"":""8"",""num_scrambled_causal"":""4"",""num_scrambled_schematic"":""4"",""participantId"":""164CFCF7AA2142BF8E980A3E25CC6FE4"",""assignmentId"":""e3698efa-036e-41f0-a296-0c43e1f36483"",""projectId"":""a9f3d40c-5730-405c-b25e-1034c4c56f3f""}","https://test12345.live/?num_scrambled_semantic=8&num_scrambled_causal=4&num_scrambled_schematic=4&participantId=164CFCF7AA2142BF8E980A3E25CC6FE4&assignmentId=e3698efa-036e-41f0-a296-0c43e1f36483&projectId=a9f3d40c-5730-405c-b25e-1034c4c56f3f","164CFCF7AA2142BF8E980A3E25CC6FE4-2025-08-07-18-52-10","","null","","[]","null","",""
"","","","","","image-button-response","75","282855","0.0-12.0-1.0-0.6","164CFCF7AA2142BF8E980A3E25CC6FE4","164CFCF7AA2142BF8E980A3E25CC6FE4","e3698efa-036e-41f0-a296-0c43e1f36483","a9f3d40c-5730-405c-b25e-1034c4c56f3f","{""num_scrambled_semantic"":""8"",""num_scrambled_causal"":""4"",""num_scrambled_schematic"":""4"",""participantId"":""164CFCF7AA2142BF8E980A3E25CC6FE4"",""assignmentId"":""e3698efa-036e-41f0-a296-0c43e1f36483"",""projectId"":""a9f3d40c-5730-405c-b25e-1034c4c56f3f""}","https://test12345.live/?num_scrambled_semantic=8&num_scrambled_causal=4&num_scrambled_schematic=4&participantId=164CFCF7AA2142BF8E980A3E25CC6FE4&assignmentId=e3698efa-036e-41f0-a296-0c43e1f36483&projectId=a9f3d40c-5730-405c-b25e-1034c4c56f3f","164CFCF7AA2142BF8E980A3E25CC6FE4-2025-08-07-18-52-10","","null","","images/causal_sequence/coin_causal/coin_causal_7.png","null","",""
"","","","","","image-button-response","76","283390","0.0-12.0-1.0-1.6","164CFCF7AA2142BF8E980A3E25CC6FE4","164CFCF7AA2142BF8E980A3E25CC6FE4","e3698efa-036e-41f0-a296-0c43e1f36483","a9f3d40c-5730-405c-b25e-1034c4c56f3f","{""num_scrambled_semantic"":""8"",""num_scrambled_causal"":""4"",""num_scrambled_schematic"":""4"",""participantId"":""164CFCF7AA2142BF8E980A3E25CC6FE4"",""assignmentId"":""e3698efa-036e-41f0-a296-0c43e1f36483"",""projectId"":""a9f3d40c-5730-405c-b25e-1034c4c56f3f""}","https://test12345.live/?num_scrambled_semantic=8&num_scrambled_causal=4&num_scrambled_schematic=4&participantId=164CFCF7AA2142BF8E980A3E25CC6FE4&assignmentId=e3698efa-036e-41f0-a296-0c43e1f36483&projectId=a9f3d40c-5730-405c-b25e-1034c4c56f3f","164CFCF7AA2142BF8E980A3E25CC6FE4-2025-08-07-18-52-10","","534","","images/causal_sequence/coin_causal/coin_causal_7.png","0","",""
"","","","","","image-button-response","77","285196","0.0-12.0-1.0-2.6","164CFCF7AA2142BF8E980A3E25CC6FE4","164CFCF7AA2142BF8E980A3E25CC6FE4","e3698efa-036e-41f0-a296-0c43e1f36483","a9f3d40c-5730-405c-b25e-1034c4c56f3f","{""num_scrambled_semantic"":""8"",""num_scrambled_causal"":""4"",""num_scrambled_schematic"":""4"",""participantId"":""164CFCF7AA2142BF8E980A3E25CC6FE4"",""assignmentId"":""e3698efa-036e-41f0-a296-0c43e1f36483"",""projectId"":""a9f3d40c-5730-405c-b25e-1034c4c56f3f""}","https://test12345.live/?num_scrambled_semantic=8&num_scrambled_causal=4&num_scrambled_schematic=4&participantId=164CFCF7AA2142BF8E980A3E25CC6FE4&assignmentId=e3698efa-036e-41f0-a296-0c43e1f36483&projectId=a9f3d40c-5730-405c-b25e-1034c4c56f3f","164CFCF7AA2142BF8E980A3E25CC6FE4-2025-08-07-18-52-10","","null","","[]","null","",""
"","","","","","image-button-response","78","289710","0.0-12.0-1.0-0.7","164CFCF7AA2142BF8E980A3E25CC6FE4","164CFCF7AA2142BF8E980A3E25CC6FE4","e3698efa-036e-41f0-a296-0c43e1f36483","a9f3d40c-5730-405c-b25e-1034c4c56f3f","{""num_scrambled_semantic"":""8"",""num_scrambled_causal"":""4"",""num_scrambled_schematic"":""4"",""participantId"":""164CFCF7AA2142BF8E980A3E25CC6FE4"",""assignmentId"":""e3698efa-036e-41f0-a296-0c43e1f36483"",""projectId"":""a9f3d40c-5730-405c-b25e-1034c4c56f3f""}","https://test12345.live/?num_scrambled_semantic=8&num_scrambled_causal=4&num_scrambled_schematic=4&participantId=164CFCF7AA2142BF8E980A3E25CC6FE4&assignmentId=e3698efa-036e-41f0-a296-0c43e1f36483&projectId=a9f3d40c-5730-405c-b25e-1034c4c56f3f","164CFCF7AA2142BF8E980A3E25CC6FE4-2025-08-07-18-52-10","","null","","images/causal_sequence/coin_causal/coin_causal_9.png","null","",""
"","","","","","image-button-response","79","290492","0.0-12.0-1.0-1.7","164CFCF7AA2142BF8E980A3E25CC6FE4","164CFCF7AA2142BF8E980A3E25CC6FE4","e3698efa-036e-41f0-a296-0c43e1f36483","a9f3d40c-5730-405c-b25e-1034c4c56f3f","{""num_scrambled_semantic"":""8"",""num_scrambled_causal"":""4"",""num_scrambled_schematic"":""4"",""participantId"":""164CFCF7AA2142BF8E980A3E25CC6FE4"",""assignmentId"":""e3698efa-036e-41f0-a296-0c43e1f36483"",""projectId"":""a9f3d40c-5730-405c-b25e-1034c4c56f3f""}","https://test12345.live/?num_scrambled_semantic=8&num_scrambled_causal=4&num_scrambled_schematic=4&participantId=164CFCF7AA2142BF8E980A3E25CC6FE4&assignmentId=e3698efa-036e-41f0-a296-0c43e1f36483&projectId=a9f3d40c-5730-405c-b25e-1034c4c56f3f","164CFCF7AA2142BF8E980A3E25CC6FE4-2025-08-07-18-52-10","","781","","images/causal_sequence/coin_causal/coin_causal_9.png","0","",""
"","","","","","image-button-response","80","292307","0.0-12.0-1.0-2.7","164CFCF7AA2142BF8E980A3E25CC6FE4","164CFCF7AA2142BF8E980A3E25CC6FE4","e3698efa-036e-41f0-a296-0c43e1f36483","a9f3d40c-5730-405c-b25e-1034c4c56f3f","{""num_scrambled_semantic"":""8"",""num_scrambled_causal"":""4"",""num_scrambled_schematic"":""4"",""participantId"":""164CFCF7AA2142BF8E980A3E25CC6FE4"",""assignmentId"":""e3698efa-036e-41f0-a296-0c43e1f36483"",""projectId"":""a9f3d40c-5730-405c-b25e-1034c4c56f3f""}","https://test12345.live/?num_scrambled_semantic=8&num_scrambled_causal=4&num_scrambled_schematic=4&participantId=164CFCF7AA2142BF8E980A3E25CC6FE4&assignmentId=e3698efa-036e-41f0-a296-0c43e1f36483&projectId=a9f3d40c-5730-405c-b25e-1034c4c56f3f","164CFCF7AA2142BF8E980A3E25CC6FE4-2025-08-07-18-52-10","","null","","[]","null","",""
"","","","","","image-button-response","81","296808","0.0-12.0-1.0-0.8","164CFCF7AA2142BF8E980A3E25CC6FE4","164CFCF7AA2142BF8E980A3E25CC6FE4","e3698efa-036e-41f0-a296-0c43e1f36483","a9f3d40c-5730-405c-b25e-1034c4c56f3f","{""num_scrambled_semantic"":""8"",""num_scrambled_causal"":""4"",""num_scrambled_schematic"":""4"",""participantId"":""164CFCF7AA2142BF8E980A3E25CC6FE4"",""assignmentId"":""e3698efa-036e-41f0-a296-0c43e1f36483"",""projectId"":""a9f3d40c-5730-405c-b25e-1034c4c56f3f""}","https://test12345.live/?num_scrambled_semantic=8&num_scrambled_causal=4&num_scrambled_schematic=4&participantId=164CFCF7AA2142BF8E980A3E25CC6FE4&assignmentId=e3698efa-036e-41f0-a296-0c43e1f36483&projectId=a9f3d40c-5730-405c-b25e-1034c4c56f3f","164CFCF7AA2142BF8E980A3E25CC6FE4-2025-08-07-18-52-10","","null","","images/causal_sequence/coin_causal/coin_causal_ten.png","null","",""
"","","","","","image-button-response","82","297392","0.0-12.0-1.0-1.8","164CFCF7AA2142BF8E980A3E25CC6FE4","164CFCF7AA2142BF8E980A3E25CC6FE4","e3698efa-036e-41f0-a296-0c43e1f36483","a9f3d40c-5730-405c-b25e-1034c4c56f3f","{""num_scrambled_semantic"":""8"",""num_scrambled_causal"":""4"",""num_scrambled_schematic"":""4"",""participantId"":""164CFCF7AA2142BF8E980A3E25CC6FE4"",""assignmentId"":""e3698efa-036e-41f0-a296-0c43e1f36483"",""projectId"":""a9f3d40c-5730-405c-b25e-1034c4c56f3f""}","https://test12345.live/?num_scrambled_semantic=8&num_scrambled_causal=4&num_scrambled_schematic=4&participantId=164CFCF7AA2142BF8E980A3E25CC6FE4&assignmentId=e3698efa-036e-41f0-a296-0c43e1f36483&projectId=a9f3d40c-5730-405c-b25e-1034c4c56f3f","164CFCF7AA2142BF8E980A3E25CC6FE4-2025-08-07-18-52-10","","583","","images/causal_sequence/coin_causal/coin_causal_ten.png","0","",""
"","","","","","image-button-response","83","299195","0.0-12.0-1.0-2.8","164CFCF7AA2142BF8E980A3E25CC6FE4","164CFCF7AA2142BF8E980A3E25CC6FE4","e3698efa-036e-41f0-a296-0c43e1f36483","a9f3d40c-5730-405c-b25e-1034c4c56f3f","{""num_scrambled_semantic"":""8"",""num_scrambled_causal"":""4"",""num_scrambled_schematic"":""4"",""participantId"":""164CFCF7AA2142BF8E980A3E25CC6FE4"",""assignmentId"":""e3698efa-036e-41f0-a296-0c43e1f36483"",""projectId"":""a9f3d40c-5730-405c-b25e-1034c4c56f3f""}","https://test12345.live/?num_scrambled_semantic=8&num_scrambled_causal=4&num_scrambled_schematic=4&participantId=164CFCF7AA2142BF8E980A3E25CC6FE4&assignmentId=e3698efa-036e-41f0-a296-0c43e1f36483&projectId=a9f3d40c-5730-405c-b25e-1034c4c56f3f","164CFCF7AA2142BF8E980A3E25CC6FE4-2025-08-07-18-52-10","","null","","[]","null","",""
"","","","","","image-button-response","84","303712","0.0-12.0-1.0-0.9","164CFCF7AA2142BF8E980A3E25CC6FE4","164CFCF7AA2142BF8E980A3E25CC6FE4","e3698efa-036e-41f0-a296-0c43e1f36483","a9f3d40c-5730-405c-b25e-1034c4c56f3f","{""num_scrambled_semantic"":""8"",""num_scrambled_causal"":""4"",""num_scrambled_schematic"":""4"",""participantId"":""164CFCF7AA2142BF8E980A3E25CC6FE4"",""assignmentId"":""e3698efa-036e-41f0-a296-0c43e1f36483"",""projectId"":""a9f3d40c-5730-405c-b25e-1034c4c56f3f""}","https://test12345.live/?num_scrambled_semantic=8&num_scrambled_causal=4&num_scrambled_schematic=4&participantId=164CFCF7AA2142BF8E980A3E25CC6FE4&assignmentId=e3698efa-036e-41f0-a296-0c43e1f36483&projectId=a9f3d40c-5730-405c-b25e-1034c4c56f3f","164CFCF7AA2142BF8E980A3E25CC6FE4-2025-08-07-18-52-10","","null","","images/causal_sequence/coin_causal/coin_causal_5.png","null","",""
"","","","","","image-button-response","85","304322","0.0-12.0-1.0-1.9","164CFCF7AA2142BF8E980A3E25CC6FE4","164CFCF7AA2142BF8E980A3E25CC6FE4","e3698efa-036e-41f0-a296-0c43e1f36483","a9f3d40c-5730-405c-b25e-1034c4c56f3f","{""num_scrambled_semantic"":""8"",""num_scrambled_causal"":""4"",""num_scrambled_schematic"":""4"",""participantId"":""164CFCF7AA2142BF8E980A3E25CC6FE4"",""assignmentId"":""e3698efa-036e-41f0-a296-0c43e1f36483"",""projectId"":""a9f3d40c-5730-405c-b25e-1034c4c56f3f""}","https://test12345.live/?num_scrambled_semantic=8&num_scrambled_causal=4&num_scrambled_schematic=4&participantId=164CFCF7AA2142BF8E980A3E25CC6FE4&assignmentId=e3698efa-036e-41f0-a296-0c43e1f36483&projectId=a9f3d40c-5730-405c-b25e-1034c4c56f3f","164CFCF7AA2142BF8E980A3E25CC6FE4-2025-08-07-18-52-10","","610","","images/causal_sequence/coin_causal/coin_causal_5.png","0","",""
"","","","","","image-button-response","86","306129","0.0-12.0-1.0-2.9","164CFCF7AA2142BF8E980A3E25CC6FE4","164CFCF7AA2142BF8E980A3E25CC6FE4","e3698efa-036e-41f0-a296-0c43e1f36483","a9f3d40c-5730-405c-b25e-1034c4c56f3f","{""num_scrambled_semantic"":""8"",""num_scrambled_causal"":""4"",""num_scrambled_schematic"":""4"",""participantId"":""164CFCF7AA2142BF8E980A3E25CC6FE4"",""assignmentId"":""e3698efa-036e-41f0-a296-0c43e1f36483"",""projectId"":""a9f3d40c-5730-405c-b25e-1034c4c56f3f""}","https://test12345.live/?num_scrambled_semantic=8&num_scrambled_causal=4&num_scrambled_schematic=4&participantId=164CFCF7AA2142BF8E980A3E25CC6FE4&assignmentId=e3698efa-036e-41f0-a296-0c43e1f36483&projectId=a9f3d40c-5730-405c-b25e-1034c4c56f3f","164CFCF7AA2142BF8E980A3E25CC6FE4-2025-08-07-18-52-10","","null","","[]","null","",""
"","","","","","html-audio-response","87","330049","0.0-13.0","164CFCF7AA2142BF8E980A3E25CC6FE4","164CFCF7AA2142BF8E980A3E25CC6FE4","e3698efa-036e-41f0-a296-0c43e1f36483","a9f3d40c-5730-405c-b25e-1034c4c56f3f","{""num_scrambled_semantic"":""8"",""num_scrambled_causal"":""4"",""num_scrambled_schematic"":""4"",""participantId"":""164CFCF7AA2142BF8E980A3E25CC6FE4"",""assignmentId"":""e3698efa-036e-41f0-a296-0c43e1f36483"",""projectId"":""a9f3d40c-5730-405c-b25e-1034c4c56f3f""}","https://test12345.live/?num_scrambled_semantic=8&num_scrambled_causal=4&num_scrambled_schematic=4&participantId=164CFCF7AA2142BF8E980A3E25CC6FE4&assignmentId=e3698efa-036e-41f0-a296-0c43e1f36483&projectId=a9f3d40c-5730-405c-b25e-1034c4c56f3f","164CFCF7AA2142BF8E980A3E25CC6FE4-2025-08-07-18-52-10","","23176","","[""<span style=\""color: red; font-size: 24px\""> NOW RECORDING</span><p>Please say out loud all the images you saw, as many as you can remember. The images can be said in any order.</p>""]","","5","coin_causal"
"","","","","","image-button-response","88","336059","0.0-14.0-0.0","164CFCF7AA2142BF8E980A3E25CC6FE4","164CFCF7AA2142BF8E980A3E25CC6FE4","e3698efa-036e-41f0-a296-0c43e1f36483","a9f3d40c-5730-405c-b25e-1034c4c56f3f","{""num_scrambled_semantic"":""8"",""num_scrambled_causal"":""4"",""num_scrambled_schematic"":""4"",""participantId"":""164CFCF7AA2142BF8E980A3E25CC6FE4"",""assignmentId"":""e3698efa-036e-41f0-a296-0c43e1f36483"",""projectId"":""a9f3d40c-5730-405c-b25e-1034c4c56f3f""}","https://test12345.live/?num_scrambled_semantic=8&num_scrambled_causal=4&num_scrambled_schematic=4&participantId=164CFCF7AA2142BF8E980A3E25CC6FE4&assignmentId=e3698efa-036e-41f0-a296-0c43e1f36483&projectId=a9f3d40c-5730-405c-b25e-1034c4c56f3f","164CFCF7AA2142BF8E980A3E25CC6FE4-2025-08-07-18-52-10","","null","","images/causal_sequence/saving_a_cat_causal/saving_a_cat_causal_0.png","null","",""
"","","","","","image-button-response","89","340561","0.0-14.0-1.0-0.0","164CFCF7AA2142BF8E980A3E25CC6FE4","164CFCF7AA2142BF8E980A3E25CC6FE4","e3698efa-036e-41f0-a296-0c43e1f36483","a9f3d40c-5730-405c-b25e-1034c4c56f3f","{""num_scrambled_semantic"":""8"",""num_scrambled_causal"":""4"",""num_scrambled_schematic"":""4"",""participantId"":""164CFCF7AA2142BF8E980A3E25CC6FE4"",""assignmentId"":""e3698efa-036e-41f0-a296-0c43e1f36483"",""projectId"":""a9f3d40c-5730-405c-b25e-1034c4c56f3f""}","https://test12345.live/?num_scrambled_semantic=8&num_scrambled_causal=4&num_scrambled_schematic=4&participantId=164CFCF7AA2142BF8E980A3E25CC6FE4&assignmentId=e3698efa-036e-41f0-a296-0c43e1f36483&projectId=a9f3d40c-5730-405c-b25e-1034c4c56f3f","164CFCF7AA2142BF8E980A3E25CC6FE4-2025-08-07-18-52-10","","null","","images/causal_sequence/saving_a_cat_causal/saving_a_cat_causal_4.png","null","",""
"","","","","","image-button-response","90","341651","0.0-14.0-1.0-1.0","164CFCF7AA2142BF8E980A3E25CC6FE4","164CFCF7AA2142BF8E980A3E25CC6FE4","e3698efa-036e-41f0-a296-0c43e1f36483","a9f3d40c-5730-405c-b25e-1034c4c56f3f","{""num_scrambled_semantic"":""8"",""num_scrambled_causal"":""4"",""num_scrambled_schematic"":""4"",""participantId"":""164CFCF7AA2142BF8E980A3E25CC6FE4"",""assignmentId"":""e3698efa-036e-41f0-a296-0c43e1f36483"",""projectId"":""a9f3d40c-5730-405c-b25e-1034c4c56f3f""}","https://test12345.live/?num_scrambled_semantic=8&num_scrambled_causal=4&num_scrambled_schematic=4&participantId=164CFCF7AA2142BF8E980A3E25CC6FE4&assignmentId=e3698efa-036e-41f0-a296-0c43e1f36483&projectId=a9f3d40c-5730-405c-b25e-1034c4c56f3f","164CFCF7AA2142BF8E980A3E25CC6FE4-2025-08-07-18-52-10","","1089","","images/causal_sequence/saving_a_cat_causal/saving_a_cat_causal_4.png","0","",""
"","","","","","image-button-response","91","343457","0.0-14.0-1.0-2.0","164CFCF7AA2142BF8E980A3E25CC6FE4","164CFCF7AA2142BF8E980A3E25CC6FE4","e3698efa-036e-41f0-a296-0c43e1f36483","a9f3d40c-5730-405c-b25e-1034c4c56f3f","{""num_scrambled_semantic"":""8"",""num_scrambled_causal"":""4"",""num_scrambled_schematic"":""4"",""participantId"":""164CFCF7AA2142BF8E980A3E25CC6FE4"",""assignmentId"":""e3698efa-036e-41f0-a296-0c43e1f36483"",""projectId"":""a9f3d40c-5730-405c-b25e-1034c4c56f3f""}","https://test12345.live/?num_scrambled_semantic=8&num_scrambled_causal=4&num_scrambled_schematic=4&participantId=164CFCF7AA2142BF8E980A3E25CC6FE4&assignmentId=e3698efa-036e-41f0-a296-0c43e1f36483&projectId=a9f3d40c-5730-405c-b25e-1034c4c56f3f","164CFCF7AA2142BF8E980A3E25CC6FE4-2025-08-07-18-52-10","","null","","[]","null","",""
"","","","","","image-button-response","92","347958","0.0-14.0-1.0-0.1","164CFCF7AA2142BF8E980A3E25CC6FE4","164CFCF7AA2142BF8E980A3E25CC6FE4","e3698efa-036e-41f0-a296-0c43e1f36483","a9f3d40c-5730-405c-b25e-1034c4c56f3f","{""num_scrambled_semantic"":""8"",""num_scrambled_causal"":""4"",""num_scrambled_schematic"":""4"",""participantId"":""164CFCF7AA2142BF8E980A3E25CC6FE4"",""assignmentId"":""e3698efa-036e-41f0-a296-0c43e1f36483"",""projectId"":""a9f3d40c-5730-405c-b25e-1034c4c56f3f""}","https://test12345.live/?num_scrambled_semantic=8&num_scrambled_causal=4&num_scrambled_schematic=4&participantId=164CFCF7AA2142BF8E980A3E25CC6FE4&assignmentId=e3698efa-036e-41f0-a296-0c43e1f36483&projectId=a9f3d40c-5730-405c-b25e-1034c4c56f3f","164CFCF7AA2142BF8E980A3E25CC6FE4-2025-08-07-18-52-10","","null","","images/causal_sequence/saving_a_cat_causal/saving_a_cat_causal_2.png","null","",""
"","","","","","image-button-response","93","349789","0.0-14.0-1.0-1.1","164CFCF7AA2142BF8E980A3E25CC6FE4","164CFCF7AA2142BF8E980A3E25CC6FE4","e3698efa-036e-41f0-a296-0c43e1f36483","a9f3d40c-5730-405c-b25e-1034c4c56f3f","{""num_scrambled_semantic"":""8"",""num_scrambled_causal"":""4"",""num_scrambled_schematic"":""4"",""participantId"":""164CFCF7AA2142BF8E980A3E25CC6FE4"",""assignmentId"":""e3698efa-036e-41f0-a296-0c43e1f36483"",""projectId"":""a9f3d40c-5730-405c-b25e-1034c4c56f3f""}","https://test12345.live/?num_scrambled_semantic=8&num_scrambled_causal=4&num_scrambled_schematic=4&participantId=164CFCF7AA2142BF8E980A3E25CC6FE4&assignmentId=e3698efa-036e-41f0-a296-0c43e1f36483&projectId=a9f3d40c-5730-405c-b25e-1034c4c56f3f","164CFCF7AA2142BF8E980A3E25CC6FE4-2025-08-07-18-52-10","","1831","","images/causal_sequence/saving_a_cat_causal/saving_a_cat_causal_2.png","1","",""
"","","","","","image-button-response","94","351604","0.0-14.0-1.0-2.1","164CFCF7AA2142BF8E980A3E25CC6FE4","164CFCF7AA2142BF8E980A3E25CC6FE4","e3698efa-036e-41f0-a296-0c43e1f36483","a9f3d40c-5730-405c-b25e-1034c4c56f3f","{""num_scrambled_semantic"":""8"",""num_scrambled_causal"":""4"",""num_scrambled_schematic"":""4"",""participantId"":""164CFCF7AA2142BF8E980A3E25CC6FE4"",""assignmentId"":""e3698efa-036e-41f0-a296-0c43e1f36483"",""projectId"":""a9f3d40c-5730-405c-b25e-1034c4c56f3f""}","https://test12345.live/?num_scrambled_semantic=8&num_scrambled_causal=4&num_scrambled_schematic=4&participantId=164CFCF7AA2142BF8E980A3E25CC6FE4&assignmentId=e3698efa-036e-41f0-a296-0c43e1f36483&projectId=a9f3d40c-5730-405c-b25e-1034c4c56f3f","164CFCF7AA2142BF8E980A3E25CC6FE4-2025-08-07-18-52-10","","null","","[]","null","",""
"","","","","","image-button-response","95","356116","0.0-14.0-1.0-0.2","164CFCF7AA2142BF8E980A3E25CC6FE4","164CFCF7AA2142BF8E980A3E25CC6FE4","e3698efa-036e-41f0-a296-0c43e1f36483","a9f3d40c-5730-405c-b25e-1034c4c56f3f","{""num_scrambled_semantic"":""8"",""num_scrambled_causal"":""4"",""num_scrambled_schematic"":""4"",""participantId"":""164CFCF7AA2142BF8E980A3E25CC6FE4"",""assignmentId"":""e3698efa-036e-41f0-a296-0c43e1f36483"",""projectId"":""a9f3d40c-5730-405c-b25e-1034c4c56f3f""}","https://test12345.live/?num_scrambled_semantic=8&num_scrambled_causal=4&num_scrambled_schematic=4&participantId=164CFCF7AA2142BF8E980A3E25CC6FE4&assignmentId=e3698efa-036e-41f0-a296-0c43e1f36483&projectId=a9f3d40c-5730-405c-b25e-1034c4c56f3f","164CFCF7AA2142BF8E980A3E25CC6FE4-2025-08-07-18-52-10","","null","","images/causal_sequence/saving_a_cat_causal/saving_a_cat_causal_3.png","null","",""
"","","","","","image-button-response","96","356697","0.0-14.0-1.0-1.2","164CFCF7AA2142BF8E980A3E25CC6FE4","164CFCF7AA2142BF8E980A3E25CC6FE4","e3698efa-036e-41f0-a296-0c43e1f36483","a9f3d40c-5730-405c-b25e-1034c4c56f3f","{""num_scrambled_semantic"":""8"",""num_scrambled_causal"":""4"",""num_scrambled_schematic"":""4"",""participantId"":""164CFCF7AA2142BF8E980A3E25CC6FE4"",""assignmentId"":""e3698efa-036e-41f0-a296-0c43e1f36483"",""projectId"":""a9f3d40c-5730-405c-b25e-1034c4c56f3f""}","https://test12345.live/?num_scrambled_semantic=8&num_scrambled_causal=4&num_scrambled_schematic=4&participantId=164CFCF7AA2142BF8E980A3E25CC6FE4&assignmentId=e3698efa-036e-41f0-a296-0c43e1f36483&projectId=a9f3d40c-5730-405c-b25e-1034c4c56f3f","164CFCF7AA2142BF8E980A3E25CC6FE4-2025-08-07-18-52-10","","581","","images/causal_sequence/saving_a_cat_causal/saving_a_cat_causal_3.png","1","",""
"","","","","","image-button-response","97","358501","0.0-14.0-1.0-2.2","164CFCF7AA2142BF8E980A3E25CC6FE4","164CFCF7AA2142BF8E980A3E25CC6FE4","e3698efa-036e-41f0-a296-0c43e1f36483","a9f3d40c-5730-405c-b25e-1034c4c56f3f","{""num_scrambled_semantic"":""8"",""num_scrambled_causal"":""4"",""num_scrambled_schematic"":""4"",""participantId"":""164CFCF7AA2142BF8E980A3E25CC6FE4"",""assignmentId"":""e3698efa-036e-41f0-a296-0c43e1f36483"",""projectId"":""a9f3d40c-5730-405c-b25e-1034c4c56f3f""}","https://test12345.live/?num_scrambled_semantic=8&num_scrambled_causal=4&num_scrambled_schematic=4&participantId=164CFCF7AA2142BF8E980A3E25CC6FE4&assignmentId=e3698efa-036e-41f0-a296-0c43e1f36483&projectId=a9f3d40c-5730-405c-b25e-1034c4c56f3f","164CFCF7AA2142BF8E980A3E25CC6FE4-2025-08-07-18-52-10","","null","","[]","null","",""
"","","","","","image-button-response","98","363002","0.0-14.0-1.0-0.3","164CFCF7AA2142BF8E980A3E25CC6FE4","164CFCF7AA2142BF8E980A3E25CC6FE4","e3698efa-036e-41f0-a296-0c43e1f36483","a9f3d40c-5730-405c-b25e-1034c4c56f3f","{""num_scrambled_semantic"":""8"",""num_scrambled_causal"":""4"",""num_scrambled_schematic"":""4"",""participantId"":""164CFCF7AA2142BF8E980A3E25CC6FE4"",""assignmentId"":""e3698efa-036e-41f0-a296-0c43e1f36483"",""projectId"":""a9f3d40c-5730-405c-b25e-1034c4c56f3f""}","https://test12345.live/?num_scrambled_semantic=8&num_scrambled_causal=4&num_scrambled_schematic=4&participantId=164CFCF7AA2142BF8E980A3E25CC6FE4&assignmentId=e3698efa-036e-41f0-a296-0c43e1f36483&projectId=a9f3d40c-5730-405c-b25e-1034c4c56f3f","164CFCF7AA2142BF8E980A3E25CC6FE4-2025-08-07-18-52-10","","null","","images/causal_sequence/saving_a_cat_causal/saving_a_cat_causal_9.png","null","",""
"","","","","","image-button-response","99","363657","0.0-14.0-1.0-1.3","164CFCF7AA2142BF8E980A3E25CC6FE4","164CFCF7AA2142BF8E980A3E25CC6FE4","e3698efa-036e-41f0-a296-0c43e1f36483","a9f3d40c-5730-405c-b25e-1034c4c56f3f","{""num_scrambled_semantic"":""8"",""num_scrambled_causal"":""4"",""num_scrambled_schematic"":""4"",""participantId"":""164CFCF7AA2142BF8E980A3E25CC6FE4"",""assignmentId"":""e3698efa-036e-41f0-a296-0c43e1f36483"",""projectId"":""a9f3d40c-5730-405c-b25e-1034c4c56f3f""}","https://test12345.live/?num_scrambled_semantic=8&num_scrambled_causal=4&num_scrambled_schematic=4&participantId=164CFCF7AA2142BF8E980A3E25CC6FE4&assignmentId=e3698efa-036e-41f0-a296-0c43e1f36483&projectId=a9f3d40c-5730-405c-b25e-1034c4c56f3f","164CFCF7AA2142BF8E980A3E25CC6FE4-2025-08-07-18-52-10","","655","","images/causal_sequence/saving_a_cat_causal/saving_a_cat_causal_9.png","0","",""
"","","","","","image-button-response","100","365471","0.0-14.0-1.0-2.3","164CFCF7AA2142BF8E980A3E25CC6FE4","164CFCF7AA2142BF8E980A3E25CC6FE4","e3698efa-036e-41f0-a296-0c43e1f36483","a9f3d40c-5730-405c-b25e-1034c4c56f3f","{""num_scrambled_semantic"":""8"",""num_scrambled_causal"":""4"",""num_scrambled_schematic"":""4"",""participantId"":""164CFCF7AA2142BF8E980A3E25CC6FE4"",""assignmentId"":""e3698efa-036e-41f0-a296-0c43e1f36483"",""projectId"":""a9f3d40c-5730-405c-b25e-1034c4c56f3f""}","https://test12345.live/?num_scrambled_semantic=8&num_scrambled_causal=4&num_scrambled_schematic=4&participantId=164CFCF7AA2142BF8E980A3E25CC6FE4&assignmentId=e3698efa-036e-41f0-a296-0c43e1f36483&projectId=a9f3d40c-5730-405c-b25e-1034c4c56f3f","164CFCF7AA2142BF8E980A3E25CC6FE4-2025-08-07-18-52-10","","null","","[]","null","",""
"","","","","","image-button-response","101","369981","0.0-14.0-1.0-0.4","164CFCF7AA2142BF8E980A3E25CC6FE4","164CFCF7AA2142BF8E980A3E25CC6FE4","e3698efa-036e-41f0-a296-0c43e1f36483","a9f3d40c-5730-405c-b25e-1034c4c56f3f","{""num_scrambled_semantic"":""8"",""num_scrambled_causal"":""4"",""num_scrambled_schematic"":""4"",""participantId"":""164CFCF7AA2142BF8E980A3E25CC6FE4"",""assignmentId"":""e3698efa-036e-41f0-a296-0c43e1f36483"",""projectId"":""a9f3d40c-5730-405c-b25e-1034c4c56f3f""}","https://test12345.live/?num_scrambled_semantic=8&num_scrambled_causal=4&num_scrambled_schematic=4&participantId=164CFCF7AA2142BF8E980A3E25CC6FE4&assignmentId=e3698efa-036e-41f0-a296-0c43e1f36483&projectId=a9f3d40c-5730-405c-b25e-1034c4c56f3f","164CFCF7AA2142BF8E980A3E25CC6FE4-2025-08-07-18-52-10","","null","","images/causal_sequence/saving_a_cat_causal/saving_a_cat_causal_6.png","null","",""
"","","","","","image-button-response","102","371044","0.0-14.0-1.0-1.4","164CFCF7AA2142BF8E980A3E25CC6FE4","164CFCF7AA2142BF8E980A3E25CC6FE4","e3698efa-036e-41f0-a296-0c43e1f36483","a9f3d40c-5730-405c-b25e-1034c4c56f3f","{""num_scrambled_semantic"":""8"",""num_scrambled_causal"":""4"",""num_scrambled_schematic"":""4"",""participantId"":""164CFCF7AA2142BF8E980A3E25CC6FE4"",""assignmentId"":""e3698efa-036e-41f0-a296-0c43e1f36483"",""projectId"":""a9f3d40c-5730-405c-b25e-1034c4c56f3f""}","https://test12345.live/?num_scrambled_semantic=8&num_scrambled_causal=4&num_scrambled_schematic=4&participantId=164CFCF7AA2142BF8E980A3E25CC6FE4&assignmentId=e3698efa-036e-41f0-a296-0c43e1f36483&projectId=a9f3d40c-5730-405c-b25e-1034c4c56f3f","164CFCF7AA2142BF8E980A3E25CC6FE4-2025-08-07-18-52-10","","1062","","images/causal_sequence/saving_a_cat_causal/saving_a_cat_causal_6.png","0","",""
"","","","","","image-button-response","103","372858","0.0-14.0-1.0-2.4","164CFCF7AA2142BF8E980A3E25CC6FE4","164CFCF7AA2142BF8E980A3E25CC6FE4","e3698efa-036e-41f0-a296-0c43e1f36483","a9f3d40c-5730-405c-b25e-1034c4c56f3f","{""num_scrambled_semantic"":""8"",""num_scrambled_causal"":""4"",""num_scrambled_schematic"":""4"",""participantId"":""164CFCF7AA2142BF8E980A3E25CC6FE4"",""assignmentId"":""e3698efa-036e-41f0-a296-0c43e1f36483"",""projectId"":""a9f3d40c-5730-405c-b25e-1034c4c56f3f""}","https://test12345.live/?num_scrambled_semantic=8&num_scrambled_causal=4&num_scrambled_schematic=4&participantId=164CFCF7AA2142BF8E980A3E25CC6FE4&assignmentId=e3698efa-036e-41f0-a296-0c43e1f36483&projectId=a9f3d40c-5730-405c-b25e-1034c4c56f3f","164CFCF7AA2142BF8E980A3E25CC6FE4-2025-08-07-18-52-10","","null","","[]","null","",""
"","","","","","image-button-response","104","377359","0.0-14.0-1.0-0.5","164CFCF7AA2142BF8E980A3E25CC6FE4","164CFCF7AA2142BF8E980A3E25CC6FE4","e3698efa-036e-41f0-a296-0c43e1f36483","a9f3d40c-5730-405c-b25e-1034c4c56f3f","{""num_scrambled_semantic"":""8"",""num_scrambled_causal"":""4"",""num_scrambled_schematic"":""4"",""participantId"":""164CFCF7AA2142BF8E980A3E25CC6FE4"",""assignmentId"":""e3698efa-036e-41f0-a296-0c43e1f36483"",""projectId"":""a9f3d40c-5730-405c-b25e-1034c4c56f3f""}","https://test12345.live/?num_scrambled_semantic=8&num_scrambled_causal=4&num_scrambled_schematic=4&participantId=164CFCF7AA2142BF8E980A3E25CC6FE4&assignmentId=e3698efa-036e-41f0-a296-0c43e1f36483&projectId=a9f3d40c-5730-405c-b25e-1034c4c56f3f","164CFCF7AA2142BF8E980A3E25CC6FE4-2025-08-07-18-52-10","","null","","images/causal_sequence/saving_a_cat_causal/saving_a_cat_causal_7.png","null","",""
"","","","","","image-button-response","105","378381","0.0-14.0-1.0-1.5","164CFCF7AA2142BF8E980A3E25CC6FE4","164CFCF7AA2142BF8E980A3E25CC6FE4","e3698efa-036e-41f0-a296-0c43e1f36483","a9f3d40c-5730-405c-b25e-1034c4c56f3f","{""num_scrambled_semantic"":""8"",""num_scrambled_causal"":""4"",""num_scrambled_schematic"":""4"",""participantId"":""164CFCF7AA2142BF8E980A3E25CC6FE4"",""assignmentId"":""e3698efa-036e-41f0-a296-0c43e1f36483"",""projectId"":""a9f3d40c-5730-405c-b25e-1034c4c56f3f""}","https://test12345.live/?num_scrambled_semantic=8&num_scrambled_causal=4&num_scrambled_schematic=4&participantId=164CFCF7AA2142BF8E980A3E25CC6FE4&assignmentId=e3698efa-036e-41f0-a296-0c43e1f36483&projectId=a9f3d40c-5730-405c-b25e-1034c4c56f3f","164CFCF7AA2142BF8E980A3E25CC6FE4-2025-08-07-18-52-10","","1021","","images/causal_sequence/saving_a_cat_causal/saving_a_cat_causal_7.png","0","",""
"","","","","","image-button-response","106","380191","0.0-14.0-1.0-2.5","164CFCF7AA2142BF8E980A3E25CC6FE4","164CFCF7AA2142BF8E980A3E25CC6FE4","e3698efa-036e-41f0-a296-0c43e1f36483","a9f3d40c-5730-405c-b25e-1034c4c56f3f","{""num_scrambled_semantic"":""8"",""num_scrambled_causal"":""4"",""num_scrambled_schematic"":""4"",""participantId"":""164CFCF7AA2142BF8E980A3E25CC6FE4"",""assignmentId"":""e3698efa-036e-41f0-a296-0c43e1f36483"",""projectId"":""a9f3d40c-5730-405c-b25e-1034c4c56f3f""}","https://test12345.live/?num_scrambled_semantic=8&num_scrambled_causal=4&num_scrambled_schematic=4&participantId=164CFCF7AA2142BF8E980A3E25CC6FE4&assignmentId=e3698efa-036e-41f0-a296-0c43e1f36483&projectId=a9f3d40c-5730-405c-b25e-1034c4c56f3f","164CFCF7AA2142BF8E980A3E25CC6FE4-2025-08-07-18-52-10","","null","","[]","null","",""
"","","","","","image-button-response","107","384704","0.0-14.0-1.0-0.6","164CFCF7AA2142BF8E980A3E25CC6FE4","164CFCF7AA2142BF8E980A3E25CC6FE4","e3698efa-036e-41f0-a296-0c43e1f36483","a9f3d40c-5730-405c-b25e-1034c4c56f3f","{""num_scrambled_semantic"":""8"",""num_scrambled_causal"":""4"",""num_scrambled_schematic"":""4"",""participantId"":""164CFCF7AA2142BF8E980A3E25CC6FE4"",""assignmentId"":""e3698efa-036e-41f0-a296-0c43e1f36483"",""projectId"":""a9f3d40c-5730-405c-b25e-1034c4c56f3f""}","https://test12345.live/?num_scrambled_semantic=8&num_scrambled_causal=4&num_scrambled_schematic=4&participantId=164CFCF7AA2142BF8E980A3E25CC6FE4&assignmentId=e3698efa-036e-41f0-a296-0c43e1f36483&projectId=a9f3d40c-5730-405c-b25e-1034c4c56f3f","164CFCF7AA2142BF8E980A3E25CC6FE4-2025-08-07-18-52-10","","null","","images/causal_sequence/saving_a_cat_causal/saving_a_cat_causal_5.png","null","",""
"","","","","","image-button-response","108","385340","0.0-14.0-1.0-1.6","164CFCF7AA2142BF8E980A3E25CC6FE4","164CFCF7AA2142BF8E980A3E25CC6FE4","e3698efa-036e-41f0-a296-0c43e1f36483","a9f3d40c-5730-405c-b25e-1034c4c56f3f","{""num_scrambled_semantic"":""8"",""num_scrambled_causal"":""4"",""num_scrambled_schematic"":""4"",""participantId"":""164CFCF7AA2142BF8E980A3E25CC6FE4"",""assignmentId"":""e3698efa-036e-41f0-a296-0c43e1f36483"",""projectId"":""a9f3d40c-5730-405c-b25e-1034c4c56f3f""}","https://test12345.live/?num_scrambled_semantic=8&num_scrambled_causal=4&num_scrambled_schematic=4&participantId=164CFCF7AA2142BF8E980A3E25CC6FE4&assignmentId=e3698efa-036e-41f0-a296-0c43e1f36483&projectId=a9f3d40c-5730-405c-b25e-1034c4c56f3f","164CFCF7AA2142BF8E980A3E25CC6FE4-2025-08-07-18-52-10","","636","","images/causal_sequence/saving_a_cat_causal/saving_a_cat_causal_5.png","0","",""
"","","","","","image-button-response","109","387147","0.0-14.0-1.0-2.6","164CFCF7AA2142BF8E980A3E25CC6FE4","164CFCF7AA2142BF8E980A3E25CC6FE4","e3698efa-036e-41f0-a296-0c43e1f36483","a9f3d40c-5730-405c-b25e-1034c4c56f3f","{""num_scrambled_semantic"":""8"",""num_scrambled_causal"":""4"",""num_scrambled_schematic"":""4"",""participantId"":""164CFCF7AA2142BF8E980A3E25CC6FE4"",""assignmentId"":""e3698efa-036e-41f0-a296-0c43e1f36483"",""projectId"":""a9f3d40c-5730-405c-b25e-1034c4c56f3f""}","https://test12345.live/?num_scrambled_semantic=8&num_scrambled_causal=4&num_scrambled_schematic=4&participantId=164CFCF7AA2142BF8E980A3E25CC6FE4&assignmentId=e3698efa-036e-41f0-a296-0c43e1f36483&projectId=a9f3d40c-5730-405c-b25e-1034c4c56f3f","164CFCF7AA2142BF8E980A3E25CC6FE4-2025-08-07-18-52-10","","null","","[]","null","",""
"","","","","","image-button-response","110","391650","0.0-14.0-1.0-0.7","164CFCF7AA2142BF8E980A3E25CC6FE4","164CFCF7AA2142BF8E980A3E25CC6FE4","e3698efa-036e-41f0-a296-0c43e1f36483","a9f3d40c-5730-405c-b25e-1034c4c56f3f","{""num_scrambled_semantic"":""8"",""num_scrambled_causal"":""4"",""num_scrambled_schematic"":""4"",""participantId"":""164CFCF7AA2142BF8E980A3E25CC6FE4"",""assignmentId"":""e3698efa-036e-41f0-a296-0c43e1f36483"",""projectId"":""a9f3d40c-5730-405c-b25e-1034c4c56f3f""}","https://test12345.live/?num_scrambled_semantic=8&num_scrambled_causal=4&num_scrambled_schematic=4&participantId=164CFCF7AA2142BF8E980A3E25CC6FE4&assignmentId=e3698efa-036e-41f0-a296-0c43e1f36483&projectId=a9f3d40c-5730-405c-b25e-1034c4c56f3f","164CFCF7AA2142BF8E980A3E25CC6FE4-2025-08-07-18-52-10","","null","","images/causal_sequence/saving_a_cat_causal/saving_a_cat_causal_ten.png","null","",""
"","","","","","image-button-response","111","392241","0.0-14.0-1.0-1.7","164CFCF7AA2142BF8E980A3E25CC6FE4","164CFCF7AA2142BF8E980A3E25CC6FE4","e3698efa-036e-41f0-a296-0c43e1f36483","a9f3d40c-5730-405c-b25e-1034c4c56f3f","{""num_scrambled_semantic"":""8"",""num_scrambled_causal"":""4"",""num_scrambled_schematic"":""4"",""participantId"":""164CFCF7AA2142BF8E980A3E25CC6FE4"",""assignmentId"":""e3698efa-036e-41f0-a296-0c43e1f36483"",""projectId"":""a9f3d40c-5730-405c-b25e-1034c4c56f3f""}","https://test12345.live/?num_scrambled_semantic=8&num_scrambled_causal=4&num_scrambled_schematic=4&participantId=164CFCF7AA2142BF8E980A3E25CC6FE4&assignmentId=e3698efa-036e-41f0-a296-0c43e1f36483&projectId=a9f3d40c-5730-405c-b25e-1034c4c56f3f","164CFCF7AA2142BF8E980A3E25CC6FE4-2025-08-07-18-52-10","","590","","images/causal_sequence/saving_a_cat_causal/saving_a_cat_causal_ten.png","0","",""
"","","","","","image-button-response","112","394042","0.0-14.0-1.0-2.7","164CFCF7AA2142BF8E980A3E25CC6FE4","164CFCF7AA2142BF8E980A3E25CC6FE4","e3698efa-036e-41f0-a296-0c43e1f36483","a9f3d40c-5730-405c-b25e-1034c4c56f3f","{""num_scrambled_semantic"":""8"",""num_scrambled_causal"":""4"",""num_scrambled_schematic"":""4"",""participantId"":""164CFCF7AA2142BF8E980A3E25CC6FE4"",""assignmentId"":""e3698efa-036e-41f0-a296-0c43e1f36483"",""projectId"":""a9f3d40c-5730-405c-b25e-1034c4c56f3f""}","https://test12345.live/?num_scrambled_semantic=8&num_scrambled_causal=4&num_scrambled_schematic=4&participantId=164CFCF7AA2142BF8E980A3E25CC6FE4&assignmentId=e3698efa-036e-41f0-a296-0c43e1f36483&projectId=a9f3d40c-5730-405c-b25e-1034c4c56f3f","164CFCF7AA2142BF8E980A3E25CC6FE4-2025-08-07-18-52-10","","null","","[]","null","",""
"","","","","","image-button-response","113","398552","0.0-14.0-1.0-0.8","164CFCF7AA2142BF8E980A3E25CC6FE4","164CFCF7AA2142BF8E980A3E25CC6FE4","e3698efa-036e-41f0-a296-0c43e1f36483","a9f3d40c-5730-405c-b25e-1034c4c56f3f","{""num_scrambled_semantic"":""8"",""num_scrambled_causal"":""4"",""num_scrambled_schematic"":""4"",""participantId"":""164CFCF7AA2142BF8E980A3E25CC6FE4"",""assignmentId"":""e3698efa-036e-41f0-a296-0c43e1f36483"",""projectId"":""a9f3d40c-5730-405c-b25e-1034c4c56f3f""}","https://test12345.live/?num_scrambled_semantic=8&num_scrambled_causal=4&num_scrambled_schematic=4&participantId=164CFCF7AA2142BF8E980A3E25CC6FE4&assignmentId=e3698efa-036e-41f0-a296-0c43e1f36483&projectId=a9f3d40c-5730-405c-b25e-1034c4c56f3f","164CFCF7AA2142BF8E980A3E25CC6FE4-2025-08-07-18-52-10","","null","","images/causal_sequence/saving_a_cat_causal/saving_a_cat_causal_8.png","null","",""
"","","","","","image-button-response","114","399193","0.0-14.0-1.0-1.8","164CFCF7AA2142BF8E980A3E25CC6FE4","164CFCF7AA2142BF8E980A3E25CC6FE4","e3698efa-036e-41f0-a296-0c43e1f36483","a9f3d40c-5730-405c-b25e-1034c4c56f3f","{""num_scrambled_semantic"":""8"",""num_scrambled_causal"":""4"",""num_scrambled_schematic"":""4"",""participantId"":""164CFCF7AA2142BF8E980A3E25CC6FE4"",""assignmentId"":""e3698efa-036e-41f0-a296-0c43e1f36483"",""projectId"":""a9f3d40c-5730-405c-b25e-1034c4c56f3f""}","https://test12345.live/?num_scrambled_semantic=8&num_scrambled_causal=4&num_scrambled_schematic=4&participantId=164CFCF7AA2142BF8E980A3E25CC6FE4&assignmentId=e3698efa-036e-41f0-a296-0c43e1f36483&projectId=a9f3d40c-5730-405c-b25e-1034c4c56f3f","164CFCF7AA2142BF8E980A3E25CC6FE4-2025-08-07-18-52-10","","641","","images/causal_sequence/saving_a_cat_causal/saving_a_cat_causal_8.png","0","",""
"","","","","","image-button-response","115","400999","0.0-14.0-1.0-2.8","164CFCF7AA2142BF8E980A3E25CC6FE4","164CFCF7AA2142BF8E980A3E25CC6FE4","e3698efa-036e-41f0-a296-0c43e1f36483","a9f3d40c-5730-405c-b25e-1034c4c56f3f","{""num_scrambled_semantic"":""8"",""num_scrambled_causal"":""4"",""num_scrambled_schematic"":""4"",""participantId"":""164CFCF7AA2142BF8E980A3E25CC6FE4"",""assignmentId"":""e3698efa-036e-41f0-a296-0c43e1f36483"",""projectId"":""a9f3d40c-5730-405c-b25e-1034c4c56f3f""}","https://test12345.live/?num_scrambled_semantic=8&num_scrambled_causal=4&num_scrambled_schematic=4&participantId=164CFCF7AA2142BF8E980A3E25CC6FE4&assignmentId=e3698efa-036e-41f0-a296-0c43e1f36483&projectId=a9f3d40c-5730-405c-b25e-1034c4c56f3f","164CFCF7AA2142BF8E980A3E25CC6FE4-2025-08-07-18-52-10","","null","","[]","null","",""
