"success","timeout","failed_images","failed_audio","failed_video","trial_type","trial_index","time_elapsed","internal_node_id","subject","subject_id","study_id","session_id","urlvar","current_url","audio_id","view_history","rt","device_id","stimulus","response","estimated_stimulus_onset","seq_name"
"true","false","[]","[]","[]","preload","0","48499","0.0-0.0","17793421981E4569B11DD4ABAC233FDA","17793421981E4569B11DD4ABAC233FDA","0198ef12-df43-7740-84c6-82ca8fb8f829","0198ee3c-27ac-7803-a9ea-f3b4ad4ad678","{""num_scrambled_semantic"":""8"",""num_scrambled_causal"":""4"",""num_scrambled_schematic"":""4"",""participantId"":""17793421981E4569B11DD4ABAC233FDA"",""assignmentId"":""0198ef12-df43-7740-84c6-82ca8fb8f829"",""projectId"":""0198ee3c-27ac-7803-a9ea-f3b4ad4ad678""}","https://test12345.live/?num_scrambled_semantic=8&num_scrambled_causal=4&num_scrambled_schematic=4&participantId=17793421981E4569B11DD4ABAC233FDA&assignmentId=0198ef12-df43-7740-84c6-82ca8fb8f829&projectId=0198ee3c-27ac-7803-a9ea-f3b4ad4ad678","17793421981E4569B11DD4ABAC233FDA-2025-08-28-06-10-00","","","","","","",""
"","","","","","instructions","1","336860","0.0-1.0","17793421981E4569B11DD4ABAC233FDA","17793421981E4569B11DD4ABAC233FDA","0198ef12-df43-7740-84c6-82ca8fb8f829","0198ee3c-27ac-7803-a9ea-f3b4ad4ad678","{""num_scrambled_semantic"":""8"",""num_scrambled_causal"":""4"",""num_scrambled_schematic"":""4"",""participantId"":""17793421981E4569B11DD4ABAC233FDA"",""assignmentId"":""0198ef12-df43-7740-84c6-82ca8fb8f829"",""projectId"":""0198ee3c-27ac-7803-a9ea-f3b4ad4ad678""}","https://test12345.live/?num_scrambled_semantic=8&num_scrambled_causal=4&num_scrambled_schematic=4&participantId=17793421981E4569B11DD4ABAC233FDA&assignmentId=0198ef12-df43-7740-84c6-82ca8fb8f829&projectId=0198ee3c-27ac-7803-a9ea-f3b4ad4ad678","17793421981E4569B11DD4ABAC233FDA-2025-08-28-06-10-00","[{""page_index"":0,""viewing_time"":288357}]","288357","","","","",""
"","","","","","instructions","2","354451","0.0-2.0","17793421981E4569B11DD4ABAC233FDA","17793421981E4569B11DD4ABAC233FDA","0198ef12-df43-7740-84c6-82ca8fb8f829","0198ee3c-27ac-7803-a9ea-f3b4ad4ad678","{""num_scrambled_semantic"":""8"",""num_scrambled_causal"":""4"",""num_scrambled_schematic"":""4"",""participantId"":""17793421981E4569B11DD4ABAC233FDA"",""assignmentId"":""0198ef12-df43-7740-84c6-82ca8fb8f829"",""projectId"":""0198ee3c-27ac-7803-a9ea-f3b4ad4ad678""}","https://test12345.live/?num_scrambled_semantic=8&num_scrambled_causal=4&num_scrambled_schematic=4&participantId=17793421981E4569B11DD4ABAC233FDA&assignmentId=0198ef12-df43-7740-84c6-82ca8fb8f829&projectId=0198ee3c-27ac-7803-a9ea-f3b4ad4ad678","17793421981E4569B11DD4ABAC233FDA-2025-08-28-06-10-00","[{""page_index"":0,""viewing_time"":17591}]","17591","","","","",""
"true","","","","","fullscreen","3","373474","0.0-3.0","17793421981E4569B11DD4ABAC233FDA","17793421981E4569B11DD4ABAC233FDA","0198ef12-df43-7740-84c6-82ca8fb8f829","0198ee3c-27ac-7803-a9ea-f3b4ad4ad678","{""num_scrambled_semantic"":""8"",""num_scrambled_causal"":""4"",""num_scrambled_schematic"":""4"",""participantId"":""17793421981E4569B11DD4ABAC233FDA"",""assignmentId"":""0198ef12-df43-7740-84c6-82ca8fb8f829"",""projectId"":""0198ee3c-27ac-7803-a9ea-f3b4ad4ad678""}","https://test12345.live/?num_scrambled_semantic=8&num_scrambled_causal=4&num_scrambled_schematic=4&participantId=17793421981E4569B11DD4ABAC233FDA&assignmentId=0198ef12-df43-7740-84c6-82ca8fb8f829&projectId=0198ee3c-27ac-7803-a9ea-f3b4ad4ad678","17793421981E4569B11DD4ABAC233FDA-2025-08-28-06-10-00","","18020","","","","",""
"","","","","","initialize-microphone","4","379064","0.0-4.0-0.0","17793421981E4569B11DD4ABAC233FDA","17793421981E4569B11DD4ABAC233FDA","0198ef12-df43-7740-84c6-82ca8fb8f829","0198ee3c-27ac-7803-a9ea-f3b4ad4ad678","{""num_scrambled_semantic"":""8"",""num_scrambled_causal"":""4"",""num_scrambled_schematic"":""4"",""participantId"":""17793421981E4569B11DD4ABAC233FDA"",""assignmentId"":""0198ef12-df43-7740-84c6-82ca8fb8f829"",""projectId"":""0198ee3c-27ac-7803-a9ea-f3b4ad4ad678""}","https://test12345.live/?num_scrambled_semantic=8&num_scrambled_causal=4&num_scrambled_schematic=4&participantId=17793421981E4569B11DD4ABAC233FDA&assignmentId=0198ef12-df43-7740-84c6-82ca8fb8f829&projectId=0198ee3c-27ac-7803-a9ea-f3b4ad4ad678","17793421981E4569B11DD4ABAC233FDA-2025-08-28-06-10-00","","","25bd96c4ed58c4c19fa8136d2db41474f1608ab84dc53a8afd1ffc4f5fc86925","","","",""
"","","","","","html-audio-response","5","392780","0.0-4.0-1.0","17793421981E4569B11DD4ABAC233FDA","17793421981E4569B11DD4ABAC233FDA","0198ef12-df43-7740-84c6-82ca8fb8f829","0198ee3c-27ac-7803-a9ea-f3b4ad4ad678","{""num_scrambled_semantic"":""8"",""num_scrambled_causal"":""4"",""num_scrambled_schematic"":""4"",""participantId"":""17793421981E4569B11DD4ABAC233FDA"",""assignmentId"":""0198ef12-df43-7740-84c6-82ca8fb8f829"",""projectId"":""0198ee3c-27ac-7803-a9ea-f3b4ad4ad678""}","https://test12345.live/?num_scrambled_semantic=8&num_scrambled_causal=4&num_scrambled_schematic=4&participantId=17793421981E4569B11DD4ABAC233FDA&assignmentId=0198ef12-df43-7740-84c6-82ca8fb8f829&projectId=0198ee3c-27ac-7803-a9ea-f3b4ad4ad678","17793421981E4569B11DD4ABAC233FDA-2025-08-28-06-10-00","","3677","","<span style=""color: red; font-size: 24px""> NOW RECORDING</span>
        <p>Please test Microphone</p>","","11",""
"","","","","","html-button-response","6","396631","0.0-4.0-2.0","17793421981E4569B11DD4ABAC233FDA","17793421981E4569B11DD4ABAC233FDA","0198ef12-df43-7740-84c6-82ca8fb8f829","0198ee3c-27ac-7803-a9ea-f3b4ad4ad678","{""num_scrambled_semantic"":""8"",""num_scrambled_causal"":""4"",""num_scrambled_schematic"":""4"",""participantId"":""17793421981E4569B11DD4ABAC233FDA"",""assignmentId"":""0198ef12-df43-7740-84c6-82ca8fb8f829"",""projectId"":""0198ee3c-27ac-7803-a9ea-f3b4ad4ad678""}","https://test12345.live/?num_scrambled_semantic=8&num_scrambled_causal=4&num_scrambled_schematic=4&participantId=17793421981E4569B11DD4ABAC233FDA&assignmentId=0198ef12-df43-7740-84c6-82ca8fb8f829&projectId=0198ee3c-27ac-7803-a9ea-f3b4ad4ad678","17793421981E4569B11DD4ABAC233FDA-2025-08-28-06-10-00","","3849","","<p style=""font-size:48px; color:red;"">Is Microphone OK?</p>","1","",""
"","","","","","instructions","7","415022","0.0-5.0","17793421981E4569B11DD4ABAC233FDA","17793421981E4569B11DD4ABAC233FDA","0198ef12-df43-7740-84c6-82ca8fb8f829","0198ee3c-27ac-7803-a9ea-f3b4ad4ad678","{""num_scrambled_semantic"":""8"",""num_scrambled_causal"":""4"",""num_scrambled_schematic"":""4"",""participantId"":""17793421981E4569B11DD4ABAC233FDA"",""assignmentId"":""0198ef12-df43-7740-84c6-82ca8fb8f829"",""projectId"":""0198ee3c-27ac-7803-a9ea-f3b4ad4ad678""}","https://test12345.live/?num_scrambled_semantic=8&num_scrambled_causal=4&num_scrambled_schematic=4&participantId=17793421981E4569B11DD4ABAC233FDA&assignmentId=0198ef12-df43-7740-84c6-82ca8fb8f829&projectId=0198ee3c-27ac-7803-a9ea-f3b4ad4ad678","17793421981E4569B11DD4ABAC233FDA-2025-08-28-06-10-00","[{""page_index"":0,""viewing_time"":4695},{""page_index"":1,""viewing_time"":13695}]","18391","","","","",""
"","","","","","image-button-response","8","421028","0.0-6.0-0.0","17793421981E4569B11DD4ABAC233FDA","17793421981E4569B11DD4ABAC233FDA","0198ef12-df43-7740-84c6-82ca8fb8f829","0198ee3c-27ac-7803-a9ea-f3b4ad4ad678","{""num_scrambled_semantic"":""8"",""num_scrambled_causal"":""4"",""num_scrambled_schematic"":""4"",""participantId"":""17793421981E4569B11DD4ABAC233FDA"",""assignmentId"":""0198ef12-df43-7740-84c6-82ca8fb8f829"",""projectId"":""0198ee3c-27ac-7803-a9ea-f3b4ad4ad678""}","https://test12345.live/?num_scrambled_semantic=8&num_scrambled_causal=4&num_scrambled_schematic=4&participantId=17793421981E4569B11DD4ABAC233FDA&assignmentId=0198ef12-df43-7740-84c6-82ca8fb8f829&projectId=0198ee3c-27ac-7803-a9ea-f3b4ad4ad678","17793421981E4569B11DD4ABAC233FDA-2025-08-28-06-10-00","","null","","images/instructions/movie_0.png","null","",""
"","","","","","image-button-response","9","425531","0.0-6.0-1.0-0.0","17793421981E4569B11DD4ABAC233FDA","17793421981E4569B11DD4ABAC233FDA","0198ef12-df43-7740-84c6-82ca8fb8f829","0198ee3c-27ac-7803-a9ea-f3b4ad4ad678","{""num_scrambled_semantic"":""8"",""num_scrambled_causal"":""4"",""num_scrambled_schematic"":""4"",""participantId"":""17793421981E4569B11DD4ABAC233FDA"",""assignmentId"":""0198ef12-df43-7740-84c6-82ca8fb8f829"",""projectId"":""0198ee3c-27ac-7803-a9ea-f3b4ad4ad678""}","https://test12345.live/?num_scrambled_semantic=8&num_scrambled_causal=4&num_scrambled_schematic=4&participantId=17793421981E4569B11DD4ABAC233FDA&assignmentId=0198ef12-df43-7740-84c6-82ca8fb8f829&projectId=0198ee3c-27ac-7803-a9ea-f3b4ad4ad678","17793421981E4569B11DD4ABAC233FDA-2025-08-28-06-10-00","","null","","images/instructions/movie_1.png","null","",""
"","","","","","image-button-response","10","428680","0.0-6.0-1.0-1.0","17793421981E4569B11DD4ABAC233FDA","17793421981E4569B11DD4ABAC233FDA","0198ef12-df43-7740-84c6-82ca8fb8f829","0198ee3c-27ac-7803-a9ea-f3b4ad4ad678","{""num_scrambled_semantic"":""8"",""num_scrambled_causal"":""4"",""num_scrambled_schematic"":""4"",""participantId"":""17793421981E4569B11DD4ABAC233FDA"",""assignmentId"":""0198ef12-df43-7740-84c6-82ca8fb8f829"",""projectId"":""0198ee3c-27ac-7803-a9ea-f3b4ad4ad678""}","https://test12345.live/?num_scrambled_semantic=8&num_scrambled_causal=4&num_scrambled_schematic=4&participantId=17793421981E4569B11DD4ABAC233FDA&assignmentId=0198ef12-df43-7740-84c6-82ca8fb8f829&projectId=0198ee3c-27ac-7803-a9ea-f3b4ad4ad678","17793421981E4569B11DD4ABAC233FDA-2025-08-28-06-10-00","","3146","","images/instructions/movie_1.png","0","",""
"","","","","","image-button-response","11","430484","0.0-6.0-1.0-2.0","17793421981E4569B11DD4ABAC233FDA","17793421981E4569B11DD4ABAC233FDA","0198ef12-df43-7740-84c6-82ca8fb8f829","0198ee3c-27ac-7803-a9ea-f3b4ad4ad678","{""num_scrambled_semantic"":""8"",""num_scrambled_causal"":""4"",""num_scrambled_schematic"":""4"",""participantId"":""17793421981E4569B11DD4ABAC233FDA"",""assignmentId"":""0198ef12-df43-7740-84c6-82ca8fb8f829"",""projectId"":""0198ee3c-27ac-7803-a9ea-f3b4ad4ad678""}","https://test12345.live/?num_scrambled_semantic=8&num_scrambled_causal=4&num_scrambled_schematic=4&participantId=17793421981E4569B11DD4ABAC233FDA&assignmentId=0198ef12-df43-7740-84c6-82ca8fb8f829&projectId=0198ee3c-27ac-7803-a9ea-f3b4ad4ad678","17793421981E4569B11DD4ABAC233FDA-2025-08-28-06-10-00","","null","","[]","null","",""
"","","","","","image-button-response","12","434986","0.0-6.0-1.0-0.1","17793421981E4569B11DD4ABAC233FDA","17793421981E4569B11DD4ABAC233FDA","0198ef12-df43-7740-84c6-82ca8fb8f829","0198ee3c-27ac-7803-a9ea-f3b4ad4ad678","{""num_scrambled_semantic"":""8"",""num_scrambled_causal"":""4"",""num_scrambled_schematic"":""4"",""participantId"":""17793421981E4569B11DD4ABAC233FDA"",""assignmentId"":""0198ef12-df43-7740-84c6-82ca8fb8f829"",""projectId"":""0198ee3c-27ac-7803-a9ea-f3b4ad4ad678""}","https://test12345.live/?num_scrambled_semantic=8&num_scrambled_causal=4&num_scrambled_schematic=4&participantId=17793421981E4569B11DD4ABAC233FDA&assignmentId=0198ef12-df43-7740-84c6-82ca8fb8f829&projectId=0198ee3c-27ac-7803-a9ea-f3b4ad4ad678","17793421981E4569B11DD4ABAC233FDA-2025-08-28-06-10-00","","null","","images/instructions/movie_2.png","null","",""
"","","","","","image-button-response","13","437530","0.0-6.0-1.0-1.1","17793421981E4569B11DD4ABAC233FDA","17793421981E4569B11DD4ABAC233FDA","0198ef12-df43-7740-84c6-82ca8fb8f829","0198ee3c-27ac-7803-a9ea-f3b4ad4ad678","{""num_scrambled_semantic"":""8"",""num_scrambled_causal"":""4"",""num_scrambled_schematic"":""4"",""participantId"":""17793421981E4569B11DD4ABAC233FDA"",""assignmentId"":""0198ef12-df43-7740-84c6-82ca8fb8f829"",""projectId"":""0198ee3c-27ac-7803-a9ea-f3b4ad4ad678""}","https://test12345.live/?num_scrambled_semantic=8&num_scrambled_causal=4&num_scrambled_schematic=4&participantId=17793421981E4569B11DD4ABAC233FDA&assignmentId=0198ef12-df43-7740-84c6-82ca8fb8f829&projectId=0198ee3c-27ac-7803-a9ea-f3b4ad4ad678","17793421981E4569B11DD4ABAC233FDA-2025-08-28-06-10-00","","2542","","images/instructions/movie_2.png","1","",""
"","","","","","image-button-response","14","439336","0.0-6.0-1.0-2.1","17793421981E4569B11DD4ABAC233FDA","17793421981E4569B11DD4ABAC233FDA","0198ef12-df43-7740-84c6-82ca8fb8f829","0198ee3c-27ac-7803-a9ea-f3b4ad4ad678","{""num_scrambled_semantic"":""8"",""num_scrambled_causal"":""4"",""num_scrambled_schematic"":""4"",""participantId"":""17793421981E4569B11DD4ABAC233FDA"",""assignmentId"":""0198ef12-df43-7740-84c6-82ca8fb8f829"",""projectId"":""0198ee3c-27ac-7803-a9ea-f3b4ad4ad678""}","https://test12345.live/?num_scrambled_semantic=8&num_scrambled_causal=4&num_scrambled_schematic=4&participantId=17793421981E4569B11DD4ABAC233FDA&assignmentId=0198ef12-df43-7740-84c6-82ca8fb8f829&projectId=0198ee3c-27ac-7803-a9ea-f3b4ad4ad678","17793421981E4569B11DD4ABAC233FDA-2025-08-28-06-10-00","","null","","[]","null","",""
"","","","","","image-button-response","15","443838","0.0-6.0-1.0-0.2","17793421981E4569B11DD4ABAC233FDA","17793421981E4569B11DD4ABAC233FDA","0198ef12-df43-7740-84c6-82ca8fb8f829","0198ee3c-27ac-7803-a9ea-f3b4ad4ad678","{""num_scrambled_semantic"":""8"",""num_scrambled_causal"":""4"",""num_scrambled_schematic"":""4"",""participantId"":""17793421981E4569B11DD4ABAC233FDA"",""assignmentId"":""0198ef12-df43-7740-84c6-82ca8fb8f829"",""projectId"":""0198ee3c-27ac-7803-a9ea-f3b4ad4ad678""}","https://test12345.live/?num_scrambled_semantic=8&num_scrambled_causal=4&num_scrambled_schematic=4&participantId=17793421981E4569B11DD4ABAC233FDA&assignmentId=0198ef12-df43-7740-84c6-82ca8fb8f829&projectId=0198ee3c-27ac-7803-a9ea-f3b4ad4ad678","17793421981E4569B11DD4ABAC233FDA-2025-08-28-06-10-00","","null","","images/instructions/movie_3.png","null","",""
"","","","","","image-button-response","16","446187","0.0-6.0-1.0-1.2","17793421981E4569B11DD4ABAC233FDA","17793421981E4569B11DD4ABAC233FDA","0198ef12-df43-7740-84c6-82ca8fb8f829","0198ee3c-27ac-7803-a9ea-f3b4ad4ad678","{""num_scrambled_semantic"":""8"",""num_scrambled_causal"":""4"",""num_scrambled_schematic"":""4"",""participantId"":""17793421981E4569B11DD4ABAC233FDA"",""assignmentId"":""0198ef12-df43-7740-84c6-82ca8fb8f829"",""projectId"":""0198ee3c-27ac-7803-a9ea-f3b4ad4ad678""}","https://test12345.live/?num_scrambled_semantic=8&num_scrambled_causal=4&num_scrambled_schematic=4&participantId=17793421981E4569B11DD4ABAC233FDA&assignmentId=0198ef12-df43-7740-84c6-82ca8fb8f829&projectId=0198ee3c-27ac-7803-a9ea-f3b4ad4ad678","17793421981E4569B11DD4ABAC233FDA-2025-08-28-06-10-00","","2345","","images/instructions/movie_3.png","0","",""
"","","","","","image-button-response","17","447990","0.0-6.0-1.0-2.2","17793421981E4569B11DD4ABAC233FDA","17793421981E4569B11DD4ABAC233FDA","0198ef12-df43-7740-84c6-82ca8fb8f829","0198ee3c-27ac-7803-a9ea-f3b4ad4ad678","{""num_scrambled_semantic"":""8"",""num_scrambled_causal"":""4"",""num_scrambled_schematic"":""4"",""participantId"":""17793421981E4569B11DD4ABAC233FDA"",""assignmentId"":""0198ef12-df43-7740-84c6-82ca8fb8f829"",""projectId"":""0198ee3c-27ac-7803-a9ea-f3b4ad4ad678""}","https://test12345.live/?num_scrambled_semantic=8&num_scrambled_causal=4&num_scrambled_schematic=4&participantId=17793421981E4569B11DD4ABAC233FDA&assignmentId=0198ef12-df43-7740-84c6-82ca8fb8f829&projectId=0198ee3c-27ac-7803-a9ea-f3b4ad4ad678","17793421981E4569B11DD4ABAC233FDA-2025-08-28-06-10-00","","null","","[]","null","",""
"","","","","","image-button-response","18","452492","0.0-6.0-1.0-0.3","17793421981E4569B11DD4ABAC233FDA","17793421981E4569B11DD4ABAC233FDA","0198ef12-df43-7740-84c6-82ca8fb8f829","0198ee3c-27ac-7803-a9ea-f3b4ad4ad678","{""num_scrambled_semantic"":""8"",""num_scrambled_causal"":""4"",""num_scrambled_schematic"":""4"",""participantId"":""17793421981E4569B11DD4ABAC233FDA"",""assignmentId"":""0198ef12-df43-7740-84c6-82ca8fb8f829"",""projectId"":""0198ee3c-27ac-7803-a9ea-f3b4ad4ad678""}","https://test12345.live/?num_scrambled_semantic=8&num_scrambled_causal=4&num_scrambled_schematic=4&participantId=17793421981E4569B11DD4ABAC233FDA&assignmentId=0198ef12-df43-7740-84c6-82ca8fb8f829&projectId=0198ee3c-27ac-7803-a9ea-f3b4ad4ad678","17793421981E4569B11DD4ABAC233FDA-2025-08-28-06-10-00","","null","","images/instructions/movie_4.png","null","",""
"","","","","","image-button-response","19","453755","0.0-6.0-1.0-1.3","17793421981E4569B11DD4ABAC233FDA","17793421981E4569B11DD4ABAC233FDA","0198ef12-df43-7740-84c6-82ca8fb8f829","0198ee3c-27ac-7803-a9ea-f3b4ad4ad678","{""num_scrambled_semantic"":""8"",""num_scrambled_causal"":""4"",""num_scrambled_schematic"":""4"",""participantId"":""17793421981E4569B11DD4ABAC233FDA"",""assignmentId"":""0198ef12-df43-7740-84c6-82ca8fb8f829"",""projectId"":""0198ee3c-27ac-7803-a9ea-f3b4ad4ad678""}","https://test12345.live/?num_scrambled_semantic=8&num_scrambled_causal=4&num_scrambled_schematic=4&participantId=17793421981E4569B11DD4ABAC233FDA&assignmentId=0198ef12-df43-7740-84c6-82ca8fb8f829&projectId=0198ee3c-27ac-7803-a9ea-f3b4ad4ad678","17793421981E4569B11DD4ABAC233FDA-2025-08-28-06-10-00","","1259","","images/instructions/movie_4.png","0","",""
"","","","","","image-button-response","20","455558","0.0-6.0-1.0-2.3","17793421981E4569B11DD4ABAC233FDA","17793421981E4569B11DD4ABAC233FDA","0198ef12-df43-7740-84c6-82ca8fb8f829","0198ee3c-27ac-7803-a9ea-f3b4ad4ad678","{""num_scrambled_semantic"":""8"",""num_scrambled_causal"":""4"",""num_scrambled_schematic"":""4"",""participantId"":""17793421981E4569B11DD4ABAC233FDA"",""assignmentId"":""0198ef12-df43-7740-84c6-82ca8fb8f829"",""projectId"":""0198ee3c-27ac-7803-a9ea-f3b4ad4ad678""}","https://test12345.live/?num_scrambled_semantic=8&num_scrambled_causal=4&num_scrambled_schematic=4&participantId=17793421981E4569B11DD4ABAC233FDA&assignmentId=0198ef12-df43-7740-84c6-82ca8fb8f829&projectId=0198ee3c-27ac-7803-a9ea-f3b4ad4ad678","17793421981E4569B11DD4ABAC233FDA-2025-08-28-06-10-00","","null","","[]","null","",""
"","","","","","instructions","21","476787","0.0-7.0","17793421981E4569B11DD4ABAC233FDA","17793421981E4569B11DD4ABAC233FDA","0198ef12-df43-7740-84c6-82ca8fb8f829","0198ee3c-27ac-7803-a9ea-f3b4ad4ad678","{""num_scrambled_semantic"":""8"",""num_scrambled_causal"":""4"",""num_scrambled_schematic"":""4"",""participantId"":""17793421981E4569B11DD4ABAC233FDA"",""assignmentId"":""0198ef12-df43-7740-84c6-82ca8fb8f829"",""projectId"":""0198ee3c-27ac-7803-a9ea-f3b4ad4ad678""}","https://test12345.live/?num_scrambled_semantic=8&num_scrambled_causal=4&num_scrambled_schematic=4&participantId=17793421981E4569B11DD4ABAC233FDA&assignmentId=0198ef12-df43-7740-84c6-82ca8fb8f829&projectId=0198ee3c-27ac-7803-a9ea-f3b4ad4ad678","17793421981E4569B11DD4ABAC233FDA-2025-08-28-06-10-00","[{""page_index"":0,""viewing_time"":21228}]","21228","","","","",""
"","","","","","html-audio-response","22","509001","0.0-8.0","17793421981E4569B11DD4ABAC233FDA","17793421981E4569B11DD4ABAC233FDA","0198ef12-df43-7740-84c6-82ca8fb8f829","0198ee3c-27ac-7803-a9ea-f3b4ad4ad678","{""num_scrambled_semantic"":""8"",""num_scrambled_causal"":""4"",""num_scrambled_schematic"":""4"",""participantId"":""17793421981E4569B11DD4ABAC233FDA"",""assignmentId"":""0198ef12-df43-7740-84c6-82ca8fb8f829"",""projectId"":""0198ee3c-27ac-7803-a9ea-f3b4ad4ad678""}","https://test12345.live/?num_scrambled_semantic=8&num_scrambled_causal=4&num_scrambled_schematic=4&participantId=17793421981E4569B11DD4ABAC233FDA&assignmentId=0198ef12-df43-7740-84c6-82ca8fb8f829&projectId=0198ee3c-27ac-7803-a9ea-f3b4ad4ad678","17793421981E4569B11DD4ABAC233FDA-2025-08-28-06-10-00","","14492","","[""<span style=\""color: red; font-size: 24px\""> NOW RECORDING</span><p>Please say out loud all the images you saw, in the order of the story they create. Try to recall the sequence of events as they appeared in the story, not necessarily the order they were presented on the screen.</p>""]","","3",""
"","","","","","instructions","23","511101","0.0-9.0","17793421981E4569B11DD4ABAC233FDA","17793421981E4569B11DD4ABAC233FDA","0198ef12-df43-7740-84c6-82ca8fb8f829","0198ee3c-27ac-7803-a9ea-f3b4ad4ad678","{""num_scrambled_semantic"":""8"",""num_scrambled_causal"":""4"",""num_scrambled_schematic"":""4"",""participantId"":""17793421981E4569B11DD4ABAC233FDA"",""assignmentId"":""0198ef12-df43-7740-84c6-82ca8fb8f829"",""projectId"":""0198ee3c-27ac-7803-a9ea-f3b4ad4ad678""}","https://test12345.live/?num_scrambled_semantic=8&num_scrambled_causal=4&num_scrambled_schematic=4&participantId=17793421981E4569B11DD4ABAC233FDA&assignmentId=0198ef12-df43-7740-84c6-82ca8fb8f829&projectId=0198ee3c-27ac-7803-a9ea-f3b4ad4ad678","17793421981E4569B11DD4ABAC233FDA-2025-08-28-06-10-00","[{""page_index"":0,""viewing_time"":2092}]","2093","","","","",""
"","","","","","image-button-response","24","517103","0.0-10.0-0.0","17793421981E4569B11DD4ABAC233FDA","17793421981E4569B11DD4ABAC233FDA","0198ef12-df43-7740-84c6-82ca8fb8f829","0198ee3c-27ac-7803-a9ea-f3b4ad4ad678","{""num_scrambled_semantic"":""8"",""num_scrambled_causal"":""4"",""num_scrambled_schematic"":""4"",""participantId"":""17793421981E4569B11DD4ABAC233FDA"",""assignmentId"":""0198ef12-df43-7740-84c6-82ca8fb8f829"",""projectId"":""0198ee3c-27ac-7803-a9ea-f3b4ad4ad678""}","https://test12345.live/?num_scrambled_semantic=8&num_scrambled_causal=4&num_scrambled_schematic=4&participantId=17793421981E4569B11DD4ABAC233FDA&assignmentId=0198ef12-df43-7740-84c6-82ca8fb8f829&projectId=0198ee3c-27ac-7803-a9ea-f3b4ad4ad678","17793421981E4569B11DD4ABAC233FDA-2025-08-28-06-10-00","","null","","images/schematic_sequence/dinner_party_scheme/dinner_party_scheme_0.png","null","",""
"","","","","","image-button-response","25","521605","0.0-10.0-1.0-0.0","17793421981E4569B11DD4ABAC233FDA","17793421981E4569B11DD4ABAC233FDA","0198ef12-df43-7740-84c6-82ca8fb8f829","0198ee3c-27ac-7803-a9ea-f3b4ad4ad678","{""num_scrambled_semantic"":""8"",""num_scrambled_causal"":""4"",""num_scrambled_schematic"":""4"",""participantId"":""17793421981E4569B11DD4ABAC233FDA"",""assignmentId"":""0198ef12-df43-7740-84c6-82ca8fb8f829"",""projectId"":""0198ee3c-27ac-7803-a9ea-f3b4ad4ad678""}","https://test12345.live/?num_scrambled_semantic=8&num_scrambled_causal=4&num_scrambled_schematic=4&participantId=17793421981E4569B11DD4ABAC233FDA&assignmentId=0198ef12-df43-7740-84c6-82ca8fb8f829&projectId=0198ee3c-27ac-7803-a9ea-f3b4ad4ad678","17793421981E4569B11DD4ABAC233FDA-2025-08-28-06-10-00","","null","","images/schematic_sequence/dinner_party_scheme/dinner_party_scheme_2.png","null","",""
"","","","","","image-button-response","26","525607","0.0-10.0-1.0-1.0","17793421981E4569B11DD4ABAC233FDA","17793421981E4569B11DD4ABAC233FDA","0198ef12-df43-7740-84c6-82ca8fb8f829","0198ee3c-27ac-7803-a9ea-f3b4ad4ad678","{""num_scrambled_semantic"":""8"",""num_scrambled_causal"":""4"",""num_scrambled_schematic"":""4"",""participantId"":""17793421981E4569B11DD4ABAC233FDA"",""assignmentId"":""0198ef12-df43-7740-84c6-82ca8fb8f829"",""projectId"":""0198ee3c-27ac-7803-a9ea-f3b4ad4ad678""}","https://test12345.live/?num_scrambled_semantic=8&num_scrambled_causal=4&num_scrambled_schematic=4&participantId=17793421981E4569B11DD4ABAC233FDA&assignmentId=0198ef12-df43-7740-84c6-82ca8fb8f829&projectId=0198ee3c-27ac-7803-a9ea-f3b4ad4ad678","17793421981E4569B11DD4ABAC233FDA-2025-08-28-06-10-00","","null","","images/schematic_sequence/dinner_party_scheme/dinner_party_scheme_2.png","null","",""
"","","","","","image-button-response","27","527410","0.0-10.0-1.0-2.0","17793421981E4569B11DD4ABAC233FDA","17793421981E4569B11DD4ABAC233FDA","0198ef12-df43-7740-84c6-82ca8fb8f829","0198ee3c-27ac-7803-a9ea-f3b4ad4ad678","{""num_scrambled_semantic"":""8"",""num_scrambled_causal"":""4"",""num_scrambled_schematic"":""4"",""participantId"":""17793421981E4569B11DD4ABAC233FDA"",""assignmentId"":""0198ef12-df43-7740-84c6-82ca8fb8f829"",""projectId"":""0198ee3c-27ac-7803-a9ea-f3b4ad4ad678""}","https://test12345.live/?num_scrambled_semantic=8&num_scrambled_causal=4&num_scrambled_schematic=4&participantId=17793421981E4569B11DD4ABAC233FDA&assignmentId=0198ef12-df43-7740-84c6-82ca8fb8f829&projectId=0198ee3c-27ac-7803-a9ea-f3b4ad4ad678","17793421981E4569B11DD4ABAC233FDA-2025-08-28-06-10-00","","null","","[]","null","",""
"","","","","","image-button-response","28","531912","0.0-10.0-1.0-0.1","17793421981E4569B11DD4ABAC233FDA","17793421981E4569B11DD4ABAC233FDA","0198ef12-df43-7740-84c6-82ca8fb8f829","0198ee3c-27ac-7803-a9ea-f3b4ad4ad678","{""num_scrambled_semantic"":""8"",""num_scrambled_causal"":""4"",""num_scrambled_schematic"":""4"",""participantId"":""17793421981E4569B11DD4ABAC233FDA"",""assignmentId"":""0198ef12-df43-7740-84c6-82ca8fb8f829"",""projectId"":""0198ee3c-27ac-7803-a9ea-f3b4ad4ad678""}","https://test12345.live/?num_scrambled_semantic=8&num_scrambled_causal=4&num_scrambled_schematic=4&participantId=17793421981E4569B11DD4ABAC233FDA&assignmentId=0198ef12-df43-7740-84c6-82ca8fb8f829&projectId=0198ee3c-27ac-7803-a9ea-f3b4ad4ad678","17793421981E4569B11DD4ABAC233FDA-2025-08-28-06-10-00","","null","","images/schematic_sequence/dinner_party_scheme/dinner_party_scheme_8.png","null","",""
"","","","","","image-button-response","29","533257","0.0-10.0-1.0-1.1","17793421981E4569B11DD4ABAC233FDA","17793421981E4569B11DD4ABAC233FDA","0198ef12-df43-7740-84c6-82ca8fb8f829","0198ee3c-27ac-7803-a9ea-f3b4ad4ad678","{""num_scrambled_semantic"":""8"",""num_scrambled_causal"":""4"",""num_scrambled_schematic"":""4"",""participantId"":""17793421981E4569B11DD4ABAC233FDA"",""assignmentId"":""0198ef12-df43-7740-84c6-82ca8fb8f829"",""projectId"":""0198ee3c-27ac-7803-a9ea-f3b4ad4ad678""}","https://test12345.live/?num_scrambled_semantic=8&num_scrambled_causal=4&num_scrambled_schematic=4&participantId=17793421981E4569B11DD4ABAC233FDA&assignmentId=0198ef12-df43-7740-84c6-82ca8fb8f829&projectId=0198ee3c-27ac-7803-a9ea-f3b4ad4ad678","17793421981E4569B11DD4ABAC233FDA-2025-08-28-06-10-00","","1341","","images/schematic_sequence/dinner_party_scheme/dinner_party_scheme_8.png","0","",""
"","","","","","image-button-response","30","535059","0.0-10.0-1.0-2.1","17793421981E4569B11DD4ABAC233FDA","17793421981E4569B11DD4ABAC233FDA","0198ef12-df43-7740-84c6-82ca8fb8f829","0198ee3c-27ac-7803-a9ea-f3b4ad4ad678","{""num_scrambled_semantic"":""8"",""num_scrambled_causal"":""4"",""num_scrambled_schematic"":""4"",""participantId"":""17793421981E4569B11DD4ABAC233FDA"",""assignmentId"":""0198ef12-df43-7740-84c6-82ca8fb8f829"",""projectId"":""0198ee3c-27ac-7803-a9ea-f3b4ad4ad678""}","https://test12345.live/?num_scrambled_semantic=8&num_scrambled_causal=4&num_scrambled_schematic=4&participantId=17793421981E4569B11DD4ABAC233FDA&assignmentId=0198ef12-df43-7740-84c6-82ca8fb8f829&projectId=0198ee3c-27ac-7803-a9ea-f3b4ad4ad678","17793421981E4569B11DD4ABAC233FDA-2025-08-28-06-10-00","","null","","[]","null","",""
"","","","","","image-button-response","31","539561","0.0-10.0-1.0-0.2","17793421981E4569B11DD4ABAC233FDA","17793421981E4569B11DD4ABAC233FDA","0198ef12-df43-7740-84c6-82ca8fb8f829","0198ee3c-27ac-7803-a9ea-f3b4ad4ad678","{""num_scrambled_semantic"":""8"",""num_scrambled_causal"":""4"",""num_scrambled_schematic"":""4"",""participantId"":""17793421981E4569B11DD4ABAC233FDA"",""assignmentId"":""0198ef12-df43-7740-84c6-82ca8fb8f829"",""projectId"":""0198ee3c-27ac-7803-a9ea-f3b4ad4ad678""}","https://test12345.live/?num_scrambled_semantic=8&num_scrambled_causal=4&num_scrambled_schematic=4&participantId=17793421981E4569B11DD4ABAC233FDA&assignmentId=0198ef12-df43-7740-84c6-82ca8fb8f829&projectId=0198ee3c-27ac-7803-a9ea-f3b4ad4ad678","17793421981E4569B11DD4ABAC233FDA-2025-08-28-06-10-00","","null","","images/schematic_sequence/dinner_party_scheme/dinner_party_scheme_1.png","null","",""
"","","","","","image-button-response","32","541865","0.0-10.0-1.0-1.2","17793421981E4569B11DD4ABAC233FDA","17793421981E4569B11DD4ABAC233FDA","0198ef12-df43-7740-84c6-82ca8fb8f829","0198ee3c-27ac-7803-a9ea-f3b4ad4ad678","{""num_scrambled_semantic"":""8"",""num_scrambled_causal"":""4"",""num_scrambled_schematic"":""4"",""participantId"":""17793421981E4569B11DD4ABAC233FDA"",""assignmentId"":""0198ef12-df43-7740-84c6-82ca8fb8f829"",""projectId"":""0198ee3c-27ac-7803-a9ea-f3b4ad4ad678""}","https://test12345.live/?num_scrambled_semantic=8&num_scrambled_causal=4&num_scrambled_schematic=4&participantId=17793421981E4569B11DD4ABAC233FDA&assignmentId=0198ef12-df43-7740-84c6-82ca8fb8f829&projectId=0198ee3c-27ac-7803-a9ea-f3b4ad4ad678","17793421981E4569B11DD4ABAC233FDA-2025-08-28-06-10-00","","2301","","images/schematic_sequence/dinner_party_scheme/dinner_party_scheme_1.png","0","",""
"","","","","","image-button-response","33","543667","0.0-10.0-1.0-2.2","17793421981E4569B11DD4ABAC233FDA","17793421981E4569B11DD4ABAC233FDA","0198ef12-df43-7740-84c6-82ca8fb8f829","0198ee3c-27ac-7803-a9ea-f3b4ad4ad678","{""num_scrambled_semantic"":""8"",""num_scrambled_causal"":""4"",""num_scrambled_schematic"":""4"",""participantId"":""17793421981E4569B11DD4ABAC233FDA"",""assignmentId"":""0198ef12-df43-7740-84c6-82ca8fb8f829"",""projectId"":""0198ee3c-27ac-7803-a9ea-f3b4ad4ad678""}","https://test12345.live/?num_scrambled_semantic=8&num_scrambled_causal=4&num_scrambled_schematic=4&participantId=17793421981E4569B11DD4ABAC233FDA&assignmentId=0198ef12-df43-7740-84c6-82ca8fb8f829&projectId=0198ee3c-27ac-7803-a9ea-f3b4ad4ad678","17793421981E4569B11DD4ABAC233FDA-2025-08-28-06-10-00","","null","","[]","null","",""
"","","","","","image-button-response","34","548169","0.0-10.0-1.0-0.3","17793421981E4569B11DD4ABAC233FDA","17793421981E4569B11DD4ABAC233FDA","0198ef12-df43-7740-84c6-82ca8fb8f829","0198ee3c-27ac-7803-a9ea-f3b4ad4ad678","{""num_scrambled_semantic"":""8"",""num_scrambled_causal"":""4"",""num_scrambled_schematic"":""4"",""participantId"":""17793421981E4569B11DD4ABAC233FDA"",""assignmentId"":""0198ef12-df43-7740-84c6-82ca8fb8f829"",""projectId"":""0198ee3c-27ac-7803-a9ea-f3b4ad4ad678""}","https://test12345.live/?num_scrambled_semantic=8&num_scrambled_causal=4&num_scrambled_schematic=4&participantId=17793421981E4569B11DD4ABAC233FDA&assignmentId=0198ef12-df43-7740-84c6-82ca8fb8f829&projectId=0198ee3c-27ac-7803-a9ea-f3b4ad4ad678","17793421981E4569B11DD4ABAC233FDA-2025-08-28-06-10-00","","null","","images/schematic_sequence/dinner_party_scheme/dinner_party_scheme_4.png","null","",""
"","","","","","image-button-response","35","549862","0.0-10.0-1.0-1.3","17793421981E4569B11DD4ABAC233FDA","17793421981E4569B11DD4ABAC233FDA","0198ef12-df43-7740-84c6-82ca8fb8f829","0198ee3c-27ac-7803-a9ea-f3b4ad4ad678","{""num_scrambled_semantic"":""8"",""num_scrambled_causal"":""4"",""num_scrambled_schematic"":""4"",""participantId"":""17793421981E4569B11DD4ABAC233FDA"",""assignmentId"":""0198ef12-df43-7740-84c6-82ca8fb8f829"",""projectId"":""0198ee3c-27ac-7803-a9ea-f3b4ad4ad678""}","https://test12345.live/?num_scrambled_semantic=8&num_scrambled_causal=4&num_scrambled_schematic=4&participantId=17793421981E4569B11DD4ABAC233FDA&assignmentId=0198ef12-df43-7740-84c6-82ca8fb8f829&projectId=0198ee3c-27ac-7803-a9ea-f3b4ad4ad678","17793421981E4569B11DD4ABAC233FDA-2025-08-28-06-10-00","","1689","","images/schematic_sequence/dinner_party_scheme/dinner_party_scheme_4.png","0","",""
"","","","","","image-button-response","36","551664","0.0-10.0-1.0-2.3","17793421981E4569B11DD4ABAC233FDA","17793421981E4569B11DD4ABAC233FDA","0198ef12-df43-7740-84c6-82ca8fb8f829","0198ee3c-27ac-7803-a9ea-f3b4ad4ad678","{""num_scrambled_semantic"":""8"",""num_scrambled_causal"":""4"",""num_scrambled_schematic"":""4"",""participantId"":""17793421981E4569B11DD4ABAC233FDA"",""assignmentId"":""0198ef12-df43-7740-84c6-82ca8fb8f829"",""projectId"":""0198ee3c-27ac-7803-a9ea-f3b4ad4ad678""}","https://test12345.live/?num_scrambled_semantic=8&num_scrambled_causal=4&num_scrambled_schematic=4&participantId=17793421981E4569B11DD4ABAC233FDA&assignmentId=0198ef12-df43-7740-84c6-82ca8fb8f829&projectId=0198ee3c-27ac-7803-a9ea-f3b4ad4ad678","17793421981E4569B11DD4ABAC233FDA-2025-08-28-06-10-00","","null","","[]","null","",""
"","","","","","image-button-response","37","556166","0.0-10.0-1.0-0.4","17793421981E4569B11DD4ABAC233FDA","17793421981E4569B11DD4ABAC233FDA","0198ef12-df43-7740-84c6-82ca8fb8f829","0198ee3c-27ac-7803-a9ea-f3b4ad4ad678","{""num_scrambled_semantic"":""8"",""num_scrambled_causal"":""4"",""num_scrambled_schematic"":""4"",""participantId"":""17793421981E4569B11DD4ABAC233FDA"",""assignmentId"":""0198ef12-df43-7740-84c6-82ca8fb8f829"",""projectId"":""0198ee3c-27ac-7803-a9ea-f3b4ad4ad678""}","https://test12345.live/?num_scrambled_semantic=8&num_scrambled_causal=4&num_scrambled_schematic=4&participantId=17793421981E4569B11DD4ABAC233FDA&assignmentId=0198ef12-df43-7740-84c6-82ca8fb8f829&projectId=0198ee3c-27ac-7803-a9ea-f3b4ad4ad678","17793421981E4569B11DD4ABAC233FDA-2025-08-28-06-10-00","","null","","images/schematic_sequence/dinner_party_scheme/dinner_party_scheme_6.png","null","",""
"","","","","","image-button-response","38","557549","0.0-10.0-1.0-1.4","17793421981E4569B11DD4ABAC233FDA","17793421981E4569B11DD4ABAC233FDA","0198ef12-df43-7740-84c6-82ca8fb8f829","0198ee3c-27ac-7803-a9ea-f3b4ad4ad678","{""num_scrambled_semantic"":""8"",""num_scrambled_causal"":""4"",""num_scrambled_schematic"":""4"",""participantId"":""17793421981E4569B11DD4ABAC233FDA"",""assignmentId"":""0198ef12-df43-7740-84c6-82ca8fb8f829"",""projectId"":""0198ee3c-27ac-7803-a9ea-f3b4ad4ad678""}","https://test12345.live/?num_scrambled_semantic=8&num_scrambled_causal=4&num_scrambled_schematic=4&participantId=17793421981E4569B11DD4ABAC233FDA&assignmentId=0198ef12-df43-7740-84c6-82ca8fb8f829&projectId=0198ee3c-27ac-7803-a9ea-f3b4ad4ad678","17793421981E4569B11DD4ABAC233FDA-2025-08-28-06-10-00","","1379","","images/schematic_sequence/dinner_party_scheme/dinner_party_scheme_6.png","0","",""
"","","","","","image-button-response","39","559351","0.0-10.0-1.0-2.4","17793421981E4569B11DD4ABAC233FDA","17793421981E4569B11DD4ABAC233FDA","0198ef12-df43-7740-84c6-82ca8fb8f829","0198ee3c-27ac-7803-a9ea-f3b4ad4ad678","{""num_scrambled_semantic"":""8"",""num_scrambled_causal"":""4"",""num_scrambled_schematic"":""4"",""participantId"":""17793421981E4569B11DD4ABAC233FDA"",""assignmentId"":""0198ef12-df43-7740-84c6-82ca8fb8f829"",""projectId"":""0198ee3c-27ac-7803-a9ea-f3b4ad4ad678""}","https://test12345.live/?num_scrambled_semantic=8&num_scrambled_causal=4&num_scrambled_schematic=4&participantId=17793421981E4569B11DD4ABAC233FDA&assignmentId=0198ef12-df43-7740-84c6-82ca8fb8f829&projectId=0198ee3c-27ac-7803-a9ea-f3b4ad4ad678","17793421981E4569B11DD4ABAC233FDA-2025-08-28-06-10-00","","null","","[]","null","",""
"","","","","","image-button-response","40","563854","0.0-10.0-1.0-0.5","17793421981E4569B11DD4ABAC233FDA","17793421981E4569B11DD4ABAC233FDA","0198ef12-df43-7740-84c6-82ca8fb8f829","0198ee3c-27ac-7803-a9ea-f3b4ad4ad678","{""num_scrambled_semantic"":""8"",""num_scrambled_causal"":""4"",""num_scrambled_schematic"":""4"",""participantId"":""17793421981E4569B11DD4ABAC233FDA"",""assignmentId"":""0198ef12-df43-7740-84c6-82ca8fb8f829"",""projectId"":""0198ee3c-27ac-7803-a9ea-f3b4ad4ad678""}","https://test12345.live/?num_scrambled_semantic=8&num_scrambled_causal=4&num_scrambled_schematic=4&participantId=17793421981E4569B11DD4ABAC233FDA&assignmentId=0198ef12-df43-7740-84c6-82ca8fb8f829&projectId=0198ee3c-27ac-7803-a9ea-f3b4ad4ad678","17793421981E4569B11DD4ABAC233FDA-2025-08-28-06-10-00","","null","","images/schematic_sequence/dinner_party_scheme/dinner_party_scheme_7.png","null","",""
"","","","","","image-button-response","41","567857","0.0-10.0-1.0-1.5","17793421981E4569B11DD4ABAC233FDA","17793421981E4569B11DD4ABAC233FDA","0198ef12-df43-7740-84c6-82ca8fb8f829","0198ee3c-27ac-7803-a9ea-f3b4ad4ad678","{""num_scrambled_semantic"":""8"",""num_scrambled_causal"":""4"",""num_scrambled_schematic"":""4"",""participantId"":""17793421981E4569B11DD4ABAC233FDA"",""assignmentId"":""0198ef12-df43-7740-84c6-82ca8fb8f829"",""projectId"":""0198ee3c-27ac-7803-a9ea-f3b4ad4ad678""}","https://test12345.live/?num_scrambled_semantic=8&num_scrambled_causal=4&num_scrambled_schematic=4&participantId=17793421981E4569B11DD4ABAC233FDA&assignmentId=0198ef12-df43-7740-84c6-82ca8fb8f829&projectId=0198ee3c-27ac-7803-a9ea-f3b4ad4ad678","17793421981E4569B11DD4ABAC233FDA-2025-08-28-06-10-00","","null","","images/schematic_sequence/dinner_party_scheme/dinner_party_scheme_7.png","null","",""
"","","","","","image-button-response","42","569660","0.0-10.0-1.0-2.5","17793421981E4569B11DD4ABAC233FDA","17793421981E4569B11DD4ABAC233FDA","0198ef12-df43-7740-84c6-82ca8fb8f829","0198ee3c-27ac-7803-a9ea-f3b4ad4ad678","{""num_scrambled_semantic"":""8"",""num_scrambled_causal"":""4"",""num_scrambled_schematic"":""4"",""participantId"":""17793421981E4569B11DD4ABAC233FDA"",""assignmentId"":""0198ef12-df43-7740-84c6-82ca8fb8f829"",""projectId"":""0198ee3c-27ac-7803-a9ea-f3b4ad4ad678""}","https://test12345.live/?num_scrambled_semantic=8&num_scrambled_causal=4&num_scrambled_schematic=4&participantId=17793421981E4569B11DD4ABAC233FDA&assignmentId=0198ef12-df43-7740-84c6-82ca8fb8f829&projectId=0198ee3c-27ac-7803-a9ea-f3b4ad4ad678","17793421981E4569B11DD4ABAC233FDA-2025-08-28-06-10-00","","null","","[]","null","",""
"","","","","","image-button-response","43","574162","0.0-10.0-1.0-0.6","17793421981E4569B11DD4ABAC233FDA","17793421981E4569B11DD4ABAC233FDA","0198ef12-df43-7740-84c6-82ca8fb8f829","0198ee3c-27ac-7803-a9ea-f3b4ad4ad678","{""num_scrambled_semantic"":""8"",""num_scrambled_causal"":""4"",""num_scrambled_schematic"":""4"",""participantId"":""17793421981E4569B11DD4ABAC233FDA"",""assignmentId"":""0198ef12-df43-7740-84c6-82ca8fb8f829"",""projectId"":""0198ee3c-27ac-7803-a9ea-f3b4ad4ad678""}","https://test12345.live/?num_scrambled_semantic=8&num_scrambled_causal=4&num_scrambled_schematic=4&participantId=17793421981E4569B11DD4ABAC233FDA&assignmentId=0198ef12-df43-7740-84c6-82ca8fb8f829&projectId=0198ee3c-27ac-7803-a9ea-f3b4ad4ad678","17793421981E4569B11DD4ABAC233FDA-2025-08-28-06-10-00","","null","","images/schematic_sequence/dinner_party_scheme/dinner_party_scheme_9.png","null","",""
"","","","","","image-button-response","44","575574","0.0-10.0-1.0-1.6","17793421981E4569B11DD4ABAC233FDA","17793421981E4569B11DD4ABAC233FDA","0198ef12-df43-7740-84c6-82ca8fb8f829","0198ee3c-27ac-7803-a9ea-f3b4ad4ad678","{""num_scrambled_semantic"":""8"",""num_scrambled_causal"":""4"",""num_scrambled_schematic"":""4"",""participantId"":""17793421981E4569B11DD4ABAC233FDA"",""assignmentId"":""0198ef12-df43-7740-84c6-82ca8fb8f829"",""projectId"":""0198ee3c-27ac-7803-a9ea-f3b4ad4ad678""}","https://test12345.live/?num_scrambled_semantic=8&num_scrambled_causal=4&num_scrambled_schematic=4&participantId=17793421981E4569B11DD4ABAC233FDA&assignmentId=0198ef12-df43-7740-84c6-82ca8fb8f829&projectId=0198ee3c-27ac-7803-a9ea-f3b4ad4ad678","17793421981E4569B11DD4ABAC233FDA-2025-08-28-06-10-00","","1410","","images/schematic_sequence/dinner_party_scheme/dinner_party_scheme_9.png","0","",""
"","","","","","image-button-response","45","577377","0.0-10.0-1.0-2.6","17793421981E4569B11DD4ABAC233FDA","17793421981E4569B11DD4ABAC233FDA","0198ef12-df43-7740-84c6-82ca8fb8f829","0198ee3c-27ac-7803-a9ea-f3b4ad4ad678","{""num_scrambled_semantic"":""8"",""num_scrambled_causal"":""4"",""num_scrambled_schematic"":""4"",""participantId"":""17793421981E4569B11DD4ABAC233FDA"",""assignmentId"":""0198ef12-df43-7740-84c6-82ca8fb8f829"",""projectId"":""0198ee3c-27ac-7803-a9ea-f3b4ad4ad678""}","https://test12345.live/?num_scrambled_semantic=8&num_scrambled_causal=4&num_scrambled_schematic=4&participantId=17793421981E4569B11DD4ABAC233FDA&assignmentId=0198ef12-df43-7740-84c6-82ca8fb8f829&projectId=0198ee3c-27ac-7803-a9ea-f3b4ad4ad678","17793421981E4569B11DD4ABAC233FDA-2025-08-28-06-10-00","","null","","[]","null","",""
"","","","","","image-button-response","46","581879","0.0-10.0-1.0-0.7","17793421981E4569B11DD4ABAC233FDA","17793421981E4569B11DD4ABAC233FDA","0198ef12-df43-7740-84c6-82ca8fb8f829","0198ee3c-27ac-7803-a9ea-f3b4ad4ad678","{""num_scrambled_semantic"":""8"",""num_scrambled_causal"":""4"",""num_scrambled_schematic"":""4"",""participantId"":""17793421981E4569B11DD4ABAC233FDA"",""assignmentId"":""0198ef12-df43-7740-84c6-82ca8fb8f829"",""projectId"":""0198ee3c-27ac-7803-a9ea-f3b4ad4ad678""}","https://test12345.live/?num_scrambled_semantic=8&num_scrambled_causal=4&num_scrambled_schematic=4&participantId=17793421981E4569B11DD4ABAC233FDA&assignmentId=0198ef12-df43-7740-84c6-82ca8fb8f829&projectId=0198ee3c-27ac-7803-a9ea-f3b4ad4ad678","17793421981E4569B11DD4ABAC233FDA-2025-08-28-06-10-00","","null","","images/schematic_sequence/dinner_party_scheme/dinner_party_scheme_3.png","null","",""
"","","","","","image-button-response","47","583004","0.0-10.0-1.0-1.7","17793421981E4569B11DD4ABAC233FDA","17793421981E4569B11DD4ABAC233FDA","0198ef12-df43-7740-84c6-82ca8fb8f829","0198ee3c-27ac-7803-a9ea-f3b4ad4ad678","{""num_scrambled_semantic"":""8"",""num_scrambled_causal"":""4"",""num_scrambled_schematic"":""4"",""participantId"":""17793421981E4569B11DD4ABAC233FDA"",""assignmentId"":""0198ef12-df43-7740-84c6-82ca8fb8f829"",""projectId"":""0198ee3c-27ac-7803-a9ea-f3b4ad4ad678""}","https://test12345.live/?num_scrambled_semantic=8&num_scrambled_causal=4&num_scrambled_schematic=4&participantId=17793421981E4569B11DD4ABAC233FDA&assignmentId=0198ef12-df43-7740-84c6-82ca8fb8f829&projectId=0198ee3c-27ac-7803-a9ea-f3b4ad4ad678","17793421981E4569B11DD4ABAC233FDA-2025-08-28-06-10-00","","1122","","images/schematic_sequence/dinner_party_scheme/dinner_party_scheme_3.png","0","",""
"","","","","","image-button-response","48","584806","0.0-10.0-1.0-2.7","17793421981E4569B11DD4ABAC233FDA","17793421981E4569B11DD4ABAC233FDA","0198ef12-df43-7740-84c6-82ca8fb8f829","0198ee3c-27ac-7803-a9ea-f3b4ad4ad678","{""num_scrambled_semantic"":""8"",""num_scrambled_causal"":""4"",""num_scrambled_schematic"":""4"",""participantId"":""17793421981E4569B11DD4ABAC233FDA"",""assignmentId"":""0198ef12-df43-7740-84c6-82ca8fb8f829"",""projectId"":""0198ee3c-27ac-7803-a9ea-f3b4ad4ad678""}","https://test12345.live/?num_scrambled_semantic=8&num_scrambled_causal=4&num_scrambled_schematic=4&participantId=17793421981E4569B11DD4ABAC233FDA&assignmentId=0198ef12-df43-7740-84c6-82ca8fb8f829&projectId=0198ee3c-27ac-7803-a9ea-f3b4ad4ad678","17793421981E4569B11DD4ABAC233FDA-2025-08-28-06-10-00","","null","","[]","null","",""
"","","","","","image-button-response","49","589308","0.0-10.0-1.0-0.8","17793421981E4569B11DD4ABAC233FDA","17793421981E4569B11DD4ABAC233FDA","0198ef12-df43-7740-84c6-82ca8fb8f829","0198ee3c-27ac-7803-a9ea-f3b4ad4ad678","{""num_scrambled_semantic"":""8"",""num_scrambled_causal"":""4"",""num_scrambled_schematic"":""4"",""participantId"":""17793421981E4569B11DD4ABAC233FDA"",""assignmentId"":""0198ef12-df43-7740-84c6-82ca8fb8f829"",""projectId"":""0198ee3c-27ac-7803-a9ea-f3b4ad4ad678""}","https://test12345.live/?num_scrambled_semantic=8&num_scrambled_causal=4&num_scrambled_schematic=4&participantId=17793421981E4569B11DD4ABAC233FDA&assignmentId=0198ef12-df43-7740-84c6-82ca8fb8f829&projectId=0198ee3c-27ac-7803-a9ea-f3b4ad4ad678","17793421981E4569B11DD4ABAC233FDA-2025-08-28-06-10-00","","null","","images/schematic_sequence/dinner_party_scheme/dinner_party_scheme_ten.png","null","",""
"","","","","","image-button-response","50","590878","0.0-10.0-1.0-1.8","17793421981E4569B11DD4ABAC233FDA","17793421981E4569B11DD4ABAC233FDA","0198ef12-df43-7740-84c6-82ca8fb8f829","0198ee3c-27ac-7803-a9ea-f3b4ad4ad678","{""num_scrambled_semantic"":""8"",""num_scrambled_causal"":""4"",""num_scrambled_schematic"":""4"",""participantId"":""17793421981E4569B11DD4ABAC233FDA"",""assignmentId"":""0198ef12-df43-7740-84c6-82ca8fb8f829"",""projectId"":""0198ee3c-27ac-7803-a9ea-f3b4ad4ad678""}","https://test12345.live/?num_scrambled_semantic=8&num_scrambled_causal=4&num_scrambled_schematic=4&participantId=17793421981E4569B11DD4ABAC233FDA&assignmentId=0198ef12-df43-7740-84c6-82ca8fb8f829&projectId=0198ee3c-27ac-7803-a9ea-f3b4ad4ad678","17793421981E4569B11DD4ABAC233FDA-2025-08-28-06-10-00","","1567","","images/schematic_sequence/dinner_party_scheme/dinner_party_scheme_ten.png","0","",""
"","","","","","image-button-response","51","592680","0.0-10.0-1.0-2.8","17793421981E4569B11DD4ABAC233FDA","17793421981E4569B11DD4ABAC233FDA","0198ef12-df43-7740-84c6-82ca8fb8f829","0198ee3c-27ac-7803-a9ea-f3b4ad4ad678","{""num_scrambled_semantic"":""8"",""num_scrambled_causal"":""4"",""num_scrambled_schematic"":""4"",""participantId"":""17793421981E4569B11DD4ABAC233FDA"",""assignmentId"":""0198ef12-df43-7740-84c6-82ca8fb8f829"",""projectId"":""0198ee3c-27ac-7803-a9ea-f3b4ad4ad678""}","https://test12345.live/?num_scrambled_semantic=8&num_scrambled_causal=4&num_scrambled_schematic=4&participantId=17793421981E4569B11DD4ABAC233FDA&assignmentId=0198ef12-df43-7740-84c6-82ca8fb8f829&projectId=0198ee3c-27ac-7803-a9ea-f3b4ad4ad678","17793421981E4569B11DD4ABAC233FDA-2025-08-28-06-10-00","","null","","[]","null","",""
"","","","","","image-button-response","52","597182","0.0-10.0-1.0-0.9","17793421981E4569B11DD4ABAC233FDA","17793421981E4569B11DD4ABAC233FDA","0198ef12-df43-7740-84c6-82ca8fb8f829","0198ee3c-27ac-7803-a9ea-f3b4ad4ad678","{""num_scrambled_semantic"":""8"",""num_scrambled_causal"":""4"",""num_scrambled_schematic"":""4"",""participantId"":""17793421981E4569B11DD4ABAC233FDA"",""assignmentId"":""0198ef12-df43-7740-84c6-82ca8fb8f829"",""projectId"":""0198ee3c-27ac-7803-a9ea-f3b4ad4ad678""}","https://test12345.live/?num_scrambled_semantic=8&num_scrambled_causal=4&num_scrambled_schematic=4&participantId=17793421981E4569B11DD4ABAC233FDA&assignmentId=0198ef12-df43-7740-84c6-82ca8fb8f829&projectId=0198ee3c-27ac-7803-a9ea-f3b4ad4ad678","17793421981E4569B11DD4ABAC233FDA-2025-08-28-06-10-00","","null","","images/schematic_sequence/dinner_party_scheme/dinner_party_scheme_5.png","null","",""
"","","","","","image-button-response","53","600507","0.0-10.0-1.0-1.9","17793421981E4569B11DD4ABAC233FDA","17793421981E4569B11DD4ABAC233FDA","0198ef12-df43-7740-84c6-82ca8fb8f829","0198ee3c-27ac-7803-a9ea-f3b4ad4ad678","{""num_scrambled_semantic"":""8"",""num_scrambled_causal"":""4"",""num_scrambled_schematic"":""4"",""participantId"":""17793421981E4569B11DD4ABAC233FDA"",""assignmentId"":""0198ef12-df43-7740-84c6-82ca8fb8f829"",""projectId"":""0198ee3c-27ac-7803-a9ea-f3b4ad4ad678""}","https://test12345.live/?num_scrambled_semantic=8&num_scrambled_causal=4&num_scrambled_schematic=4&participantId=17793421981E4569B11DD4ABAC233FDA&assignmentId=0198ef12-df43-7740-84c6-82ca8fb8f829&projectId=0198ee3c-27ac-7803-a9ea-f3b4ad4ad678","17793421981E4569B11DD4ABAC233FDA-2025-08-28-06-10-00","","3323","","images/schematic_sequence/dinner_party_scheme/dinner_party_scheme_5.png","0","",""
"","","","","","image-button-response","54","602309","0.0-10.0-1.0-2.9","17793421981E4569B11DD4ABAC233FDA","17793421981E4569B11DD4ABAC233FDA","0198ef12-df43-7740-84c6-82ca8fb8f829","0198ee3c-27ac-7803-a9ea-f3b4ad4ad678","{""num_scrambled_semantic"":""8"",""num_scrambled_causal"":""4"",""num_scrambled_schematic"":""4"",""participantId"":""17793421981E4569B11DD4ABAC233FDA"",""assignmentId"":""0198ef12-df43-7740-84c6-82ca8fb8f829"",""projectId"":""0198ee3c-27ac-7803-a9ea-f3b4ad4ad678""}","https://test12345.live/?num_scrambled_semantic=8&num_scrambled_causal=4&num_scrambled_schematic=4&participantId=17793421981E4569B11DD4ABAC233FDA&assignmentId=0198ef12-df43-7740-84c6-82ca8fb8f829&projectId=0198ee3c-27ac-7803-a9ea-f3b4ad4ad678","17793421981E4569B11DD4ABAC233FDA-2025-08-28-06-10-00","","null","","[]","null","",""
"","","","","","html-audio-response","55","661031","0.0-11.0","17793421981E4569B11DD4ABAC233FDA","17793421981E4569B11DD4ABAC233FDA","0198ef12-df43-7740-84c6-82ca8fb8f829","0198ee3c-27ac-7803-a9ea-f3b4ad4ad678","{""num_scrambled_semantic"":""8"",""num_scrambled_causal"":""4"",""num_scrambled_schematic"":""4"",""participantId"":""17793421981E4569B11DD4ABAC233FDA"",""assignmentId"":""0198ef12-df43-7740-84c6-82ca8fb8f829"",""projectId"":""0198ee3c-27ac-7803-a9ea-f3b4ad4ad678""}","https://test12345.live/?num_scrambled_semantic=8&num_scrambled_causal=4&num_scrambled_schematic=4&participantId=17793421981E4569B11DD4ABAC233FDA&assignmentId=0198ef12-df43-7740-84c6-82ca8fb8f829&projectId=0198ee3c-27ac-7803-a9ea-f3b4ad4ad678","17793421981E4569B11DD4ABAC233FDA-2025-08-28-06-10-00","","null","","[""<span style=\""color: red; font-size: 24px\""> NOW RECORDING</span><p>Please say out loud all the images you saw, in the order of the story they create. Try to recall the sequence of events as they appeared in the story, not necessarily the order they were presented on the screen.</p>""]","","3","dinner_party_scheme"
"","","","","","image-button-response","56","667063","0.0-12.0-0.0","17793421981E4569B11DD4ABAC233FDA","17793421981E4569B11DD4ABAC233FDA","0198ef12-df43-7740-84c6-82ca8fb8f829","0198ee3c-27ac-7803-a9ea-f3b4ad4ad678","{""num_scrambled_semantic"":""8"",""num_scrambled_causal"":""4"",""num_scrambled_schematic"":""4"",""participantId"":""17793421981E4569B11DD4ABAC233FDA"",""assignmentId"":""0198ef12-df43-7740-84c6-82ca8fb8f829"",""projectId"":""0198ee3c-27ac-7803-a9ea-f3b4ad4ad678""}","https://test12345.live/?num_scrambled_semantic=8&num_scrambled_causal=4&num_scrambled_schematic=4&participantId=17793421981E4569B11DD4ABAC233FDA&assignmentId=0198ef12-df43-7740-84c6-82ca8fb8f829&projectId=0198ee3c-27ac-7803-a9ea-f3b4ad4ad678","17793421981E4569B11DD4ABAC233FDA-2025-08-28-06-10-00","","null","","images/causal_sequence/package_causal/package_causal_0.png","null","",""
"","","","","","image-button-response","57","671565","0.0-12.0-1.0-0.0","17793421981E4569B11DD4ABAC233FDA","17793421981E4569B11DD4ABAC233FDA","0198ef12-df43-7740-84c6-82ca8fb8f829","0198ee3c-27ac-7803-a9ea-f3b4ad4ad678","{""num_scrambled_semantic"":""8"",""num_scrambled_causal"":""4"",""num_scrambled_schematic"":""4"",""participantId"":""17793421981E4569B11DD4ABAC233FDA"",""assignmentId"":""0198ef12-df43-7740-84c6-82ca8fb8f829"",""projectId"":""0198ee3c-27ac-7803-a9ea-f3b4ad4ad678""}","https://test12345.live/?num_scrambled_semantic=8&num_scrambled_causal=4&num_scrambled_schematic=4&participantId=17793421981E4569B11DD4ABAC233FDA&assignmentId=0198ef12-df43-7740-84c6-82ca8fb8f829&projectId=0198ee3c-27ac-7803-a9ea-f3b4ad4ad678","17793421981E4569B11DD4ABAC233FDA-2025-08-28-06-10-00","","null","","images/causal_sequence/package_causal/package_causal_ten.png","null","",""
"","","","","","image-button-response","58","673149","0.0-12.0-1.0-1.0","17793421981E4569B11DD4ABAC233FDA","17793421981E4569B11DD4ABAC233FDA","0198ef12-df43-7740-84c6-82ca8fb8f829","0198ee3c-27ac-7803-a9ea-f3b4ad4ad678","{""num_scrambled_semantic"":""8"",""num_scrambled_causal"":""4"",""num_scrambled_schematic"":""4"",""participantId"":""17793421981E4569B11DD4ABAC233FDA"",""assignmentId"":""0198ef12-df43-7740-84c6-82ca8fb8f829"",""projectId"":""0198ee3c-27ac-7803-a9ea-f3b4ad4ad678""}","https://test12345.live/?num_scrambled_semantic=8&num_scrambled_causal=4&num_scrambled_schematic=4&participantId=17793421981E4569B11DD4ABAC233FDA&assignmentId=0198ef12-df43-7740-84c6-82ca8fb8f829&projectId=0198ee3c-27ac-7803-a9ea-f3b4ad4ad678","17793421981E4569B11DD4ABAC233FDA-2025-08-28-06-10-00","","1581","","images/causal_sequence/package_causal/package_causal_ten.png","0","",""
"","","","","","image-button-response","59","674950","0.0-12.0-1.0-2.0","17793421981E4569B11DD4ABAC233FDA","17793421981E4569B11DD4ABAC233FDA","0198ef12-df43-7740-84c6-82ca8fb8f829","0198ee3c-27ac-7803-a9ea-f3b4ad4ad678","{""num_scrambled_semantic"":""8"",""num_scrambled_causal"":""4"",""num_scrambled_schematic"":""4"",""participantId"":""17793421981E4569B11DD4ABAC233FDA"",""assignmentId"":""0198ef12-df43-7740-84c6-82ca8fb8f829"",""projectId"":""0198ee3c-27ac-7803-a9ea-f3b4ad4ad678""}","https://test12345.live/?num_scrambled_semantic=8&num_scrambled_causal=4&num_scrambled_schematic=4&participantId=17793421981E4569B11DD4ABAC233FDA&assignmentId=0198ef12-df43-7740-84c6-82ca8fb8f829&projectId=0198ee3c-27ac-7803-a9ea-f3b4ad4ad678","17793421981E4569B11DD4ABAC233FDA-2025-08-28-06-10-00","","null","","[]","null","",""
"","","","","","image-button-response","60","679453","0.0-12.0-1.0-0.1","17793421981E4569B11DD4ABAC233FDA","17793421981E4569B11DD4ABAC233FDA","0198ef12-df43-7740-84c6-82ca8fb8f829","0198ee3c-27ac-7803-a9ea-f3b4ad4ad678","{""num_scrambled_semantic"":""8"",""num_scrambled_causal"":""4"",""num_scrambled_schematic"":""4"",""participantId"":""17793421981E4569B11DD4ABAC233FDA"",""assignmentId"":""0198ef12-df43-7740-84c6-82ca8fb8f829"",""projectId"":""0198ee3c-27ac-7803-a9ea-f3b4ad4ad678""}","https://test12345.live/?num_scrambled_semantic=8&num_scrambled_causal=4&num_scrambled_schematic=4&participantId=17793421981E4569B11DD4ABAC233FDA&assignmentId=0198ef12-df43-7740-84c6-82ca8fb8f829&projectId=0198ee3c-27ac-7803-a9ea-f3b4ad4ad678","17793421981E4569B11DD4ABAC233FDA-2025-08-28-06-10-00","","null","","images/causal_sequence/package_causal/package_causal_4.png","null","",""
"","","","","","image-button-response","61","681515","0.0-12.0-1.0-1.1","17793421981E4569B11DD4ABAC233FDA","17793421981E4569B11DD4ABAC233FDA","0198ef12-df43-7740-84c6-82ca8fb8f829","0198ee3c-27ac-7803-a9ea-f3b4ad4ad678","{""num_scrambled_semantic"":""8"",""num_scrambled_causal"":""4"",""num_scrambled_schematic"":""4"",""participantId"":""17793421981E4569B11DD4ABAC233FDA"",""assignmentId"":""0198ef12-df43-7740-84c6-82ca8fb8f829"",""projectId"":""0198ee3c-27ac-7803-a9ea-f3b4ad4ad678""}","https://test12345.live/?num_scrambled_semantic=8&num_scrambled_causal=4&num_scrambled_schematic=4&participantId=17793421981E4569B11DD4ABAC233FDA&assignmentId=0198ef12-df43-7740-84c6-82ca8fb8f829&projectId=0198ee3c-27ac-7803-a9ea-f3b4ad4ad678","17793421981E4569B11DD4ABAC233FDA-2025-08-28-06-10-00","","2059","","images/causal_sequence/package_causal/package_causal_4.png","1","",""
"","","","","","image-button-response","62","683316","0.0-12.0-1.0-2.1","17793421981E4569B11DD4ABAC233FDA","17793421981E4569B11DD4ABAC233FDA","0198ef12-df43-7740-84c6-82ca8fb8f829","0198ee3c-27ac-7803-a9ea-f3b4ad4ad678","{""num_scrambled_semantic"":""8"",""num_scrambled_causal"":""4"",""num_scrambled_schematic"":""4"",""participantId"":""17793421981E4569B11DD4ABAC233FDA"",""assignmentId"":""0198ef12-df43-7740-84c6-82ca8fb8f829"",""projectId"":""0198ee3c-27ac-7803-a9ea-f3b4ad4ad678""}","https://test12345.live/?num_scrambled_semantic=8&num_scrambled_causal=4&num_scrambled_schematic=4&participantId=17793421981E4569B11DD4ABAC233FDA&assignmentId=0198ef12-df43-7740-84c6-82ca8fb8f829&projectId=0198ee3c-27ac-7803-a9ea-f3b4ad4ad678","17793421981E4569B11DD4ABAC233FDA-2025-08-28-06-10-00","","null","","[]","null","",""
"","","","","","image-button-response","63","687818","0.0-12.0-1.0-0.2","17793421981E4569B11DD4ABAC233FDA","17793421981E4569B11DD4ABAC233FDA","0198ef12-df43-7740-84c6-82ca8fb8f829","0198ee3c-27ac-7803-a9ea-f3b4ad4ad678","{""num_scrambled_semantic"":""8"",""num_scrambled_causal"":""4"",""num_scrambled_schematic"":""4"",""participantId"":""17793421981E4569B11DD4ABAC233FDA"",""assignmentId"":""0198ef12-df43-7740-84c6-82ca8fb8f829"",""projectId"":""0198ee3c-27ac-7803-a9ea-f3b4ad4ad678""}","https://test12345.live/?num_scrambled_semantic=8&num_scrambled_causal=4&num_scrambled_schematic=4&participantId=17793421981E4569B11DD4ABAC233FDA&assignmentId=0198ef12-df43-7740-84c6-82ca8fb8f829&projectId=0198ee3c-27ac-7803-a9ea-f3b4ad4ad678","17793421981E4569B11DD4ABAC233FDA-2025-08-28-06-10-00","","null","","images/causal_sequence/package_causal/package_causal_3.png","null","",""
"","","","","","image-button-response","64","690980","0.0-12.0-1.0-1.2","17793421981E4569B11DD4ABAC233FDA","17793421981E4569B11DD4ABAC233FDA","0198ef12-df43-7740-84c6-82ca8fb8f829","0198ee3c-27ac-7803-a9ea-f3b4ad4ad678","{""num_scrambled_semantic"":""8"",""num_scrambled_causal"":""4"",""num_scrambled_schematic"":""4"",""participantId"":""17793421981E4569B11DD4ABAC233FDA"",""assignmentId"":""0198ef12-df43-7740-84c6-82ca8fb8f829"",""projectId"":""0198ee3c-27ac-7803-a9ea-f3b4ad4ad678""}","https://test12345.live/?num_scrambled_semantic=8&num_scrambled_causal=4&num_scrambled_schematic=4&participantId=17793421981E4569B11DD4ABAC233FDA&assignmentId=0198ef12-df43-7740-84c6-82ca8fb8f829&projectId=0198ee3c-27ac-7803-a9ea-f3b4ad4ad678","17793421981E4569B11DD4ABAC233FDA-2025-08-28-06-10-00","","3159","","images/causal_sequence/package_causal/package_causal_3.png","0","",""
"","","","","","image-button-response","65","692783","0.0-12.0-1.0-2.2","17793421981E4569B11DD4ABAC233FDA","17793421981E4569B11DD4ABAC233FDA","0198ef12-df43-7740-84c6-82ca8fb8f829","0198ee3c-27ac-7803-a9ea-f3b4ad4ad678","{""num_scrambled_semantic"":""8"",""num_scrambled_causal"":""4"",""num_scrambled_schematic"":""4"",""participantId"":""17793421981E4569B11DD4ABAC233FDA"",""assignmentId"":""0198ef12-df43-7740-84c6-82ca8fb8f829"",""projectId"":""0198ee3c-27ac-7803-a9ea-f3b4ad4ad678""}","https://test12345.live/?num_scrambled_semantic=8&num_scrambled_causal=4&num_scrambled_schematic=4&participantId=17793421981E4569B11DD4ABAC233FDA&assignmentId=0198ef12-df43-7740-84c6-82ca8fb8f829&projectId=0198ee3c-27ac-7803-a9ea-f3b4ad4ad678","17793421981E4569B11DD4ABAC233FDA-2025-08-28-06-10-00","","null","","[]","null","",""
"","","","","","image-button-response","66","697285","0.0-12.0-1.0-0.3","17793421981E4569B11DD4ABAC233FDA","17793421981E4569B11DD4ABAC233FDA","0198ef12-df43-7740-84c6-82ca8fb8f829","0198ee3c-27ac-7803-a9ea-f3b4ad4ad678","{""num_scrambled_semantic"":""8"",""num_scrambled_causal"":""4"",""num_scrambled_schematic"":""4"",""participantId"":""17793421981E4569B11DD4ABAC233FDA"",""assignmentId"":""0198ef12-df43-7740-84c6-82ca8fb8f829"",""projectId"":""0198ee3c-27ac-7803-a9ea-f3b4ad4ad678""}","https://test12345.live/?num_scrambled_semantic=8&num_scrambled_causal=4&num_scrambled_schematic=4&participantId=17793421981E4569B11DD4ABAC233FDA&assignmentId=0198ef12-df43-7740-84c6-82ca8fb8f829&projectId=0198ee3c-27ac-7803-a9ea-f3b4ad4ad678","17793421981E4569B11DD4ABAC233FDA-2025-08-28-06-10-00","","null","","images/causal_sequence/package_causal/package_causal_5.png","null","",""
"","","","","","image-button-response","67","700911","0.0-12.0-1.0-1.3","17793421981E4569B11DD4ABAC233FDA","17793421981E4569B11DD4ABAC233FDA","0198ef12-df43-7740-84c6-82ca8fb8f829","0198ee3c-27ac-7803-a9ea-f3b4ad4ad678","{""num_scrambled_semantic"":""8"",""num_scrambled_causal"":""4"",""num_scrambled_schematic"":""4"",""participantId"":""17793421981E4569B11DD4ABAC233FDA"",""assignmentId"":""0198ef12-df43-7740-84c6-82ca8fb8f829"",""projectId"":""0198ee3c-27ac-7803-a9ea-f3b4ad4ad678""}","https://test12345.live/?num_scrambled_semantic=8&num_scrambled_causal=4&num_scrambled_schematic=4&participantId=17793421981E4569B11DD4ABAC233FDA&assignmentId=0198ef12-df43-7740-84c6-82ca8fb8f829&projectId=0198ee3c-27ac-7803-a9ea-f3b4ad4ad678","17793421981E4569B11DD4ABAC233FDA-2025-08-28-06-10-00","","3624","","images/causal_sequence/package_causal/package_causal_5.png","0","",""
"","","","","","image-button-response","68","702713","0.0-12.0-1.0-2.3","17793421981E4569B11DD4ABAC233FDA","17793421981E4569B11DD4ABAC233FDA","0198ef12-df43-7740-84c6-82ca8fb8f829","0198ee3c-27ac-7803-a9ea-f3b4ad4ad678","{""num_scrambled_semantic"":""8"",""num_scrambled_causal"":""4"",""num_scrambled_schematic"":""4"",""participantId"":""17793421981E4569B11DD4ABAC233FDA"",""assignmentId"":""0198ef12-df43-7740-84c6-82ca8fb8f829"",""projectId"":""0198ee3c-27ac-7803-a9ea-f3b4ad4ad678""}","https://test12345.live/?num_scrambled_semantic=8&num_scrambled_causal=4&num_scrambled_schematic=4&participantId=17793421981E4569B11DD4ABAC233FDA&assignmentId=0198ef12-df43-7740-84c6-82ca8fb8f829&projectId=0198ee3c-27ac-7803-a9ea-f3b4ad4ad678","17793421981E4569B11DD4ABAC233FDA-2025-08-28-06-10-00","","null","","[]","null","",""
"","","","","","image-button-response","69","707215","0.0-12.0-1.0-0.4","17793421981E4569B11DD4ABAC233FDA","17793421981E4569B11DD4ABAC233FDA","0198ef12-df43-7740-84c6-82ca8fb8f829","0198ee3c-27ac-7803-a9ea-f3b4ad4ad678","{""num_scrambled_semantic"":""8"",""num_scrambled_causal"":""4"",""num_scrambled_schematic"":""4"",""participantId"":""17793421981E4569B11DD4ABAC233FDA"",""assignmentId"":""0198ef12-df43-7740-84c6-82ca8fb8f829"",""projectId"":""0198ee3c-27ac-7803-a9ea-f3b4ad4ad678""}","https://test12345.live/?num_scrambled_semantic=8&num_scrambled_causal=4&num_scrambled_schematic=4&participantId=17793421981E4569B11DD4ABAC233FDA&assignmentId=0198ef12-df43-7740-84c6-82ca8fb8f829&projectId=0198ee3c-27ac-7803-a9ea-f3b4ad4ad678","17793421981E4569B11DD4ABAC233FDA-2025-08-28-06-10-00","","null","","images/causal_sequence/package_causal/package_causal_2.png","null","",""
"","","","","","image-button-response","70","709172","0.0-12.0-1.0-1.4","17793421981E4569B11DD4ABAC233FDA","17793421981E4569B11DD4ABAC233FDA","0198ef12-df43-7740-84c6-82ca8fb8f829","0198ee3c-27ac-7803-a9ea-f3b4ad4ad678","{""num_scrambled_semantic"":""8"",""num_scrambled_causal"":""4"",""num_scrambled_schematic"":""4"",""participantId"":""17793421981E4569B11DD4ABAC233FDA"",""assignmentId"":""0198ef12-df43-7740-84c6-82ca8fb8f829"",""projectId"":""0198ee3c-27ac-7803-a9ea-f3b4ad4ad678""}","https://test12345.live/?num_scrambled_semantic=8&num_scrambled_causal=4&num_scrambled_schematic=4&participantId=17793421981E4569B11DD4ABAC233FDA&assignmentId=0198ef12-df43-7740-84c6-82ca8fb8f829&projectId=0198ee3c-27ac-7803-a9ea-f3b4ad4ad678","17793421981E4569B11DD4ABAC233FDA-2025-08-28-06-10-00","","1955","","images/causal_sequence/package_causal/package_causal_2.png","0","",""
"","","","","","image-button-response","71","710974","0.0-12.0-1.0-2.4","17793421981E4569B11DD4ABAC233FDA","17793421981E4569B11DD4ABAC233FDA","0198ef12-df43-7740-84c6-82ca8fb8f829","0198ee3c-27ac-7803-a9ea-f3b4ad4ad678","{""num_scrambled_semantic"":""8"",""num_scrambled_causal"":""4"",""num_scrambled_schematic"":""4"",""participantId"":""17793421981E4569B11DD4ABAC233FDA"",""assignmentId"":""0198ef12-df43-7740-84c6-82ca8fb8f829"",""projectId"":""0198ee3c-27ac-7803-a9ea-f3b4ad4ad678""}","https://test12345.live/?num_scrambled_semantic=8&num_scrambled_causal=4&num_scrambled_schematic=4&participantId=17793421981E4569B11DD4ABAC233FDA&assignmentId=0198ef12-df43-7740-84c6-82ca8fb8f829&projectId=0198ee3c-27ac-7803-a9ea-f3b4ad4ad678","17793421981E4569B11DD4ABAC233FDA-2025-08-28-06-10-00","","null","","[]","null","",""
"","","","","","image-button-response","72","715476","0.0-12.0-1.0-0.5","17793421981E4569B11DD4ABAC233FDA","17793421981E4569B11DD4ABAC233FDA","0198ef12-df43-7740-84c6-82ca8fb8f829","0198ee3c-27ac-7803-a9ea-f3b4ad4ad678","{""num_scrambled_semantic"":""8"",""num_scrambled_causal"":""4"",""num_scrambled_schematic"":""4"",""participantId"":""17793421981E4569B11DD4ABAC233FDA"",""assignmentId"":""0198ef12-df43-7740-84c6-82ca8fb8f829"",""projectId"":""0198ee3c-27ac-7803-a9ea-f3b4ad4ad678""}","https://test12345.live/?num_scrambled_semantic=8&num_scrambled_causal=4&num_scrambled_schematic=4&participantId=17793421981E4569B11DD4ABAC233FDA&assignmentId=0198ef12-df43-7740-84c6-82ca8fb8f829&projectId=0198ee3c-27ac-7803-a9ea-f3b4ad4ad678","17793421981E4569B11DD4ABAC233FDA-2025-08-28-06-10-00","","null","","images/causal_sequence/package_causal/package_causal_1.png","null","",""
"","","","","","image-button-response","73","718617","0.0-12.0-1.0-1.5","17793421981E4569B11DD4ABAC233FDA","17793421981E4569B11DD4ABAC233FDA","0198ef12-df43-7740-84c6-82ca8fb8f829","0198ee3c-27ac-7803-a9ea-f3b4ad4ad678","{""num_scrambled_semantic"":""8"",""num_scrambled_causal"":""4"",""num_scrambled_schematic"":""4"",""participantId"":""17793421981E4569B11DD4ABAC233FDA"",""assignmentId"":""0198ef12-df43-7740-84c6-82ca8fb8f829"",""projectId"":""0198ee3c-27ac-7803-a9ea-f3b4ad4ad678""}","https://test12345.live/?num_scrambled_semantic=8&num_scrambled_causal=4&num_scrambled_schematic=4&participantId=17793421981E4569B11DD4ABAC233FDA&assignmentId=0198ef12-df43-7740-84c6-82ca8fb8f829&projectId=0198ee3c-27ac-7803-a9ea-f3b4ad4ad678","17793421981E4569B11DD4ABAC233FDA-2025-08-28-06-10-00","","3139","","images/causal_sequence/package_causal/package_causal_1.png","0","",""
"","","","","","image-button-response","74","720419","0.0-12.0-1.0-2.5","17793421981E4569B11DD4ABAC233FDA","17793421981E4569B11DD4ABAC233FDA","0198ef12-df43-7740-84c6-82ca8fb8f829","0198ee3c-27ac-7803-a9ea-f3b4ad4ad678","{""num_scrambled_semantic"":""8"",""num_scrambled_causal"":""4"",""num_scrambled_schematic"":""4"",""participantId"":""17793421981E4569B11DD4ABAC233FDA"",""assignmentId"":""0198ef12-df43-7740-84c6-82ca8fb8f829"",""projectId"":""0198ee3c-27ac-7803-a9ea-f3b4ad4ad678""}","https://test12345.live/?num_scrambled_semantic=8&num_scrambled_causal=4&num_scrambled_schematic=4&participantId=17793421981E4569B11DD4ABAC233FDA&assignmentId=0198ef12-df43-7740-84c6-82ca8fb8f829&projectId=0198ee3c-27ac-7803-a9ea-f3b4ad4ad678","17793421981E4569B11DD4ABAC233FDA-2025-08-28-06-10-00","","null","","[]","null","",""
"","","","","","image-button-response","75","724921","0.0-12.0-1.0-0.6","17793421981E4569B11DD4ABAC233FDA","17793421981E4569B11DD4ABAC233FDA","0198ef12-df43-7740-84c6-82ca8fb8f829","0198ee3c-27ac-7803-a9ea-f3b4ad4ad678","{""num_scrambled_semantic"":""8"",""num_scrambled_causal"":""4"",""num_scrambled_schematic"":""4"",""participantId"":""17793421981E4569B11DD4ABAC233FDA"",""assignmentId"":""0198ef12-df43-7740-84c6-82ca8fb8f829"",""projectId"":""0198ee3c-27ac-7803-a9ea-f3b4ad4ad678""}","https://test12345.live/?num_scrambled_semantic=8&num_scrambled_causal=4&num_scrambled_schematic=4&participantId=17793421981E4569B11DD4ABAC233FDA&assignmentId=0198ef12-df43-7740-84c6-82ca8fb8f829&projectId=0198ee3c-27ac-7803-a9ea-f3b4ad4ad678","17793421981E4569B11DD4ABAC233FDA-2025-08-28-06-10-00","","null","","images/causal_sequence/package_causal/package_causal_7.png","null","",""
"","","","","","image-button-response","76","726431","0.0-12.0-1.0-1.6","17793421981E4569B11DD4ABAC233FDA","17793421981E4569B11DD4ABAC233FDA","0198ef12-df43-7740-84c6-82ca8fb8f829","0198ee3c-27ac-7803-a9ea-f3b4ad4ad678","{""num_scrambled_semantic"":""8"",""num_scrambled_causal"":""4"",""num_scrambled_schematic"":""4"",""participantId"":""17793421981E4569B11DD4ABAC233FDA"",""assignmentId"":""0198ef12-df43-7740-84c6-82ca8fb8f829"",""projectId"":""0198ee3c-27ac-7803-a9ea-f3b4ad4ad678""}","https://test12345.live/?num_scrambled_semantic=8&num_scrambled_causal=4&num_scrambled_schematic=4&participantId=17793421981E4569B11DD4ABAC233FDA&assignmentId=0198ef12-df43-7740-84c6-82ca8fb8f829&projectId=0198ee3c-27ac-7803-a9ea-f3b4ad4ad678","17793421981E4569B11DD4ABAC233FDA-2025-08-28-06-10-00","","1507","","images/causal_sequence/package_causal/package_causal_7.png","0","",""
"","","","","","image-button-response","77","728233","0.0-12.0-1.0-2.6","17793421981E4569B11DD4ABAC233FDA","17793421981E4569B11DD4ABAC233FDA","0198ef12-df43-7740-84c6-82ca8fb8f829","0198ee3c-27ac-7803-a9ea-f3b4ad4ad678","{""num_scrambled_semantic"":""8"",""num_scrambled_causal"":""4"",""num_scrambled_schematic"":""4"",""participantId"":""17793421981E4569B11DD4ABAC233FDA"",""assignmentId"":""0198ef12-df43-7740-84c6-82ca8fb8f829"",""projectId"":""0198ee3c-27ac-7803-a9ea-f3b4ad4ad678""}","https://test12345.live/?num_scrambled_semantic=8&num_scrambled_causal=4&num_scrambled_schematic=4&participantId=17793421981E4569B11DD4ABAC233FDA&assignmentId=0198ef12-df43-7740-84c6-82ca8fb8f829&projectId=0198ee3c-27ac-7803-a9ea-f3b4ad4ad678","17793421981E4569B11DD4ABAC233FDA-2025-08-28-06-10-00","","null","","[]","null","",""
"","","","","","image-button-response","78","732735","0.0-12.0-1.0-0.7","17793421981E4569B11DD4ABAC233FDA","17793421981E4569B11DD4ABAC233FDA","0198ef12-df43-7740-84c6-82ca8fb8f829","0198ee3c-27ac-7803-a9ea-f3b4ad4ad678","{""num_scrambled_semantic"":""8"",""num_scrambled_causal"":""4"",""num_scrambled_schematic"":""4"",""participantId"":""17793421981E4569B11DD4ABAC233FDA"",""assignmentId"":""0198ef12-df43-7740-84c6-82ca8fb8f829"",""projectId"":""0198ee3c-27ac-7803-a9ea-f3b4ad4ad678""}","https://test12345.live/?num_scrambled_semantic=8&num_scrambled_causal=4&num_scrambled_schematic=4&participantId=17793421981E4569B11DD4ABAC233FDA&assignmentId=0198ef12-df43-7740-84c6-82ca8fb8f829&projectId=0198ee3c-27ac-7803-a9ea-f3b4ad4ad678","17793421981E4569B11DD4ABAC233FDA-2025-08-28-06-10-00","","null","","images/causal_sequence/package_causal/package_causal_9.png","null","",""
"","","","","","image-button-response","79","734248","0.0-12.0-1.0-1.7","17793421981E4569B11DD4ABAC233FDA","17793421981E4569B11DD4ABAC233FDA","0198ef12-df43-7740-84c6-82ca8fb8f829","0198ee3c-27ac-7803-a9ea-f3b4ad4ad678","{""num_scrambled_semantic"":""8"",""num_scrambled_causal"":""4"",""num_scrambled_schematic"":""4"",""participantId"":""17793421981E4569B11DD4ABAC233FDA"",""assignmentId"":""0198ef12-df43-7740-84c6-82ca8fb8f829"",""projectId"":""0198ee3c-27ac-7803-a9ea-f3b4ad4ad678""}","https://test12345.live/?num_scrambled_semantic=8&num_scrambled_causal=4&num_scrambled_schematic=4&participantId=17793421981E4569B11DD4ABAC233FDA&assignmentId=0198ef12-df43-7740-84c6-82ca8fb8f829&projectId=0198ee3c-27ac-7803-a9ea-f3b4ad4ad678","17793421981E4569B11DD4ABAC233FDA-2025-08-28-06-10-00","","1510","","images/causal_sequence/package_causal/package_causal_9.png","0","",""
"","","","","","image-button-response","80","736050","0.0-12.0-1.0-2.7","17793421981E4569B11DD4ABAC233FDA","17793421981E4569B11DD4ABAC233FDA","0198ef12-df43-7740-84c6-82ca8fb8f829","0198ee3c-27ac-7803-a9ea-f3b4ad4ad678","{""num_scrambled_semantic"":""8"",""num_scrambled_causal"":""4"",""num_scrambled_schematic"":""4"",""participantId"":""17793421981E4569B11DD4ABAC233FDA"",""assignmentId"":""0198ef12-df43-7740-84c6-82ca8fb8f829"",""projectId"":""0198ee3c-27ac-7803-a9ea-f3b4ad4ad678""}","https://test12345.live/?num_scrambled_semantic=8&num_scrambled_causal=4&num_scrambled_schematic=4&participantId=17793421981E4569B11DD4ABAC233FDA&assignmentId=0198ef12-df43-7740-84c6-82ca8fb8f829&projectId=0198ee3c-27ac-7803-a9ea-f3b4ad4ad678","17793421981E4569B11DD4ABAC233FDA-2025-08-28-06-10-00","","null","","[]","null","",""
"","","","","","image-button-response","81","740553","0.0-12.0-1.0-0.8","17793421981E4569B11DD4ABAC233FDA","17793421981E4569B11DD4ABAC233FDA","0198ef12-df43-7740-84c6-82ca8fb8f829","0198ee3c-27ac-7803-a9ea-f3b4ad4ad678","{""num_scrambled_semantic"":""8"",""num_scrambled_causal"":""4"",""num_scrambled_schematic"":""4"",""participantId"":""17793421981E4569B11DD4ABAC233FDA"",""assignmentId"":""0198ef12-df43-7740-84c6-82ca8fb8f829"",""projectId"":""0198ee3c-27ac-7803-a9ea-f3b4ad4ad678""}","https://test12345.live/?num_scrambled_semantic=8&num_scrambled_causal=4&num_scrambled_schematic=4&participantId=17793421981E4569B11DD4ABAC233FDA&assignmentId=0198ef12-df43-7740-84c6-82ca8fb8f829&projectId=0198ee3c-27ac-7803-a9ea-f3b4ad4ad678","17793421981E4569B11DD4ABAC233FDA-2025-08-28-06-10-00","","null","","images/causal_sequence/package_causal/package_causal_6.png","null","",""
"","","","","","image-button-response","82","742097","0.0-12.0-1.0-1.8","17793421981E4569B11DD4ABAC233FDA","17793421981E4569B11DD4ABAC233FDA","0198ef12-df43-7740-84c6-82ca8fb8f829","0198ee3c-27ac-7803-a9ea-f3b4ad4ad678","{""num_scrambled_semantic"":""8"",""num_scrambled_causal"":""4"",""num_scrambled_schematic"":""4"",""participantId"":""17793421981E4569B11DD4ABAC233FDA"",""assignmentId"":""0198ef12-df43-7740-84c6-82ca8fb8f829"",""projectId"":""0198ee3c-27ac-7803-a9ea-f3b4ad4ad678""}","https://test12345.live/?num_scrambled_semantic=8&num_scrambled_causal=4&num_scrambled_schematic=4&participantId=17793421981E4569B11DD4ABAC233FDA&assignmentId=0198ef12-df43-7740-84c6-82ca8fb8f829&projectId=0198ee3c-27ac-7803-a9ea-f3b4ad4ad678","17793421981E4569B11DD4ABAC233FDA-2025-08-28-06-10-00","","1541","","images/causal_sequence/package_causal/package_causal_6.png","0","",""
"","","","","","image-button-response","83","743899","0.0-12.0-1.0-2.8","17793421981E4569B11DD4ABAC233FDA","17793421981E4569B11DD4ABAC233FDA","0198ef12-df43-7740-84c6-82ca8fb8f829","0198ee3c-27ac-7803-a9ea-f3b4ad4ad678","{""num_scrambled_semantic"":""8"",""num_scrambled_causal"":""4"",""num_scrambled_schematic"":""4"",""participantId"":""17793421981E4569B11DD4ABAC233FDA"",""assignmentId"":""0198ef12-df43-7740-84c6-82ca8fb8f829"",""projectId"":""0198ee3c-27ac-7803-a9ea-f3b4ad4ad678""}","https://test12345.live/?num_scrambled_semantic=8&num_scrambled_causal=4&num_scrambled_schematic=4&participantId=17793421981E4569B11DD4ABAC233FDA&assignmentId=0198ef12-df43-7740-84c6-82ca8fb8f829&projectId=0198ee3c-27ac-7803-a9ea-f3b4ad4ad678","17793421981E4569B11DD4ABAC233FDA-2025-08-28-06-10-00","","null","","[]","null","",""
"","","","","","image-button-response","84","748400","0.0-12.0-1.0-0.9","17793421981E4569B11DD4ABAC233FDA","17793421981E4569B11DD4ABAC233FDA","0198ef12-df43-7740-84c6-82ca8fb8f829","0198ee3c-27ac-7803-a9ea-f3b4ad4ad678","{""num_scrambled_semantic"":""8"",""num_scrambled_causal"":""4"",""num_scrambled_schematic"":""4"",""participantId"":""17793421981E4569B11DD4ABAC233FDA"",""assignmentId"":""0198ef12-df43-7740-84c6-82ca8fb8f829"",""projectId"":""0198ee3c-27ac-7803-a9ea-f3b4ad4ad678""}","https://test12345.live/?num_scrambled_semantic=8&num_scrambled_causal=4&num_scrambled_schematic=4&participantId=17793421981E4569B11DD4ABAC233FDA&assignmentId=0198ef12-df43-7740-84c6-82ca8fb8f829&projectId=0198ee3c-27ac-7803-a9ea-f3b4ad4ad678","17793421981E4569B11DD4ABAC233FDA-2025-08-28-06-10-00","","null","","images/causal_sequence/package_causal/package_causal_8.png","null","",""
"","","","","","image-button-response","85","749810","0.0-12.0-1.0-1.9","17793421981E4569B11DD4ABAC233FDA","17793421981E4569B11DD4ABAC233FDA","0198ef12-df43-7740-84c6-82ca8fb8f829","0198ee3c-27ac-7803-a9ea-f3b4ad4ad678","{""num_scrambled_semantic"":""8"",""num_scrambled_causal"":""4"",""num_scrambled_schematic"":""4"",""participantId"":""17793421981E4569B11DD4ABAC233FDA"",""assignmentId"":""0198ef12-df43-7740-84c6-82ca8fb8f829"",""projectId"":""0198ee3c-27ac-7803-a9ea-f3b4ad4ad678""}","https://test12345.live/?num_scrambled_semantic=8&num_scrambled_causal=4&num_scrambled_schematic=4&participantId=17793421981E4569B11DD4ABAC233FDA&assignmentId=0198ef12-df43-7740-84c6-82ca8fb8f829&projectId=0198ee3c-27ac-7803-a9ea-f3b4ad4ad678","17793421981E4569B11DD4ABAC233FDA-2025-08-28-06-10-00","","1406","","images/causal_sequence/package_causal/package_causal_8.png","0","",""
"","","","","","image-button-response","86","751613","0.0-12.0-1.0-2.9","17793421981E4569B11DD4ABAC233FDA","17793421981E4569B11DD4ABAC233FDA","0198ef12-df43-7740-84c6-82ca8fb8f829","0198ee3c-27ac-7803-a9ea-f3b4ad4ad678","{""num_scrambled_semantic"":""8"",""num_scrambled_causal"":""4"",""num_scrambled_schematic"":""4"",""participantId"":""17793421981E4569B11DD4ABAC233FDA"",""assignmentId"":""0198ef12-df43-7740-84c6-82ca8fb8f829"",""projectId"":""0198ee3c-27ac-7803-a9ea-f3b4ad4ad678""}","https://test12345.live/?num_scrambled_semantic=8&num_scrambled_causal=4&num_scrambled_schematic=4&participantId=17793421981E4569B11DD4ABAC233FDA&assignmentId=0198ef12-df43-7740-84c6-82ca8fb8f829&projectId=0198ee3c-27ac-7803-a9ea-f3b4ad4ad678","17793421981E4569B11DD4ABAC233FDA-2025-08-28-06-10-00","","null","","[]","null","",""
"","","","","","html-audio-response","87","798037","0.0-13.0","17793421981E4569B11DD4ABAC233FDA","17793421981E4569B11DD4ABAC233FDA","0198ef12-df43-7740-84c6-82ca8fb8f829","0198ee3c-27ac-7803-a9ea-f3b4ad4ad678","{""num_scrambled_semantic"":""8"",""num_scrambled_causal"":""4"",""num_scrambled_schematic"":""4"",""participantId"":""17793421981E4569B11DD4ABAC233FDA"",""assignmentId"":""0198ef12-df43-7740-84c6-82ca8fb8f829"",""projectId"":""0198ee3c-27ac-7803-a9ea-f3b4ad4ad678""}","https://test12345.live/?num_scrambled_semantic=8&num_scrambled_causal=4&num_scrambled_schematic=4&participantId=17793421981E4569B11DD4ABAC233FDA&assignmentId=0198ef12-df43-7740-84c6-82ca8fb8f829&projectId=0198ee3c-27ac-7803-a9ea-f3b4ad4ad678","17793421981E4569B11DD4ABAC233FDA-2025-08-28-06-10-00","","44357","","[""<span style=\""color: red; font-size: 24px\""> NOW RECORDING</span><p>Please say out loud all the images you saw, in the order of the story they create. Try to recall the sequence of events as they appeared in the story, not necessarily the order they were presented on the screen.</p>""]","","3","package_causal"
"","","","","","image-button-response","88","804058","0.0-14.0-0.0","17793421981E4569B11DD4ABAC233FDA","17793421981E4569B11DD4ABAC233FDA","0198ef12-df43-7740-84c6-82ca8fb8f829","0198ee3c-27ac-7803-a9ea-f3b4ad4ad678","{""num_scrambled_semantic"":""8"",""num_scrambled_causal"":""4"",""num_scrambled_schematic"":""4"",""participantId"":""17793421981E4569B11DD4ABAC233FDA"",""assignmentId"":""0198ef12-df43-7740-84c6-82ca8fb8f829"",""projectId"":""0198ee3c-27ac-7803-a9ea-f3b4ad4ad678""}","https://test12345.live/?num_scrambled_semantic=8&num_scrambled_causal=4&num_scrambled_schematic=4&participantId=17793421981E4569B11DD4ABAC233FDA&assignmentId=0198ef12-df43-7740-84c6-82ca8fb8f829&projectId=0198ee3c-27ac-7803-a9ea-f3b4ad4ad678","17793421981E4569B11DD4ABAC233FDA-2025-08-28-06-10-00","","null","","images/schematic_sequence/restaurant_scheme/restaurant_scheme_0.png","null","",""
"","","","","","image-button-response","89","808560","0.0-14.0-1.0-0.0","17793421981E4569B11DD4ABAC233FDA","17793421981E4569B11DD4ABAC233FDA","0198ef12-df43-7740-84c6-82ca8fb8f829","0198ee3c-27ac-7803-a9ea-f3b4ad4ad678","{""num_scrambled_semantic"":""8"",""num_scrambled_causal"":""4"",""num_scrambled_schematic"":""4"",""participantId"":""17793421981E4569B11DD4ABAC233FDA"",""assignmentId"":""0198ef12-df43-7740-84c6-82ca8fb8f829"",""projectId"":""0198ee3c-27ac-7803-a9ea-f3b4ad4ad678""}","https://test12345.live/?num_scrambled_semantic=8&num_scrambled_causal=4&num_scrambled_schematic=4&participantId=17793421981E4569B11DD4ABAC233FDA&assignmentId=0198ef12-df43-7740-84c6-82ca8fb8f829&projectId=0198ee3c-27ac-7803-a9ea-f3b4ad4ad678","17793421981E4569B11DD4ABAC233FDA-2025-08-28-06-10-00","","null","","images/schematic_sequence/restaurant_scheme/restaurant_scheme_3.png","null","",""
"","","","","","image-button-response","90","810587","0.0-14.0-1.0-1.0","17793421981E4569B11DD4ABAC233FDA","17793421981E4569B11DD4ABAC233FDA","0198ef12-df43-7740-84c6-82ca8fb8f829","0198ee3c-27ac-7803-a9ea-f3b4ad4ad678","{""num_scrambled_semantic"":""8"",""num_scrambled_causal"":""4"",""num_scrambled_schematic"":""4"",""participantId"":""17793421981E4569B11DD4ABAC233FDA"",""assignmentId"":""0198ef12-df43-7740-84c6-82ca8fb8f829"",""projectId"":""0198ee3c-27ac-7803-a9ea-f3b4ad4ad678""}","https://test12345.live/?num_scrambled_semantic=8&num_scrambled_causal=4&num_scrambled_schematic=4&participantId=17793421981E4569B11DD4ABAC233FDA&assignmentId=0198ef12-df43-7740-84c6-82ca8fb8f829&projectId=0198ee3c-27ac-7803-a9ea-f3b4ad4ad678","17793421981E4569B11DD4ABAC233FDA-2025-08-28-06-10-00","","2023","","images/schematic_sequence/restaurant_scheme/restaurant_scheme_3.png","1","",""
"","","","","","image-button-response","91","812389","0.0-14.0-1.0-2.0","17793421981E4569B11DD4ABAC233FDA","17793421981E4569B11DD4ABAC233FDA","0198ef12-df43-7740-84c6-82ca8fb8f829","0198ee3c-27ac-7803-a9ea-f3b4ad4ad678","{""num_scrambled_semantic"":""8"",""num_scrambled_causal"":""4"",""num_scrambled_schematic"":""4"",""participantId"":""17793421981E4569B11DD4ABAC233FDA"",""assignmentId"":""0198ef12-df43-7740-84c6-82ca8fb8f829"",""projectId"":""0198ee3c-27ac-7803-a9ea-f3b4ad4ad678""}","https://test12345.live/?num_scrambled_semantic=8&num_scrambled_causal=4&num_scrambled_schematic=4&participantId=17793421981E4569B11DD4ABAC233FDA&assignmentId=0198ef12-df43-7740-84c6-82ca8fb8f829&projectId=0198ee3c-27ac-7803-a9ea-f3b4ad4ad678","17793421981E4569B11DD4ABAC233FDA-2025-08-28-06-10-00","","null","","[]","null","",""
"","","","","","image-button-response","92","816891","0.0-14.0-1.0-0.1","17793421981E4569B11DD4ABAC233FDA","17793421981E4569B11DD4ABAC233FDA","0198ef12-df43-7740-84c6-82ca8fb8f829","0198ee3c-27ac-7803-a9ea-f3b4ad4ad678","{""num_scrambled_semantic"":""8"",""num_scrambled_causal"":""4"",""num_scrambled_schematic"":""4"",""participantId"":""17793421981E4569B11DD4ABAC233FDA"",""assignmentId"":""0198ef12-df43-7740-84c6-82ca8fb8f829"",""projectId"":""0198ee3c-27ac-7803-a9ea-f3b4ad4ad678""}","https://test12345.live/?num_scrambled_semantic=8&num_scrambled_causal=4&num_scrambled_schematic=4&participantId=17793421981E4569B11DD4ABAC233FDA&assignmentId=0198ef12-df43-7740-84c6-82ca8fb8f829&projectId=0198ee3c-27ac-7803-a9ea-f3b4ad4ad678","17793421981E4569B11DD4ABAC233FDA-2025-08-28-06-10-00","","null","","images/schematic_sequence/restaurant_scheme/restaurant_scheme_1.png","null","",""
"","","","","","image-button-response","93","820158","0.0-14.0-1.0-1.1","17793421981E4569B11DD4ABAC233FDA","17793421981E4569B11DD4ABAC233FDA","0198ef12-df43-7740-84c6-82ca8fb8f829","0198ee3c-27ac-7803-a9ea-f3b4ad4ad678","{""num_scrambled_semantic"":""8"",""num_scrambled_causal"":""4"",""num_scrambled_schematic"":""4"",""participantId"":""17793421981E4569B11DD4ABAC233FDA"",""assignmentId"":""0198ef12-df43-7740-84c6-82ca8fb8f829"",""projectId"":""0198ee3c-27ac-7803-a9ea-f3b4ad4ad678""}","https://test12345.live/?num_scrambled_semantic=8&num_scrambled_causal=4&num_scrambled_schematic=4&participantId=17793421981E4569B11DD4ABAC233FDA&assignmentId=0198ef12-df43-7740-84c6-82ca8fb8f829&projectId=0198ee3c-27ac-7803-a9ea-f3b4ad4ad678","17793421981E4569B11DD4ABAC233FDA-2025-08-28-06-10-00","","3264","","images/schematic_sequence/restaurant_scheme/restaurant_scheme_1.png","0","",""
"","","","","","image-button-response","94","821960","0.0-14.0-1.0-2.1","17793421981E4569B11DD4ABAC233FDA","17793421981E4569B11DD4ABAC233FDA","0198ef12-df43-7740-84c6-82ca8fb8f829","0198ee3c-27ac-7803-a9ea-f3b4ad4ad678","{""num_scrambled_semantic"":""8"",""num_scrambled_causal"":""4"",""num_scrambled_schematic"":""4"",""participantId"":""17793421981E4569B11DD4ABAC233FDA"",""assignmentId"":""0198ef12-df43-7740-84c6-82ca8fb8f829"",""projectId"":""0198ee3c-27ac-7803-a9ea-f3b4ad4ad678""}","https://test12345.live/?num_scrambled_semantic=8&num_scrambled_causal=4&num_scrambled_schematic=4&participantId=17793421981E4569B11DD4ABAC233FDA&assignmentId=0198ef12-df43-7740-84c6-82ca8fb8f829&projectId=0198ee3c-27ac-7803-a9ea-f3b4ad4ad678","17793421981E4569B11DD4ABAC233FDA-2025-08-28-06-10-00","","null","","[]","null","",""
"","","","","","image-button-response","95","826463","0.0-14.0-1.0-0.2","17793421981E4569B11DD4ABAC233FDA","17793421981E4569B11DD4ABAC233FDA","0198ef12-df43-7740-84c6-82ca8fb8f829","0198ee3c-27ac-7803-a9ea-f3b4ad4ad678","{""num_scrambled_semantic"":""8"",""num_scrambled_causal"":""4"",""num_scrambled_schematic"":""4"",""participantId"":""17793421981E4569B11DD4ABAC233FDA"",""assignmentId"":""0198ef12-df43-7740-84c6-82ca8fb8f829"",""projectId"":""0198ee3c-27ac-7803-a9ea-f3b4ad4ad678""}","https://test12345.live/?num_scrambled_semantic=8&num_scrambled_causal=4&num_scrambled_schematic=4&participantId=17793421981E4569B11DD4ABAC233FDA&assignmentId=0198ef12-df43-7740-84c6-82ca8fb8f829&projectId=0198ee3c-27ac-7803-a9ea-f3b4ad4ad678","17793421981E4569B11DD4ABAC233FDA-2025-08-28-06-10-00","","null","","images/schematic_sequence/restaurant_scheme/restaurant_scheme_ten.png","null","",""
"","","","","","image-button-response","96","828630","0.0-14.0-1.0-1.2","17793421981E4569B11DD4ABAC233FDA","17793421981E4569B11DD4ABAC233FDA","0198ef12-df43-7740-84c6-82ca8fb8f829","0198ee3c-27ac-7803-a9ea-f3b4ad4ad678","{""num_scrambled_semantic"":""8"",""num_scrambled_causal"":""4"",""num_scrambled_schematic"":""4"",""participantId"":""17793421981E4569B11DD4ABAC233FDA"",""assignmentId"":""0198ef12-df43-7740-84c6-82ca8fb8f829"",""projectId"":""0198ee3c-27ac-7803-a9ea-f3b4ad4ad678""}","https://test12345.live/?num_scrambled_semantic=8&num_scrambled_causal=4&num_scrambled_schematic=4&participantId=17793421981E4569B11DD4ABAC233FDA&assignmentId=0198ef12-df43-7740-84c6-82ca8fb8f829&projectId=0198ee3c-27ac-7803-a9ea-f3b4ad4ad678","17793421981E4569B11DD4ABAC233FDA-2025-08-28-06-10-00","","2165","","images/schematic_sequence/restaurant_scheme/restaurant_scheme_ten.png","0","",""
"","","","","","image-button-response","97","830434","0.0-14.0-1.0-2.2","17793421981E4569B11DD4ABAC233FDA","17793421981E4569B11DD4ABAC233FDA","0198ef12-df43-7740-84c6-82ca8fb8f829","0198ee3c-27ac-7803-a9ea-f3b4ad4ad678","{""num_scrambled_semantic"":""8"",""num_scrambled_causal"":""4"",""num_scrambled_schematic"":""4"",""participantId"":""17793421981E4569B11DD4ABAC233FDA"",""assignmentId"":""0198ef12-df43-7740-84c6-82ca8fb8f829"",""projectId"":""0198ee3c-27ac-7803-a9ea-f3b4ad4ad678""}","https://test12345.live/?num_scrambled_semantic=8&num_scrambled_causal=4&num_scrambled_schematic=4&participantId=17793421981E4569B11DD4ABAC233FDA&assignmentId=0198ef12-df43-7740-84c6-82ca8fb8f829&projectId=0198ee3c-27ac-7803-a9ea-f3b4ad4ad678","17793421981E4569B11DD4ABAC233FDA-2025-08-28-06-10-00","","null","","[]","null","",""
"","","","","","image-button-response","98","834936","0.0-14.0-1.0-0.3","17793421981E4569B11DD4ABAC233FDA","17793421981E4569B11DD4ABAC233FDA","0198ef12-df43-7740-84c6-82ca8fb8f829","0198ee3c-27ac-7803-a9ea-f3b4ad4ad678","{""num_scrambled_semantic"":""8"",""num_scrambled_causal"":""4"",""num_scrambled_schematic"":""4"",""participantId"":""17793421981E4569B11DD4ABAC233FDA"",""assignmentId"":""0198ef12-df43-7740-84c6-82ca8fb8f829"",""projectId"":""0198ee3c-27ac-7803-a9ea-f3b4ad4ad678""}","https://test12345.live/?num_scrambled_semantic=8&num_scrambled_causal=4&num_scrambled_schematic=4&participantId=17793421981E4569B11DD4ABAC233FDA&assignmentId=0198ef12-df43-7740-84c6-82ca8fb8f829&projectId=0198ee3c-27ac-7803-a9ea-f3b4ad4ad678","17793421981E4569B11DD4ABAC233FDA-2025-08-28-06-10-00","","null","","images/schematic_sequence/restaurant_scheme/restaurant_scheme_6.png","null","",""
"","","","","","image-button-response","99","838939","0.0-14.0-1.0-1.3","17793421981E4569B11DD4ABAC233FDA","17793421981E4569B11DD4ABAC233FDA","0198ef12-df43-7740-84c6-82ca8fb8f829","0198ee3c-27ac-7803-a9ea-f3b4ad4ad678","{""num_scrambled_semantic"":""8"",""num_scrambled_causal"":""4"",""num_scrambled_schematic"":""4"",""participantId"":""17793421981E4569B11DD4ABAC233FDA"",""assignmentId"":""0198ef12-df43-7740-84c6-82ca8fb8f829"",""projectId"":""0198ee3c-27ac-7803-a9ea-f3b4ad4ad678""}","https://test12345.live/?num_scrambled_semantic=8&num_scrambled_causal=4&num_scrambled_schematic=4&participantId=17793421981E4569B11DD4ABAC233FDA&assignmentId=0198ef12-df43-7740-84c6-82ca8fb8f829&projectId=0198ee3c-27ac-7803-a9ea-f3b4ad4ad678","17793421981E4569B11DD4ABAC233FDA-2025-08-28-06-10-00","","null","","images/schematic_sequence/restaurant_scheme/restaurant_scheme_6.png","null","",""
"","","","","","image-button-response","100","840741","0.0-14.0-1.0-2.3","17793421981E4569B11DD4ABAC233FDA","17793421981E4569B11DD4ABAC233FDA","0198ef12-df43-7740-84c6-82ca8fb8f829","0198ee3c-27ac-7803-a9ea-f3b4ad4ad678","{""num_scrambled_semantic"":""8"",""num_scrambled_causal"":""4"",""num_scrambled_schematic"":""4"",""participantId"":""17793421981E4569B11DD4ABAC233FDA"",""assignmentId"":""0198ef12-df43-7740-84c6-82ca8fb8f829"",""projectId"":""0198ee3c-27ac-7803-a9ea-f3b4ad4ad678""}","https://test12345.live/?num_scrambled_semantic=8&num_scrambled_causal=4&num_scrambled_schematic=4&participantId=17793421981E4569B11DD4ABAC233FDA&assignmentId=0198ef12-df43-7740-84c6-82ca8fb8f829&projectId=0198ee3c-27ac-7803-a9ea-f3b4ad4ad678","17793421981E4569B11DD4ABAC233FDA-2025-08-28-06-10-00","","null","","[]","null","",""
"","","","","","image-button-response","101","845242","0.0-14.0-1.0-0.4","17793421981E4569B11DD4ABAC233FDA","17793421981E4569B11DD4ABAC233FDA","0198ef12-df43-7740-84c6-82ca8fb8f829","0198ee3c-27ac-7803-a9ea-f3b4ad4ad678","{""num_scrambled_semantic"":""8"",""num_scrambled_causal"":""4"",""num_scrambled_schematic"":""4"",""participantId"":""17793421981E4569B11DD4ABAC233FDA"",""assignmentId"":""0198ef12-df43-7740-84c6-82ca8fb8f829"",""projectId"":""0198ee3c-27ac-7803-a9ea-f3b4ad4ad678""}","https://test12345.live/?num_scrambled_semantic=8&num_scrambled_causal=4&num_scrambled_schematic=4&participantId=17793421981E4569B11DD4ABAC233FDA&assignmentId=0198ef12-df43-7740-84c6-82ca8fb8f829&projectId=0198ee3c-27ac-7803-a9ea-f3b4ad4ad678","17793421981E4569B11DD4ABAC233FDA-2025-08-28-06-10-00","","null","","images/schematic_sequence/restaurant_scheme/restaurant_scheme_2.png","null","",""
"","","","","","image-button-response","102","847197","0.0-14.0-1.0-1.4","17793421981E4569B11DD4ABAC233FDA","17793421981E4569B11DD4ABAC233FDA","0198ef12-df43-7740-84c6-82ca8fb8f829","0198ee3c-27ac-7803-a9ea-f3b4ad4ad678","{""num_scrambled_semantic"":""8"",""num_scrambled_causal"":""4"",""num_scrambled_schematic"":""4"",""participantId"":""17793421981E4569B11DD4ABAC233FDA"",""assignmentId"":""0198ef12-df43-7740-84c6-82ca8fb8f829"",""projectId"":""0198ee3c-27ac-7803-a9ea-f3b4ad4ad678""}","https://test12345.live/?num_scrambled_semantic=8&num_scrambled_causal=4&num_scrambled_schematic=4&participantId=17793421981E4569B11DD4ABAC233FDA&assignmentId=0198ef12-df43-7740-84c6-82ca8fb8f829&projectId=0198ee3c-27ac-7803-a9ea-f3b4ad4ad678","17793421981E4569B11DD4ABAC233FDA-2025-08-28-06-10-00","","1952","","images/schematic_sequence/restaurant_scheme/restaurant_scheme_2.png","1","",""
"","","","","","image-button-response","103","849000","0.0-14.0-1.0-2.4","17793421981E4569B11DD4ABAC233FDA","17793421981E4569B11DD4ABAC233FDA","0198ef12-df43-7740-84c6-82ca8fb8f829","0198ee3c-27ac-7803-a9ea-f3b4ad4ad678","{""num_scrambled_semantic"":""8"",""num_scrambled_causal"":""4"",""num_scrambled_schematic"":""4"",""participantId"":""17793421981E4569B11DD4ABAC233FDA"",""assignmentId"":""0198ef12-df43-7740-84c6-82ca8fb8f829"",""projectId"":""0198ee3c-27ac-7803-a9ea-f3b4ad4ad678""}","https://test12345.live/?num_scrambled_semantic=8&num_scrambled_causal=4&num_scrambled_schematic=4&participantId=17793421981E4569B11DD4ABAC233FDA&assignmentId=0198ef12-df43-7740-84c6-82ca8fb8f829&projectId=0198ee3c-27ac-7803-a9ea-f3b4ad4ad678","17793421981E4569B11DD4ABAC233FDA-2025-08-28-06-10-00","","null","","[]","null","",""
"","","","","","image-button-response","104","853503","0.0-14.0-1.0-0.5","17793421981E4569B11DD4ABAC233FDA","17793421981E4569B11DD4ABAC233FDA","0198ef12-df43-7740-84c6-82ca8fb8f829","0198ee3c-27ac-7803-a9ea-f3b4ad4ad678","{""num_scrambled_semantic"":""8"",""num_scrambled_causal"":""4"",""num_scrambled_schematic"":""4"",""participantId"":""17793421981E4569B11DD4ABAC233FDA"",""assignmentId"":""0198ef12-df43-7740-84c6-82ca8fb8f829"",""projectId"":""0198ee3c-27ac-7803-a9ea-f3b4ad4ad678""}","https://test12345.live/?num_scrambled_semantic=8&num_scrambled_causal=4&num_scrambled_schematic=4&participantId=17793421981E4569B11DD4ABAC233FDA&assignmentId=0198ef12-df43-7740-84c6-82ca8fb8f829&projectId=0198ee3c-27ac-7803-a9ea-f3b4ad4ad678","17793421981E4569B11DD4ABAC233FDA-2025-08-28-06-10-00","","null","","images/schematic_sequence/restaurant_scheme/restaurant_scheme_4.png","null","",""
"","","","","","image-button-response","105","855933","0.0-14.0-1.0-1.5","17793421981E4569B11DD4ABAC233FDA","17793421981E4569B11DD4ABAC233FDA","0198ef12-df43-7740-84c6-82ca8fb8f829","0198ee3c-27ac-7803-a9ea-f3b4ad4ad678","{""num_scrambled_semantic"":""8"",""num_scrambled_causal"":""4"",""num_scrambled_schematic"":""4"",""participantId"":""17793421981E4569B11DD4ABAC233FDA"",""assignmentId"":""0198ef12-df43-7740-84c6-82ca8fb8f829"",""projectId"":""0198ee3c-27ac-7803-a9ea-f3b4ad4ad678""}","https://test12345.live/?num_scrambled_semantic=8&num_scrambled_causal=4&num_scrambled_schematic=4&participantId=17793421981E4569B11DD4ABAC233FDA&assignmentId=0198ef12-df43-7740-84c6-82ca8fb8f829&projectId=0198ee3c-27ac-7803-a9ea-f3b4ad4ad678","17793421981E4569B11DD4ABAC233FDA-2025-08-28-06-10-00","","2428","","images/schematic_sequence/restaurant_scheme/restaurant_scheme_4.png","0","",""
"","","","","","image-button-response","106","857736","0.0-14.0-1.0-2.5","17793421981E4569B11DD4ABAC233FDA","17793421981E4569B11DD4ABAC233FDA","0198ef12-df43-7740-84c6-82ca8fb8f829","0198ee3c-27ac-7803-a9ea-f3b4ad4ad678","{""num_scrambled_semantic"":""8"",""num_scrambled_causal"":""4"",""num_scrambled_schematic"":""4"",""participantId"":""17793421981E4569B11DD4ABAC233FDA"",""assignmentId"":""0198ef12-df43-7740-84c6-82ca8fb8f829"",""projectId"":""0198ee3c-27ac-7803-a9ea-f3b4ad4ad678""}","https://test12345.live/?num_scrambled_semantic=8&num_scrambled_causal=4&num_scrambled_schematic=4&participantId=17793421981E4569B11DD4ABAC233FDA&assignmentId=0198ef12-df43-7740-84c6-82ca8fb8f829&projectId=0198ee3c-27ac-7803-a9ea-f3b4ad4ad678","17793421981E4569B11DD4ABAC233FDA-2025-08-28-06-10-00","","null","","[]","null","",""
"","","","","","image-button-response","107","862238","0.0-14.0-1.0-0.6","17793421981E4569B11DD4ABAC233FDA","17793421981E4569B11DD4ABAC233FDA","0198ef12-df43-7740-84c6-82ca8fb8f829","0198ee3c-27ac-7803-a9ea-f3b4ad4ad678","{""num_scrambled_semantic"":""8"",""num_scrambled_causal"":""4"",""num_scrambled_schematic"":""4"",""participantId"":""17793421981E4569B11DD4ABAC233FDA"",""assignmentId"":""0198ef12-df43-7740-84c6-82ca8fb8f829"",""projectId"":""0198ee3c-27ac-7803-a9ea-f3b4ad4ad678""}","https://test12345.live/?num_scrambled_semantic=8&num_scrambled_causal=4&num_scrambled_schematic=4&participantId=17793421981E4569B11DD4ABAC233FDA&assignmentId=0198ef12-df43-7740-84c6-82ca8fb8f829&projectId=0198ee3c-27ac-7803-a9ea-f3b4ad4ad678","17793421981E4569B11DD4ABAC233FDA-2025-08-28-06-10-00","","null","","images/schematic_sequence/restaurant_scheme/restaurant_scheme_8.png","null","",""
"","","","","","image-button-response","108","863959","0.0-14.0-1.0-1.6","17793421981E4569B11DD4ABAC233FDA","17793421981E4569B11DD4ABAC233FDA","0198ef12-df43-7740-84c6-82ca8fb8f829","0198ee3c-27ac-7803-a9ea-f3b4ad4ad678","{""num_scrambled_semantic"":""8"",""num_scrambled_causal"":""4"",""num_scrambled_schematic"":""4"",""participantId"":""17793421981E4569B11DD4ABAC233FDA"",""assignmentId"":""0198ef12-df43-7740-84c6-82ca8fb8f829"",""projectId"":""0198ee3c-27ac-7803-a9ea-f3b4ad4ad678""}","https://test12345.live/?num_scrambled_semantic=8&num_scrambled_causal=4&num_scrambled_schematic=4&participantId=17793421981E4569B11DD4ABAC233FDA&assignmentId=0198ef12-df43-7740-84c6-82ca8fb8f829&projectId=0198ee3c-27ac-7803-a9ea-f3b4ad4ad678","17793421981E4569B11DD4ABAC233FDA-2025-08-28-06-10-00","","1718","","images/schematic_sequence/restaurant_scheme/restaurant_scheme_8.png","1","",""
"","","","","","image-button-response","109","865760","0.0-14.0-1.0-2.6","17793421981E4569B11DD4ABAC233FDA","17793421981E4569B11DD4ABAC233FDA","0198ef12-df43-7740-84c6-82ca8fb8f829","0198ee3c-27ac-7803-a9ea-f3b4ad4ad678","{""num_scrambled_semantic"":""8"",""num_scrambled_causal"":""4"",""num_scrambled_schematic"":""4"",""participantId"":""17793421981E4569B11DD4ABAC233FDA"",""assignmentId"":""0198ef12-df43-7740-84c6-82ca8fb8f829"",""projectId"":""0198ee3c-27ac-7803-a9ea-f3b4ad4ad678""}","https://test12345.live/?num_scrambled_semantic=8&num_scrambled_causal=4&num_scrambled_schematic=4&participantId=17793421981E4569B11DD4ABAC233FDA&assignmentId=0198ef12-df43-7740-84c6-82ca8fb8f829&projectId=0198ee3c-27ac-7803-a9ea-f3b4ad4ad678","17793421981E4569B11DD4ABAC233FDA-2025-08-28-06-10-00","","null","","[]","null","",""
"","","","","","image-button-response","110","870263","0.0-14.0-1.0-0.7","17793421981E4569B11DD4ABAC233FDA","17793421981E4569B11DD4ABAC233FDA","0198ef12-df43-7740-84c6-82ca8fb8f829","0198ee3c-27ac-7803-a9ea-f3b4ad4ad678","{""num_scrambled_semantic"":""8"",""num_scrambled_causal"":""4"",""num_scrambled_schematic"":""4"",""participantId"":""17793421981E4569B11DD4ABAC233FDA"",""assignmentId"":""0198ef12-df43-7740-84c6-82ca8fb8f829"",""projectId"":""0198ee3c-27ac-7803-a9ea-f3b4ad4ad678""}","https://test12345.live/?num_scrambled_semantic=8&num_scrambled_causal=4&num_scrambled_schematic=4&participantId=17793421981E4569B11DD4ABAC233FDA&assignmentId=0198ef12-df43-7740-84c6-82ca8fb8f829&projectId=0198ee3c-27ac-7803-a9ea-f3b4ad4ad678","17793421981E4569B11DD4ABAC233FDA-2025-08-28-06-10-00","","null","","images/schematic_sequence/restaurant_scheme/restaurant_scheme_9.png","null","",""
"","","","","","image-button-response","111","872140","0.0-14.0-1.0-1.7","17793421981E4569B11DD4ABAC233FDA","17793421981E4569B11DD4ABAC233FDA","0198ef12-df43-7740-84c6-82ca8fb8f829","0198ee3c-27ac-7803-a9ea-f3b4ad4ad678","{""num_scrambled_semantic"":""8"",""num_scrambled_causal"":""4"",""num_scrambled_schematic"":""4"",""participantId"":""17793421981E4569B11DD4ABAC233FDA"",""assignmentId"":""0198ef12-df43-7740-84c6-82ca8fb8f829"",""projectId"":""0198ee3c-27ac-7803-a9ea-f3b4ad4ad678""}","https://test12345.live/?num_scrambled_semantic=8&num_scrambled_causal=4&num_scrambled_schematic=4&participantId=17793421981E4569B11DD4ABAC233FDA&assignmentId=0198ef12-df43-7740-84c6-82ca8fb8f829&projectId=0198ee3c-27ac-7803-a9ea-f3b4ad4ad678","17793421981E4569B11DD4ABAC233FDA-2025-08-28-06-10-00","","1874","","images/schematic_sequence/restaurant_scheme/restaurant_scheme_9.png","0","",""
"","","","","","image-button-response","112","873943","0.0-14.0-1.0-2.7","17793421981E4569B11DD4ABAC233FDA","17793421981E4569B11DD4ABAC233FDA","0198ef12-df43-7740-84c6-82ca8fb8f829","0198ee3c-27ac-7803-a9ea-f3b4ad4ad678","{""num_scrambled_semantic"":""8"",""num_scrambled_causal"":""4"",""num_scrambled_schematic"":""4"",""participantId"":""17793421981E4569B11DD4ABAC233FDA"",""assignmentId"":""0198ef12-df43-7740-84c6-82ca8fb8f829"",""projectId"":""0198ee3c-27ac-7803-a9ea-f3b4ad4ad678""}","https://test12345.live/?num_scrambled_semantic=8&num_scrambled_causal=4&num_scrambled_schematic=4&participantId=17793421981E4569B11DD4ABAC233FDA&assignmentId=0198ef12-df43-7740-84c6-82ca8fb8f829&projectId=0198ee3c-27ac-7803-a9ea-f3b4ad4ad678","17793421981E4569B11DD4ABAC233FDA-2025-08-28-06-10-00","","null","","[]","null","",""
"","","","","","image-button-response","113","878445","0.0-14.0-1.0-0.8","17793421981E4569B11DD4ABAC233FDA","17793421981E4569B11DD4ABAC233FDA","0198ef12-df43-7740-84c6-82ca8fb8f829","0198ee3c-27ac-7803-a9ea-f3b4ad4ad678","{""num_scrambled_semantic"":""8"",""num_scrambled_causal"":""4"",""num_scrambled_schematic"":""4"",""participantId"":""17793421981E4569B11DD4ABAC233FDA"",""assignmentId"":""0198ef12-df43-7740-84c6-82ca8fb8f829"",""projectId"":""0198ee3c-27ac-7803-a9ea-f3b4ad4ad678""}","https://test12345.live/?num_scrambled_semantic=8&num_scrambled_causal=4&num_scrambled_schematic=4&participantId=17793421981E4569B11DD4ABAC233FDA&assignmentId=0198ef12-df43-7740-84c6-82ca8fb8f829&projectId=0198ee3c-27ac-7803-a9ea-f3b4ad4ad678","17793421981E4569B11DD4ABAC233FDA-2025-08-28-06-10-00","","null","","images/schematic_sequence/restaurant_scheme/restaurant_scheme_7.png","null","",""
"","","","","","image-button-response","114","881998","0.0-14.0-1.0-1.8","17793421981E4569B11DD4ABAC233FDA","17793421981E4569B11DD4ABAC233FDA","0198ef12-df43-7740-84c6-82ca8fb8f829","0198ee3c-27ac-7803-a9ea-f3b4ad4ad678","{""num_scrambled_semantic"":""8"",""num_scrambled_causal"":""4"",""num_scrambled_schematic"":""4"",""participantId"":""17793421981E4569B11DD4ABAC233FDA"",""assignmentId"":""0198ef12-df43-7740-84c6-82ca8fb8f829"",""projectId"":""0198ee3c-27ac-7803-a9ea-f3b4ad4ad678""}","https://test12345.live/?num_scrambled_semantic=8&num_scrambled_causal=4&num_scrambled_schematic=4&participantId=17793421981E4569B11DD4ABAC233FDA&assignmentId=0198ef12-df43-7740-84c6-82ca8fb8f829&projectId=0198ee3c-27ac-7803-a9ea-f3b4ad4ad678","17793421981E4569B11DD4ABAC233FDA-2025-08-28-06-10-00","","3551","","images/schematic_sequence/restaurant_scheme/restaurant_scheme_7.png","1","",""
