"success","timeout","failed_images","failed_audio","failed_video","trial_type","trial_index","time_elapsed","internal_node_id","subject","subject_id","study_id","session_id","urlvar","current_url","audio_id","view_history","rt","device_id","stimulus","response","estimated_stimulus_onset","seq_name"
"true","false","[]","[]","[]","preload","0","3651","0.0-0.0","1821F336D9EA49FE815252461275C2D2","1821F336D9EA49FE815252461275C2D2","09dfd8f9-c276-4f13-a8fb-5472b1752fef","051c06f1-75cc-4548-856d-4923ddaba0dc","{""num_scrambled_semantic"":""8"",""num_scrambled_causal"":""4"",""num_scrambled_schematic"":""4"",""participantId"":""1821F336D9EA49FE815252461275C2D2"",""assignmentId"":""09dfd8f9-c276-4f13-a8fb-5472b1752fef"",""projectId"":""051c06f1-75cc-4548-856d-4923ddaba0dc""}","https://test12345.live/?num_scrambled_semantic=8&num_scrambled_causal=4&num_scrambled_schematic=4&participantId=1821F336D9EA49FE815252461275C2D2&assignmentId=09dfd8f9-c276-4f13-a8fb-5472b1752fef&projectId=051c06f1-75cc-4548-856d-4923ddaba0dc","1821F336D9EA49FE815252461275C2D2-2025-05-15-19-10-17","","","","","","",""
"","","","","","instructions","1","68274","0.0-1.0","1821F336D9EA49FE815252461275C2D2","1821F336D9EA49FE815252461275C2D2","09dfd8f9-c276-4f13-a8fb-5472b1752fef","051c06f1-75cc-4548-856d-4923ddaba0dc","{""num_scrambled_semantic"":""8"",""num_scrambled_causal"":""4"",""num_scrambled_schematic"":""4"",""participantId"":""1821F336D9EA49FE815252461275C2D2"",""assignmentId"":""09dfd8f9-c276-4f13-a8fb-5472b1752fef"",""projectId"":""051c06f1-75cc-4548-856d-4923ddaba0dc""}","https://test12345.live/?num_scrambled_semantic=8&num_scrambled_causal=4&num_scrambled_schematic=4&participantId=1821F336D9EA49FE815252461275C2D2&assignmentId=09dfd8f9-c276-4f13-a8fb-5472b1752fef&projectId=051c06f1-75cc-4548-856d-4923ddaba0dc","1821F336D9EA49FE815252461275C2D2-2025-05-15-19-10-17","[{""page_index"":0,""viewing_time"":64621}]","64622","","","","",""
"","","","","","instructions","2","73440","0.0-2.0","1821F336D9EA49FE815252461275C2D2","1821F336D9EA49FE815252461275C2D2","09dfd8f9-c276-4f13-a8fb-5472b1752fef","051c06f1-75cc-4548-856d-4923ddaba0dc","{""num_scrambled_semantic"":""8"",""num_scrambled_causal"":""4"",""num_scrambled_schematic"":""4"",""participantId"":""1821F336D9EA49FE815252461275C2D2"",""assignmentId"":""09dfd8f9-c276-4f13-a8fb-5472b1752fef"",""projectId"":""051c06f1-75cc-4548-856d-4923ddaba0dc""}","https://test12345.live/?num_scrambled_semantic=8&num_scrambled_causal=4&num_scrambled_schematic=4&participantId=1821F336D9EA49FE815252461275C2D2&assignmentId=09dfd8f9-c276-4f13-a8fb-5472b1752fef&projectId=051c06f1-75cc-4548-856d-4923ddaba0dc","1821F336D9EA49FE815252461275C2D2-2025-05-15-19-10-17","[{""page_index"":0,""viewing_time"":5164}]","5165","","","","",""
"true","","","","","fullscreen","3","76244","0.0-3.0","1821F336D9EA49FE815252461275C2D2","1821F336D9EA49FE815252461275C2D2","09dfd8f9-c276-4f13-a8fb-5472b1752fef","051c06f1-75cc-4548-856d-4923ddaba0dc","{""num_scrambled_semantic"":""8"",""num_scrambled_causal"":""4"",""num_scrambled_schematic"":""4"",""participantId"":""1821F336D9EA49FE815252461275C2D2"",""assignmentId"":""09dfd8f9-c276-4f13-a8fb-5472b1752fef"",""projectId"":""051c06f1-75cc-4548-856d-4923ddaba0dc""}","https://test12345.live/?num_scrambled_semantic=8&num_scrambled_causal=4&num_scrambled_schematic=4&participantId=1821F336D9EA49FE815252461275C2D2&assignmentId=09dfd8f9-c276-4f13-a8fb-5472b1752fef&projectId=051c06f1-75cc-4548-856d-4923ddaba0dc","1821F336D9EA49FE815252461275C2D2-2025-05-15-19-10-17","","1799","","","","",""
"","","","","","initialize-microphone","4","85533","0.0-4.0-0.0","1821F336D9EA49FE815252461275C2D2","1821F336D9EA49FE815252461275C2D2","09dfd8f9-c276-4f13-a8fb-5472b1752fef","051c06f1-75cc-4548-856d-4923ddaba0dc","{""num_scrambled_semantic"":""8"",""num_scrambled_causal"":""4"",""num_scrambled_schematic"":""4"",""participantId"":""1821F336D9EA49FE815252461275C2D2"",""assignmentId"":""09dfd8f9-c276-4f13-a8fb-5472b1752fef"",""projectId"":""051c06f1-75cc-4548-856d-4923ddaba0dc""}","https://test12345.live/?num_scrambled_semantic=8&num_scrambled_causal=4&num_scrambled_schematic=4&participantId=1821F336D9EA49FE815252461275C2D2&assignmentId=09dfd8f9-c276-4f13-a8fb-5472b1752fef&projectId=051c06f1-75cc-4548-856d-4923ddaba0dc","1821F336D9EA49FE815252461275C2D2-2025-05-15-19-10-17","","","cbdd33421356f7c9d0be842c2465f8b5f773dc1c78e297b34c92024493909257","","","",""
"","","","","","html-audio-response","5","95124","0.0-4.0-1.0","1821F336D9EA49FE815252461275C2D2","1821F336D9EA49FE815252461275C2D2","09dfd8f9-c276-4f13-a8fb-5472b1752fef","051c06f1-75cc-4548-856d-4923ddaba0dc","{""num_scrambled_semantic"":""8"",""num_scrambled_causal"":""4"",""num_scrambled_schematic"":""4"",""participantId"":""1821F336D9EA49FE815252461275C2D2"",""assignmentId"":""09dfd8f9-c276-4f13-a8fb-5472b1752fef"",""projectId"":""051c06f1-75cc-4548-856d-4923ddaba0dc""}","https://test12345.live/?num_scrambled_semantic=8&num_scrambled_causal=4&num_scrambled_schematic=4&participantId=1821F336D9EA49FE815252461275C2D2&assignmentId=09dfd8f9-c276-4f13-a8fb-5472b1752fef&projectId=051c06f1-75cc-4548-856d-4923ddaba0dc","1821F336D9EA49FE815252461275C2D2-2025-05-15-19-10-17","","1750","","<span style=""color: red; font-size: 24px""> NOW RECORDING</span>
        <p>Please test Microphone</p>","","1",""
"","","","","","html-button-response","6","96323","0.0-4.0-2.0","1821F336D9EA49FE815252461275C2D2","1821F336D9EA49FE815252461275C2D2","09dfd8f9-c276-4f13-a8fb-5472b1752fef","051c06f1-75cc-4548-856d-4923ddaba0dc","{""num_scrambled_semantic"":""8"",""num_scrambled_causal"":""4"",""num_scrambled_schematic"":""4"",""participantId"":""1821F336D9EA49FE815252461275C2D2"",""assignmentId"":""09dfd8f9-c276-4f13-a8fb-5472b1752fef"",""projectId"":""051c06f1-75cc-4548-856d-4923ddaba0dc""}","https://test12345.live/?num_scrambled_semantic=8&num_scrambled_causal=4&num_scrambled_schematic=4&participantId=1821F336D9EA49FE815252461275C2D2&assignmentId=09dfd8f9-c276-4f13-a8fb-5472b1752fef&projectId=051c06f1-75cc-4548-856d-4923ddaba0dc","1821F336D9EA49FE815252461275C2D2-2025-05-15-19-10-17","","1197","","<p style=""font-size:48px; color:red;"">Is Microphone OK?</p>","1","",""
"","","","","","instructions","7","103324","0.0-5.0","1821F336D9EA49FE815252461275C2D2","1821F336D9EA49FE815252461275C2D2","09dfd8f9-c276-4f13-a8fb-5472b1752fef","051c06f1-75cc-4548-856d-4923ddaba0dc","{""num_scrambled_semantic"":""8"",""num_scrambled_causal"":""4"",""num_scrambled_schematic"":""4"",""participantId"":""1821F336D9EA49FE815252461275C2D2"",""assignmentId"":""09dfd8f9-c276-4f13-a8fb-5472b1752fef"",""projectId"":""051c06f1-75cc-4548-856d-4923ddaba0dc""}","https://test12345.live/?num_scrambled_semantic=8&num_scrambled_causal=4&num_scrambled_schematic=4&participantId=1821F336D9EA49FE815252461275C2D2&assignmentId=09dfd8f9-c276-4f13-a8fb-5472b1752fef&projectId=051c06f1-75cc-4548-856d-4923ddaba0dc","1821F336D9EA49FE815252461275C2D2-2025-05-15-19-10-17","[{""page_index"":0,""viewing_time"":3766},{""page_index"":1,""viewing_time"":3233}]","7000","","","","",""
"","","","","","image-button-response","8","109334","0.0-6.0-0.0","1821F336D9EA49FE815252461275C2D2","1821F336D9EA49FE815252461275C2D2","09dfd8f9-c276-4f13-a8fb-5472b1752fef","051c06f1-75cc-4548-856d-4923ddaba0dc","{""num_scrambled_semantic"":""8"",""num_scrambled_causal"":""4"",""num_scrambled_schematic"":""4"",""participantId"":""1821F336D9EA49FE815252461275C2D2"",""assignmentId"":""09dfd8f9-c276-4f13-a8fb-5472b1752fef"",""projectId"":""051c06f1-75cc-4548-856d-4923ddaba0dc""}","https://test12345.live/?num_scrambled_semantic=8&num_scrambled_causal=4&num_scrambled_schematic=4&participantId=1821F336D9EA49FE815252461275C2D2&assignmentId=09dfd8f9-c276-4f13-a8fb-5472b1752fef&projectId=051c06f1-75cc-4548-856d-4923ddaba0dc","1821F336D9EA49FE815252461275C2D2-2025-05-15-19-10-17","","null","","images/instructions/movie_0.png","null","",""
"","","","","","image-button-response","9","113839","0.0-6.0-1.0-0.0","1821F336D9EA49FE815252461275C2D2","1821F336D9EA49FE815252461275C2D2","09dfd8f9-c276-4f13-a8fb-5472b1752fef","051c06f1-75cc-4548-856d-4923ddaba0dc","{""num_scrambled_semantic"":""8"",""num_scrambled_causal"":""4"",""num_scrambled_schematic"":""4"",""participantId"":""1821F336D9EA49FE815252461275C2D2"",""assignmentId"":""09dfd8f9-c276-4f13-a8fb-5472b1752fef"",""projectId"":""051c06f1-75cc-4548-856d-4923ddaba0dc""}","https://test12345.live/?num_scrambled_semantic=8&num_scrambled_causal=4&num_scrambled_schematic=4&participantId=1821F336D9EA49FE815252461275C2D2&assignmentId=09dfd8f9-c276-4f13-a8fb-5472b1752fef&projectId=051c06f1-75cc-4548-856d-4923ddaba0dc","1821F336D9EA49FE815252461275C2D2-2025-05-15-19-10-17","","null","","images/instructions/movie_1.png","null","",""
"","","","","","image-button-response","10","116891","0.0-6.0-1.0-1.0","1821F336D9EA49FE815252461275C2D2","1821F336D9EA49FE815252461275C2D2","09dfd8f9-c276-4f13-a8fb-5472b1752fef","051c06f1-75cc-4548-856d-4923ddaba0dc","{""num_scrambled_semantic"":""8"",""num_scrambled_causal"":""4"",""num_scrambled_schematic"":""4"",""participantId"":""1821F336D9EA49FE815252461275C2D2"",""assignmentId"":""09dfd8f9-c276-4f13-a8fb-5472b1752fef"",""projectId"":""051c06f1-75cc-4548-856d-4923ddaba0dc""}","https://test12345.live/?num_scrambled_semantic=8&num_scrambled_causal=4&num_scrambled_schematic=4&participantId=1821F336D9EA49FE815252461275C2D2&assignmentId=09dfd8f9-c276-4f13-a8fb-5472b1752fef&projectId=051c06f1-75cc-4548-856d-4923ddaba0dc","1821F336D9EA49FE815252461275C2D2-2025-05-15-19-10-17","","3049","","images/instructions/movie_1.png","0","",""
"","","","","","image-button-response","11","118695","0.0-6.0-1.0-2.0","1821F336D9EA49FE815252461275C2D2","1821F336D9EA49FE815252461275C2D2","09dfd8f9-c276-4f13-a8fb-5472b1752fef","051c06f1-75cc-4548-856d-4923ddaba0dc","{""num_scrambled_semantic"":""8"",""num_scrambled_causal"":""4"",""num_scrambled_schematic"":""4"",""participantId"":""1821F336D9EA49FE815252461275C2D2"",""assignmentId"":""09dfd8f9-c276-4f13-a8fb-5472b1752fef"",""projectId"":""051c06f1-75cc-4548-856d-4923ddaba0dc""}","https://test12345.live/?num_scrambled_semantic=8&num_scrambled_causal=4&num_scrambled_schematic=4&participantId=1821F336D9EA49FE815252461275C2D2&assignmentId=09dfd8f9-c276-4f13-a8fb-5472b1752fef&projectId=051c06f1-75cc-4548-856d-4923ddaba0dc","1821F336D9EA49FE815252461275C2D2-2025-05-15-19-10-17","","null","","[]","null","",""
"","","","","","image-button-response","12","123199","0.0-6.0-1.0-0.1","1821F336D9EA49FE815252461275C2D2","1821F336D9EA49FE815252461275C2D2","09dfd8f9-c276-4f13-a8fb-5472b1752fef","051c06f1-75cc-4548-856d-4923ddaba0dc","{""num_scrambled_semantic"":""8"",""num_scrambled_causal"":""4"",""num_scrambled_schematic"":""4"",""participantId"":""1821F336D9EA49FE815252461275C2D2"",""assignmentId"":""09dfd8f9-c276-4f13-a8fb-5472b1752fef"",""projectId"":""051c06f1-75cc-4548-856d-4923ddaba0dc""}","https://test12345.live/?num_scrambled_semantic=8&num_scrambled_causal=4&num_scrambled_schematic=4&participantId=1821F336D9EA49FE815252461275C2D2&assignmentId=09dfd8f9-c276-4f13-a8fb-5472b1752fef&projectId=051c06f1-75cc-4548-856d-4923ddaba0dc","1821F336D9EA49FE815252461275C2D2-2025-05-15-19-10-17","","null","","images/instructions/movie_2.png","null","",""
"","","","","","image-button-response","13","125223","0.0-6.0-1.0-1.1","1821F336D9EA49FE815252461275C2D2","1821F336D9EA49FE815252461275C2D2","09dfd8f9-c276-4f13-a8fb-5472b1752fef","051c06f1-75cc-4548-856d-4923ddaba0dc","{""num_scrambled_semantic"":""8"",""num_scrambled_causal"":""4"",""num_scrambled_schematic"":""4"",""participantId"":""1821F336D9EA49FE815252461275C2D2"",""assignmentId"":""09dfd8f9-c276-4f13-a8fb-5472b1752fef"",""projectId"":""051c06f1-75cc-4548-856d-4923ddaba0dc""}","https://test12345.live/?num_scrambled_semantic=8&num_scrambled_causal=4&num_scrambled_schematic=4&participantId=1821F336D9EA49FE815252461275C2D2&assignmentId=09dfd8f9-c276-4f13-a8fb-5472b1752fef&projectId=051c06f1-75cc-4548-856d-4923ddaba0dc","1821F336D9EA49FE815252461275C2D2-2025-05-15-19-10-17","","2021","","images/instructions/movie_2.png","0","",""
"","","","","","image-button-response","14","127028","0.0-6.0-1.0-2.1","1821F336D9EA49FE815252461275C2D2","1821F336D9EA49FE815252461275C2D2","09dfd8f9-c276-4f13-a8fb-5472b1752fef","051c06f1-75cc-4548-856d-4923ddaba0dc","{""num_scrambled_semantic"":""8"",""num_scrambled_causal"":""4"",""num_scrambled_schematic"":""4"",""participantId"":""1821F336D9EA49FE815252461275C2D2"",""assignmentId"":""09dfd8f9-c276-4f13-a8fb-5472b1752fef"",""projectId"":""051c06f1-75cc-4548-856d-4923ddaba0dc""}","https://test12345.live/?num_scrambled_semantic=8&num_scrambled_causal=4&num_scrambled_schematic=4&participantId=1821F336D9EA49FE815252461275C2D2&assignmentId=09dfd8f9-c276-4f13-a8fb-5472b1752fef&projectId=051c06f1-75cc-4548-856d-4923ddaba0dc","1821F336D9EA49FE815252461275C2D2-2025-05-15-19-10-17","","null","","[]","null","",""
"","","","","","image-button-response","15","131532","0.0-6.0-1.0-0.2","1821F336D9EA49FE815252461275C2D2","1821F336D9EA49FE815252461275C2D2","09dfd8f9-c276-4f13-a8fb-5472b1752fef","051c06f1-75cc-4548-856d-4923ddaba0dc","{""num_scrambled_semantic"":""8"",""num_scrambled_causal"":""4"",""num_scrambled_schematic"":""4"",""participantId"":""1821F336D9EA49FE815252461275C2D2"",""assignmentId"":""09dfd8f9-c276-4f13-a8fb-5472b1752fef"",""projectId"":""051c06f1-75cc-4548-856d-4923ddaba0dc""}","https://test12345.live/?num_scrambled_semantic=8&num_scrambled_causal=4&num_scrambled_schematic=4&participantId=1821F336D9EA49FE815252461275C2D2&assignmentId=09dfd8f9-c276-4f13-a8fb-5472b1752fef&projectId=051c06f1-75cc-4548-856d-4923ddaba0dc","1821F336D9EA49FE815252461275C2D2-2025-05-15-19-10-17","","null","","images/instructions/movie_3.png","null","",""
"","","","","","image-button-response","16","132757","0.0-6.0-1.0-1.2","1821F336D9EA49FE815252461275C2D2","1821F336D9EA49FE815252461275C2D2","09dfd8f9-c276-4f13-a8fb-5472b1752fef","051c06f1-75cc-4548-856d-4923ddaba0dc","{""num_scrambled_semantic"":""8"",""num_scrambled_causal"":""4"",""num_scrambled_schematic"":""4"",""participantId"":""1821F336D9EA49FE815252461275C2D2"",""assignmentId"":""09dfd8f9-c276-4f13-a8fb-5472b1752fef"",""projectId"":""051c06f1-75cc-4548-856d-4923ddaba0dc""}","https://test12345.live/?num_scrambled_semantic=8&num_scrambled_causal=4&num_scrambled_schematic=4&participantId=1821F336D9EA49FE815252461275C2D2&assignmentId=09dfd8f9-c276-4f13-a8fb-5472b1752fef&projectId=051c06f1-75cc-4548-856d-4923ddaba0dc","1821F336D9EA49FE815252461275C2D2-2025-05-15-19-10-17","","1222","","images/instructions/movie_3.png","0","",""
"","","","","","image-button-response","17","134562","0.0-6.0-1.0-2.2","1821F336D9EA49FE815252461275C2D2","1821F336D9EA49FE815252461275C2D2","09dfd8f9-c276-4f13-a8fb-5472b1752fef","051c06f1-75cc-4548-856d-4923ddaba0dc","{""num_scrambled_semantic"":""8"",""num_scrambled_causal"":""4"",""num_scrambled_schematic"":""4"",""participantId"":""1821F336D9EA49FE815252461275C2D2"",""assignmentId"":""09dfd8f9-c276-4f13-a8fb-5472b1752fef"",""projectId"":""051c06f1-75cc-4548-856d-4923ddaba0dc""}","https://test12345.live/?num_scrambled_semantic=8&num_scrambled_causal=4&num_scrambled_schematic=4&participantId=1821F336D9EA49FE815252461275C2D2&assignmentId=09dfd8f9-c276-4f13-a8fb-5472b1752fef&projectId=051c06f1-75cc-4548-856d-4923ddaba0dc","1821F336D9EA49FE815252461275C2D2-2025-05-15-19-10-17","","null","","[]","null","",""
"","","","","","image-button-response","18","139069","0.0-6.0-1.0-0.3","1821F336D9EA49FE815252461275C2D2","1821F336D9EA49FE815252461275C2D2","09dfd8f9-c276-4f13-a8fb-5472b1752fef","051c06f1-75cc-4548-856d-4923ddaba0dc","{""num_scrambled_semantic"":""8"",""num_scrambled_causal"":""4"",""num_scrambled_schematic"":""4"",""participantId"":""1821F336D9EA49FE815252461275C2D2"",""assignmentId"":""09dfd8f9-c276-4f13-a8fb-5472b1752fef"",""projectId"":""051c06f1-75cc-4548-856d-4923ddaba0dc""}","https://test12345.live/?num_scrambled_semantic=8&num_scrambled_causal=4&num_scrambled_schematic=4&participantId=1821F336D9EA49FE815252461275C2D2&assignmentId=09dfd8f9-c276-4f13-a8fb-5472b1752fef&projectId=051c06f1-75cc-4548-856d-4923ddaba0dc","1821F336D9EA49FE815252461275C2D2-2025-05-15-19-10-17","","null","","images/instructions/movie_4.png","null","",""
"","","","","","image-button-response","19","140091","0.0-6.0-1.0-1.3","1821F336D9EA49FE815252461275C2D2","1821F336D9EA49FE815252461275C2D2","09dfd8f9-c276-4f13-a8fb-5472b1752fef","051c06f1-75cc-4548-856d-4923ddaba0dc","{""num_scrambled_semantic"":""8"",""num_scrambled_causal"":""4"",""num_scrambled_schematic"":""4"",""participantId"":""1821F336D9EA49FE815252461275C2D2"",""assignmentId"":""09dfd8f9-c276-4f13-a8fb-5472b1752fef"",""projectId"":""051c06f1-75cc-4548-856d-4923ddaba0dc""}","https://test12345.live/?num_scrambled_semantic=8&num_scrambled_causal=4&num_scrambled_schematic=4&participantId=1821F336D9EA49FE815252461275C2D2&assignmentId=09dfd8f9-c276-4f13-a8fb-5472b1752fef&projectId=051c06f1-75cc-4548-856d-4923ddaba0dc","1821F336D9EA49FE815252461275C2D2-2025-05-15-19-10-17","","1019","","images/instructions/movie_4.png","0","",""
"","","","","","image-button-response","20","141898","0.0-6.0-1.0-2.3","1821F336D9EA49FE815252461275C2D2","1821F336D9EA49FE815252461275C2D2","09dfd8f9-c276-4f13-a8fb-5472b1752fef","051c06f1-75cc-4548-856d-4923ddaba0dc","{""num_scrambled_semantic"":""8"",""num_scrambled_causal"":""4"",""num_scrambled_schematic"":""4"",""participantId"":""1821F336D9EA49FE815252461275C2D2"",""assignmentId"":""09dfd8f9-c276-4f13-a8fb-5472b1752fef"",""projectId"":""051c06f1-75cc-4548-856d-4923ddaba0dc""}","https://test12345.live/?num_scrambled_semantic=8&num_scrambled_causal=4&num_scrambled_schematic=4&participantId=1821F336D9EA49FE815252461275C2D2&assignmentId=09dfd8f9-c276-4f13-a8fb-5472b1752fef&projectId=051c06f1-75cc-4548-856d-4923ddaba0dc","1821F336D9EA49FE815252461275C2D2-2025-05-15-19-10-17","","null","","[]","null","",""
"","","","","","instructions","21","150072","0.0-7.0","1821F336D9EA49FE815252461275C2D2","1821F336D9EA49FE815252461275C2D2","09dfd8f9-c276-4f13-a8fb-5472b1752fef","051c06f1-75cc-4548-856d-4923ddaba0dc","{""num_scrambled_semantic"":""8"",""num_scrambled_causal"":""4"",""num_scrambled_schematic"":""4"",""participantId"":""1821F336D9EA49FE815252461275C2D2"",""assignmentId"":""09dfd8f9-c276-4f13-a8fb-5472b1752fef"",""projectId"":""051c06f1-75cc-4548-856d-4923ddaba0dc""}","https://test12345.live/?num_scrambled_semantic=8&num_scrambled_causal=4&num_scrambled_schematic=4&participantId=1821F336D9EA49FE815252461275C2D2&assignmentId=09dfd8f9-c276-4f13-a8fb-5472b1752fef&projectId=051c06f1-75cc-4548-856d-4923ddaba0dc","1821F336D9EA49FE815252461275C2D2-2025-05-15-19-10-17","[{""page_index"":0,""viewing_time"":4891},{""page_index"":1,""viewing_time"":3282}]","8173","","","","",""
"","","","","","html-audio-response","22","172558","0.0-8.0","1821F336D9EA49FE815252461275C2D2","1821F336D9EA49FE815252461275C2D2","09dfd8f9-c276-4f13-a8fb-5472b1752fef","051c06f1-75cc-4548-856d-4923ddaba0dc","{""num_scrambled_semantic"":""8"",""num_scrambled_causal"":""4"",""num_scrambled_schematic"":""4"",""participantId"":""1821F336D9EA49FE815252461275C2D2"",""assignmentId"":""09dfd8f9-c276-4f13-a8fb-5472b1752fef"",""projectId"":""051c06f1-75cc-4548-856d-4923ddaba0dc""}","https://test12345.live/?num_scrambled_semantic=8&num_scrambled_causal=4&num_scrambled_schematic=4&participantId=1821F336D9EA49FE815252461275C2D2&assignmentId=09dfd8f9-c276-4f13-a8fb-5472b1752fef&projectId=051c06f1-75cc-4548-856d-4923ddaba0dc","1821F336D9EA49FE815252461275C2D2-2025-05-15-19-10-17","","12286","","[""<span style=\""color: red; font-size: 24px\""> NOW RECORDING</span><p>Please say out loud all the images you saw, as many as you can remember. The images can be said in any order.</p>""]","","3",""
"","","","","","instructions","23","174790","0.0-9.0","1821F336D9EA49FE815252461275C2D2","1821F336D9EA49FE815252461275C2D2","09dfd8f9-c276-4f13-a8fb-5472b1752fef","051c06f1-75cc-4548-856d-4923ddaba0dc","{""num_scrambled_semantic"":""8"",""num_scrambled_causal"":""4"",""num_scrambled_schematic"":""4"",""participantId"":""1821F336D9EA49FE815252461275C2D2"",""assignmentId"":""09dfd8f9-c276-4f13-a8fb-5472b1752fef"",""projectId"":""051c06f1-75cc-4548-856d-4923ddaba0dc""}","https://test12345.live/?num_scrambled_semantic=8&num_scrambled_causal=4&num_scrambled_schematic=4&participantId=1821F336D9EA49FE815252461275C2D2&assignmentId=09dfd8f9-c276-4f13-a8fb-5472b1752fef&projectId=051c06f1-75cc-4548-856d-4923ddaba0dc","1821F336D9EA49FE815252461275C2D2-2025-05-15-19-10-17","[{""page_index"":0,""viewing_time"":2228}]","2228","","","","",""
"","","","","","image-button-response","24","180794","0.0-10.0-0.0","1821F336D9EA49FE815252461275C2D2","1821F336D9EA49FE815252461275C2D2","09dfd8f9-c276-4f13-a8fb-5472b1752fef","051c06f1-75cc-4548-856d-4923ddaba0dc","{""num_scrambled_semantic"":""8"",""num_scrambled_causal"":""4"",""num_scrambled_schematic"":""4"",""participantId"":""1821F336D9EA49FE815252461275C2D2"",""assignmentId"":""09dfd8f9-c276-4f13-a8fb-5472b1752fef"",""projectId"":""051c06f1-75cc-4548-856d-4923ddaba0dc""}","https://test12345.live/?num_scrambled_semantic=8&num_scrambled_causal=4&num_scrambled_schematic=4&participantId=1821F336D9EA49FE815252461275C2D2&assignmentId=09dfd8f9-c276-4f13-a8fb-5472b1752fef&projectId=051c06f1-75cc-4548-856d-4923ddaba0dc","1821F336D9EA49FE815252461275C2D2-2025-05-15-19-10-17","","null","","images/schematic_sequence/interview_scheme/interview_scheme_0.png","null","",""
"","","","","","image-button-response","25","185299","0.0-10.0-1.0-0.0","1821F336D9EA49FE815252461275C2D2","1821F336D9EA49FE815252461275C2D2","09dfd8f9-c276-4f13-a8fb-5472b1752fef","051c06f1-75cc-4548-856d-4923ddaba0dc","{""num_scrambled_semantic"":""8"",""num_scrambled_causal"":""4"",""num_scrambled_schematic"":""4"",""participantId"":""1821F336D9EA49FE815252461275C2D2"",""assignmentId"":""09dfd8f9-c276-4f13-a8fb-5472b1752fef"",""projectId"":""051c06f1-75cc-4548-856d-4923ddaba0dc""}","https://test12345.live/?num_scrambled_semantic=8&num_scrambled_causal=4&num_scrambled_schematic=4&participantId=1821F336D9EA49FE815252461275C2D2&assignmentId=09dfd8f9-c276-4f13-a8fb-5472b1752fef&projectId=051c06f1-75cc-4548-856d-4923ddaba0dc","1821F336D9EA49FE815252461275C2D2-2025-05-15-19-10-17","","null","","images/schematic_sequence/interview_scheme/interview_scheme_1.png","null","",""
"","","","","","image-button-response","26","187524","0.0-10.0-1.0-1.0","1821F336D9EA49FE815252461275C2D2","1821F336D9EA49FE815252461275C2D2","09dfd8f9-c276-4f13-a8fb-5472b1752fef","051c06f1-75cc-4548-856d-4923ddaba0dc","{""num_scrambled_semantic"":""8"",""num_scrambled_causal"":""4"",""num_scrambled_schematic"":""4"",""participantId"":""1821F336D9EA49FE815252461275C2D2"",""assignmentId"":""09dfd8f9-c276-4f13-a8fb-5472b1752fef"",""projectId"":""051c06f1-75cc-4548-856d-4923ddaba0dc""}","https://test12345.live/?num_scrambled_semantic=8&num_scrambled_causal=4&num_scrambled_schematic=4&participantId=1821F336D9EA49FE815252461275C2D2&assignmentId=09dfd8f9-c276-4f13-a8fb-5472b1752fef&projectId=051c06f1-75cc-4548-856d-4923ddaba0dc","1821F336D9EA49FE815252461275C2D2-2025-05-15-19-10-17","","2223","","images/schematic_sequence/interview_scheme/interview_scheme_1.png","1","",""
"","","","","","image-button-response","27","189329","0.0-10.0-1.0-2.0","1821F336D9EA49FE815252461275C2D2","1821F336D9EA49FE815252461275C2D2","09dfd8f9-c276-4f13-a8fb-5472b1752fef","051c06f1-75cc-4548-856d-4923ddaba0dc","{""num_scrambled_semantic"":""8"",""num_scrambled_causal"":""4"",""num_scrambled_schematic"":""4"",""participantId"":""1821F336D9EA49FE815252461275C2D2"",""assignmentId"":""09dfd8f9-c276-4f13-a8fb-5472b1752fef"",""projectId"":""051c06f1-75cc-4548-856d-4923ddaba0dc""}","https://test12345.live/?num_scrambled_semantic=8&num_scrambled_causal=4&num_scrambled_schematic=4&participantId=1821F336D9EA49FE815252461275C2D2&assignmentId=09dfd8f9-c276-4f13-a8fb-5472b1752fef&projectId=051c06f1-75cc-4548-856d-4923ddaba0dc","1821F336D9EA49FE815252461275C2D2-2025-05-15-19-10-17","","null","","[]","null","",""
"","","","","","image-button-response","28","193832","0.0-10.0-1.0-0.1","1821F336D9EA49FE815252461275C2D2","1821F336D9EA49FE815252461275C2D2","09dfd8f9-c276-4f13-a8fb-5472b1752fef","051c06f1-75cc-4548-856d-4923ddaba0dc","{""num_scrambled_semantic"":""8"",""num_scrambled_causal"":""4"",""num_scrambled_schematic"":""4"",""participantId"":""1821F336D9EA49FE815252461275C2D2"",""assignmentId"":""09dfd8f9-c276-4f13-a8fb-5472b1752fef"",""projectId"":""051c06f1-75cc-4548-856d-4923ddaba0dc""}","https://test12345.live/?num_scrambled_semantic=8&num_scrambled_causal=4&num_scrambled_schematic=4&participantId=1821F336D9EA49FE815252461275C2D2&assignmentId=09dfd8f9-c276-4f13-a8fb-5472b1752fef&projectId=051c06f1-75cc-4548-856d-4923ddaba0dc","1821F336D9EA49FE815252461275C2D2-2025-05-15-19-10-17","","null","","images/schematic_sequence/interview_scheme/interview_scheme_2.png","null","",""
"","","","","","image-button-response","29","195824","0.0-10.0-1.0-1.1","1821F336D9EA49FE815252461275C2D2","1821F336D9EA49FE815252461275C2D2","09dfd8f9-c276-4f13-a8fb-5472b1752fef","051c06f1-75cc-4548-856d-4923ddaba0dc","{""num_scrambled_semantic"":""8"",""num_scrambled_causal"":""4"",""num_scrambled_schematic"":""4"",""participantId"":""1821F336D9EA49FE815252461275C2D2"",""assignmentId"":""09dfd8f9-c276-4f13-a8fb-5472b1752fef"",""projectId"":""051c06f1-75cc-4548-856d-4923ddaba0dc""}","https://test12345.live/?num_scrambled_semantic=8&num_scrambled_causal=4&num_scrambled_schematic=4&participantId=1821F336D9EA49FE815252461275C2D2&assignmentId=09dfd8f9-c276-4f13-a8fb-5472b1752fef&projectId=051c06f1-75cc-4548-856d-4923ddaba0dc","1821F336D9EA49FE815252461275C2D2-2025-05-15-19-10-17","","1989","","images/schematic_sequence/interview_scheme/interview_scheme_2.png","1","",""
"","","","","","image-button-response","30","197631","0.0-10.0-1.0-2.1","1821F336D9EA49FE815252461275C2D2","1821F336D9EA49FE815252461275C2D2","09dfd8f9-c276-4f13-a8fb-5472b1752fef","051c06f1-75cc-4548-856d-4923ddaba0dc","{""num_scrambled_semantic"":""8"",""num_scrambled_causal"":""4"",""num_scrambled_schematic"":""4"",""participantId"":""1821F336D9EA49FE815252461275C2D2"",""assignmentId"":""09dfd8f9-c276-4f13-a8fb-5472b1752fef"",""projectId"":""051c06f1-75cc-4548-856d-4923ddaba0dc""}","https://test12345.live/?num_scrambled_semantic=8&num_scrambled_causal=4&num_scrambled_schematic=4&participantId=1821F336D9EA49FE815252461275C2D2&assignmentId=09dfd8f9-c276-4f13-a8fb-5472b1752fef&projectId=051c06f1-75cc-4548-856d-4923ddaba0dc","1821F336D9EA49FE815252461275C2D2-2025-05-15-19-10-17","","null","","[]","null","",""
"","","","","","image-button-response","31","202139","0.0-10.0-1.0-0.2","1821F336D9EA49FE815252461275C2D2","1821F336D9EA49FE815252461275C2D2","09dfd8f9-c276-4f13-a8fb-5472b1752fef","051c06f1-75cc-4548-856d-4923ddaba0dc","{""num_scrambled_semantic"":""8"",""num_scrambled_causal"":""4"",""num_scrambled_schematic"":""4"",""participantId"":""1821F336D9EA49FE815252461275C2D2"",""assignmentId"":""09dfd8f9-c276-4f13-a8fb-5472b1752fef"",""projectId"":""051c06f1-75cc-4548-856d-4923ddaba0dc""}","https://test12345.live/?num_scrambled_semantic=8&num_scrambled_causal=4&num_scrambled_schematic=4&participantId=1821F336D9EA49FE815252461275C2D2&assignmentId=09dfd8f9-c276-4f13-a8fb-5472b1752fef&projectId=051c06f1-75cc-4548-856d-4923ddaba0dc","1821F336D9EA49FE815252461275C2D2-2025-05-15-19-10-17","","null","","images/schematic_sequence/interview_scheme/interview_scheme_3.png","null","",""
"","","","","","image-button-response","32","203356","0.0-10.0-1.0-1.2","1821F336D9EA49FE815252461275C2D2","1821F336D9EA49FE815252461275C2D2","09dfd8f9-c276-4f13-a8fb-5472b1752fef","051c06f1-75cc-4548-856d-4923ddaba0dc","{""num_scrambled_semantic"":""8"",""num_scrambled_causal"":""4"",""num_scrambled_schematic"":""4"",""participantId"":""1821F336D9EA49FE815252461275C2D2"",""assignmentId"":""09dfd8f9-c276-4f13-a8fb-5472b1752fef"",""projectId"":""051c06f1-75cc-4548-856d-4923ddaba0dc""}","https://test12345.live/?num_scrambled_semantic=8&num_scrambled_causal=4&num_scrambled_schematic=4&participantId=1821F336D9EA49FE815252461275C2D2&assignmentId=09dfd8f9-c276-4f13-a8fb-5472b1752fef&projectId=051c06f1-75cc-4548-856d-4923ddaba0dc","1821F336D9EA49FE815252461275C2D2-2025-05-15-19-10-17","","1215","","images/schematic_sequence/interview_scheme/interview_scheme_3.png","1","",""
"","","","","","image-button-response","33","205160","0.0-10.0-1.0-2.2","1821F336D9EA49FE815252461275C2D2","1821F336D9EA49FE815252461275C2D2","09dfd8f9-c276-4f13-a8fb-5472b1752fef","051c06f1-75cc-4548-856d-4923ddaba0dc","{""num_scrambled_semantic"":""8"",""num_scrambled_causal"":""4"",""num_scrambled_schematic"":""4"",""participantId"":""1821F336D9EA49FE815252461275C2D2"",""assignmentId"":""09dfd8f9-c276-4f13-a8fb-5472b1752fef"",""projectId"":""051c06f1-75cc-4548-856d-4923ddaba0dc""}","https://test12345.live/?num_scrambled_semantic=8&num_scrambled_causal=4&num_scrambled_schematic=4&participantId=1821F336D9EA49FE815252461275C2D2&assignmentId=09dfd8f9-c276-4f13-a8fb-5472b1752fef&projectId=051c06f1-75cc-4548-856d-4923ddaba0dc","1821F336D9EA49FE815252461275C2D2-2025-05-15-19-10-17","","null","","[]","null","",""
"","","","","","image-button-response","34","209667","0.0-10.0-1.0-0.3","1821F336D9EA49FE815252461275C2D2","1821F336D9EA49FE815252461275C2D2","09dfd8f9-c276-4f13-a8fb-5472b1752fef","051c06f1-75cc-4548-856d-4923ddaba0dc","{""num_scrambled_semantic"":""8"",""num_scrambled_causal"":""4"",""num_scrambled_schematic"":""4"",""participantId"":""1821F336D9EA49FE815252461275C2D2"",""assignmentId"":""09dfd8f9-c276-4f13-a8fb-5472b1752fef"",""projectId"":""051c06f1-75cc-4548-856d-4923ddaba0dc""}","https://test12345.live/?num_scrambled_semantic=8&num_scrambled_causal=4&num_scrambled_schematic=4&participantId=1821F336D9EA49FE815252461275C2D2&assignmentId=09dfd8f9-c276-4f13-a8fb-5472b1752fef&projectId=051c06f1-75cc-4548-856d-4923ddaba0dc","1821F336D9EA49FE815252461275C2D2-2025-05-15-19-10-17","","null","","images/schematic_sequence/interview_scheme/interview_scheme_4.png","null","",""
"","","","","","image-button-response","35","211641","0.0-10.0-1.0-1.3","1821F336D9EA49FE815252461275C2D2","1821F336D9EA49FE815252461275C2D2","09dfd8f9-c276-4f13-a8fb-5472b1752fef","051c06f1-75cc-4548-856d-4923ddaba0dc","{""num_scrambled_semantic"":""8"",""num_scrambled_causal"":""4"",""num_scrambled_schematic"":""4"",""participantId"":""1821F336D9EA49FE815252461275C2D2"",""assignmentId"":""09dfd8f9-c276-4f13-a8fb-5472b1752fef"",""projectId"":""051c06f1-75cc-4548-856d-4923ddaba0dc""}","https://test12345.live/?num_scrambled_semantic=8&num_scrambled_causal=4&num_scrambled_schematic=4&participantId=1821F336D9EA49FE815252461275C2D2&assignmentId=09dfd8f9-c276-4f13-a8fb-5472b1752fef&projectId=051c06f1-75cc-4548-856d-4923ddaba0dc","1821F336D9EA49FE815252461275C2D2-2025-05-15-19-10-17","","1972","","images/schematic_sequence/interview_scheme/interview_scheme_4.png","1","",""
"","","","","","image-button-response","36","213444","0.0-10.0-1.0-2.3","1821F336D9EA49FE815252461275C2D2","1821F336D9EA49FE815252461275C2D2","09dfd8f9-c276-4f13-a8fb-5472b1752fef","051c06f1-75cc-4548-856d-4923ddaba0dc","{""num_scrambled_semantic"":""8"",""num_scrambled_causal"":""4"",""num_scrambled_schematic"":""4"",""participantId"":""1821F336D9EA49FE815252461275C2D2"",""assignmentId"":""09dfd8f9-c276-4f13-a8fb-5472b1752fef"",""projectId"":""051c06f1-75cc-4548-856d-4923ddaba0dc""}","https://test12345.live/?num_scrambled_semantic=8&num_scrambled_causal=4&num_scrambled_schematic=4&participantId=1821F336D9EA49FE815252461275C2D2&assignmentId=09dfd8f9-c276-4f13-a8fb-5472b1752fef&projectId=051c06f1-75cc-4548-856d-4923ddaba0dc","1821F336D9EA49FE815252461275C2D2-2025-05-15-19-10-17","","null","","[]","null","",""
"","","","","","image-button-response","37","217952","0.0-10.0-1.0-0.4","1821F336D9EA49FE815252461275C2D2","1821F336D9EA49FE815252461275C2D2","09dfd8f9-c276-4f13-a8fb-5472b1752fef","051c06f1-75cc-4548-856d-4923ddaba0dc","{""num_scrambled_semantic"":""8"",""num_scrambled_causal"":""4"",""num_scrambled_schematic"":""4"",""participantId"":""1821F336D9EA49FE815252461275C2D2"",""assignmentId"":""09dfd8f9-c276-4f13-a8fb-5472b1752fef"",""projectId"":""051c06f1-75cc-4548-856d-4923ddaba0dc""}","https://test12345.live/?num_scrambled_semantic=8&num_scrambled_causal=4&num_scrambled_schematic=4&participantId=1821F336D9EA49FE815252461275C2D2&assignmentId=09dfd8f9-c276-4f13-a8fb-5472b1752fef&projectId=051c06f1-75cc-4548-856d-4923ddaba0dc","1821F336D9EA49FE815252461275C2D2-2025-05-15-19-10-17","","null","","images/schematic_sequence/interview_scheme/interview_scheme_5.png","null","",""
"","","","","","image-button-response","38","221956","0.0-10.0-1.0-1.4","1821F336D9EA49FE815252461275C2D2","1821F336D9EA49FE815252461275C2D2","09dfd8f9-c276-4f13-a8fb-5472b1752fef","051c06f1-75cc-4548-856d-4923ddaba0dc","{""num_scrambled_semantic"":""8"",""num_scrambled_causal"":""4"",""num_scrambled_schematic"":""4"",""participantId"":""1821F336D9EA49FE815252461275C2D2"",""assignmentId"":""09dfd8f9-c276-4f13-a8fb-5472b1752fef"",""projectId"":""051c06f1-75cc-4548-856d-4923ddaba0dc""}","https://test12345.live/?num_scrambled_semantic=8&num_scrambled_causal=4&num_scrambled_schematic=4&participantId=1821F336D9EA49FE815252461275C2D2&assignmentId=09dfd8f9-c276-4f13-a8fb-5472b1752fef&projectId=051c06f1-75cc-4548-856d-4923ddaba0dc","1821F336D9EA49FE815252461275C2D2-2025-05-15-19-10-17","","null","","images/schematic_sequence/interview_scheme/interview_scheme_5.png","null","",""
"","","","","","image-button-response","39","223759","0.0-10.0-1.0-2.4","1821F336D9EA49FE815252461275C2D2","1821F336D9EA49FE815252461275C2D2","09dfd8f9-c276-4f13-a8fb-5472b1752fef","051c06f1-75cc-4548-856d-4923ddaba0dc","{""num_scrambled_semantic"":""8"",""num_scrambled_causal"":""4"",""num_scrambled_schematic"":""4"",""participantId"":""1821F336D9EA49FE815252461275C2D2"",""assignmentId"":""09dfd8f9-c276-4f13-a8fb-5472b1752fef"",""projectId"":""051c06f1-75cc-4548-856d-4923ddaba0dc""}","https://test12345.live/?num_scrambled_semantic=8&num_scrambled_causal=4&num_scrambled_schematic=4&participantId=1821F336D9EA49FE815252461275C2D2&assignmentId=09dfd8f9-c276-4f13-a8fb-5472b1752fef&projectId=051c06f1-75cc-4548-856d-4923ddaba0dc","1821F336D9EA49FE815252461275C2D2-2025-05-15-19-10-17","","null","","[]","null","",""
"","","","","","image-button-response","40","228264","0.0-10.0-1.0-0.5","1821F336D9EA49FE815252461275C2D2","1821F336D9EA49FE815252461275C2D2","09dfd8f9-c276-4f13-a8fb-5472b1752fef","051c06f1-75cc-4548-856d-4923ddaba0dc","{""num_scrambled_semantic"":""8"",""num_scrambled_causal"":""4"",""num_scrambled_schematic"":""4"",""participantId"":""1821F336D9EA49FE815252461275C2D2"",""assignmentId"":""09dfd8f9-c276-4f13-a8fb-5472b1752fef"",""projectId"":""051c06f1-75cc-4548-856d-4923ddaba0dc""}","https://test12345.live/?num_scrambled_semantic=8&num_scrambled_causal=4&num_scrambled_schematic=4&participantId=1821F336D9EA49FE815252461275C2D2&assignmentId=09dfd8f9-c276-4f13-a8fb-5472b1752fef&projectId=051c06f1-75cc-4548-856d-4923ddaba0dc","1821F336D9EA49FE815252461275C2D2-2025-05-15-19-10-17","","null","","images/schematic_sequence/interview_scheme/interview_scheme_6.png","null","",""
"","","","","","image-button-response","41","229474","0.0-10.0-1.0-1.5","1821F336D9EA49FE815252461275C2D2","1821F336D9EA49FE815252461275C2D2","09dfd8f9-c276-4f13-a8fb-5472b1752fef","051c06f1-75cc-4548-856d-4923ddaba0dc","{""num_scrambled_semantic"":""8"",""num_scrambled_causal"":""4"",""num_scrambled_schematic"":""4"",""participantId"":""1821F336D9EA49FE815252461275C2D2"",""assignmentId"":""09dfd8f9-c276-4f13-a8fb-5472b1752fef"",""projectId"":""051c06f1-75cc-4548-856d-4923ddaba0dc""}","https://test12345.live/?num_scrambled_semantic=8&num_scrambled_causal=4&num_scrambled_schematic=4&participantId=1821F336D9EA49FE815252461275C2D2&assignmentId=09dfd8f9-c276-4f13-a8fb-5472b1752fef&projectId=051c06f1-75cc-4548-856d-4923ddaba0dc","1821F336D9EA49FE815252461275C2D2-2025-05-15-19-10-17","","1207","","images/schematic_sequence/interview_scheme/interview_scheme_6.png","0","",""
"","","","","","image-button-response","42","231276","0.0-10.0-1.0-2.5","1821F336D9EA49FE815252461275C2D2","1821F336D9EA49FE815252461275C2D2","09dfd8f9-c276-4f13-a8fb-5472b1752fef","051c06f1-75cc-4548-856d-4923ddaba0dc","{""num_scrambled_semantic"":""8"",""num_scrambled_causal"":""4"",""num_scrambled_schematic"":""4"",""participantId"":""1821F336D9EA49FE815252461275C2D2"",""assignmentId"":""09dfd8f9-c276-4f13-a8fb-5472b1752fef"",""projectId"":""051c06f1-75cc-4548-856d-4923ddaba0dc""}","https://test12345.live/?num_scrambled_semantic=8&num_scrambled_causal=4&num_scrambled_schematic=4&participantId=1821F336D9EA49FE815252461275C2D2&assignmentId=09dfd8f9-c276-4f13-a8fb-5472b1752fef&projectId=051c06f1-75cc-4548-856d-4923ddaba0dc","1821F336D9EA49FE815252461275C2D2-2025-05-15-19-10-17","","null","","[]","null","",""
"","","","","","image-button-response","43","235779","0.0-10.0-1.0-0.6","1821F336D9EA49FE815252461275C2D2","1821F336D9EA49FE815252461275C2D2","09dfd8f9-c276-4f13-a8fb-5472b1752fef","051c06f1-75cc-4548-856d-4923ddaba0dc","{""num_scrambled_semantic"":""8"",""num_scrambled_causal"":""4"",""num_scrambled_schematic"":""4"",""participantId"":""1821F336D9EA49FE815252461275C2D2"",""assignmentId"":""09dfd8f9-c276-4f13-a8fb-5472b1752fef"",""projectId"":""051c06f1-75cc-4548-856d-4923ddaba0dc""}","https://test12345.live/?num_scrambled_semantic=8&num_scrambled_causal=4&num_scrambled_schematic=4&participantId=1821F336D9EA49FE815252461275C2D2&assignmentId=09dfd8f9-c276-4f13-a8fb-5472b1752fef&projectId=051c06f1-75cc-4548-856d-4923ddaba0dc","1821F336D9EA49FE815252461275C2D2-2025-05-15-19-10-17","","null","","images/schematic_sequence/interview_scheme/interview_scheme_7.png","null","",""
"","","","","","image-button-response","44","236508","0.0-10.0-1.0-1.6","1821F336D9EA49FE815252461275C2D2","1821F336D9EA49FE815252461275C2D2","09dfd8f9-c276-4f13-a8fb-5472b1752fef","051c06f1-75cc-4548-856d-4923ddaba0dc","{""num_scrambled_semantic"":""8"",""num_scrambled_causal"":""4"",""num_scrambled_schematic"":""4"",""participantId"":""1821F336D9EA49FE815252461275C2D2"",""assignmentId"":""09dfd8f9-c276-4f13-a8fb-5472b1752fef"",""projectId"":""051c06f1-75cc-4548-856d-4923ddaba0dc""}","https://test12345.live/?num_scrambled_semantic=8&num_scrambled_causal=4&num_scrambled_schematic=4&participantId=1821F336D9EA49FE815252461275C2D2&assignmentId=09dfd8f9-c276-4f13-a8fb-5472b1752fef&projectId=051c06f1-75cc-4548-856d-4923ddaba0dc","1821F336D9EA49FE815252461275C2D2-2025-05-15-19-10-17","","726","","images/schematic_sequence/interview_scheme/interview_scheme_7.png","0","",""
"","","","","","image-button-response","45","238315","0.0-10.0-1.0-2.6","1821F336D9EA49FE815252461275C2D2","1821F336D9EA49FE815252461275C2D2","09dfd8f9-c276-4f13-a8fb-5472b1752fef","051c06f1-75cc-4548-856d-4923ddaba0dc","{""num_scrambled_semantic"":""8"",""num_scrambled_causal"":""4"",""num_scrambled_schematic"":""4"",""participantId"":""1821F336D9EA49FE815252461275C2D2"",""assignmentId"":""09dfd8f9-c276-4f13-a8fb-5472b1752fef"",""projectId"":""051c06f1-75cc-4548-856d-4923ddaba0dc""}","https://test12345.live/?num_scrambled_semantic=8&num_scrambled_causal=4&num_scrambled_schematic=4&participantId=1821F336D9EA49FE815252461275C2D2&assignmentId=09dfd8f9-c276-4f13-a8fb-5472b1752fef&projectId=051c06f1-75cc-4548-856d-4923ddaba0dc","1821F336D9EA49FE815252461275C2D2-2025-05-15-19-10-17","","null","","[]","null","",""
"","","","","","image-button-response","46","242820","0.0-10.0-1.0-0.7","1821F336D9EA49FE815252461275C2D2","1821F336D9EA49FE815252461275C2D2","09dfd8f9-c276-4f13-a8fb-5472b1752fef","051c06f1-75cc-4548-856d-4923ddaba0dc","{""num_scrambled_semantic"":""8"",""num_scrambled_causal"":""4"",""num_scrambled_schematic"":""4"",""participantId"":""1821F336D9EA49FE815252461275C2D2"",""assignmentId"":""09dfd8f9-c276-4f13-a8fb-5472b1752fef"",""projectId"":""051c06f1-75cc-4548-856d-4923ddaba0dc""}","https://test12345.live/?num_scrambled_semantic=8&num_scrambled_causal=4&num_scrambled_schematic=4&participantId=1821F336D9EA49FE815252461275C2D2&assignmentId=09dfd8f9-c276-4f13-a8fb-5472b1752fef&projectId=051c06f1-75cc-4548-856d-4923ddaba0dc","1821F336D9EA49FE815252461275C2D2-2025-05-15-19-10-17","","null","","images/schematic_sequence/interview_scheme/interview_scheme_8.png","null","",""
"","","","","","image-button-response","47","243608","0.0-10.0-1.0-1.7","1821F336D9EA49FE815252461275C2D2","1821F336D9EA49FE815252461275C2D2","09dfd8f9-c276-4f13-a8fb-5472b1752fef","051c06f1-75cc-4548-856d-4923ddaba0dc","{""num_scrambled_semantic"":""8"",""num_scrambled_causal"":""4"",""num_scrambled_schematic"":""4"",""participantId"":""1821F336D9EA49FE815252461275C2D2"",""assignmentId"":""09dfd8f9-c276-4f13-a8fb-5472b1752fef"",""projectId"":""051c06f1-75cc-4548-856d-4923ddaba0dc""}","https://test12345.live/?num_scrambled_semantic=8&num_scrambled_causal=4&num_scrambled_schematic=4&participantId=1821F336D9EA49FE815252461275C2D2&assignmentId=09dfd8f9-c276-4f13-a8fb-5472b1752fef&projectId=051c06f1-75cc-4548-856d-4923ddaba0dc","1821F336D9EA49FE815252461275C2D2-2025-05-15-19-10-17","","786","","images/schematic_sequence/interview_scheme/interview_scheme_8.png","0","",""
"","","","","","image-button-response","48","245415","0.0-10.0-1.0-2.7","1821F336D9EA49FE815252461275C2D2","1821F336D9EA49FE815252461275C2D2","09dfd8f9-c276-4f13-a8fb-5472b1752fef","051c06f1-75cc-4548-856d-4923ddaba0dc","{""num_scrambled_semantic"":""8"",""num_scrambled_causal"":""4"",""num_scrambled_schematic"":""4"",""participantId"":""1821F336D9EA49FE815252461275C2D2"",""assignmentId"":""09dfd8f9-c276-4f13-a8fb-5472b1752fef"",""projectId"":""051c06f1-75cc-4548-856d-4923ddaba0dc""}","https://test12345.live/?num_scrambled_semantic=8&num_scrambled_causal=4&num_scrambled_schematic=4&participantId=1821F336D9EA49FE815252461275C2D2&assignmentId=09dfd8f9-c276-4f13-a8fb-5472b1752fef&projectId=051c06f1-75cc-4548-856d-4923ddaba0dc","1821F336D9EA49FE815252461275C2D2-2025-05-15-19-10-17","","null","","[]","null","",""
"","","","","","image-button-response","49","249919","0.0-10.0-1.0-0.8","1821F336D9EA49FE815252461275C2D2","1821F336D9EA49FE815252461275C2D2","09dfd8f9-c276-4f13-a8fb-5472b1752fef","051c06f1-75cc-4548-856d-4923ddaba0dc","{""num_scrambled_semantic"":""8"",""num_scrambled_causal"":""4"",""num_scrambled_schematic"":""4"",""participantId"":""1821F336D9EA49FE815252461275C2D2"",""assignmentId"":""09dfd8f9-c276-4f13-a8fb-5472b1752fef"",""projectId"":""051c06f1-75cc-4548-856d-4923ddaba0dc""}","https://test12345.live/?num_scrambled_semantic=8&num_scrambled_causal=4&num_scrambled_schematic=4&participantId=1821F336D9EA49FE815252461275C2D2&assignmentId=09dfd8f9-c276-4f13-a8fb-5472b1752fef&projectId=051c06f1-75cc-4548-856d-4923ddaba0dc","1821F336D9EA49FE815252461275C2D2-2025-05-15-19-10-17","","null","","images/schematic_sequence/interview_scheme/interview_scheme_9.png","null","",""
"","","","","","image-button-response","50","250624","0.0-10.0-1.0-1.8","1821F336D9EA49FE815252461275C2D2","1821F336D9EA49FE815252461275C2D2","09dfd8f9-c276-4f13-a8fb-5472b1752fef","051c06f1-75cc-4548-856d-4923ddaba0dc","{""num_scrambled_semantic"":""8"",""num_scrambled_causal"":""4"",""num_scrambled_schematic"":""4"",""participantId"":""1821F336D9EA49FE815252461275C2D2"",""assignmentId"":""09dfd8f9-c276-4f13-a8fb-5472b1752fef"",""projectId"":""051c06f1-75cc-4548-856d-4923ddaba0dc""}","https://test12345.live/?num_scrambled_semantic=8&num_scrambled_causal=4&num_scrambled_schematic=4&participantId=1821F336D9EA49FE815252461275C2D2&assignmentId=09dfd8f9-c276-4f13-a8fb-5472b1752fef&projectId=051c06f1-75cc-4548-856d-4923ddaba0dc","1821F336D9EA49FE815252461275C2D2-2025-05-15-19-10-17","","703","","images/schematic_sequence/interview_scheme/interview_scheme_9.png","0","",""
"","","","","","image-button-response","51","252431","0.0-10.0-1.0-2.8","1821F336D9EA49FE815252461275C2D2","1821F336D9EA49FE815252461275C2D2","09dfd8f9-c276-4f13-a8fb-5472b1752fef","051c06f1-75cc-4548-856d-4923ddaba0dc","{""num_scrambled_semantic"":""8"",""num_scrambled_causal"":""4"",""num_scrambled_schematic"":""4"",""participantId"":""1821F336D9EA49FE815252461275C2D2"",""assignmentId"":""09dfd8f9-c276-4f13-a8fb-5472b1752fef"",""projectId"":""051c06f1-75cc-4548-856d-4923ddaba0dc""}","https://test12345.live/?num_scrambled_semantic=8&num_scrambled_causal=4&num_scrambled_schematic=4&participantId=1821F336D9EA49FE815252461275C2D2&assignmentId=09dfd8f9-c276-4f13-a8fb-5472b1752fef&projectId=051c06f1-75cc-4548-856d-4923ddaba0dc","1821F336D9EA49FE815252461275C2D2-2025-05-15-19-10-17","","null","","[]","null","",""
"","","","","","image-button-response","52","256934","0.0-10.0-1.0-0.9","1821F336D9EA49FE815252461275C2D2","1821F336D9EA49FE815252461275C2D2","09dfd8f9-c276-4f13-a8fb-5472b1752fef","051c06f1-75cc-4548-856d-4923ddaba0dc","{""num_scrambled_semantic"":""8"",""num_scrambled_causal"":""4"",""num_scrambled_schematic"":""4"",""participantId"":""1821F336D9EA49FE815252461275C2D2"",""assignmentId"":""09dfd8f9-c276-4f13-a8fb-5472b1752fef"",""projectId"":""051c06f1-75cc-4548-856d-4923ddaba0dc""}","https://test12345.live/?num_scrambled_semantic=8&num_scrambled_causal=4&num_scrambled_schematic=4&participantId=1821F336D9EA49FE815252461275C2D2&assignmentId=09dfd8f9-c276-4f13-a8fb-5472b1752fef&projectId=051c06f1-75cc-4548-856d-4923ddaba0dc","1821F336D9EA49FE815252461275C2D2-2025-05-15-19-10-17","","null","","images/schematic_sequence/interview_scheme/interview_scheme_ten.png","null","",""
"","","","","","image-button-response","53","258107","0.0-10.0-1.0-1.9","1821F336D9EA49FE815252461275C2D2","1821F336D9EA49FE815252461275C2D2","09dfd8f9-c276-4f13-a8fb-5472b1752fef","051c06f1-75cc-4548-856d-4923ddaba0dc","{""num_scrambled_semantic"":""8"",""num_scrambled_causal"":""4"",""num_scrambled_schematic"":""4"",""participantId"":""1821F336D9EA49FE815252461275C2D2"",""assignmentId"":""09dfd8f9-c276-4f13-a8fb-5472b1752fef"",""projectId"":""051c06f1-75cc-4548-856d-4923ddaba0dc""}","https://test12345.live/?num_scrambled_semantic=8&num_scrambled_causal=4&num_scrambled_schematic=4&participantId=1821F336D9EA49FE815252461275C2D2&assignmentId=09dfd8f9-c276-4f13-a8fb-5472b1752fef&projectId=051c06f1-75cc-4548-856d-4923ddaba0dc","1821F336D9EA49FE815252461275C2D2-2025-05-15-19-10-17","","1171","","images/schematic_sequence/interview_scheme/interview_scheme_ten.png","0","",""
"","","","","","image-button-response","54","259914","0.0-10.0-1.0-2.9","1821F336D9EA49FE815252461275C2D2","1821F336D9EA49FE815252461275C2D2","09dfd8f9-c276-4f13-a8fb-5472b1752fef","051c06f1-75cc-4548-856d-4923ddaba0dc","{""num_scrambled_semantic"":""8"",""num_scrambled_causal"":""4"",""num_scrambled_schematic"":""4"",""participantId"":""1821F336D9EA49FE815252461275C2D2"",""assignmentId"":""09dfd8f9-c276-4f13-a8fb-5472b1752fef"",""projectId"":""051c06f1-75cc-4548-856d-4923ddaba0dc""}","https://test12345.live/?num_scrambled_semantic=8&num_scrambled_causal=4&num_scrambled_schematic=4&participantId=1821F336D9EA49FE815252461275C2D2&assignmentId=09dfd8f9-c276-4f13-a8fb-5472b1752fef&projectId=051c06f1-75cc-4548-856d-4923ddaba0dc","1821F336D9EA49FE815252461275C2D2-2025-05-15-19-10-17","","null","","[]","null","",""
"","","","","","html-audio-response","55","291991","0.0-11.0","1821F336D9EA49FE815252461275C2D2","1821F336D9EA49FE815252461275C2D2","09dfd8f9-c276-4f13-a8fb-5472b1752fef","051c06f1-75cc-4548-856d-4923ddaba0dc","{""num_scrambled_semantic"":""8"",""num_scrambled_causal"":""4"",""num_scrambled_schematic"":""4"",""participantId"":""1821F336D9EA49FE815252461275C2D2"",""assignmentId"":""09dfd8f9-c276-4f13-a8fb-5472b1752fef"",""projectId"":""051c06f1-75cc-4548-856d-4923ddaba0dc""}","https://test12345.live/?num_scrambled_semantic=8&num_scrambled_causal=4&num_scrambled_schematic=4&participantId=1821F336D9EA49FE815252461275C2D2&assignmentId=09dfd8f9-c276-4f13-a8fb-5472b1752fef&projectId=051c06f1-75cc-4548-856d-4923ddaba0dc","1821F336D9EA49FE815252461275C2D2-2025-05-15-19-10-17","","24569","","[""<span style=\""color: red; font-size: 24px\""> NOW RECORDING</span><p>Please say out loud all the images you saw, as many as you can remember. The images can be said in any order.</p>""]","","3","interview_scheme"
"","","","","","image-button-response","56","298001","0.0-12.0-0.0","1821F336D9EA49FE815252461275C2D2","1821F336D9EA49FE815252461275C2D2","09dfd8f9-c276-4f13-a8fb-5472b1752fef","051c06f1-75cc-4548-856d-4923ddaba0dc","{""num_scrambled_semantic"":""8"",""num_scrambled_causal"":""4"",""num_scrambled_schematic"":""4"",""participantId"":""1821F336D9EA49FE815252461275C2D2"",""assignmentId"":""09dfd8f9-c276-4f13-a8fb-5472b1752fef"",""projectId"":""051c06f1-75cc-4548-856d-4923ddaba0dc""}","https://test12345.live/?num_scrambled_semantic=8&num_scrambled_causal=4&num_scrambled_schematic=4&participantId=1821F336D9EA49FE815252461275C2D2&assignmentId=09dfd8f9-c276-4f13-a8fb-5472b1752fef&projectId=051c06f1-75cc-4548-856d-4923ddaba0dc","1821F336D9EA49FE815252461275C2D2-2025-05-15-19-10-17","","null","","images/semantic_sequence/market_semantic/market_semantic_0.png","null","",""
"","","","","","image-button-response","57","302509","0.0-12.0-1.0-0.0","1821F336D9EA49FE815252461275C2D2","1821F336D9EA49FE815252461275C2D2","09dfd8f9-c276-4f13-a8fb-5472b1752fef","051c06f1-75cc-4548-856d-4923ddaba0dc","{""num_scrambled_semantic"":""8"",""num_scrambled_causal"":""4"",""num_scrambled_schematic"":""4"",""participantId"":""1821F336D9EA49FE815252461275C2D2"",""assignmentId"":""09dfd8f9-c276-4f13-a8fb-5472b1752fef"",""projectId"":""051c06f1-75cc-4548-856d-4923ddaba0dc""}","https://test12345.live/?num_scrambled_semantic=8&num_scrambled_causal=4&num_scrambled_schematic=4&participantId=1821F336D9EA49FE815252461275C2D2&assignmentId=09dfd8f9-c276-4f13-a8fb-5472b1752fef&projectId=051c06f1-75cc-4548-856d-4923ddaba0dc","1821F336D9EA49FE815252461275C2D2-2025-05-15-19-10-17","","null","","images/semantic_sequence/market_semantic/market_semantic_4.png","null","",""
"","","","","","image-button-response","58","303941","0.0-12.0-1.0-1.0","1821F336D9EA49FE815252461275C2D2","1821F336D9EA49FE815252461275C2D2","09dfd8f9-c276-4f13-a8fb-5472b1752fef","051c06f1-75cc-4548-856d-4923ddaba0dc","{""num_scrambled_semantic"":""8"",""num_scrambled_causal"":""4"",""num_scrambled_schematic"":""4"",""participantId"":""1821F336D9EA49FE815252461275C2D2"",""assignmentId"":""09dfd8f9-c276-4f13-a8fb-5472b1752fef"",""projectId"":""051c06f1-75cc-4548-856d-4923ddaba0dc""}","https://test12345.live/?num_scrambled_semantic=8&num_scrambled_causal=4&num_scrambled_schematic=4&participantId=1821F336D9EA49FE815252461275C2D2&assignmentId=09dfd8f9-c276-4f13-a8fb-5472b1752fef&projectId=051c06f1-75cc-4548-856d-4923ddaba0dc","1821F336D9EA49FE815252461275C2D2-2025-05-15-19-10-17","","1429","","images/semantic_sequence/market_semantic/market_semantic_4.png","0","",""
"","","","","","image-button-response","59","305747","0.0-12.0-1.0-2.0","1821F336D9EA49FE815252461275C2D2","1821F336D9EA49FE815252461275C2D2","09dfd8f9-c276-4f13-a8fb-5472b1752fef","051c06f1-75cc-4548-856d-4923ddaba0dc","{""num_scrambled_semantic"":""8"",""num_scrambled_causal"":""4"",""num_scrambled_schematic"":""4"",""participantId"":""1821F336D9EA49FE815252461275C2D2"",""assignmentId"":""09dfd8f9-c276-4f13-a8fb-5472b1752fef"",""projectId"":""051c06f1-75cc-4548-856d-4923ddaba0dc""}","https://test12345.live/?num_scrambled_semantic=8&num_scrambled_causal=4&num_scrambled_schematic=4&participantId=1821F336D9EA49FE815252461275C2D2&assignmentId=09dfd8f9-c276-4f13-a8fb-5472b1752fef&projectId=051c06f1-75cc-4548-856d-4923ddaba0dc","1821F336D9EA49FE815252461275C2D2-2025-05-15-19-10-17","","null","","[]","null","",""
"","","","","","image-button-response","60","310255","0.0-12.0-1.0-0.1","1821F336D9EA49FE815252461275C2D2","1821F336D9EA49FE815252461275C2D2","09dfd8f9-c276-4f13-a8fb-5472b1752fef","051c06f1-75cc-4548-856d-4923ddaba0dc","{""num_scrambled_semantic"":""8"",""num_scrambled_causal"":""4"",""num_scrambled_schematic"":""4"",""participantId"":""1821F336D9EA49FE815252461275C2D2"",""assignmentId"":""09dfd8f9-c276-4f13-a8fb-5472b1752fef"",""projectId"":""051c06f1-75cc-4548-856d-4923ddaba0dc""}","https://test12345.live/?num_scrambled_semantic=8&num_scrambled_causal=4&num_scrambled_schematic=4&participantId=1821F336D9EA49FE815252461275C2D2&assignmentId=09dfd8f9-c276-4f13-a8fb-5472b1752fef&projectId=051c06f1-75cc-4548-856d-4923ddaba0dc","1821F336D9EA49FE815252461275C2D2-2025-05-15-19-10-17","","null","","images/semantic_sequence/market_semantic/market_semantic_9.png","null","",""
"","","","","","image-button-response","61","312524","0.0-12.0-1.0-1.1","1821F336D9EA49FE815252461275C2D2","1821F336D9EA49FE815252461275C2D2","09dfd8f9-c276-4f13-a8fb-5472b1752fef","051c06f1-75cc-4548-856d-4923ddaba0dc","{""num_scrambled_semantic"":""8"",""num_scrambled_causal"":""4"",""num_scrambled_schematic"":""4"",""participantId"":""1821F336D9EA49FE815252461275C2D2"",""assignmentId"":""09dfd8f9-c276-4f13-a8fb-5472b1752fef"",""projectId"":""051c06f1-75cc-4548-856d-4923ddaba0dc""}","https://test12345.live/?num_scrambled_semantic=8&num_scrambled_causal=4&num_scrambled_schematic=4&participantId=1821F336D9EA49FE815252461275C2D2&assignmentId=09dfd8f9-c276-4f13-a8fb-5472b1752fef&projectId=051c06f1-75cc-4548-856d-4923ddaba0dc","1821F336D9EA49FE815252461275C2D2-2025-05-15-19-10-17","","2267","","images/semantic_sequence/market_semantic/market_semantic_9.png","0","",""
"","","","","","image-button-response","62","315051","0.0-12.0-1.0-2.1","1821F336D9EA49FE815252461275C2D2","1821F336D9EA49FE815252461275C2D2","09dfd8f9-c276-4f13-a8fb-5472b1752fef","051c06f1-75cc-4548-856d-4923ddaba0dc","{""num_scrambled_semantic"":""8"",""num_scrambled_causal"":""4"",""num_scrambled_schematic"":""4"",""participantId"":""1821F336D9EA49FE815252461275C2D2"",""assignmentId"":""09dfd8f9-c276-4f13-a8fb-5472b1752fef"",""projectId"":""051c06f1-75cc-4548-856d-4923ddaba0dc""}","https://test12345.live/?num_scrambled_semantic=8&num_scrambled_causal=4&num_scrambled_schematic=4&participantId=1821F336D9EA49FE815252461275C2D2&assignmentId=09dfd8f9-c276-4f13-a8fb-5472b1752fef&projectId=051c06f1-75cc-4548-856d-4923ddaba0dc","1821F336D9EA49FE815252461275C2D2-2025-05-15-19-10-17","","null","","[]","null","",""
"","","","","","image-button-response","63","319554","0.0-12.0-1.0-0.2","1821F336D9EA49FE815252461275C2D2","1821F336D9EA49FE815252461275C2D2","09dfd8f9-c276-4f13-a8fb-5472b1752fef","051c06f1-75cc-4548-856d-4923ddaba0dc","{""num_scrambled_semantic"":""8"",""num_scrambled_causal"":""4"",""num_scrambled_schematic"":""4"",""participantId"":""1821F336D9EA49FE815252461275C2D2"",""assignmentId"":""09dfd8f9-c276-4f13-a8fb-5472b1752fef"",""projectId"":""051c06f1-75cc-4548-856d-4923ddaba0dc""}","https://test12345.live/?num_scrambled_semantic=8&num_scrambled_causal=4&num_scrambled_schematic=4&participantId=1821F336D9EA49FE815252461275C2D2&assignmentId=09dfd8f9-c276-4f13-a8fb-5472b1752fef&projectId=051c06f1-75cc-4548-856d-4923ddaba0dc","1821F336D9EA49FE815252461275C2D2-2025-05-15-19-10-17","","null","","images/semantic_sequence/market_semantic/market_semantic_6.png","null","",""
"","","","","","image-button-response","64","323307","0.0-12.0-1.0-1.2","1821F336D9EA49FE815252461275C2D2","1821F336D9EA49FE815252461275C2D2","09dfd8f9-c276-4f13-a8fb-5472b1752fef","051c06f1-75cc-4548-856d-4923ddaba0dc","{""num_scrambled_semantic"":""8"",""num_scrambled_causal"":""4"",""num_scrambled_schematic"":""4"",""participantId"":""1821F336D9EA49FE815252461275C2D2"",""assignmentId"":""09dfd8f9-c276-4f13-a8fb-5472b1752fef"",""projectId"":""051c06f1-75cc-4548-856d-4923ddaba0dc""}","https://test12345.live/?num_scrambled_semantic=8&num_scrambled_causal=4&num_scrambled_schematic=4&participantId=1821F336D9EA49FE815252461275C2D2&assignmentId=09dfd8f9-c276-4f13-a8fb-5472b1752fef&projectId=051c06f1-75cc-4548-856d-4923ddaba0dc","1821F336D9EA49FE815252461275C2D2-2025-05-15-19-10-17","","3751","","images/semantic_sequence/market_semantic/market_semantic_6.png","0","",""
"","","","","","image-button-response","65","326051","0.0-12.0-1.0-2.2","1821F336D9EA49FE815252461275C2D2","1821F336D9EA49FE815252461275C2D2","09dfd8f9-c276-4f13-a8fb-5472b1752fef","051c06f1-75cc-4548-856d-4923ddaba0dc","{""num_scrambled_semantic"":""8"",""num_scrambled_causal"":""4"",""num_scrambled_schematic"":""4"",""participantId"":""1821F336D9EA49FE815252461275C2D2"",""assignmentId"":""09dfd8f9-c276-4f13-a8fb-5472b1752fef"",""projectId"":""051c06f1-75cc-4548-856d-4923ddaba0dc""}","https://test12345.live/?num_scrambled_semantic=8&num_scrambled_causal=4&num_scrambled_schematic=4&participantId=1821F336D9EA49FE815252461275C2D2&assignmentId=09dfd8f9-c276-4f13-a8fb-5472b1752fef&projectId=051c06f1-75cc-4548-856d-4923ddaba0dc","1821F336D9EA49FE815252461275C2D2-2025-05-15-19-10-17","","null","","[]","null","",""
"","","","","","image-button-response","66","330557","0.0-12.0-1.0-0.3","1821F336D9EA49FE815252461275C2D2","1821F336D9EA49FE815252461275C2D2","09dfd8f9-c276-4f13-a8fb-5472b1752fef","051c06f1-75cc-4548-856d-4923ddaba0dc","{""num_scrambled_semantic"":""8"",""num_scrambled_causal"":""4"",""num_scrambled_schematic"":""4"",""participantId"":""1821F336D9EA49FE815252461275C2D2"",""assignmentId"":""09dfd8f9-c276-4f13-a8fb-5472b1752fef"",""projectId"":""051c06f1-75cc-4548-856d-4923ddaba0dc""}","https://test12345.live/?num_scrambled_semantic=8&num_scrambled_causal=4&num_scrambled_schematic=4&participantId=1821F336D9EA49FE815252461275C2D2&assignmentId=09dfd8f9-c276-4f13-a8fb-5472b1752fef&projectId=051c06f1-75cc-4548-856d-4923ddaba0dc","1821F336D9EA49FE815252461275C2D2-2025-05-15-19-10-17","","null","","images/semantic_sequence/market_semantic/market_semantic_1.png","null","",""
"","","","","","image-button-response","67","331958","0.0-12.0-1.0-1.3","1821F336D9EA49FE815252461275C2D2","1821F336D9EA49FE815252461275C2D2","09dfd8f9-c276-4f13-a8fb-5472b1752fef","051c06f1-75cc-4548-856d-4923ddaba0dc","{""num_scrambled_semantic"":""8"",""num_scrambled_causal"":""4"",""num_scrambled_schematic"":""4"",""participantId"":""1821F336D9EA49FE815252461275C2D2"",""assignmentId"":""09dfd8f9-c276-4f13-a8fb-5472b1752fef"",""projectId"":""051c06f1-75cc-4548-856d-4923ddaba0dc""}","https://test12345.live/?num_scrambled_semantic=8&num_scrambled_causal=4&num_scrambled_schematic=4&participantId=1821F336D9EA49FE815252461275C2D2&assignmentId=09dfd8f9-c276-4f13-a8fb-5472b1752fef&projectId=051c06f1-75cc-4548-856d-4923ddaba0dc","1821F336D9EA49FE815252461275C2D2-2025-05-15-19-10-17","","1398","","images/semantic_sequence/market_semantic/market_semantic_1.png","0","",""
"","","","","","image-button-response","68","333762","0.0-12.0-1.0-2.3","1821F336D9EA49FE815252461275C2D2","1821F336D9EA49FE815252461275C2D2","09dfd8f9-c276-4f13-a8fb-5472b1752fef","051c06f1-75cc-4548-856d-4923ddaba0dc","{""num_scrambled_semantic"":""8"",""num_scrambled_causal"":""4"",""num_scrambled_schematic"":""4"",""participantId"":""1821F336D9EA49FE815252461275C2D2"",""assignmentId"":""09dfd8f9-c276-4f13-a8fb-5472b1752fef"",""projectId"":""051c06f1-75cc-4548-856d-4923ddaba0dc""}","https://test12345.live/?num_scrambled_semantic=8&num_scrambled_causal=4&num_scrambled_schematic=4&participantId=1821F336D9EA49FE815252461275C2D2&assignmentId=09dfd8f9-c276-4f13-a8fb-5472b1752fef&projectId=051c06f1-75cc-4548-856d-4923ddaba0dc","1821F336D9EA49FE815252461275C2D2-2025-05-15-19-10-17","","null","","[]","null","",""
"","","","","","image-button-response","69","338269","0.0-12.0-1.0-0.4","1821F336D9EA49FE815252461275C2D2","1821F336D9EA49FE815252461275C2D2","09dfd8f9-c276-4f13-a8fb-5472b1752fef","051c06f1-75cc-4548-856d-4923ddaba0dc","{""num_scrambled_semantic"":""8"",""num_scrambled_causal"":""4"",""num_scrambled_schematic"":""4"",""participantId"":""1821F336D9EA49FE815252461275C2D2"",""assignmentId"":""09dfd8f9-c276-4f13-a8fb-5472b1752fef"",""projectId"":""051c06f1-75cc-4548-856d-4923ddaba0dc""}","https://test12345.live/?num_scrambled_semantic=8&num_scrambled_causal=4&num_scrambled_schematic=4&participantId=1821F336D9EA49FE815252461275C2D2&assignmentId=09dfd8f9-c276-4f13-a8fb-5472b1752fef&projectId=051c06f1-75cc-4548-856d-4923ddaba0dc","1821F336D9EA49FE815252461275C2D2-2025-05-15-19-10-17","","null","","images/semantic_sequence/market_semantic/market_semantic_7.png","null","",""
"","","","","","image-button-response","70","339824","0.0-12.0-1.0-1.4","1821F336D9EA49FE815252461275C2D2","1821F336D9EA49FE815252461275C2D2","09dfd8f9-c276-4f13-a8fb-5472b1752fef","051c06f1-75cc-4548-856d-4923ddaba0dc","{""num_scrambled_semantic"":""8"",""num_scrambled_causal"":""4"",""num_scrambled_schematic"":""4"",""participantId"":""1821F336D9EA49FE815252461275C2D2"",""assignmentId"":""09dfd8f9-c276-4f13-a8fb-5472b1752fef"",""projectId"":""051c06f1-75cc-4548-856d-4923ddaba0dc""}","https://test12345.live/?num_scrambled_semantic=8&num_scrambled_causal=4&num_scrambled_schematic=4&participantId=1821F336D9EA49FE815252461275C2D2&assignmentId=09dfd8f9-c276-4f13-a8fb-5472b1752fef&projectId=051c06f1-75cc-4548-856d-4923ddaba0dc","1821F336D9EA49FE815252461275C2D2-2025-05-15-19-10-17","","1553","","images/semantic_sequence/market_semantic/market_semantic_7.png","0","",""
"","","","","","image-button-response","71","341629","0.0-12.0-1.0-2.4","1821F336D9EA49FE815252461275C2D2","1821F336D9EA49FE815252461275C2D2","09dfd8f9-c276-4f13-a8fb-5472b1752fef","051c06f1-75cc-4548-856d-4923ddaba0dc","{""num_scrambled_semantic"":""8"",""num_scrambled_causal"":""4"",""num_scrambled_schematic"":""4"",""participantId"":""1821F336D9EA49FE815252461275C2D2"",""assignmentId"":""09dfd8f9-c276-4f13-a8fb-5472b1752fef"",""projectId"":""051c06f1-75cc-4548-856d-4923ddaba0dc""}","https://test12345.live/?num_scrambled_semantic=8&num_scrambled_causal=4&num_scrambled_schematic=4&participantId=1821F336D9EA49FE815252461275C2D2&assignmentId=09dfd8f9-c276-4f13-a8fb-5472b1752fef&projectId=051c06f1-75cc-4548-856d-4923ddaba0dc","1821F336D9EA49FE815252461275C2D2-2025-05-15-19-10-17","","null","","[]","null","",""
"","","","","","image-button-response","72","346134","0.0-12.0-1.0-0.5","1821F336D9EA49FE815252461275C2D2","1821F336D9EA49FE815252461275C2D2","09dfd8f9-c276-4f13-a8fb-5472b1752fef","051c06f1-75cc-4548-856d-4923ddaba0dc","{""num_scrambled_semantic"":""8"",""num_scrambled_causal"":""4"",""num_scrambled_schematic"":""4"",""participantId"":""1821F336D9EA49FE815252461275C2D2"",""assignmentId"":""09dfd8f9-c276-4f13-a8fb-5472b1752fef"",""projectId"":""051c06f1-75cc-4548-856d-4923ddaba0dc""}","https://test12345.live/?num_scrambled_semantic=8&num_scrambled_causal=4&num_scrambled_schematic=4&participantId=1821F336D9EA49FE815252461275C2D2&assignmentId=09dfd8f9-c276-4f13-a8fb-5472b1752fef&projectId=051c06f1-75cc-4548-856d-4923ddaba0dc","1821F336D9EA49FE815252461275C2D2-2025-05-15-19-10-17","","null","","images/semantic_sequence/market_semantic/market_semantic_2.png","null","",""
"","","","","","image-button-response","73","347774","0.0-12.0-1.0-1.5","1821F336D9EA49FE815252461275C2D2","1821F336D9EA49FE815252461275C2D2","09dfd8f9-c276-4f13-a8fb-5472b1752fef","051c06f1-75cc-4548-856d-4923ddaba0dc","{""num_scrambled_semantic"":""8"",""num_scrambled_causal"":""4"",""num_scrambled_schematic"":""4"",""participantId"":""1821F336D9EA49FE815252461275C2D2"",""assignmentId"":""09dfd8f9-c276-4f13-a8fb-5472b1752fef"",""projectId"":""051c06f1-75cc-4548-856d-4923ddaba0dc""}","https://test12345.live/?num_scrambled_semantic=8&num_scrambled_causal=4&num_scrambled_schematic=4&participantId=1821F336D9EA49FE815252461275C2D2&assignmentId=09dfd8f9-c276-4f13-a8fb-5472b1752fef&projectId=051c06f1-75cc-4548-856d-4923ddaba0dc","1821F336D9EA49FE815252461275C2D2-2025-05-15-19-10-17","","1638","","images/semantic_sequence/market_semantic/market_semantic_2.png","1","",""
"","","","","","image-button-response","74","349581","0.0-12.0-1.0-2.5","1821F336D9EA49FE815252461275C2D2","1821F336D9EA49FE815252461275C2D2","09dfd8f9-c276-4f13-a8fb-5472b1752fef","051c06f1-75cc-4548-856d-4923ddaba0dc","{""num_scrambled_semantic"":""8"",""num_scrambled_causal"":""4"",""num_scrambled_schematic"":""4"",""participantId"":""1821F336D9EA49FE815252461275C2D2"",""assignmentId"":""09dfd8f9-c276-4f13-a8fb-5472b1752fef"",""projectId"":""051c06f1-75cc-4548-856d-4923ddaba0dc""}","https://test12345.live/?num_scrambled_semantic=8&num_scrambled_causal=4&num_scrambled_schematic=4&participantId=1821F336D9EA49FE815252461275C2D2&assignmentId=09dfd8f9-c276-4f13-a8fb-5472b1752fef&projectId=051c06f1-75cc-4548-856d-4923ddaba0dc","1821F336D9EA49FE815252461275C2D2-2025-05-15-19-10-17","","null","","[]","null","",""
"","","","","","image-button-response","75","354089","0.0-12.0-1.0-0.6","1821F336D9EA49FE815252461275C2D2","1821F336D9EA49FE815252461275C2D2","09dfd8f9-c276-4f13-a8fb-5472b1752fef","051c06f1-75cc-4548-856d-4923ddaba0dc","{""num_scrambled_semantic"":""8"",""num_scrambled_causal"":""4"",""num_scrambled_schematic"":""4"",""participantId"":""1821F336D9EA49FE815252461275C2D2"",""assignmentId"":""09dfd8f9-c276-4f13-a8fb-5472b1752fef"",""projectId"":""051c06f1-75cc-4548-856d-4923ddaba0dc""}","https://test12345.live/?num_scrambled_semantic=8&num_scrambled_causal=4&num_scrambled_schematic=4&participantId=1821F336D9EA49FE815252461275C2D2&assignmentId=09dfd8f9-c276-4f13-a8fb-5472b1752fef&projectId=051c06f1-75cc-4548-856d-4923ddaba0dc","1821F336D9EA49FE815252461275C2D2-2025-05-15-19-10-17","","null","","images/semantic_sequence/market_semantic/market_semantic_ten.png","null","",""
"","","","","","image-button-response","76","358096","0.0-12.0-1.0-1.6","1821F336D9EA49FE815252461275C2D2","1821F336D9EA49FE815252461275C2D2","09dfd8f9-c276-4f13-a8fb-5472b1752fef","051c06f1-75cc-4548-856d-4923ddaba0dc","{""num_scrambled_semantic"":""8"",""num_scrambled_causal"":""4"",""num_scrambled_schematic"":""4"",""participantId"":""1821F336D9EA49FE815252461275C2D2"",""assignmentId"":""09dfd8f9-c276-4f13-a8fb-5472b1752fef"",""projectId"":""051c06f1-75cc-4548-856d-4923ddaba0dc""}","https://test12345.live/?num_scrambled_semantic=8&num_scrambled_causal=4&num_scrambled_schematic=4&participantId=1821F336D9EA49FE815252461275C2D2&assignmentId=09dfd8f9-c276-4f13-a8fb-5472b1752fef&projectId=051c06f1-75cc-4548-856d-4923ddaba0dc","1821F336D9EA49FE815252461275C2D2-2025-05-15-19-10-17","","null","","images/semantic_sequence/market_semantic/market_semantic_ten.png","null","",""
"","","","","","image-button-response","77","359901","0.0-12.0-1.0-2.6","1821F336D9EA49FE815252461275C2D2","1821F336D9EA49FE815252461275C2D2","09dfd8f9-c276-4f13-a8fb-5472b1752fef","051c06f1-75cc-4548-856d-4923ddaba0dc","{""num_scrambled_semantic"":""8"",""num_scrambled_causal"":""4"",""num_scrambled_schematic"":""4"",""participantId"":""1821F336D9EA49FE815252461275C2D2"",""assignmentId"":""09dfd8f9-c276-4f13-a8fb-5472b1752fef"",""projectId"":""051c06f1-75cc-4548-856d-4923ddaba0dc""}","https://test12345.live/?num_scrambled_semantic=8&num_scrambled_causal=4&num_scrambled_schematic=4&participantId=1821F336D9EA49FE815252461275C2D2&assignmentId=09dfd8f9-c276-4f13-a8fb-5472b1752fef&projectId=051c06f1-75cc-4548-856d-4923ddaba0dc","1821F336D9EA49FE815252461275C2D2-2025-05-15-19-10-17","","null","","[]","null","",""
"","","","","","image-button-response","78","364409","0.0-12.0-1.0-0.7","1821F336D9EA49FE815252461275C2D2","1821F336D9EA49FE815252461275C2D2","09dfd8f9-c276-4f13-a8fb-5472b1752fef","051c06f1-75cc-4548-856d-4923ddaba0dc","{""num_scrambled_semantic"":""8"",""num_scrambled_causal"":""4"",""num_scrambled_schematic"":""4"",""participantId"":""1821F336D9EA49FE815252461275C2D2"",""assignmentId"":""09dfd8f9-c276-4f13-a8fb-5472b1752fef"",""projectId"":""051c06f1-75cc-4548-856d-4923ddaba0dc""}","https://test12345.live/?num_scrambled_semantic=8&num_scrambled_causal=4&num_scrambled_schematic=4&participantId=1821F336D9EA49FE815252461275C2D2&assignmentId=09dfd8f9-c276-4f13-a8fb-5472b1752fef&projectId=051c06f1-75cc-4548-856d-4923ddaba0dc","1821F336D9EA49FE815252461275C2D2-2025-05-15-19-10-17","","null","","images/semantic_sequence/market_semantic/market_semantic_8.png","null","",""
"","","","","","image-button-response","79","366291","0.0-12.0-1.0-1.7","1821F336D9EA49FE815252461275C2D2","1821F336D9EA49FE815252461275C2D2","09dfd8f9-c276-4f13-a8fb-5472b1752fef","051c06f1-75cc-4548-856d-4923ddaba0dc","{""num_scrambled_semantic"":""8"",""num_scrambled_causal"":""4"",""num_scrambled_schematic"":""4"",""participantId"":""1821F336D9EA49FE815252461275C2D2"",""assignmentId"":""09dfd8f9-c276-4f13-a8fb-5472b1752fef"",""projectId"":""051c06f1-75cc-4548-856d-4923ddaba0dc""}","https://test12345.live/?num_scrambled_semantic=8&num_scrambled_causal=4&num_scrambled_schematic=4&participantId=1821F336D9EA49FE815252461275C2D2&assignmentId=09dfd8f9-c276-4f13-a8fb-5472b1752fef&projectId=051c06f1-75cc-4548-856d-4923ddaba0dc","1821F336D9EA49FE815252461275C2D2-2025-05-15-19-10-17","","1879","","images/semantic_sequence/market_semantic/market_semantic_8.png","1","",""
"","","","","","image-button-response","80","368098","0.0-12.0-1.0-2.7","1821F336D9EA49FE815252461275C2D2","1821F336D9EA49FE815252461275C2D2","09dfd8f9-c276-4f13-a8fb-5472b1752fef","051c06f1-75cc-4548-856d-4923ddaba0dc","{""num_scrambled_semantic"":""8"",""num_scrambled_causal"":""4"",""num_scrambled_schematic"":""4"",""participantId"":""1821F336D9EA49FE815252461275C2D2"",""assignmentId"":""09dfd8f9-c276-4f13-a8fb-5472b1752fef"",""projectId"":""051c06f1-75cc-4548-856d-4923ddaba0dc""}","https://test12345.live/?num_scrambled_semantic=8&num_scrambled_causal=4&num_scrambled_schematic=4&participantId=1821F336D9EA49FE815252461275C2D2&assignmentId=09dfd8f9-c276-4f13-a8fb-5472b1752fef&projectId=051c06f1-75cc-4548-856d-4923ddaba0dc","1821F336D9EA49FE815252461275C2D2-2025-05-15-19-10-17","","null","","[]","null","",""
"","","","","","image-button-response","81","372605","0.0-12.0-1.0-0.8","1821F336D9EA49FE815252461275C2D2","1821F336D9EA49FE815252461275C2D2","09dfd8f9-c276-4f13-a8fb-5472b1752fef","051c06f1-75cc-4548-856d-4923ddaba0dc","{""num_scrambled_semantic"":""8"",""num_scrambled_causal"":""4"",""num_scrambled_schematic"":""4"",""participantId"":""1821F336D9EA49FE815252461275C2D2"",""assignmentId"":""09dfd8f9-c276-4f13-a8fb-5472b1752fef"",""projectId"":""051c06f1-75cc-4548-856d-4923ddaba0dc""}","https://test12345.live/?num_scrambled_semantic=8&num_scrambled_causal=4&num_scrambled_schematic=4&participantId=1821F336D9EA49FE815252461275C2D2&assignmentId=09dfd8f9-c276-4f13-a8fb-5472b1752fef&projectId=051c06f1-75cc-4548-856d-4923ddaba0dc","1821F336D9EA49FE815252461275C2D2-2025-05-15-19-10-17","","null","","images/semantic_sequence/market_semantic/market_semantic_3.png","null","",""
"","","","","","image-button-response","82","374091","0.0-12.0-1.0-1.8","1821F336D9EA49FE815252461275C2D2","1821F336D9EA49FE815252461275C2D2","09dfd8f9-c276-4f13-a8fb-5472b1752fef","051c06f1-75cc-4548-856d-4923ddaba0dc","{""num_scrambled_semantic"":""8"",""num_scrambled_causal"":""4"",""num_scrambled_schematic"":""4"",""participantId"":""1821F336D9EA49FE815252461275C2D2"",""assignmentId"":""09dfd8f9-c276-4f13-a8fb-5472b1752fef"",""projectId"":""051c06f1-75cc-4548-856d-4923ddaba0dc""}","https://test12345.live/?num_scrambled_semantic=8&num_scrambled_causal=4&num_scrambled_schematic=4&participantId=1821F336D9EA49FE815252461275C2D2&assignmentId=09dfd8f9-c276-4f13-a8fb-5472b1752fef&projectId=051c06f1-75cc-4548-856d-4923ddaba0dc","1821F336D9EA49FE815252461275C2D2-2025-05-15-19-10-17","","1484","","images/semantic_sequence/market_semantic/market_semantic_3.png","1","",""
"","","","","","image-button-response","83","375895","0.0-12.0-1.0-2.8","1821F336D9EA49FE815252461275C2D2","1821F336D9EA49FE815252461275C2D2","09dfd8f9-c276-4f13-a8fb-5472b1752fef","051c06f1-75cc-4548-856d-4923ddaba0dc","{""num_scrambled_semantic"":""8"",""num_scrambled_causal"":""4"",""num_scrambled_schematic"":""4"",""participantId"":""1821F336D9EA49FE815252461275C2D2"",""assignmentId"":""09dfd8f9-c276-4f13-a8fb-5472b1752fef"",""projectId"":""051c06f1-75cc-4548-856d-4923ddaba0dc""}","https://test12345.live/?num_scrambled_semantic=8&num_scrambled_causal=4&num_scrambled_schematic=4&participantId=1821F336D9EA49FE815252461275C2D2&assignmentId=09dfd8f9-c276-4f13-a8fb-5472b1752fef&projectId=051c06f1-75cc-4548-856d-4923ddaba0dc","1821F336D9EA49FE815252461275C2D2-2025-05-15-19-10-17","","null","","[]","null","",""
"","","","","","image-button-response","84","380399","0.0-12.0-1.0-0.9","1821F336D9EA49FE815252461275C2D2","1821F336D9EA49FE815252461275C2D2","09dfd8f9-c276-4f13-a8fb-5472b1752fef","051c06f1-75cc-4548-856d-4923ddaba0dc","{""num_scrambled_semantic"":""8"",""num_scrambled_causal"":""4"",""num_scrambled_schematic"":""4"",""participantId"":""1821F336D9EA49FE815252461275C2D2"",""assignmentId"":""09dfd8f9-c276-4f13-a8fb-5472b1752fef"",""projectId"":""051c06f1-75cc-4548-856d-4923ddaba0dc""}","https://test12345.live/?num_scrambled_semantic=8&num_scrambled_causal=4&num_scrambled_schematic=4&participantId=1821F336D9EA49FE815252461275C2D2&assignmentId=09dfd8f9-c276-4f13-a8fb-5472b1752fef&projectId=051c06f1-75cc-4548-856d-4923ddaba0dc","1821F336D9EA49FE815252461275C2D2-2025-05-15-19-10-17","","null","","images/semantic_sequence/market_semantic/market_semantic_5.png","null","",""
"","","","","","image-button-response","85","382023","0.0-12.0-1.0-1.9","1821F336D9EA49FE815252461275C2D2","1821F336D9EA49FE815252461275C2D2","09dfd8f9-c276-4f13-a8fb-5472b1752fef","051c06f1-75cc-4548-856d-4923ddaba0dc","{""num_scrambled_semantic"":""8"",""num_scrambled_causal"":""4"",""num_scrambled_schematic"":""4"",""participantId"":""1821F336D9EA49FE815252461275C2D2"",""assignmentId"":""09dfd8f9-c276-4f13-a8fb-5472b1752fef"",""projectId"":""051c06f1-75cc-4548-856d-4923ddaba0dc""}","https://test12345.live/?num_scrambled_semantic=8&num_scrambled_causal=4&num_scrambled_schematic=4&participantId=1821F336D9EA49FE815252461275C2D2&assignmentId=09dfd8f9-c276-4f13-a8fb-5472b1752fef&projectId=051c06f1-75cc-4548-856d-4923ddaba0dc","1821F336D9EA49FE815252461275C2D2-2025-05-15-19-10-17","","1621","","images/semantic_sequence/market_semantic/market_semantic_5.png","1","",""
"","","","","","image-button-response","86","383829","0.0-12.0-1.0-2.9","1821F336D9EA49FE815252461275C2D2","1821F336D9EA49FE815252461275C2D2","09dfd8f9-c276-4f13-a8fb-5472b1752fef","051c06f1-75cc-4548-856d-4923ddaba0dc","{""num_scrambled_semantic"":""8"",""num_scrambled_causal"":""4"",""num_scrambled_schematic"":""4"",""participantId"":""1821F336D9EA49FE815252461275C2D2"",""assignmentId"":""09dfd8f9-c276-4f13-a8fb-5472b1752fef"",""projectId"":""051c06f1-75cc-4548-856d-4923ddaba0dc""}","https://test12345.live/?num_scrambled_semantic=8&num_scrambled_causal=4&num_scrambled_schematic=4&participantId=1821F336D9EA49FE815252461275C2D2&assignmentId=09dfd8f9-c276-4f13-a8fb-5472b1752fef&projectId=051c06f1-75cc-4548-856d-4923ddaba0dc","1821F336D9EA49FE815252461275C2D2-2025-05-15-19-10-17","","null","","[]","null","",""
"","","","","","html-audio-response","87","398991","0.0-13.0","1821F336D9EA49FE815252461275C2D2","1821F336D9EA49FE815252461275C2D2","09dfd8f9-c276-4f13-a8fb-5472b1752fef","051c06f1-75cc-4548-856d-4923ddaba0dc","{""num_scrambled_semantic"":""8"",""num_scrambled_causal"":""4"",""num_scrambled_schematic"":""4"",""participantId"":""1821F336D9EA49FE815252461275C2D2"",""assignmentId"":""09dfd8f9-c276-4f13-a8fb-5472b1752fef"",""projectId"":""051c06f1-75cc-4548-856d-4923ddaba0dc""}","https://test12345.live/?num_scrambled_semantic=8&num_scrambled_causal=4&num_scrambled_schematic=4&participantId=1821F336D9EA49FE815252461275C2D2&assignmentId=09dfd8f9-c276-4f13-a8fb-5472b1752fef&projectId=051c06f1-75cc-4548-856d-4923ddaba0dc","1821F336D9EA49FE815252461275C2D2-2025-05-15-19-10-17","","14213","","[""<span style=\""color: red; font-size: 24px\""> NOW RECORDING</span><p>Please say out loud all the images you saw, as many as you can remember. The images can be said in any order.</p>""]","","2","market_semantic"
"","","","","","image-button-response","88","404999","0.0-14.0-0.0","1821F336D9EA49FE815252461275C2D2","1821F336D9EA49FE815252461275C2D2","09dfd8f9-c276-4f13-a8fb-5472b1752fef","051c06f1-75cc-4548-856d-4923ddaba0dc","{""num_scrambled_semantic"":""8"",""num_scrambled_causal"":""4"",""num_scrambled_schematic"":""4"",""participantId"":""1821F336D9EA49FE815252461275C2D2"",""assignmentId"":""09dfd8f9-c276-4f13-a8fb-5472b1752fef"",""projectId"":""051c06f1-75cc-4548-856d-4923ddaba0dc""}","https://test12345.live/?num_scrambled_semantic=8&num_scrambled_causal=4&num_scrambled_schematic=4&participantId=1821F336D9EA49FE815252461275C2D2&assignmentId=09dfd8f9-c276-4f13-a8fb-5472b1752fef&projectId=051c06f1-75cc-4548-856d-4923ddaba0dc","1821F336D9EA49FE815252461275C2D2-2025-05-15-19-10-17","","null","","images/causal_sequence/museum_causal/museum_causal_0.png","null","",""
"","","","","","image-button-response","89","409502","0.0-14.0-1.0-0.0","1821F336D9EA49FE815252461275C2D2","1821F336D9EA49FE815252461275C2D2","09dfd8f9-c276-4f13-a8fb-5472b1752fef","051c06f1-75cc-4548-856d-4923ddaba0dc","{""num_scrambled_semantic"":""8"",""num_scrambled_causal"":""4"",""num_scrambled_schematic"":""4"",""participantId"":""1821F336D9EA49FE815252461275C2D2"",""assignmentId"":""09dfd8f9-c276-4f13-a8fb-5472b1752fef"",""projectId"":""051c06f1-75cc-4548-856d-4923ddaba0dc""}","https://test12345.live/?num_scrambled_semantic=8&num_scrambled_causal=4&num_scrambled_schematic=4&participantId=1821F336D9EA49FE815252461275C2D2&assignmentId=09dfd8f9-c276-4f13-a8fb-5472b1752fef&projectId=051c06f1-75cc-4548-856d-4923ddaba0dc","1821F336D9EA49FE815252461275C2D2-2025-05-15-19-10-17","","null","","images/causal_sequence/museum_causal/museum_causal_ten.png","null","",""
"","","","","","image-button-response","90","410806","0.0-14.0-1.0-1.0","1821F336D9EA49FE815252461275C2D2","1821F336D9EA49FE815252461275C2D2","09dfd8f9-c276-4f13-a8fb-5472b1752fef","051c06f1-75cc-4548-856d-4923ddaba0dc","{""num_scrambled_semantic"":""8"",""num_scrambled_causal"":""4"",""num_scrambled_schematic"":""4"",""participantId"":""1821F336D9EA49FE815252461275C2D2"",""assignmentId"":""09dfd8f9-c276-4f13-a8fb-5472b1752fef"",""projectId"":""051c06f1-75cc-4548-856d-4923ddaba0dc""}","https://test12345.live/?num_scrambled_semantic=8&num_scrambled_causal=4&num_scrambled_schematic=4&participantId=1821F336D9EA49FE815252461275C2D2&assignmentId=09dfd8f9-c276-4f13-a8fb-5472b1752fef&projectId=051c06f1-75cc-4548-856d-4923ddaba0dc","1821F336D9EA49FE815252461275C2D2-2025-05-15-19-10-17","","1303","","images/causal_sequence/museum_causal/museum_causal_ten.png","0","",""
"","","","","","image-button-response","91","412609","0.0-14.0-1.0-2.0","1821F336D9EA49FE815252461275C2D2","1821F336D9EA49FE815252461275C2D2","09dfd8f9-c276-4f13-a8fb-5472b1752fef","051c06f1-75cc-4548-856d-4923ddaba0dc","{""num_scrambled_semantic"":""8"",""num_scrambled_causal"":""4"",""num_scrambled_schematic"":""4"",""participantId"":""1821F336D9EA49FE815252461275C2D2"",""assignmentId"":""09dfd8f9-c276-4f13-a8fb-5472b1752fef"",""projectId"":""051c06f1-75cc-4548-856d-4923ddaba0dc""}","https://test12345.live/?num_scrambled_semantic=8&num_scrambled_causal=4&num_scrambled_schematic=4&participantId=1821F336D9EA49FE815252461275C2D2&assignmentId=09dfd8f9-c276-4f13-a8fb-5472b1752fef&projectId=051c06f1-75cc-4548-856d-4923ddaba0dc","1821F336D9EA49FE815252461275C2D2-2025-05-15-19-10-17","","null","","[]","null","",""
"","","","","","image-button-response","92","417116","0.0-14.0-1.0-0.1","1821F336D9EA49FE815252461275C2D2","1821F336D9EA49FE815252461275C2D2","09dfd8f9-c276-4f13-a8fb-5472b1752fef","051c06f1-75cc-4548-856d-4923ddaba0dc","{""num_scrambled_semantic"":""8"",""num_scrambled_causal"":""4"",""num_scrambled_schematic"":""4"",""participantId"":""1821F336D9EA49FE815252461275C2D2"",""assignmentId"":""09dfd8f9-c276-4f13-a8fb-5472b1752fef"",""projectId"":""051c06f1-75cc-4548-856d-4923ddaba0dc""}","https://test12345.live/?num_scrambled_semantic=8&num_scrambled_causal=4&num_scrambled_schematic=4&participantId=1821F336D9EA49FE815252461275C2D2&assignmentId=09dfd8f9-c276-4f13-a8fb-5472b1752fef&projectId=051c06f1-75cc-4548-856d-4923ddaba0dc","1821F336D9EA49FE815252461275C2D2-2025-05-15-19-10-17","","null","","images/causal_sequence/museum_causal/museum_causal_7.png","null","",""
"","","","","","image-button-response","93","418874","0.0-14.0-1.0-1.1","1821F336D9EA49FE815252461275C2D2","1821F336D9EA49FE815252461275C2D2","09dfd8f9-c276-4f13-a8fb-5472b1752fef","051c06f1-75cc-4548-856d-4923ddaba0dc","{""num_scrambled_semantic"":""8"",""num_scrambled_causal"":""4"",""num_scrambled_schematic"":""4"",""participantId"":""1821F336D9EA49FE815252461275C2D2"",""assignmentId"":""09dfd8f9-c276-4f13-a8fb-5472b1752fef"",""projectId"":""051c06f1-75cc-4548-856d-4923ddaba0dc""}","https://test12345.live/?num_scrambled_semantic=8&num_scrambled_causal=4&num_scrambled_schematic=4&participantId=1821F336D9EA49FE815252461275C2D2&assignmentId=09dfd8f9-c276-4f13-a8fb-5472b1752fef&projectId=051c06f1-75cc-4548-856d-4923ddaba0dc","1821F336D9EA49FE815252461275C2D2-2025-05-15-19-10-17","","1756","","images/causal_sequence/museum_causal/museum_causal_7.png","1","",""
"","","","","","image-button-response","94","420681","0.0-14.0-1.0-2.1","1821F336D9EA49FE815252461275C2D2","1821F336D9EA49FE815252461275C2D2","09dfd8f9-c276-4f13-a8fb-5472b1752fef","051c06f1-75cc-4548-856d-4923ddaba0dc","{""num_scrambled_semantic"":""8"",""num_scrambled_causal"":""4"",""num_scrambled_schematic"":""4"",""participantId"":""1821F336D9EA49FE815252461275C2D2"",""assignmentId"":""09dfd8f9-c276-4f13-a8fb-5472b1752fef"",""projectId"":""051c06f1-75cc-4548-856d-4923ddaba0dc""}","https://test12345.live/?num_scrambled_semantic=8&num_scrambled_causal=4&num_scrambled_schematic=4&participantId=1821F336D9EA49FE815252461275C2D2&assignmentId=09dfd8f9-c276-4f13-a8fb-5472b1752fef&projectId=051c06f1-75cc-4548-856d-4923ddaba0dc","1821F336D9EA49FE815252461275C2D2-2025-05-15-19-10-17","","null","","[]","null","",""
"","","","","","image-button-response","95","425189","0.0-14.0-1.0-0.2","1821F336D9EA49FE815252461275C2D2","1821F336D9EA49FE815252461275C2D2","09dfd8f9-c276-4f13-a8fb-5472b1752fef","051c06f1-75cc-4548-856d-4923ddaba0dc","{""num_scrambled_semantic"":""8"",""num_scrambled_causal"":""4"",""num_scrambled_schematic"":""4"",""participantId"":""1821F336D9EA49FE815252461275C2D2"",""assignmentId"":""09dfd8f9-c276-4f13-a8fb-5472b1752fef"",""projectId"":""051c06f1-75cc-4548-856d-4923ddaba0dc""}","https://test12345.live/?num_scrambled_semantic=8&num_scrambled_causal=4&num_scrambled_schematic=4&participantId=1821F336D9EA49FE815252461275C2D2&assignmentId=09dfd8f9-c276-4f13-a8fb-5472b1752fef&projectId=051c06f1-75cc-4548-856d-4923ddaba0dc","1821F336D9EA49FE815252461275C2D2-2025-05-15-19-10-17","","null","","images/causal_sequence/museum_causal/museum_causal_6.png","null","",""
"","","","","","image-button-response","96","426274","0.0-14.0-1.0-1.2","1821F336D9EA49FE815252461275C2D2","1821F336D9EA49FE815252461275C2D2","09dfd8f9-c276-4f13-a8fb-5472b1752fef","051c06f1-75cc-4548-856d-4923ddaba0dc","{""num_scrambled_semantic"":""8"",""num_scrambled_causal"":""4"",""num_scrambled_schematic"":""4"",""participantId"":""1821F336D9EA49FE815252461275C2D2"",""assignmentId"":""09dfd8f9-c276-4f13-a8fb-5472b1752fef"",""projectId"":""051c06f1-75cc-4548-856d-4923ddaba0dc""}","https://test12345.live/?num_scrambled_semantic=8&num_scrambled_causal=4&num_scrambled_schematic=4&participantId=1821F336D9EA49FE815252461275C2D2&assignmentId=09dfd8f9-c276-4f13-a8fb-5472b1752fef&projectId=051c06f1-75cc-4548-856d-4923ddaba0dc","1821F336D9EA49FE815252461275C2D2-2025-05-15-19-10-17","","1083","","images/causal_sequence/museum_causal/museum_causal_6.png","0","",""
"","","","","","image-button-response","97","428080","0.0-14.0-1.0-2.2","1821F336D9EA49FE815252461275C2D2","1821F336D9EA49FE815252461275C2D2","09dfd8f9-c276-4f13-a8fb-5472b1752fef","051c06f1-75cc-4548-856d-4923ddaba0dc","{""num_scrambled_semantic"":""8"",""num_scrambled_causal"":""4"",""num_scrambled_schematic"":""4"",""participantId"":""1821F336D9EA49FE815252461275C2D2"",""assignmentId"":""09dfd8f9-c276-4f13-a8fb-5472b1752fef"",""projectId"":""051c06f1-75cc-4548-856d-4923ddaba0dc""}","https://test12345.live/?num_scrambled_semantic=8&num_scrambled_causal=4&num_scrambled_schematic=4&participantId=1821F336D9EA49FE815252461275C2D2&assignmentId=09dfd8f9-c276-4f13-a8fb-5472b1752fef&projectId=051c06f1-75cc-4548-856d-4923ddaba0dc","1821F336D9EA49FE815252461275C2D2-2025-05-15-19-10-17","","null","","[]","null","",""
"","","","","","image-button-response","98","432584","0.0-14.0-1.0-0.3","1821F336D9EA49FE815252461275C2D2","1821F336D9EA49FE815252461275C2D2","09dfd8f9-c276-4f13-a8fb-5472b1752fef","051c06f1-75cc-4548-856d-4923ddaba0dc","{""num_scrambled_semantic"":""8"",""num_scrambled_causal"":""4"",""num_scrambled_schematic"":""4"",""participantId"":""1821F336D9EA49FE815252461275C2D2"",""assignmentId"":""09dfd8f9-c276-4f13-a8fb-5472b1752fef"",""projectId"":""051c06f1-75cc-4548-856d-4923ddaba0dc""}","https://test12345.live/?num_scrambled_semantic=8&num_scrambled_causal=4&num_scrambled_schematic=4&participantId=1821F336D9EA49FE815252461275C2D2&assignmentId=09dfd8f9-c276-4f13-a8fb-5472b1752fef&projectId=051c06f1-75cc-4548-856d-4923ddaba0dc","1821F336D9EA49FE815252461275C2D2-2025-05-15-19-10-17","","null","","images/causal_sequence/museum_causal/museum_causal_8.png","null","",""
"","","","","","image-button-response","99","433342","0.0-14.0-1.0-1.3","1821F336D9EA49FE815252461275C2D2","1821F336D9EA49FE815252461275C2D2","09dfd8f9-c276-4f13-a8fb-5472b1752fef","051c06f1-75cc-4548-856d-4923ddaba0dc","{""num_scrambled_semantic"":""8"",""num_scrambled_causal"":""4"",""num_scrambled_schematic"":""4"",""participantId"":""1821F336D9EA49FE815252461275C2D2"",""assignmentId"":""09dfd8f9-c276-4f13-a8fb-5472b1752fef"",""projectId"":""051c06f1-75cc-4548-856d-4923ddaba0dc""}","https://test12345.live/?num_scrambled_semantic=8&num_scrambled_causal=4&num_scrambled_schematic=4&participantId=1821F336D9EA49FE815252461275C2D2&assignmentId=09dfd8f9-c276-4f13-a8fb-5472b1752fef&projectId=051c06f1-75cc-4548-856d-4923ddaba0dc","1821F336D9EA49FE815252461275C2D2-2025-05-15-19-10-17","","756","","images/causal_sequence/museum_causal/museum_causal_8.png","0","",""
"","","","","","image-button-response","100","435149","0.0-14.0-1.0-2.3","1821F336D9EA49FE815252461275C2D2","1821F336D9EA49FE815252461275C2D2","09dfd8f9-c276-4f13-a8fb-5472b1752fef","051c06f1-75cc-4548-856d-4923ddaba0dc","{""num_scrambled_semantic"":""8"",""num_scrambled_causal"":""4"",""num_scrambled_schematic"":""4"",""participantId"":""1821F336D9EA49FE815252461275C2D2"",""assignmentId"":""09dfd8f9-c276-4f13-a8fb-5472b1752fef"",""projectId"":""051c06f1-75cc-4548-856d-4923ddaba0dc""}","https://test12345.live/?num_scrambled_semantic=8&num_scrambled_causal=4&num_scrambled_schematic=4&participantId=1821F336D9EA49FE815252461275C2D2&assignmentId=09dfd8f9-c276-4f13-a8fb-5472b1752fef&projectId=051c06f1-75cc-4548-856d-4923ddaba0dc","1821F336D9EA49FE815252461275C2D2-2025-05-15-19-10-17","","null","","[]","null","",""
"","","","","","image-button-response","101","439654","0.0-14.0-1.0-0.4","1821F336D9EA49FE815252461275C2D2","1821F336D9EA49FE815252461275C2D2","09dfd8f9-c276-4f13-a8fb-5472b1752fef","051c06f1-75cc-4548-856d-4923ddaba0dc","{""num_scrambled_semantic"":""8"",""num_scrambled_causal"":""4"",""num_scrambled_schematic"":""4"",""participantId"":""1821F336D9EA49FE815252461275C2D2"",""assignmentId"":""09dfd8f9-c276-4f13-a8fb-5472b1752fef"",""projectId"":""051c06f1-75cc-4548-856d-4923ddaba0dc""}","https://test12345.live/?num_scrambled_semantic=8&num_scrambled_causal=4&num_scrambled_schematic=4&participantId=1821F336D9EA49FE815252461275C2D2&assignmentId=09dfd8f9-c276-4f13-a8fb-5472b1752fef&projectId=051c06f1-75cc-4548-856d-4923ddaba0dc","1821F336D9EA49FE815252461275C2D2-2025-05-15-19-10-17","","null","","images/causal_sequence/museum_causal/museum_causal_5.png","null","",""
"","","","","","image-button-response","102","440525","0.0-14.0-1.0-1.4","1821F336D9EA49FE815252461275C2D2","1821F336D9EA49FE815252461275C2D2","09dfd8f9-c276-4f13-a8fb-5472b1752fef","051c06f1-75cc-4548-856d-4923ddaba0dc","{""num_scrambled_semantic"":""8"",""num_scrambled_causal"":""4"",""num_scrambled_schematic"":""4"",""participantId"":""1821F336D9EA49FE815252461275C2D2"",""assignmentId"":""09dfd8f9-c276-4f13-a8fb-5472b1752fef"",""projectId"":""051c06f1-75cc-4548-856d-4923ddaba0dc""}","https://test12345.live/?num_scrambled_semantic=8&num_scrambled_causal=4&num_scrambled_schematic=4&participantId=1821F336D9EA49FE815252461275C2D2&assignmentId=09dfd8f9-c276-4f13-a8fb-5472b1752fef&projectId=051c06f1-75cc-4548-856d-4923ddaba0dc","1821F336D9EA49FE815252461275C2D2-2025-05-15-19-10-17","","869","","images/causal_sequence/museum_causal/museum_causal_5.png","0","",""
"","","","","","image-button-response","103","442330","0.0-14.0-1.0-2.4","1821F336D9EA49FE815252461275C2D2","1821F336D9EA49FE815252461275C2D2","09dfd8f9-c276-4f13-a8fb-5472b1752fef","051c06f1-75cc-4548-856d-4923ddaba0dc","{""num_scrambled_semantic"":""8"",""num_scrambled_causal"":""4"",""num_scrambled_schematic"":""4"",""participantId"":""1821F336D9EA49FE815252461275C2D2"",""assignmentId"":""09dfd8f9-c276-4f13-a8fb-5472b1752fef"",""projectId"":""051c06f1-75cc-4548-856d-4923ddaba0dc""}","https://test12345.live/?num_scrambled_semantic=8&num_scrambled_causal=4&num_scrambled_schematic=4&participantId=1821F336D9EA49FE815252461275C2D2&assignmentId=09dfd8f9-c276-4f13-a8fb-5472b1752fef&projectId=051c06f1-75cc-4548-856d-4923ddaba0dc","1821F336D9EA49FE815252461275C2D2-2025-05-15-19-10-17","","null","","[]","null","",""
"","","","","","image-button-response","104","446834","0.0-14.0-1.0-0.5","1821F336D9EA49FE815252461275C2D2","1821F336D9EA49FE815252461275C2D2","09dfd8f9-c276-4f13-a8fb-5472b1752fef","051c06f1-75cc-4548-856d-4923ddaba0dc","{""num_scrambled_semantic"":""8"",""num_scrambled_causal"":""4"",""num_scrambled_schematic"":""4"",""participantId"":""1821F336D9EA49FE815252461275C2D2"",""assignmentId"":""09dfd8f9-c276-4f13-a8fb-5472b1752fef"",""projectId"":""051c06f1-75cc-4548-856d-4923ddaba0dc""}","https://test12345.live/?num_scrambled_semantic=8&num_scrambled_causal=4&num_scrambled_schematic=4&participantId=1821F336D9EA49FE815252461275C2D2&assignmentId=09dfd8f9-c276-4f13-a8fb-5472b1752fef&projectId=051c06f1-75cc-4548-856d-4923ddaba0dc","1821F336D9EA49FE815252461275C2D2-2025-05-15-19-10-17","","null","","images/causal_sequence/museum_causal/museum_causal_9.png","null","",""
"","","","","","image-button-response","105","447374","0.0-14.0-1.0-1.5","1821F336D9EA49FE815252461275C2D2","1821F336D9EA49FE815252461275C2D2","09dfd8f9-c276-4f13-a8fb-5472b1752fef","051c06f1-75cc-4548-856d-4923ddaba0dc","{""num_scrambled_semantic"":""8"",""num_scrambled_causal"":""4"",""num_scrambled_schematic"":""4"",""participantId"":""1821F336D9EA49FE815252461275C2D2"",""assignmentId"":""09dfd8f9-c276-4f13-a8fb-5472b1752fef"",""projectId"":""051c06f1-75cc-4548-856d-4923ddaba0dc""}","https://test12345.live/?num_scrambled_semantic=8&num_scrambled_causal=4&num_scrambled_schematic=4&participantId=1821F336D9EA49FE815252461275C2D2&assignmentId=09dfd8f9-c276-4f13-a8fb-5472b1752fef&projectId=051c06f1-75cc-4548-856d-4923ddaba0dc","1821F336D9EA49FE815252461275C2D2-2025-05-15-19-10-17","","538","","images/causal_sequence/museum_causal/museum_causal_9.png","1","",""
"","","","","","image-button-response","106","449181","0.0-14.0-1.0-2.5","1821F336D9EA49FE815252461275C2D2","1821F336D9EA49FE815252461275C2D2","09dfd8f9-c276-4f13-a8fb-5472b1752fef","051c06f1-75cc-4548-856d-4923ddaba0dc","{""num_scrambled_semantic"":""8"",""num_scrambled_causal"":""4"",""num_scrambled_schematic"":""4"",""participantId"":""1821F336D9EA49FE815252461275C2D2"",""assignmentId"":""09dfd8f9-c276-4f13-a8fb-5472b1752fef"",""projectId"":""051c06f1-75cc-4548-856d-4923ddaba0dc""}","https://test12345.live/?num_scrambled_semantic=8&num_scrambled_causal=4&num_scrambled_schematic=4&participantId=1821F336D9EA49FE815252461275C2D2&assignmentId=09dfd8f9-c276-4f13-a8fb-5472b1752fef&projectId=051c06f1-75cc-4548-856d-4923ddaba0dc","1821F336D9EA49FE815252461275C2D2-2025-05-15-19-10-17","","null","","[]","null","",""
"","","","","","image-button-response","107","453688","0.0-14.0-1.0-0.6","1821F336D9EA49FE815252461275C2D2","1821F336D9EA49FE815252461275C2D2","09dfd8f9-c276-4f13-a8fb-5472b1752fef","051c06f1-75cc-4548-856d-4923ddaba0dc","{""num_scrambled_semantic"":""8"",""num_scrambled_causal"":""4"",""num_scrambled_schematic"":""4"",""participantId"":""1821F336D9EA49FE815252461275C2D2"",""assignmentId"":""09dfd8f9-c276-4f13-a8fb-5472b1752fef"",""projectId"":""051c06f1-75cc-4548-856d-4923ddaba0dc""}","https://test12345.live/?num_scrambled_semantic=8&num_scrambled_causal=4&num_scrambled_schematic=4&participantId=1821F336D9EA49FE815252461275C2D2&assignmentId=09dfd8f9-c276-4f13-a8fb-5472b1752fef&projectId=051c06f1-75cc-4548-856d-4923ddaba0dc","1821F336D9EA49FE815252461275C2D2-2025-05-15-19-10-17","","null","","images/causal_sequence/museum_causal/museum_causal_2.png","null","",""
"","","","","","image-button-response","108","455741","0.0-14.0-1.0-1.6","1821F336D9EA49FE815252461275C2D2","1821F336D9EA49FE815252461275C2D2","09dfd8f9-c276-4f13-a8fb-5472b1752fef","051c06f1-75cc-4548-856d-4923ddaba0dc","{""num_scrambled_semantic"":""8"",""num_scrambled_causal"":""4"",""num_scrambled_schematic"":""4"",""participantId"":""1821F336D9EA49FE815252461275C2D2"",""assignmentId"":""09dfd8f9-c276-4f13-a8fb-5472b1752fef"",""projectId"":""051c06f1-75cc-4548-856d-4923ddaba0dc""}","https://test12345.live/?num_scrambled_semantic=8&num_scrambled_causal=4&num_scrambled_schematic=4&participantId=1821F336D9EA49FE815252461275C2D2&assignmentId=09dfd8f9-c276-4f13-a8fb-5472b1752fef&projectId=051c06f1-75cc-4548-856d-4923ddaba0dc","1821F336D9EA49FE815252461275C2D2-2025-05-15-19-10-17","","2050","","images/causal_sequence/museum_causal/museum_causal_2.png","1","",""
"","","","","","image-button-response","109","457545","0.0-14.0-1.0-2.6","1821F336D9EA49FE815252461275C2D2","1821F336D9EA49FE815252461275C2D2","09dfd8f9-c276-4f13-a8fb-5472b1752fef","051c06f1-75cc-4548-856d-4923ddaba0dc","{""num_scrambled_semantic"":""8"",""num_scrambled_causal"":""4"",""num_scrambled_schematic"":""4"",""participantId"":""1821F336D9EA49FE815252461275C2D2"",""assignmentId"":""09dfd8f9-c276-4f13-a8fb-5472b1752fef"",""projectId"":""051c06f1-75cc-4548-856d-4923ddaba0dc""}","https://test12345.live/?num_scrambled_semantic=8&num_scrambled_causal=4&num_scrambled_schematic=4&participantId=1821F336D9EA49FE815252461275C2D2&assignmentId=09dfd8f9-c276-4f13-a8fb-5472b1752fef&projectId=051c06f1-75cc-4548-856d-4923ddaba0dc","1821F336D9EA49FE815252461275C2D2-2025-05-15-19-10-17","","null","","[]","null","",""
"","","","","","image-button-response","110","462050","0.0-14.0-1.0-0.7","1821F336D9EA49FE815252461275C2D2","1821F336D9EA49FE815252461275C2D2","09dfd8f9-c276-4f13-a8fb-5472b1752fef","051c06f1-75cc-4548-856d-4923ddaba0dc","{""num_scrambled_semantic"":""8"",""num_scrambled_causal"":""4"",""num_scrambled_schematic"":""4"",""participantId"":""1821F336D9EA49FE815252461275C2D2"",""assignmentId"":""09dfd8f9-c276-4f13-a8fb-5472b1752fef"",""projectId"":""051c06f1-75cc-4548-856d-4923ddaba0dc""}","https://test12345.live/?num_scrambled_semantic=8&num_scrambled_causal=4&num_scrambled_schematic=4&participantId=1821F336D9EA49FE815252461275C2D2&assignmentId=09dfd8f9-c276-4f13-a8fb-5472b1752fef&projectId=051c06f1-75cc-4548-856d-4923ddaba0dc","1821F336D9EA49FE815252461275C2D2-2025-05-15-19-10-17","","null","","images/causal_sequence/museum_causal/museum_causal_4.png","null","",""
"","","","","","image-button-response","111","462757","0.0-14.0-1.0-1.7","1821F336D9EA49FE815252461275C2D2","1821F336D9EA49FE815252461275C2D2","09dfd8f9-c276-4f13-a8fb-5472b1752fef","051c06f1-75cc-4548-856d-4923ddaba0dc","{""num_scrambled_semantic"":""8"",""num_scrambled_causal"":""4"",""num_scrambled_schematic"":""4"",""participantId"":""1821F336D9EA49FE815252461275C2D2"",""assignmentId"":""09dfd8f9-c276-4f13-a8fb-5472b1752fef"",""projectId"":""051c06f1-75cc-4548-856d-4923ddaba0dc""}","https://test12345.live/?num_scrambled_semantic=8&num_scrambled_causal=4&num_scrambled_schematic=4&participantId=1821F336D9EA49FE815252461275C2D2&assignmentId=09dfd8f9-c276-4f13-a8fb-5472b1752fef&projectId=051c06f1-75cc-4548-856d-4923ddaba0dc","1821F336D9EA49FE815252461275C2D2-2025-05-15-19-10-17","","705","","images/causal_sequence/museum_causal/museum_causal_4.png","1","",""
"","","","","","image-button-response","112","464560","0.0-14.0-1.0-2.7","1821F336D9EA49FE815252461275C2D2","1821F336D9EA49FE815252461275C2D2","09dfd8f9-c276-4f13-a8fb-5472b1752fef","051c06f1-75cc-4548-856d-4923ddaba0dc","{""num_scrambled_semantic"":""8"",""num_scrambled_causal"":""4"",""num_scrambled_schematic"":""4"",""participantId"":""1821F336D9EA49FE815252461275C2D2"",""assignmentId"":""09dfd8f9-c276-4f13-a8fb-5472b1752fef"",""projectId"":""051c06f1-75cc-4548-856d-4923ddaba0dc""}","https://test12345.live/?num_scrambled_semantic=8&num_scrambled_causal=4&num_scrambled_schematic=4&participantId=1821F336D9EA49FE815252461275C2D2&assignmentId=09dfd8f9-c276-4f13-a8fb-5472b1752fef&projectId=051c06f1-75cc-4548-856d-4923ddaba0dc","1821F336D9EA49FE815252461275C2D2-2025-05-15-19-10-17","","null","","[]","null","",""
"","","","","","image-button-response","113","469062","0.0-14.0-1.0-0.8","1821F336D9EA49FE815252461275C2D2","1821F336D9EA49FE815252461275C2D2","09dfd8f9-c276-4f13-a8fb-5472b1752fef","051c06f1-75cc-4548-856d-4923ddaba0dc","{""num_scrambled_semantic"":""8"",""num_scrambled_causal"":""4"",""num_scrambled_schematic"":""4"",""participantId"":""1821F336D9EA49FE815252461275C2D2"",""assignmentId"":""09dfd8f9-c276-4f13-a8fb-5472b1752fef"",""projectId"":""051c06f1-75cc-4548-856d-4923ddaba0dc""}","https://test12345.live/?num_scrambled_semantic=8&num_scrambled_causal=4&num_scrambled_schematic=4&participantId=1821F336D9EA49FE815252461275C2D2&assignmentId=09dfd8f9-c276-4f13-a8fb-5472b1752fef&projectId=051c06f1-75cc-4548-856d-4923ddaba0dc","1821F336D9EA49FE815252461275C2D2-2025-05-15-19-10-17","","null","","images/causal_sequence/museum_causal/museum_causal_1.png","null","",""
"","","","","","image-button-response","114","470824","0.0-14.0-1.0-1.8","1821F336D9EA49FE815252461275C2D2","1821F336D9EA49FE815252461275C2D2","09dfd8f9-c276-4f13-a8fb-5472b1752fef","051c06f1-75cc-4548-856d-4923ddaba0dc","{""num_scrambled_semantic"":""8"",""num_scrambled_causal"":""4"",""num_scrambled_schematic"":""4"",""participantId"":""1821F336D9EA49FE815252461275C2D2"",""assignmentId"":""09dfd8f9-c276-4f13-a8fb-5472b1752fef"",""projectId"":""051c06f1-75cc-4548-856d-4923ddaba0dc""}","https://test12345.live/?num_scrambled_semantic=8&num_scrambled_causal=4&num_scrambled_schematic=4&participantId=1821F336D9EA49FE815252461275C2D2&assignmentId=09dfd8f9-c276-4f13-a8fb-5472b1752fef&projectId=051c06f1-75cc-4548-856d-4923ddaba0dc","1821F336D9EA49FE815252461275C2D2-2025-05-15-19-10-17","","1760","","images/causal_sequence/museum_causal/museum_causal_1.png","0","",""
