"success","timeout","failed_images","failed_audio","failed_video","trial_type","trial_index","time_elapsed","internal_node_id","subject","subject_id","study_id","session_id","urlvar","current_url","audio_id","view_history","rt","device_id","stimulus","response","estimated_stimulus_onset","seq_name"
"true","false","[]","[]","[]","preload","0","5298","0.0-0.0","18A81CA8EB16496187F786A35105372D","18A81CA8EB16496187F786A35105372D","d46309fe-ec37-4297-942e-9ff8dd8007b8","9076ac92-be42-43a2-9634-8b67c7fe93a7","{""num_scrambled_semantic"":""8"",""num_scrambled_causal"":""4"",""num_scrambled_schematic"":""4"",""participantId"":""18A81CA8EB16496187F786A35105372D"",""assignmentId"":""d46309fe-ec37-4297-942e-9ff8dd8007b8"",""projectId"":""9076ac92-be42-43a2-9634-8b67c7fe93a7""}","https://test12345.live/?num_scrambled_semantic=8&num_scrambled_causal=4&num_scrambled_schematic=4&participantId=18A81CA8EB16496187F786A35105372D&assignmentId=d46309fe-ec37-4297-942e-9ff8dd8007b8&projectId=9076ac92-be42-43a2-9634-8b67c7fe93a7","18A81CA8EB16496187F786A35105372D-2025-05-22-19-51-04","","","","","","",""
"","","","","","instructions","1","30516","0.0-1.0","18A81CA8EB16496187F786A35105372D","18A81CA8EB16496187F786A35105372D","d46309fe-ec37-4297-942e-9ff8dd8007b8","9076ac92-be42-43a2-9634-8b67c7fe93a7","{""num_scrambled_semantic"":""8"",""num_scrambled_causal"":""4"",""num_scrambled_schematic"":""4"",""participantId"":""18A81CA8EB16496187F786A35105372D"",""assignmentId"":""d46309fe-ec37-4297-942e-9ff8dd8007b8"",""projectId"":""9076ac92-be42-43a2-9634-8b67c7fe93a7""}","https://test12345.live/?num_scrambled_semantic=8&num_scrambled_causal=4&num_scrambled_schematic=4&participantId=18A81CA8EB16496187F786A35105372D&assignmentId=d46309fe-ec37-4297-942e-9ff8dd8007b8&projectId=9076ac92-be42-43a2-9634-8b67c7fe93a7","18A81CA8EB16496187F786A35105372D-2025-05-22-19-51-04","[{""page_index"":0,""viewing_time"":25217}]","25217","","","","",""
"","","","","","instructions","2","54807","0.0-2.0","18A81CA8EB16496187F786A35105372D","18A81CA8EB16496187F786A35105372D","d46309fe-ec37-4297-942e-9ff8dd8007b8","9076ac92-be42-43a2-9634-8b67c7fe93a7","{""num_scrambled_semantic"":""8"",""num_scrambled_causal"":""4"",""num_scrambled_schematic"":""4"",""participantId"":""18A81CA8EB16496187F786A35105372D"",""assignmentId"":""d46309fe-ec37-4297-942e-9ff8dd8007b8"",""projectId"":""9076ac92-be42-43a2-9634-8b67c7fe93a7""}","https://test12345.live/?num_scrambled_semantic=8&num_scrambled_causal=4&num_scrambled_schematic=4&participantId=18A81CA8EB16496187F786A35105372D&assignmentId=d46309fe-ec37-4297-942e-9ff8dd8007b8&projectId=9076ac92-be42-43a2-9634-8b67c7fe93a7","18A81CA8EB16496187F786A35105372D-2025-05-22-19-51-04","[{""page_index"":0,""viewing_time"":24291}]","24291","","","","",""
"true","","","","","fullscreen","3","57436","0.0-3.0","18A81CA8EB16496187F786A35105372D","18A81CA8EB16496187F786A35105372D","d46309fe-ec37-4297-942e-9ff8dd8007b8","9076ac92-be42-43a2-9634-8b67c7fe93a7","{""num_scrambled_semantic"":""8"",""num_scrambled_causal"":""4"",""num_scrambled_schematic"":""4"",""participantId"":""18A81CA8EB16496187F786A35105372D"",""assignmentId"":""d46309fe-ec37-4297-942e-9ff8dd8007b8"",""projectId"":""9076ac92-be42-43a2-9634-8b67c7fe93a7""}","https://test12345.live/?num_scrambled_semantic=8&num_scrambled_causal=4&num_scrambled_schematic=4&participantId=18A81CA8EB16496187F786A35105372D&assignmentId=d46309fe-ec37-4297-942e-9ff8dd8007b8&projectId=9076ac92-be42-43a2-9634-8b67c7fe93a7","18A81CA8EB16496187F786A35105372D-2025-05-22-19-51-04","","1614","","","","",""
"","","","","","initialize-microphone","4","66168","0.0-4.0-0.0","18A81CA8EB16496187F786A35105372D","18A81CA8EB16496187F786A35105372D","d46309fe-ec37-4297-942e-9ff8dd8007b8","9076ac92-be42-43a2-9634-8b67c7fe93a7","{""num_scrambled_semantic"":""8"",""num_scrambled_causal"":""4"",""num_scrambled_schematic"":""4"",""participantId"":""18A81CA8EB16496187F786A35105372D"",""assignmentId"":""d46309fe-ec37-4297-942e-9ff8dd8007b8"",""projectId"":""9076ac92-be42-43a2-9634-8b67c7fe93a7""}","https://test12345.live/?num_scrambled_semantic=8&num_scrambled_causal=4&num_scrambled_schematic=4&participantId=18A81CA8EB16496187F786A35105372D&assignmentId=d46309fe-ec37-4297-942e-9ff8dd8007b8&projectId=9076ac92-be42-43a2-9634-8b67c7fe93a7","18A81CA8EB16496187F786A35105372D-2025-05-22-19-51-04","","","1e69c7a1bdce9da83d2fe699e7e0da41fbafc26fb0931a9c388c2a099a5fa544","","","",""
"","","","","","html-audio-response","5","83820","0.0-4.0-1.0","18A81CA8EB16496187F786A35105372D","18A81CA8EB16496187F786A35105372D","d46309fe-ec37-4297-942e-9ff8dd8007b8","9076ac92-be42-43a2-9634-8b67c7fe93a7","{""num_scrambled_semantic"":""8"",""num_scrambled_causal"":""4"",""num_scrambled_schematic"":""4"",""participantId"":""18A81CA8EB16496187F786A35105372D"",""assignmentId"":""d46309fe-ec37-4297-942e-9ff8dd8007b8"",""projectId"":""9076ac92-be42-43a2-9634-8b67c7fe93a7""}","https://test12345.live/?num_scrambled_semantic=8&num_scrambled_causal=4&num_scrambled_schematic=4&participantId=18A81CA8EB16496187F786A35105372D&assignmentId=d46309fe-ec37-4297-942e-9ff8dd8007b8&projectId=9076ac92-be42-43a2-9634-8b67c7fe93a7","18A81CA8EB16496187F786A35105372D-2025-05-22-19-51-04","","9459","","<span style=""color: red; font-size: 24px""> NOW RECORDING</span>
        <p>Please test Microphone</p>","","3",""
"","","","","","html-button-response","6","85195","0.0-4.0-2.0","18A81CA8EB16496187F786A35105372D","18A81CA8EB16496187F786A35105372D","d46309fe-ec37-4297-942e-9ff8dd8007b8","9076ac92-be42-43a2-9634-8b67c7fe93a7","{""num_scrambled_semantic"":""8"",""num_scrambled_causal"":""4"",""num_scrambled_schematic"":""4"",""participantId"":""18A81CA8EB16496187F786A35105372D"",""assignmentId"":""d46309fe-ec37-4297-942e-9ff8dd8007b8"",""projectId"":""9076ac92-be42-43a2-9634-8b67c7fe93a7""}","https://test12345.live/?num_scrambled_semantic=8&num_scrambled_causal=4&num_scrambled_schematic=4&participantId=18A81CA8EB16496187F786A35105372D&assignmentId=d46309fe-ec37-4297-942e-9ff8dd8007b8&projectId=9076ac92-be42-43a2-9634-8b67c7fe93a7","18A81CA8EB16496187F786A35105372D-2025-05-22-19-51-04","","1375","","<p style=""font-size:48px; color:red;"">Is Microphone OK?</p>","1","",""
"","","","","","instructions","7","91242","0.0-5.0","18A81CA8EB16496187F786A35105372D","18A81CA8EB16496187F786A35105372D","d46309fe-ec37-4297-942e-9ff8dd8007b8","9076ac92-be42-43a2-9634-8b67c7fe93a7","{""num_scrambled_semantic"":""8"",""num_scrambled_causal"":""4"",""num_scrambled_schematic"":""4"",""participantId"":""18A81CA8EB16496187F786A35105372D"",""assignmentId"":""d46309fe-ec37-4297-942e-9ff8dd8007b8"",""projectId"":""9076ac92-be42-43a2-9634-8b67c7fe93a7""}","https://test12345.live/?num_scrambled_semantic=8&num_scrambled_causal=4&num_scrambled_schematic=4&participantId=18A81CA8EB16496187F786A35105372D&assignmentId=d46309fe-ec37-4297-942e-9ff8dd8007b8&projectId=9076ac92-be42-43a2-9634-8b67c7fe93a7","18A81CA8EB16496187F786A35105372D-2025-05-22-19-51-04","[{""page_index"":0,""viewing_time"":1928},{""page_index"":1,""viewing_time"":4119}]","6047","","","","",""
"","","","","","image-button-response","8","97255","0.0-6.0-0.0","18A81CA8EB16496187F786A35105372D","18A81CA8EB16496187F786A35105372D","d46309fe-ec37-4297-942e-9ff8dd8007b8","9076ac92-be42-43a2-9634-8b67c7fe93a7","{""num_scrambled_semantic"":""8"",""num_scrambled_causal"":""4"",""num_scrambled_schematic"":""4"",""participantId"":""18A81CA8EB16496187F786A35105372D"",""assignmentId"":""d46309fe-ec37-4297-942e-9ff8dd8007b8"",""projectId"":""9076ac92-be42-43a2-9634-8b67c7fe93a7""}","https://test12345.live/?num_scrambled_semantic=8&num_scrambled_causal=4&num_scrambled_schematic=4&participantId=18A81CA8EB16496187F786A35105372D&assignmentId=d46309fe-ec37-4297-942e-9ff8dd8007b8&projectId=9076ac92-be42-43a2-9634-8b67c7fe93a7","18A81CA8EB16496187F786A35105372D-2025-05-22-19-51-04","","null","","images/instructions/movie_0.png","null","",""
"","","","","","image-button-response","9","101762","0.0-6.0-1.0-0.0","18A81CA8EB16496187F786A35105372D","18A81CA8EB16496187F786A35105372D","d46309fe-ec37-4297-942e-9ff8dd8007b8","9076ac92-be42-43a2-9634-8b67c7fe93a7","{""num_scrambled_semantic"":""8"",""num_scrambled_causal"":""4"",""num_scrambled_schematic"":""4"",""participantId"":""18A81CA8EB16496187F786A35105372D"",""assignmentId"":""d46309fe-ec37-4297-942e-9ff8dd8007b8"",""projectId"":""9076ac92-be42-43a2-9634-8b67c7fe93a7""}","https://test12345.live/?num_scrambled_semantic=8&num_scrambled_causal=4&num_scrambled_schematic=4&participantId=18A81CA8EB16496187F786A35105372D&assignmentId=d46309fe-ec37-4297-942e-9ff8dd8007b8&projectId=9076ac92-be42-43a2-9634-8b67c7fe93a7","18A81CA8EB16496187F786A35105372D-2025-05-22-19-51-04","","null","","images/instructions/movie_1.png","null","",""
"","","","","","image-button-response","10","103517","0.0-6.0-1.0-1.0","18A81CA8EB16496187F786A35105372D","18A81CA8EB16496187F786A35105372D","d46309fe-ec37-4297-942e-9ff8dd8007b8","9076ac92-be42-43a2-9634-8b67c7fe93a7","{""num_scrambled_semantic"":""8"",""num_scrambled_causal"":""4"",""num_scrambled_schematic"":""4"",""participantId"":""18A81CA8EB16496187F786A35105372D"",""assignmentId"":""d46309fe-ec37-4297-942e-9ff8dd8007b8"",""projectId"":""9076ac92-be42-43a2-9634-8b67c7fe93a7""}","https://test12345.live/?num_scrambled_semantic=8&num_scrambled_causal=4&num_scrambled_schematic=4&participantId=18A81CA8EB16496187F786A35105372D&assignmentId=d46309fe-ec37-4297-942e-9ff8dd8007b8&projectId=9076ac92-be42-43a2-9634-8b67c7fe93a7","18A81CA8EB16496187F786A35105372D-2025-05-22-19-51-04","","1753","","images/instructions/movie_1.png","0","",""
"","","","","","image-button-response","11","105318","0.0-6.0-1.0-2.0","18A81CA8EB16496187F786A35105372D","18A81CA8EB16496187F786A35105372D","d46309fe-ec37-4297-942e-9ff8dd8007b8","9076ac92-be42-43a2-9634-8b67c7fe93a7","{""num_scrambled_semantic"":""8"",""num_scrambled_causal"":""4"",""num_scrambled_schematic"":""4"",""participantId"":""18A81CA8EB16496187F786A35105372D"",""assignmentId"":""d46309fe-ec37-4297-942e-9ff8dd8007b8"",""projectId"":""9076ac92-be42-43a2-9634-8b67c7fe93a7""}","https://test12345.live/?num_scrambled_semantic=8&num_scrambled_causal=4&num_scrambled_schematic=4&participantId=18A81CA8EB16496187F786A35105372D&assignmentId=d46309fe-ec37-4297-942e-9ff8dd8007b8&projectId=9076ac92-be42-43a2-9634-8b67c7fe93a7","18A81CA8EB16496187F786A35105372D-2025-05-22-19-51-04","","null","","[]","null","",""
"","","","","","image-button-response","12","109820","0.0-6.0-1.0-0.1","18A81CA8EB16496187F786A35105372D","18A81CA8EB16496187F786A35105372D","d46309fe-ec37-4297-942e-9ff8dd8007b8","9076ac92-be42-43a2-9634-8b67c7fe93a7","{""num_scrambled_semantic"":""8"",""num_scrambled_causal"":""4"",""num_scrambled_schematic"":""4"",""participantId"":""18A81CA8EB16496187F786A35105372D"",""assignmentId"":""d46309fe-ec37-4297-942e-9ff8dd8007b8"",""projectId"":""9076ac92-be42-43a2-9634-8b67c7fe93a7""}","https://test12345.live/?num_scrambled_semantic=8&num_scrambled_causal=4&num_scrambled_schematic=4&participantId=18A81CA8EB16496187F786A35105372D&assignmentId=d46309fe-ec37-4297-942e-9ff8dd8007b8&projectId=9076ac92-be42-43a2-9634-8b67c7fe93a7","18A81CA8EB16496187F786A35105372D-2025-05-22-19-51-04","","null","","images/instructions/movie_2.png","null","",""
"","","","","","image-button-response","13","110832","0.0-6.0-1.0-1.1","18A81CA8EB16496187F786A35105372D","18A81CA8EB16496187F786A35105372D","d46309fe-ec37-4297-942e-9ff8dd8007b8","9076ac92-be42-43a2-9634-8b67c7fe93a7","{""num_scrambled_semantic"":""8"",""num_scrambled_causal"":""4"",""num_scrambled_schematic"":""4"",""participantId"":""18A81CA8EB16496187F786A35105372D"",""assignmentId"":""d46309fe-ec37-4297-942e-9ff8dd8007b8"",""projectId"":""9076ac92-be42-43a2-9634-8b67c7fe93a7""}","https://test12345.live/?num_scrambled_semantic=8&num_scrambled_causal=4&num_scrambled_schematic=4&participantId=18A81CA8EB16496187F786A35105372D&assignmentId=d46309fe-ec37-4297-942e-9ff8dd8007b8&projectId=9076ac92-be42-43a2-9634-8b67c7fe93a7","18A81CA8EB16496187F786A35105372D-2025-05-22-19-51-04","","1011","","images/instructions/movie_2.png","0","",""
"","","","","","image-button-response","14","112639","0.0-6.0-1.0-2.1","18A81CA8EB16496187F786A35105372D","18A81CA8EB16496187F786A35105372D","d46309fe-ec37-4297-942e-9ff8dd8007b8","9076ac92-be42-43a2-9634-8b67c7fe93a7","{""num_scrambled_semantic"":""8"",""num_scrambled_causal"":""4"",""num_scrambled_schematic"":""4"",""participantId"":""18A81CA8EB16496187F786A35105372D"",""assignmentId"":""d46309fe-ec37-4297-942e-9ff8dd8007b8"",""projectId"":""9076ac92-be42-43a2-9634-8b67c7fe93a7""}","https://test12345.live/?num_scrambled_semantic=8&num_scrambled_causal=4&num_scrambled_schematic=4&participantId=18A81CA8EB16496187F786A35105372D&assignmentId=d46309fe-ec37-4297-942e-9ff8dd8007b8&projectId=9076ac92-be42-43a2-9634-8b67c7fe93a7","18A81CA8EB16496187F786A35105372D-2025-05-22-19-51-04","","null","","[]","null","",""
"","","","","","image-button-response","15","117148","0.0-6.0-1.0-0.2","18A81CA8EB16496187F786A35105372D","18A81CA8EB16496187F786A35105372D","d46309fe-ec37-4297-942e-9ff8dd8007b8","9076ac92-be42-43a2-9634-8b67c7fe93a7","{""num_scrambled_semantic"":""8"",""num_scrambled_causal"":""4"",""num_scrambled_schematic"":""4"",""participantId"":""18A81CA8EB16496187F786A35105372D"",""assignmentId"":""d46309fe-ec37-4297-942e-9ff8dd8007b8"",""projectId"":""9076ac92-be42-43a2-9634-8b67c7fe93a7""}","https://test12345.live/?num_scrambled_semantic=8&num_scrambled_causal=4&num_scrambled_schematic=4&participantId=18A81CA8EB16496187F786A35105372D&assignmentId=d46309fe-ec37-4297-942e-9ff8dd8007b8&projectId=9076ac92-be42-43a2-9634-8b67c7fe93a7","18A81CA8EB16496187F786A35105372D-2025-05-22-19-51-04","","null","","images/instructions/movie_3.png","null","",""
"","","","","","image-button-response","16","117853","0.0-6.0-1.0-1.2","18A81CA8EB16496187F786A35105372D","18A81CA8EB16496187F786A35105372D","d46309fe-ec37-4297-942e-9ff8dd8007b8","9076ac92-be42-43a2-9634-8b67c7fe93a7","{""num_scrambled_semantic"":""8"",""num_scrambled_causal"":""4"",""num_scrambled_schematic"":""4"",""participantId"":""18A81CA8EB16496187F786A35105372D"",""assignmentId"":""d46309fe-ec37-4297-942e-9ff8dd8007b8"",""projectId"":""9076ac92-be42-43a2-9634-8b67c7fe93a7""}","https://test12345.live/?num_scrambled_semantic=8&num_scrambled_causal=4&num_scrambled_schematic=4&participantId=18A81CA8EB16496187F786A35105372D&assignmentId=d46309fe-ec37-4297-942e-9ff8dd8007b8&projectId=9076ac92-be42-43a2-9634-8b67c7fe93a7","18A81CA8EB16496187F786A35105372D-2025-05-22-19-51-04","","704","","images/instructions/movie_3.png","0","",""
"","","","","","image-button-response","17","119655","0.0-6.0-1.0-2.2","18A81CA8EB16496187F786A35105372D","18A81CA8EB16496187F786A35105372D","d46309fe-ec37-4297-942e-9ff8dd8007b8","9076ac92-be42-43a2-9634-8b67c7fe93a7","{""num_scrambled_semantic"":""8"",""num_scrambled_causal"":""4"",""num_scrambled_schematic"":""4"",""participantId"":""18A81CA8EB16496187F786A35105372D"",""assignmentId"":""d46309fe-ec37-4297-942e-9ff8dd8007b8"",""projectId"":""9076ac92-be42-43a2-9634-8b67c7fe93a7""}","https://test12345.live/?num_scrambled_semantic=8&num_scrambled_causal=4&num_scrambled_schematic=4&participantId=18A81CA8EB16496187F786A35105372D&assignmentId=d46309fe-ec37-4297-942e-9ff8dd8007b8&projectId=9076ac92-be42-43a2-9634-8b67c7fe93a7","18A81CA8EB16496187F786A35105372D-2025-05-22-19-51-04","","null","","[]","null","",""
"","","","","","image-button-response","18","124156","0.0-6.0-1.0-0.3","18A81CA8EB16496187F786A35105372D","18A81CA8EB16496187F786A35105372D","d46309fe-ec37-4297-942e-9ff8dd8007b8","9076ac92-be42-43a2-9634-8b67c7fe93a7","{""num_scrambled_semantic"":""8"",""num_scrambled_causal"":""4"",""num_scrambled_schematic"":""4"",""participantId"":""18A81CA8EB16496187F786A35105372D"",""assignmentId"":""d46309fe-ec37-4297-942e-9ff8dd8007b8"",""projectId"":""9076ac92-be42-43a2-9634-8b67c7fe93a7""}","https://test12345.live/?num_scrambled_semantic=8&num_scrambled_causal=4&num_scrambled_schematic=4&participantId=18A81CA8EB16496187F786A35105372D&assignmentId=d46309fe-ec37-4297-942e-9ff8dd8007b8&projectId=9076ac92-be42-43a2-9634-8b67c7fe93a7","18A81CA8EB16496187F786A35105372D-2025-05-22-19-51-04","","null","","images/instructions/movie_4.png","null","",""
"","","","","","image-button-response","19","125153","0.0-6.0-1.0-1.3","18A81CA8EB16496187F786A35105372D","18A81CA8EB16496187F786A35105372D","d46309fe-ec37-4297-942e-9ff8dd8007b8","9076ac92-be42-43a2-9634-8b67c7fe93a7","{""num_scrambled_semantic"":""8"",""num_scrambled_causal"":""4"",""num_scrambled_schematic"":""4"",""participantId"":""18A81CA8EB16496187F786A35105372D"",""assignmentId"":""d46309fe-ec37-4297-942e-9ff8dd8007b8"",""projectId"":""9076ac92-be42-43a2-9634-8b67c7fe93a7""}","https://test12345.live/?num_scrambled_semantic=8&num_scrambled_causal=4&num_scrambled_schematic=4&participantId=18A81CA8EB16496187F786A35105372D&assignmentId=d46309fe-ec37-4297-942e-9ff8dd8007b8&projectId=9076ac92-be42-43a2-9634-8b67c7fe93a7","18A81CA8EB16496187F786A35105372D-2025-05-22-19-51-04","","996","","images/instructions/movie_4.png","0","",""
"","","","","","image-button-response","20","126957","0.0-6.0-1.0-2.3","18A81CA8EB16496187F786A35105372D","18A81CA8EB16496187F786A35105372D","d46309fe-ec37-4297-942e-9ff8dd8007b8","9076ac92-be42-43a2-9634-8b67c7fe93a7","{""num_scrambled_semantic"":""8"",""num_scrambled_causal"":""4"",""num_scrambled_schematic"":""4"",""participantId"":""18A81CA8EB16496187F786A35105372D"",""assignmentId"":""d46309fe-ec37-4297-942e-9ff8dd8007b8"",""projectId"":""9076ac92-be42-43a2-9634-8b67c7fe93a7""}","https://test12345.live/?num_scrambled_semantic=8&num_scrambled_causal=4&num_scrambled_schematic=4&participantId=18A81CA8EB16496187F786A35105372D&assignmentId=d46309fe-ec37-4297-942e-9ff8dd8007b8&projectId=9076ac92-be42-43a2-9634-8b67c7fe93a7","18A81CA8EB16496187F786A35105372D-2025-05-22-19-51-04","","null","","[]","null","",""
"","","","","","instructions","21","134888","0.0-7.0","18A81CA8EB16496187F786A35105372D","18A81CA8EB16496187F786A35105372D","d46309fe-ec37-4297-942e-9ff8dd8007b8","9076ac92-be42-43a2-9634-8b67c7fe93a7","{""num_scrambled_semantic"":""8"",""num_scrambled_causal"":""4"",""num_scrambled_schematic"":""4"",""participantId"":""18A81CA8EB16496187F786A35105372D"",""assignmentId"":""d46309fe-ec37-4297-942e-9ff8dd8007b8"",""projectId"":""9076ac92-be42-43a2-9634-8b67c7fe93a7""}","https://test12345.live/?num_scrambled_semantic=8&num_scrambled_causal=4&num_scrambled_schematic=4&participantId=18A81CA8EB16496187F786A35105372D&assignmentId=d46309fe-ec37-4297-942e-9ff8dd8007b8&projectId=9076ac92-be42-43a2-9634-8b67c7fe93a7","18A81CA8EB16496187F786A35105372D-2025-05-22-19-51-04","[{""page_index"":0,""viewing_time"":6956},{""page_index"":1,""viewing_time"":975}]","7931","","","","",""
"","","","","","html-audio-response","22","152077","0.0-8.0","18A81CA8EB16496187F786A35105372D","18A81CA8EB16496187F786A35105372D","d46309fe-ec37-4297-942e-9ff8dd8007b8","9076ac92-be42-43a2-9634-8b67c7fe93a7","{""num_scrambled_semantic"":""8"",""num_scrambled_causal"":""4"",""num_scrambled_schematic"":""4"",""participantId"":""18A81CA8EB16496187F786A35105372D"",""assignmentId"":""d46309fe-ec37-4297-942e-9ff8dd8007b8"",""projectId"":""9076ac92-be42-43a2-9634-8b67c7fe93a7""}","https://test12345.live/?num_scrambled_semantic=8&num_scrambled_causal=4&num_scrambled_schematic=4&participantId=18A81CA8EB16496187F786A35105372D&assignmentId=d46309fe-ec37-4297-942e-9ff8dd8007b8&projectId=9076ac92-be42-43a2-9634-8b67c7fe93a7","18A81CA8EB16496187F786A35105372D-2025-05-22-19-51-04","","8840","","[""<span style=\""color: red; font-size: 24px\""> NOW RECORDING</span><p>Please say out loud all the images you saw in the exact order you saw them. Try to recall as many images as you can, but remember: getting the order right is more important than the number of images you recall.</p>""]","","4",""
"","","","","","instructions","23","153011","0.0-9.0","18A81CA8EB16496187F786A35105372D","18A81CA8EB16496187F786A35105372D","d46309fe-ec37-4297-942e-9ff8dd8007b8","9076ac92-be42-43a2-9634-8b67c7fe93a7","{""num_scrambled_semantic"":""8"",""num_scrambled_causal"":""4"",""num_scrambled_schematic"":""4"",""participantId"":""18A81CA8EB16496187F786A35105372D"",""assignmentId"":""d46309fe-ec37-4297-942e-9ff8dd8007b8"",""projectId"":""9076ac92-be42-43a2-9634-8b67c7fe93a7""}","https://test12345.live/?num_scrambled_semantic=8&num_scrambled_causal=4&num_scrambled_schematic=4&participantId=18A81CA8EB16496187F786A35105372D&assignmentId=d46309fe-ec37-4297-942e-9ff8dd8007b8&projectId=9076ac92-be42-43a2-9634-8b67c7fe93a7","18A81CA8EB16496187F786A35105372D-2025-05-22-19-51-04","[{""page_index"":0,""viewing_time"":932}]","932","","","","",""
"","","","","","image-button-response","24","159012","0.0-10.0-0.0","18A81CA8EB16496187F786A35105372D","18A81CA8EB16496187F786A35105372D","d46309fe-ec37-4297-942e-9ff8dd8007b8","9076ac92-be42-43a2-9634-8b67c7fe93a7","{""num_scrambled_semantic"":""8"",""num_scrambled_causal"":""4"",""num_scrambled_schematic"":""4"",""participantId"":""18A81CA8EB16496187F786A35105372D"",""assignmentId"":""d46309fe-ec37-4297-942e-9ff8dd8007b8"",""projectId"":""9076ac92-be42-43a2-9634-8b67c7fe93a7""}","https://test12345.live/?num_scrambled_semantic=8&num_scrambled_causal=4&num_scrambled_schematic=4&participantId=18A81CA8EB16496187F786A35105372D&assignmentId=d46309fe-ec37-4297-942e-9ff8dd8007b8&projectId=9076ac92-be42-43a2-9634-8b67c7fe93a7","18A81CA8EB16496187F786A35105372D-2025-05-22-19-51-04","","null","","images/causal_sequence/coin_causal/coin_causal_0.png","null","",""
"","","","","","image-button-response","25","163516","0.0-10.0-1.0-0.0","18A81CA8EB16496187F786A35105372D","18A81CA8EB16496187F786A35105372D","d46309fe-ec37-4297-942e-9ff8dd8007b8","9076ac92-be42-43a2-9634-8b67c7fe93a7","{""num_scrambled_semantic"":""8"",""num_scrambled_causal"":""4"",""num_scrambled_schematic"":""4"",""participantId"":""18A81CA8EB16496187F786A35105372D"",""assignmentId"":""d46309fe-ec37-4297-942e-9ff8dd8007b8"",""projectId"":""9076ac92-be42-43a2-9634-8b67c7fe93a7""}","https://test12345.live/?num_scrambled_semantic=8&num_scrambled_causal=4&num_scrambled_schematic=4&participantId=18A81CA8EB16496187F786A35105372D&assignmentId=d46309fe-ec37-4297-942e-9ff8dd8007b8&projectId=9076ac92-be42-43a2-9634-8b67c7fe93a7","18A81CA8EB16496187F786A35105372D-2025-05-22-19-51-04","","null","","images/causal_sequence/coin_causal/coin_causal_7.png","null","",""
"","","","","","image-button-response","26","165026","0.0-10.0-1.0-1.0","18A81CA8EB16496187F786A35105372D","18A81CA8EB16496187F786A35105372D","d46309fe-ec37-4297-942e-9ff8dd8007b8","9076ac92-be42-43a2-9634-8b67c7fe93a7","{""num_scrambled_semantic"":""8"",""num_scrambled_causal"":""4"",""num_scrambled_schematic"":""4"",""participantId"":""18A81CA8EB16496187F786A35105372D"",""assignmentId"":""d46309fe-ec37-4297-942e-9ff8dd8007b8"",""projectId"":""9076ac92-be42-43a2-9634-8b67c7fe93a7""}","https://test12345.live/?num_scrambled_semantic=8&num_scrambled_causal=4&num_scrambled_schematic=4&participantId=18A81CA8EB16496187F786A35105372D&assignmentId=d46309fe-ec37-4297-942e-9ff8dd8007b8&projectId=9076ac92-be42-43a2-9634-8b67c7fe93a7","18A81CA8EB16496187F786A35105372D-2025-05-22-19-51-04","","1510","","images/causal_sequence/coin_causal/coin_causal_7.png","1","",""
"","","","","","image-button-response","27","166843","0.0-10.0-1.0-2.0","18A81CA8EB16496187F786A35105372D","18A81CA8EB16496187F786A35105372D","d46309fe-ec37-4297-942e-9ff8dd8007b8","9076ac92-be42-43a2-9634-8b67c7fe93a7","{""num_scrambled_semantic"":""8"",""num_scrambled_causal"":""4"",""num_scrambled_schematic"":""4"",""participantId"":""18A81CA8EB16496187F786A35105372D"",""assignmentId"":""d46309fe-ec37-4297-942e-9ff8dd8007b8"",""projectId"":""9076ac92-be42-43a2-9634-8b67c7fe93a7""}","https://test12345.live/?num_scrambled_semantic=8&num_scrambled_causal=4&num_scrambled_schematic=4&participantId=18A81CA8EB16496187F786A35105372D&assignmentId=d46309fe-ec37-4297-942e-9ff8dd8007b8&projectId=9076ac92-be42-43a2-9634-8b67c7fe93a7","18A81CA8EB16496187F786A35105372D-2025-05-22-19-51-04","","null","","[]","null","",""
"","","","","","image-button-response","28","171348","0.0-10.0-1.0-0.1","18A81CA8EB16496187F786A35105372D","18A81CA8EB16496187F786A35105372D","d46309fe-ec37-4297-942e-9ff8dd8007b8","9076ac92-be42-43a2-9634-8b67c7fe93a7","{""num_scrambled_semantic"":""8"",""num_scrambled_causal"":""4"",""num_scrambled_schematic"":""4"",""participantId"":""18A81CA8EB16496187F786A35105372D"",""assignmentId"":""d46309fe-ec37-4297-942e-9ff8dd8007b8"",""projectId"":""9076ac92-be42-43a2-9634-8b67c7fe93a7""}","https://test12345.live/?num_scrambled_semantic=8&num_scrambled_causal=4&num_scrambled_schematic=4&participantId=18A81CA8EB16496187F786A35105372D&assignmentId=d46309fe-ec37-4297-942e-9ff8dd8007b8&projectId=9076ac92-be42-43a2-9634-8b67c7fe93a7","18A81CA8EB16496187F786A35105372D-2025-05-22-19-51-04","","null","","images/causal_sequence/coin_causal/coin_causal_3.png","null","",""
"","","","","","image-button-response","29","172793","0.0-10.0-1.0-1.1","18A81CA8EB16496187F786A35105372D","18A81CA8EB16496187F786A35105372D","d46309fe-ec37-4297-942e-9ff8dd8007b8","9076ac92-be42-43a2-9634-8b67c7fe93a7","{""num_scrambled_semantic"":""8"",""num_scrambled_causal"":""4"",""num_scrambled_schematic"":""4"",""participantId"":""18A81CA8EB16496187F786A35105372D"",""assignmentId"":""d46309fe-ec37-4297-942e-9ff8dd8007b8"",""projectId"":""9076ac92-be42-43a2-9634-8b67c7fe93a7""}","https://test12345.live/?num_scrambled_semantic=8&num_scrambled_causal=4&num_scrambled_schematic=4&participantId=18A81CA8EB16496187F786A35105372D&assignmentId=d46309fe-ec37-4297-942e-9ff8dd8007b8&projectId=9076ac92-be42-43a2-9634-8b67c7fe93a7","18A81CA8EB16496187F786A35105372D-2025-05-22-19-51-04","","1443","","images/causal_sequence/coin_causal/coin_causal_3.png","0","",""
"","","","","","image-button-response","30","174598","0.0-10.0-1.0-2.1","18A81CA8EB16496187F786A35105372D","18A81CA8EB16496187F786A35105372D","d46309fe-ec37-4297-942e-9ff8dd8007b8","9076ac92-be42-43a2-9634-8b67c7fe93a7","{""num_scrambled_semantic"":""8"",""num_scrambled_causal"":""4"",""num_scrambled_schematic"":""4"",""participantId"":""18A81CA8EB16496187F786A35105372D"",""assignmentId"":""d46309fe-ec37-4297-942e-9ff8dd8007b8"",""projectId"":""9076ac92-be42-43a2-9634-8b67c7fe93a7""}","https://test12345.live/?num_scrambled_semantic=8&num_scrambled_causal=4&num_scrambled_schematic=4&participantId=18A81CA8EB16496187F786A35105372D&assignmentId=d46309fe-ec37-4297-942e-9ff8dd8007b8&projectId=9076ac92-be42-43a2-9634-8b67c7fe93a7","18A81CA8EB16496187F786A35105372D-2025-05-22-19-51-04","","null","","[]","null","",""
"","","","","","image-button-response","31","179108","0.0-10.0-1.0-0.2","18A81CA8EB16496187F786A35105372D","18A81CA8EB16496187F786A35105372D","d46309fe-ec37-4297-942e-9ff8dd8007b8","9076ac92-be42-43a2-9634-8b67c7fe93a7","{""num_scrambled_semantic"":""8"",""num_scrambled_causal"":""4"",""num_scrambled_schematic"":""4"",""participantId"":""18A81CA8EB16496187F786A35105372D"",""assignmentId"":""d46309fe-ec37-4297-942e-9ff8dd8007b8"",""projectId"":""9076ac92-be42-43a2-9634-8b67c7fe93a7""}","https://test12345.live/?num_scrambled_semantic=8&num_scrambled_causal=4&num_scrambled_schematic=4&participantId=18A81CA8EB16496187F786A35105372D&assignmentId=d46309fe-ec37-4297-942e-9ff8dd8007b8&projectId=9076ac92-be42-43a2-9634-8b67c7fe93a7","18A81CA8EB16496187F786A35105372D-2025-05-22-19-51-04","","null","","images/causal_sequence/coin_causal/coin_causal_4.png","null","",""
"","","","","","image-button-response","32","179660","0.0-10.0-1.0-1.2","18A81CA8EB16496187F786A35105372D","18A81CA8EB16496187F786A35105372D","d46309fe-ec37-4297-942e-9ff8dd8007b8","9076ac92-be42-43a2-9634-8b67c7fe93a7","{""num_scrambled_semantic"":""8"",""num_scrambled_causal"":""4"",""num_scrambled_schematic"":""4"",""participantId"":""18A81CA8EB16496187F786A35105372D"",""assignmentId"":""d46309fe-ec37-4297-942e-9ff8dd8007b8"",""projectId"":""9076ac92-be42-43a2-9634-8b67c7fe93a7""}","https://test12345.live/?num_scrambled_semantic=8&num_scrambled_causal=4&num_scrambled_schematic=4&participantId=18A81CA8EB16496187F786A35105372D&assignmentId=d46309fe-ec37-4297-942e-9ff8dd8007b8&projectId=9076ac92-be42-43a2-9634-8b67c7fe93a7","18A81CA8EB16496187F786A35105372D-2025-05-22-19-51-04","","551","","images/causal_sequence/coin_causal/coin_causal_4.png","0","",""
"","","","","","image-button-response","33","181467","0.0-10.0-1.0-2.2","18A81CA8EB16496187F786A35105372D","18A81CA8EB16496187F786A35105372D","d46309fe-ec37-4297-942e-9ff8dd8007b8","9076ac92-be42-43a2-9634-8b67c7fe93a7","{""num_scrambled_semantic"":""8"",""num_scrambled_causal"":""4"",""num_scrambled_schematic"":""4"",""participantId"":""18A81CA8EB16496187F786A35105372D"",""assignmentId"":""d46309fe-ec37-4297-942e-9ff8dd8007b8"",""projectId"":""9076ac92-be42-43a2-9634-8b67c7fe93a7""}","https://test12345.live/?num_scrambled_semantic=8&num_scrambled_causal=4&num_scrambled_schematic=4&participantId=18A81CA8EB16496187F786A35105372D&assignmentId=d46309fe-ec37-4297-942e-9ff8dd8007b8&projectId=9076ac92-be42-43a2-9634-8b67c7fe93a7","18A81CA8EB16496187F786A35105372D-2025-05-22-19-51-04","","null","","[]","null","",""
"","","","","","image-button-response","34","185974","0.0-10.0-1.0-0.3","18A81CA8EB16496187F786A35105372D","18A81CA8EB16496187F786A35105372D","d46309fe-ec37-4297-942e-9ff8dd8007b8","9076ac92-be42-43a2-9634-8b67c7fe93a7","{""num_scrambled_semantic"":""8"",""num_scrambled_causal"":""4"",""num_scrambled_schematic"":""4"",""participantId"":""18A81CA8EB16496187F786A35105372D"",""assignmentId"":""d46309fe-ec37-4297-942e-9ff8dd8007b8"",""projectId"":""9076ac92-be42-43a2-9634-8b67c7fe93a7""}","https://test12345.live/?num_scrambled_semantic=8&num_scrambled_causal=4&num_scrambled_schematic=4&participantId=18A81CA8EB16496187F786A35105372D&assignmentId=d46309fe-ec37-4297-942e-9ff8dd8007b8&projectId=9076ac92-be42-43a2-9634-8b67c7fe93a7","18A81CA8EB16496187F786A35105372D-2025-05-22-19-51-04","","null","","images/causal_sequence/coin_causal/coin_causal_6.png","null","",""
"","","","","","image-button-response","35","186714","0.0-10.0-1.0-1.3","18A81CA8EB16496187F786A35105372D","18A81CA8EB16496187F786A35105372D","d46309fe-ec37-4297-942e-9ff8dd8007b8","9076ac92-be42-43a2-9634-8b67c7fe93a7","{""num_scrambled_semantic"":""8"",""num_scrambled_causal"":""4"",""num_scrambled_schematic"":""4"",""participantId"":""18A81CA8EB16496187F786A35105372D"",""assignmentId"":""d46309fe-ec37-4297-942e-9ff8dd8007b8"",""projectId"":""9076ac92-be42-43a2-9634-8b67c7fe93a7""}","https://test12345.live/?num_scrambled_semantic=8&num_scrambled_causal=4&num_scrambled_schematic=4&participantId=18A81CA8EB16496187F786A35105372D&assignmentId=d46309fe-ec37-4297-942e-9ff8dd8007b8&projectId=9076ac92-be42-43a2-9634-8b67c7fe93a7","18A81CA8EB16496187F786A35105372D-2025-05-22-19-51-04","","739","","images/causal_sequence/coin_causal/coin_causal_6.png","0","",""
"","","","","","image-button-response","36","188518","0.0-10.0-1.0-2.3","18A81CA8EB16496187F786A35105372D","18A81CA8EB16496187F786A35105372D","d46309fe-ec37-4297-942e-9ff8dd8007b8","9076ac92-be42-43a2-9634-8b67c7fe93a7","{""num_scrambled_semantic"":""8"",""num_scrambled_causal"":""4"",""num_scrambled_schematic"":""4"",""participantId"":""18A81CA8EB16496187F786A35105372D"",""assignmentId"":""d46309fe-ec37-4297-942e-9ff8dd8007b8"",""projectId"":""9076ac92-be42-43a2-9634-8b67c7fe93a7""}","https://test12345.live/?num_scrambled_semantic=8&num_scrambled_causal=4&num_scrambled_schematic=4&participantId=18A81CA8EB16496187F786A35105372D&assignmentId=d46309fe-ec37-4297-942e-9ff8dd8007b8&projectId=9076ac92-be42-43a2-9634-8b67c7fe93a7","18A81CA8EB16496187F786A35105372D-2025-05-22-19-51-04","","null","","[]","null","",""
"","","","","","image-button-response","37","193019","0.0-10.0-1.0-0.4","18A81CA8EB16496187F786A35105372D","18A81CA8EB16496187F786A35105372D","d46309fe-ec37-4297-942e-9ff8dd8007b8","9076ac92-be42-43a2-9634-8b67c7fe93a7","{""num_scrambled_semantic"":""8"",""num_scrambled_causal"":""4"",""num_scrambled_schematic"":""4"",""participantId"":""18A81CA8EB16496187F786A35105372D"",""assignmentId"":""d46309fe-ec37-4297-942e-9ff8dd8007b8"",""projectId"":""9076ac92-be42-43a2-9634-8b67c7fe93a7""}","https://test12345.live/?num_scrambled_semantic=8&num_scrambled_causal=4&num_scrambled_schematic=4&participantId=18A81CA8EB16496187F786A35105372D&assignmentId=d46309fe-ec37-4297-942e-9ff8dd8007b8&projectId=9076ac92-be42-43a2-9634-8b67c7fe93a7","18A81CA8EB16496187F786A35105372D-2025-05-22-19-51-04","","null","","images/causal_sequence/coin_causal/coin_causal_ten.png","null","",""
"","","","","","image-button-response","38","194473","0.0-10.0-1.0-1.4","18A81CA8EB16496187F786A35105372D","18A81CA8EB16496187F786A35105372D","d46309fe-ec37-4297-942e-9ff8dd8007b8","9076ac92-be42-43a2-9634-8b67c7fe93a7","{""num_scrambled_semantic"":""8"",""num_scrambled_causal"":""4"",""num_scrambled_schematic"":""4"",""participantId"":""18A81CA8EB16496187F786A35105372D"",""assignmentId"":""d46309fe-ec37-4297-942e-9ff8dd8007b8"",""projectId"":""9076ac92-be42-43a2-9634-8b67c7fe93a7""}","https://test12345.live/?num_scrambled_semantic=8&num_scrambled_causal=4&num_scrambled_schematic=4&participantId=18A81CA8EB16496187F786A35105372D&assignmentId=d46309fe-ec37-4297-942e-9ff8dd8007b8&projectId=9076ac92-be42-43a2-9634-8b67c7fe93a7","18A81CA8EB16496187F786A35105372D-2025-05-22-19-51-04","","1454","","images/causal_sequence/coin_causal/coin_causal_ten.png","0","",""
"","","","","","image-button-response","39","196282","0.0-10.0-1.0-2.4","18A81CA8EB16496187F786A35105372D","18A81CA8EB16496187F786A35105372D","d46309fe-ec37-4297-942e-9ff8dd8007b8","9076ac92-be42-43a2-9634-8b67c7fe93a7","{""num_scrambled_semantic"":""8"",""num_scrambled_causal"":""4"",""num_scrambled_schematic"":""4"",""participantId"":""18A81CA8EB16496187F786A35105372D"",""assignmentId"":""d46309fe-ec37-4297-942e-9ff8dd8007b8"",""projectId"":""9076ac92-be42-43a2-9634-8b67c7fe93a7""}","https://test12345.live/?num_scrambled_semantic=8&num_scrambled_causal=4&num_scrambled_schematic=4&participantId=18A81CA8EB16496187F786A35105372D&assignmentId=d46309fe-ec37-4297-942e-9ff8dd8007b8&projectId=9076ac92-be42-43a2-9634-8b67c7fe93a7","18A81CA8EB16496187F786A35105372D-2025-05-22-19-51-04","","null","","[]","null","",""
"","","","","","image-button-response","40","200797","0.0-10.0-1.0-0.5","18A81CA8EB16496187F786A35105372D","18A81CA8EB16496187F786A35105372D","d46309fe-ec37-4297-942e-9ff8dd8007b8","9076ac92-be42-43a2-9634-8b67c7fe93a7","{""num_scrambled_semantic"":""8"",""num_scrambled_causal"":""4"",""num_scrambled_schematic"":""4"",""participantId"":""18A81CA8EB16496187F786A35105372D"",""assignmentId"":""d46309fe-ec37-4297-942e-9ff8dd8007b8"",""projectId"":""9076ac92-be42-43a2-9634-8b67c7fe93a7""}","https://test12345.live/?num_scrambled_semantic=8&num_scrambled_causal=4&num_scrambled_schematic=4&participantId=18A81CA8EB16496187F786A35105372D&assignmentId=d46309fe-ec37-4297-942e-9ff8dd8007b8&projectId=9076ac92-be42-43a2-9634-8b67c7fe93a7","18A81CA8EB16496187F786A35105372D-2025-05-22-19-51-04","","null","","images/causal_sequence/coin_causal/coin_causal_8.png","null","",""
"","","","","","image-button-response","41","201747","0.0-10.0-1.0-1.5","18A81CA8EB16496187F786A35105372D","18A81CA8EB16496187F786A35105372D","d46309fe-ec37-4297-942e-9ff8dd8007b8","9076ac92-be42-43a2-9634-8b67c7fe93a7","{""num_scrambled_semantic"":""8"",""num_scrambled_causal"":""4"",""num_scrambled_schematic"":""4"",""participantId"":""18A81CA8EB16496187F786A35105372D"",""assignmentId"":""d46309fe-ec37-4297-942e-9ff8dd8007b8"",""projectId"":""9076ac92-be42-43a2-9634-8b67c7fe93a7""}","https://test12345.live/?num_scrambled_semantic=8&num_scrambled_causal=4&num_scrambled_schematic=4&participantId=18A81CA8EB16496187F786A35105372D&assignmentId=d46309fe-ec37-4297-942e-9ff8dd8007b8&projectId=9076ac92-be42-43a2-9634-8b67c7fe93a7","18A81CA8EB16496187F786A35105372D-2025-05-22-19-51-04","","949","","images/causal_sequence/coin_causal/coin_causal_8.png","0","",""
"","","","","","image-button-response","42","203549","0.0-10.0-1.0-2.5","18A81CA8EB16496187F786A35105372D","18A81CA8EB16496187F786A35105372D","d46309fe-ec37-4297-942e-9ff8dd8007b8","9076ac92-be42-43a2-9634-8b67c7fe93a7","{""num_scrambled_semantic"":""8"",""num_scrambled_causal"":""4"",""num_scrambled_schematic"":""4"",""participantId"":""18A81CA8EB16496187F786A35105372D"",""assignmentId"":""d46309fe-ec37-4297-942e-9ff8dd8007b8"",""projectId"":""9076ac92-be42-43a2-9634-8b67c7fe93a7""}","https://test12345.live/?num_scrambled_semantic=8&num_scrambled_causal=4&num_scrambled_schematic=4&participantId=18A81CA8EB16496187F786A35105372D&assignmentId=d46309fe-ec37-4297-942e-9ff8dd8007b8&projectId=9076ac92-be42-43a2-9634-8b67c7fe93a7","18A81CA8EB16496187F786A35105372D-2025-05-22-19-51-04","","null","","[]","null","",""
"","","","","","image-button-response","43","208051","0.0-10.0-1.0-0.6","18A81CA8EB16496187F786A35105372D","18A81CA8EB16496187F786A35105372D","d46309fe-ec37-4297-942e-9ff8dd8007b8","9076ac92-be42-43a2-9634-8b67c7fe93a7","{""num_scrambled_semantic"":""8"",""num_scrambled_causal"":""4"",""num_scrambled_schematic"":""4"",""participantId"":""18A81CA8EB16496187F786A35105372D"",""assignmentId"":""d46309fe-ec37-4297-942e-9ff8dd8007b8"",""projectId"":""9076ac92-be42-43a2-9634-8b67c7fe93a7""}","https://test12345.live/?num_scrambled_semantic=8&num_scrambled_causal=4&num_scrambled_schematic=4&participantId=18A81CA8EB16496187F786A35105372D&assignmentId=d46309fe-ec37-4297-942e-9ff8dd8007b8&projectId=9076ac92-be42-43a2-9634-8b67c7fe93a7","18A81CA8EB16496187F786A35105372D-2025-05-22-19-51-04","","null","","images/causal_sequence/coin_causal/coin_causal_9.png","null","",""
"","","","","","image-button-response","44","210803","0.0-10.0-1.0-1.6","18A81CA8EB16496187F786A35105372D","18A81CA8EB16496187F786A35105372D","d46309fe-ec37-4297-942e-9ff8dd8007b8","9076ac92-be42-43a2-9634-8b67c7fe93a7","{""num_scrambled_semantic"":""8"",""num_scrambled_causal"":""4"",""num_scrambled_schematic"":""4"",""participantId"":""18A81CA8EB16496187F786A35105372D"",""assignmentId"":""d46309fe-ec37-4297-942e-9ff8dd8007b8"",""projectId"":""9076ac92-be42-43a2-9634-8b67c7fe93a7""}","https://test12345.live/?num_scrambled_semantic=8&num_scrambled_causal=4&num_scrambled_schematic=4&participantId=18A81CA8EB16496187F786A35105372D&assignmentId=d46309fe-ec37-4297-942e-9ff8dd8007b8&projectId=9076ac92-be42-43a2-9634-8b67c7fe93a7","18A81CA8EB16496187F786A35105372D-2025-05-22-19-51-04","","2751","","images/causal_sequence/coin_causal/coin_causal_9.png","0","",""
"","","","","","image-button-response","45","212617","0.0-10.0-1.0-2.6","18A81CA8EB16496187F786A35105372D","18A81CA8EB16496187F786A35105372D","d46309fe-ec37-4297-942e-9ff8dd8007b8","9076ac92-be42-43a2-9634-8b67c7fe93a7","{""num_scrambled_semantic"":""8"",""num_scrambled_causal"":""4"",""num_scrambled_schematic"":""4"",""participantId"":""18A81CA8EB16496187F786A35105372D"",""assignmentId"":""d46309fe-ec37-4297-942e-9ff8dd8007b8"",""projectId"":""9076ac92-be42-43a2-9634-8b67c7fe93a7""}","https://test12345.live/?num_scrambled_semantic=8&num_scrambled_causal=4&num_scrambled_schematic=4&participantId=18A81CA8EB16496187F786A35105372D&assignmentId=d46309fe-ec37-4297-942e-9ff8dd8007b8&projectId=9076ac92-be42-43a2-9634-8b67c7fe93a7","18A81CA8EB16496187F786A35105372D-2025-05-22-19-51-04","","null","","[]","null","",""
"","","","","","image-button-response","46","217121","0.0-10.0-1.0-0.7","18A81CA8EB16496187F786A35105372D","18A81CA8EB16496187F786A35105372D","d46309fe-ec37-4297-942e-9ff8dd8007b8","9076ac92-be42-43a2-9634-8b67c7fe93a7","{""num_scrambled_semantic"":""8"",""num_scrambled_causal"":""4"",""num_scrambled_schematic"":""4"",""participantId"":""18A81CA8EB16496187F786A35105372D"",""assignmentId"":""d46309fe-ec37-4297-942e-9ff8dd8007b8"",""projectId"":""9076ac92-be42-43a2-9634-8b67c7fe93a7""}","https://test12345.live/?num_scrambled_semantic=8&num_scrambled_causal=4&num_scrambled_schematic=4&participantId=18A81CA8EB16496187F786A35105372D&assignmentId=d46309fe-ec37-4297-942e-9ff8dd8007b8&projectId=9076ac92-be42-43a2-9634-8b67c7fe93a7","18A81CA8EB16496187F786A35105372D-2025-05-22-19-51-04","","null","","images/causal_sequence/coin_causal/coin_causal_1.png","null","",""
"","","","","","image-button-response","47","219029","0.0-10.0-1.0-1.7","18A81CA8EB16496187F786A35105372D","18A81CA8EB16496187F786A35105372D","d46309fe-ec37-4297-942e-9ff8dd8007b8","9076ac92-be42-43a2-9634-8b67c7fe93a7","{""num_scrambled_semantic"":""8"",""num_scrambled_causal"":""4"",""num_scrambled_schematic"":""4"",""participantId"":""18A81CA8EB16496187F786A35105372D"",""assignmentId"":""d46309fe-ec37-4297-942e-9ff8dd8007b8"",""projectId"":""9076ac92-be42-43a2-9634-8b67c7fe93a7""}","https://test12345.live/?num_scrambled_semantic=8&num_scrambled_causal=4&num_scrambled_schematic=4&participantId=18A81CA8EB16496187F786A35105372D&assignmentId=d46309fe-ec37-4297-942e-9ff8dd8007b8&projectId=9076ac92-be42-43a2-9634-8b67c7fe93a7","18A81CA8EB16496187F786A35105372D-2025-05-22-19-51-04","","1908","","images/causal_sequence/coin_causal/coin_causal_1.png","0","",""
"","","","","","image-button-response","48","220840","0.0-10.0-1.0-2.7","18A81CA8EB16496187F786A35105372D","18A81CA8EB16496187F786A35105372D","d46309fe-ec37-4297-942e-9ff8dd8007b8","9076ac92-be42-43a2-9634-8b67c7fe93a7","{""num_scrambled_semantic"":""8"",""num_scrambled_causal"":""4"",""num_scrambled_schematic"":""4"",""participantId"":""18A81CA8EB16496187F786A35105372D"",""assignmentId"":""d46309fe-ec37-4297-942e-9ff8dd8007b8"",""projectId"":""9076ac92-be42-43a2-9634-8b67c7fe93a7""}","https://test12345.live/?num_scrambled_semantic=8&num_scrambled_causal=4&num_scrambled_schematic=4&participantId=18A81CA8EB16496187F786A35105372D&assignmentId=d46309fe-ec37-4297-942e-9ff8dd8007b8&projectId=9076ac92-be42-43a2-9634-8b67c7fe93a7","18A81CA8EB16496187F786A35105372D-2025-05-22-19-51-04","","null","","[]","null","",""
"","","","","","image-button-response","49","225341","0.0-10.0-1.0-0.8","18A81CA8EB16496187F786A35105372D","18A81CA8EB16496187F786A35105372D","d46309fe-ec37-4297-942e-9ff8dd8007b8","9076ac92-be42-43a2-9634-8b67c7fe93a7","{""num_scrambled_semantic"":""8"",""num_scrambled_causal"":""4"",""num_scrambled_schematic"":""4"",""participantId"":""18A81CA8EB16496187F786A35105372D"",""assignmentId"":""d46309fe-ec37-4297-942e-9ff8dd8007b8"",""projectId"":""9076ac92-be42-43a2-9634-8b67c7fe93a7""}","https://test12345.live/?num_scrambled_semantic=8&num_scrambled_causal=4&num_scrambled_schematic=4&participantId=18A81CA8EB16496187F786A35105372D&assignmentId=d46309fe-ec37-4297-942e-9ff8dd8007b8&projectId=9076ac92-be42-43a2-9634-8b67c7fe93a7","18A81CA8EB16496187F786A35105372D-2025-05-22-19-51-04","","null","","images/causal_sequence/coin_causal/coin_causal_5.png","null","",""
"","","","","","image-button-response","50","226310","0.0-10.0-1.0-1.8","18A81CA8EB16496187F786A35105372D","18A81CA8EB16496187F786A35105372D","d46309fe-ec37-4297-942e-9ff8dd8007b8","9076ac92-be42-43a2-9634-8b67c7fe93a7","{""num_scrambled_semantic"":""8"",""num_scrambled_causal"":""4"",""num_scrambled_schematic"":""4"",""participantId"":""18A81CA8EB16496187F786A35105372D"",""assignmentId"":""d46309fe-ec37-4297-942e-9ff8dd8007b8"",""projectId"":""9076ac92-be42-43a2-9634-8b67c7fe93a7""}","https://test12345.live/?num_scrambled_semantic=8&num_scrambled_causal=4&num_scrambled_schematic=4&participantId=18A81CA8EB16496187F786A35105372D&assignmentId=d46309fe-ec37-4297-942e-9ff8dd8007b8&projectId=9076ac92-be42-43a2-9634-8b67c7fe93a7","18A81CA8EB16496187F786A35105372D-2025-05-22-19-51-04","","969","","images/causal_sequence/coin_causal/coin_causal_5.png","0","",""
"","","","","","image-button-response","51","228123","0.0-10.0-1.0-2.8","18A81CA8EB16496187F786A35105372D","18A81CA8EB16496187F786A35105372D","d46309fe-ec37-4297-942e-9ff8dd8007b8","9076ac92-be42-43a2-9634-8b67c7fe93a7","{""num_scrambled_semantic"":""8"",""num_scrambled_causal"":""4"",""num_scrambled_schematic"":""4"",""participantId"":""18A81CA8EB16496187F786A35105372D"",""assignmentId"":""d46309fe-ec37-4297-942e-9ff8dd8007b8"",""projectId"":""9076ac92-be42-43a2-9634-8b67c7fe93a7""}","https://test12345.live/?num_scrambled_semantic=8&num_scrambled_causal=4&num_scrambled_schematic=4&participantId=18A81CA8EB16496187F786A35105372D&assignmentId=d46309fe-ec37-4297-942e-9ff8dd8007b8&projectId=9076ac92-be42-43a2-9634-8b67c7fe93a7","18A81CA8EB16496187F786A35105372D-2025-05-22-19-51-04","","null","","[]","null","",""
"","","","","","image-button-response","52","232626","0.0-10.0-1.0-0.9","18A81CA8EB16496187F786A35105372D","18A81CA8EB16496187F786A35105372D","d46309fe-ec37-4297-942e-9ff8dd8007b8","9076ac92-be42-43a2-9634-8b67c7fe93a7","{""num_scrambled_semantic"":""8"",""num_scrambled_causal"":""4"",""num_scrambled_schematic"":""4"",""participantId"":""18A81CA8EB16496187F786A35105372D"",""assignmentId"":""d46309fe-ec37-4297-942e-9ff8dd8007b8"",""projectId"":""9076ac92-be42-43a2-9634-8b67c7fe93a7""}","https://test12345.live/?num_scrambled_semantic=8&num_scrambled_causal=4&num_scrambled_schematic=4&participantId=18A81CA8EB16496187F786A35105372D&assignmentId=d46309fe-ec37-4297-942e-9ff8dd8007b8&projectId=9076ac92-be42-43a2-9634-8b67c7fe93a7","18A81CA8EB16496187F786A35105372D-2025-05-22-19-51-04","","null","","images/causal_sequence/coin_causal/coin_causal_2.png","null","",""
"","","","","","image-button-response","53","233544","0.0-10.0-1.0-1.9","18A81CA8EB16496187F786A35105372D","18A81CA8EB16496187F786A35105372D","d46309fe-ec37-4297-942e-9ff8dd8007b8","9076ac92-be42-43a2-9634-8b67c7fe93a7","{""num_scrambled_semantic"":""8"",""num_scrambled_causal"":""4"",""num_scrambled_schematic"":""4"",""participantId"":""18A81CA8EB16496187F786A35105372D"",""assignmentId"":""d46309fe-ec37-4297-942e-9ff8dd8007b8"",""projectId"":""9076ac92-be42-43a2-9634-8b67c7fe93a7""}","https://test12345.live/?num_scrambled_semantic=8&num_scrambled_causal=4&num_scrambled_schematic=4&participantId=18A81CA8EB16496187F786A35105372D&assignmentId=d46309fe-ec37-4297-942e-9ff8dd8007b8&projectId=9076ac92-be42-43a2-9634-8b67c7fe93a7","18A81CA8EB16496187F786A35105372D-2025-05-22-19-51-04","","918","","images/causal_sequence/coin_causal/coin_causal_2.png","0","",""
"","","","","","image-button-response","54","235348","0.0-10.0-1.0-2.9","18A81CA8EB16496187F786A35105372D","18A81CA8EB16496187F786A35105372D","d46309fe-ec37-4297-942e-9ff8dd8007b8","9076ac92-be42-43a2-9634-8b67c7fe93a7","{""num_scrambled_semantic"":""8"",""num_scrambled_causal"":""4"",""num_scrambled_schematic"":""4"",""participantId"":""18A81CA8EB16496187F786A35105372D"",""assignmentId"":""d46309fe-ec37-4297-942e-9ff8dd8007b8"",""projectId"":""9076ac92-be42-43a2-9634-8b67c7fe93a7""}","https://test12345.live/?num_scrambled_semantic=8&num_scrambled_causal=4&num_scrambled_schematic=4&participantId=18A81CA8EB16496187F786A35105372D&assignmentId=d46309fe-ec37-4297-942e-9ff8dd8007b8&projectId=9076ac92-be42-43a2-9634-8b67c7fe93a7","18A81CA8EB16496187F786A35105372D-2025-05-22-19-51-04","","null","","[]","null","",""
"","","","","","html-audio-response","55","278971","0.0-11.0","18A81CA8EB16496187F786A35105372D","18A81CA8EB16496187F786A35105372D","d46309fe-ec37-4297-942e-9ff8dd8007b8","9076ac92-be42-43a2-9634-8b67c7fe93a7","{""num_scrambled_semantic"":""8"",""num_scrambled_causal"":""4"",""num_scrambled_schematic"":""4"",""participantId"":""18A81CA8EB16496187F786A35105372D"",""assignmentId"":""d46309fe-ec37-4297-942e-9ff8dd8007b8"",""projectId"":""9076ac92-be42-43a2-9634-8b67c7fe93a7""}","https://test12345.live/?num_scrambled_semantic=8&num_scrambled_causal=4&num_scrambled_schematic=4&participantId=18A81CA8EB16496187F786A35105372D&assignmentId=d46309fe-ec37-4297-942e-9ff8dd8007b8&projectId=9076ac92-be42-43a2-9634-8b67c7fe93a7","18A81CA8EB16496187F786A35105372D-2025-05-22-19-51-04","","32863","","[""<span style=\""color: red; font-size: 24px\""> NOW RECORDING</span><p>Please say out loud all the images you saw, in the exact order you saw them. Try to recall as many images as you can, but remember: getting the order right is more important than the number of images you recall.</p>""]","","1","coin_causal"
"","","","","","image-button-response","56","284988","0.0-12.0-0.0","18A81CA8EB16496187F786A35105372D","18A81CA8EB16496187F786A35105372D","d46309fe-ec37-4297-942e-9ff8dd8007b8","9076ac92-be42-43a2-9634-8b67c7fe93a7","{""num_scrambled_semantic"":""8"",""num_scrambled_causal"":""4"",""num_scrambled_schematic"":""4"",""participantId"":""18A81CA8EB16496187F786A35105372D"",""assignmentId"":""d46309fe-ec37-4297-942e-9ff8dd8007b8"",""projectId"":""9076ac92-be42-43a2-9634-8b67c7fe93a7""}","https://test12345.live/?num_scrambled_semantic=8&num_scrambled_causal=4&num_scrambled_schematic=4&participantId=18A81CA8EB16496187F786A35105372D&assignmentId=d46309fe-ec37-4297-942e-9ff8dd8007b8&projectId=9076ac92-be42-43a2-9634-8b67c7fe93a7","18A81CA8EB16496187F786A35105372D-2025-05-22-19-51-04","","null","","images/semantic_sequence/market_semantic/market_semantic_0.png","null","",""
"","","","","","image-button-response","57","289503","0.0-12.0-1.0-0.0","18A81CA8EB16496187F786A35105372D","18A81CA8EB16496187F786A35105372D","d46309fe-ec37-4297-942e-9ff8dd8007b8","9076ac92-be42-43a2-9634-8b67c7fe93a7","{""num_scrambled_semantic"":""8"",""num_scrambled_causal"":""4"",""num_scrambled_schematic"":""4"",""participantId"":""18A81CA8EB16496187F786A35105372D"",""assignmentId"":""d46309fe-ec37-4297-942e-9ff8dd8007b8"",""projectId"":""9076ac92-be42-43a2-9634-8b67c7fe93a7""}","https://test12345.live/?num_scrambled_semantic=8&num_scrambled_causal=4&num_scrambled_schematic=4&participantId=18A81CA8EB16496187F786A35105372D&assignmentId=d46309fe-ec37-4297-942e-9ff8dd8007b8&projectId=9076ac92-be42-43a2-9634-8b67c7fe93a7","18A81CA8EB16496187F786A35105372D-2025-05-22-19-51-04","","null","","images/semantic_sequence/market_semantic/market_semantic_8.png","null","",""
"","","","","","image-button-response","58","291293","0.0-12.0-1.0-1.0","18A81CA8EB16496187F786A35105372D","18A81CA8EB16496187F786A35105372D","d46309fe-ec37-4297-942e-9ff8dd8007b8","9076ac92-be42-43a2-9634-8b67c7fe93a7","{""num_scrambled_semantic"":""8"",""num_scrambled_causal"":""4"",""num_scrambled_schematic"":""4"",""participantId"":""18A81CA8EB16496187F786A35105372D"",""assignmentId"":""d46309fe-ec37-4297-942e-9ff8dd8007b8"",""projectId"":""9076ac92-be42-43a2-9634-8b67c7fe93a7""}","https://test12345.live/?num_scrambled_semantic=8&num_scrambled_causal=4&num_scrambled_schematic=4&participantId=18A81CA8EB16496187F786A35105372D&assignmentId=d46309fe-ec37-4297-942e-9ff8dd8007b8&projectId=9076ac92-be42-43a2-9634-8b67c7fe93a7","18A81CA8EB16496187F786A35105372D-2025-05-22-19-51-04","","1789","","images/semantic_sequence/market_semantic/market_semantic_8.png","1","",""
"","","","","","image-button-response","59","293107","0.0-12.0-1.0-2.0","18A81CA8EB16496187F786A35105372D","18A81CA8EB16496187F786A35105372D","d46309fe-ec37-4297-942e-9ff8dd8007b8","9076ac92-be42-43a2-9634-8b67c7fe93a7","{""num_scrambled_semantic"":""8"",""num_scrambled_causal"":""4"",""num_scrambled_schematic"":""4"",""participantId"":""18A81CA8EB16496187F786A35105372D"",""assignmentId"":""d46309fe-ec37-4297-942e-9ff8dd8007b8"",""projectId"":""9076ac92-be42-43a2-9634-8b67c7fe93a7""}","https://test12345.live/?num_scrambled_semantic=8&num_scrambled_causal=4&num_scrambled_schematic=4&participantId=18A81CA8EB16496187F786A35105372D&assignmentId=d46309fe-ec37-4297-942e-9ff8dd8007b8&projectId=9076ac92-be42-43a2-9634-8b67c7fe93a7","18A81CA8EB16496187F786A35105372D-2025-05-22-19-51-04","","null","","[]","null","",""
"","","","","","image-button-response","60","297610","0.0-12.0-1.0-0.1","18A81CA8EB16496187F786A35105372D","18A81CA8EB16496187F786A35105372D","d46309fe-ec37-4297-942e-9ff8dd8007b8","9076ac92-be42-43a2-9634-8b67c7fe93a7","{""num_scrambled_semantic"":""8"",""num_scrambled_causal"":""4"",""num_scrambled_schematic"":""4"",""participantId"":""18A81CA8EB16496187F786A35105372D"",""assignmentId"":""d46309fe-ec37-4297-942e-9ff8dd8007b8"",""projectId"":""9076ac92-be42-43a2-9634-8b67c7fe93a7""}","https://test12345.live/?num_scrambled_semantic=8&num_scrambled_causal=4&num_scrambled_schematic=4&participantId=18A81CA8EB16496187F786A35105372D&assignmentId=d46309fe-ec37-4297-942e-9ff8dd8007b8&projectId=9076ac92-be42-43a2-9634-8b67c7fe93a7","18A81CA8EB16496187F786A35105372D-2025-05-22-19-51-04","","null","","images/semantic_sequence/market_semantic/market_semantic_ten.png","null","",""
"","","","","","image-button-response","61","300265","0.0-12.0-1.0-1.1","18A81CA8EB16496187F786A35105372D","18A81CA8EB16496187F786A35105372D","d46309fe-ec37-4297-942e-9ff8dd8007b8","9076ac92-be42-43a2-9634-8b67c7fe93a7","{""num_scrambled_semantic"":""8"",""num_scrambled_causal"":""4"",""num_scrambled_schematic"":""4"",""participantId"":""18A81CA8EB16496187F786A35105372D"",""assignmentId"":""d46309fe-ec37-4297-942e-9ff8dd8007b8"",""projectId"":""9076ac92-be42-43a2-9634-8b67c7fe93a7""}","https://test12345.live/?num_scrambled_semantic=8&num_scrambled_causal=4&num_scrambled_schematic=4&participantId=18A81CA8EB16496187F786A35105372D&assignmentId=d46309fe-ec37-4297-942e-9ff8dd8007b8&projectId=9076ac92-be42-43a2-9634-8b67c7fe93a7","18A81CA8EB16496187F786A35105372D-2025-05-22-19-51-04","","2655","","images/semantic_sequence/market_semantic/market_semantic_ten.png","1","",""
"","","","","","image-button-response","62","302068","0.0-12.0-1.0-2.1","18A81CA8EB16496187F786A35105372D","18A81CA8EB16496187F786A35105372D","d46309fe-ec37-4297-942e-9ff8dd8007b8","9076ac92-be42-43a2-9634-8b67c7fe93a7","{""num_scrambled_semantic"":""8"",""num_scrambled_causal"":""4"",""num_scrambled_schematic"":""4"",""participantId"":""18A81CA8EB16496187F786A35105372D"",""assignmentId"":""d46309fe-ec37-4297-942e-9ff8dd8007b8"",""projectId"":""9076ac92-be42-43a2-9634-8b67c7fe93a7""}","https://test12345.live/?num_scrambled_semantic=8&num_scrambled_causal=4&num_scrambled_schematic=4&participantId=18A81CA8EB16496187F786A35105372D&assignmentId=d46309fe-ec37-4297-942e-9ff8dd8007b8&projectId=9076ac92-be42-43a2-9634-8b67c7fe93a7","18A81CA8EB16496187F786A35105372D-2025-05-22-19-51-04","","null","","[]","null","",""
"","","","","","image-button-response","63","306572","0.0-12.0-1.0-0.2","18A81CA8EB16496187F786A35105372D","18A81CA8EB16496187F786A35105372D","d46309fe-ec37-4297-942e-9ff8dd8007b8","9076ac92-be42-43a2-9634-8b67c7fe93a7","{""num_scrambled_semantic"":""8"",""num_scrambled_causal"":""4"",""num_scrambled_schematic"":""4"",""participantId"":""18A81CA8EB16496187F786A35105372D"",""assignmentId"":""d46309fe-ec37-4297-942e-9ff8dd8007b8"",""projectId"":""9076ac92-be42-43a2-9634-8b67c7fe93a7""}","https://test12345.live/?num_scrambled_semantic=8&num_scrambled_causal=4&num_scrambled_schematic=4&participantId=18A81CA8EB16496187F786A35105372D&assignmentId=d46309fe-ec37-4297-942e-9ff8dd8007b8&projectId=9076ac92-be42-43a2-9634-8b67c7fe93a7","18A81CA8EB16496187F786A35105372D-2025-05-22-19-51-04","","null","","images/semantic_sequence/market_semantic/market_semantic_4.png","null","",""
"","","","","","image-button-response","64","307419","0.0-12.0-1.0-1.2","18A81CA8EB16496187F786A35105372D","18A81CA8EB16496187F786A35105372D","d46309fe-ec37-4297-942e-9ff8dd8007b8","9076ac92-be42-43a2-9634-8b67c7fe93a7","{""num_scrambled_semantic"":""8"",""num_scrambled_causal"":""4"",""num_scrambled_schematic"":""4"",""participantId"":""18A81CA8EB16496187F786A35105372D"",""assignmentId"":""d46309fe-ec37-4297-942e-9ff8dd8007b8"",""projectId"":""9076ac92-be42-43a2-9634-8b67c7fe93a7""}","https://test12345.live/?num_scrambled_semantic=8&num_scrambled_causal=4&num_scrambled_schematic=4&participantId=18A81CA8EB16496187F786A35105372D&assignmentId=d46309fe-ec37-4297-942e-9ff8dd8007b8&projectId=9076ac92-be42-43a2-9634-8b67c7fe93a7","18A81CA8EB16496187F786A35105372D-2025-05-22-19-51-04","","847","","images/semantic_sequence/market_semantic/market_semantic_4.png","0","",""
"","","","","","image-button-response","65","309231","0.0-12.0-1.0-2.2","18A81CA8EB16496187F786A35105372D","18A81CA8EB16496187F786A35105372D","d46309fe-ec37-4297-942e-9ff8dd8007b8","9076ac92-be42-43a2-9634-8b67c7fe93a7","{""num_scrambled_semantic"":""8"",""num_scrambled_causal"":""4"",""num_scrambled_schematic"":""4"",""participantId"":""18A81CA8EB16496187F786A35105372D"",""assignmentId"":""d46309fe-ec37-4297-942e-9ff8dd8007b8"",""projectId"":""9076ac92-be42-43a2-9634-8b67c7fe93a7""}","https://test12345.live/?num_scrambled_semantic=8&num_scrambled_causal=4&num_scrambled_schematic=4&participantId=18A81CA8EB16496187F786A35105372D&assignmentId=d46309fe-ec37-4297-942e-9ff8dd8007b8&projectId=9076ac92-be42-43a2-9634-8b67c7fe93a7","18A81CA8EB16496187F786A35105372D-2025-05-22-19-51-04","","null","","[]","null","",""
"","","","","","image-button-response","66","313735","0.0-12.0-1.0-0.3","18A81CA8EB16496187F786A35105372D","18A81CA8EB16496187F786A35105372D","d46309fe-ec37-4297-942e-9ff8dd8007b8","9076ac92-be42-43a2-9634-8b67c7fe93a7","{""num_scrambled_semantic"":""8"",""num_scrambled_causal"":""4"",""num_scrambled_schematic"":""4"",""participantId"":""18A81CA8EB16496187F786A35105372D"",""assignmentId"":""d46309fe-ec37-4297-942e-9ff8dd8007b8"",""projectId"":""9076ac92-be42-43a2-9634-8b67c7fe93a7""}","https://test12345.live/?num_scrambled_semantic=8&num_scrambled_causal=4&num_scrambled_schematic=4&participantId=18A81CA8EB16496187F786A35105372D&assignmentId=d46309fe-ec37-4297-942e-9ff8dd8007b8&projectId=9076ac92-be42-43a2-9634-8b67c7fe93a7","18A81CA8EB16496187F786A35105372D-2025-05-22-19-51-04","","null","","images/semantic_sequence/market_semantic/market_semantic_6.png","null","",""
"","","","","","image-button-response","67","314889","0.0-12.0-1.0-1.3","18A81CA8EB16496187F786A35105372D","18A81CA8EB16496187F786A35105372D","d46309fe-ec37-4297-942e-9ff8dd8007b8","9076ac92-be42-43a2-9634-8b67c7fe93a7","{""num_scrambled_semantic"":""8"",""num_scrambled_causal"":""4"",""num_scrambled_schematic"":""4"",""participantId"":""18A81CA8EB16496187F786A35105372D"",""assignmentId"":""d46309fe-ec37-4297-942e-9ff8dd8007b8"",""projectId"":""9076ac92-be42-43a2-9634-8b67c7fe93a7""}","https://test12345.live/?num_scrambled_semantic=8&num_scrambled_causal=4&num_scrambled_schematic=4&participantId=18A81CA8EB16496187F786A35105372D&assignmentId=d46309fe-ec37-4297-942e-9ff8dd8007b8&projectId=9076ac92-be42-43a2-9634-8b67c7fe93a7","18A81CA8EB16496187F786A35105372D-2025-05-22-19-51-04","","1153","","images/semantic_sequence/market_semantic/market_semantic_6.png","1","",""
"","","","","","image-button-response","68","316693","0.0-12.0-1.0-2.3","18A81CA8EB16496187F786A35105372D","18A81CA8EB16496187F786A35105372D","d46309fe-ec37-4297-942e-9ff8dd8007b8","9076ac92-be42-43a2-9634-8b67c7fe93a7","{""num_scrambled_semantic"":""8"",""num_scrambled_causal"":""4"",""num_scrambled_schematic"":""4"",""participantId"":""18A81CA8EB16496187F786A35105372D"",""assignmentId"":""d46309fe-ec37-4297-942e-9ff8dd8007b8"",""projectId"":""9076ac92-be42-43a2-9634-8b67c7fe93a7""}","https://test12345.live/?num_scrambled_semantic=8&num_scrambled_causal=4&num_scrambled_schematic=4&participantId=18A81CA8EB16496187F786A35105372D&assignmentId=d46309fe-ec37-4297-942e-9ff8dd8007b8&projectId=9076ac92-be42-43a2-9634-8b67c7fe93a7","18A81CA8EB16496187F786A35105372D-2025-05-22-19-51-04","","null","","[]","null","",""
"","","","","","image-button-response","69","321196","0.0-12.0-1.0-0.4","18A81CA8EB16496187F786A35105372D","18A81CA8EB16496187F786A35105372D","d46309fe-ec37-4297-942e-9ff8dd8007b8","9076ac92-be42-43a2-9634-8b67c7fe93a7","{""num_scrambled_semantic"":""8"",""num_scrambled_causal"":""4"",""num_scrambled_schematic"":""4"",""participantId"":""18A81CA8EB16496187F786A35105372D"",""assignmentId"":""d46309fe-ec37-4297-942e-9ff8dd8007b8"",""projectId"":""9076ac92-be42-43a2-9634-8b67c7fe93a7""}","https://test12345.live/?num_scrambled_semantic=8&num_scrambled_causal=4&num_scrambled_schematic=4&participantId=18A81CA8EB16496187F786A35105372D&assignmentId=d46309fe-ec37-4297-942e-9ff8dd8007b8&projectId=9076ac92-be42-43a2-9634-8b67c7fe93a7","18A81CA8EB16496187F786A35105372D-2025-05-22-19-51-04","","null","","images/semantic_sequence/market_semantic/market_semantic_7.png","null","",""
"","","","","","image-button-response","70","322246","0.0-12.0-1.0-1.4","18A81CA8EB16496187F786A35105372D","18A81CA8EB16496187F786A35105372D","d46309fe-ec37-4297-942e-9ff8dd8007b8","9076ac92-be42-43a2-9634-8b67c7fe93a7","{""num_scrambled_semantic"":""8"",""num_scrambled_causal"":""4"",""num_scrambled_schematic"":""4"",""participantId"":""18A81CA8EB16496187F786A35105372D"",""assignmentId"":""d46309fe-ec37-4297-942e-9ff8dd8007b8"",""projectId"":""9076ac92-be42-43a2-9634-8b67c7fe93a7""}","https://test12345.live/?num_scrambled_semantic=8&num_scrambled_causal=4&num_scrambled_schematic=4&participantId=18A81CA8EB16496187F786A35105372D&assignmentId=d46309fe-ec37-4297-942e-9ff8dd8007b8&projectId=9076ac92-be42-43a2-9634-8b67c7fe93a7","18A81CA8EB16496187F786A35105372D-2025-05-22-19-51-04","","1050","","images/semantic_sequence/market_semantic/market_semantic_7.png","0","",""
"","","","","","image-button-response","71","324051","0.0-12.0-1.0-2.4","18A81CA8EB16496187F786A35105372D","18A81CA8EB16496187F786A35105372D","d46309fe-ec37-4297-942e-9ff8dd8007b8","9076ac92-be42-43a2-9634-8b67c7fe93a7","{""num_scrambled_semantic"":""8"",""num_scrambled_causal"":""4"",""num_scrambled_schematic"":""4"",""participantId"":""18A81CA8EB16496187F786A35105372D"",""assignmentId"":""d46309fe-ec37-4297-942e-9ff8dd8007b8"",""projectId"":""9076ac92-be42-43a2-9634-8b67c7fe93a7""}","https://test12345.live/?num_scrambled_semantic=8&num_scrambled_causal=4&num_scrambled_schematic=4&participantId=18A81CA8EB16496187F786A35105372D&assignmentId=d46309fe-ec37-4297-942e-9ff8dd8007b8&projectId=9076ac92-be42-43a2-9634-8b67c7fe93a7","18A81CA8EB16496187F786A35105372D-2025-05-22-19-51-04","","null","","[]","null","",""
"","","","","","image-button-response","72","328553","0.0-12.0-1.0-0.5","18A81CA8EB16496187F786A35105372D","18A81CA8EB16496187F786A35105372D","d46309fe-ec37-4297-942e-9ff8dd8007b8","9076ac92-be42-43a2-9634-8b67c7fe93a7","{""num_scrambled_semantic"":""8"",""num_scrambled_causal"":""4"",""num_scrambled_schematic"":""4"",""participantId"":""18A81CA8EB16496187F786A35105372D"",""assignmentId"":""d46309fe-ec37-4297-942e-9ff8dd8007b8"",""projectId"":""9076ac92-be42-43a2-9634-8b67c7fe93a7""}","https://test12345.live/?num_scrambled_semantic=8&num_scrambled_causal=4&num_scrambled_schematic=4&participantId=18A81CA8EB16496187F786A35105372D&assignmentId=d46309fe-ec37-4297-942e-9ff8dd8007b8&projectId=9076ac92-be42-43a2-9634-8b67c7fe93a7","18A81CA8EB16496187F786A35105372D-2025-05-22-19-51-04","","null","","images/semantic_sequence/market_semantic/market_semantic_5.png","null","",""
"","","","","","image-button-response","73","330010","0.0-12.0-1.0-1.5","18A81CA8EB16496187F786A35105372D","18A81CA8EB16496187F786A35105372D","d46309fe-ec37-4297-942e-9ff8dd8007b8","9076ac92-be42-43a2-9634-8b67c7fe93a7","{""num_scrambled_semantic"":""8"",""num_scrambled_causal"":""4"",""num_scrambled_schematic"":""4"",""participantId"":""18A81CA8EB16496187F786A35105372D"",""assignmentId"":""d46309fe-ec37-4297-942e-9ff8dd8007b8"",""projectId"":""9076ac92-be42-43a2-9634-8b67c7fe93a7""}","https://test12345.live/?num_scrambled_semantic=8&num_scrambled_causal=4&num_scrambled_schematic=4&participantId=18A81CA8EB16496187F786A35105372D&assignmentId=d46309fe-ec37-4297-942e-9ff8dd8007b8&projectId=9076ac92-be42-43a2-9634-8b67c7fe93a7","18A81CA8EB16496187F786A35105372D-2025-05-22-19-51-04","","1457","","images/semantic_sequence/market_semantic/market_semantic_5.png","1","",""
"","","","","","image-button-response","74","331817","0.0-12.0-1.0-2.5","18A81CA8EB16496187F786A35105372D","18A81CA8EB16496187F786A35105372D","d46309fe-ec37-4297-942e-9ff8dd8007b8","9076ac92-be42-43a2-9634-8b67c7fe93a7","{""num_scrambled_semantic"":""8"",""num_scrambled_causal"":""4"",""num_scrambled_schematic"":""4"",""participantId"":""18A81CA8EB16496187F786A35105372D"",""assignmentId"":""d46309fe-ec37-4297-942e-9ff8dd8007b8"",""projectId"":""9076ac92-be42-43a2-9634-8b67c7fe93a7""}","https://test12345.live/?num_scrambled_semantic=8&num_scrambled_causal=4&num_scrambled_schematic=4&participantId=18A81CA8EB16496187F786A35105372D&assignmentId=d46309fe-ec37-4297-942e-9ff8dd8007b8&projectId=9076ac92-be42-43a2-9634-8b67c7fe93a7","18A81CA8EB16496187F786A35105372D-2025-05-22-19-51-04","","null","","[]","null","",""
"","","","","","image-button-response","75","336322","0.0-12.0-1.0-0.6","18A81CA8EB16496187F786A35105372D","18A81CA8EB16496187F786A35105372D","d46309fe-ec37-4297-942e-9ff8dd8007b8","9076ac92-be42-43a2-9634-8b67c7fe93a7","{""num_scrambled_semantic"":""8"",""num_scrambled_causal"":""4"",""num_scrambled_schematic"":""4"",""participantId"":""18A81CA8EB16496187F786A35105372D"",""assignmentId"":""d46309fe-ec37-4297-942e-9ff8dd8007b8"",""projectId"":""9076ac92-be42-43a2-9634-8b67c7fe93a7""}","https://test12345.live/?num_scrambled_semantic=8&num_scrambled_causal=4&num_scrambled_schematic=4&participantId=18A81CA8EB16496187F786A35105372D&assignmentId=d46309fe-ec37-4297-942e-9ff8dd8007b8&projectId=9076ac92-be42-43a2-9634-8b67c7fe93a7","18A81CA8EB16496187F786A35105372D-2025-05-22-19-51-04","","null","","images/semantic_sequence/market_semantic/market_semantic_2.png","null","",""
"","","","","","image-button-response","76","336881","0.0-12.0-1.0-1.6","18A81CA8EB16496187F786A35105372D","18A81CA8EB16496187F786A35105372D","d46309fe-ec37-4297-942e-9ff8dd8007b8","9076ac92-be42-43a2-9634-8b67c7fe93a7","{""num_scrambled_semantic"":""8"",""num_scrambled_causal"":""4"",""num_scrambled_schematic"":""4"",""participantId"":""18A81CA8EB16496187F786A35105372D"",""assignmentId"":""d46309fe-ec37-4297-942e-9ff8dd8007b8"",""projectId"":""9076ac92-be42-43a2-9634-8b67c7fe93a7""}","https://test12345.live/?num_scrambled_semantic=8&num_scrambled_causal=4&num_scrambled_schematic=4&participantId=18A81CA8EB16496187F786A35105372D&assignmentId=d46309fe-ec37-4297-942e-9ff8dd8007b8&projectId=9076ac92-be42-43a2-9634-8b67c7fe93a7","18A81CA8EB16496187F786A35105372D-2025-05-22-19-51-04","","559","","images/semantic_sequence/market_semantic/market_semantic_2.png","1","",""
"","","","","","image-button-response","77","338691","0.0-12.0-1.0-2.6","18A81CA8EB16496187F786A35105372D","18A81CA8EB16496187F786A35105372D","d46309fe-ec37-4297-942e-9ff8dd8007b8","9076ac92-be42-43a2-9634-8b67c7fe93a7","{""num_scrambled_semantic"":""8"",""num_scrambled_causal"":""4"",""num_scrambled_schematic"":""4"",""participantId"":""18A81CA8EB16496187F786A35105372D"",""assignmentId"":""d46309fe-ec37-4297-942e-9ff8dd8007b8"",""projectId"":""9076ac92-be42-43a2-9634-8b67c7fe93a7""}","https://test12345.live/?num_scrambled_semantic=8&num_scrambled_causal=4&num_scrambled_schematic=4&participantId=18A81CA8EB16496187F786A35105372D&assignmentId=d46309fe-ec37-4297-942e-9ff8dd8007b8&projectId=9076ac92-be42-43a2-9634-8b67c7fe93a7","18A81CA8EB16496187F786A35105372D-2025-05-22-19-51-04","","null","","[]","null","",""
"","","","","","image-button-response","78","343197","0.0-12.0-1.0-0.7","18A81CA8EB16496187F786A35105372D","18A81CA8EB16496187F786A35105372D","d46309fe-ec37-4297-942e-9ff8dd8007b8","9076ac92-be42-43a2-9634-8b67c7fe93a7","{""num_scrambled_semantic"":""8"",""num_scrambled_causal"":""4"",""num_scrambled_schematic"":""4"",""participantId"":""18A81CA8EB16496187F786A35105372D"",""assignmentId"":""d46309fe-ec37-4297-942e-9ff8dd8007b8"",""projectId"":""9076ac92-be42-43a2-9634-8b67c7fe93a7""}","https://test12345.live/?num_scrambled_semantic=8&num_scrambled_causal=4&num_scrambled_schematic=4&participantId=18A81CA8EB16496187F786A35105372D&assignmentId=d46309fe-ec37-4297-942e-9ff8dd8007b8&projectId=9076ac92-be42-43a2-9634-8b67c7fe93a7","18A81CA8EB16496187F786A35105372D-2025-05-22-19-51-04","","null","","images/semantic_sequence/market_semantic/market_semantic_1.png","null","",""
"","","","","","image-button-response","79","344350","0.0-12.0-1.0-1.7","18A81CA8EB16496187F786A35105372D","18A81CA8EB16496187F786A35105372D","d46309fe-ec37-4297-942e-9ff8dd8007b8","9076ac92-be42-43a2-9634-8b67c7fe93a7","{""num_scrambled_semantic"":""8"",""num_scrambled_causal"":""4"",""num_scrambled_schematic"":""4"",""participantId"":""18A81CA8EB16496187F786A35105372D"",""assignmentId"":""d46309fe-ec37-4297-942e-9ff8dd8007b8"",""projectId"":""9076ac92-be42-43a2-9634-8b67c7fe93a7""}","https://test12345.live/?num_scrambled_semantic=8&num_scrambled_causal=4&num_scrambled_schematic=4&participantId=18A81CA8EB16496187F786A35105372D&assignmentId=d46309fe-ec37-4297-942e-9ff8dd8007b8&projectId=9076ac92-be42-43a2-9634-8b67c7fe93a7","18A81CA8EB16496187F786A35105372D-2025-05-22-19-51-04","","1153","","images/semantic_sequence/market_semantic/market_semantic_1.png","1","",""
"","","","","","image-button-response","80","346163","0.0-12.0-1.0-2.7","18A81CA8EB16496187F786A35105372D","18A81CA8EB16496187F786A35105372D","d46309fe-ec37-4297-942e-9ff8dd8007b8","9076ac92-be42-43a2-9634-8b67c7fe93a7","{""num_scrambled_semantic"":""8"",""num_scrambled_causal"":""4"",""num_scrambled_schematic"":""4"",""participantId"":""18A81CA8EB16496187F786A35105372D"",""assignmentId"":""d46309fe-ec37-4297-942e-9ff8dd8007b8"",""projectId"":""9076ac92-be42-43a2-9634-8b67c7fe93a7""}","https://test12345.live/?num_scrambled_semantic=8&num_scrambled_causal=4&num_scrambled_schematic=4&participantId=18A81CA8EB16496187F786A35105372D&assignmentId=d46309fe-ec37-4297-942e-9ff8dd8007b8&projectId=9076ac92-be42-43a2-9634-8b67c7fe93a7","18A81CA8EB16496187F786A35105372D-2025-05-22-19-51-04","","null","","[]","null","",""
"","","","","","image-button-response","81","350664","0.0-12.0-1.0-0.8","18A81CA8EB16496187F786A35105372D","18A81CA8EB16496187F786A35105372D","d46309fe-ec37-4297-942e-9ff8dd8007b8","9076ac92-be42-43a2-9634-8b67c7fe93a7","{""num_scrambled_semantic"":""8"",""num_scrambled_causal"":""4"",""num_scrambled_schematic"":""4"",""participantId"":""18A81CA8EB16496187F786A35105372D"",""assignmentId"":""d46309fe-ec37-4297-942e-9ff8dd8007b8"",""projectId"":""9076ac92-be42-43a2-9634-8b67c7fe93a7""}","https://test12345.live/?num_scrambled_semantic=8&num_scrambled_causal=4&num_scrambled_schematic=4&participantId=18A81CA8EB16496187F786A35105372D&assignmentId=d46309fe-ec37-4297-942e-9ff8dd8007b8&projectId=9076ac92-be42-43a2-9634-8b67c7fe93a7","18A81CA8EB16496187F786A35105372D-2025-05-22-19-51-04","","null","","images/semantic_sequence/market_semantic/market_semantic_9.png","null","",""
"","","","","","image-button-response","82","351134","0.0-12.0-1.0-1.8","18A81CA8EB16496187F786A35105372D","18A81CA8EB16496187F786A35105372D","d46309fe-ec37-4297-942e-9ff8dd8007b8","9076ac92-be42-43a2-9634-8b67c7fe93a7","{""num_scrambled_semantic"":""8"",""num_scrambled_causal"":""4"",""num_scrambled_schematic"":""4"",""participantId"":""18A81CA8EB16496187F786A35105372D"",""assignmentId"":""d46309fe-ec37-4297-942e-9ff8dd8007b8"",""projectId"":""9076ac92-be42-43a2-9634-8b67c7fe93a7""}","https://test12345.live/?num_scrambled_semantic=8&num_scrambled_causal=4&num_scrambled_schematic=4&participantId=18A81CA8EB16496187F786A35105372D&assignmentId=d46309fe-ec37-4297-942e-9ff8dd8007b8&projectId=9076ac92-be42-43a2-9634-8b67c7fe93a7","18A81CA8EB16496187F786A35105372D-2025-05-22-19-51-04","","470","","images/semantic_sequence/market_semantic/market_semantic_9.png","0","",""
"","","","","","image-button-response","83","352944","0.0-12.0-1.0-2.8","18A81CA8EB16496187F786A35105372D","18A81CA8EB16496187F786A35105372D","d46309fe-ec37-4297-942e-9ff8dd8007b8","9076ac92-be42-43a2-9634-8b67c7fe93a7","{""num_scrambled_semantic"":""8"",""num_scrambled_causal"":""4"",""num_scrambled_schematic"":""4"",""participantId"":""18A81CA8EB16496187F786A35105372D"",""assignmentId"":""d46309fe-ec37-4297-942e-9ff8dd8007b8"",""projectId"":""9076ac92-be42-43a2-9634-8b67c7fe93a7""}","https://test12345.live/?num_scrambled_semantic=8&num_scrambled_causal=4&num_scrambled_schematic=4&participantId=18A81CA8EB16496187F786A35105372D&assignmentId=d46309fe-ec37-4297-942e-9ff8dd8007b8&projectId=9076ac92-be42-43a2-9634-8b67c7fe93a7","18A81CA8EB16496187F786A35105372D-2025-05-22-19-51-04","","null","","[]","null","",""
"","","","","","image-button-response","84","357449","0.0-12.0-1.0-0.9","18A81CA8EB16496187F786A35105372D","18A81CA8EB16496187F786A35105372D","d46309fe-ec37-4297-942e-9ff8dd8007b8","9076ac92-be42-43a2-9634-8b67c7fe93a7","{""num_scrambled_semantic"":""8"",""num_scrambled_causal"":""4"",""num_scrambled_schematic"":""4"",""participantId"":""18A81CA8EB16496187F786A35105372D"",""assignmentId"":""d46309fe-ec37-4297-942e-9ff8dd8007b8"",""projectId"":""9076ac92-be42-43a2-9634-8b67c7fe93a7""}","https://test12345.live/?num_scrambled_semantic=8&num_scrambled_causal=4&num_scrambled_schematic=4&participantId=18A81CA8EB16496187F786A35105372D&assignmentId=d46309fe-ec37-4297-942e-9ff8dd8007b8&projectId=9076ac92-be42-43a2-9634-8b67c7fe93a7","18A81CA8EB16496187F786A35105372D-2025-05-22-19-51-04","","null","","images/semantic_sequence/market_semantic/market_semantic_3.png","null","",""
"","","","","","image-button-response","85","358065","0.0-12.0-1.0-1.9","18A81CA8EB16496187F786A35105372D","18A81CA8EB16496187F786A35105372D","d46309fe-ec37-4297-942e-9ff8dd8007b8","9076ac92-be42-43a2-9634-8b67c7fe93a7","{""num_scrambled_semantic"":""8"",""num_scrambled_causal"":""4"",""num_scrambled_schematic"":""4"",""participantId"":""18A81CA8EB16496187F786A35105372D"",""assignmentId"":""d46309fe-ec37-4297-942e-9ff8dd8007b8"",""projectId"":""9076ac92-be42-43a2-9634-8b67c7fe93a7""}","https://test12345.live/?num_scrambled_semantic=8&num_scrambled_causal=4&num_scrambled_schematic=4&participantId=18A81CA8EB16496187F786A35105372D&assignmentId=d46309fe-ec37-4297-942e-9ff8dd8007b8&projectId=9076ac92-be42-43a2-9634-8b67c7fe93a7","18A81CA8EB16496187F786A35105372D-2025-05-22-19-51-04","","616","","images/semantic_sequence/market_semantic/market_semantic_3.png","1","",""
"","","","","","image-button-response","86","359872","0.0-12.0-1.0-2.9","18A81CA8EB16496187F786A35105372D","18A81CA8EB16496187F786A35105372D","d46309fe-ec37-4297-942e-9ff8dd8007b8","9076ac92-be42-43a2-9634-8b67c7fe93a7","{""num_scrambled_semantic"":""8"",""num_scrambled_causal"":""4"",""num_scrambled_schematic"":""4"",""participantId"":""18A81CA8EB16496187F786A35105372D"",""assignmentId"":""d46309fe-ec37-4297-942e-9ff8dd8007b8"",""projectId"":""9076ac92-be42-43a2-9634-8b67c7fe93a7""}","https://test12345.live/?num_scrambled_semantic=8&num_scrambled_causal=4&num_scrambled_schematic=4&participantId=18A81CA8EB16496187F786A35105372D&assignmentId=d46309fe-ec37-4297-942e-9ff8dd8007b8&projectId=9076ac92-be42-43a2-9634-8b67c7fe93a7","18A81CA8EB16496187F786A35105372D-2025-05-22-19-51-04","","null","","[]","null","",""
"","","","","","html-audio-response","87","384935","0.0-13.0","18A81CA8EB16496187F786A35105372D","18A81CA8EB16496187F786A35105372D","d46309fe-ec37-4297-942e-9ff8dd8007b8","9076ac92-be42-43a2-9634-8b67c7fe93a7","{""num_scrambled_semantic"":""8"",""num_scrambled_causal"":""4"",""num_scrambled_schematic"":""4"",""participantId"":""18A81CA8EB16496187F786A35105372D"",""assignmentId"":""d46309fe-ec37-4297-942e-9ff8dd8007b8"",""projectId"":""9076ac92-be42-43a2-9634-8b67c7fe93a7""}","https://test12345.live/?num_scrambled_semantic=8&num_scrambled_causal=4&num_scrambled_schematic=4&participantId=18A81CA8EB16496187F786A35105372D&assignmentId=d46309fe-ec37-4297-942e-9ff8dd8007b8&projectId=9076ac92-be42-43a2-9634-8b67c7fe93a7","18A81CA8EB16496187F786A35105372D-2025-05-22-19-51-04","","21360","","[""<span style=\""color: red; font-size: 24px\""> NOW RECORDING</span><p>Please say out loud all the images you saw, in the exact order you saw them. Try to recall as many images as you can, but remember: getting the order right is more important than the number of images you recall.</p>""]","","1","market_semantic"
"","","","","","image-button-response","88","390951","0.0-14.0-0.0","18A81CA8EB16496187F786A35105372D","18A81CA8EB16496187F786A35105372D","d46309fe-ec37-4297-942e-9ff8dd8007b8","9076ac92-be42-43a2-9634-8b67c7fe93a7","{""num_scrambled_semantic"":""8"",""num_scrambled_causal"":""4"",""num_scrambled_schematic"":""4"",""participantId"":""18A81CA8EB16496187F786A35105372D"",""assignmentId"":""d46309fe-ec37-4297-942e-9ff8dd8007b8"",""projectId"":""9076ac92-be42-43a2-9634-8b67c7fe93a7""}","https://test12345.live/?num_scrambled_semantic=8&num_scrambled_causal=4&num_scrambled_schematic=4&participantId=18A81CA8EB16496187F786A35105372D&assignmentId=d46309fe-ec37-4297-942e-9ff8dd8007b8&projectId=9076ac92-be42-43a2-9634-8b67c7fe93a7","18A81CA8EB16496187F786A35105372D-2025-05-22-19-51-04","","null","","images/schematic_sequence/supermarket_scheme/supermarket_scheme_0.png","null","",""
"","","","","","image-button-response","89","395453","0.0-14.0-1.0-0.0","18A81CA8EB16496187F786A35105372D","18A81CA8EB16496187F786A35105372D","d46309fe-ec37-4297-942e-9ff8dd8007b8","9076ac92-be42-43a2-9634-8b67c7fe93a7","{""num_scrambled_semantic"":""8"",""num_scrambled_causal"":""4"",""num_scrambled_schematic"":""4"",""participantId"":""18A81CA8EB16496187F786A35105372D"",""assignmentId"":""d46309fe-ec37-4297-942e-9ff8dd8007b8"",""projectId"":""9076ac92-be42-43a2-9634-8b67c7fe93a7""}","https://test12345.live/?num_scrambled_semantic=8&num_scrambled_causal=4&num_scrambled_schematic=4&participantId=18A81CA8EB16496187F786A35105372D&assignmentId=d46309fe-ec37-4297-942e-9ff8dd8007b8&projectId=9076ac92-be42-43a2-9634-8b67c7fe93a7","18A81CA8EB16496187F786A35105372D-2025-05-22-19-51-04","","null","","images/schematic_sequence/supermarket_scheme/supermarket_scheme_1.png","null","",""
"","","","","","image-button-response","90","396589","0.0-14.0-1.0-1.0","18A81CA8EB16496187F786A35105372D","18A81CA8EB16496187F786A35105372D","d46309fe-ec37-4297-942e-9ff8dd8007b8","9076ac92-be42-43a2-9634-8b67c7fe93a7","{""num_scrambled_semantic"":""8"",""num_scrambled_causal"":""4"",""num_scrambled_schematic"":""4"",""participantId"":""18A81CA8EB16496187F786A35105372D"",""assignmentId"":""d46309fe-ec37-4297-942e-9ff8dd8007b8"",""projectId"":""9076ac92-be42-43a2-9634-8b67c7fe93a7""}","https://test12345.live/?num_scrambled_semantic=8&num_scrambled_causal=4&num_scrambled_schematic=4&participantId=18A81CA8EB16496187F786A35105372D&assignmentId=d46309fe-ec37-4297-942e-9ff8dd8007b8&projectId=9076ac92-be42-43a2-9634-8b67c7fe93a7","18A81CA8EB16496187F786A35105372D-2025-05-22-19-51-04","","1134","","images/schematic_sequence/supermarket_scheme/supermarket_scheme_1.png","1","",""
"","","","","","image-button-response","91","398393","0.0-14.0-1.0-2.0","18A81CA8EB16496187F786A35105372D","18A81CA8EB16496187F786A35105372D","d46309fe-ec37-4297-942e-9ff8dd8007b8","9076ac92-be42-43a2-9634-8b67c7fe93a7","{""num_scrambled_semantic"":""8"",""num_scrambled_causal"":""4"",""num_scrambled_schematic"":""4"",""participantId"":""18A81CA8EB16496187F786A35105372D"",""assignmentId"":""d46309fe-ec37-4297-942e-9ff8dd8007b8"",""projectId"":""9076ac92-be42-43a2-9634-8b67c7fe93a7""}","https://test12345.live/?num_scrambled_semantic=8&num_scrambled_causal=4&num_scrambled_schematic=4&participantId=18A81CA8EB16496187F786A35105372D&assignmentId=d46309fe-ec37-4297-942e-9ff8dd8007b8&projectId=9076ac92-be42-43a2-9634-8b67c7fe93a7","18A81CA8EB16496187F786A35105372D-2025-05-22-19-51-04","","null","","[]","null","",""
"","","","","","image-button-response","92","402899","0.0-14.0-1.0-0.1","18A81CA8EB16496187F786A35105372D","18A81CA8EB16496187F786A35105372D","d46309fe-ec37-4297-942e-9ff8dd8007b8","9076ac92-be42-43a2-9634-8b67c7fe93a7","{""num_scrambled_semantic"":""8"",""num_scrambled_causal"":""4"",""num_scrambled_schematic"":""4"",""participantId"":""18A81CA8EB16496187F786A35105372D"",""assignmentId"":""d46309fe-ec37-4297-942e-9ff8dd8007b8"",""projectId"":""9076ac92-be42-43a2-9634-8b67c7fe93a7""}","https://test12345.live/?num_scrambled_semantic=8&num_scrambled_causal=4&num_scrambled_schematic=4&participantId=18A81CA8EB16496187F786A35105372D&assignmentId=d46309fe-ec37-4297-942e-9ff8dd8007b8&projectId=9076ac92-be42-43a2-9634-8b67c7fe93a7","18A81CA8EB16496187F786A35105372D-2025-05-22-19-51-04","","null","","images/schematic_sequence/supermarket_scheme/supermarket_scheme_2.png","null","",""
"","","","","","image-button-response","93","403761","0.0-14.0-1.0-1.1","18A81CA8EB16496187F786A35105372D","18A81CA8EB16496187F786A35105372D","d46309fe-ec37-4297-942e-9ff8dd8007b8","9076ac92-be42-43a2-9634-8b67c7fe93a7","{""num_scrambled_semantic"":""8"",""num_scrambled_causal"":""4"",""num_scrambled_schematic"":""4"",""participantId"":""18A81CA8EB16496187F786A35105372D"",""assignmentId"":""d46309fe-ec37-4297-942e-9ff8dd8007b8"",""projectId"":""9076ac92-be42-43a2-9634-8b67c7fe93a7""}","https://test12345.live/?num_scrambled_semantic=8&num_scrambled_causal=4&num_scrambled_schematic=4&participantId=18A81CA8EB16496187F786A35105372D&assignmentId=d46309fe-ec37-4297-942e-9ff8dd8007b8&projectId=9076ac92-be42-43a2-9634-8b67c7fe93a7","18A81CA8EB16496187F786A35105372D-2025-05-22-19-51-04","","862","","images/schematic_sequence/supermarket_scheme/supermarket_scheme_2.png","1","",""
"","","","","","image-button-response","94","405562","0.0-14.0-1.0-2.1","18A81CA8EB16496187F786A35105372D","18A81CA8EB16496187F786A35105372D","d46309fe-ec37-4297-942e-9ff8dd8007b8","9076ac92-be42-43a2-9634-8b67c7fe93a7","{""num_scrambled_semantic"":""8"",""num_scrambled_causal"":""4"",""num_scrambled_schematic"":""4"",""participantId"":""18A81CA8EB16496187F786A35105372D"",""assignmentId"":""d46309fe-ec37-4297-942e-9ff8dd8007b8"",""projectId"":""9076ac92-be42-43a2-9634-8b67c7fe93a7""}","https://test12345.live/?num_scrambled_semantic=8&num_scrambled_causal=4&num_scrambled_schematic=4&participantId=18A81CA8EB16496187F786A35105372D&assignmentId=d46309fe-ec37-4297-942e-9ff8dd8007b8&projectId=9076ac92-be42-43a2-9634-8b67c7fe93a7","18A81CA8EB16496187F786A35105372D-2025-05-22-19-51-04","","null","","[]","null","",""
"","","","","","image-button-response","95","410063","0.0-14.0-1.0-0.2","18A81CA8EB16496187F786A35105372D","18A81CA8EB16496187F786A35105372D","d46309fe-ec37-4297-942e-9ff8dd8007b8","9076ac92-be42-43a2-9634-8b67c7fe93a7","{""num_scrambled_semantic"":""8"",""num_scrambled_causal"":""4"",""num_scrambled_schematic"":""4"",""participantId"":""18A81CA8EB16496187F786A35105372D"",""assignmentId"":""d46309fe-ec37-4297-942e-9ff8dd8007b8"",""projectId"":""9076ac92-be42-43a2-9634-8b67c7fe93a7""}","https://test12345.live/?num_scrambled_semantic=8&num_scrambled_causal=4&num_scrambled_schematic=4&participantId=18A81CA8EB16496187F786A35105372D&assignmentId=d46309fe-ec37-4297-942e-9ff8dd8007b8&projectId=9076ac92-be42-43a2-9634-8b67c7fe93a7","18A81CA8EB16496187F786A35105372D-2025-05-22-19-51-04","","null","","images/schematic_sequence/supermarket_scheme/supermarket_scheme_3.png","null","",""
"","","","","","image-button-response","96","411427","0.0-14.0-1.0-1.2","18A81CA8EB16496187F786A35105372D","18A81CA8EB16496187F786A35105372D","d46309fe-ec37-4297-942e-9ff8dd8007b8","9076ac92-be42-43a2-9634-8b67c7fe93a7","{""num_scrambled_semantic"":""8"",""num_scrambled_causal"":""4"",""num_scrambled_schematic"":""4"",""participantId"":""18A81CA8EB16496187F786A35105372D"",""assignmentId"":""d46309fe-ec37-4297-942e-9ff8dd8007b8"",""projectId"":""9076ac92-be42-43a2-9634-8b67c7fe93a7""}","https://test12345.live/?num_scrambled_semantic=8&num_scrambled_causal=4&num_scrambled_schematic=4&participantId=18A81CA8EB16496187F786A35105372D&assignmentId=d46309fe-ec37-4297-942e-9ff8dd8007b8&projectId=9076ac92-be42-43a2-9634-8b67c7fe93a7","18A81CA8EB16496187F786A35105372D-2025-05-22-19-51-04","","1364","","images/schematic_sequence/supermarket_scheme/supermarket_scheme_3.png","1","",""
"","","","","","image-button-response","97","413233","0.0-14.0-1.0-2.2","18A81CA8EB16496187F786A35105372D","18A81CA8EB16496187F786A35105372D","d46309fe-ec37-4297-942e-9ff8dd8007b8","9076ac92-be42-43a2-9634-8b67c7fe93a7","{""num_scrambled_semantic"":""8"",""num_scrambled_causal"":""4"",""num_scrambled_schematic"":""4"",""participantId"":""18A81CA8EB16496187F786A35105372D"",""assignmentId"":""d46309fe-ec37-4297-942e-9ff8dd8007b8"",""projectId"":""9076ac92-be42-43a2-9634-8b67c7fe93a7""}","https://test12345.live/?num_scrambled_semantic=8&num_scrambled_causal=4&num_scrambled_schematic=4&participantId=18A81CA8EB16496187F786A35105372D&assignmentId=d46309fe-ec37-4297-942e-9ff8dd8007b8&projectId=9076ac92-be42-43a2-9634-8b67c7fe93a7","18A81CA8EB16496187F786A35105372D-2025-05-22-19-51-04","","null","","[]","null","",""
"","","","","","image-button-response","98","417735","0.0-14.0-1.0-0.3","18A81CA8EB16496187F786A35105372D","18A81CA8EB16496187F786A35105372D","d46309fe-ec37-4297-942e-9ff8dd8007b8","9076ac92-be42-43a2-9634-8b67c7fe93a7","{""num_scrambled_semantic"":""8"",""num_scrambled_causal"":""4"",""num_scrambled_schematic"":""4"",""participantId"":""18A81CA8EB16496187F786A35105372D"",""assignmentId"":""d46309fe-ec37-4297-942e-9ff8dd8007b8"",""projectId"":""9076ac92-be42-43a2-9634-8b67c7fe93a7""}","https://test12345.live/?num_scrambled_semantic=8&num_scrambled_causal=4&num_scrambled_schematic=4&participantId=18A81CA8EB16496187F786A35105372D&assignmentId=d46309fe-ec37-4297-942e-9ff8dd8007b8&projectId=9076ac92-be42-43a2-9634-8b67c7fe93a7","18A81CA8EB16496187F786A35105372D-2025-05-22-19-51-04","","null","","images/schematic_sequence/supermarket_scheme/supermarket_scheme_4.png","null","",""
"","","","","","image-button-response","99","418311","0.0-14.0-1.0-1.3","18A81CA8EB16496187F786A35105372D","18A81CA8EB16496187F786A35105372D","d46309fe-ec37-4297-942e-9ff8dd8007b8","9076ac92-be42-43a2-9634-8b67c7fe93a7","{""num_scrambled_semantic"":""8"",""num_scrambled_causal"":""4"",""num_scrambled_schematic"":""4"",""participantId"":""18A81CA8EB16496187F786A35105372D"",""assignmentId"":""d46309fe-ec37-4297-942e-9ff8dd8007b8"",""projectId"":""9076ac92-be42-43a2-9634-8b67c7fe93a7""}","https://test12345.live/?num_scrambled_semantic=8&num_scrambled_causal=4&num_scrambled_schematic=4&participantId=18A81CA8EB16496187F786A35105372D&assignmentId=d46309fe-ec37-4297-942e-9ff8dd8007b8&projectId=9076ac92-be42-43a2-9634-8b67c7fe93a7","18A81CA8EB16496187F786A35105372D-2025-05-22-19-51-04","","576","","images/schematic_sequence/supermarket_scheme/supermarket_scheme_4.png","0","",""
"","","","","","image-button-response","100","420125","0.0-14.0-1.0-2.3","18A81CA8EB16496187F786A35105372D","18A81CA8EB16496187F786A35105372D","d46309fe-ec37-4297-942e-9ff8dd8007b8","9076ac92-be42-43a2-9634-8b67c7fe93a7","{""num_scrambled_semantic"":""8"",""num_scrambled_causal"":""4"",""num_scrambled_schematic"":""4"",""participantId"":""18A81CA8EB16496187F786A35105372D"",""assignmentId"":""d46309fe-ec37-4297-942e-9ff8dd8007b8"",""projectId"":""9076ac92-be42-43a2-9634-8b67c7fe93a7""}","https://test12345.live/?num_scrambled_semantic=8&num_scrambled_causal=4&num_scrambled_schematic=4&participantId=18A81CA8EB16496187F786A35105372D&assignmentId=d46309fe-ec37-4297-942e-9ff8dd8007b8&projectId=9076ac92-be42-43a2-9634-8b67c7fe93a7","18A81CA8EB16496187F786A35105372D-2025-05-22-19-51-04","","null","","[]","null","",""
"","","","","","image-button-response","101","424628","0.0-14.0-1.0-0.4","18A81CA8EB16496187F786A35105372D","18A81CA8EB16496187F786A35105372D","d46309fe-ec37-4297-942e-9ff8dd8007b8","9076ac92-be42-43a2-9634-8b67c7fe93a7","{""num_scrambled_semantic"":""8"",""num_scrambled_causal"":""4"",""num_scrambled_schematic"":""4"",""participantId"":""18A81CA8EB16496187F786A35105372D"",""assignmentId"":""d46309fe-ec37-4297-942e-9ff8dd8007b8"",""projectId"":""9076ac92-be42-43a2-9634-8b67c7fe93a7""}","https://test12345.live/?num_scrambled_semantic=8&num_scrambled_causal=4&num_scrambled_schematic=4&participantId=18A81CA8EB16496187F786A35105372D&assignmentId=d46309fe-ec37-4297-942e-9ff8dd8007b8&projectId=9076ac92-be42-43a2-9634-8b67c7fe93a7","18A81CA8EB16496187F786A35105372D-2025-05-22-19-51-04","","null","","images/schematic_sequence/supermarket_scheme/supermarket_scheme_5.png","null","",""
"","","","","","image-button-response","102","427559","0.0-14.0-1.0-1.4","18A81CA8EB16496187F786A35105372D","18A81CA8EB16496187F786A35105372D","d46309fe-ec37-4297-942e-9ff8dd8007b8","9076ac92-be42-43a2-9634-8b67c7fe93a7","{""num_scrambled_semantic"":""8"",""num_scrambled_causal"":""4"",""num_scrambled_schematic"":""4"",""participantId"":""18A81CA8EB16496187F786A35105372D"",""assignmentId"":""d46309fe-ec37-4297-942e-9ff8dd8007b8"",""projectId"":""9076ac92-be42-43a2-9634-8b67c7fe93a7""}","https://test12345.live/?num_scrambled_semantic=8&num_scrambled_causal=4&num_scrambled_schematic=4&participantId=18A81CA8EB16496187F786A35105372D&assignmentId=d46309fe-ec37-4297-942e-9ff8dd8007b8&projectId=9076ac92-be42-43a2-9634-8b67c7fe93a7","18A81CA8EB16496187F786A35105372D-2025-05-22-19-51-04","","2930","","images/schematic_sequence/supermarket_scheme/supermarket_scheme_5.png","1","",""
"","","","","","image-button-response","103","429362","0.0-14.0-1.0-2.4","18A81CA8EB16496187F786A35105372D","18A81CA8EB16496187F786A35105372D","d46309fe-ec37-4297-942e-9ff8dd8007b8","9076ac92-be42-43a2-9634-8b67c7fe93a7","{""num_scrambled_semantic"":""8"",""num_scrambled_causal"":""4"",""num_scrambled_schematic"":""4"",""participantId"":""18A81CA8EB16496187F786A35105372D"",""assignmentId"":""d46309fe-ec37-4297-942e-9ff8dd8007b8"",""projectId"":""9076ac92-be42-43a2-9634-8b67c7fe93a7""}","https://test12345.live/?num_scrambled_semantic=8&num_scrambled_causal=4&num_scrambled_schematic=4&participantId=18A81CA8EB16496187F786A35105372D&assignmentId=d46309fe-ec37-4297-942e-9ff8dd8007b8&projectId=9076ac92-be42-43a2-9634-8b67c7fe93a7","18A81CA8EB16496187F786A35105372D-2025-05-22-19-51-04","","null","","[]","null","",""
"","","","","","image-button-response","104","433879","0.0-14.0-1.0-0.5","18A81CA8EB16496187F786A35105372D","18A81CA8EB16496187F786A35105372D","d46309fe-ec37-4297-942e-9ff8dd8007b8","9076ac92-be42-43a2-9634-8b67c7fe93a7","{""num_scrambled_semantic"":""8"",""num_scrambled_causal"":""4"",""num_scrambled_schematic"":""4"",""participantId"":""18A81CA8EB16496187F786A35105372D"",""assignmentId"":""d46309fe-ec37-4297-942e-9ff8dd8007b8"",""projectId"":""9076ac92-be42-43a2-9634-8b67c7fe93a7""}","https://test12345.live/?num_scrambled_semantic=8&num_scrambled_causal=4&num_scrambled_schematic=4&participantId=18A81CA8EB16496187F786A35105372D&assignmentId=d46309fe-ec37-4297-942e-9ff8dd8007b8&projectId=9076ac92-be42-43a2-9634-8b67c7fe93a7","18A81CA8EB16496187F786A35105372D-2025-05-22-19-51-04","","null","","images/schematic_sequence/supermarket_scheme/supermarket_scheme_6.png","null","",""
"","","","","","image-button-response","105","434741","0.0-14.0-1.0-1.5","18A81CA8EB16496187F786A35105372D","18A81CA8EB16496187F786A35105372D","d46309fe-ec37-4297-942e-9ff8dd8007b8","9076ac92-be42-43a2-9634-8b67c7fe93a7","{""num_scrambled_semantic"":""8"",""num_scrambled_causal"":""4"",""num_scrambled_schematic"":""4"",""participantId"":""18A81CA8EB16496187F786A35105372D"",""assignmentId"":""d46309fe-ec37-4297-942e-9ff8dd8007b8"",""projectId"":""9076ac92-be42-43a2-9634-8b67c7fe93a7""}","https://test12345.live/?num_scrambled_semantic=8&num_scrambled_causal=4&num_scrambled_schematic=4&participantId=18A81CA8EB16496187F786A35105372D&assignmentId=d46309fe-ec37-4297-942e-9ff8dd8007b8&projectId=9076ac92-be42-43a2-9634-8b67c7fe93a7","18A81CA8EB16496187F786A35105372D-2025-05-22-19-51-04","","861","","images/schematic_sequence/supermarket_scheme/supermarket_scheme_6.png","0","",""
"","","","","","image-button-response","106","436556","0.0-14.0-1.0-2.5","18A81CA8EB16496187F786A35105372D","18A81CA8EB16496187F786A35105372D","d46309fe-ec37-4297-942e-9ff8dd8007b8","9076ac92-be42-43a2-9634-8b67c7fe93a7","{""num_scrambled_semantic"":""8"",""num_scrambled_causal"":""4"",""num_scrambled_schematic"":""4"",""participantId"":""18A81CA8EB16496187F786A35105372D"",""assignmentId"":""d46309fe-ec37-4297-942e-9ff8dd8007b8"",""projectId"":""9076ac92-be42-43a2-9634-8b67c7fe93a7""}","https://test12345.live/?num_scrambled_semantic=8&num_scrambled_causal=4&num_scrambled_schematic=4&participantId=18A81CA8EB16496187F786A35105372D&assignmentId=d46309fe-ec37-4297-942e-9ff8dd8007b8&projectId=9076ac92-be42-43a2-9634-8b67c7fe93a7","18A81CA8EB16496187F786A35105372D-2025-05-22-19-51-04","","null","","[]","null","",""
"","","","","","image-button-response","107","441057","0.0-14.0-1.0-0.6","18A81CA8EB16496187F786A35105372D","18A81CA8EB16496187F786A35105372D","d46309fe-ec37-4297-942e-9ff8dd8007b8","9076ac92-be42-43a2-9634-8b67c7fe93a7","{""num_scrambled_semantic"":""8"",""num_scrambled_causal"":""4"",""num_scrambled_schematic"":""4"",""participantId"":""18A81CA8EB16496187F786A35105372D"",""assignmentId"":""d46309fe-ec37-4297-942e-9ff8dd8007b8"",""projectId"":""9076ac92-be42-43a2-9634-8b67c7fe93a7""}","https://test12345.live/?num_scrambled_semantic=8&num_scrambled_causal=4&num_scrambled_schematic=4&participantId=18A81CA8EB16496187F786A35105372D&assignmentId=d46309fe-ec37-4297-942e-9ff8dd8007b8&projectId=9076ac92-be42-43a2-9634-8b67c7fe93a7","18A81CA8EB16496187F786A35105372D-2025-05-22-19-51-04","","null","","images/schematic_sequence/supermarket_scheme/supermarket_scheme_7.png","null","",""
"","","","","","image-button-response","108","441908","0.0-14.0-1.0-1.6","18A81CA8EB16496187F786A35105372D","18A81CA8EB16496187F786A35105372D","d46309fe-ec37-4297-942e-9ff8dd8007b8","9076ac92-be42-43a2-9634-8b67c7fe93a7","{""num_scrambled_semantic"":""8"",""num_scrambled_causal"":""4"",""num_scrambled_schematic"":""4"",""participantId"":""18A81CA8EB16496187F786A35105372D"",""assignmentId"":""d46309fe-ec37-4297-942e-9ff8dd8007b8"",""projectId"":""9076ac92-be42-43a2-9634-8b67c7fe93a7""}","https://test12345.live/?num_scrambled_semantic=8&num_scrambled_causal=4&num_scrambled_schematic=4&participantId=18A81CA8EB16496187F786A35105372D&assignmentId=d46309fe-ec37-4297-942e-9ff8dd8007b8&projectId=9076ac92-be42-43a2-9634-8b67c7fe93a7","18A81CA8EB16496187F786A35105372D-2025-05-22-19-51-04","","851","","images/schematic_sequence/supermarket_scheme/supermarket_scheme_7.png","0","",""
"","","","","","image-button-response","109","443718","0.0-14.0-1.0-2.6","18A81CA8EB16496187F786A35105372D","18A81CA8EB16496187F786A35105372D","d46309fe-ec37-4297-942e-9ff8dd8007b8","9076ac92-be42-43a2-9634-8b67c7fe93a7","{""num_scrambled_semantic"":""8"",""num_scrambled_causal"":""4"",""num_scrambled_schematic"":""4"",""participantId"":""18A81CA8EB16496187F786A35105372D"",""assignmentId"":""d46309fe-ec37-4297-942e-9ff8dd8007b8"",""projectId"":""9076ac92-be42-43a2-9634-8b67c7fe93a7""}","https://test12345.live/?num_scrambled_semantic=8&num_scrambled_causal=4&num_scrambled_schematic=4&participantId=18A81CA8EB16496187F786A35105372D&assignmentId=d46309fe-ec37-4297-942e-9ff8dd8007b8&projectId=9076ac92-be42-43a2-9634-8b67c7fe93a7","18A81CA8EB16496187F786A35105372D-2025-05-22-19-51-04","","null","","[]","null","",""
"","","","","","image-button-response","110","448221","0.0-14.0-1.0-0.7","18A81CA8EB16496187F786A35105372D","18A81CA8EB16496187F786A35105372D","d46309fe-ec37-4297-942e-9ff8dd8007b8","9076ac92-be42-43a2-9634-8b67c7fe93a7","{""num_scrambled_semantic"":""8"",""num_scrambled_causal"":""4"",""num_scrambled_schematic"":""4"",""participantId"":""18A81CA8EB16496187F786A35105372D"",""assignmentId"":""d46309fe-ec37-4297-942e-9ff8dd8007b8"",""projectId"":""9076ac92-be42-43a2-9634-8b67c7fe93a7""}","https://test12345.live/?num_scrambled_semantic=8&num_scrambled_causal=4&num_scrambled_schematic=4&participantId=18A81CA8EB16496187F786A35105372D&assignmentId=d46309fe-ec37-4297-942e-9ff8dd8007b8&projectId=9076ac92-be42-43a2-9634-8b67c7fe93a7","18A81CA8EB16496187F786A35105372D-2025-05-22-19-51-04","","null","","images/schematic_sequence/supermarket_scheme/supermarket_scheme_8.png","null","",""
"","","","","","image-button-response","111","448797","0.0-14.0-1.0-1.7","18A81CA8EB16496187F786A35105372D","18A81CA8EB16496187F786A35105372D","d46309fe-ec37-4297-942e-9ff8dd8007b8","9076ac92-be42-43a2-9634-8b67c7fe93a7","{""num_scrambled_semantic"":""8"",""num_scrambled_causal"":""4"",""num_scrambled_schematic"":""4"",""participantId"":""18A81CA8EB16496187F786A35105372D"",""assignmentId"":""d46309fe-ec37-4297-942e-9ff8dd8007b8"",""projectId"":""9076ac92-be42-43a2-9634-8b67c7fe93a7""}","https://test12345.live/?num_scrambled_semantic=8&num_scrambled_causal=4&num_scrambled_schematic=4&participantId=18A81CA8EB16496187F786A35105372D&assignmentId=d46309fe-ec37-4297-942e-9ff8dd8007b8&projectId=9076ac92-be42-43a2-9634-8b67c7fe93a7","18A81CA8EB16496187F786A35105372D-2025-05-22-19-51-04","","575","","images/schematic_sequence/supermarket_scheme/supermarket_scheme_8.png","0","",""
"","","","","","image-button-response","112","450605","0.0-14.0-1.0-2.7","18A81CA8EB16496187F786A35105372D","18A81CA8EB16496187F786A35105372D","d46309fe-ec37-4297-942e-9ff8dd8007b8","9076ac92-be42-43a2-9634-8b67c7fe93a7","{""num_scrambled_semantic"":""8"",""num_scrambled_causal"":""4"",""num_scrambled_schematic"":""4"",""participantId"":""18A81CA8EB16496187F786A35105372D"",""assignmentId"":""d46309fe-ec37-4297-942e-9ff8dd8007b8"",""projectId"":""9076ac92-be42-43a2-9634-8b67c7fe93a7""}","https://test12345.live/?num_scrambled_semantic=8&num_scrambled_causal=4&num_scrambled_schematic=4&participantId=18A81CA8EB16496187F786A35105372D&assignmentId=d46309fe-ec37-4297-942e-9ff8dd8007b8&projectId=9076ac92-be42-43a2-9634-8b67c7fe93a7","18A81CA8EB16496187F786A35105372D-2025-05-22-19-51-04","","null","","[]","null","",""
"","","","","","image-button-response","113","455118","0.0-14.0-1.0-0.8","18A81CA8EB16496187F786A35105372D","18A81CA8EB16496187F786A35105372D","d46309fe-ec37-4297-942e-9ff8dd8007b8","9076ac92-be42-43a2-9634-8b67c7fe93a7","{""num_scrambled_semantic"":""8"",""num_scrambled_causal"":""4"",""num_scrambled_schematic"":""4"",""participantId"":""18A81CA8EB16496187F786A35105372D"",""assignmentId"":""d46309fe-ec37-4297-942e-9ff8dd8007b8"",""projectId"":""9076ac92-be42-43a2-9634-8b67c7fe93a7""}","https://test12345.live/?num_scrambled_semantic=8&num_scrambled_causal=4&num_scrambled_schematic=4&participantId=18A81CA8EB16496187F786A35105372D&assignmentId=d46309fe-ec37-4297-942e-9ff8dd8007b8&projectId=9076ac92-be42-43a2-9634-8b67c7fe93a7","18A81CA8EB16496187F786A35105372D-2025-05-22-19-51-04","","null","","images/schematic_sequence/supermarket_scheme/supermarket_scheme_9.png","null","",""
"","","","","","image-button-response","114","458909","0.0-14.0-1.0-1.8","18A81CA8EB16496187F786A35105372D","18A81CA8EB16496187F786A35105372D","d46309fe-ec37-4297-942e-9ff8dd8007b8","9076ac92-be42-43a2-9634-8b67c7fe93a7","{""num_scrambled_semantic"":""8"",""num_scrambled_causal"":""4"",""num_scrambled_schematic"":""4"",""participantId"":""18A81CA8EB16496187F786A35105372D"",""assignmentId"":""d46309fe-ec37-4297-942e-9ff8dd8007b8"",""projectId"":""9076ac92-be42-43a2-9634-8b67c7fe93a7""}","https://test12345.live/?num_scrambled_semantic=8&num_scrambled_causal=4&num_scrambled_schematic=4&participantId=18A81CA8EB16496187F786A35105372D&assignmentId=d46309fe-ec37-4297-942e-9ff8dd8007b8&projectId=9076ac92-be42-43a2-9634-8b67c7fe93a7","18A81CA8EB16496187F786A35105372D-2025-05-22-19-51-04","","3789","","images/schematic_sequence/supermarket_scheme/supermarket_scheme_9.png","0","",""
