"success","timeout","failed_images","failed_audio","failed_video","trial_type","trial_index","time_elapsed","internal_node_id","subject","subject_id","study_id","session_id","urlvar","current_url","audio_id","view_history","rt","device_id","stimulus","response","estimated_stimulus_onset","seq_name"
"true","false","[]","[]","[]","preload","0","7847","0.0-0.0","18ED08C9AB6B4551A1F04FB4F0D917E1","18ED08C9AB6B4551A1F04FB4F0D917E1","2fea9c6d-2ab1-41c3-b37b-e61d9a493a3a","051c06f1-75cc-4548-856d-4923ddaba0dc","{""num_scrambled_semantic"":""8"",""num_scrambled_causal"":""4"",""num_scrambled_schematic"":""4"",""participantId"":""18ED08C9AB6B4551A1F04FB4F0D917E1"",""assignmentId"":""2fea9c6d-2ab1-41c3-b37b-e61d9a493a3a"",""projectId"":""051c06f1-75cc-4548-856d-4923ddaba0dc""}","https://test12345.live/?num_scrambled_semantic=8&num_scrambled_causal=4&num_scrambled_schematic=4&participantId=18ED08C9AB6B4551A1F04FB4F0D917E1&assignmentId=2fea9c6d-2ab1-41c3-b37b-e61d9a493a3a&projectId=051c06f1-75cc-4548-856d-4923ddaba0dc","18ED08C9AB6B4551A1F04FB4F0D917E1-2025-05-15-19-04-30","","","","","","",""
"","","","","","instructions","1","67390","0.0-1.0","18ED08C9AB6B4551A1F04FB4F0D917E1","18ED08C9AB6B4551A1F04FB4F0D917E1","2fea9c6d-2ab1-41c3-b37b-e61d9a493a3a","051c06f1-75cc-4548-856d-4923ddaba0dc","{""num_scrambled_semantic"":""8"",""num_scrambled_causal"":""4"",""num_scrambled_schematic"":""4"",""participantId"":""18ED08C9AB6B4551A1F04FB4F0D917E1"",""assignmentId"":""2fea9c6d-2ab1-41c3-b37b-e61d9a493a3a"",""projectId"":""051c06f1-75cc-4548-856d-4923ddaba0dc""}","https://test12345.live/?num_scrambled_semantic=8&num_scrambled_causal=4&num_scrambled_schematic=4&participantId=18ED08C9AB6B4551A1F04FB4F0D917E1&assignmentId=2fea9c6d-2ab1-41c3-b37b-e61d9a493a3a&projectId=051c06f1-75cc-4548-856d-4923ddaba0dc","18ED08C9AB6B4551A1F04FB4F0D917E1-2025-05-15-19-04-30","[{""page_index"":0,""viewing_time"":59542}]","59542","","","","",""
"","","","","","instructions","2","84947","0.0-2.0","18ED08C9AB6B4551A1F04FB4F0D917E1","18ED08C9AB6B4551A1F04FB4F0D917E1","2fea9c6d-2ab1-41c3-b37b-e61d9a493a3a","051c06f1-75cc-4548-856d-4923ddaba0dc","{""num_scrambled_semantic"":""8"",""num_scrambled_causal"":""4"",""num_scrambled_schematic"":""4"",""participantId"":""18ED08C9AB6B4551A1F04FB4F0D917E1"",""assignmentId"":""2fea9c6d-2ab1-41c3-b37b-e61d9a493a3a"",""projectId"":""051c06f1-75cc-4548-856d-4923ddaba0dc""}","https://test12345.live/?num_scrambled_semantic=8&num_scrambled_causal=4&num_scrambled_schematic=4&participantId=18ED08C9AB6B4551A1F04FB4F0D917E1&assignmentId=2fea9c6d-2ab1-41c3-b37b-e61d9a493a3a&projectId=051c06f1-75cc-4548-856d-4923ddaba0dc","18ED08C9AB6B4551A1F04FB4F0D917E1-2025-05-15-19-04-30","[{""page_index"":0,""viewing_time"":17557}]","17557","","","","",""
"true","","","","","fullscreen","3","88865","0.0-3.0","18ED08C9AB6B4551A1F04FB4F0D917E1","18ED08C9AB6B4551A1F04FB4F0D917E1","2fea9c6d-2ab1-41c3-b37b-e61d9a493a3a","051c06f1-75cc-4548-856d-4923ddaba0dc","{""num_scrambled_semantic"":""8"",""num_scrambled_causal"":""4"",""num_scrambled_schematic"":""4"",""participantId"":""18ED08C9AB6B4551A1F04FB4F0D917E1"",""assignmentId"":""2fea9c6d-2ab1-41c3-b37b-e61d9a493a3a"",""projectId"":""051c06f1-75cc-4548-856d-4923ddaba0dc""}","https://test12345.live/?num_scrambled_semantic=8&num_scrambled_causal=4&num_scrambled_schematic=4&participantId=18ED08C9AB6B4551A1F04FB4F0D917E1&assignmentId=2fea9c6d-2ab1-41c3-b37b-e61d9a493a3a&projectId=051c06f1-75cc-4548-856d-4923ddaba0dc","18ED08C9AB6B4551A1F04FB4F0D917E1-2025-05-15-19-04-30","","2902","","","","",""
"","","","","","initialize-microphone","4","101137","0.0-4.0-0.0","18ED08C9AB6B4551A1F04FB4F0D917E1","18ED08C9AB6B4551A1F04FB4F0D917E1","2fea9c6d-2ab1-41c3-b37b-e61d9a493a3a","051c06f1-75cc-4548-856d-4923ddaba0dc","{""num_scrambled_semantic"":""8"",""num_scrambled_causal"":""4"",""num_scrambled_schematic"":""4"",""participantId"":""18ED08C9AB6B4551A1F04FB4F0D917E1"",""assignmentId"":""2fea9c6d-2ab1-41c3-b37b-e61d9a493a3a"",""projectId"":""051c06f1-75cc-4548-856d-4923ddaba0dc""}","https://test12345.live/?num_scrambled_semantic=8&num_scrambled_causal=4&num_scrambled_schematic=4&participantId=18ED08C9AB6B4551A1F04FB4F0D917E1&assignmentId=2fea9c6d-2ab1-41c3-b37b-e61d9a493a3a&projectId=051c06f1-75cc-4548-856d-4923ddaba0dc","18ED08C9AB6B4551A1F04FB4F0D917E1-2025-05-15-19-04-30","","","58c726ceee52ad3f71d8908b4050ddb04110bc6fceceb7f3a1a87486425106e8","","","",""
"","","","","","html-audio-response","5","113449","0.0-4.0-1.0","18ED08C9AB6B4551A1F04FB4F0D917E1","18ED08C9AB6B4551A1F04FB4F0D917E1","2fea9c6d-2ab1-41c3-b37b-e61d9a493a3a","051c06f1-75cc-4548-856d-4923ddaba0dc","{""num_scrambled_semantic"":""8"",""num_scrambled_causal"":""4"",""num_scrambled_schematic"":""4"",""participantId"":""18ED08C9AB6B4551A1F04FB4F0D917E1"",""assignmentId"":""2fea9c6d-2ab1-41c3-b37b-e61d9a493a3a"",""projectId"":""051c06f1-75cc-4548-856d-4923ddaba0dc""}","https://test12345.live/?num_scrambled_semantic=8&num_scrambled_causal=4&num_scrambled_schematic=4&participantId=18ED08C9AB6B4551A1F04FB4F0D917E1&assignmentId=2fea9c6d-2ab1-41c3-b37b-e61d9a493a3a&projectId=051c06f1-75cc-4548-856d-4923ddaba0dc","18ED08C9AB6B4551A1F04FB4F0D917E1-2025-05-15-19-04-30","","5065","","<span style=""color: red; font-size: 24px""> NOW RECORDING</span>
        <p>Please test Microphone</p>","","3",""
"","","","","","html-button-response","6","138712","0.0-4.0-2.0","18ED08C9AB6B4551A1F04FB4F0D917E1","18ED08C9AB6B4551A1F04FB4F0D917E1","2fea9c6d-2ab1-41c3-b37b-e61d9a493a3a","051c06f1-75cc-4548-856d-4923ddaba0dc","{""num_scrambled_semantic"":""8"",""num_scrambled_causal"":""4"",""num_scrambled_schematic"":""4"",""participantId"":""18ED08C9AB6B4551A1F04FB4F0D917E1"",""assignmentId"":""2fea9c6d-2ab1-41c3-b37b-e61d9a493a3a"",""projectId"":""051c06f1-75cc-4548-856d-4923ddaba0dc""}","https://test12345.live/?num_scrambled_semantic=8&num_scrambled_causal=4&num_scrambled_schematic=4&participantId=18ED08C9AB6B4551A1F04FB4F0D917E1&assignmentId=2fea9c6d-2ab1-41c3-b37b-e61d9a493a3a&projectId=051c06f1-75cc-4548-856d-4923ddaba0dc","18ED08C9AB6B4551A1F04FB4F0D917E1-2025-05-15-19-04-30","","25262","","<p style=""font-size:48px; color:red;"">Is Microphone OK?</p>","1","",""
"","","","","","instructions","7","149814","0.0-5.0","18ED08C9AB6B4551A1F04FB4F0D917E1","18ED08C9AB6B4551A1F04FB4F0D917E1","2fea9c6d-2ab1-41c3-b37b-e61d9a493a3a","051c06f1-75cc-4548-856d-4923ddaba0dc","{""num_scrambled_semantic"":""8"",""num_scrambled_causal"":""4"",""num_scrambled_schematic"":""4"",""participantId"":""18ED08C9AB6B4551A1F04FB4F0D917E1"",""assignmentId"":""2fea9c6d-2ab1-41c3-b37b-e61d9a493a3a"",""projectId"":""051c06f1-75cc-4548-856d-4923ddaba0dc""}","https://test12345.live/?num_scrambled_semantic=8&num_scrambled_causal=4&num_scrambled_schematic=4&participantId=18ED08C9AB6B4551A1F04FB4F0D917E1&assignmentId=2fea9c6d-2ab1-41c3-b37b-e61d9a493a3a&projectId=051c06f1-75cc-4548-856d-4923ddaba0dc","18ED08C9AB6B4551A1F04FB4F0D917E1-2025-05-15-19-04-30","[{""page_index"":0,""viewing_time"":5519},{""page_index"":1,""viewing_time"":5582}]","11101","","","","",""
"","","","","","image-button-response","8","155818","0.0-6.0-0.0","18ED08C9AB6B4551A1F04FB4F0D917E1","18ED08C9AB6B4551A1F04FB4F0D917E1","2fea9c6d-2ab1-41c3-b37b-e61d9a493a3a","051c06f1-75cc-4548-856d-4923ddaba0dc","{""num_scrambled_semantic"":""8"",""num_scrambled_causal"":""4"",""num_scrambled_schematic"":""4"",""participantId"":""18ED08C9AB6B4551A1F04FB4F0D917E1"",""assignmentId"":""2fea9c6d-2ab1-41c3-b37b-e61d9a493a3a"",""projectId"":""051c06f1-75cc-4548-856d-4923ddaba0dc""}","https://test12345.live/?num_scrambled_semantic=8&num_scrambled_causal=4&num_scrambled_schematic=4&participantId=18ED08C9AB6B4551A1F04FB4F0D917E1&assignmentId=2fea9c6d-2ab1-41c3-b37b-e61d9a493a3a&projectId=051c06f1-75cc-4548-856d-4923ddaba0dc","18ED08C9AB6B4551A1F04FB4F0D917E1-2025-05-15-19-04-30","","null","","images/instructions/movie_0.png","null","",""
"","","","","","image-button-response","9","160325","0.0-6.0-1.0-0.0","18ED08C9AB6B4551A1F04FB4F0D917E1","18ED08C9AB6B4551A1F04FB4F0D917E1","2fea9c6d-2ab1-41c3-b37b-e61d9a493a3a","051c06f1-75cc-4548-856d-4923ddaba0dc","{""num_scrambled_semantic"":""8"",""num_scrambled_causal"":""4"",""num_scrambled_schematic"":""4"",""participantId"":""18ED08C9AB6B4551A1F04FB4F0D917E1"",""assignmentId"":""2fea9c6d-2ab1-41c3-b37b-e61d9a493a3a"",""projectId"":""051c06f1-75cc-4548-856d-4923ddaba0dc""}","https://test12345.live/?num_scrambled_semantic=8&num_scrambled_causal=4&num_scrambled_schematic=4&participantId=18ED08C9AB6B4551A1F04FB4F0D917E1&assignmentId=2fea9c6d-2ab1-41c3-b37b-e61d9a493a3a&projectId=051c06f1-75cc-4548-856d-4923ddaba0dc","18ED08C9AB6B4551A1F04FB4F0D917E1-2025-05-15-19-04-30","","null","","images/instructions/movie_1.png","null","",""
"","","","","","image-button-response","10","162969","0.0-6.0-1.0-1.0","18ED08C9AB6B4551A1F04FB4F0D917E1","18ED08C9AB6B4551A1F04FB4F0D917E1","2fea9c6d-2ab1-41c3-b37b-e61d9a493a3a","051c06f1-75cc-4548-856d-4923ddaba0dc","{""num_scrambled_semantic"":""8"",""num_scrambled_causal"":""4"",""num_scrambled_schematic"":""4"",""participantId"":""18ED08C9AB6B4551A1F04FB4F0D917E1"",""assignmentId"":""2fea9c6d-2ab1-41c3-b37b-e61d9a493a3a"",""projectId"":""051c06f1-75cc-4548-856d-4923ddaba0dc""}","https://test12345.live/?num_scrambled_semantic=8&num_scrambled_causal=4&num_scrambled_schematic=4&participantId=18ED08C9AB6B4551A1F04FB4F0D917E1&assignmentId=2fea9c6d-2ab1-41c3-b37b-e61d9a493a3a&projectId=051c06f1-75cc-4548-856d-4923ddaba0dc","18ED08C9AB6B4551A1F04FB4F0D917E1-2025-05-15-19-04-30","","2643","","images/instructions/movie_1.png","0","",""
"","","","","","image-button-response","11","164772","0.0-6.0-1.0-2.0","18ED08C9AB6B4551A1F04FB4F0D917E1","18ED08C9AB6B4551A1F04FB4F0D917E1","2fea9c6d-2ab1-41c3-b37b-e61d9a493a3a","051c06f1-75cc-4548-856d-4923ddaba0dc","{""num_scrambled_semantic"":""8"",""num_scrambled_causal"":""4"",""num_scrambled_schematic"":""4"",""participantId"":""18ED08C9AB6B4551A1F04FB4F0D917E1"",""assignmentId"":""2fea9c6d-2ab1-41c3-b37b-e61d9a493a3a"",""projectId"":""051c06f1-75cc-4548-856d-4923ddaba0dc""}","https://test12345.live/?num_scrambled_semantic=8&num_scrambled_causal=4&num_scrambled_schematic=4&participantId=18ED08C9AB6B4551A1F04FB4F0D917E1&assignmentId=2fea9c6d-2ab1-41c3-b37b-e61d9a493a3a&projectId=051c06f1-75cc-4548-856d-4923ddaba0dc","18ED08C9AB6B4551A1F04FB4F0D917E1-2025-05-15-19-04-30","","null","","[]","null","",""
"","","","","","image-button-response","12","169279","0.0-6.0-1.0-0.1","18ED08C9AB6B4551A1F04FB4F0D917E1","18ED08C9AB6B4551A1F04FB4F0D917E1","2fea9c6d-2ab1-41c3-b37b-e61d9a493a3a","051c06f1-75cc-4548-856d-4923ddaba0dc","{""num_scrambled_semantic"":""8"",""num_scrambled_causal"":""4"",""num_scrambled_schematic"":""4"",""participantId"":""18ED08C9AB6B4551A1F04FB4F0D917E1"",""assignmentId"":""2fea9c6d-2ab1-41c3-b37b-e61d9a493a3a"",""projectId"":""051c06f1-75cc-4548-856d-4923ddaba0dc""}","https://test12345.live/?num_scrambled_semantic=8&num_scrambled_causal=4&num_scrambled_schematic=4&participantId=18ED08C9AB6B4551A1F04FB4F0D917E1&assignmentId=2fea9c6d-2ab1-41c3-b37b-e61d9a493a3a&projectId=051c06f1-75cc-4548-856d-4923ddaba0dc","18ED08C9AB6B4551A1F04FB4F0D917E1-2025-05-15-19-04-30","","null","","images/instructions/movie_2.png","null","",""
"","","","","","image-button-response","13","171315","0.0-6.0-1.0-1.1","18ED08C9AB6B4551A1F04FB4F0D917E1","18ED08C9AB6B4551A1F04FB4F0D917E1","2fea9c6d-2ab1-41c3-b37b-e61d9a493a3a","051c06f1-75cc-4548-856d-4923ddaba0dc","{""num_scrambled_semantic"":""8"",""num_scrambled_causal"":""4"",""num_scrambled_schematic"":""4"",""participantId"":""18ED08C9AB6B4551A1F04FB4F0D917E1"",""assignmentId"":""2fea9c6d-2ab1-41c3-b37b-e61d9a493a3a"",""projectId"":""051c06f1-75cc-4548-856d-4923ddaba0dc""}","https://test12345.live/?num_scrambled_semantic=8&num_scrambled_causal=4&num_scrambled_schematic=4&participantId=18ED08C9AB6B4551A1F04FB4F0D917E1&assignmentId=2fea9c6d-2ab1-41c3-b37b-e61d9a493a3a&projectId=051c06f1-75cc-4548-856d-4923ddaba0dc","18ED08C9AB6B4551A1F04FB4F0D917E1-2025-05-15-19-04-30","","2035","","images/instructions/movie_2.png","1","",""
"","","","","","image-button-response","14","173120","0.0-6.0-1.0-2.1","18ED08C9AB6B4551A1F04FB4F0D917E1","18ED08C9AB6B4551A1F04FB4F0D917E1","2fea9c6d-2ab1-41c3-b37b-e61d9a493a3a","051c06f1-75cc-4548-856d-4923ddaba0dc","{""num_scrambled_semantic"":""8"",""num_scrambled_causal"":""4"",""num_scrambled_schematic"":""4"",""participantId"":""18ED08C9AB6B4551A1F04FB4F0D917E1"",""assignmentId"":""2fea9c6d-2ab1-41c3-b37b-e61d9a493a3a"",""projectId"":""051c06f1-75cc-4548-856d-4923ddaba0dc""}","https://test12345.live/?num_scrambled_semantic=8&num_scrambled_causal=4&num_scrambled_schematic=4&participantId=18ED08C9AB6B4551A1F04FB4F0D917E1&assignmentId=2fea9c6d-2ab1-41c3-b37b-e61d9a493a3a&projectId=051c06f1-75cc-4548-856d-4923ddaba0dc","18ED08C9AB6B4551A1F04FB4F0D917E1-2025-05-15-19-04-30","","null","","[]","null","",""
"","","","","","image-button-response","15","177636","0.0-6.0-1.0-0.2","18ED08C9AB6B4551A1F04FB4F0D917E1","18ED08C9AB6B4551A1F04FB4F0D917E1","2fea9c6d-2ab1-41c3-b37b-e61d9a493a3a","051c06f1-75cc-4548-856d-4923ddaba0dc","{""num_scrambled_semantic"":""8"",""num_scrambled_causal"":""4"",""num_scrambled_schematic"":""4"",""participantId"":""18ED08C9AB6B4551A1F04FB4F0D917E1"",""assignmentId"":""2fea9c6d-2ab1-41c3-b37b-e61d9a493a3a"",""projectId"":""051c06f1-75cc-4548-856d-4923ddaba0dc""}","https://test12345.live/?num_scrambled_semantic=8&num_scrambled_causal=4&num_scrambled_schematic=4&participantId=18ED08C9AB6B4551A1F04FB4F0D917E1&assignmentId=2fea9c6d-2ab1-41c3-b37b-e61d9a493a3a&projectId=051c06f1-75cc-4548-856d-4923ddaba0dc","18ED08C9AB6B4551A1F04FB4F0D917E1-2025-05-15-19-04-30","","null","","images/instructions/movie_3.png","null","",""
"","","","","","image-button-response","16","178975","0.0-6.0-1.0-1.2","18ED08C9AB6B4551A1F04FB4F0D917E1","18ED08C9AB6B4551A1F04FB4F0D917E1","2fea9c6d-2ab1-41c3-b37b-e61d9a493a3a","051c06f1-75cc-4548-856d-4923ddaba0dc","{""num_scrambled_semantic"":""8"",""num_scrambled_causal"":""4"",""num_scrambled_schematic"":""4"",""participantId"":""18ED08C9AB6B4551A1F04FB4F0D917E1"",""assignmentId"":""2fea9c6d-2ab1-41c3-b37b-e61d9a493a3a"",""projectId"":""051c06f1-75cc-4548-856d-4923ddaba0dc""}","https://test12345.live/?num_scrambled_semantic=8&num_scrambled_causal=4&num_scrambled_schematic=4&participantId=18ED08C9AB6B4551A1F04FB4F0D917E1&assignmentId=2fea9c6d-2ab1-41c3-b37b-e61d9a493a3a&projectId=051c06f1-75cc-4548-856d-4923ddaba0dc","18ED08C9AB6B4551A1F04FB4F0D917E1-2025-05-15-19-04-30","","1338","","images/instructions/movie_3.png","0","",""
"","","","","","image-button-response","17","180790","0.0-6.0-1.0-2.2","18ED08C9AB6B4551A1F04FB4F0D917E1","18ED08C9AB6B4551A1F04FB4F0D917E1","2fea9c6d-2ab1-41c3-b37b-e61d9a493a3a","051c06f1-75cc-4548-856d-4923ddaba0dc","{""num_scrambled_semantic"":""8"",""num_scrambled_causal"":""4"",""num_scrambled_schematic"":""4"",""participantId"":""18ED08C9AB6B4551A1F04FB4F0D917E1"",""assignmentId"":""2fea9c6d-2ab1-41c3-b37b-e61d9a493a3a"",""projectId"":""051c06f1-75cc-4548-856d-4923ddaba0dc""}","https://test12345.live/?num_scrambled_semantic=8&num_scrambled_causal=4&num_scrambled_schematic=4&participantId=18ED08C9AB6B4551A1F04FB4F0D917E1&assignmentId=2fea9c6d-2ab1-41c3-b37b-e61d9a493a3a&projectId=051c06f1-75cc-4548-856d-4923ddaba0dc","18ED08C9AB6B4551A1F04FB4F0D917E1-2025-05-15-19-04-30","","null","","[]","null","",""
"","","","","","image-button-response","18","185295","0.0-6.0-1.0-0.3","18ED08C9AB6B4551A1F04FB4F0D917E1","18ED08C9AB6B4551A1F04FB4F0D917E1","2fea9c6d-2ab1-41c3-b37b-e61d9a493a3a","051c06f1-75cc-4548-856d-4923ddaba0dc","{""num_scrambled_semantic"":""8"",""num_scrambled_causal"":""4"",""num_scrambled_schematic"":""4"",""participantId"":""18ED08C9AB6B4551A1F04FB4F0D917E1"",""assignmentId"":""2fea9c6d-2ab1-41c3-b37b-e61d9a493a3a"",""projectId"":""051c06f1-75cc-4548-856d-4923ddaba0dc""}","https://test12345.live/?num_scrambled_semantic=8&num_scrambled_causal=4&num_scrambled_schematic=4&participantId=18ED08C9AB6B4551A1F04FB4F0D917E1&assignmentId=2fea9c6d-2ab1-41c3-b37b-e61d9a493a3a&projectId=051c06f1-75cc-4548-856d-4923ddaba0dc","18ED08C9AB6B4551A1F04FB4F0D917E1-2025-05-15-19-04-30","","null","","images/instructions/movie_4.png","null","",""
"","","","","","image-button-response","19","186658","0.0-6.0-1.0-1.3","18ED08C9AB6B4551A1F04FB4F0D917E1","18ED08C9AB6B4551A1F04FB4F0D917E1","2fea9c6d-2ab1-41c3-b37b-e61d9a493a3a","051c06f1-75cc-4548-856d-4923ddaba0dc","{""num_scrambled_semantic"":""8"",""num_scrambled_causal"":""4"",""num_scrambled_schematic"":""4"",""participantId"":""18ED08C9AB6B4551A1F04FB4F0D917E1"",""assignmentId"":""2fea9c6d-2ab1-41c3-b37b-e61d9a493a3a"",""projectId"":""051c06f1-75cc-4548-856d-4923ddaba0dc""}","https://test12345.live/?num_scrambled_semantic=8&num_scrambled_causal=4&num_scrambled_schematic=4&participantId=18ED08C9AB6B4551A1F04FB4F0D917E1&assignmentId=2fea9c6d-2ab1-41c3-b37b-e61d9a493a3a&projectId=051c06f1-75cc-4548-856d-4923ddaba0dc","18ED08C9AB6B4551A1F04FB4F0D917E1-2025-05-15-19-04-30","","1362","","images/instructions/movie_4.png","0","",""
"","","","","","image-button-response","20","188461","0.0-6.0-1.0-2.3","18ED08C9AB6B4551A1F04FB4F0D917E1","18ED08C9AB6B4551A1F04FB4F0D917E1","2fea9c6d-2ab1-41c3-b37b-e61d9a493a3a","051c06f1-75cc-4548-856d-4923ddaba0dc","{""num_scrambled_semantic"":""8"",""num_scrambled_causal"":""4"",""num_scrambled_schematic"":""4"",""participantId"":""18ED08C9AB6B4551A1F04FB4F0D917E1"",""assignmentId"":""2fea9c6d-2ab1-41c3-b37b-e61d9a493a3a"",""projectId"":""051c06f1-75cc-4548-856d-4923ddaba0dc""}","https://test12345.live/?num_scrambled_semantic=8&num_scrambled_causal=4&num_scrambled_schematic=4&participantId=18ED08C9AB6B4551A1F04FB4F0D917E1&assignmentId=2fea9c6d-2ab1-41c3-b37b-e61d9a493a3a&projectId=051c06f1-75cc-4548-856d-4923ddaba0dc","18ED08C9AB6B4551A1F04FB4F0D917E1-2025-05-15-19-04-30","","null","","[]","null","",""
"","","","","","instructions","21","204206","0.0-7.0","18ED08C9AB6B4551A1F04FB4F0D917E1","18ED08C9AB6B4551A1F04FB4F0D917E1","2fea9c6d-2ab1-41c3-b37b-e61d9a493a3a","051c06f1-75cc-4548-856d-4923ddaba0dc","{""num_scrambled_semantic"":""8"",""num_scrambled_causal"":""4"",""num_scrambled_schematic"":""4"",""participantId"":""18ED08C9AB6B4551A1F04FB4F0D917E1"",""assignmentId"":""2fea9c6d-2ab1-41c3-b37b-e61d9a493a3a"",""projectId"":""051c06f1-75cc-4548-856d-4923ddaba0dc""}","https://test12345.live/?num_scrambled_semantic=8&num_scrambled_causal=4&num_scrambled_schematic=4&participantId=18ED08C9AB6B4551A1F04FB4F0D917E1&assignmentId=2fea9c6d-2ab1-41c3-b37b-e61d9a493a3a&projectId=051c06f1-75cc-4548-856d-4923ddaba0dc","18ED08C9AB6B4551A1F04FB4F0D917E1-2025-05-15-19-04-30","[{""page_index"":0,""viewing_time"":14181},{""page_index"":1,""viewing_time"":1564}]","15745","","","","",""
"","","","","","html-audio-response","22","253093","0.0-8.0","18ED08C9AB6B4551A1F04FB4F0D917E1","18ED08C9AB6B4551A1F04FB4F0D917E1","2fea9c6d-2ab1-41c3-b37b-e61d9a493a3a","051c06f1-75cc-4548-856d-4923ddaba0dc","{""num_scrambled_semantic"":""8"",""num_scrambled_causal"":""4"",""num_scrambled_schematic"":""4"",""participantId"":""18ED08C9AB6B4551A1F04FB4F0D917E1"",""assignmentId"":""2fea9c6d-2ab1-41c3-b37b-e61d9a493a3a"",""projectId"":""051c06f1-75cc-4548-856d-4923ddaba0dc""}","https://test12345.live/?num_scrambled_semantic=8&num_scrambled_causal=4&num_scrambled_schematic=4&participantId=18ED08C9AB6B4551A1F04FB4F0D917E1&assignmentId=2fea9c6d-2ab1-41c3-b37b-e61d9a493a3a&projectId=051c06f1-75cc-4548-856d-4923ddaba0dc","18ED08C9AB6B4551A1F04FB4F0D917E1-2025-05-15-19-04-30","","34866","","[""<span style=\""color: red; font-size: 24px\""> NOW RECORDING</span><p>Please say out loud all the images you saw, as many as you can remember. The images can be said in any order.</p>""]","","1",""
"","","","","","instructions","23","254498","0.0-9.0","18ED08C9AB6B4551A1F04FB4F0D917E1","18ED08C9AB6B4551A1F04FB4F0D917E1","2fea9c6d-2ab1-41c3-b37b-e61d9a493a3a","051c06f1-75cc-4548-856d-4923ddaba0dc","{""num_scrambled_semantic"":""8"",""num_scrambled_causal"":""4"",""num_scrambled_schematic"":""4"",""participantId"":""18ED08C9AB6B4551A1F04FB4F0D917E1"",""assignmentId"":""2fea9c6d-2ab1-41c3-b37b-e61d9a493a3a"",""projectId"":""051c06f1-75cc-4548-856d-4923ddaba0dc""}","https://test12345.live/?num_scrambled_semantic=8&num_scrambled_causal=4&num_scrambled_schematic=4&participantId=18ED08C9AB6B4551A1F04FB4F0D917E1&assignmentId=2fea9c6d-2ab1-41c3-b37b-e61d9a493a3a&projectId=051c06f1-75cc-4548-856d-4923ddaba0dc","18ED08C9AB6B4551A1F04FB4F0D917E1-2025-05-15-19-04-30","[{""page_index"":0,""viewing_time"":1398}]","1398","","","","",""
"","","","","","image-button-response","24","260509","0.0-10.0-0.0","18ED08C9AB6B4551A1F04FB4F0D917E1","18ED08C9AB6B4551A1F04FB4F0D917E1","2fea9c6d-2ab1-41c3-b37b-e61d9a493a3a","051c06f1-75cc-4548-856d-4923ddaba0dc","{""num_scrambled_semantic"":""8"",""num_scrambled_causal"":""4"",""num_scrambled_schematic"":""4"",""participantId"":""18ED08C9AB6B4551A1F04FB4F0D917E1"",""assignmentId"":""2fea9c6d-2ab1-41c3-b37b-e61d9a493a3a"",""projectId"":""051c06f1-75cc-4548-856d-4923ddaba0dc""}","https://test12345.live/?num_scrambled_semantic=8&num_scrambled_causal=4&num_scrambled_schematic=4&participantId=18ED08C9AB6B4551A1F04FB4F0D917E1&assignmentId=2fea9c6d-2ab1-41c3-b37b-e61d9a493a3a&projectId=051c06f1-75cc-4548-856d-4923ddaba0dc","18ED08C9AB6B4551A1F04FB4F0D917E1-2025-05-15-19-04-30","","null","","images/causal_sequence/dog_causal/dog_causal_0.png","null","",""
"","","","","","image-button-response","25","265028","0.0-10.0-1.0-0.0","18ED08C9AB6B4551A1F04FB4F0D917E1","18ED08C9AB6B4551A1F04FB4F0D917E1","2fea9c6d-2ab1-41c3-b37b-e61d9a493a3a","051c06f1-75cc-4548-856d-4923ddaba0dc","{""num_scrambled_semantic"":""8"",""num_scrambled_causal"":""4"",""num_scrambled_schematic"":""4"",""participantId"":""18ED08C9AB6B4551A1F04FB4F0D917E1"",""assignmentId"":""2fea9c6d-2ab1-41c3-b37b-e61d9a493a3a"",""projectId"":""051c06f1-75cc-4548-856d-4923ddaba0dc""}","https://test12345.live/?num_scrambled_semantic=8&num_scrambled_causal=4&num_scrambled_schematic=4&participantId=18ED08C9AB6B4551A1F04FB4F0D917E1&assignmentId=2fea9c6d-2ab1-41c3-b37b-e61d9a493a3a&projectId=051c06f1-75cc-4548-856d-4923ddaba0dc","18ED08C9AB6B4551A1F04FB4F0D917E1-2025-05-15-19-04-30","","null","","images/causal_sequence/dog_causal/dog_causal_ten.png","null","",""
"","","","","","image-button-response","26","268193","0.0-10.0-1.0-1.0","18ED08C9AB6B4551A1F04FB4F0D917E1","18ED08C9AB6B4551A1F04FB4F0D917E1","2fea9c6d-2ab1-41c3-b37b-e61d9a493a3a","051c06f1-75cc-4548-856d-4923ddaba0dc","{""num_scrambled_semantic"":""8"",""num_scrambled_causal"":""4"",""num_scrambled_schematic"":""4"",""participantId"":""18ED08C9AB6B4551A1F04FB4F0D917E1"",""assignmentId"":""2fea9c6d-2ab1-41c3-b37b-e61d9a493a3a"",""projectId"":""051c06f1-75cc-4548-856d-4923ddaba0dc""}","https://test12345.live/?num_scrambled_semantic=8&num_scrambled_causal=4&num_scrambled_schematic=4&participantId=18ED08C9AB6B4551A1F04FB4F0D917E1&assignmentId=2fea9c6d-2ab1-41c3-b37b-e61d9a493a3a&projectId=051c06f1-75cc-4548-856d-4923ddaba0dc","18ED08C9AB6B4551A1F04FB4F0D917E1-2025-05-15-19-04-30","","3165","","images/causal_sequence/dog_causal/dog_causal_ten.png","0","",""
"","","","","","image-button-response","27","270004","0.0-10.0-1.0-2.0","18ED08C9AB6B4551A1F04FB4F0D917E1","18ED08C9AB6B4551A1F04FB4F0D917E1","2fea9c6d-2ab1-41c3-b37b-e61d9a493a3a","051c06f1-75cc-4548-856d-4923ddaba0dc","{""num_scrambled_semantic"":""8"",""num_scrambled_causal"":""4"",""num_scrambled_schematic"":""4"",""participantId"":""18ED08C9AB6B4551A1F04FB4F0D917E1"",""assignmentId"":""2fea9c6d-2ab1-41c3-b37b-e61d9a493a3a"",""projectId"":""051c06f1-75cc-4548-856d-4923ddaba0dc""}","https://test12345.live/?num_scrambled_semantic=8&num_scrambled_causal=4&num_scrambled_schematic=4&participantId=18ED08C9AB6B4551A1F04FB4F0D917E1&assignmentId=2fea9c6d-2ab1-41c3-b37b-e61d9a493a3a&projectId=051c06f1-75cc-4548-856d-4923ddaba0dc","18ED08C9AB6B4551A1F04FB4F0D917E1-2025-05-15-19-04-30","","null","","[]","null","",""
"","","","","","image-button-response","28","274519","0.0-10.0-1.0-0.1","18ED08C9AB6B4551A1F04FB4F0D917E1","18ED08C9AB6B4551A1F04FB4F0D917E1","2fea9c6d-2ab1-41c3-b37b-e61d9a493a3a","051c06f1-75cc-4548-856d-4923ddaba0dc","{""num_scrambled_semantic"":""8"",""num_scrambled_causal"":""4"",""num_scrambled_schematic"":""4"",""participantId"":""18ED08C9AB6B4551A1F04FB4F0D917E1"",""assignmentId"":""2fea9c6d-2ab1-41c3-b37b-e61d9a493a3a"",""projectId"":""051c06f1-75cc-4548-856d-4923ddaba0dc""}","https://test12345.live/?num_scrambled_semantic=8&num_scrambled_causal=4&num_scrambled_schematic=4&participantId=18ED08C9AB6B4551A1F04FB4F0D917E1&assignmentId=2fea9c6d-2ab1-41c3-b37b-e61d9a493a3a&projectId=051c06f1-75cc-4548-856d-4923ddaba0dc","18ED08C9AB6B4551A1F04FB4F0D917E1-2025-05-15-19-04-30","","null","","images/causal_sequence/dog_causal/dog_causal_1.png","null","",""
"","","","","","image-button-response","29","278525","0.0-10.0-1.0-1.1","18ED08C9AB6B4551A1F04FB4F0D917E1","18ED08C9AB6B4551A1F04FB4F0D917E1","2fea9c6d-2ab1-41c3-b37b-e61d9a493a3a","051c06f1-75cc-4548-856d-4923ddaba0dc","{""num_scrambled_semantic"":""8"",""num_scrambled_causal"":""4"",""num_scrambled_schematic"":""4"",""participantId"":""18ED08C9AB6B4551A1F04FB4F0D917E1"",""assignmentId"":""2fea9c6d-2ab1-41c3-b37b-e61d9a493a3a"",""projectId"":""051c06f1-75cc-4548-856d-4923ddaba0dc""}","https://test12345.live/?num_scrambled_semantic=8&num_scrambled_causal=4&num_scrambled_schematic=4&participantId=18ED08C9AB6B4551A1F04FB4F0D917E1&assignmentId=2fea9c6d-2ab1-41c3-b37b-e61d9a493a3a&projectId=051c06f1-75cc-4548-856d-4923ddaba0dc","18ED08C9AB6B4551A1F04FB4F0D917E1-2025-05-15-19-04-30","","null","","images/causal_sequence/dog_causal/dog_causal_1.png","null","",""
"","","","","","image-button-response","30","280327","0.0-10.0-1.0-2.1","18ED08C9AB6B4551A1F04FB4F0D917E1","18ED08C9AB6B4551A1F04FB4F0D917E1","2fea9c6d-2ab1-41c3-b37b-e61d9a493a3a","051c06f1-75cc-4548-856d-4923ddaba0dc","{""num_scrambled_semantic"":""8"",""num_scrambled_causal"":""4"",""num_scrambled_schematic"":""4"",""participantId"":""18ED08C9AB6B4551A1F04FB4F0D917E1"",""assignmentId"":""2fea9c6d-2ab1-41c3-b37b-e61d9a493a3a"",""projectId"":""051c06f1-75cc-4548-856d-4923ddaba0dc""}","https://test12345.live/?num_scrambled_semantic=8&num_scrambled_causal=4&num_scrambled_schematic=4&participantId=18ED08C9AB6B4551A1F04FB4F0D917E1&assignmentId=2fea9c6d-2ab1-41c3-b37b-e61d9a493a3a&projectId=051c06f1-75cc-4548-856d-4923ddaba0dc","18ED08C9AB6B4551A1F04FB4F0D917E1-2025-05-15-19-04-30","","null","","[]","null","",""
"","","","","","image-button-response","31","284840","0.0-10.0-1.0-0.2","18ED08C9AB6B4551A1F04FB4F0D917E1","18ED08C9AB6B4551A1F04FB4F0D917E1","2fea9c6d-2ab1-41c3-b37b-e61d9a493a3a","051c06f1-75cc-4548-856d-4923ddaba0dc","{""num_scrambled_semantic"":""8"",""num_scrambled_causal"":""4"",""num_scrambled_schematic"":""4"",""participantId"":""18ED08C9AB6B4551A1F04FB4F0D917E1"",""assignmentId"":""2fea9c6d-2ab1-41c3-b37b-e61d9a493a3a"",""projectId"":""051c06f1-75cc-4548-856d-4923ddaba0dc""}","https://test12345.live/?num_scrambled_semantic=8&num_scrambled_causal=4&num_scrambled_schematic=4&participantId=18ED08C9AB6B4551A1F04FB4F0D917E1&assignmentId=2fea9c6d-2ab1-41c3-b37b-e61d9a493a3a&projectId=051c06f1-75cc-4548-856d-4923ddaba0dc","18ED08C9AB6B4551A1F04FB4F0D917E1-2025-05-15-19-04-30","","null","","images/causal_sequence/dog_causal/dog_causal_8.png","null","",""
"","","","","","image-button-response","32","286114","0.0-10.0-1.0-1.2","18ED08C9AB6B4551A1F04FB4F0D917E1","18ED08C9AB6B4551A1F04FB4F0D917E1","2fea9c6d-2ab1-41c3-b37b-e61d9a493a3a","051c06f1-75cc-4548-856d-4923ddaba0dc","{""num_scrambled_semantic"":""8"",""num_scrambled_causal"":""4"",""num_scrambled_schematic"":""4"",""participantId"":""18ED08C9AB6B4551A1F04FB4F0D917E1"",""assignmentId"":""2fea9c6d-2ab1-41c3-b37b-e61d9a493a3a"",""projectId"":""051c06f1-75cc-4548-856d-4923ddaba0dc""}","https://test12345.live/?num_scrambled_semantic=8&num_scrambled_causal=4&num_scrambled_schematic=4&participantId=18ED08C9AB6B4551A1F04FB4F0D917E1&assignmentId=2fea9c6d-2ab1-41c3-b37b-e61d9a493a3a&projectId=051c06f1-75cc-4548-856d-4923ddaba0dc","18ED08C9AB6B4551A1F04FB4F0D917E1-2025-05-15-19-04-30","","1273","","images/causal_sequence/dog_causal/dog_causal_8.png","0","",""
"","","","","","image-button-response","33","287923","0.0-10.0-1.0-2.2","18ED08C9AB6B4551A1F04FB4F0D917E1","18ED08C9AB6B4551A1F04FB4F0D917E1","2fea9c6d-2ab1-41c3-b37b-e61d9a493a3a","051c06f1-75cc-4548-856d-4923ddaba0dc","{""num_scrambled_semantic"":""8"",""num_scrambled_causal"":""4"",""num_scrambled_schematic"":""4"",""participantId"":""18ED08C9AB6B4551A1F04FB4F0D917E1"",""assignmentId"":""2fea9c6d-2ab1-41c3-b37b-e61d9a493a3a"",""projectId"":""051c06f1-75cc-4548-856d-4923ddaba0dc""}","https://test12345.live/?num_scrambled_semantic=8&num_scrambled_causal=4&num_scrambled_schematic=4&participantId=18ED08C9AB6B4551A1F04FB4F0D917E1&assignmentId=2fea9c6d-2ab1-41c3-b37b-e61d9a493a3a&projectId=051c06f1-75cc-4548-856d-4923ddaba0dc","18ED08C9AB6B4551A1F04FB4F0D917E1-2025-05-15-19-04-30","","null","","[]","null","",""
"","","","","","image-button-response","34","292432","0.0-10.0-1.0-0.3","18ED08C9AB6B4551A1F04FB4F0D917E1","18ED08C9AB6B4551A1F04FB4F0D917E1","2fea9c6d-2ab1-41c3-b37b-e61d9a493a3a","051c06f1-75cc-4548-856d-4923ddaba0dc","{""num_scrambled_semantic"":""8"",""num_scrambled_causal"":""4"",""num_scrambled_schematic"":""4"",""participantId"":""18ED08C9AB6B4551A1F04FB4F0D917E1"",""assignmentId"":""2fea9c6d-2ab1-41c3-b37b-e61d9a493a3a"",""projectId"":""051c06f1-75cc-4548-856d-4923ddaba0dc""}","https://test12345.live/?num_scrambled_semantic=8&num_scrambled_causal=4&num_scrambled_schematic=4&participantId=18ED08C9AB6B4551A1F04FB4F0D917E1&assignmentId=2fea9c6d-2ab1-41c3-b37b-e61d9a493a3a&projectId=051c06f1-75cc-4548-856d-4923ddaba0dc","18ED08C9AB6B4551A1F04FB4F0D917E1-2025-05-15-19-04-30","","null","","images/causal_sequence/dog_causal/dog_causal_2.png","null","",""
"","","","","","image-button-response","35","294031","0.0-10.0-1.0-1.3","18ED08C9AB6B4551A1F04FB4F0D917E1","18ED08C9AB6B4551A1F04FB4F0D917E1","2fea9c6d-2ab1-41c3-b37b-e61d9a493a3a","051c06f1-75cc-4548-856d-4923ddaba0dc","{""num_scrambled_semantic"":""8"",""num_scrambled_causal"":""4"",""num_scrambled_schematic"":""4"",""participantId"":""18ED08C9AB6B4551A1F04FB4F0D917E1"",""assignmentId"":""2fea9c6d-2ab1-41c3-b37b-e61d9a493a3a"",""projectId"":""051c06f1-75cc-4548-856d-4923ddaba0dc""}","https://test12345.live/?num_scrambled_semantic=8&num_scrambled_causal=4&num_scrambled_schematic=4&participantId=18ED08C9AB6B4551A1F04FB4F0D917E1&assignmentId=2fea9c6d-2ab1-41c3-b37b-e61d9a493a3a&projectId=051c06f1-75cc-4548-856d-4923ddaba0dc","18ED08C9AB6B4551A1F04FB4F0D917E1-2025-05-15-19-04-30","","1598","","images/causal_sequence/dog_causal/dog_causal_2.png","0","",""
"","","","","","image-button-response","36","295842","0.0-10.0-1.0-2.3","18ED08C9AB6B4551A1F04FB4F0D917E1","18ED08C9AB6B4551A1F04FB4F0D917E1","2fea9c6d-2ab1-41c3-b37b-e61d9a493a3a","051c06f1-75cc-4548-856d-4923ddaba0dc","{""num_scrambled_semantic"":""8"",""num_scrambled_causal"":""4"",""num_scrambled_schematic"":""4"",""participantId"":""18ED08C9AB6B4551A1F04FB4F0D917E1"",""assignmentId"":""2fea9c6d-2ab1-41c3-b37b-e61d9a493a3a"",""projectId"":""051c06f1-75cc-4548-856d-4923ddaba0dc""}","https://test12345.live/?num_scrambled_semantic=8&num_scrambled_causal=4&num_scrambled_schematic=4&participantId=18ED08C9AB6B4551A1F04FB4F0D917E1&assignmentId=2fea9c6d-2ab1-41c3-b37b-e61d9a493a3a&projectId=051c06f1-75cc-4548-856d-4923ddaba0dc","18ED08C9AB6B4551A1F04FB4F0D917E1-2025-05-15-19-04-30","","null","","[]","null","",""
"","","","","","image-button-response","37","300355","0.0-10.0-1.0-0.4","18ED08C9AB6B4551A1F04FB4F0D917E1","18ED08C9AB6B4551A1F04FB4F0D917E1","2fea9c6d-2ab1-41c3-b37b-e61d9a493a3a","051c06f1-75cc-4548-856d-4923ddaba0dc","{""num_scrambled_semantic"":""8"",""num_scrambled_causal"":""4"",""num_scrambled_schematic"":""4"",""participantId"":""18ED08C9AB6B4551A1F04FB4F0D917E1"",""assignmentId"":""2fea9c6d-2ab1-41c3-b37b-e61d9a493a3a"",""projectId"":""051c06f1-75cc-4548-856d-4923ddaba0dc""}","https://test12345.live/?num_scrambled_semantic=8&num_scrambled_causal=4&num_scrambled_schematic=4&participantId=18ED08C9AB6B4551A1F04FB4F0D917E1&assignmentId=2fea9c6d-2ab1-41c3-b37b-e61d9a493a3a&projectId=051c06f1-75cc-4548-856d-4923ddaba0dc","18ED08C9AB6B4551A1F04FB4F0D917E1-2025-05-15-19-04-30","","null","","images/causal_sequence/dog_causal/dog_causal_5.png","null","",""
"","","","","","image-button-response","38","301003","0.0-10.0-1.0-1.4","18ED08C9AB6B4551A1F04FB4F0D917E1","18ED08C9AB6B4551A1F04FB4F0D917E1","2fea9c6d-2ab1-41c3-b37b-e61d9a493a3a","051c06f1-75cc-4548-856d-4923ddaba0dc","{""num_scrambled_semantic"":""8"",""num_scrambled_causal"":""4"",""num_scrambled_schematic"":""4"",""participantId"":""18ED08C9AB6B4551A1F04FB4F0D917E1"",""assignmentId"":""2fea9c6d-2ab1-41c3-b37b-e61d9a493a3a"",""projectId"":""051c06f1-75cc-4548-856d-4923ddaba0dc""}","https://test12345.live/?num_scrambled_semantic=8&num_scrambled_causal=4&num_scrambled_schematic=4&participantId=18ED08C9AB6B4551A1F04FB4F0D917E1&assignmentId=2fea9c6d-2ab1-41c3-b37b-e61d9a493a3a&projectId=051c06f1-75cc-4548-856d-4923ddaba0dc","18ED08C9AB6B4551A1F04FB4F0D917E1-2025-05-15-19-04-30","","647","","images/causal_sequence/dog_causal/dog_causal_5.png","0","",""
"","","","","","image-button-response","39","302806","0.0-10.0-1.0-2.4","18ED08C9AB6B4551A1F04FB4F0D917E1","18ED08C9AB6B4551A1F04FB4F0D917E1","2fea9c6d-2ab1-41c3-b37b-e61d9a493a3a","051c06f1-75cc-4548-856d-4923ddaba0dc","{""num_scrambled_semantic"":""8"",""num_scrambled_causal"":""4"",""num_scrambled_schematic"":""4"",""participantId"":""18ED08C9AB6B4551A1F04FB4F0D917E1"",""assignmentId"":""2fea9c6d-2ab1-41c3-b37b-e61d9a493a3a"",""projectId"":""051c06f1-75cc-4548-856d-4923ddaba0dc""}","https://test12345.live/?num_scrambled_semantic=8&num_scrambled_causal=4&num_scrambled_schematic=4&participantId=18ED08C9AB6B4551A1F04FB4F0D917E1&assignmentId=2fea9c6d-2ab1-41c3-b37b-e61d9a493a3a&projectId=051c06f1-75cc-4548-856d-4923ddaba0dc","18ED08C9AB6B4551A1F04FB4F0D917E1-2025-05-15-19-04-30","","null","","[]","null","",""
"","","","","","image-button-response","40","307317","0.0-10.0-1.0-0.5","18ED08C9AB6B4551A1F04FB4F0D917E1","18ED08C9AB6B4551A1F04FB4F0D917E1","2fea9c6d-2ab1-41c3-b37b-e61d9a493a3a","051c06f1-75cc-4548-856d-4923ddaba0dc","{""num_scrambled_semantic"":""8"",""num_scrambled_causal"":""4"",""num_scrambled_schematic"":""4"",""participantId"":""18ED08C9AB6B4551A1F04FB4F0D917E1"",""assignmentId"":""2fea9c6d-2ab1-41c3-b37b-e61d9a493a3a"",""projectId"":""051c06f1-75cc-4548-856d-4923ddaba0dc""}","https://test12345.live/?num_scrambled_semantic=8&num_scrambled_causal=4&num_scrambled_schematic=4&participantId=18ED08C9AB6B4551A1F04FB4F0D917E1&assignmentId=2fea9c6d-2ab1-41c3-b37b-e61d9a493a3a&projectId=051c06f1-75cc-4548-856d-4923ddaba0dc","18ED08C9AB6B4551A1F04FB4F0D917E1-2025-05-15-19-04-30","","null","","images/causal_sequence/dog_causal/dog_causal_4.png","null","",""
"","","","","","image-button-response","41","308541","0.0-10.0-1.0-1.5","18ED08C9AB6B4551A1F04FB4F0D917E1","18ED08C9AB6B4551A1F04FB4F0D917E1","2fea9c6d-2ab1-41c3-b37b-e61d9a493a3a","051c06f1-75cc-4548-856d-4923ddaba0dc","{""num_scrambled_semantic"":""8"",""num_scrambled_causal"":""4"",""num_scrambled_schematic"":""4"",""participantId"":""18ED08C9AB6B4551A1F04FB4F0D917E1"",""assignmentId"":""2fea9c6d-2ab1-41c3-b37b-e61d9a493a3a"",""projectId"":""051c06f1-75cc-4548-856d-4923ddaba0dc""}","https://test12345.live/?num_scrambled_semantic=8&num_scrambled_causal=4&num_scrambled_schematic=4&participantId=18ED08C9AB6B4551A1F04FB4F0D917E1&assignmentId=2fea9c6d-2ab1-41c3-b37b-e61d9a493a3a&projectId=051c06f1-75cc-4548-856d-4923ddaba0dc","18ED08C9AB6B4551A1F04FB4F0D917E1-2025-05-15-19-04-30","","1222","","images/causal_sequence/dog_causal/dog_causal_4.png","0","",""
"","","","","","image-button-response","42","310347","0.0-10.0-1.0-2.5","18ED08C9AB6B4551A1F04FB4F0D917E1","18ED08C9AB6B4551A1F04FB4F0D917E1","2fea9c6d-2ab1-41c3-b37b-e61d9a493a3a","051c06f1-75cc-4548-856d-4923ddaba0dc","{""num_scrambled_semantic"":""8"",""num_scrambled_causal"":""4"",""num_scrambled_schematic"":""4"",""participantId"":""18ED08C9AB6B4551A1F04FB4F0D917E1"",""assignmentId"":""2fea9c6d-2ab1-41c3-b37b-e61d9a493a3a"",""projectId"":""051c06f1-75cc-4548-856d-4923ddaba0dc""}","https://test12345.live/?num_scrambled_semantic=8&num_scrambled_causal=4&num_scrambled_schematic=4&participantId=18ED08C9AB6B4551A1F04FB4F0D917E1&assignmentId=2fea9c6d-2ab1-41c3-b37b-e61d9a493a3a&projectId=051c06f1-75cc-4548-856d-4923ddaba0dc","18ED08C9AB6B4551A1F04FB4F0D917E1-2025-05-15-19-04-30","","null","","[]","null","",""
"","","","","","image-button-response","43","314848","0.0-10.0-1.0-0.6","18ED08C9AB6B4551A1F04FB4F0D917E1","18ED08C9AB6B4551A1F04FB4F0D917E1","2fea9c6d-2ab1-41c3-b37b-e61d9a493a3a","051c06f1-75cc-4548-856d-4923ddaba0dc","{""num_scrambled_semantic"":""8"",""num_scrambled_causal"":""4"",""num_scrambled_schematic"":""4"",""participantId"":""18ED08C9AB6B4551A1F04FB4F0D917E1"",""assignmentId"":""2fea9c6d-2ab1-41c3-b37b-e61d9a493a3a"",""projectId"":""051c06f1-75cc-4548-856d-4923ddaba0dc""}","https://test12345.live/?num_scrambled_semantic=8&num_scrambled_causal=4&num_scrambled_schematic=4&participantId=18ED08C9AB6B4551A1F04FB4F0D917E1&assignmentId=2fea9c6d-2ab1-41c3-b37b-e61d9a493a3a&projectId=051c06f1-75cc-4548-856d-4923ddaba0dc","18ED08C9AB6B4551A1F04FB4F0D917E1-2025-05-15-19-04-30","","null","","images/causal_sequence/dog_causal/dog_causal_9.png","null","",""
"","","","","","image-button-response","44","315640","0.0-10.0-1.0-1.6","18ED08C9AB6B4551A1F04FB4F0D917E1","18ED08C9AB6B4551A1F04FB4F0D917E1","2fea9c6d-2ab1-41c3-b37b-e61d9a493a3a","051c06f1-75cc-4548-856d-4923ddaba0dc","{""num_scrambled_semantic"":""8"",""num_scrambled_causal"":""4"",""num_scrambled_schematic"":""4"",""participantId"":""18ED08C9AB6B4551A1F04FB4F0D917E1"",""assignmentId"":""2fea9c6d-2ab1-41c3-b37b-e61d9a493a3a"",""projectId"":""051c06f1-75cc-4548-856d-4923ddaba0dc""}","https://test12345.live/?num_scrambled_semantic=8&num_scrambled_causal=4&num_scrambled_schematic=4&participantId=18ED08C9AB6B4551A1F04FB4F0D917E1&assignmentId=2fea9c6d-2ab1-41c3-b37b-e61d9a493a3a&projectId=051c06f1-75cc-4548-856d-4923ddaba0dc","18ED08C9AB6B4551A1F04FB4F0D917E1-2025-05-15-19-04-30","","791","","images/causal_sequence/dog_causal/dog_causal_9.png","0","",""
"","","","","","image-button-response","45","317449","0.0-10.0-1.0-2.6","18ED08C9AB6B4551A1F04FB4F0D917E1","18ED08C9AB6B4551A1F04FB4F0D917E1","2fea9c6d-2ab1-41c3-b37b-e61d9a493a3a","051c06f1-75cc-4548-856d-4923ddaba0dc","{""num_scrambled_semantic"":""8"",""num_scrambled_causal"":""4"",""num_scrambled_schematic"":""4"",""participantId"":""18ED08C9AB6B4551A1F04FB4F0D917E1"",""assignmentId"":""2fea9c6d-2ab1-41c3-b37b-e61d9a493a3a"",""projectId"":""051c06f1-75cc-4548-856d-4923ddaba0dc""}","https://test12345.live/?num_scrambled_semantic=8&num_scrambled_causal=4&num_scrambled_schematic=4&participantId=18ED08C9AB6B4551A1F04FB4F0D917E1&assignmentId=2fea9c6d-2ab1-41c3-b37b-e61d9a493a3a&projectId=051c06f1-75cc-4548-856d-4923ddaba0dc","18ED08C9AB6B4551A1F04FB4F0D917E1-2025-05-15-19-04-30","","null","","[]","null","",""
"","","","","","image-button-response","46","321955","0.0-10.0-1.0-0.7","18ED08C9AB6B4551A1F04FB4F0D917E1","18ED08C9AB6B4551A1F04FB4F0D917E1","2fea9c6d-2ab1-41c3-b37b-e61d9a493a3a","051c06f1-75cc-4548-856d-4923ddaba0dc","{""num_scrambled_semantic"":""8"",""num_scrambled_causal"":""4"",""num_scrambled_schematic"":""4"",""participantId"":""18ED08C9AB6B4551A1F04FB4F0D917E1"",""assignmentId"":""2fea9c6d-2ab1-41c3-b37b-e61d9a493a3a"",""projectId"":""051c06f1-75cc-4548-856d-4923ddaba0dc""}","https://test12345.live/?num_scrambled_semantic=8&num_scrambled_causal=4&num_scrambled_schematic=4&participantId=18ED08C9AB6B4551A1F04FB4F0D917E1&assignmentId=2fea9c6d-2ab1-41c3-b37b-e61d9a493a3a&projectId=051c06f1-75cc-4548-856d-4923ddaba0dc","18ED08C9AB6B4551A1F04FB4F0D917E1-2025-05-15-19-04-30","","null","","images/causal_sequence/dog_causal/dog_causal_6.png","null","",""
"","","","","","image-button-response","47","322577","0.0-10.0-1.0-1.7","18ED08C9AB6B4551A1F04FB4F0D917E1","18ED08C9AB6B4551A1F04FB4F0D917E1","2fea9c6d-2ab1-41c3-b37b-e61d9a493a3a","051c06f1-75cc-4548-856d-4923ddaba0dc","{""num_scrambled_semantic"":""8"",""num_scrambled_causal"":""4"",""num_scrambled_schematic"":""4"",""participantId"":""18ED08C9AB6B4551A1F04FB4F0D917E1"",""assignmentId"":""2fea9c6d-2ab1-41c3-b37b-e61d9a493a3a"",""projectId"":""051c06f1-75cc-4548-856d-4923ddaba0dc""}","https://test12345.live/?num_scrambled_semantic=8&num_scrambled_causal=4&num_scrambled_schematic=4&participantId=18ED08C9AB6B4551A1F04FB4F0D917E1&assignmentId=2fea9c6d-2ab1-41c3-b37b-e61d9a493a3a&projectId=051c06f1-75cc-4548-856d-4923ddaba0dc","18ED08C9AB6B4551A1F04FB4F0D917E1-2025-05-15-19-04-30","","621","","images/causal_sequence/dog_causal/dog_causal_6.png","0","",""
"","","","","","image-button-response","48","324379","0.0-10.0-1.0-2.7","18ED08C9AB6B4551A1F04FB4F0D917E1","18ED08C9AB6B4551A1F04FB4F0D917E1","2fea9c6d-2ab1-41c3-b37b-e61d9a493a3a","051c06f1-75cc-4548-856d-4923ddaba0dc","{""num_scrambled_semantic"":""8"",""num_scrambled_causal"":""4"",""num_scrambled_schematic"":""4"",""participantId"":""18ED08C9AB6B4551A1F04FB4F0D917E1"",""assignmentId"":""2fea9c6d-2ab1-41c3-b37b-e61d9a493a3a"",""projectId"":""051c06f1-75cc-4548-856d-4923ddaba0dc""}","https://test12345.live/?num_scrambled_semantic=8&num_scrambled_causal=4&num_scrambled_schematic=4&participantId=18ED08C9AB6B4551A1F04FB4F0D917E1&assignmentId=2fea9c6d-2ab1-41c3-b37b-e61d9a493a3a&projectId=051c06f1-75cc-4548-856d-4923ddaba0dc","18ED08C9AB6B4551A1F04FB4F0D917E1-2025-05-15-19-04-30","","null","","[]","null","",""
"","","","","","image-button-response","49","328895","0.0-10.0-1.0-0.8","18ED08C9AB6B4551A1F04FB4F0D917E1","18ED08C9AB6B4551A1F04FB4F0D917E1","2fea9c6d-2ab1-41c3-b37b-e61d9a493a3a","051c06f1-75cc-4548-856d-4923ddaba0dc","{""num_scrambled_semantic"":""8"",""num_scrambled_causal"":""4"",""num_scrambled_schematic"":""4"",""participantId"":""18ED08C9AB6B4551A1F04FB4F0D917E1"",""assignmentId"":""2fea9c6d-2ab1-41c3-b37b-e61d9a493a3a"",""projectId"":""051c06f1-75cc-4548-856d-4923ddaba0dc""}","https://test12345.live/?num_scrambled_semantic=8&num_scrambled_causal=4&num_scrambled_schematic=4&participantId=18ED08C9AB6B4551A1F04FB4F0D917E1&assignmentId=2fea9c6d-2ab1-41c3-b37b-e61d9a493a3a&projectId=051c06f1-75cc-4548-856d-4923ddaba0dc","18ED08C9AB6B4551A1F04FB4F0D917E1-2025-05-15-19-04-30","","null","","images/causal_sequence/dog_causal/dog_causal_3.png","null","",""
"","","","","","image-button-response","50","329542","0.0-10.0-1.0-1.8","18ED08C9AB6B4551A1F04FB4F0D917E1","18ED08C9AB6B4551A1F04FB4F0D917E1","2fea9c6d-2ab1-41c3-b37b-e61d9a493a3a","051c06f1-75cc-4548-856d-4923ddaba0dc","{""num_scrambled_semantic"":""8"",""num_scrambled_causal"":""4"",""num_scrambled_schematic"":""4"",""participantId"":""18ED08C9AB6B4551A1F04FB4F0D917E1"",""assignmentId"":""2fea9c6d-2ab1-41c3-b37b-e61d9a493a3a"",""projectId"":""051c06f1-75cc-4548-856d-4923ddaba0dc""}","https://test12345.live/?num_scrambled_semantic=8&num_scrambled_causal=4&num_scrambled_schematic=4&participantId=18ED08C9AB6B4551A1F04FB4F0D917E1&assignmentId=2fea9c6d-2ab1-41c3-b37b-e61d9a493a3a&projectId=051c06f1-75cc-4548-856d-4923ddaba0dc","18ED08C9AB6B4551A1F04FB4F0D917E1-2025-05-15-19-04-30","","646","","images/causal_sequence/dog_causal/dog_causal_3.png","0","",""
"","","","","","image-button-response","51","331345","0.0-10.0-1.0-2.8","18ED08C9AB6B4551A1F04FB4F0D917E1","18ED08C9AB6B4551A1F04FB4F0D917E1","2fea9c6d-2ab1-41c3-b37b-e61d9a493a3a","051c06f1-75cc-4548-856d-4923ddaba0dc","{""num_scrambled_semantic"":""8"",""num_scrambled_causal"":""4"",""num_scrambled_schematic"":""4"",""participantId"":""18ED08C9AB6B4551A1F04FB4F0D917E1"",""assignmentId"":""2fea9c6d-2ab1-41c3-b37b-e61d9a493a3a"",""projectId"":""051c06f1-75cc-4548-856d-4923ddaba0dc""}","https://test12345.live/?num_scrambled_semantic=8&num_scrambled_causal=4&num_scrambled_schematic=4&participantId=18ED08C9AB6B4551A1F04FB4F0D917E1&assignmentId=2fea9c6d-2ab1-41c3-b37b-e61d9a493a3a&projectId=051c06f1-75cc-4548-856d-4923ddaba0dc","18ED08C9AB6B4551A1F04FB4F0D917E1-2025-05-15-19-04-30","","null","","[]","null","",""
"","","","","","image-button-response","52","335853","0.0-10.0-1.0-0.9","18ED08C9AB6B4551A1F04FB4F0D917E1","18ED08C9AB6B4551A1F04FB4F0D917E1","2fea9c6d-2ab1-41c3-b37b-e61d9a493a3a","051c06f1-75cc-4548-856d-4923ddaba0dc","{""num_scrambled_semantic"":""8"",""num_scrambled_causal"":""4"",""num_scrambled_schematic"":""4"",""participantId"":""18ED08C9AB6B4551A1F04FB4F0D917E1"",""assignmentId"":""2fea9c6d-2ab1-41c3-b37b-e61d9a493a3a"",""projectId"":""051c06f1-75cc-4548-856d-4923ddaba0dc""}","https://test12345.live/?num_scrambled_semantic=8&num_scrambled_causal=4&num_scrambled_schematic=4&participantId=18ED08C9AB6B4551A1F04FB4F0D917E1&assignmentId=2fea9c6d-2ab1-41c3-b37b-e61d9a493a3a&projectId=051c06f1-75cc-4548-856d-4923ddaba0dc","18ED08C9AB6B4551A1F04FB4F0D917E1-2025-05-15-19-04-30","","null","","images/causal_sequence/dog_causal/dog_causal_7.png","null","",""
"","","","","","image-button-response","53","336275","0.0-10.0-1.0-1.9","18ED08C9AB6B4551A1F04FB4F0D917E1","18ED08C9AB6B4551A1F04FB4F0D917E1","2fea9c6d-2ab1-41c3-b37b-e61d9a493a3a","051c06f1-75cc-4548-856d-4923ddaba0dc","{""num_scrambled_semantic"":""8"",""num_scrambled_causal"":""4"",""num_scrambled_schematic"":""4"",""participantId"":""18ED08C9AB6B4551A1F04FB4F0D917E1"",""assignmentId"":""2fea9c6d-2ab1-41c3-b37b-e61d9a493a3a"",""projectId"":""051c06f1-75cc-4548-856d-4923ddaba0dc""}","https://test12345.live/?num_scrambled_semantic=8&num_scrambled_causal=4&num_scrambled_schematic=4&participantId=18ED08C9AB6B4551A1F04FB4F0D917E1&assignmentId=2fea9c6d-2ab1-41c3-b37b-e61d9a493a3a&projectId=051c06f1-75cc-4548-856d-4923ddaba0dc","18ED08C9AB6B4551A1F04FB4F0D917E1-2025-05-15-19-04-30","","421","","images/causal_sequence/dog_causal/dog_causal_7.png","0","",""
"","","","","","image-button-response","54","338086","0.0-10.0-1.0-2.9","18ED08C9AB6B4551A1F04FB4F0D917E1","18ED08C9AB6B4551A1F04FB4F0D917E1","2fea9c6d-2ab1-41c3-b37b-e61d9a493a3a","051c06f1-75cc-4548-856d-4923ddaba0dc","{""num_scrambled_semantic"":""8"",""num_scrambled_causal"":""4"",""num_scrambled_schematic"":""4"",""participantId"":""18ED08C9AB6B4551A1F04FB4F0D917E1"",""assignmentId"":""2fea9c6d-2ab1-41c3-b37b-e61d9a493a3a"",""projectId"":""051c06f1-75cc-4548-856d-4923ddaba0dc""}","https://test12345.live/?num_scrambled_semantic=8&num_scrambled_causal=4&num_scrambled_schematic=4&participantId=18ED08C9AB6B4551A1F04FB4F0D917E1&assignmentId=2fea9c6d-2ab1-41c3-b37b-e61d9a493a3a&projectId=051c06f1-75cc-4548-856d-4923ddaba0dc","18ED08C9AB6B4551A1F04FB4F0D917E1-2025-05-15-19-04-30","","null","","[]","null","",""
"","","","","","html-audio-response","55","396522","0.0-11.0","18ED08C9AB6B4551A1F04FB4F0D917E1","18ED08C9AB6B4551A1F04FB4F0D917E1","2fea9c6d-2ab1-41c3-b37b-e61d9a493a3a","051c06f1-75cc-4548-856d-4923ddaba0dc","{""num_scrambled_semantic"":""8"",""num_scrambled_causal"":""4"",""num_scrambled_schematic"":""4"",""participantId"":""18ED08C9AB6B4551A1F04FB4F0D917E1"",""assignmentId"":""2fea9c6d-2ab1-41c3-b37b-e61d9a493a3a"",""projectId"":""051c06f1-75cc-4548-856d-4923ddaba0dc""}","https://test12345.live/?num_scrambled_semantic=8&num_scrambled_causal=4&num_scrambled_schematic=4&participantId=18ED08C9AB6B4551A1F04FB4F0D917E1&assignmentId=2fea9c6d-2ab1-41c3-b37b-e61d9a493a3a&projectId=051c06f1-75cc-4548-856d-4923ddaba0dc","18ED08C9AB6B4551A1F04FB4F0D917E1-2025-05-15-19-04-30","","null","","[""<span style=\""color: red; font-size: 24px\""> NOW RECORDING</span><p>Please say out loud all the images you saw, as many as you can remember. The images can be said in any order.</p>""]","","1","dog_causal"
"","","","","","image-button-response","56","402531","0.0-12.0-0.0","18ED08C9AB6B4551A1F04FB4F0D917E1","18ED08C9AB6B4551A1F04FB4F0D917E1","2fea9c6d-2ab1-41c3-b37b-e61d9a493a3a","051c06f1-75cc-4548-856d-4923ddaba0dc","{""num_scrambled_semantic"":""8"",""num_scrambled_causal"":""4"",""num_scrambled_schematic"":""4"",""participantId"":""18ED08C9AB6B4551A1F04FB4F0D917E1"",""assignmentId"":""2fea9c6d-2ab1-41c3-b37b-e61d9a493a3a"",""projectId"":""051c06f1-75cc-4548-856d-4923ddaba0dc""}","https://test12345.live/?num_scrambled_semantic=8&num_scrambled_causal=4&num_scrambled_schematic=4&participantId=18ED08C9AB6B4551A1F04FB4F0D917E1&assignmentId=2fea9c6d-2ab1-41c3-b37b-e61d9a493a3a&projectId=051c06f1-75cc-4548-856d-4923ddaba0dc","18ED08C9AB6B4551A1F04FB4F0D917E1-2025-05-15-19-04-30","","null","","images/semantic_sequence/maintaining_a_car_semantic/maintaining_a_car_semantic_0.png","null","",""
"","","","","","image-button-response","57","407034","0.0-12.0-1.0-0.0","18ED08C9AB6B4551A1F04FB4F0D917E1","18ED08C9AB6B4551A1F04FB4F0D917E1","2fea9c6d-2ab1-41c3-b37b-e61d9a493a3a","051c06f1-75cc-4548-856d-4923ddaba0dc","{""num_scrambled_semantic"":""8"",""num_scrambled_causal"":""4"",""num_scrambled_schematic"":""4"",""participantId"":""18ED08C9AB6B4551A1F04FB4F0D917E1"",""assignmentId"":""2fea9c6d-2ab1-41c3-b37b-e61d9a493a3a"",""projectId"":""051c06f1-75cc-4548-856d-4923ddaba0dc""}","https://test12345.live/?num_scrambled_semantic=8&num_scrambled_causal=4&num_scrambled_schematic=4&participantId=18ED08C9AB6B4551A1F04FB4F0D917E1&assignmentId=2fea9c6d-2ab1-41c3-b37b-e61d9a493a3a&projectId=051c06f1-75cc-4548-856d-4923ddaba0dc","18ED08C9AB6B4551A1F04FB4F0D917E1-2025-05-15-19-04-30","","null","","images/semantic_sequence/maintaining_a_car_semantic/maintaining_a_car_semantic_3.png","null","",""
"","","","","","image-button-response","58","408669","0.0-12.0-1.0-1.0","18ED08C9AB6B4551A1F04FB4F0D917E1","18ED08C9AB6B4551A1F04FB4F0D917E1","2fea9c6d-2ab1-41c3-b37b-e61d9a493a3a","051c06f1-75cc-4548-856d-4923ddaba0dc","{""num_scrambled_semantic"":""8"",""num_scrambled_causal"":""4"",""num_scrambled_schematic"":""4"",""participantId"":""18ED08C9AB6B4551A1F04FB4F0D917E1"",""assignmentId"":""2fea9c6d-2ab1-41c3-b37b-e61d9a493a3a"",""projectId"":""051c06f1-75cc-4548-856d-4923ddaba0dc""}","https://test12345.live/?num_scrambled_semantic=8&num_scrambled_causal=4&num_scrambled_schematic=4&participantId=18ED08C9AB6B4551A1F04FB4F0D917E1&assignmentId=2fea9c6d-2ab1-41c3-b37b-e61d9a493a3a&projectId=051c06f1-75cc-4548-856d-4923ddaba0dc","18ED08C9AB6B4551A1F04FB4F0D917E1-2025-05-15-19-04-30","","1634","","images/semantic_sequence/maintaining_a_car_semantic/maintaining_a_car_semantic_3.png","0","",""
"","","","","","image-button-response","59","410485","0.0-12.0-1.0-2.0","18ED08C9AB6B4551A1F04FB4F0D917E1","18ED08C9AB6B4551A1F04FB4F0D917E1","2fea9c6d-2ab1-41c3-b37b-e61d9a493a3a","051c06f1-75cc-4548-856d-4923ddaba0dc","{""num_scrambled_semantic"":""8"",""num_scrambled_causal"":""4"",""num_scrambled_schematic"":""4"",""participantId"":""18ED08C9AB6B4551A1F04FB4F0D917E1"",""assignmentId"":""2fea9c6d-2ab1-41c3-b37b-e61d9a493a3a"",""projectId"":""051c06f1-75cc-4548-856d-4923ddaba0dc""}","https://test12345.live/?num_scrambled_semantic=8&num_scrambled_causal=4&num_scrambled_schematic=4&participantId=18ED08C9AB6B4551A1F04FB4F0D917E1&assignmentId=2fea9c6d-2ab1-41c3-b37b-e61d9a493a3a&projectId=051c06f1-75cc-4548-856d-4923ddaba0dc","18ED08C9AB6B4551A1F04FB4F0D917E1-2025-05-15-19-04-30","","null","","[]","null","",""
"","","","","","image-button-response","60","414992","0.0-12.0-1.0-0.1","18ED08C9AB6B4551A1F04FB4F0D917E1","18ED08C9AB6B4551A1F04FB4F0D917E1","2fea9c6d-2ab1-41c3-b37b-e61d9a493a3a","051c06f1-75cc-4548-856d-4923ddaba0dc","{""num_scrambled_semantic"":""8"",""num_scrambled_causal"":""4"",""num_scrambled_schematic"":""4"",""participantId"":""18ED08C9AB6B4551A1F04FB4F0D917E1"",""assignmentId"":""2fea9c6d-2ab1-41c3-b37b-e61d9a493a3a"",""projectId"":""051c06f1-75cc-4548-856d-4923ddaba0dc""}","https://test12345.live/?num_scrambled_semantic=8&num_scrambled_causal=4&num_scrambled_schematic=4&participantId=18ED08C9AB6B4551A1F04FB4F0D917E1&assignmentId=2fea9c6d-2ab1-41c3-b37b-e61d9a493a3a&projectId=051c06f1-75cc-4548-856d-4923ddaba0dc","18ED08C9AB6B4551A1F04FB4F0D917E1-2025-05-15-19-04-30","","null","","images/semantic_sequence/maintaining_a_car_semantic/maintaining_a_car_semantic_5.png","null","",""
"","","","","","image-button-response","61","417411","0.0-12.0-1.0-1.1","18ED08C9AB6B4551A1F04FB4F0D917E1","18ED08C9AB6B4551A1F04FB4F0D917E1","2fea9c6d-2ab1-41c3-b37b-e61d9a493a3a","051c06f1-75cc-4548-856d-4923ddaba0dc","{""num_scrambled_semantic"":""8"",""num_scrambled_causal"":""4"",""num_scrambled_schematic"":""4"",""participantId"":""18ED08C9AB6B4551A1F04FB4F0D917E1"",""assignmentId"":""2fea9c6d-2ab1-41c3-b37b-e61d9a493a3a"",""projectId"":""051c06f1-75cc-4548-856d-4923ddaba0dc""}","https://test12345.live/?num_scrambled_semantic=8&num_scrambled_causal=4&num_scrambled_schematic=4&participantId=18ED08C9AB6B4551A1F04FB4F0D917E1&assignmentId=2fea9c6d-2ab1-41c3-b37b-e61d9a493a3a&projectId=051c06f1-75cc-4548-856d-4923ddaba0dc","18ED08C9AB6B4551A1F04FB4F0D917E1-2025-05-15-19-04-30","","2418","","images/semantic_sequence/maintaining_a_car_semantic/maintaining_a_car_semantic_5.png","0","",""
"","","","","","image-button-response","62","419217","0.0-12.0-1.0-2.1","18ED08C9AB6B4551A1F04FB4F0D917E1","18ED08C9AB6B4551A1F04FB4F0D917E1","2fea9c6d-2ab1-41c3-b37b-e61d9a493a3a","051c06f1-75cc-4548-856d-4923ddaba0dc","{""num_scrambled_semantic"":""8"",""num_scrambled_causal"":""4"",""num_scrambled_schematic"":""4"",""participantId"":""18ED08C9AB6B4551A1F04FB4F0D917E1"",""assignmentId"":""2fea9c6d-2ab1-41c3-b37b-e61d9a493a3a"",""projectId"":""051c06f1-75cc-4548-856d-4923ddaba0dc""}","https://test12345.live/?num_scrambled_semantic=8&num_scrambled_causal=4&num_scrambled_schematic=4&participantId=18ED08C9AB6B4551A1F04FB4F0D917E1&assignmentId=2fea9c6d-2ab1-41c3-b37b-e61d9a493a3a&projectId=051c06f1-75cc-4548-856d-4923ddaba0dc","18ED08C9AB6B4551A1F04FB4F0D917E1-2025-05-15-19-04-30","","null","","[]","null","",""
"","","","","","image-button-response","63","423718","0.0-12.0-1.0-0.2","18ED08C9AB6B4551A1F04FB4F0D917E1","18ED08C9AB6B4551A1F04FB4F0D917E1","2fea9c6d-2ab1-41c3-b37b-e61d9a493a3a","051c06f1-75cc-4548-856d-4923ddaba0dc","{""num_scrambled_semantic"":""8"",""num_scrambled_causal"":""4"",""num_scrambled_schematic"":""4"",""participantId"":""18ED08C9AB6B4551A1F04FB4F0D917E1"",""assignmentId"":""2fea9c6d-2ab1-41c3-b37b-e61d9a493a3a"",""projectId"":""051c06f1-75cc-4548-856d-4923ddaba0dc""}","https://test12345.live/?num_scrambled_semantic=8&num_scrambled_causal=4&num_scrambled_schematic=4&participantId=18ED08C9AB6B4551A1F04FB4F0D917E1&assignmentId=2fea9c6d-2ab1-41c3-b37b-e61d9a493a3a&projectId=051c06f1-75cc-4548-856d-4923ddaba0dc","18ED08C9AB6B4551A1F04FB4F0D917E1-2025-05-15-19-04-30","","null","","images/semantic_sequence/maintaining_a_car_semantic/maintaining_a_car_semantic_6.png","null","",""
"","","","","","image-button-response","64","424925","0.0-12.0-1.0-1.2","18ED08C9AB6B4551A1F04FB4F0D917E1","18ED08C9AB6B4551A1F04FB4F0D917E1","2fea9c6d-2ab1-41c3-b37b-e61d9a493a3a","051c06f1-75cc-4548-856d-4923ddaba0dc","{""num_scrambled_semantic"":""8"",""num_scrambled_causal"":""4"",""num_scrambled_schematic"":""4"",""participantId"":""18ED08C9AB6B4551A1F04FB4F0D917E1"",""assignmentId"":""2fea9c6d-2ab1-41c3-b37b-e61d9a493a3a"",""projectId"":""051c06f1-75cc-4548-856d-4923ddaba0dc""}","https://test12345.live/?num_scrambled_semantic=8&num_scrambled_causal=4&num_scrambled_schematic=4&participantId=18ED08C9AB6B4551A1F04FB4F0D917E1&assignmentId=2fea9c6d-2ab1-41c3-b37b-e61d9a493a3a&projectId=051c06f1-75cc-4548-856d-4923ddaba0dc","18ED08C9AB6B4551A1F04FB4F0D917E1-2025-05-15-19-04-30","","1205","","images/semantic_sequence/maintaining_a_car_semantic/maintaining_a_car_semantic_6.png","0","",""
"","","","","","image-button-response","65","426726","0.0-12.0-1.0-2.2","18ED08C9AB6B4551A1F04FB4F0D917E1","18ED08C9AB6B4551A1F04FB4F0D917E1","2fea9c6d-2ab1-41c3-b37b-e61d9a493a3a","051c06f1-75cc-4548-856d-4923ddaba0dc","{""num_scrambled_semantic"":""8"",""num_scrambled_causal"":""4"",""num_scrambled_schematic"":""4"",""participantId"":""18ED08C9AB6B4551A1F04FB4F0D917E1"",""assignmentId"":""2fea9c6d-2ab1-41c3-b37b-e61d9a493a3a"",""projectId"":""051c06f1-75cc-4548-856d-4923ddaba0dc""}","https://test12345.live/?num_scrambled_semantic=8&num_scrambled_causal=4&num_scrambled_schematic=4&participantId=18ED08C9AB6B4551A1F04FB4F0D917E1&assignmentId=2fea9c6d-2ab1-41c3-b37b-e61d9a493a3a&projectId=051c06f1-75cc-4548-856d-4923ddaba0dc","18ED08C9AB6B4551A1F04FB4F0D917E1-2025-05-15-19-04-30","","null","","[]","null","",""
"","","","","","image-button-response","66","431240","0.0-12.0-1.0-0.3","18ED08C9AB6B4551A1F04FB4F0D917E1","18ED08C9AB6B4551A1F04FB4F0D917E1","2fea9c6d-2ab1-41c3-b37b-e61d9a493a3a","051c06f1-75cc-4548-856d-4923ddaba0dc","{""num_scrambled_semantic"":""8"",""num_scrambled_causal"":""4"",""num_scrambled_schematic"":""4"",""participantId"":""18ED08C9AB6B4551A1F04FB4F0D917E1"",""assignmentId"":""2fea9c6d-2ab1-41c3-b37b-e61d9a493a3a"",""projectId"":""051c06f1-75cc-4548-856d-4923ddaba0dc""}","https://test12345.live/?num_scrambled_semantic=8&num_scrambled_causal=4&num_scrambled_schematic=4&participantId=18ED08C9AB6B4551A1F04FB4F0D917E1&assignmentId=2fea9c6d-2ab1-41c3-b37b-e61d9a493a3a&projectId=051c06f1-75cc-4548-856d-4923ddaba0dc","18ED08C9AB6B4551A1F04FB4F0D917E1-2025-05-15-19-04-30","","null","","images/semantic_sequence/maintaining_a_car_semantic/maintaining_a_car_semantic_7.png","null","",""
"","","","","","image-button-response","67","432234","0.0-12.0-1.0-1.3","18ED08C9AB6B4551A1F04FB4F0D917E1","18ED08C9AB6B4551A1F04FB4F0D917E1","2fea9c6d-2ab1-41c3-b37b-e61d9a493a3a","051c06f1-75cc-4548-856d-4923ddaba0dc","{""num_scrambled_semantic"":""8"",""num_scrambled_causal"":""4"",""num_scrambled_schematic"":""4"",""participantId"":""18ED08C9AB6B4551A1F04FB4F0D917E1"",""assignmentId"":""2fea9c6d-2ab1-41c3-b37b-e61d9a493a3a"",""projectId"":""051c06f1-75cc-4548-856d-4923ddaba0dc""}","https://test12345.live/?num_scrambled_semantic=8&num_scrambled_causal=4&num_scrambled_schematic=4&participantId=18ED08C9AB6B4551A1F04FB4F0D917E1&assignmentId=2fea9c6d-2ab1-41c3-b37b-e61d9a493a3a&projectId=051c06f1-75cc-4548-856d-4923ddaba0dc","18ED08C9AB6B4551A1F04FB4F0D917E1-2025-05-15-19-04-30","","993","","images/semantic_sequence/maintaining_a_car_semantic/maintaining_a_car_semantic_7.png","0","",""
"","","","","","image-button-response","68","434038","0.0-12.0-1.0-2.3","18ED08C9AB6B4551A1F04FB4F0D917E1","18ED08C9AB6B4551A1F04FB4F0D917E1","2fea9c6d-2ab1-41c3-b37b-e61d9a493a3a","051c06f1-75cc-4548-856d-4923ddaba0dc","{""num_scrambled_semantic"":""8"",""num_scrambled_causal"":""4"",""num_scrambled_schematic"":""4"",""participantId"":""18ED08C9AB6B4551A1F04FB4F0D917E1"",""assignmentId"":""2fea9c6d-2ab1-41c3-b37b-e61d9a493a3a"",""projectId"":""051c06f1-75cc-4548-856d-4923ddaba0dc""}","https://test12345.live/?num_scrambled_semantic=8&num_scrambled_causal=4&num_scrambled_schematic=4&participantId=18ED08C9AB6B4551A1F04FB4F0D917E1&assignmentId=2fea9c6d-2ab1-41c3-b37b-e61d9a493a3a&projectId=051c06f1-75cc-4548-856d-4923ddaba0dc","18ED08C9AB6B4551A1F04FB4F0D917E1-2025-05-15-19-04-30","","null","","[]","null","",""
"","","","","","image-button-response","69","438548","0.0-12.0-1.0-0.4","18ED08C9AB6B4551A1F04FB4F0D917E1","18ED08C9AB6B4551A1F04FB4F0D917E1","2fea9c6d-2ab1-41c3-b37b-e61d9a493a3a","051c06f1-75cc-4548-856d-4923ddaba0dc","{""num_scrambled_semantic"":""8"",""num_scrambled_causal"":""4"",""num_scrambled_schematic"":""4"",""participantId"":""18ED08C9AB6B4551A1F04FB4F0D917E1"",""assignmentId"":""2fea9c6d-2ab1-41c3-b37b-e61d9a493a3a"",""projectId"":""051c06f1-75cc-4548-856d-4923ddaba0dc""}","https://test12345.live/?num_scrambled_semantic=8&num_scrambled_causal=4&num_scrambled_schematic=4&participantId=18ED08C9AB6B4551A1F04FB4F0D917E1&assignmentId=2fea9c6d-2ab1-41c3-b37b-e61d9a493a3a&projectId=051c06f1-75cc-4548-856d-4923ddaba0dc","18ED08C9AB6B4551A1F04FB4F0D917E1-2025-05-15-19-04-30","","null","","images/semantic_sequence/maintaining_a_car_semantic/maintaining_a_car_semantic_2.png","null","",""
"","","","","","image-button-response","70","439247","0.0-12.0-1.0-1.4","18ED08C9AB6B4551A1F04FB4F0D917E1","18ED08C9AB6B4551A1F04FB4F0D917E1","2fea9c6d-2ab1-41c3-b37b-e61d9a493a3a","051c06f1-75cc-4548-856d-4923ddaba0dc","{""num_scrambled_semantic"":""8"",""num_scrambled_causal"":""4"",""num_scrambled_schematic"":""4"",""participantId"":""18ED08C9AB6B4551A1F04FB4F0D917E1"",""assignmentId"":""2fea9c6d-2ab1-41c3-b37b-e61d9a493a3a"",""projectId"":""051c06f1-75cc-4548-856d-4923ddaba0dc""}","https://test12345.live/?num_scrambled_semantic=8&num_scrambled_causal=4&num_scrambled_schematic=4&participantId=18ED08C9AB6B4551A1F04FB4F0D917E1&assignmentId=2fea9c6d-2ab1-41c3-b37b-e61d9a493a3a&projectId=051c06f1-75cc-4548-856d-4923ddaba0dc","18ED08C9AB6B4551A1F04FB4F0D917E1-2025-05-15-19-04-30","","698","","images/semantic_sequence/maintaining_a_car_semantic/maintaining_a_car_semantic_2.png","0","",""
"","","","","","image-button-response","71","441048","0.0-12.0-1.0-2.4","18ED08C9AB6B4551A1F04FB4F0D917E1","18ED08C9AB6B4551A1F04FB4F0D917E1","2fea9c6d-2ab1-41c3-b37b-e61d9a493a3a","051c06f1-75cc-4548-856d-4923ddaba0dc","{""num_scrambled_semantic"":""8"",""num_scrambled_causal"":""4"",""num_scrambled_schematic"":""4"",""participantId"":""18ED08C9AB6B4551A1F04FB4F0D917E1"",""assignmentId"":""2fea9c6d-2ab1-41c3-b37b-e61d9a493a3a"",""projectId"":""051c06f1-75cc-4548-856d-4923ddaba0dc""}","https://test12345.live/?num_scrambled_semantic=8&num_scrambled_causal=4&num_scrambled_schematic=4&participantId=18ED08C9AB6B4551A1F04FB4F0D917E1&assignmentId=2fea9c6d-2ab1-41c3-b37b-e61d9a493a3a&projectId=051c06f1-75cc-4548-856d-4923ddaba0dc","18ED08C9AB6B4551A1F04FB4F0D917E1-2025-05-15-19-04-30","","null","","[]","null","",""
"","","","","","image-button-response","72","445561","0.0-12.0-1.0-0.5","18ED08C9AB6B4551A1F04FB4F0D917E1","18ED08C9AB6B4551A1F04FB4F0D917E1","2fea9c6d-2ab1-41c3-b37b-e61d9a493a3a","051c06f1-75cc-4548-856d-4923ddaba0dc","{""num_scrambled_semantic"":""8"",""num_scrambled_causal"":""4"",""num_scrambled_schematic"":""4"",""participantId"":""18ED08C9AB6B4551A1F04FB4F0D917E1"",""assignmentId"":""2fea9c6d-2ab1-41c3-b37b-e61d9a493a3a"",""projectId"":""051c06f1-75cc-4548-856d-4923ddaba0dc""}","https://test12345.live/?num_scrambled_semantic=8&num_scrambled_causal=4&num_scrambled_schematic=4&participantId=18ED08C9AB6B4551A1F04FB4F0D917E1&assignmentId=2fea9c6d-2ab1-41c3-b37b-e61d9a493a3a&projectId=051c06f1-75cc-4548-856d-4923ddaba0dc","18ED08C9AB6B4551A1F04FB4F0D917E1-2025-05-15-19-04-30","","null","","images/semantic_sequence/maintaining_a_car_semantic/maintaining_a_car_semantic_9.png","null","",""
"","","","","","image-button-response","73","446264","0.0-12.0-1.0-1.5","18ED08C9AB6B4551A1F04FB4F0D917E1","18ED08C9AB6B4551A1F04FB4F0D917E1","2fea9c6d-2ab1-41c3-b37b-e61d9a493a3a","051c06f1-75cc-4548-856d-4923ddaba0dc","{""num_scrambled_semantic"":""8"",""num_scrambled_causal"":""4"",""num_scrambled_schematic"":""4"",""participantId"":""18ED08C9AB6B4551A1F04FB4F0D917E1"",""assignmentId"":""2fea9c6d-2ab1-41c3-b37b-e61d9a493a3a"",""projectId"":""051c06f1-75cc-4548-856d-4923ddaba0dc""}","https://test12345.live/?num_scrambled_semantic=8&num_scrambled_causal=4&num_scrambled_schematic=4&participantId=18ED08C9AB6B4551A1F04FB4F0D917E1&assignmentId=2fea9c6d-2ab1-41c3-b37b-e61d9a493a3a&projectId=051c06f1-75cc-4548-856d-4923ddaba0dc","18ED08C9AB6B4551A1F04FB4F0D917E1-2025-05-15-19-04-30","","702","","images/semantic_sequence/maintaining_a_car_semantic/maintaining_a_car_semantic_9.png","0","",""
"","","","","","image-button-response","74","448069","0.0-12.0-1.0-2.5","18ED08C9AB6B4551A1F04FB4F0D917E1","18ED08C9AB6B4551A1F04FB4F0D917E1","2fea9c6d-2ab1-41c3-b37b-e61d9a493a3a","051c06f1-75cc-4548-856d-4923ddaba0dc","{""num_scrambled_semantic"":""8"",""num_scrambled_causal"":""4"",""num_scrambled_schematic"":""4"",""participantId"":""18ED08C9AB6B4551A1F04FB4F0D917E1"",""assignmentId"":""2fea9c6d-2ab1-41c3-b37b-e61d9a493a3a"",""projectId"":""051c06f1-75cc-4548-856d-4923ddaba0dc""}","https://test12345.live/?num_scrambled_semantic=8&num_scrambled_causal=4&num_scrambled_schematic=4&participantId=18ED08C9AB6B4551A1F04FB4F0D917E1&assignmentId=2fea9c6d-2ab1-41c3-b37b-e61d9a493a3a&projectId=051c06f1-75cc-4548-856d-4923ddaba0dc","18ED08C9AB6B4551A1F04FB4F0D917E1-2025-05-15-19-04-30","","null","","[]","null","",""
"","","","","","image-button-response","75","452571","0.0-12.0-1.0-0.6","18ED08C9AB6B4551A1F04FB4F0D917E1","18ED08C9AB6B4551A1F04FB4F0D917E1","2fea9c6d-2ab1-41c3-b37b-e61d9a493a3a","051c06f1-75cc-4548-856d-4923ddaba0dc","{""num_scrambled_semantic"":""8"",""num_scrambled_causal"":""4"",""num_scrambled_schematic"":""4"",""participantId"":""18ED08C9AB6B4551A1F04FB4F0D917E1"",""assignmentId"":""2fea9c6d-2ab1-41c3-b37b-e61d9a493a3a"",""projectId"":""051c06f1-75cc-4548-856d-4923ddaba0dc""}","https://test12345.live/?num_scrambled_semantic=8&num_scrambled_causal=4&num_scrambled_schematic=4&participantId=18ED08C9AB6B4551A1F04FB4F0D917E1&assignmentId=2fea9c6d-2ab1-41c3-b37b-e61d9a493a3a&projectId=051c06f1-75cc-4548-856d-4923ddaba0dc","18ED08C9AB6B4551A1F04FB4F0D917E1-2025-05-15-19-04-30","","null","","images/semantic_sequence/maintaining_a_car_semantic/maintaining_a_car_semantic_8.png","null","",""
"","","","","","image-button-response","76","453445","0.0-12.0-1.0-1.6","18ED08C9AB6B4551A1F04FB4F0D917E1","18ED08C9AB6B4551A1F04FB4F0D917E1","2fea9c6d-2ab1-41c3-b37b-e61d9a493a3a","051c06f1-75cc-4548-856d-4923ddaba0dc","{""num_scrambled_semantic"":""8"",""num_scrambled_causal"":""4"",""num_scrambled_schematic"":""4"",""participantId"":""18ED08C9AB6B4551A1F04FB4F0D917E1"",""assignmentId"":""2fea9c6d-2ab1-41c3-b37b-e61d9a493a3a"",""projectId"":""051c06f1-75cc-4548-856d-4923ddaba0dc""}","https://test12345.live/?num_scrambled_semantic=8&num_scrambled_causal=4&num_scrambled_schematic=4&participantId=18ED08C9AB6B4551A1F04FB4F0D917E1&assignmentId=2fea9c6d-2ab1-41c3-b37b-e61d9a493a3a&projectId=051c06f1-75cc-4548-856d-4923ddaba0dc","18ED08C9AB6B4551A1F04FB4F0D917E1-2025-05-15-19-04-30","","873","","images/semantic_sequence/maintaining_a_car_semantic/maintaining_a_car_semantic_8.png","0","",""
"","","","","","image-button-response","77","455253","0.0-12.0-1.0-2.6","18ED08C9AB6B4551A1F04FB4F0D917E1","18ED08C9AB6B4551A1F04FB4F0D917E1","2fea9c6d-2ab1-41c3-b37b-e61d9a493a3a","051c06f1-75cc-4548-856d-4923ddaba0dc","{""num_scrambled_semantic"":""8"",""num_scrambled_causal"":""4"",""num_scrambled_schematic"":""4"",""participantId"":""18ED08C9AB6B4551A1F04FB4F0D917E1"",""assignmentId"":""2fea9c6d-2ab1-41c3-b37b-e61d9a493a3a"",""projectId"":""051c06f1-75cc-4548-856d-4923ddaba0dc""}","https://test12345.live/?num_scrambled_semantic=8&num_scrambled_causal=4&num_scrambled_schematic=4&participantId=18ED08C9AB6B4551A1F04FB4F0D917E1&assignmentId=2fea9c6d-2ab1-41c3-b37b-e61d9a493a3a&projectId=051c06f1-75cc-4548-856d-4923ddaba0dc","18ED08C9AB6B4551A1F04FB4F0D917E1-2025-05-15-19-04-30","","null","","[]","null","",""
"","","","","","image-button-response","78","459769","0.0-12.0-1.0-0.7","18ED08C9AB6B4551A1F04FB4F0D917E1","18ED08C9AB6B4551A1F04FB4F0D917E1","2fea9c6d-2ab1-41c3-b37b-e61d9a493a3a","051c06f1-75cc-4548-856d-4923ddaba0dc","{""num_scrambled_semantic"":""8"",""num_scrambled_causal"":""4"",""num_scrambled_schematic"":""4"",""participantId"":""18ED08C9AB6B4551A1F04FB4F0D917E1"",""assignmentId"":""2fea9c6d-2ab1-41c3-b37b-e61d9a493a3a"",""projectId"":""051c06f1-75cc-4548-856d-4923ddaba0dc""}","https://test12345.live/?num_scrambled_semantic=8&num_scrambled_causal=4&num_scrambled_schematic=4&participantId=18ED08C9AB6B4551A1F04FB4F0D917E1&assignmentId=2fea9c6d-2ab1-41c3-b37b-e61d9a493a3a&projectId=051c06f1-75cc-4548-856d-4923ddaba0dc","18ED08C9AB6B4551A1F04FB4F0D917E1-2025-05-15-19-04-30","","null","","images/semantic_sequence/maintaining_a_car_semantic/maintaining_a_car_semantic_ten.png","null","",""
"","","","","","image-button-response","79","460549","0.0-12.0-1.0-1.7","18ED08C9AB6B4551A1F04FB4F0D917E1","18ED08C9AB6B4551A1F04FB4F0D917E1","2fea9c6d-2ab1-41c3-b37b-e61d9a493a3a","051c06f1-75cc-4548-856d-4923ddaba0dc","{""num_scrambled_semantic"":""8"",""num_scrambled_causal"":""4"",""num_scrambled_schematic"":""4"",""participantId"":""18ED08C9AB6B4551A1F04FB4F0D917E1"",""assignmentId"":""2fea9c6d-2ab1-41c3-b37b-e61d9a493a3a"",""projectId"":""051c06f1-75cc-4548-856d-4923ddaba0dc""}","https://test12345.live/?num_scrambled_semantic=8&num_scrambled_causal=4&num_scrambled_schematic=4&participantId=18ED08C9AB6B4551A1F04FB4F0D917E1&assignmentId=2fea9c6d-2ab1-41c3-b37b-e61d9a493a3a&projectId=051c06f1-75cc-4548-856d-4923ddaba0dc","18ED08C9AB6B4551A1F04FB4F0D917E1-2025-05-15-19-04-30","","779","","images/semantic_sequence/maintaining_a_car_semantic/maintaining_a_car_semantic_ten.png","0","",""
"","","","","","image-button-response","80","462356","0.0-12.0-1.0-2.7","18ED08C9AB6B4551A1F04FB4F0D917E1","18ED08C9AB6B4551A1F04FB4F0D917E1","2fea9c6d-2ab1-41c3-b37b-e61d9a493a3a","051c06f1-75cc-4548-856d-4923ddaba0dc","{""num_scrambled_semantic"":""8"",""num_scrambled_causal"":""4"",""num_scrambled_schematic"":""4"",""participantId"":""18ED08C9AB6B4551A1F04FB4F0D917E1"",""assignmentId"":""2fea9c6d-2ab1-41c3-b37b-e61d9a493a3a"",""projectId"":""051c06f1-75cc-4548-856d-4923ddaba0dc""}","https://test12345.live/?num_scrambled_semantic=8&num_scrambled_causal=4&num_scrambled_schematic=4&participantId=18ED08C9AB6B4551A1F04FB4F0D917E1&assignmentId=2fea9c6d-2ab1-41c3-b37b-e61d9a493a3a&projectId=051c06f1-75cc-4548-856d-4923ddaba0dc","18ED08C9AB6B4551A1F04FB4F0D917E1-2025-05-15-19-04-30","","null","","[]","null","",""
"","","","","","image-button-response","81","466860","0.0-12.0-1.0-0.8","18ED08C9AB6B4551A1F04FB4F0D917E1","18ED08C9AB6B4551A1F04FB4F0D917E1","2fea9c6d-2ab1-41c3-b37b-e61d9a493a3a","051c06f1-75cc-4548-856d-4923ddaba0dc","{""num_scrambled_semantic"":""8"",""num_scrambled_causal"":""4"",""num_scrambled_schematic"":""4"",""participantId"":""18ED08C9AB6B4551A1F04FB4F0D917E1"",""assignmentId"":""2fea9c6d-2ab1-41c3-b37b-e61d9a493a3a"",""projectId"":""051c06f1-75cc-4548-856d-4923ddaba0dc""}","https://test12345.live/?num_scrambled_semantic=8&num_scrambled_causal=4&num_scrambled_schematic=4&participantId=18ED08C9AB6B4551A1F04FB4F0D917E1&assignmentId=2fea9c6d-2ab1-41c3-b37b-e61d9a493a3a&projectId=051c06f1-75cc-4548-856d-4923ddaba0dc","18ED08C9AB6B4551A1F04FB4F0D917E1-2025-05-15-19-04-30","","null","","images/semantic_sequence/maintaining_a_car_semantic/maintaining_a_car_semantic_1.png","null","",""
"","","","","","image-button-response","82","467604","0.0-12.0-1.0-1.8","18ED08C9AB6B4551A1F04FB4F0D917E1","18ED08C9AB6B4551A1F04FB4F0D917E1","2fea9c6d-2ab1-41c3-b37b-e61d9a493a3a","051c06f1-75cc-4548-856d-4923ddaba0dc","{""num_scrambled_semantic"":""8"",""num_scrambled_causal"":""4"",""num_scrambled_schematic"":""4"",""participantId"":""18ED08C9AB6B4551A1F04FB4F0D917E1"",""assignmentId"":""2fea9c6d-2ab1-41c3-b37b-e61d9a493a3a"",""projectId"":""051c06f1-75cc-4548-856d-4923ddaba0dc""}","https://test12345.live/?num_scrambled_semantic=8&num_scrambled_causal=4&num_scrambled_schematic=4&participantId=18ED08C9AB6B4551A1F04FB4F0D917E1&assignmentId=2fea9c6d-2ab1-41c3-b37b-e61d9a493a3a&projectId=051c06f1-75cc-4548-856d-4923ddaba0dc","18ED08C9AB6B4551A1F04FB4F0D917E1-2025-05-15-19-04-30","","743","","images/semantic_sequence/maintaining_a_car_semantic/maintaining_a_car_semantic_1.png","0","",""
"","","","","","image-button-response","83","469420","0.0-12.0-1.0-2.8","18ED08C9AB6B4551A1F04FB4F0D917E1","18ED08C9AB6B4551A1F04FB4F0D917E1","2fea9c6d-2ab1-41c3-b37b-e61d9a493a3a","051c06f1-75cc-4548-856d-4923ddaba0dc","{""num_scrambled_semantic"":""8"",""num_scrambled_causal"":""4"",""num_scrambled_schematic"":""4"",""participantId"":""18ED08C9AB6B4551A1F04FB4F0D917E1"",""assignmentId"":""2fea9c6d-2ab1-41c3-b37b-e61d9a493a3a"",""projectId"":""051c06f1-75cc-4548-856d-4923ddaba0dc""}","https://test12345.live/?num_scrambled_semantic=8&num_scrambled_causal=4&num_scrambled_schematic=4&participantId=18ED08C9AB6B4551A1F04FB4F0D917E1&assignmentId=2fea9c6d-2ab1-41c3-b37b-e61d9a493a3a&projectId=051c06f1-75cc-4548-856d-4923ddaba0dc","18ED08C9AB6B4551A1F04FB4F0D917E1-2025-05-15-19-04-30","","null","","[]","null","",""
"","","","","","image-button-response","84","473921","0.0-12.0-1.0-0.9","18ED08C9AB6B4551A1F04FB4F0D917E1","18ED08C9AB6B4551A1F04FB4F0D917E1","2fea9c6d-2ab1-41c3-b37b-e61d9a493a3a","051c06f1-75cc-4548-856d-4923ddaba0dc","{""num_scrambled_semantic"":""8"",""num_scrambled_causal"":""4"",""num_scrambled_schematic"":""4"",""participantId"":""18ED08C9AB6B4551A1F04FB4F0D917E1"",""assignmentId"":""2fea9c6d-2ab1-41c3-b37b-e61d9a493a3a"",""projectId"":""051c06f1-75cc-4548-856d-4923ddaba0dc""}","https://test12345.live/?num_scrambled_semantic=8&num_scrambled_causal=4&num_scrambled_schematic=4&participantId=18ED08C9AB6B4551A1F04FB4F0D917E1&assignmentId=2fea9c6d-2ab1-41c3-b37b-e61d9a493a3a&projectId=051c06f1-75cc-4548-856d-4923ddaba0dc","18ED08C9AB6B4551A1F04FB4F0D917E1-2025-05-15-19-04-30","","null","","images/semantic_sequence/maintaining_a_car_semantic/maintaining_a_car_semantic_4.png","null","",""
"","","","","","image-button-response","85","474644","0.0-12.0-1.0-1.9","18ED08C9AB6B4551A1F04FB4F0D917E1","18ED08C9AB6B4551A1F04FB4F0D917E1","2fea9c6d-2ab1-41c3-b37b-e61d9a493a3a","051c06f1-75cc-4548-856d-4923ddaba0dc","{""num_scrambled_semantic"":""8"",""num_scrambled_causal"":""4"",""num_scrambled_schematic"":""4"",""participantId"":""18ED08C9AB6B4551A1F04FB4F0D917E1"",""assignmentId"":""2fea9c6d-2ab1-41c3-b37b-e61d9a493a3a"",""projectId"":""051c06f1-75cc-4548-856d-4923ddaba0dc""}","https://test12345.live/?num_scrambled_semantic=8&num_scrambled_causal=4&num_scrambled_schematic=4&participantId=18ED08C9AB6B4551A1F04FB4F0D917E1&assignmentId=2fea9c6d-2ab1-41c3-b37b-e61d9a493a3a&projectId=051c06f1-75cc-4548-856d-4923ddaba0dc","18ED08C9AB6B4551A1F04FB4F0D917E1-2025-05-15-19-04-30","","722","","images/semantic_sequence/maintaining_a_car_semantic/maintaining_a_car_semantic_4.png","0","",""
"","","","","","image-button-response","86","476460","0.0-12.0-1.0-2.9","18ED08C9AB6B4551A1F04FB4F0D917E1","18ED08C9AB6B4551A1F04FB4F0D917E1","2fea9c6d-2ab1-41c3-b37b-e61d9a493a3a","051c06f1-75cc-4548-856d-4923ddaba0dc","{""num_scrambled_semantic"":""8"",""num_scrambled_causal"":""4"",""num_scrambled_schematic"":""4"",""participantId"":""18ED08C9AB6B4551A1F04FB4F0D917E1"",""assignmentId"":""2fea9c6d-2ab1-41c3-b37b-e61d9a493a3a"",""projectId"":""051c06f1-75cc-4548-856d-4923ddaba0dc""}","https://test12345.live/?num_scrambled_semantic=8&num_scrambled_causal=4&num_scrambled_schematic=4&participantId=18ED08C9AB6B4551A1F04FB4F0D917E1&assignmentId=2fea9c6d-2ab1-41c3-b37b-e61d9a493a3a&projectId=051c06f1-75cc-4548-856d-4923ddaba0dc","18ED08C9AB6B4551A1F04FB4F0D917E1-2025-05-15-19-04-30","","null","","[]","null","",""
"","","","","","html-audio-response","87","536251","0.0-13.0","18ED08C9AB6B4551A1F04FB4F0D917E1","18ED08C9AB6B4551A1F04FB4F0D917E1","2fea9c6d-2ab1-41c3-b37b-e61d9a493a3a","051c06f1-75cc-4548-856d-4923ddaba0dc","{""num_scrambled_semantic"":""8"",""num_scrambled_causal"":""4"",""num_scrambled_schematic"":""4"",""participantId"":""18ED08C9AB6B4551A1F04FB4F0D917E1"",""assignmentId"":""2fea9c6d-2ab1-41c3-b37b-e61d9a493a3a"",""projectId"":""051c06f1-75cc-4548-856d-4923ddaba0dc""}","https://test12345.live/?num_scrambled_semantic=8&num_scrambled_causal=4&num_scrambled_schematic=4&participantId=18ED08C9AB6B4551A1F04FB4F0D917E1&assignmentId=2fea9c6d-2ab1-41c3-b37b-e61d9a493a3a&projectId=051c06f1-75cc-4548-856d-4923ddaba0dc","18ED08C9AB6B4551A1F04FB4F0D917E1-2025-05-15-19-04-30","","38316","","[""<span style=\""color: red; font-size: 24px\""> NOW RECORDING</span><p>Please say out loud all the images you saw, as many as you can remember. The images can be said in any order.</p>""]","","1","maintaining_a_car_semantic"
"","","","","","image-button-response","88","542271","0.0-14.0-0.0","18ED08C9AB6B4551A1F04FB4F0D917E1","18ED08C9AB6B4551A1F04FB4F0D917E1","2fea9c6d-2ab1-41c3-b37b-e61d9a493a3a","051c06f1-75cc-4548-856d-4923ddaba0dc","{""num_scrambled_semantic"":""8"",""num_scrambled_causal"":""4"",""num_scrambled_schematic"":""4"",""participantId"":""18ED08C9AB6B4551A1F04FB4F0D917E1"",""assignmentId"":""2fea9c6d-2ab1-41c3-b37b-e61d9a493a3a"",""projectId"":""051c06f1-75cc-4548-856d-4923ddaba0dc""}","https://test12345.live/?num_scrambled_semantic=8&num_scrambled_causal=4&num_scrambled_schematic=4&participantId=18ED08C9AB6B4551A1F04FB4F0D917E1&assignmentId=2fea9c6d-2ab1-41c3-b37b-e61d9a493a3a&projectId=051c06f1-75cc-4548-856d-4923ddaba0dc","18ED08C9AB6B4551A1F04FB4F0D917E1-2025-05-15-19-04-30","","null","","images/semantic_sequence/redecorating_semantic/redecorating_semantic_0.png","null","",""
"","","","","","image-button-response","89","546783","0.0-14.0-1.0-0.0","18ED08C9AB6B4551A1F04FB4F0D917E1","18ED08C9AB6B4551A1F04FB4F0D917E1","2fea9c6d-2ab1-41c3-b37b-e61d9a493a3a","051c06f1-75cc-4548-856d-4923ddaba0dc","{""num_scrambled_semantic"":""8"",""num_scrambled_causal"":""4"",""num_scrambled_schematic"":""4"",""participantId"":""18ED08C9AB6B4551A1F04FB4F0D917E1"",""assignmentId"":""2fea9c6d-2ab1-41c3-b37b-e61d9a493a3a"",""projectId"":""051c06f1-75cc-4548-856d-4923ddaba0dc""}","https://test12345.live/?num_scrambled_semantic=8&num_scrambled_causal=4&num_scrambled_schematic=4&participantId=18ED08C9AB6B4551A1F04FB4F0D917E1&assignmentId=2fea9c6d-2ab1-41c3-b37b-e61d9a493a3a&projectId=051c06f1-75cc-4548-856d-4923ddaba0dc","18ED08C9AB6B4551A1F04FB4F0D917E1-2025-05-15-19-04-30","","null","","images/semantic_sequence/redecorating_semantic/redecorating_semantic_1.png","null","",""
"","","","","","image-button-response","90","547669","0.0-14.0-1.0-1.0","18ED08C9AB6B4551A1F04FB4F0D917E1","18ED08C9AB6B4551A1F04FB4F0D917E1","2fea9c6d-2ab1-41c3-b37b-e61d9a493a3a","051c06f1-75cc-4548-856d-4923ddaba0dc","{""num_scrambled_semantic"":""8"",""num_scrambled_causal"":""4"",""num_scrambled_schematic"":""4"",""participantId"":""18ED08C9AB6B4551A1F04FB4F0D917E1"",""assignmentId"":""2fea9c6d-2ab1-41c3-b37b-e61d9a493a3a"",""projectId"":""051c06f1-75cc-4548-856d-4923ddaba0dc""}","https://test12345.live/?num_scrambled_semantic=8&num_scrambled_causal=4&num_scrambled_schematic=4&participantId=18ED08C9AB6B4551A1F04FB4F0D917E1&assignmentId=2fea9c6d-2ab1-41c3-b37b-e61d9a493a3a&projectId=051c06f1-75cc-4548-856d-4923ddaba0dc","18ED08C9AB6B4551A1F04FB4F0D917E1-2025-05-15-19-04-30","","884","","images/semantic_sequence/redecorating_semantic/redecorating_semantic_1.png","0","",""
"","","","","","image-button-response","91","549481","0.0-14.0-1.0-2.0","18ED08C9AB6B4551A1F04FB4F0D917E1","18ED08C9AB6B4551A1F04FB4F0D917E1","2fea9c6d-2ab1-41c3-b37b-e61d9a493a3a","051c06f1-75cc-4548-856d-4923ddaba0dc","{""num_scrambled_semantic"":""8"",""num_scrambled_causal"":""4"",""num_scrambled_schematic"":""4"",""participantId"":""18ED08C9AB6B4551A1F04FB4F0D917E1"",""assignmentId"":""2fea9c6d-2ab1-41c3-b37b-e61d9a493a3a"",""projectId"":""051c06f1-75cc-4548-856d-4923ddaba0dc""}","https://test12345.live/?num_scrambled_semantic=8&num_scrambled_causal=4&num_scrambled_schematic=4&participantId=18ED08C9AB6B4551A1F04FB4F0D917E1&assignmentId=2fea9c6d-2ab1-41c3-b37b-e61d9a493a3a&projectId=051c06f1-75cc-4548-856d-4923ddaba0dc","18ED08C9AB6B4551A1F04FB4F0D917E1-2025-05-15-19-04-30","","null","","[]","null","",""
"","","","","","image-button-response","92","553989","0.0-14.0-1.0-0.1","18ED08C9AB6B4551A1F04FB4F0D917E1","18ED08C9AB6B4551A1F04FB4F0D917E1","2fea9c6d-2ab1-41c3-b37b-e61d9a493a3a","051c06f1-75cc-4548-856d-4923ddaba0dc","{""num_scrambled_semantic"":""8"",""num_scrambled_causal"":""4"",""num_scrambled_schematic"":""4"",""participantId"":""18ED08C9AB6B4551A1F04FB4F0D917E1"",""assignmentId"":""2fea9c6d-2ab1-41c3-b37b-e61d9a493a3a"",""projectId"":""051c06f1-75cc-4548-856d-4923ddaba0dc""}","https://test12345.live/?num_scrambled_semantic=8&num_scrambled_causal=4&num_scrambled_schematic=4&participantId=18ED08C9AB6B4551A1F04FB4F0D917E1&assignmentId=2fea9c6d-2ab1-41c3-b37b-e61d9a493a3a&projectId=051c06f1-75cc-4548-856d-4923ddaba0dc","18ED08C9AB6B4551A1F04FB4F0D917E1-2025-05-15-19-04-30","","null","","images/semantic_sequence/redecorating_semantic/redecorating_semantic_2.png","null","",""
"","","","","","image-button-response","93","555066","0.0-14.0-1.0-1.1","18ED08C9AB6B4551A1F04FB4F0D917E1","18ED08C9AB6B4551A1F04FB4F0D917E1","2fea9c6d-2ab1-41c3-b37b-e61d9a493a3a","051c06f1-75cc-4548-856d-4923ddaba0dc","{""num_scrambled_semantic"":""8"",""num_scrambled_causal"":""4"",""num_scrambled_schematic"":""4"",""participantId"":""18ED08C9AB6B4551A1F04FB4F0D917E1"",""assignmentId"":""2fea9c6d-2ab1-41c3-b37b-e61d9a493a3a"",""projectId"":""051c06f1-75cc-4548-856d-4923ddaba0dc""}","https://test12345.live/?num_scrambled_semantic=8&num_scrambled_causal=4&num_scrambled_schematic=4&participantId=18ED08C9AB6B4551A1F04FB4F0D917E1&assignmentId=2fea9c6d-2ab1-41c3-b37b-e61d9a493a3a&projectId=051c06f1-75cc-4548-856d-4923ddaba0dc","18ED08C9AB6B4551A1F04FB4F0D917E1-2025-05-15-19-04-30","","1075","","images/semantic_sequence/redecorating_semantic/redecorating_semantic_2.png","0","",""
"","","","","","image-button-response","94","556871","0.0-14.0-1.0-2.1","18ED08C9AB6B4551A1F04FB4F0D917E1","18ED08C9AB6B4551A1F04FB4F0D917E1","2fea9c6d-2ab1-41c3-b37b-e61d9a493a3a","051c06f1-75cc-4548-856d-4923ddaba0dc","{""num_scrambled_semantic"":""8"",""num_scrambled_causal"":""4"",""num_scrambled_schematic"":""4"",""participantId"":""18ED08C9AB6B4551A1F04FB4F0D917E1"",""assignmentId"":""2fea9c6d-2ab1-41c3-b37b-e61d9a493a3a"",""projectId"":""051c06f1-75cc-4548-856d-4923ddaba0dc""}","https://test12345.live/?num_scrambled_semantic=8&num_scrambled_causal=4&num_scrambled_schematic=4&participantId=18ED08C9AB6B4551A1F04FB4F0D917E1&assignmentId=2fea9c6d-2ab1-41c3-b37b-e61d9a493a3a&projectId=051c06f1-75cc-4548-856d-4923ddaba0dc","18ED08C9AB6B4551A1F04FB4F0D917E1-2025-05-15-19-04-30","","null","","[]","null","",""
"","","","","","image-button-response","95","561372","0.0-14.0-1.0-0.2","18ED08C9AB6B4551A1F04FB4F0D917E1","18ED08C9AB6B4551A1F04FB4F0D917E1","2fea9c6d-2ab1-41c3-b37b-e61d9a493a3a","051c06f1-75cc-4548-856d-4923ddaba0dc","{""num_scrambled_semantic"":""8"",""num_scrambled_causal"":""4"",""num_scrambled_schematic"":""4"",""participantId"":""18ED08C9AB6B4551A1F04FB4F0D917E1"",""assignmentId"":""2fea9c6d-2ab1-41c3-b37b-e61d9a493a3a"",""projectId"":""051c06f1-75cc-4548-856d-4923ddaba0dc""}","https://test12345.live/?num_scrambled_semantic=8&num_scrambled_causal=4&num_scrambled_schematic=4&participantId=18ED08C9AB6B4551A1F04FB4F0D917E1&assignmentId=2fea9c6d-2ab1-41c3-b37b-e61d9a493a3a&projectId=051c06f1-75cc-4548-856d-4923ddaba0dc","18ED08C9AB6B4551A1F04FB4F0D917E1-2025-05-15-19-04-30","","null","","images/semantic_sequence/redecorating_semantic/redecorating_semantic_3.png","null","",""
"","","","","","image-button-response","96","562451","0.0-14.0-1.0-1.2","18ED08C9AB6B4551A1F04FB4F0D917E1","18ED08C9AB6B4551A1F04FB4F0D917E1","2fea9c6d-2ab1-41c3-b37b-e61d9a493a3a","051c06f1-75cc-4548-856d-4923ddaba0dc","{""num_scrambled_semantic"":""8"",""num_scrambled_causal"":""4"",""num_scrambled_schematic"":""4"",""participantId"":""18ED08C9AB6B4551A1F04FB4F0D917E1"",""assignmentId"":""2fea9c6d-2ab1-41c3-b37b-e61d9a493a3a"",""projectId"":""051c06f1-75cc-4548-856d-4923ddaba0dc""}","https://test12345.live/?num_scrambled_semantic=8&num_scrambled_causal=4&num_scrambled_schematic=4&participantId=18ED08C9AB6B4551A1F04FB4F0D917E1&assignmentId=2fea9c6d-2ab1-41c3-b37b-e61d9a493a3a&projectId=051c06f1-75cc-4548-856d-4923ddaba0dc","18ED08C9AB6B4551A1F04FB4F0D917E1-2025-05-15-19-04-30","","1077","","images/semantic_sequence/redecorating_semantic/redecorating_semantic_3.png","0","",""
"","","","","","image-button-response","97","564262","0.0-14.0-1.0-2.2","18ED08C9AB6B4551A1F04FB4F0D917E1","18ED08C9AB6B4551A1F04FB4F0D917E1","2fea9c6d-2ab1-41c3-b37b-e61d9a493a3a","051c06f1-75cc-4548-856d-4923ddaba0dc","{""num_scrambled_semantic"":""8"",""num_scrambled_causal"":""4"",""num_scrambled_schematic"":""4"",""participantId"":""18ED08C9AB6B4551A1F04FB4F0D917E1"",""assignmentId"":""2fea9c6d-2ab1-41c3-b37b-e61d9a493a3a"",""projectId"":""051c06f1-75cc-4548-856d-4923ddaba0dc""}","https://test12345.live/?num_scrambled_semantic=8&num_scrambled_causal=4&num_scrambled_schematic=4&participantId=18ED08C9AB6B4551A1F04FB4F0D917E1&assignmentId=2fea9c6d-2ab1-41c3-b37b-e61d9a493a3a&projectId=051c06f1-75cc-4548-856d-4923ddaba0dc","18ED08C9AB6B4551A1F04FB4F0D917E1-2025-05-15-19-04-30","","null","","[]","null","",""
"","","","","","image-button-response","98","568774","0.0-14.0-1.0-0.3","18ED08C9AB6B4551A1F04FB4F0D917E1","18ED08C9AB6B4551A1F04FB4F0D917E1","2fea9c6d-2ab1-41c3-b37b-e61d9a493a3a","051c06f1-75cc-4548-856d-4923ddaba0dc","{""num_scrambled_semantic"":""8"",""num_scrambled_causal"":""4"",""num_scrambled_schematic"":""4"",""participantId"":""18ED08C9AB6B4551A1F04FB4F0D917E1"",""assignmentId"":""2fea9c6d-2ab1-41c3-b37b-e61d9a493a3a"",""projectId"":""051c06f1-75cc-4548-856d-4923ddaba0dc""}","https://test12345.live/?num_scrambled_semantic=8&num_scrambled_causal=4&num_scrambled_schematic=4&participantId=18ED08C9AB6B4551A1F04FB4F0D917E1&assignmentId=2fea9c6d-2ab1-41c3-b37b-e61d9a493a3a&projectId=051c06f1-75cc-4548-856d-4923ddaba0dc","18ED08C9AB6B4551A1F04FB4F0D917E1-2025-05-15-19-04-30","","null","","images/semantic_sequence/redecorating_semantic/redecorating_semantic_4.png","null","",""
"","","","","","image-button-response","99","569913","0.0-14.0-1.0-1.3","18ED08C9AB6B4551A1F04FB4F0D917E1","18ED08C9AB6B4551A1F04FB4F0D917E1","2fea9c6d-2ab1-41c3-b37b-e61d9a493a3a","051c06f1-75cc-4548-856d-4923ddaba0dc","{""num_scrambled_semantic"":""8"",""num_scrambled_causal"":""4"",""num_scrambled_schematic"":""4"",""participantId"":""18ED08C9AB6B4551A1F04FB4F0D917E1"",""assignmentId"":""2fea9c6d-2ab1-41c3-b37b-e61d9a493a3a"",""projectId"":""051c06f1-75cc-4548-856d-4923ddaba0dc""}","https://test12345.live/?num_scrambled_semantic=8&num_scrambled_causal=4&num_scrambled_schematic=4&participantId=18ED08C9AB6B4551A1F04FB4F0D917E1&assignmentId=2fea9c6d-2ab1-41c3-b37b-e61d9a493a3a&projectId=051c06f1-75cc-4548-856d-4923ddaba0dc","18ED08C9AB6B4551A1F04FB4F0D917E1-2025-05-15-19-04-30","","1137","","images/semantic_sequence/redecorating_semantic/redecorating_semantic_4.png","0","",""
"","","","","","image-button-response","100","571724","0.0-14.0-1.0-2.3","18ED08C9AB6B4551A1F04FB4F0D917E1","18ED08C9AB6B4551A1F04FB4F0D917E1","2fea9c6d-2ab1-41c3-b37b-e61d9a493a3a","051c06f1-75cc-4548-856d-4923ddaba0dc","{""num_scrambled_semantic"":""8"",""num_scrambled_causal"":""4"",""num_scrambled_schematic"":""4"",""participantId"":""18ED08C9AB6B4551A1F04FB4F0D917E1"",""assignmentId"":""2fea9c6d-2ab1-41c3-b37b-e61d9a493a3a"",""projectId"":""051c06f1-75cc-4548-856d-4923ddaba0dc""}","https://test12345.live/?num_scrambled_semantic=8&num_scrambled_causal=4&num_scrambled_schematic=4&participantId=18ED08C9AB6B4551A1F04FB4F0D917E1&assignmentId=2fea9c6d-2ab1-41c3-b37b-e61d9a493a3a&projectId=051c06f1-75cc-4548-856d-4923ddaba0dc","18ED08C9AB6B4551A1F04FB4F0D917E1-2025-05-15-19-04-30","","null","","[]","null","",""
"","","","","","image-button-response","101","576234","0.0-14.0-1.0-0.4","18ED08C9AB6B4551A1F04FB4F0D917E1","18ED08C9AB6B4551A1F04FB4F0D917E1","2fea9c6d-2ab1-41c3-b37b-e61d9a493a3a","051c06f1-75cc-4548-856d-4923ddaba0dc","{""num_scrambled_semantic"":""8"",""num_scrambled_causal"":""4"",""num_scrambled_schematic"":""4"",""participantId"":""18ED08C9AB6B4551A1F04FB4F0D917E1"",""assignmentId"":""2fea9c6d-2ab1-41c3-b37b-e61d9a493a3a"",""projectId"":""051c06f1-75cc-4548-856d-4923ddaba0dc""}","https://test12345.live/?num_scrambled_semantic=8&num_scrambled_causal=4&num_scrambled_schematic=4&participantId=18ED08C9AB6B4551A1F04FB4F0D917E1&assignmentId=2fea9c6d-2ab1-41c3-b37b-e61d9a493a3a&projectId=051c06f1-75cc-4548-856d-4923ddaba0dc","18ED08C9AB6B4551A1F04FB4F0D917E1-2025-05-15-19-04-30","","null","","images/semantic_sequence/redecorating_semantic/redecorating_semantic_5.png","null","",""
"","","","","","image-button-response","102","577204","0.0-14.0-1.0-1.4","18ED08C9AB6B4551A1F04FB4F0D917E1","18ED08C9AB6B4551A1F04FB4F0D917E1","2fea9c6d-2ab1-41c3-b37b-e61d9a493a3a","051c06f1-75cc-4548-856d-4923ddaba0dc","{""num_scrambled_semantic"":""8"",""num_scrambled_causal"":""4"",""num_scrambled_schematic"":""4"",""participantId"":""18ED08C9AB6B4551A1F04FB4F0D917E1"",""assignmentId"":""2fea9c6d-2ab1-41c3-b37b-e61d9a493a3a"",""projectId"":""051c06f1-75cc-4548-856d-4923ddaba0dc""}","https://test12345.live/?num_scrambled_semantic=8&num_scrambled_causal=4&num_scrambled_schematic=4&participantId=18ED08C9AB6B4551A1F04FB4F0D917E1&assignmentId=2fea9c6d-2ab1-41c3-b37b-e61d9a493a3a&projectId=051c06f1-75cc-4548-856d-4923ddaba0dc","18ED08C9AB6B4551A1F04FB4F0D917E1-2025-05-15-19-04-30","","969","","images/semantic_sequence/redecorating_semantic/redecorating_semantic_5.png","0","",""
"","","","","","image-button-response","103","579013","0.0-14.0-1.0-2.4","18ED08C9AB6B4551A1F04FB4F0D917E1","18ED08C9AB6B4551A1F04FB4F0D917E1","2fea9c6d-2ab1-41c3-b37b-e61d9a493a3a","051c06f1-75cc-4548-856d-4923ddaba0dc","{""num_scrambled_semantic"":""8"",""num_scrambled_causal"":""4"",""num_scrambled_schematic"":""4"",""participantId"":""18ED08C9AB6B4551A1F04FB4F0D917E1"",""assignmentId"":""2fea9c6d-2ab1-41c3-b37b-e61d9a493a3a"",""projectId"":""051c06f1-75cc-4548-856d-4923ddaba0dc""}","https://test12345.live/?num_scrambled_semantic=8&num_scrambled_causal=4&num_scrambled_schematic=4&participantId=18ED08C9AB6B4551A1F04FB4F0D917E1&assignmentId=2fea9c6d-2ab1-41c3-b37b-e61d9a493a3a&projectId=051c06f1-75cc-4548-856d-4923ddaba0dc","18ED08C9AB6B4551A1F04FB4F0D917E1-2025-05-15-19-04-30","","null","","[]","null","",""
"","","","","","image-button-response","104","583520","0.0-14.0-1.0-0.5","18ED08C9AB6B4551A1F04FB4F0D917E1","18ED08C9AB6B4551A1F04FB4F0D917E1","2fea9c6d-2ab1-41c3-b37b-e61d9a493a3a","051c06f1-75cc-4548-856d-4923ddaba0dc","{""num_scrambled_semantic"":""8"",""num_scrambled_causal"":""4"",""num_scrambled_schematic"":""4"",""participantId"":""18ED08C9AB6B4551A1F04FB4F0D917E1"",""assignmentId"":""2fea9c6d-2ab1-41c3-b37b-e61d9a493a3a"",""projectId"":""051c06f1-75cc-4548-856d-4923ddaba0dc""}","https://test12345.live/?num_scrambled_semantic=8&num_scrambled_causal=4&num_scrambled_schematic=4&participantId=18ED08C9AB6B4551A1F04FB4F0D917E1&assignmentId=2fea9c6d-2ab1-41c3-b37b-e61d9a493a3a&projectId=051c06f1-75cc-4548-856d-4923ddaba0dc","18ED08C9AB6B4551A1F04FB4F0D917E1-2025-05-15-19-04-30","","null","","images/semantic_sequence/redecorating_semantic/redecorating_semantic_6.png","null","",""
"","","","","","image-button-response","105","584454","0.0-14.0-1.0-1.5","18ED08C9AB6B4551A1F04FB4F0D917E1","18ED08C9AB6B4551A1F04FB4F0D917E1","2fea9c6d-2ab1-41c3-b37b-e61d9a493a3a","051c06f1-75cc-4548-856d-4923ddaba0dc","{""num_scrambled_semantic"":""8"",""num_scrambled_causal"":""4"",""num_scrambled_schematic"":""4"",""participantId"":""18ED08C9AB6B4551A1F04FB4F0D917E1"",""assignmentId"":""2fea9c6d-2ab1-41c3-b37b-e61d9a493a3a"",""projectId"":""051c06f1-75cc-4548-856d-4923ddaba0dc""}","https://test12345.live/?num_scrambled_semantic=8&num_scrambled_causal=4&num_scrambled_schematic=4&participantId=18ED08C9AB6B4551A1F04FB4F0D917E1&assignmentId=2fea9c6d-2ab1-41c3-b37b-e61d9a493a3a&projectId=051c06f1-75cc-4548-856d-4923ddaba0dc","18ED08C9AB6B4551A1F04FB4F0D917E1-2025-05-15-19-04-30","","933","","images/semantic_sequence/redecorating_semantic/redecorating_semantic_6.png","0","",""
"","","","","","image-button-response","106","586256","0.0-14.0-1.0-2.5","18ED08C9AB6B4551A1F04FB4F0D917E1","18ED08C9AB6B4551A1F04FB4F0D917E1","2fea9c6d-2ab1-41c3-b37b-e61d9a493a3a","051c06f1-75cc-4548-856d-4923ddaba0dc","{""num_scrambled_semantic"":""8"",""num_scrambled_causal"":""4"",""num_scrambled_schematic"":""4"",""participantId"":""18ED08C9AB6B4551A1F04FB4F0D917E1"",""assignmentId"":""2fea9c6d-2ab1-41c3-b37b-e61d9a493a3a"",""projectId"":""051c06f1-75cc-4548-856d-4923ddaba0dc""}","https://test12345.live/?num_scrambled_semantic=8&num_scrambled_causal=4&num_scrambled_schematic=4&participantId=18ED08C9AB6B4551A1F04FB4F0D917E1&assignmentId=2fea9c6d-2ab1-41c3-b37b-e61d9a493a3a&projectId=051c06f1-75cc-4548-856d-4923ddaba0dc","18ED08C9AB6B4551A1F04FB4F0D917E1-2025-05-15-19-04-30","","null","","[]","null","",""
"","","","","","image-button-response","107","590769","0.0-14.0-1.0-0.6","18ED08C9AB6B4551A1F04FB4F0D917E1","18ED08C9AB6B4551A1F04FB4F0D917E1","2fea9c6d-2ab1-41c3-b37b-e61d9a493a3a","051c06f1-75cc-4548-856d-4923ddaba0dc","{""num_scrambled_semantic"":""8"",""num_scrambled_causal"":""4"",""num_scrambled_schematic"":""4"",""participantId"":""18ED08C9AB6B4551A1F04FB4F0D917E1"",""assignmentId"":""2fea9c6d-2ab1-41c3-b37b-e61d9a493a3a"",""projectId"":""051c06f1-75cc-4548-856d-4923ddaba0dc""}","https://test12345.live/?num_scrambled_semantic=8&num_scrambled_causal=4&num_scrambled_schematic=4&participantId=18ED08C9AB6B4551A1F04FB4F0D917E1&assignmentId=2fea9c6d-2ab1-41c3-b37b-e61d9a493a3a&projectId=051c06f1-75cc-4548-856d-4923ddaba0dc","18ED08C9AB6B4551A1F04FB4F0D917E1-2025-05-15-19-04-30","","null","","images/semantic_sequence/redecorating_semantic/redecorating_semantic_7.png","null","",""
"","","","","","image-button-response","108","591537","0.0-14.0-1.0-1.6","18ED08C9AB6B4551A1F04FB4F0D917E1","18ED08C9AB6B4551A1F04FB4F0D917E1","2fea9c6d-2ab1-41c3-b37b-e61d9a493a3a","051c06f1-75cc-4548-856d-4923ddaba0dc","{""num_scrambled_semantic"":""8"",""num_scrambled_causal"":""4"",""num_scrambled_schematic"":""4"",""participantId"":""18ED08C9AB6B4551A1F04FB4F0D917E1"",""assignmentId"":""2fea9c6d-2ab1-41c3-b37b-e61d9a493a3a"",""projectId"":""051c06f1-75cc-4548-856d-4923ddaba0dc""}","https://test12345.live/?num_scrambled_semantic=8&num_scrambled_causal=4&num_scrambled_schematic=4&participantId=18ED08C9AB6B4551A1F04FB4F0D917E1&assignmentId=2fea9c6d-2ab1-41c3-b37b-e61d9a493a3a&projectId=051c06f1-75cc-4548-856d-4923ddaba0dc","18ED08C9AB6B4551A1F04FB4F0D917E1-2025-05-15-19-04-30","","768","","images/semantic_sequence/redecorating_semantic/redecorating_semantic_7.png","0","",""
"","","","","","image-button-response","109","593348","0.0-14.0-1.0-2.6","18ED08C9AB6B4551A1F04FB4F0D917E1","18ED08C9AB6B4551A1F04FB4F0D917E1","2fea9c6d-2ab1-41c3-b37b-e61d9a493a3a","051c06f1-75cc-4548-856d-4923ddaba0dc","{""num_scrambled_semantic"":""8"",""num_scrambled_causal"":""4"",""num_scrambled_schematic"":""4"",""participantId"":""18ED08C9AB6B4551A1F04FB4F0D917E1"",""assignmentId"":""2fea9c6d-2ab1-41c3-b37b-e61d9a493a3a"",""projectId"":""051c06f1-75cc-4548-856d-4923ddaba0dc""}","https://test12345.live/?num_scrambled_semantic=8&num_scrambled_causal=4&num_scrambled_schematic=4&participantId=18ED08C9AB6B4551A1F04FB4F0D917E1&assignmentId=2fea9c6d-2ab1-41c3-b37b-e61d9a493a3a&projectId=051c06f1-75cc-4548-856d-4923ddaba0dc","18ED08C9AB6B4551A1F04FB4F0D917E1-2025-05-15-19-04-30","","null","","[]","null","",""
"","","","","","image-button-response","110","597858","0.0-14.0-1.0-0.7","18ED08C9AB6B4551A1F04FB4F0D917E1","18ED08C9AB6B4551A1F04FB4F0D917E1","2fea9c6d-2ab1-41c3-b37b-e61d9a493a3a","051c06f1-75cc-4548-856d-4923ddaba0dc","{""num_scrambled_semantic"":""8"",""num_scrambled_causal"":""4"",""num_scrambled_schematic"":""4"",""participantId"":""18ED08C9AB6B4551A1F04FB4F0D917E1"",""assignmentId"":""2fea9c6d-2ab1-41c3-b37b-e61d9a493a3a"",""projectId"":""051c06f1-75cc-4548-856d-4923ddaba0dc""}","https://test12345.live/?num_scrambled_semantic=8&num_scrambled_causal=4&num_scrambled_schematic=4&participantId=18ED08C9AB6B4551A1F04FB4F0D917E1&assignmentId=2fea9c6d-2ab1-41c3-b37b-e61d9a493a3a&projectId=051c06f1-75cc-4548-856d-4923ddaba0dc","18ED08C9AB6B4551A1F04FB4F0D917E1-2025-05-15-19-04-30","","null","","images/semantic_sequence/redecorating_semantic/redecorating_semantic_8.png","null","",""
"","","","","","image-button-response","111","598606","0.0-14.0-1.0-1.7","18ED08C9AB6B4551A1F04FB4F0D917E1","18ED08C9AB6B4551A1F04FB4F0D917E1","2fea9c6d-2ab1-41c3-b37b-e61d9a493a3a","051c06f1-75cc-4548-856d-4923ddaba0dc","{""num_scrambled_semantic"":""8"",""num_scrambled_causal"":""4"",""num_scrambled_schematic"":""4"",""participantId"":""18ED08C9AB6B4551A1F04FB4F0D917E1"",""assignmentId"":""2fea9c6d-2ab1-41c3-b37b-e61d9a493a3a"",""projectId"":""051c06f1-75cc-4548-856d-4923ddaba0dc""}","https://test12345.live/?num_scrambled_semantic=8&num_scrambled_causal=4&num_scrambled_schematic=4&participantId=18ED08C9AB6B4551A1F04FB4F0D917E1&assignmentId=2fea9c6d-2ab1-41c3-b37b-e61d9a493a3a&projectId=051c06f1-75cc-4548-856d-4923ddaba0dc","18ED08C9AB6B4551A1F04FB4F0D917E1-2025-05-15-19-04-30","","747","","images/semantic_sequence/redecorating_semantic/redecorating_semantic_8.png","0","",""
"","","","","","image-button-response","112","600409","0.0-14.0-1.0-2.7","18ED08C9AB6B4551A1F04FB4F0D917E1","18ED08C9AB6B4551A1F04FB4F0D917E1","2fea9c6d-2ab1-41c3-b37b-e61d9a493a3a","051c06f1-75cc-4548-856d-4923ddaba0dc","{""num_scrambled_semantic"":""8"",""num_scrambled_causal"":""4"",""num_scrambled_schematic"":""4"",""participantId"":""18ED08C9AB6B4551A1F04FB4F0D917E1"",""assignmentId"":""2fea9c6d-2ab1-41c3-b37b-e61d9a493a3a"",""projectId"":""051c06f1-75cc-4548-856d-4923ddaba0dc""}","https://test12345.live/?num_scrambled_semantic=8&num_scrambled_causal=4&num_scrambled_schematic=4&participantId=18ED08C9AB6B4551A1F04FB4F0D917E1&assignmentId=2fea9c6d-2ab1-41c3-b37b-e61d9a493a3a&projectId=051c06f1-75cc-4548-856d-4923ddaba0dc","18ED08C9AB6B4551A1F04FB4F0D917E1-2025-05-15-19-04-30","","null","","[]","null","",""
"","","","","","image-button-response","113","604915","0.0-14.0-1.0-0.8","18ED08C9AB6B4551A1F04FB4F0D917E1","18ED08C9AB6B4551A1F04FB4F0D917E1","2fea9c6d-2ab1-41c3-b37b-e61d9a493a3a","051c06f1-75cc-4548-856d-4923ddaba0dc","{""num_scrambled_semantic"":""8"",""num_scrambled_causal"":""4"",""num_scrambled_schematic"":""4"",""participantId"":""18ED08C9AB6B4551A1F04FB4F0D917E1"",""assignmentId"":""2fea9c6d-2ab1-41c3-b37b-e61d9a493a3a"",""projectId"":""051c06f1-75cc-4548-856d-4923ddaba0dc""}","https://test12345.live/?num_scrambled_semantic=8&num_scrambled_causal=4&num_scrambled_schematic=4&participantId=18ED08C9AB6B4551A1F04FB4F0D917E1&assignmentId=2fea9c6d-2ab1-41c3-b37b-e61d9a493a3a&projectId=051c06f1-75cc-4548-856d-4923ddaba0dc","18ED08C9AB6B4551A1F04FB4F0D917E1-2025-05-15-19-04-30","","null","","images/semantic_sequence/redecorating_semantic/redecorating_semantic_9.png","null","",""
"","","","","","image-button-response","114","605609","0.0-14.0-1.0-1.8","18ED08C9AB6B4551A1F04FB4F0D917E1","18ED08C9AB6B4551A1F04FB4F0D917E1","2fea9c6d-2ab1-41c3-b37b-e61d9a493a3a","051c06f1-75cc-4548-856d-4923ddaba0dc","{""num_scrambled_semantic"":""8"",""num_scrambled_causal"":""4"",""num_scrambled_schematic"":""4"",""participantId"":""18ED08C9AB6B4551A1F04FB4F0D917E1"",""assignmentId"":""2fea9c6d-2ab1-41c3-b37b-e61d9a493a3a"",""projectId"":""051c06f1-75cc-4548-856d-4923ddaba0dc""}","https://test12345.live/?num_scrambled_semantic=8&num_scrambled_causal=4&num_scrambled_schematic=4&participantId=18ED08C9AB6B4551A1F04FB4F0D917E1&assignmentId=2fea9c6d-2ab1-41c3-b37b-e61d9a493a3a&projectId=051c06f1-75cc-4548-856d-4923ddaba0dc","18ED08C9AB6B4551A1F04FB4F0D917E1-2025-05-15-19-04-30","","693","","images/semantic_sequence/redecorating_semantic/redecorating_semantic_9.png","0","",""
