"success","timeout","failed_images","failed_audio","failed_video","trial_type","trial_index","time_elapsed","internal_node_id","subject","subject_id","study_id","session_id","urlvar","current_url","audio_id","view_history","rt","device_id","stimulus","response","estimated_stimulus_onset","seq_name"
"true","false","[]","[]","[]","preload","0","4840","0.0-0.0","19EB7F1A9A254C79947F194398F94246","19EB7F1A9A254C79947F194398F94246","5e961dca-ba7d-46a8-b7e8-c08bb047e7cf","a0a8f18c-a66e-4ba7-a170-23efbdc67501","{""participantId"":""19EB7F1A9A254C79947F194398F94246"",""assignmentId"":""5e961dca-ba7d-46a8-b7e8-c08bb047e7cf"",""projectId"":""a0a8f18c-a66e-4ba7-a170-23efbdc67501""}","https://test12345.live/?participantId=19EB7F1A9A254C79947F194398F94246&assignmentId=5e961dca-ba7d-46a8-b7e8-c08bb047e7cf&projectId=a0a8f18c-a66e-4ba7-a170-23efbdc67501","19EB7F1A9A254C79947F194398F94246-2024-11-24-17-37-43","","","","","","",""
"","","","","","instructions","1","54875","0.0-1.0","19EB7F1A9A254C79947F194398F94246","19EB7F1A9A254C79947F194398F94246","5e961dca-ba7d-46a8-b7e8-c08bb047e7cf","a0a8f18c-a66e-4ba7-a170-23efbdc67501","{""participantId"":""19EB7F1A9A254C79947F194398F94246"",""assignmentId"":""5e961dca-ba7d-46a8-b7e8-c08bb047e7cf"",""projectId"":""a0a8f18c-a66e-4ba7-a170-23efbdc67501""}","https://test12345.live/?participantId=19EB7F1A9A254C79947F194398F94246&assignmentId=5e961dca-ba7d-46a8-b7e8-c08bb047e7cf&projectId=a0a8f18c-a66e-4ba7-a170-23efbdc67501","19EB7F1A9A254C79947F194398F94246-2024-11-24-17-37-43","[{""page_index"":0,""viewing_time"":50034}]","50034","","","","",""
"","","","","","instructions","2","57563","0.0-2.0","19EB7F1A9A254C79947F194398F94246","19EB7F1A9A254C79947F194398F94246","5e961dca-ba7d-46a8-b7e8-c08bb047e7cf","a0a8f18c-a66e-4ba7-a170-23efbdc67501","{""participantId"":""19EB7F1A9A254C79947F194398F94246"",""assignmentId"":""5e961dca-ba7d-46a8-b7e8-c08bb047e7cf"",""projectId"":""a0a8f18c-a66e-4ba7-a170-23efbdc67501""}","https://test12345.live/?participantId=19EB7F1A9A254C79947F194398F94246&assignmentId=5e961dca-ba7d-46a8-b7e8-c08bb047e7cf&projectId=a0a8f18c-a66e-4ba7-a170-23efbdc67501","19EB7F1A9A254C79947F194398F94246-2024-11-24-17-37-43","[{""page_index"":0,""viewing_time"":2688}]","2688","","","","",""
"true","","","","","fullscreen","3","59665","0.0-3.0","19EB7F1A9A254C79947F194398F94246","19EB7F1A9A254C79947F194398F94246","5e961dca-ba7d-46a8-b7e8-c08bb047e7cf","a0a8f18c-a66e-4ba7-a170-23efbdc67501","{""participantId"":""19EB7F1A9A254C79947F194398F94246"",""assignmentId"":""5e961dca-ba7d-46a8-b7e8-c08bb047e7cf"",""projectId"":""a0a8f18c-a66e-4ba7-a170-23efbdc67501""}","https://test12345.live/?participantId=19EB7F1A9A254C79947F194398F94246&assignmentId=5e961dca-ba7d-46a8-b7e8-c08bb047e7cf&projectId=a0a8f18c-a66e-4ba7-a170-23efbdc67501","19EB7F1A9A254C79947F194398F94246-2024-11-24-17-37-43","","1100","","","","",""
"","","","","","initialize-microphone","4","87259","0.0-4.0-0.0","19EB7F1A9A254C79947F194398F94246","19EB7F1A9A254C79947F194398F94246","5e961dca-ba7d-46a8-b7e8-c08bb047e7cf","a0a8f18c-a66e-4ba7-a170-23efbdc67501","{""participantId"":""19EB7F1A9A254C79947F194398F94246"",""assignmentId"":""5e961dca-ba7d-46a8-b7e8-c08bb047e7cf"",""projectId"":""a0a8f18c-a66e-4ba7-a170-23efbdc67501""}","https://test12345.live/?participantId=19EB7F1A9A254C79947F194398F94246&assignmentId=5e961dca-ba7d-46a8-b7e8-c08bb047e7cf&projectId=a0a8f18c-a66e-4ba7-a170-23efbdc67501","19EB7F1A9A254C79947F194398F94246-2024-11-24-17-37-43","","","4bae5a8439fb58b31140a5add3e00ecf40cf57776c8e1d6cf5d5444c0ab09ad0","","","",""
"","","","","","html-audio-response","5","103426","0.0-4.0-1.0","19EB7F1A9A254C79947F194398F94246","19EB7F1A9A254C79947F194398F94246","5e961dca-ba7d-46a8-b7e8-c08bb047e7cf","a0a8f18c-a66e-4ba7-a170-23efbdc67501","{""participantId"":""19EB7F1A9A254C79947F194398F94246"",""assignmentId"":""5e961dca-ba7d-46a8-b7e8-c08bb047e7cf"",""projectId"":""a0a8f18c-a66e-4ba7-a170-23efbdc67501""}","https://test12345.live/?participantId=19EB7F1A9A254C79947F194398F94246&assignmentId=5e961dca-ba7d-46a8-b7e8-c08bb047e7cf&projectId=a0a8f18c-a66e-4ba7-a170-23efbdc67501","19EB7F1A9A254C79947F194398F94246-2024-11-24-17-37-43","","5362","","<span style=""color: red; font-size: 24px""> NOW RECORDING</span>
        <p>Please test Microphone</p>","","1",""
"","","","","","html-button-response","6","105050","0.0-4.0-2.0","19EB7F1A9A254C79947F194398F94246","19EB7F1A9A254C79947F194398F94246","5e961dca-ba7d-46a8-b7e8-c08bb047e7cf","a0a8f18c-a66e-4ba7-a170-23efbdc67501","{""participantId"":""19EB7F1A9A254C79947F194398F94246"",""assignmentId"":""5e961dca-ba7d-46a8-b7e8-c08bb047e7cf"",""projectId"":""a0a8f18c-a66e-4ba7-a170-23efbdc67501""}","https://test12345.live/?participantId=19EB7F1A9A254C79947F194398F94246&assignmentId=5e961dca-ba7d-46a8-b7e8-c08bb047e7cf&projectId=a0a8f18c-a66e-4ba7-a170-23efbdc67501","19EB7F1A9A254C79947F194398F94246-2024-11-24-17-37-43","","1623","","<p style=""font-size:48px; color:red;"">Is Microphone OK?</p>","1","",""
"","","","","","instructions","7","112985","0.0-5.0","19EB7F1A9A254C79947F194398F94246","19EB7F1A9A254C79947F194398F94246","5e961dca-ba7d-46a8-b7e8-c08bb047e7cf","a0a8f18c-a66e-4ba7-a170-23efbdc67501","{""participantId"":""19EB7F1A9A254C79947F194398F94246"",""assignmentId"":""5e961dca-ba7d-46a8-b7e8-c08bb047e7cf"",""projectId"":""a0a8f18c-a66e-4ba7-a170-23efbdc67501""}","https://test12345.live/?participantId=19EB7F1A9A254C79947F194398F94246&assignmentId=5e961dca-ba7d-46a8-b7e8-c08bb047e7cf&projectId=a0a8f18c-a66e-4ba7-a170-23efbdc67501","19EB7F1A9A254C79947F194398F94246-2024-11-24-17-37-43","[{""page_index"":0,""viewing_time"":2602},{""page_index"":1,""viewing_time"":5331}]","7934","","","","",""
"","","","","","image-button-response","8","118989","0.0-6.0-0.0","19EB7F1A9A254C79947F194398F94246","19EB7F1A9A254C79947F194398F94246","5e961dca-ba7d-46a8-b7e8-c08bb047e7cf","a0a8f18c-a66e-4ba7-a170-23efbdc67501","{""participantId"":""19EB7F1A9A254C79947F194398F94246"",""assignmentId"":""5e961dca-ba7d-46a8-b7e8-c08bb047e7cf"",""projectId"":""a0a8f18c-a66e-4ba7-a170-23efbdc67501""}","https://test12345.live/?participantId=19EB7F1A9A254C79947F194398F94246&assignmentId=5e961dca-ba7d-46a8-b7e8-c08bb047e7cf&projectId=a0a8f18c-a66e-4ba7-a170-23efbdc67501","19EB7F1A9A254C79947F194398F94246-2024-11-24-17-37-43","","null","","images/instructions/movie_0.png","null","",""
"","","","","","image-button-response","9","123495","0.0-6.0-1.0-0.0","19EB7F1A9A254C79947F194398F94246","19EB7F1A9A254C79947F194398F94246","5e961dca-ba7d-46a8-b7e8-c08bb047e7cf","a0a8f18c-a66e-4ba7-a170-23efbdc67501","{""participantId"":""19EB7F1A9A254C79947F194398F94246"",""assignmentId"":""5e961dca-ba7d-46a8-b7e8-c08bb047e7cf"",""projectId"":""a0a8f18c-a66e-4ba7-a170-23efbdc67501""}","https://test12345.live/?participantId=19EB7F1A9A254C79947F194398F94246&assignmentId=5e961dca-ba7d-46a8-b7e8-c08bb047e7cf&projectId=a0a8f18c-a66e-4ba7-a170-23efbdc67501","19EB7F1A9A254C79947F194398F94246-2024-11-24-17-37-43","","null","","images/instructions/movie_1.png","null","",""
"","","","","","image-button-response","10","127287","0.0-6.0-1.0-1.0","19EB7F1A9A254C79947F194398F94246","19EB7F1A9A254C79947F194398F94246","5e961dca-ba7d-46a8-b7e8-c08bb047e7cf","a0a8f18c-a66e-4ba7-a170-23efbdc67501","{""participantId"":""19EB7F1A9A254C79947F194398F94246"",""assignmentId"":""5e961dca-ba7d-46a8-b7e8-c08bb047e7cf"",""projectId"":""a0a8f18c-a66e-4ba7-a170-23efbdc67501""}","https://test12345.live/?participantId=19EB7F1A9A254C79947F194398F94246&assignmentId=5e961dca-ba7d-46a8-b7e8-c08bb047e7cf&projectId=a0a8f18c-a66e-4ba7-a170-23efbdc67501","19EB7F1A9A254C79947F194398F94246-2024-11-24-17-37-43","","3791","","images/instructions/movie_1.png","0","",""
"","","","","","image-button-response","11","129093","0.0-6.0-1.0-2.0","19EB7F1A9A254C79947F194398F94246","19EB7F1A9A254C79947F194398F94246","5e961dca-ba7d-46a8-b7e8-c08bb047e7cf","a0a8f18c-a66e-4ba7-a170-23efbdc67501","{""participantId"":""19EB7F1A9A254C79947F194398F94246"",""assignmentId"":""5e961dca-ba7d-46a8-b7e8-c08bb047e7cf"",""projectId"":""a0a8f18c-a66e-4ba7-a170-23efbdc67501""}","https://test12345.live/?participantId=19EB7F1A9A254C79947F194398F94246&assignmentId=5e961dca-ba7d-46a8-b7e8-c08bb047e7cf&projectId=a0a8f18c-a66e-4ba7-a170-23efbdc67501","19EB7F1A9A254C79947F194398F94246-2024-11-24-17-37-43","","null","","[]","null","",""
"","","","","","image-button-response","12","133594","0.0-6.0-1.0-0.1","19EB7F1A9A254C79947F194398F94246","19EB7F1A9A254C79947F194398F94246","5e961dca-ba7d-46a8-b7e8-c08bb047e7cf","a0a8f18c-a66e-4ba7-a170-23efbdc67501","{""participantId"":""19EB7F1A9A254C79947F194398F94246"",""assignmentId"":""5e961dca-ba7d-46a8-b7e8-c08bb047e7cf"",""projectId"":""a0a8f18c-a66e-4ba7-a170-23efbdc67501""}","https://test12345.live/?participantId=19EB7F1A9A254C79947F194398F94246&assignmentId=5e961dca-ba7d-46a8-b7e8-c08bb047e7cf&projectId=a0a8f18c-a66e-4ba7-a170-23efbdc67501","19EB7F1A9A254C79947F194398F94246-2024-11-24-17-37-43","","null","","images/instructions/movie_2.png","null","",""
"","","","","","image-button-response","13","135550","0.0-6.0-1.0-1.1","19EB7F1A9A254C79947F194398F94246","19EB7F1A9A254C79947F194398F94246","5e961dca-ba7d-46a8-b7e8-c08bb047e7cf","a0a8f18c-a66e-4ba7-a170-23efbdc67501","{""participantId"":""19EB7F1A9A254C79947F194398F94246"",""assignmentId"":""5e961dca-ba7d-46a8-b7e8-c08bb047e7cf"",""projectId"":""a0a8f18c-a66e-4ba7-a170-23efbdc67501""}","https://test12345.live/?participantId=19EB7F1A9A254C79947F194398F94246&assignmentId=5e961dca-ba7d-46a8-b7e8-c08bb047e7cf&projectId=a0a8f18c-a66e-4ba7-a170-23efbdc67501","19EB7F1A9A254C79947F194398F94246-2024-11-24-17-37-43","","1956","","images/instructions/movie_2.png","0","",""
"","","","","","image-button-response","14","137355","0.0-6.0-1.0-2.1","19EB7F1A9A254C79947F194398F94246","19EB7F1A9A254C79947F194398F94246","5e961dca-ba7d-46a8-b7e8-c08bb047e7cf","a0a8f18c-a66e-4ba7-a170-23efbdc67501","{""participantId"":""19EB7F1A9A254C79947F194398F94246"",""assignmentId"":""5e961dca-ba7d-46a8-b7e8-c08bb047e7cf"",""projectId"":""a0a8f18c-a66e-4ba7-a170-23efbdc67501""}","https://test12345.live/?participantId=19EB7F1A9A254C79947F194398F94246&assignmentId=5e961dca-ba7d-46a8-b7e8-c08bb047e7cf&projectId=a0a8f18c-a66e-4ba7-a170-23efbdc67501","19EB7F1A9A254C79947F194398F94246-2024-11-24-17-37-43","","null","","[]","null","",""
"","","","","","image-button-response","15","141859","0.0-6.0-1.0-0.2","19EB7F1A9A254C79947F194398F94246","19EB7F1A9A254C79947F194398F94246","5e961dca-ba7d-46a8-b7e8-c08bb047e7cf","a0a8f18c-a66e-4ba7-a170-23efbdc67501","{""participantId"":""19EB7F1A9A254C79947F194398F94246"",""assignmentId"":""5e961dca-ba7d-46a8-b7e8-c08bb047e7cf"",""projectId"":""a0a8f18c-a66e-4ba7-a170-23efbdc67501""}","https://test12345.live/?participantId=19EB7F1A9A254C79947F194398F94246&assignmentId=5e961dca-ba7d-46a8-b7e8-c08bb047e7cf&projectId=a0a8f18c-a66e-4ba7-a170-23efbdc67501","19EB7F1A9A254C79947F194398F94246-2024-11-24-17-37-43","","null","","images/instructions/movie_3.png","null","",""
"","","","","","image-button-response","16","142972","0.0-6.0-1.0-1.2","19EB7F1A9A254C79947F194398F94246","19EB7F1A9A254C79947F194398F94246","5e961dca-ba7d-46a8-b7e8-c08bb047e7cf","a0a8f18c-a66e-4ba7-a170-23efbdc67501","{""participantId"":""19EB7F1A9A254C79947F194398F94246"",""assignmentId"":""5e961dca-ba7d-46a8-b7e8-c08bb047e7cf"",""projectId"":""a0a8f18c-a66e-4ba7-a170-23efbdc67501""}","https://test12345.live/?participantId=19EB7F1A9A254C79947F194398F94246&assignmentId=5e961dca-ba7d-46a8-b7e8-c08bb047e7cf&projectId=a0a8f18c-a66e-4ba7-a170-23efbdc67501","19EB7F1A9A254C79947F194398F94246-2024-11-24-17-37-43","","1113","","images/instructions/movie_3.png","0","",""
"","","","","","image-button-response","17","144778","0.0-6.0-1.0-2.2","19EB7F1A9A254C79947F194398F94246","19EB7F1A9A254C79947F194398F94246","5e961dca-ba7d-46a8-b7e8-c08bb047e7cf","a0a8f18c-a66e-4ba7-a170-23efbdc67501","{""participantId"":""19EB7F1A9A254C79947F194398F94246"",""assignmentId"":""5e961dca-ba7d-46a8-b7e8-c08bb047e7cf"",""projectId"":""a0a8f18c-a66e-4ba7-a170-23efbdc67501""}","https://test12345.live/?participantId=19EB7F1A9A254C79947F194398F94246&assignmentId=5e961dca-ba7d-46a8-b7e8-c08bb047e7cf&projectId=a0a8f18c-a66e-4ba7-a170-23efbdc67501","19EB7F1A9A254C79947F194398F94246-2024-11-24-17-37-43","","null","","[]","null","",""
"","","","","","image-button-response","18","149282","0.0-6.0-1.0-0.3","19EB7F1A9A254C79947F194398F94246","19EB7F1A9A254C79947F194398F94246","5e961dca-ba7d-46a8-b7e8-c08bb047e7cf","a0a8f18c-a66e-4ba7-a170-23efbdc67501","{""participantId"":""19EB7F1A9A254C79947F194398F94246"",""assignmentId"":""5e961dca-ba7d-46a8-b7e8-c08bb047e7cf"",""projectId"":""a0a8f18c-a66e-4ba7-a170-23efbdc67501""}","https://test12345.live/?participantId=19EB7F1A9A254C79947F194398F94246&assignmentId=5e961dca-ba7d-46a8-b7e8-c08bb047e7cf&projectId=a0a8f18c-a66e-4ba7-a170-23efbdc67501","19EB7F1A9A254C79947F194398F94246-2024-11-24-17-37-43","","null","","images/instructions/movie_4.png","null","",""
"","","","","","image-button-response","19","150539","0.0-6.0-1.0-1.3","19EB7F1A9A254C79947F194398F94246","19EB7F1A9A254C79947F194398F94246","5e961dca-ba7d-46a8-b7e8-c08bb047e7cf","a0a8f18c-a66e-4ba7-a170-23efbdc67501","{""participantId"":""19EB7F1A9A254C79947F194398F94246"",""assignmentId"":""5e961dca-ba7d-46a8-b7e8-c08bb047e7cf"",""projectId"":""a0a8f18c-a66e-4ba7-a170-23efbdc67501""}","https://test12345.live/?participantId=19EB7F1A9A254C79947F194398F94246&assignmentId=5e961dca-ba7d-46a8-b7e8-c08bb047e7cf&projectId=a0a8f18c-a66e-4ba7-a170-23efbdc67501","19EB7F1A9A254C79947F194398F94246-2024-11-24-17-37-43","","1255","","images/instructions/movie_4.png","0","",""
"","","","","","image-button-response","20","152345","0.0-6.0-1.0-2.3","19EB7F1A9A254C79947F194398F94246","19EB7F1A9A254C79947F194398F94246","5e961dca-ba7d-46a8-b7e8-c08bb047e7cf","a0a8f18c-a66e-4ba7-a170-23efbdc67501","{""participantId"":""19EB7F1A9A254C79947F194398F94246"",""assignmentId"":""5e961dca-ba7d-46a8-b7e8-c08bb047e7cf"",""projectId"":""a0a8f18c-a66e-4ba7-a170-23efbdc67501""}","https://test12345.live/?participantId=19EB7F1A9A254C79947F194398F94246&assignmentId=5e961dca-ba7d-46a8-b7e8-c08bb047e7cf&projectId=a0a8f18c-a66e-4ba7-a170-23efbdc67501","19EB7F1A9A254C79947F194398F94246-2024-11-24-17-37-43","","null","","[]","null","",""
"","","","","","instructions","21","157927","0.0-7.0","19EB7F1A9A254C79947F194398F94246","19EB7F1A9A254C79947F194398F94246","5e961dca-ba7d-46a8-b7e8-c08bb047e7cf","a0a8f18c-a66e-4ba7-a170-23efbdc67501","{""participantId"":""19EB7F1A9A254C79947F194398F94246"",""assignmentId"":""5e961dca-ba7d-46a8-b7e8-c08bb047e7cf"",""projectId"":""a0a8f18c-a66e-4ba7-a170-23efbdc67501""}","https://test12345.live/?participantId=19EB7F1A9A254C79947F194398F94246&assignmentId=5e961dca-ba7d-46a8-b7e8-c08bb047e7cf&projectId=a0a8f18c-a66e-4ba7-a170-23efbdc67501","19EB7F1A9A254C79947F194398F94246-2024-11-24-17-37-43","[{""page_index"":0,""viewing_time"":4764},{""page_index"":1,""viewing_time"":817}]","5581","","","","",""
"","","","","","html-audio-response","22","200250","0.0-8.0","19EB7F1A9A254C79947F194398F94246","19EB7F1A9A254C79947F194398F94246","5e961dca-ba7d-46a8-b7e8-c08bb047e7cf","a0a8f18c-a66e-4ba7-a170-23efbdc67501","{""participantId"":""19EB7F1A9A254C79947F194398F94246"",""assignmentId"":""5e961dca-ba7d-46a8-b7e8-c08bb047e7cf"",""projectId"":""a0a8f18c-a66e-4ba7-a170-23efbdc67501""}","https://test12345.live/?participantId=19EB7F1A9A254C79947F194398F94246&assignmentId=5e961dca-ba7d-46a8-b7e8-c08bb047e7cf&projectId=a0a8f18c-a66e-4ba7-a170-23efbdc67501","19EB7F1A9A254C79947F194398F94246-2024-11-24-17-37-43","","20691","","[""<span style=\""color: red; font-size: 24px\""> NOW RECORDING</span><p>Please say out loud all the images you saw, as many as you can remember. The images can be said in any order.</p>""]","","1",""
"","","","","","instructions","23","201446","0.0-9.0","19EB7F1A9A254C79947F194398F94246","19EB7F1A9A254C79947F194398F94246","5e961dca-ba7d-46a8-b7e8-c08bb047e7cf","a0a8f18c-a66e-4ba7-a170-23efbdc67501","{""participantId"":""19EB7F1A9A254C79947F194398F94246"",""assignmentId"":""5e961dca-ba7d-46a8-b7e8-c08bb047e7cf"",""projectId"":""a0a8f18c-a66e-4ba7-a170-23efbdc67501""}","https://test12345.live/?participantId=19EB7F1A9A254C79947F194398F94246&assignmentId=5e961dca-ba7d-46a8-b7e8-c08bb047e7cf&projectId=a0a8f18c-a66e-4ba7-a170-23efbdc67501","19EB7F1A9A254C79947F194398F94246-2024-11-24-17-37-43","[{""page_index"":0,""viewing_time"":1195}]","1195","","","","",""
"","","","","","image-button-response","24","207448","0.0-10.0-0.0","19EB7F1A9A254C79947F194398F94246","19EB7F1A9A254C79947F194398F94246","5e961dca-ba7d-46a8-b7e8-c08bb047e7cf","a0a8f18c-a66e-4ba7-a170-23efbdc67501","{""participantId"":""19EB7F1A9A254C79947F194398F94246"",""assignmentId"":""5e961dca-ba7d-46a8-b7e8-c08bb047e7cf"",""projectId"":""a0a8f18c-a66e-4ba7-a170-23efbdc67501""}","https://test12345.live/?participantId=19EB7F1A9A254C79947F194398F94246&assignmentId=5e961dca-ba7d-46a8-b7e8-c08bb047e7cf&projectId=a0a8f18c-a66e-4ba7-a170-23efbdc67501","19EB7F1A9A254C79947F194398F94246-2024-11-24-17-37-43","","null","","images/causal_sequence/saving_a_cat_causal/saving_a_cat_causal_0.png","null","",""
"","","","","","image-button-response","25","211952","0.0-10.0-1.0-0.0","19EB7F1A9A254C79947F194398F94246","19EB7F1A9A254C79947F194398F94246","5e961dca-ba7d-46a8-b7e8-c08bb047e7cf","a0a8f18c-a66e-4ba7-a170-23efbdc67501","{""participantId"":""19EB7F1A9A254C79947F194398F94246"",""assignmentId"":""5e961dca-ba7d-46a8-b7e8-c08bb047e7cf"",""projectId"":""a0a8f18c-a66e-4ba7-a170-23efbdc67501""}","https://test12345.live/?participantId=19EB7F1A9A254C79947F194398F94246&assignmentId=5e961dca-ba7d-46a8-b7e8-c08bb047e7cf&projectId=a0a8f18c-a66e-4ba7-a170-23efbdc67501","19EB7F1A9A254C79947F194398F94246-2024-11-24-17-37-43","","null","","images/causal_sequence/saving_a_cat_causal/saving_a_cat_causal_4.png","null","",""
"","","","","","image-button-response","26","213442","0.0-10.0-1.0-1.0","19EB7F1A9A254C79947F194398F94246","19EB7F1A9A254C79947F194398F94246","5e961dca-ba7d-46a8-b7e8-c08bb047e7cf","a0a8f18c-a66e-4ba7-a170-23efbdc67501","{""participantId"":""19EB7F1A9A254C79947F194398F94246"",""assignmentId"":""5e961dca-ba7d-46a8-b7e8-c08bb047e7cf"",""projectId"":""a0a8f18c-a66e-4ba7-a170-23efbdc67501""}","https://test12345.live/?participantId=19EB7F1A9A254C79947F194398F94246&assignmentId=5e961dca-ba7d-46a8-b7e8-c08bb047e7cf&projectId=a0a8f18c-a66e-4ba7-a170-23efbdc67501","19EB7F1A9A254C79947F194398F94246-2024-11-24-17-37-43","","1489","","images/causal_sequence/saving_a_cat_causal/saving_a_cat_causal_4.png","0","",""
"","","","","","image-button-response","27","215245","0.0-10.0-1.0-2.0","19EB7F1A9A254C79947F194398F94246","19EB7F1A9A254C79947F194398F94246","5e961dca-ba7d-46a8-b7e8-c08bb047e7cf","a0a8f18c-a66e-4ba7-a170-23efbdc67501","{""participantId"":""19EB7F1A9A254C79947F194398F94246"",""assignmentId"":""5e961dca-ba7d-46a8-b7e8-c08bb047e7cf"",""projectId"":""a0a8f18c-a66e-4ba7-a170-23efbdc67501""}","https://test12345.live/?participantId=19EB7F1A9A254C79947F194398F94246&assignmentId=5e961dca-ba7d-46a8-b7e8-c08bb047e7cf&projectId=a0a8f18c-a66e-4ba7-a170-23efbdc67501","19EB7F1A9A254C79947F194398F94246-2024-11-24-17-37-43","","null","","[]","null","",""
"","","","","","image-button-response","28","219750","0.0-10.0-1.0-0.1","19EB7F1A9A254C79947F194398F94246","19EB7F1A9A254C79947F194398F94246","5e961dca-ba7d-46a8-b7e8-c08bb047e7cf","a0a8f18c-a66e-4ba7-a170-23efbdc67501","{""participantId"":""19EB7F1A9A254C79947F194398F94246"",""assignmentId"":""5e961dca-ba7d-46a8-b7e8-c08bb047e7cf"",""projectId"":""a0a8f18c-a66e-4ba7-a170-23efbdc67501""}","https://test12345.live/?participantId=19EB7F1A9A254C79947F194398F94246&assignmentId=5e961dca-ba7d-46a8-b7e8-c08bb047e7cf&projectId=a0a8f18c-a66e-4ba7-a170-23efbdc67501","19EB7F1A9A254C79947F194398F94246-2024-11-24-17-37-43","","null","","images/causal_sequence/saving_a_cat_causal/saving_a_cat_causal_1.png","null","",""
"","","","","","image-button-response","29","221892","0.0-10.0-1.0-1.1","19EB7F1A9A254C79947F194398F94246","19EB7F1A9A254C79947F194398F94246","5e961dca-ba7d-46a8-b7e8-c08bb047e7cf","a0a8f18c-a66e-4ba7-a170-23efbdc67501","{""participantId"":""19EB7F1A9A254C79947F194398F94246"",""assignmentId"":""5e961dca-ba7d-46a8-b7e8-c08bb047e7cf"",""projectId"":""a0a8f18c-a66e-4ba7-a170-23efbdc67501""}","https://test12345.live/?participantId=19EB7F1A9A254C79947F194398F94246&assignmentId=5e961dca-ba7d-46a8-b7e8-c08bb047e7cf&projectId=a0a8f18c-a66e-4ba7-a170-23efbdc67501","19EB7F1A9A254C79947F194398F94246-2024-11-24-17-37-43","","2141","","images/causal_sequence/saving_a_cat_causal/saving_a_cat_causal_1.png","0","",""
"","","","","","image-button-response","30","223696","0.0-10.0-1.0-2.1","19EB7F1A9A254C79947F194398F94246","19EB7F1A9A254C79947F194398F94246","5e961dca-ba7d-46a8-b7e8-c08bb047e7cf","a0a8f18c-a66e-4ba7-a170-23efbdc67501","{""participantId"":""19EB7F1A9A254C79947F194398F94246"",""assignmentId"":""5e961dca-ba7d-46a8-b7e8-c08bb047e7cf"",""projectId"":""a0a8f18c-a66e-4ba7-a170-23efbdc67501""}","https://test12345.live/?participantId=19EB7F1A9A254C79947F194398F94246&assignmentId=5e961dca-ba7d-46a8-b7e8-c08bb047e7cf&projectId=a0a8f18c-a66e-4ba7-a170-23efbdc67501","19EB7F1A9A254C79947F194398F94246-2024-11-24-17-37-43","","null","","[]","null","",""
"","","","","","image-button-response","31","228202","0.0-10.0-1.0-0.2","19EB7F1A9A254C79947F194398F94246","19EB7F1A9A254C79947F194398F94246","5e961dca-ba7d-46a8-b7e8-c08bb047e7cf","a0a8f18c-a66e-4ba7-a170-23efbdc67501","{""participantId"":""19EB7F1A9A254C79947F194398F94246"",""assignmentId"":""5e961dca-ba7d-46a8-b7e8-c08bb047e7cf"",""projectId"":""a0a8f18c-a66e-4ba7-a170-23efbdc67501""}","https://test12345.live/?participantId=19EB7F1A9A254C79947F194398F94246&assignmentId=5e961dca-ba7d-46a8-b7e8-c08bb047e7cf&projectId=a0a8f18c-a66e-4ba7-a170-23efbdc67501","19EB7F1A9A254C79947F194398F94246-2024-11-24-17-37-43","","null","","images/causal_sequence/saving_a_cat_causal/saving_a_cat_causal_ten.png","null","",""
"","","","","","image-button-response","32","229142","0.0-10.0-1.0-1.2","19EB7F1A9A254C79947F194398F94246","19EB7F1A9A254C79947F194398F94246","5e961dca-ba7d-46a8-b7e8-c08bb047e7cf","a0a8f18c-a66e-4ba7-a170-23efbdc67501","{""participantId"":""19EB7F1A9A254C79947F194398F94246"",""assignmentId"":""5e961dca-ba7d-46a8-b7e8-c08bb047e7cf"",""projectId"":""a0a8f18c-a66e-4ba7-a170-23efbdc67501""}","https://test12345.live/?participantId=19EB7F1A9A254C79947F194398F94246&assignmentId=5e961dca-ba7d-46a8-b7e8-c08bb047e7cf&projectId=a0a8f18c-a66e-4ba7-a170-23efbdc67501","19EB7F1A9A254C79947F194398F94246-2024-11-24-17-37-43","","940","","images/causal_sequence/saving_a_cat_causal/saving_a_cat_causal_ten.png","0","",""
"","","","","","image-button-response","33","230947","0.0-10.0-1.0-2.2","19EB7F1A9A254C79947F194398F94246","19EB7F1A9A254C79947F194398F94246","5e961dca-ba7d-46a8-b7e8-c08bb047e7cf","a0a8f18c-a66e-4ba7-a170-23efbdc67501","{""participantId"":""19EB7F1A9A254C79947F194398F94246"",""assignmentId"":""5e961dca-ba7d-46a8-b7e8-c08bb047e7cf"",""projectId"":""a0a8f18c-a66e-4ba7-a170-23efbdc67501""}","https://test12345.live/?participantId=19EB7F1A9A254C79947F194398F94246&assignmentId=5e961dca-ba7d-46a8-b7e8-c08bb047e7cf&projectId=a0a8f18c-a66e-4ba7-a170-23efbdc67501","19EB7F1A9A254C79947F194398F94246-2024-11-24-17-37-43","","null","","[]","null","",""
"","","","","","image-button-response","34","235448","0.0-10.0-1.0-0.3","19EB7F1A9A254C79947F194398F94246","19EB7F1A9A254C79947F194398F94246","5e961dca-ba7d-46a8-b7e8-c08bb047e7cf","a0a8f18c-a66e-4ba7-a170-23efbdc67501","{""participantId"":""19EB7F1A9A254C79947F194398F94246"",""assignmentId"":""5e961dca-ba7d-46a8-b7e8-c08bb047e7cf"",""projectId"":""a0a8f18c-a66e-4ba7-a170-23efbdc67501""}","https://test12345.live/?participantId=19EB7F1A9A254C79947F194398F94246&assignmentId=5e961dca-ba7d-46a8-b7e8-c08bb047e7cf&projectId=a0a8f18c-a66e-4ba7-a170-23efbdc67501","19EB7F1A9A254C79947F194398F94246-2024-11-24-17-37-43","","null","","images/causal_sequence/saving_a_cat_causal/saving_a_cat_causal_6.png","null","",""
"","","","","","image-button-response","35","236482","0.0-10.0-1.0-1.3","19EB7F1A9A254C79947F194398F94246","19EB7F1A9A254C79947F194398F94246","5e961dca-ba7d-46a8-b7e8-c08bb047e7cf","a0a8f18c-a66e-4ba7-a170-23efbdc67501","{""participantId"":""19EB7F1A9A254C79947F194398F94246"",""assignmentId"":""5e961dca-ba7d-46a8-b7e8-c08bb047e7cf"",""projectId"":""a0a8f18c-a66e-4ba7-a170-23efbdc67501""}","https://test12345.live/?participantId=19EB7F1A9A254C79947F194398F94246&assignmentId=5e961dca-ba7d-46a8-b7e8-c08bb047e7cf&projectId=a0a8f18c-a66e-4ba7-a170-23efbdc67501","19EB7F1A9A254C79947F194398F94246-2024-11-24-17-37-43","","1033","","images/causal_sequence/saving_a_cat_causal/saving_a_cat_causal_6.png","0","",""
"","","","","","image-button-response","36","238289","0.0-10.0-1.0-2.3","19EB7F1A9A254C79947F194398F94246","19EB7F1A9A254C79947F194398F94246","5e961dca-ba7d-46a8-b7e8-c08bb047e7cf","a0a8f18c-a66e-4ba7-a170-23efbdc67501","{""participantId"":""19EB7F1A9A254C79947F194398F94246"",""assignmentId"":""5e961dca-ba7d-46a8-b7e8-c08bb047e7cf"",""projectId"":""a0a8f18c-a66e-4ba7-a170-23efbdc67501""}","https://test12345.live/?participantId=19EB7F1A9A254C79947F194398F94246&assignmentId=5e961dca-ba7d-46a8-b7e8-c08bb047e7cf&projectId=a0a8f18c-a66e-4ba7-a170-23efbdc67501","19EB7F1A9A254C79947F194398F94246-2024-11-24-17-37-43","","null","","[]","null","",""
"","","","","","image-button-response","37","242795","0.0-10.0-1.0-0.4","19EB7F1A9A254C79947F194398F94246","19EB7F1A9A254C79947F194398F94246","5e961dca-ba7d-46a8-b7e8-c08bb047e7cf","a0a8f18c-a66e-4ba7-a170-23efbdc67501","{""participantId"":""19EB7F1A9A254C79947F194398F94246"",""assignmentId"":""5e961dca-ba7d-46a8-b7e8-c08bb047e7cf"",""projectId"":""a0a8f18c-a66e-4ba7-a170-23efbdc67501""}","https://test12345.live/?participantId=19EB7F1A9A254C79947F194398F94246&assignmentId=5e961dca-ba7d-46a8-b7e8-c08bb047e7cf&projectId=a0a8f18c-a66e-4ba7-a170-23efbdc67501","19EB7F1A9A254C79947F194398F94246-2024-11-24-17-37-43","","null","","images/causal_sequence/saving_a_cat_causal/saving_a_cat_causal_3.png","null","",""
"","","","","","image-button-response","38","243493","0.0-10.0-1.0-1.4","19EB7F1A9A254C79947F194398F94246","19EB7F1A9A254C79947F194398F94246","5e961dca-ba7d-46a8-b7e8-c08bb047e7cf","a0a8f18c-a66e-4ba7-a170-23efbdc67501","{""participantId"":""19EB7F1A9A254C79947F194398F94246"",""assignmentId"":""5e961dca-ba7d-46a8-b7e8-c08bb047e7cf"",""projectId"":""a0a8f18c-a66e-4ba7-a170-23efbdc67501""}","https://test12345.live/?participantId=19EB7F1A9A254C79947F194398F94246&assignmentId=5e961dca-ba7d-46a8-b7e8-c08bb047e7cf&projectId=a0a8f18c-a66e-4ba7-a170-23efbdc67501","19EB7F1A9A254C79947F194398F94246-2024-11-24-17-37-43","","697","","images/causal_sequence/saving_a_cat_causal/saving_a_cat_causal_3.png","0","",""
"","","","","","image-button-response","39","245299","0.0-10.0-1.0-2.4","19EB7F1A9A254C79947F194398F94246","19EB7F1A9A254C79947F194398F94246","5e961dca-ba7d-46a8-b7e8-c08bb047e7cf","a0a8f18c-a66e-4ba7-a170-23efbdc67501","{""participantId"":""19EB7F1A9A254C79947F194398F94246"",""assignmentId"":""5e961dca-ba7d-46a8-b7e8-c08bb047e7cf"",""projectId"":""a0a8f18c-a66e-4ba7-a170-23efbdc67501""}","https://test12345.live/?participantId=19EB7F1A9A254C79947F194398F94246&assignmentId=5e961dca-ba7d-46a8-b7e8-c08bb047e7cf&projectId=a0a8f18c-a66e-4ba7-a170-23efbdc67501","19EB7F1A9A254C79947F194398F94246-2024-11-24-17-37-43","","null","","[]","null","",""
"","","","","","image-button-response","40","249801","0.0-10.0-1.0-0.5","19EB7F1A9A254C79947F194398F94246","19EB7F1A9A254C79947F194398F94246","5e961dca-ba7d-46a8-b7e8-c08bb047e7cf","a0a8f18c-a66e-4ba7-a170-23efbdc67501","{""participantId"":""19EB7F1A9A254C79947F194398F94246"",""assignmentId"":""5e961dca-ba7d-46a8-b7e8-c08bb047e7cf"",""projectId"":""a0a8f18c-a66e-4ba7-a170-23efbdc67501""}","https://test12345.live/?participantId=19EB7F1A9A254C79947F194398F94246&assignmentId=5e961dca-ba7d-46a8-b7e8-c08bb047e7cf&projectId=a0a8f18c-a66e-4ba7-a170-23efbdc67501","19EB7F1A9A254C79947F194398F94246-2024-11-24-17-37-43","","null","","images/causal_sequence/saving_a_cat_causal/saving_a_cat_causal_2.png","null","",""
"","","","","","image-button-response","41","250837","0.0-10.0-1.0-1.5","19EB7F1A9A254C79947F194398F94246","19EB7F1A9A254C79947F194398F94246","5e961dca-ba7d-46a8-b7e8-c08bb047e7cf","a0a8f18c-a66e-4ba7-a170-23efbdc67501","{""participantId"":""19EB7F1A9A254C79947F194398F94246"",""assignmentId"":""5e961dca-ba7d-46a8-b7e8-c08bb047e7cf"",""projectId"":""a0a8f18c-a66e-4ba7-a170-23efbdc67501""}","https://test12345.live/?participantId=19EB7F1A9A254C79947F194398F94246&assignmentId=5e961dca-ba7d-46a8-b7e8-c08bb047e7cf&projectId=a0a8f18c-a66e-4ba7-a170-23efbdc67501","19EB7F1A9A254C79947F194398F94246-2024-11-24-17-37-43","","1035","","images/causal_sequence/saving_a_cat_causal/saving_a_cat_causal_2.png","1","",""
"","","","","","image-button-response","42","252641","0.0-10.0-1.0-2.5","19EB7F1A9A254C79947F194398F94246","19EB7F1A9A254C79947F194398F94246","5e961dca-ba7d-46a8-b7e8-c08bb047e7cf","a0a8f18c-a66e-4ba7-a170-23efbdc67501","{""participantId"":""19EB7F1A9A254C79947F194398F94246"",""assignmentId"":""5e961dca-ba7d-46a8-b7e8-c08bb047e7cf"",""projectId"":""a0a8f18c-a66e-4ba7-a170-23efbdc67501""}","https://test12345.live/?participantId=19EB7F1A9A254C79947F194398F94246&assignmentId=5e961dca-ba7d-46a8-b7e8-c08bb047e7cf&projectId=a0a8f18c-a66e-4ba7-a170-23efbdc67501","19EB7F1A9A254C79947F194398F94246-2024-11-24-17-37-43","","null","","[]","null","",""
"","","","","","image-button-response","43","257143","0.0-10.0-1.0-0.6","19EB7F1A9A254C79947F194398F94246","19EB7F1A9A254C79947F194398F94246","5e961dca-ba7d-46a8-b7e8-c08bb047e7cf","a0a8f18c-a66e-4ba7-a170-23efbdc67501","{""participantId"":""19EB7F1A9A254C79947F194398F94246"",""assignmentId"":""5e961dca-ba7d-46a8-b7e8-c08bb047e7cf"",""projectId"":""a0a8f18c-a66e-4ba7-a170-23efbdc67501""}","https://test12345.live/?participantId=19EB7F1A9A254C79947F194398F94246&assignmentId=5e961dca-ba7d-46a8-b7e8-c08bb047e7cf&projectId=a0a8f18c-a66e-4ba7-a170-23efbdc67501","19EB7F1A9A254C79947F194398F94246-2024-11-24-17-37-43","","null","","images/causal_sequence/saving_a_cat_causal/saving_a_cat_causal_5.png","null","",""
"","","","","","image-button-response","44","258571","0.0-10.0-1.0-1.6","19EB7F1A9A254C79947F194398F94246","19EB7F1A9A254C79947F194398F94246","5e961dca-ba7d-46a8-b7e8-c08bb047e7cf","a0a8f18c-a66e-4ba7-a170-23efbdc67501","{""participantId"":""19EB7F1A9A254C79947F194398F94246"",""assignmentId"":""5e961dca-ba7d-46a8-b7e8-c08bb047e7cf"",""projectId"":""a0a8f18c-a66e-4ba7-a170-23efbdc67501""}","https://test12345.live/?participantId=19EB7F1A9A254C79947F194398F94246&assignmentId=5e961dca-ba7d-46a8-b7e8-c08bb047e7cf&projectId=a0a8f18c-a66e-4ba7-a170-23efbdc67501","19EB7F1A9A254C79947F194398F94246-2024-11-24-17-37-43","","1428","","images/causal_sequence/saving_a_cat_causal/saving_a_cat_causal_5.png","0","",""
"","","","","","image-button-response","45","260373","0.0-10.0-1.0-2.6","19EB7F1A9A254C79947F194398F94246","19EB7F1A9A254C79947F194398F94246","5e961dca-ba7d-46a8-b7e8-c08bb047e7cf","a0a8f18c-a66e-4ba7-a170-23efbdc67501","{""participantId"":""19EB7F1A9A254C79947F194398F94246"",""assignmentId"":""5e961dca-ba7d-46a8-b7e8-c08bb047e7cf"",""projectId"":""a0a8f18c-a66e-4ba7-a170-23efbdc67501""}","https://test12345.live/?participantId=19EB7F1A9A254C79947F194398F94246&assignmentId=5e961dca-ba7d-46a8-b7e8-c08bb047e7cf&projectId=a0a8f18c-a66e-4ba7-a170-23efbdc67501","19EB7F1A9A254C79947F194398F94246-2024-11-24-17-37-43","","null","","[]","null","",""
"","","","","","image-button-response","46","264878","0.0-10.0-1.0-0.7","19EB7F1A9A254C79947F194398F94246","19EB7F1A9A254C79947F194398F94246","5e961dca-ba7d-46a8-b7e8-c08bb047e7cf","a0a8f18c-a66e-4ba7-a170-23efbdc67501","{""participantId"":""19EB7F1A9A254C79947F194398F94246"",""assignmentId"":""5e961dca-ba7d-46a8-b7e8-c08bb047e7cf"",""projectId"":""a0a8f18c-a66e-4ba7-a170-23efbdc67501""}","https://test12345.live/?participantId=19EB7F1A9A254C79947F194398F94246&assignmentId=5e961dca-ba7d-46a8-b7e8-c08bb047e7cf&projectId=a0a8f18c-a66e-4ba7-a170-23efbdc67501","19EB7F1A9A254C79947F194398F94246-2024-11-24-17-37-43","","null","","images/causal_sequence/saving_a_cat_causal/saving_a_cat_causal_8.png","null","",""
"","","","","","image-button-response","47","265492","0.0-10.0-1.0-1.7","19EB7F1A9A254C79947F194398F94246","19EB7F1A9A254C79947F194398F94246","5e961dca-ba7d-46a8-b7e8-c08bb047e7cf","a0a8f18c-a66e-4ba7-a170-23efbdc67501","{""participantId"":""19EB7F1A9A254C79947F194398F94246"",""assignmentId"":""5e961dca-ba7d-46a8-b7e8-c08bb047e7cf"",""projectId"":""a0a8f18c-a66e-4ba7-a170-23efbdc67501""}","https://test12345.live/?participantId=19EB7F1A9A254C79947F194398F94246&assignmentId=5e961dca-ba7d-46a8-b7e8-c08bb047e7cf&projectId=a0a8f18c-a66e-4ba7-a170-23efbdc67501","19EB7F1A9A254C79947F194398F94246-2024-11-24-17-37-43","","614","","images/causal_sequence/saving_a_cat_causal/saving_a_cat_causal_8.png","0","",""
"","","","","","image-button-response","48","267296","0.0-10.0-1.0-2.7","19EB7F1A9A254C79947F194398F94246","19EB7F1A9A254C79947F194398F94246","5e961dca-ba7d-46a8-b7e8-c08bb047e7cf","a0a8f18c-a66e-4ba7-a170-23efbdc67501","{""participantId"":""19EB7F1A9A254C79947F194398F94246"",""assignmentId"":""5e961dca-ba7d-46a8-b7e8-c08bb047e7cf"",""projectId"":""a0a8f18c-a66e-4ba7-a170-23efbdc67501""}","https://test12345.live/?participantId=19EB7F1A9A254C79947F194398F94246&assignmentId=5e961dca-ba7d-46a8-b7e8-c08bb047e7cf&projectId=a0a8f18c-a66e-4ba7-a170-23efbdc67501","19EB7F1A9A254C79947F194398F94246-2024-11-24-17-37-43","","null","","[]","null","",""
"","","","","","image-button-response","49","271800","0.0-10.0-1.0-0.8","19EB7F1A9A254C79947F194398F94246","19EB7F1A9A254C79947F194398F94246","5e961dca-ba7d-46a8-b7e8-c08bb047e7cf","a0a8f18c-a66e-4ba7-a170-23efbdc67501","{""participantId"":""19EB7F1A9A254C79947F194398F94246"",""assignmentId"":""5e961dca-ba7d-46a8-b7e8-c08bb047e7cf"",""projectId"":""a0a8f18c-a66e-4ba7-a170-23efbdc67501""}","https://test12345.live/?participantId=19EB7F1A9A254C79947F194398F94246&assignmentId=5e961dca-ba7d-46a8-b7e8-c08bb047e7cf&projectId=a0a8f18c-a66e-4ba7-a170-23efbdc67501","19EB7F1A9A254C79947F194398F94246-2024-11-24-17-37-43","","null","","images/causal_sequence/saving_a_cat_causal/saving_a_cat_causal_7.png","null","",""
"","","","","","image-button-response","50","272744","0.0-10.0-1.0-1.8","19EB7F1A9A254C79947F194398F94246","19EB7F1A9A254C79947F194398F94246","5e961dca-ba7d-46a8-b7e8-c08bb047e7cf","a0a8f18c-a66e-4ba7-a170-23efbdc67501","{""participantId"":""19EB7F1A9A254C79947F194398F94246"",""assignmentId"":""5e961dca-ba7d-46a8-b7e8-c08bb047e7cf"",""projectId"":""a0a8f18c-a66e-4ba7-a170-23efbdc67501""}","https://test12345.live/?participantId=19EB7F1A9A254C79947F194398F94246&assignmentId=5e961dca-ba7d-46a8-b7e8-c08bb047e7cf&projectId=a0a8f18c-a66e-4ba7-a170-23efbdc67501","19EB7F1A9A254C79947F194398F94246-2024-11-24-17-37-43","","943","","images/causal_sequence/saving_a_cat_causal/saving_a_cat_causal_7.png","0","",""
"","","","","","image-button-response","51","274550","0.0-10.0-1.0-2.8","19EB7F1A9A254C79947F194398F94246","19EB7F1A9A254C79947F194398F94246","5e961dca-ba7d-46a8-b7e8-c08bb047e7cf","a0a8f18c-a66e-4ba7-a170-23efbdc67501","{""participantId"":""19EB7F1A9A254C79947F194398F94246"",""assignmentId"":""5e961dca-ba7d-46a8-b7e8-c08bb047e7cf"",""projectId"":""a0a8f18c-a66e-4ba7-a170-23efbdc67501""}","https://test12345.live/?participantId=19EB7F1A9A254C79947F194398F94246&assignmentId=5e961dca-ba7d-46a8-b7e8-c08bb047e7cf&projectId=a0a8f18c-a66e-4ba7-a170-23efbdc67501","19EB7F1A9A254C79947F194398F94246-2024-11-24-17-37-43","","null","","[]","null","",""
"","","","","","image-button-response","52","279055","0.0-10.0-1.0-0.9","19EB7F1A9A254C79947F194398F94246","19EB7F1A9A254C79947F194398F94246","5e961dca-ba7d-46a8-b7e8-c08bb047e7cf","a0a8f18c-a66e-4ba7-a170-23efbdc67501","{""participantId"":""19EB7F1A9A254C79947F194398F94246"",""assignmentId"":""5e961dca-ba7d-46a8-b7e8-c08bb047e7cf"",""projectId"":""a0a8f18c-a66e-4ba7-a170-23efbdc67501""}","https://test12345.live/?participantId=19EB7F1A9A254C79947F194398F94246&assignmentId=5e961dca-ba7d-46a8-b7e8-c08bb047e7cf&projectId=a0a8f18c-a66e-4ba7-a170-23efbdc67501","19EB7F1A9A254C79947F194398F94246-2024-11-24-17-37-43","","null","","images/causal_sequence/saving_a_cat_causal/saving_a_cat_causal_9.png","null","",""
"","","","","","image-button-response","53","279848","0.0-10.0-1.0-1.9","19EB7F1A9A254C79947F194398F94246","19EB7F1A9A254C79947F194398F94246","5e961dca-ba7d-46a8-b7e8-c08bb047e7cf","a0a8f18c-a66e-4ba7-a170-23efbdc67501","{""participantId"":""19EB7F1A9A254C79947F194398F94246"",""assignmentId"":""5e961dca-ba7d-46a8-b7e8-c08bb047e7cf"",""projectId"":""a0a8f18c-a66e-4ba7-a170-23efbdc67501""}","https://test12345.live/?participantId=19EB7F1A9A254C79947F194398F94246&assignmentId=5e961dca-ba7d-46a8-b7e8-c08bb047e7cf&projectId=a0a8f18c-a66e-4ba7-a170-23efbdc67501","19EB7F1A9A254C79947F194398F94246-2024-11-24-17-37-43","","791","","images/causal_sequence/saving_a_cat_causal/saving_a_cat_causal_9.png","0","",""
"","","","","","image-button-response","54","281649","0.0-10.0-1.0-2.9","19EB7F1A9A254C79947F194398F94246","19EB7F1A9A254C79947F194398F94246","5e961dca-ba7d-46a8-b7e8-c08bb047e7cf","a0a8f18c-a66e-4ba7-a170-23efbdc67501","{""participantId"":""19EB7F1A9A254C79947F194398F94246"",""assignmentId"":""5e961dca-ba7d-46a8-b7e8-c08bb047e7cf"",""projectId"":""a0a8f18c-a66e-4ba7-a170-23efbdc67501""}","https://test12345.live/?participantId=19EB7F1A9A254C79947F194398F94246&assignmentId=5e961dca-ba7d-46a8-b7e8-c08bb047e7cf&projectId=a0a8f18c-a66e-4ba7-a170-23efbdc67501","19EB7F1A9A254C79947F194398F94246-2024-11-24-17-37-43","","null","","[]","null","",""
"","","","","","html-audio-response","55","336066","0.0-11.0","19EB7F1A9A254C79947F194398F94246","19EB7F1A9A254C79947F194398F94246","5e961dca-ba7d-46a8-b7e8-c08bb047e7cf","a0a8f18c-a66e-4ba7-a170-23efbdc67501","{""participantId"":""19EB7F1A9A254C79947F194398F94246"",""assignmentId"":""5e961dca-ba7d-46a8-b7e8-c08bb047e7cf"",""projectId"":""a0a8f18c-a66e-4ba7-a170-23efbdc67501""}","https://test12345.live/?participantId=19EB7F1A9A254C79947F194398F94246&assignmentId=5e961dca-ba7d-46a8-b7e8-c08bb047e7cf&projectId=a0a8f18c-a66e-4ba7-a170-23efbdc67501","19EB7F1A9A254C79947F194398F94246-2024-11-24-17-37-43","","46253","","[""<span style=\""color: red; font-size: 24px\""> NOW RECORDING</span><p>Please say out loud all the images you saw, as many as you can remember. The images can be said in any order.</p>""]","","1","saving_a_cat_causal"
"","","","","","image-button-response","56","342074","0.0-12.0-0.0","19EB7F1A9A254C79947F194398F94246","19EB7F1A9A254C79947F194398F94246","5e961dca-ba7d-46a8-b7e8-c08bb047e7cf","a0a8f18c-a66e-4ba7-a170-23efbdc67501","{""participantId"":""19EB7F1A9A254C79947F194398F94246"",""assignmentId"":""5e961dca-ba7d-46a8-b7e8-c08bb047e7cf"",""projectId"":""a0a8f18c-a66e-4ba7-a170-23efbdc67501""}","https://test12345.live/?participantId=19EB7F1A9A254C79947F194398F94246&assignmentId=5e961dca-ba7d-46a8-b7e8-c08bb047e7cf&projectId=a0a8f18c-a66e-4ba7-a170-23efbdc67501","19EB7F1A9A254C79947F194398F94246-2024-11-24-17-37-43","","null","","images/causal_sequence/dog_causal/dog_causal_0.png","null","",""
"","","","","","image-button-response","57","346576","0.0-12.0-1.0-0.0","19EB7F1A9A254C79947F194398F94246","19EB7F1A9A254C79947F194398F94246","5e961dca-ba7d-46a8-b7e8-c08bb047e7cf","a0a8f18c-a66e-4ba7-a170-23efbdc67501","{""participantId"":""19EB7F1A9A254C79947F194398F94246"",""assignmentId"":""5e961dca-ba7d-46a8-b7e8-c08bb047e7cf"",""projectId"":""a0a8f18c-a66e-4ba7-a170-23efbdc67501""}","https://test12345.live/?participantId=19EB7F1A9A254C79947F194398F94246&assignmentId=5e961dca-ba7d-46a8-b7e8-c08bb047e7cf&projectId=a0a8f18c-a66e-4ba7-a170-23efbdc67501","19EB7F1A9A254C79947F194398F94246-2024-11-24-17-37-43","","null","","images/causal_sequence/dog_causal/dog_causal_1.png","null","",""
"","","","","","image-button-response","58","348443","0.0-12.0-1.0-1.0","19EB7F1A9A254C79947F194398F94246","19EB7F1A9A254C79947F194398F94246","5e961dca-ba7d-46a8-b7e8-c08bb047e7cf","a0a8f18c-a66e-4ba7-a170-23efbdc67501","{""participantId"":""19EB7F1A9A254C79947F194398F94246"",""assignmentId"":""5e961dca-ba7d-46a8-b7e8-c08bb047e7cf"",""projectId"":""a0a8f18c-a66e-4ba7-a170-23efbdc67501""}","https://test12345.live/?participantId=19EB7F1A9A254C79947F194398F94246&assignmentId=5e961dca-ba7d-46a8-b7e8-c08bb047e7cf&projectId=a0a8f18c-a66e-4ba7-a170-23efbdc67501","19EB7F1A9A254C79947F194398F94246-2024-11-24-17-37-43","","1867","","images/causal_sequence/dog_causal/dog_causal_1.png","0","",""
"","","","","","image-button-response","59","350245","0.0-12.0-1.0-2.0","19EB7F1A9A254C79947F194398F94246","19EB7F1A9A254C79947F194398F94246","5e961dca-ba7d-46a8-b7e8-c08bb047e7cf","a0a8f18c-a66e-4ba7-a170-23efbdc67501","{""participantId"":""19EB7F1A9A254C79947F194398F94246"",""assignmentId"":""5e961dca-ba7d-46a8-b7e8-c08bb047e7cf"",""projectId"":""a0a8f18c-a66e-4ba7-a170-23efbdc67501""}","https://test12345.live/?participantId=19EB7F1A9A254C79947F194398F94246&assignmentId=5e961dca-ba7d-46a8-b7e8-c08bb047e7cf&projectId=a0a8f18c-a66e-4ba7-a170-23efbdc67501","19EB7F1A9A254C79947F194398F94246-2024-11-24-17-37-43","","null","","[]","null","",""
"","","","","","image-button-response","60","354753","0.0-12.0-1.0-0.1","19EB7F1A9A254C79947F194398F94246","19EB7F1A9A254C79947F194398F94246","5e961dca-ba7d-46a8-b7e8-c08bb047e7cf","a0a8f18c-a66e-4ba7-a170-23efbdc67501","{""participantId"":""19EB7F1A9A254C79947F194398F94246"",""assignmentId"":""5e961dca-ba7d-46a8-b7e8-c08bb047e7cf"",""projectId"":""a0a8f18c-a66e-4ba7-a170-23efbdc67501""}","https://test12345.live/?participantId=19EB7F1A9A254C79947F194398F94246&assignmentId=5e961dca-ba7d-46a8-b7e8-c08bb047e7cf&projectId=a0a8f18c-a66e-4ba7-a170-23efbdc67501","19EB7F1A9A254C79947F194398F94246-2024-11-24-17-37-43","","null","","images/causal_sequence/dog_causal/dog_causal_2.png","null","",""
"","","","","","image-button-response","61","356029","0.0-12.0-1.0-1.1","19EB7F1A9A254C79947F194398F94246","19EB7F1A9A254C79947F194398F94246","5e961dca-ba7d-46a8-b7e8-c08bb047e7cf","a0a8f18c-a66e-4ba7-a170-23efbdc67501","{""participantId"":""19EB7F1A9A254C79947F194398F94246"",""assignmentId"":""5e961dca-ba7d-46a8-b7e8-c08bb047e7cf"",""projectId"":""a0a8f18c-a66e-4ba7-a170-23efbdc67501""}","https://test12345.live/?participantId=19EB7F1A9A254C79947F194398F94246&assignmentId=5e961dca-ba7d-46a8-b7e8-c08bb047e7cf&projectId=a0a8f18c-a66e-4ba7-a170-23efbdc67501","19EB7F1A9A254C79947F194398F94246-2024-11-24-17-37-43","","1276","","images/causal_sequence/dog_causal/dog_causal_2.png","0","",""
"","","","","","image-button-response","62","357836","0.0-12.0-1.0-2.1","19EB7F1A9A254C79947F194398F94246","19EB7F1A9A254C79947F194398F94246","5e961dca-ba7d-46a8-b7e8-c08bb047e7cf","a0a8f18c-a66e-4ba7-a170-23efbdc67501","{""participantId"":""19EB7F1A9A254C79947F194398F94246"",""assignmentId"":""5e961dca-ba7d-46a8-b7e8-c08bb047e7cf"",""projectId"":""a0a8f18c-a66e-4ba7-a170-23efbdc67501""}","https://test12345.live/?participantId=19EB7F1A9A254C79947F194398F94246&assignmentId=5e961dca-ba7d-46a8-b7e8-c08bb047e7cf&projectId=a0a8f18c-a66e-4ba7-a170-23efbdc67501","19EB7F1A9A254C79947F194398F94246-2024-11-24-17-37-43","","null","","[]","null","",""
"","","","","","image-button-response","63","362338","0.0-12.0-1.0-0.2","19EB7F1A9A254C79947F194398F94246","19EB7F1A9A254C79947F194398F94246","5e961dca-ba7d-46a8-b7e8-c08bb047e7cf","a0a8f18c-a66e-4ba7-a170-23efbdc67501","{""participantId"":""19EB7F1A9A254C79947F194398F94246"",""assignmentId"":""5e961dca-ba7d-46a8-b7e8-c08bb047e7cf"",""projectId"":""a0a8f18c-a66e-4ba7-a170-23efbdc67501""}","https://test12345.live/?participantId=19EB7F1A9A254C79947F194398F94246&assignmentId=5e961dca-ba7d-46a8-b7e8-c08bb047e7cf&projectId=a0a8f18c-a66e-4ba7-a170-23efbdc67501","19EB7F1A9A254C79947F194398F94246-2024-11-24-17-37-43","","null","","images/causal_sequence/dog_causal/dog_causal_3.png","null","",""
"","","","","","image-button-response","64","363358","0.0-12.0-1.0-1.2","19EB7F1A9A254C79947F194398F94246","19EB7F1A9A254C79947F194398F94246","5e961dca-ba7d-46a8-b7e8-c08bb047e7cf","a0a8f18c-a66e-4ba7-a170-23efbdc67501","{""participantId"":""19EB7F1A9A254C79947F194398F94246"",""assignmentId"":""5e961dca-ba7d-46a8-b7e8-c08bb047e7cf"",""projectId"":""a0a8f18c-a66e-4ba7-a170-23efbdc67501""}","https://test12345.live/?participantId=19EB7F1A9A254C79947F194398F94246&assignmentId=5e961dca-ba7d-46a8-b7e8-c08bb047e7cf&projectId=a0a8f18c-a66e-4ba7-a170-23efbdc67501","19EB7F1A9A254C79947F194398F94246-2024-11-24-17-37-43","","1020","","images/causal_sequence/dog_causal/dog_causal_3.png","0","",""
"","","","","","image-button-response","65","365163","0.0-12.0-1.0-2.2","19EB7F1A9A254C79947F194398F94246","19EB7F1A9A254C79947F194398F94246","5e961dca-ba7d-46a8-b7e8-c08bb047e7cf","a0a8f18c-a66e-4ba7-a170-23efbdc67501","{""participantId"":""19EB7F1A9A254C79947F194398F94246"",""assignmentId"":""5e961dca-ba7d-46a8-b7e8-c08bb047e7cf"",""projectId"":""a0a8f18c-a66e-4ba7-a170-23efbdc67501""}","https://test12345.live/?participantId=19EB7F1A9A254C79947F194398F94246&assignmentId=5e961dca-ba7d-46a8-b7e8-c08bb047e7cf&projectId=a0a8f18c-a66e-4ba7-a170-23efbdc67501","19EB7F1A9A254C79947F194398F94246-2024-11-24-17-37-43","","null","","[]","null","",""
"","","","","","image-button-response","66","369667","0.0-12.0-1.0-0.3","19EB7F1A9A254C79947F194398F94246","19EB7F1A9A254C79947F194398F94246","5e961dca-ba7d-46a8-b7e8-c08bb047e7cf","a0a8f18c-a66e-4ba7-a170-23efbdc67501","{""participantId"":""19EB7F1A9A254C79947F194398F94246"",""assignmentId"":""5e961dca-ba7d-46a8-b7e8-c08bb047e7cf"",""projectId"":""a0a8f18c-a66e-4ba7-a170-23efbdc67501""}","https://test12345.live/?participantId=19EB7F1A9A254C79947F194398F94246&assignmentId=5e961dca-ba7d-46a8-b7e8-c08bb047e7cf&projectId=a0a8f18c-a66e-4ba7-a170-23efbdc67501","19EB7F1A9A254C79947F194398F94246-2024-11-24-17-37-43","","null","","images/causal_sequence/dog_causal/dog_causal_4.png","null","",""
"","","","","","image-button-response","67","371307","0.0-12.0-1.0-1.3","19EB7F1A9A254C79947F194398F94246","19EB7F1A9A254C79947F194398F94246","5e961dca-ba7d-46a8-b7e8-c08bb047e7cf","a0a8f18c-a66e-4ba7-a170-23efbdc67501","{""participantId"":""19EB7F1A9A254C79947F194398F94246"",""assignmentId"":""5e961dca-ba7d-46a8-b7e8-c08bb047e7cf"",""projectId"":""a0a8f18c-a66e-4ba7-a170-23efbdc67501""}","https://test12345.live/?participantId=19EB7F1A9A254C79947F194398F94246&assignmentId=5e961dca-ba7d-46a8-b7e8-c08bb047e7cf&projectId=a0a8f18c-a66e-4ba7-a170-23efbdc67501","19EB7F1A9A254C79947F194398F94246-2024-11-24-17-37-43","","1639","","images/causal_sequence/dog_causal/dog_causal_4.png","0","",""
"","","","","","image-button-response","68","373110","0.0-12.0-1.0-2.3","19EB7F1A9A254C79947F194398F94246","19EB7F1A9A254C79947F194398F94246","5e961dca-ba7d-46a8-b7e8-c08bb047e7cf","a0a8f18c-a66e-4ba7-a170-23efbdc67501","{""participantId"":""19EB7F1A9A254C79947F194398F94246"",""assignmentId"":""5e961dca-ba7d-46a8-b7e8-c08bb047e7cf"",""projectId"":""a0a8f18c-a66e-4ba7-a170-23efbdc67501""}","https://test12345.live/?participantId=19EB7F1A9A254C79947F194398F94246&assignmentId=5e961dca-ba7d-46a8-b7e8-c08bb047e7cf&projectId=a0a8f18c-a66e-4ba7-a170-23efbdc67501","19EB7F1A9A254C79947F194398F94246-2024-11-24-17-37-43","","null","","[]","null","",""
"","","","","","image-button-response","69","377615","0.0-12.0-1.0-0.4","19EB7F1A9A254C79947F194398F94246","19EB7F1A9A254C79947F194398F94246","5e961dca-ba7d-46a8-b7e8-c08bb047e7cf","a0a8f18c-a66e-4ba7-a170-23efbdc67501","{""participantId"":""19EB7F1A9A254C79947F194398F94246"",""assignmentId"":""5e961dca-ba7d-46a8-b7e8-c08bb047e7cf"",""projectId"":""a0a8f18c-a66e-4ba7-a170-23efbdc67501""}","https://test12345.live/?participantId=19EB7F1A9A254C79947F194398F94246&assignmentId=5e961dca-ba7d-46a8-b7e8-c08bb047e7cf&projectId=a0a8f18c-a66e-4ba7-a170-23efbdc67501","19EB7F1A9A254C79947F194398F94246-2024-11-24-17-37-43","","null","","images/causal_sequence/dog_causal/dog_causal_5.png","null","",""
"","","","","","image-button-response","70","379379","0.0-12.0-1.0-1.4","19EB7F1A9A254C79947F194398F94246","19EB7F1A9A254C79947F194398F94246","5e961dca-ba7d-46a8-b7e8-c08bb047e7cf","a0a8f18c-a66e-4ba7-a170-23efbdc67501","{""participantId"":""19EB7F1A9A254C79947F194398F94246"",""assignmentId"":""5e961dca-ba7d-46a8-b7e8-c08bb047e7cf"",""projectId"":""a0a8f18c-a66e-4ba7-a170-23efbdc67501""}","https://test12345.live/?participantId=19EB7F1A9A254C79947F194398F94246&assignmentId=5e961dca-ba7d-46a8-b7e8-c08bb047e7cf&projectId=a0a8f18c-a66e-4ba7-a170-23efbdc67501","19EB7F1A9A254C79947F194398F94246-2024-11-24-17-37-43","","1764","","images/causal_sequence/dog_causal/dog_causal_5.png","0","",""
"","","","","","image-button-response","71","381182","0.0-12.0-1.0-2.4","19EB7F1A9A254C79947F194398F94246","19EB7F1A9A254C79947F194398F94246","5e961dca-ba7d-46a8-b7e8-c08bb047e7cf","a0a8f18c-a66e-4ba7-a170-23efbdc67501","{""participantId"":""19EB7F1A9A254C79947F194398F94246"",""assignmentId"":""5e961dca-ba7d-46a8-b7e8-c08bb047e7cf"",""projectId"":""a0a8f18c-a66e-4ba7-a170-23efbdc67501""}","https://test12345.live/?participantId=19EB7F1A9A254C79947F194398F94246&assignmentId=5e961dca-ba7d-46a8-b7e8-c08bb047e7cf&projectId=a0a8f18c-a66e-4ba7-a170-23efbdc67501","19EB7F1A9A254C79947F194398F94246-2024-11-24-17-37-43","","null","","[]","null","",""
"","","","","","image-button-response","72","385688","0.0-12.0-1.0-0.5","19EB7F1A9A254C79947F194398F94246","19EB7F1A9A254C79947F194398F94246","5e961dca-ba7d-46a8-b7e8-c08bb047e7cf","a0a8f18c-a66e-4ba7-a170-23efbdc67501","{""participantId"":""19EB7F1A9A254C79947F194398F94246"",""assignmentId"":""5e961dca-ba7d-46a8-b7e8-c08bb047e7cf"",""projectId"":""a0a8f18c-a66e-4ba7-a170-23efbdc67501""}","https://test12345.live/?participantId=19EB7F1A9A254C79947F194398F94246&assignmentId=5e961dca-ba7d-46a8-b7e8-c08bb047e7cf&projectId=a0a8f18c-a66e-4ba7-a170-23efbdc67501","19EB7F1A9A254C79947F194398F94246-2024-11-24-17-37-43","","null","","images/causal_sequence/dog_causal/dog_causal_6.png","null","",""
"","","","","","image-button-response","73","386960","0.0-12.0-1.0-1.5","19EB7F1A9A254C79947F194398F94246","19EB7F1A9A254C79947F194398F94246","5e961dca-ba7d-46a8-b7e8-c08bb047e7cf","a0a8f18c-a66e-4ba7-a170-23efbdc67501","{""participantId"":""19EB7F1A9A254C79947F194398F94246"",""assignmentId"":""5e961dca-ba7d-46a8-b7e8-c08bb047e7cf"",""projectId"":""a0a8f18c-a66e-4ba7-a170-23efbdc67501""}","https://test12345.live/?participantId=19EB7F1A9A254C79947F194398F94246&assignmentId=5e961dca-ba7d-46a8-b7e8-c08bb047e7cf&projectId=a0a8f18c-a66e-4ba7-a170-23efbdc67501","19EB7F1A9A254C79947F194398F94246-2024-11-24-17-37-43","","1271","","images/causal_sequence/dog_causal/dog_causal_6.png","0","",""
"","","","","","image-button-response","74","388760","0.0-12.0-1.0-2.5","19EB7F1A9A254C79947F194398F94246","19EB7F1A9A254C79947F194398F94246","5e961dca-ba7d-46a8-b7e8-c08bb047e7cf","a0a8f18c-a66e-4ba7-a170-23efbdc67501","{""participantId"":""19EB7F1A9A254C79947F194398F94246"",""assignmentId"":""5e961dca-ba7d-46a8-b7e8-c08bb047e7cf"",""projectId"":""a0a8f18c-a66e-4ba7-a170-23efbdc67501""}","https://test12345.live/?participantId=19EB7F1A9A254C79947F194398F94246&assignmentId=5e961dca-ba7d-46a8-b7e8-c08bb047e7cf&projectId=a0a8f18c-a66e-4ba7-a170-23efbdc67501","19EB7F1A9A254C79947F194398F94246-2024-11-24-17-37-43","","null","","[]","null","",""
"","","","","","image-button-response","75","393263","0.0-12.0-1.0-0.6","19EB7F1A9A254C79947F194398F94246","19EB7F1A9A254C79947F194398F94246","5e961dca-ba7d-46a8-b7e8-c08bb047e7cf","a0a8f18c-a66e-4ba7-a170-23efbdc67501","{""participantId"":""19EB7F1A9A254C79947F194398F94246"",""assignmentId"":""5e961dca-ba7d-46a8-b7e8-c08bb047e7cf"",""projectId"":""a0a8f18c-a66e-4ba7-a170-23efbdc67501""}","https://test12345.live/?participantId=19EB7F1A9A254C79947F194398F94246&assignmentId=5e961dca-ba7d-46a8-b7e8-c08bb047e7cf&projectId=a0a8f18c-a66e-4ba7-a170-23efbdc67501","19EB7F1A9A254C79947F194398F94246-2024-11-24-17-37-43","","null","","images/causal_sequence/dog_causal/dog_causal_7.png","null","",""
"","","","","","image-button-response","76","394139","0.0-12.0-1.0-1.6","19EB7F1A9A254C79947F194398F94246","19EB7F1A9A254C79947F194398F94246","5e961dca-ba7d-46a8-b7e8-c08bb047e7cf","a0a8f18c-a66e-4ba7-a170-23efbdc67501","{""participantId"":""19EB7F1A9A254C79947F194398F94246"",""assignmentId"":""5e961dca-ba7d-46a8-b7e8-c08bb047e7cf"",""projectId"":""a0a8f18c-a66e-4ba7-a170-23efbdc67501""}","https://test12345.live/?participantId=19EB7F1A9A254C79947F194398F94246&assignmentId=5e961dca-ba7d-46a8-b7e8-c08bb047e7cf&projectId=a0a8f18c-a66e-4ba7-a170-23efbdc67501","19EB7F1A9A254C79947F194398F94246-2024-11-24-17-37-43","","875","","images/causal_sequence/dog_causal/dog_causal_7.png","0","",""
"","","","","","image-button-response","77","395943","0.0-12.0-1.0-2.6","19EB7F1A9A254C79947F194398F94246","19EB7F1A9A254C79947F194398F94246","5e961dca-ba7d-46a8-b7e8-c08bb047e7cf","a0a8f18c-a66e-4ba7-a170-23efbdc67501","{""participantId"":""19EB7F1A9A254C79947F194398F94246"",""assignmentId"":""5e961dca-ba7d-46a8-b7e8-c08bb047e7cf"",""projectId"":""a0a8f18c-a66e-4ba7-a170-23efbdc67501""}","https://test12345.live/?participantId=19EB7F1A9A254C79947F194398F94246&assignmentId=5e961dca-ba7d-46a8-b7e8-c08bb047e7cf&projectId=a0a8f18c-a66e-4ba7-a170-23efbdc67501","19EB7F1A9A254C79947F194398F94246-2024-11-24-17-37-43","","null","","[]","null","",""
"","","","","","image-button-response","78","400445","0.0-12.0-1.0-0.7","19EB7F1A9A254C79947F194398F94246","19EB7F1A9A254C79947F194398F94246","5e961dca-ba7d-46a8-b7e8-c08bb047e7cf","a0a8f18c-a66e-4ba7-a170-23efbdc67501","{""participantId"":""19EB7F1A9A254C79947F194398F94246"",""assignmentId"":""5e961dca-ba7d-46a8-b7e8-c08bb047e7cf"",""projectId"":""a0a8f18c-a66e-4ba7-a170-23efbdc67501""}","https://test12345.live/?participantId=19EB7F1A9A254C79947F194398F94246&assignmentId=5e961dca-ba7d-46a8-b7e8-c08bb047e7cf&projectId=a0a8f18c-a66e-4ba7-a170-23efbdc67501","19EB7F1A9A254C79947F194398F94246-2024-11-24-17-37-43","","null","","images/causal_sequence/dog_causal/dog_causal_8.png","null","",""
"","","","","","image-button-response","79","401175","0.0-12.0-1.0-1.7","19EB7F1A9A254C79947F194398F94246","19EB7F1A9A254C79947F194398F94246","5e961dca-ba7d-46a8-b7e8-c08bb047e7cf","a0a8f18c-a66e-4ba7-a170-23efbdc67501","{""participantId"":""19EB7F1A9A254C79947F194398F94246"",""assignmentId"":""5e961dca-ba7d-46a8-b7e8-c08bb047e7cf"",""projectId"":""a0a8f18c-a66e-4ba7-a170-23efbdc67501""}","https://test12345.live/?participantId=19EB7F1A9A254C79947F194398F94246&assignmentId=5e961dca-ba7d-46a8-b7e8-c08bb047e7cf&projectId=a0a8f18c-a66e-4ba7-a170-23efbdc67501","19EB7F1A9A254C79947F194398F94246-2024-11-24-17-37-43","","729","","images/causal_sequence/dog_causal/dog_causal_8.png","0","",""
"","","","","","image-button-response","80","402979","0.0-12.0-1.0-2.7","19EB7F1A9A254C79947F194398F94246","19EB7F1A9A254C79947F194398F94246","5e961dca-ba7d-46a8-b7e8-c08bb047e7cf","a0a8f18c-a66e-4ba7-a170-23efbdc67501","{""participantId"":""19EB7F1A9A254C79947F194398F94246"",""assignmentId"":""5e961dca-ba7d-46a8-b7e8-c08bb047e7cf"",""projectId"":""a0a8f18c-a66e-4ba7-a170-23efbdc67501""}","https://test12345.live/?participantId=19EB7F1A9A254C79947F194398F94246&assignmentId=5e961dca-ba7d-46a8-b7e8-c08bb047e7cf&projectId=a0a8f18c-a66e-4ba7-a170-23efbdc67501","19EB7F1A9A254C79947F194398F94246-2024-11-24-17-37-43","","null","","[]","null","",""
"","","","","","image-button-response","81","407481","0.0-12.0-1.0-0.8","19EB7F1A9A254C79947F194398F94246","19EB7F1A9A254C79947F194398F94246","5e961dca-ba7d-46a8-b7e8-c08bb047e7cf","a0a8f18c-a66e-4ba7-a170-23efbdc67501","{""participantId"":""19EB7F1A9A254C79947F194398F94246"",""assignmentId"":""5e961dca-ba7d-46a8-b7e8-c08bb047e7cf"",""projectId"":""a0a8f18c-a66e-4ba7-a170-23efbdc67501""}","https://test12345.live/?participantId=19EB7F1A9A254C79947F194398F94246&assignmentId=5e961dca-ba7d-46a8-b7e8-c08bb047e7cf&projectId=a0a8f18c-a66e-4ba7-a170-23efbdc67501","19EB7F1A9A254C79947F194398F94246-2024-11-24-17-37-43","","null","","images/causal_sequence/dog_causal/dog_causal_9.png","null","",""
"","","","","","image-button-response","82","408311","0.0-12.0-1.0-1.8","19EB7F1A9A254C79947F194398F94246","19EB7F1A9A254C79947F194398F94246","5e961dca-ba7d-46a8-b7e8-c08bb047e7cf","a0a8f18c-a66e-4ba7-a170-23efbdc67501","{""participantId"":""19EB7F1A9A254C79947F194398F94246"",""assignmentId"":""5e961dca-ba7d-46a8-b7e8-c08bb047e7cf"",""projectId"":""a0a8f18c-a66e-4ba7-a170-23efbdc67501""}","https://test12345.live/?participantId=19EB7F1A9A254C79947F194398F94246&assignmentId=5e961dca-ba7d-46a8-b7e8-c08bb047e7cf&projectId=a0a8f18c-a66e-4ba7-a170-23efbdc67501","19EB7F1A9A254C79947F194398F94246-2024-11-24-17-37-43","","828","","images/causal_sequence/dog_causal/dog_causal_9.png","0","",""
"","","","","","image-button-response","83","410115","0.0-12.0-1.0-2.8","19EB7F1A9A254C79947F194398F94246","19EB7F1A9A254C79947F194398F94246","5e961dca-ba7d-46a8-b7e8-c08bb047e7cf","a0a8f18c-a66e-4ba7-a170-23efbdc67501","{""participantId"":""19EB7F1A9A254C79947F194398F94246"",""assignmentId"":""5e961dca-ba7d-46a8-b7e8-c08bb047e7cf"",""projectId"":""a0a8f18c-a66e-4ba7-a170-23efbdc67501""}","https://test12345.live/?participantId=19EB7F1A9A254C79947F194398F94246&assignmentId=5e961dca-ba7d-46a8-b7e8-c08bb047e7cf&projectId=a0a8f18c-a66e-4ba7-a170-23efbdc67501","19EB7F1A9A254C79947F194398F94246-2024-11-24-17-37-43","","null","","[]","null","",""
"","","","","","image-button-response","84","414618","0.0-12.0-1.0-0.9","19EB7F1A9A254C79947F194398F94246","19EB7F1A9A254C79947F194398F94246","5e961dca-ba7d-46a8-b7e8-c08bb047e7cf","a0a8f18c-a66e-4ba7-a170-23efbdc67501","{""participantId"":""19EB7F1A9A254C79947F194398F94246"",""assignmentId"":""5e961dca-ba7d-46a8-b7e8-c08bb047e7cf"",""projectId"":""a0a8f18c-a66e-4ba7-a170-23efbdc67501""}","https://test12345.live/?participantId=19EB7F1A9A254C79947F194398F94246&assignmentId=5e961dca-ba7d-46a8-b7e8-c08bb047e7cf&projectId=a0a8f18c-a66e-4ba7-a170-23efbdc67501","19EB7F1A9A254C79947F194398F94246-2024-11-24-17-37-43","","null","","images/causal_sequence/dog_causal/dog_causal_ten.png","null","",""
"","","","","","image-button-response","85","415853","0.0-12.0-1.0-1.9","19EB7F1A9A254C79947F194398F94246","19EB7F1A9A254C79947F194398F94246","5e961dca-ba7d-46a8-b7e8-c08bb047e7cf","a0a8f18c-a66e-4ba7-a170-23efbdc67501","{""participantId"":""19EB7F1A9A254C79947F194398F94246"",""assignmentId"":""5e961dca-ba7d-46a8-b7e8-c08bb047e7cf"",""projectId"":""a0a8f18c-a66e-4ba7-a170-23efbdc67501""}","https://test12345.live/?participantId=19EB7F1A9A254C79947F194398F94246&assignmentId=5e961dca-ba7d-46a8-b7e8-c08bb047e7cf&projectId=a0a8f18c-a66e-4ba7-a170-23efbdc67501","19EB7F1A9A254C79947F194398F94246-2024-11-24-17-37-43","","1234","","images/causal_sequence/dog_causal/dog_causal_ten.png","0","",""
"","","","","","image-button-response","86","417655","0.0-12.0-1.0-2.9","19EB7F1A9A254C79947F194398F94246","19EB7F1A9A254C79947F194398F94246","5e961dca-ba7d-46a8-b7e8-c08bb047e7cf","a0a8f18c-a66e-4ba7-a170-23efbdc67501","{""participantId"":""19EB7F1A9A254C79947F194398F94246"",""assignmentId"":""5e961dca-ba7d-46a8-b7e8-c08bb047e7cf"",""projectId"":""a0a8f18c-a66e-4ba7-a170-23efbdc67501""}","https://test12345.live/?participantId=19EB7F1A9A254C79947F194398F94246&assignmentId=5e961dca-ba7d-46a8-b7e8-c08bb047e7cf&projectId=a0a8f18c-a66e-4ba7-a170-23efbdc67501","19EB7F1A9A254C79947F194398F94246-2024-11-24-17-37-43","","null","","[]","null","",""
"","","","","","html-audio-response","87","464875","0.0-13.0","19EB7F1A9A254C79947F194398F94246","19EB7F1A9A254C79947F194398F94246","5e961dca-ba7d-46a8-b7e8-c08bb047e7cf","a0a8f18c-a66e-4ba7-a170-23efbdc67501","{""participantId"":""19EB7F1A9A254C79947F194398F94246"",""assignmentId"":""5e961dca-ba7d-46a8-b7e8-c08bb047e7cf"",""projectId"":""a0a8f18c-a66e-4ba7-a170-23efbdc67501""}","https://test12345.live/?participantId=19EB7F1A9A254C79947F194398F94246&assignmentId=5e961dca-ba7d-46a8-b7e8-c08bb047e7cf&projectId=a0a8f18c-a66e-4ba7-a170-23efbdc67501","19EB7F1A9A254C79947F194398F94246-2024-11-24-17-37-43","","35455","","[""<span style=\""color: red; font-size: 24px\""> NOW RECORDING</span><p>Please say out loud all the images you saw, as many as you can remember. The images can be said in any order.</p>""]","","1","dog_causal"
"","","","","","image-button-response","88","470882","0.0-14.0-0.0","19EB7F1A9A254C79947F194398F94246","19EB7F1A9A254C79947F194398F94246","5e961dca-ba7d-46a8-b7e8-c08bb047e7cf","a0a8f18c-a66e-4ba7-a170-23efbdc67501","{""participantId"":""19EB7F1A9A254C79947F194398F94246"",""assignmentId"":""5e961dca-ba7d-46a8-b7e8-c08bb047e7cf"",""projectId"":""a0a8f18c-a66e-4ba7-a170-23efbdc67501""}","https://test12345.live/?participantId=19EB7F1A9A254C79947F194398F94246&assignmentId=5e961dca-ba7d-46a8-b7e8-c08bb047e7cf&projectId=a0a8f18c-a66e-4ba7-a170-23efbdc67501","19EB7F1A9A254C79947F194398F94246-2024-11-24-17-37-43","","null","","images/semantic_sequence/physical_activity_semantic/physical_activity_semantic_0.png","null","",""
"","","","","","image-button-response","89","475386","0.0-14.0-1.0-0.0","19EB7F1A9A254C79947F194398F94246","19EB7F1A9A254C79947F194398F94246","5e961dca-ba7d-46a8-b7e8-c08bb047e7cf","a0a8f18c-a66e-4ba7-a170-23efbdc67501","{""participantId"":""19EB7F1A9A254C79947F194398F94246"",""assignmentId"":""5e961dca-ba7d-46a8-b7e8-c08bb047e7cf"",""projectId"":""a0a8f18c-a66e-4ba7-a170-23efbdc67501""}","https://test12345.live/?participantId=19EB7F1A9A254C79947F194398F94246&assignmentId=5e961dca-ba7d-46a8-b7e8-c08bb047e7cf&projectId=a0a8f18c-a66e-4ba7-a170-23efbdc67501","19EB7F1A9A254C79947F194398F94246-2024-11-24-17-37-43","","null","","images/semantic_sequence/physical_activity_semantic/physical_activity_semantic_1.png","null","",""
"","","","","","image-button-response","90","477016","0.0-14.0-1.0-1.0","19EB7F1A9A254C79947F194398F94246","19EB7F1A9A254C79947F194398F94246","5e961dca-ba7d-46a8-b7e8-c08bb047e7cf","a0a8f18c-a66e-4ba7-a170-23efbdc67501","{""participantId"":""19EB7F1A9A254C79947F194398F94246"",""assignmentId"":""5e961dca-ba7d-46a8-b7e8-c08bb047e7cf"",""projectId"":""a0a8f18c-a66e-4ba7-a170-23efbdc67501""}","https://test12345.live/?participantId=19EB7F1A9A254C79947F194398F94246&assignmentId=5e961dca-ba7d-46a8-b7e8-c08bb047e7cf&projectId=a0a8f18c-a66e-4ba7-a170-23efbdc67501","19EB7F1A9A254C79947F194398F94246-2024-11-24-17-37-43","","1628","","images/semantic_sequence/physical_activity_semantic/physical_activity_semantic_1.png","0","",""
"","","","","","image-button-response","91","478818","0.0-14.0-1.0-2.0","19EB7F1A9A254C79947F194398F94246","19EB7F1A9A254C79947F194398F94246","5e961dca-ba7d-46a8-b7e8-c08bb047e7cf","a0a8f18c-a66e-4ba7-a170-23efbdc67501","{""participantId"":""19EB7F1A9A254C79947F194398F94246"",""assignmentId"":""5e961dca-ba7d-46a8-b7e8-c08bb047e7cf"",""projectId"":""a0a8f18c-a66e-4ba7-a170-23efbdc67501""}","https://test12345.live/?participantId=19EB7F1A9A254C79947F194398F94246&assignmentId=5e961dca-ba7d-46a8-b7e8-c08bb047e7cf&projectId=a0a8f18c-a66e-4ba7-a170-23efbdc67501","19EB7F1A9A254C79947F194398F94246-2024-11-24-17-37-43","","null","","[]","null","",""
"","","","","","image-button-response","92","483321","0.0-14.0-1.0-0.1","19EB7F1A9A254C79947F194398F94246","19EB7F1A9A254C79947F194398F94246","5e961dca-ba7d-46a8-b7e8-c08bb047e7cf","a0a8f18c-a66e-4ba7-a170-23efbdc67501","{""participantId"":""19EB7F1A9A254C79947F194398F94246"",""assignmentId"":""5e961dca-ba7d-46a8-b7e8-c08bb047e7cf"",""projectId"":""a0a8f18c-a66e-4ba7-a170-23efbdc67501""}","https://test12345.live/?participantId=19EB7F1A9A254C79947F194398F94246&assignmentId=5e961dca-ba7d-46a8-b7e8-c08bb047e7cf&projectId=a0a8f18c-a66e-4ba7-a170-23efbdc67501","19EB7F1A9A254C79947F194398F94246-2024-11-24-17-37-43","","null","","images/semantic_sequence/physical_activity_semantic/physical_activity_semantic_2.png","null","",""
"","","","","","image-button-response","93","484523","0.0-14.0-1.0-1.1","19EB7F1A9A254C79947F194398F94246","19EB7F1A9A254C79947F194398F94246","5e961dca-ba7d-46a8-b7e8-c08bb047e7cf","a0a8f18c-a66e-4ba7-a170-23efbdc67501","{""participantId"":""19EB7F1A9A254C79947F194398F94246"",""assignmentId"":""5e961dca-ba7d-46a8-b7e8-c08bb047e7cf"",""projectId"":""a0a8f18c-a66e-4ba7-a170-23efbdc67501""}","https://test12345.live/?participantId=19EB7F1A9A254C79947F194398F94246&assignmentId=5e961dca-ba7d-46a8-b7e8-c08bb047e7cf&projectId=a0a8f18c-a66e-4ba7-a170-23efbdc67501","19EB7F1A9A254C79947F194398F94246-2024-11-24-17-37-43","","1201","","images/semantic_sequence/physical_activity_semantic/physical_activity_semantic_2.png","0","",""
"","","","","","image-button-response","94","486325","0.0-14.0-1.0-2.1","19EB7F1A9A254C79947F194398F94246","19EB7F1A9A254C79947F194398F94246","5e961dca-ba7d-46a8-b7e8-c08bb047e7cf","a0a8f18c-a66e-4ba7-a170-23efbdc67501","{""participantId"":""19EB7F1A9A254C79947F194398F94246"",""assignmentId"":""5e961dca-ba7d-46a8-b7e8-c08bb047e7cf"",""projectId"":""a0a8f18c-a66e-4ba7-a170-23efbdc67501""}","https://test12345.live/?participantId=19EB7F1A9A254C79947F194398F94246&assignmentId=5e961dca-ba7d-46a8-b7e8-c08bb047e7cf&projectId=a0a8f18c-a66e-4ba7-a170-23efbdc67501","19EB7F1A9A254C79947F194398F94246-2024-11-24-17-37-43","","null","","[]","null","",""
"","","","","","image-button-response","95","490826","0.0-14.0-1.0-0.2","19EB7F1A9A254C79947F194398F94246","19EB7F1A9A254C79947F194398F94246","5e961dca-ba7d-46a8-b7e8-c08bb047e7cf","a0a8f18c-a66e-4ba7-a170-23efbdc67501","{""participantId"":""19EB7F1A9A254C79947F194398F94246"",""assignmentId"":""5e961dca-ba7d-46a8-b7e8-c08bb047e7cf"",""projectId"":""a0a8f18c-a66e-4ba7-a170-23efbdc67501""}","https://test12345.live/?participantId=19EB7F1A9A254C79947F194398F94246&assignmentId=5e961dca-ba7d-46a8-b7e8-c08bb047e7cf&projectId=a0a8f18c-a66e-4ba7-a170-23efbdc67501","19EB7F1A9A254C79947F194398F94246-2024-11-24-17-37-43","","null","","images/semantic_sequence/physical_activity_semantic/physical_activity_semantic_3.png","null","",""
"","","","","","image-button-response","96","491812","0.0-14.0-1.0-1.2","19EB7F1A9A254C79947F194398F94246","19EB7F1A9A254C79947F194398F94246","5e961dca-ba7d-46a8-b7e8-c08bb047e7cf","a0a8f18c-a66e-4ba7-a170-23efbdc67501","{""participantId"":""19EB7F1A9A254C79947F194398F94246"",""assignmentId"":""5e961dca-ba7d-46a8-b7e8-c08bb047e7cf"",""projectId"":""a0a8f18c-a66e-4ba7-a170-23efbdc67501""}","https://test12345.live/?participantId=19EB7F1A9A254C79947F194398F94246&assignmentId=5e961dca-ba7d-46a8-b7e8-c08bb047e7cf&projectId=a0a8f18c-a66e-4ba7-a170-23efbdc67501","19EB7F1A9A254C79947F194398F94246-2024-11-24-17-37-43","","985","","images/semantic_sequence/physical_activity_semantic/physical_activity_semantic_3.png","0","",""
"","","","","","image-button-response","97","493614","0.0-14.0-1.0-2.2","19EB7F1A9A254C79947F194398F94246","19EB7F1A9A254C79947F194398F94246","5e961dca-ba7d-46a8-b7e8-c08bb047e7cf","a0a8f18c-a66e-4ba7-a170-23efbdc67501","{""participantId"":""19EB7F1A9A254C79947F194398F94246"",""assignmentId"":""5e961dca-ba7d-46a8-b7e8-c08bb047e7cf"",""projectId"":""a0a8f18c-a66e-4ba7-a170-23efbdc67501""}","https://test12345.live/?participantId=19EB7F1A9A254C79947F194398F94246&assignmentId=5e961dca-ba7d-46a8-b7e8-c08bb047e7cf&projectId=a0a8f18c-a66e-4ba7-a170-23efbdc67501","19EB7F1A9A254C79947F194398F94246-2024-11-24-17-37-43","","null","","[]","null","",""
"","","","","","image-button-response","98","498120","0.0-14.0-1.0-0.3","19EB7F1A9A254C79947F194398F94246","19EB7F1A9A254C79947F194398F94246","5e961dca-ba7d-46a8-b7e8-c08bb047e7cf","a0a8f18c-a66e-4ba7-a170-23efbdc67501","{""participantId"":""19EB7F1A9A254C79947F194398F94246"",""assignmentId"":""5e961dca-ba7d-46a8-b7e8-c08bb047e7cf"",""projectId"":""a0a8f18c-a66e-4ba7-a170-23efbdc67501""}","https://test12345.live/?participantId=19EB7F1A9A254C79947F194398F94246&assignmentId=5e961dca-ba7d-46a8-b7e8-c08bb047e7cf&projectId=a0a8f18c-a66e-4ba7-a170-23efbdc67501","19EB7F1A9A254C79947F194398F94246-2024-11-24-17-37-43","","null","","images/semantic_sequence/physical_activity_semantic/physical_activity_semantic_4.png","null","",""
"","","","","","image-button-response","99","498773","0.0-14.0-1.0-1.3","19EB7F1A9A254C79947F194398F94246","19EB7F1A9A254C79947F194398F94246","5e961dca-ba7d-46a8-b7e8-c08bb047e7cf","a0a8f18c-a66e-4ba7-a170-23efbdc67501","{""participantId"":""19EB7F1A9A254C79947F194398F94246"",""assignmentId"":""5e961dca-ba7d-46a8-b7e8-c08bb047e7cf"",""projectId"":""a0a8f18c-a66e-4ba7-a170-23efbdc67501""}","https://test12345.live/?participantId=19EB7F1A9A254C79947F194398F94246&assignmentId=5e961dca-ba7d-46a8-b7e8-c08bb047e7cf&projectId=a0a8f18c-a66e-4ba7-a170-23efbdc67501","19EB7F1A9A254C79947F194398F94246-2024-11-24-17-37-43","","652","","images/semantic_sequence/physical_activity_semantic/physical_activity_semantic_4.png","0","",""
"","","","","","image-button-response","100","500574","0.0-14.0-1.0-2.3","19EB7F1A9A254C79947F194398F94246","19EB7F1A9A254C79947F194398F94246","5e961dca-ba7d-46a8-b7e8-c08bb047e7cf","a0a8f18c-a66e-4ba7-a170-23efbdc67501","{""participantId"":""19EB7F1A9A254C79947F194398F94246"",""assignmentId"":""5e961dca-ba7d-46a8-b7e8-c08bb047e7cf"",""projectId"":""a0a8f18c-a66e-4ba7-a170-23efbdc67501""}","https://test12345.live/?participantId=19EB7F1A9A254C79947F194398F94246&assignmentId=5e961dca-ba7d-46a8-b7e8-c08bb047e7cf&projectId=a0a8f18c-a66e-4ba7-a170-23efbdc67501","19EB7F1A9A254C79947F194398F94246-2024-11-24-17-37-43","","null","","[]","null","",""
"","","","","","image-button-response","101","505078","0.0-14.0-1.0-0.4","19EB7F1A9A254C79947F194398F94246","19EB7F1A9A254C79947F194398F94246","5e961dca-ba7d-46a8-b7e8-c08bb047e7cf","a0a8f18c-a66e-4ba7-a170-23efbdc67501","{""participantId"":""19EB7F1A9A254C79947F194398F94246"",""assignmentId"":""5e961dca-ba7d-46a8-b7e8-c08bb047e7cf"",""projectId"":""a0a8f18c-a66e-4ba7-a170-23efbdc67501""}","https://test12345.live/?participantId=19EB7F1A9A254C79947F194398F94246&assignmentId=5e961dca-ba7d-46a8-b7e8-c08bb047e7cf&projectId=a0a8f18c-a66e-4ba7-a170-23efbdc67501","19EB7F1A9A254C79947F194398F94246-2024-11-24-17-37-43","","null","","images/semantic_sequence/physical_activity_semantic/physical_activity_semantic_5.png","null","",""
"","","","","","image-button-response","102","505993","0.0-14.0-1.0-1.4","19EB7F1A9A254C79947F194398F94246","19EB7F1A9A254C79947F194398F94246","5e961dca-ba7d-46a8-b7e8-c08bb047e7cf","a0a8f18c-a66e-4ba7-a170-23efbdc67501","{""participantId"":""19EB7F1A9A254C79947F194398F94246"",""assignmentId"":""5e961dca-ba7d-46a8-b7e8-c08bb047e7cf"",""projectId"":""a0a8f18c-a66e-4ba7-a170-23efbdc67501""}","https://test12345.live/?participantId=19EB7F1A9A254C79947F194398F94246&assignmentId=5e961dca-ba7d-46a8-b7e8-c08bb047e7cf&projectId=a0a8f18c-a66e-4ba7-a170-23efbdc67501","19EB7F1A9A254C79947F194398F94246-2024-11-24-17-37-43","","915","","images/semantic_sequence/physical_activity_semantic/physical_activity_semantic_5.png","0","",""
"","","","","","image-button-response","103","507799","0.0-14.0-1.0-2.4","19EB7F1A9A254C79947F194398F94246","19EB7F1A9A254C79947F194398F94246","5e961dca-ba7d-46a8-b7e8-c08bb047e7cf","a0a8f18c-a66e-4ba7-a170-23efbdc67501","{""participantId"":""19EB7F1A9A254C79947F194398F94246"",""assignmentId"":""5e961dca-ba7d-46a8-b7e8-c08bb047e7cf"",""projectId"":""a0a8f18c-a66e-4ba7-a170-23efbdc67501""}","https://test12345.live/?participantId=19EB7F1A9A254C79947F194398F94246&assignmentId=5e961dca-ba7d-46a8-b7e8-c08bb047e7cf&projectId=a0a8f18c-a66e-4ba7-a170-23efbdc67501","19EB7F1A9A254C79947F194398F94246-2024-11-24-17-37-43","","null","","[]","null","",""
"","","","","","image-button-response","104","512302","0.0-14.0-1.0-0.5","19EB7F1A9A254C79947F194398F94246","19EB7F1A9A254C79947F194398F94246","5e961dca-ba7d-46a8-b7e8-c08bb047e7cf","a0a8f18c-a66e-4ba7-a170-23efbdc67501","{""participantId"":""19EB7F1A9A254C79947F194398F94246"",""assignmentId"":""5e961dca-ba7d-46a8-b7e8-c08bb047e7cf"",""projectId"":""a0a8f18c-a66e-4ba7-a170-23efbdc67501""}","https://test12345.live/?participantId=19EB7F1A9A254C79947F194398F94246&assignmentId=5e961dca-ba7d-46a8-b7e8-c08bb047e7cf&projectId=a0a8f18c-a66e-4ba7-a170-23efbdc67501","19EB7F1A9A254C79947F194398F94246-2024-11-24-17-37-43","","null","","images/semantic_sequence/physical_activity_semantic/physical_activity_semantic_6.png","null","",""
"","","","","","image-button-response","105","512838","0.0-14.0-1.0-1.5","19EB7F1A9A254C79947F194398F94246","19EB7F1A9A254C79947F194398F94246","5e961dca-ba7d-46a8-b7e8-c08bb047e7cf","a0a8f18c-a66e-4ba7-a170-23efbdc67501","{""participantId"":""19EB7F1A9A254C79947F194398F94246"",""assignmentId"":""5e961dca-ba7d-46a8-b7e8-c08bb047e7cf"",""projectId"":""a0a8f18c-a66e-4ba7-a170-23efbdc67501""}","https://test12345.live/?participantId=19EB7F1A9A254C79947F194398F94246&assignmentId=5e961dca-ba7d-46a8-b7e8-c08bb047e7cf&projectId=a0a8f18c-a66e-4ba7-a170-23efbdc67501","19EB7F1A9A254C79947F194398F94246-2024-11-24-17-37-43","","534","","images/semantic_sequence/physical_activity_semantic/physical_activity_semantic_6.png","0","",""
"","","","","","image-button-response","106","514644","0.0-14.0-1.0-2.5","19EB7F1A9A254C79947F194398F94246","19EB7F1A9A254C79947F194398F94246","5e961dca-ba7d-46a8-b7e8-c08bb047e7cf","a0a8f18c-a66e-4ba7-a170-23efbdc67501","{""participantId"":""19EB7F1A9A254C79947F194398F94246"",""assignmentId"":""5e961dca-ba7d-46a8-b7e8-c08bb047e7cf"",""projectId"":""a0a8f18c-a66e-4ba7-a170-23efbdc67501""}","https://test12345.live/?participantId=19EB7F1A9A254C79947F194398F94246&assignmentId=5e961dca-ba7d-46a8-b7e8-c08bb047e7cf&projectId=a0a8f18c-a66e-4ba7-a170-23efbdc67501","19EB7F1A9A254C79947F194398F94246-2024-11-24-17-37-43","","null","","[]","null","",""
"","","","","","image-button-response","107","519148","0.0-14.0-1.0-0.6","19EB7F1A9A254C79947F194398F94246","19EB7F1A9A254C79947F194398F94246","5e961dca-ba7d-46a8-b7e8-c08bb047e7cf","a0a8f18c-a66e-4ba7-a170-23efbdc67501","{""participantId"":""19EB7F1A9A254C79947F194398F94246"",""assignmentId"":""5e961dca-ba7d-46a8-b7e8-c08bb047e7cf"",""projectId"":""a0a8f18c-a66e-4ba7-a170-23efbdc67501""}","https://test12345.live/?participantId=19EB7F1A9A254C79947F194398F94246&assignmentId=5e961dca-ba7d-46a8-b7e8-c08bb047e7cf&projectId=a0a8f18c-a66e-4ba7-a170-23efbdc67501","19EB7F1A9A254C79947F194398F94246-2024-11-24-17-37-43","","null","","images/semantic_sequence/physical_activity_semantic/physical_activity_semantic_7.png","null","",""
"","","","","","image-button-response","108","520030","0.0-14.0-1.0-1.6","19EB7F1A9A254C79947F194398F94246","19EB7F1A9A254C79947F194398F94246","5e961dca-ba7d-46a8-b7e8-c08bb047e7cf","a0a8f18c-a66e-4ba7-a170-23efbdc67501","{""participantId"":""19EB7F1A9A254C79947F194398F94246"",""assignmentId"":""5e961dca-ba7d-46a8-b7e8-c08bb047e7cf"",""projectId"":""a0a8f18c-a66e-4ba7-a170-23efbdc67501""}","https://test12345.live/?participantId=19EB7F1A9A254C79947F194398F94246&assignmentId=5e961dca-ba7d-46a8-b7e8-c08bb047e7cf&projectId=a0a8f18c-a66e-4ba7-a170-23efbdc67501","19EB7F1A9A254C79947F194398F94246-2024-11-24-17-37-43","","881","","images/semantic_sequence/physical_activity_semantic/physical_activity_semantic_7.png","0","",""
"","","","","","image-button-response","109","521836","0.0-14.0-1.0-2.6","19EB7F1A9A254C79947F194398F94246","19EB7F1A9A254C79947F194398F94246","5e961dca-ba7d-46a8-b7e8-c08bb047e7cf","a0a8f18c-a66e-4ba7-a170-23efbdc67501","{""participantId"":""19EB7F1A9A254C79947F194398F94246"",""assignmentId"":""5e961dca-ba7d-46a8-b7e8-c08bb047e7cf"",""projectId"":""a0a8f18c-a66e-4ba7-a170-23efbdc67501""}","https://test12345.live/?participantId=19EB7F1A9A254C79947F194398F94246&assignmentId=5e961dca-ba7d-46a8-b7e8-c08bb047e7cf&projectId=a0a8f18c-a66e-4ba7-a170-23efbdc67501","19EB7F1A9A254C79947F194398F94246-2024-11-24-17-37-43","","null","","[]","null","",""
"","","","","","image-button-response","110","526339","0.0-14.0-1.0-0.7","19EB7F1A9A254C79947F194398F94246","19EB7F1A9A254C79947F194398F94246","5e961dca-ba7d-46a8-b7e8-c08bb047e7cf","a0a8f18c-a66e-4ba7-a170-23efbdc67501","{""participantId"":""19EB7F1A9A254C79947F194398F94246"",""assignmentId"":""5e961dca-ba7d-46a8-b7e8-c08bb047e7cf"",""projectId"":""a0a8f18c-a66e-4ba7-a170-23efbdc67501""}","https://test12345.live/?participantId=19EB7F1A9A254C79947F194398F94246&assignmentId=5e961dca-ba7d-46a8-b7e8-c08bb047e7cf&projectId=a0a8f18c-a66e-4ba7-a170-23efbdc67501","19EB7F1A9A254C79947F194398F94246-2024-11-24-17-37-43","","null","","images/semantic_sequence/physical_activity_semantic/physical_activity_semantic_8.png","null","",""
"","","","","","image-button-response","111","527470","0.0-14.0-1.0-1.7","19EB7F1A9A254C79947F194398F94246","19EB7F1A9A254C79947F194398F94246","5e961dca-ba7d-46a8-b7e8-c08bb047e7cf","a0a8f18c-a66e-4ba7-a170-23efbdc67501","{""participantId"":""19EB7F1A9A254C79947F194398F94246"",""assignmentId"":""5e961dca-ba7d-46a8-b7e8-c08bb047e7cf"",""projectId"":""a0a8f18c-a66e-4ba7-a170-23efbdc67501""}","https://test12345.live/?participantId=19EB7F1A9A254C79947F194398F94246&assignmentId=5e961dca-ba7d-46a8-b7e8-c08bb047e7cf&projectId=a0a8f18c-a66e-4ba7-a170-23efbdc67501","19EB7F1A9A254C79947F194398F94246-2024-11-24-17-37-43","","1129","","images/semantic_sequence/physical_activity_semantic/physical_activity_semantic_8.png","0","",""
"","","","","","image-button-response","112","529274","0.0-14.0-1.0-2.7","19EB7F1A9A254C79947F194398F94246","19EB7F1A9A254C79947F194398F94246","5e961dca-ba7d-46a8-b7e8-c08bb047e7cf","a0a8f18c-a66e-4ba7-a170-23efbdc67501","{""participantId"":""19EB7F1A9A254C79947F194398F94246"",""assignmentId"":""5e961dca-ba7d-46a8-b7e8-c08bb047e7cf"",""projectId"":""a0a8f18c-a66e-4ba7-a170-23efbdc67501""}","https://test12345.live/?participantId=19EB7F1A9A254C79947F194398F94246&assignmentId=5e961dca-ba7d-46a8-b7e8-c08bb047e7cf&projectId=a0a8f18c-a66e-4ba7-a170-23efbdc67501","19EB7F1A9A254C79947F194398F94246-2024-11-24-17-37-43","","null","","[]","null","",""
"","","","","","image-button-response","113","533776","0.0-14.0-1.0-0.8","19EB7F1A9A254C79947F194398F94246","19EB7F1A9A254C79947F194398F94246","5e961dca-ba7d-46a8-b7e8-c08bb047e7cf","a0a8f18c-a66e-4ba7-a170-23efbdc67501","{""participantId"":""19EB7F1A9A254C79947F194398F94246"",""assignmentId"":""5e961dca-ba7d-46a8-b7e8-c08bb047e7cf"",""projectId"":""a0a8f18c-a66e-4ba7-a170-23efbdc67501""}","https://test12345.live/?participantId=19EB7F1A9A254C79947F194398F94246&assignmentId=5e961dca-ba7d-46a8-b7e8-c08bb047e7cf&projectId=a0a8f18c-a66e-4ba7-a170-23efbdc67501","19EB7F1A9A254C79947F194398F94246-2024-11-24-17-37-43","","null","","images/semantic_sequence/physical_activity_semantic/physical_activity_semantic_9.png","null","",""
"","","","","","image-button-response","114","534527","0.0-14.0-1.0-1.8","19EB7F1A9A254C79947F194398F94246","19EB7F1A9A254C79947F194398F94246","5e961dca-ba7d-46a8-b7e8-c08bb047e7cf","a0a8f18c-a66e-4ba7-a170-23efbdc67501","{""participantId"":""19EB7F1A9A254C79947F194398F94246"",""assignmentId"":""5e961dca-ba7d-46a8-b7e8-c08bb047e7cf"",""projectId"":""a0a8f18c-a66e-4ba7-a170-23efbdc67501""}","https://test12345.live/?participantId=19EB7F1A9A254C79947F194398F94246&assignmentId=5e961dca-ba7d-46a8-b7e8-c08bb047e7cf&projectId=a0a8f18c-a66e-4ba7-a170-23efbdc67501","19EB7F1A9A254C79947F194398F94246-2024-11-24-17-37-43","","751","","images/semantic_sequence/physical_activity_semantic/physical_activity_semantic_9.png","0","",""
"","","","","","image-button-response","115","536331","0.0-14.0-1.0-2.8","19EB7F1A9A254C79947F194398F94246","19EB7F1A9A254C79947F194398F94246","5e961dca-ba7d-46a8-b7e8-c08bb047e7cf","a0a8f18c-a66e-4ba7-a170-23efbdc67501","{""participantId"":""19EB7F1A9A254C79947F194398F94246"",""assignmentId"":""5e961dca-ba7d-46a8-b7e8-c08bb047e7cf"",""projectId"":""a0a8f18c-a66e-4ba7-a170-23efbdc67501""}","https://test12345.live/?participantId=19EB7F1A9A254C79947F194398F94246&assignmentId=5e961dca-ba7d-46a8-b7e8-c08bb047e7cf&projectId=a0a8f18c-a66e-4ba7-a170-23efbdc67501","19EB7F1A9A254C79947F194398F94246-2024-11-24-17-37-43","","null","","[]","null","",""
"","","","","","image-button-response","116","540834","0.0-14.0-1.0-0.9","19EB7F1A9A254C79947F194398F94246","19EB7F1A9A254C79947F194398F94246","5e961dca-ba7d-46a8-b7e8-c08bb047e7cf","a0a8f18c-a66e-4ba7-a170-23efbdc67501","{""participantId"":""19EB7F1A9A254C79947F194398F94246"",""assignmentId"":""5e961dca-ba7d-46a8-b7e8-c08bb047e7cf"",""projectId"":""a0a8f18c-a66e-4ba7-a170-23efbdc67501""}","https://test12345.live/?participantId=19EB7F1A9A254C79947F194398F94246&assignmentId=5e961dca-ba7d-46a8-b7e8-c08bb047e7cf&projectId=a0a8f18c-a66e-4ba7-a170-23efbdc67501","19EB7F1A9A254C79947F194398F94246-2024-11-24-17-37-43","","null","","images/semantic_sequence/physical_activity_semantic/physical_activity_semantic_ten.png","null","",""
"","","","","","image-button-response","117","541353","0.0-14.0-1.0-1.9","19EB7F1A9A254C79947F194398F94246","19EB7F1A9A254C79947F194398F94246","5e961dca-ba7d-46a8-b7e8-c08bb047e7cf","a0a8f18c-a66e-4ba7-a170-23efbdc67501","{""participantId"":""19EB7F1A9A254C79947F194398F94246"",""assignmentId"":""5e961dca-ba7d-46a8-b7e8-c08bb047e7cf"",""projectId"":""a0a8f18c-a66e-4ba7-a170-23efbdc67501""}","https://test12345.live/?participantId=19EB7F1A9A254C79947F194398F94246&assignmentId=5e961dca-ba7d-46a8-b7e8-c08bb047e7cf&projectId=a0a8f18c-a66e-4ba7-a170-23efbdc67501","19EB7F1A9A254C79947F194398F94246-2024-11-24-17-37-43","","519","","images/semantic_sequence/physical_activity_semantic/physical_activity_semantic_ten.png","0","",""
"","","","","","image-button-response","118","543157","0.0-14.0-1.0-2.9","19EB7F1A9A254C79947F194398F94246","19EB7F1A9A254C79947F194398F94246","5e961dca-ba7d-46a8-b7e8-c08bb047e7cf","a0a8f18c-a66e-4ba7-a170-23efbdc67501","{""participantId"":""19EB7F1A9A254C79947F194398F94246"",""assignmentId"":""5e961dca-ba7d-46a8-b7e8-c08bb047e7cf"",""projectId"":""a0a8f18c-a66e-4ba7-a170-23efbdc67501""}","https://test12345.live/?participantId=19EB7F1A9A254C79947F194398F94246&assignmentId=5e961dca-ba7d-46a8-b7e8-c08bb047e7cf&projectId=a0a8f18c-a66e-4ba7-a170-23efbdc67501","19EB7F1A9A254C79947F194398F94246-2024-11-24-17-37-43","","null","","[]","null","",""
"","","","","","html-audio-response","119","569931","0.0-15.0","19EB7F1A9A254C79947F194398F94246","19EB7F1A9A254C79947F194398F94246","5e961dca-ba7d-46a8-b7e8-c08bb047e7cf","a0a8f18c-a66e-4ba7-a170-23efbdc67501","{""participantId"":""19EB7F1A9A254C79947F194398F94246"",""assignmentId"":""5e961dca-ba7d-46a8-b7e8-c08bb047e7cf"",""projectId"":""a0a8f18c-a66e-4ba7-a170-23efbdc67501""}","https://test12345.live/?participantId=19EB7F1A9A254C79947F194398F94246&assignmentId=5e961dca-ba7d-46a8-b7e8-c08bb047e7cf&projectId=a0a8f18c-a66e-4ba7-a170-23efbdc67501","19EB7F1A9A254C79947F194398F94246-2024-11-24-17-37-43","","25464","","[""<span style=\""color: red; font-size: 24px\""> NOW RECORDING</span><p>Please say out loud all the images you saw, as many as you can remember. The images can be said in any order.</p>""]","","2","physical_activity_semantic"
"","","","","","image-button-response","120","575935","0.0-16.0-0.0","19EB7F1A9A254C79947F194398F94246","19EB7F1A9A254C79947F194398F94246","5e961dca-ba7d-46a8-b7e8-c08bb047e7cf","a0a8f18c-a66e-4ba7-a170-23efbdc67501","{""participantId"":""19EB7F1A9A254C79947F194398F94246"",""assignmentId"":""5e961dca-ba7d-46a8-b7e8-c08bb047e7cf"",""projectId"":""a0a8f18c-a66e-4ba7-a170-23efbdc67501""}","https://test12345.live/?participantId=19EB7F1A9A254C79947F194398F94246&assignmentId=5e961dca-ba7d-46a8-b7e8-c08bb047e7cf&projectId=a0a8f18c-a66e-4ba7-a170-23efbdc67501","19EB7F1A9A254C79947F194398F94246-2024-11-24-17-37-43","","null","","images/schematic_sequence/restaurant_scheme/restaurant_scheme_0.png","null","",""
"","","","","","image-button-response","121","580440","0.0-16.0-1.0-0.0","19EB7F1A9A254C79947F194398F94246","19EB7F1A9A254C79947F194398F94246","5e961dca-ba7d-46a8-b7e8-c08bb047e7cf","a0a8f18c-a66e-4ba7-a170-23efbdc67501","{""participantId"":""19EB7F1A9A254C79947F194398F94246"",""assignmentId"":""5e961dca-ba7d-46a8-b7e8-c08bb047e7cf"",""projectId"":""a0a8f18c-a66e-4ba7-a170-23efbdc67501""}","https://test12345.live/?participantId=19EB7F1A9A254C79947F194398F94246&assignmentId=5e961dca-ba7d-46a8-b7e8-c08bb047e7cf&projectId=a0a8f18c-a66e-4ba7-a170-23efbdc67501","19EB7F1A9A254C79947F194398F94246-2024-11-24-17-37-43","","null","","images/schematic_sequence/restaurant_scheme/restaurant_scheme_1.png","null","",""
"","","","","","image-button-response","122","581225","0.0-16.0-1.0-1.0","19EB7F1A9A254C79947F194398F94246","19EB7F1A9A254C79947F194398F94246","5e961dca-ba7d-46a8-b7e8-c08bb047e7cf","a0a8f18c-a66e-4ba7-a170-23efbdc67501","{""participantId"":""19EB7F1A9A254C79947F194398F94246"",""assignmentId"":""5e961dca-ba7d-46a8-b7e8-c08bb047e7cf"",""projectId"":""a0a8f18c-a66e-4ba7-a170-23efbdc67501""}","https://test12345.live/?participantId=19EB7F1A9A254C79947F194398F94246&assignmentId=5e961dca-ba7d-46a8-b7e8-c08bb047e7cf&projectId=a0a8f18c-a66e-4ba7-a170-23efbdc67501","19EB7F1A9A254C79947F194398F94246-2024-11-24-17-37-43","","784","","images/schematic_sequence/restaurant_scheme/restaurant_scheme_1.png","0","",""
"","","","","","image-button-response","123","583032","0.0-16.0-1.0-2.0","19EB7F1A9A254C79947F194398F94246","19EB7F1A9A254C79947F194398F94246","5e961dca-ba7d-46a8-b7e8-c08bb047e7cf","a0a8f18c-a66e-4ba7-a170-23efbdc67501","{""participantId"":""19EB7F1A9A254C79947F194398F94246"",""assignmentId"":""5e961dca-ba7d-46a8-b7e8-c08bb047e7cf"",""projectId"":""a0a8f18c-a66e-4ba7-a170-23efbdc67501""}","https://test12345.live/?participantId=19EB7F1A9A254C79947F194398F94246&assignmentId=5e961dca-ba7d-46a8-b7e8-c08bb047e7cf&projectId=a0a8f18c-a66e-4ba7-a170-23efbdc67501","19EB7F1A9A254C79947F194398F94246-2024-11-24-17-37-43","","null","","[]","null","",""
"","","","","","image-button-response","124","587535","0.0-16.0-1.0-0.1","19EB7F1A9A254C79947F194398F94246","19EB7F1A9A254C79947F194398F94246","5e961dca-ba7d-46a8-b7e8-c08bb047e7cf","a0a8f18c-a66e-4ba7-a170-23efbdc67501","{""participantId"":""19EB7F1A9A254C79947F194398F94246"",""assignmentId"":""5e961dca-ba7d-46a8-b7e8-c08bb047e7cf"",""projectId"":""a0a8f18c-a66e-4ba7-a170-23efbdc67501""}","https://test12345.live/?participantId=19EB7F1A9A254C79947F194398F94246&assignmentId=5e961dca-ba7d-46a8-b7e8-c08bb047e7cf&projectId=a0a8f18c-a66e-4ba7-a170-23efbdc67501","19EB7F1A9A254C79947F194398F94246-2024-11-24-17-37-43","","null","","images/schematic_sequence/restaurant_scheme/restaurant_scheme_2.png","null","",""
"","","","","","image-button-response","125","589025","0.0-16.0-1.0-1.1","19EB7F1A9A254C79947F194398F94246","19EB7F1A9A254C79947F194398F94246","5e961dca-ba7d-46a8-b7e8-c08bb047e7cf","a0a8f18c-a66e-4ba7-a170-23efbdc67501","{""participantId"":""19EB7F1A9A254C79947F194398F94246"",""assignmentId"":""5e961dca-ba7d-46a8-b7e8-c08bb047e7cf"",""projectId"":""a0a8f18c-a66e-4ba7-a170-23efbdc67501""}","https://test12345.live/?participantId=19EB7F1A9A254C79947F194398F94246&assignmentId=5e961dca-ba7d-46a8-b7e8-c08bb047e7cf&projectId=a0a8f18c-a66e-4ba7-a170-23efbdc67501","19EB7F1A9A254C79947F194398F94246-2024-11-24-17-37-43","","1489","","images/schematic_sequence/restaurant_scheme/restaurant_scheme_2.png","1","",""
"","","","","","image-button-response","126","590831","0.0-16.0-1.0-2.1","19EB7F1A9A254C79947F194398F94246","19EB7F1A9A254C79947F194398F94246","5e961dca-ba7d-46a8-b7e8-c08bb047e7cf","a0a8f18c-a66e-4ba7-a170-23efbdc67501","{""participantId"":""19EB7F1A9A254C79947F194398F94246"",""assignmentId"":""5e961dca-ba7d-46a8-b7e8-c08bb047e7cf"",""projectId"":""a0a8f18c-a66e-4ba7-a170-23efbdc67501""}","https://test12345.live/?participantId=19EB7F1A9A254C79947F194398F94246&assignmentId=5e961dca-ba7d-46a8-b7e8-c08bb047e7cf&projectId=a0a8f18c-a66e-4ba7-a170-23efbdc67501","19EB7F1A9A254C79947F194398F94246-2024-11-24-17-37-43","","null","","[]","null","",""
"","","","","","image-button-response","127","595335","0.0-16.0-1.0-0.2","19EB7F1A9A254C79947F194398F94246","19EB7F1A9A254C79947F194398F94246","5e961dca-ba7d-46a8-b7e8-c08bb047e7cf","a0a8f18c-a66e-4ba7-a170-23efbdc67501","{""participantId"":""19EB7F1A9A254C79947F194398F94246"",""assignmentId"":""5e961dca-ba7d-46a8-b7e8-c08bb047e7cf"",""projectId"":""a0a8f18c-a66e-4ba7-a170-23efbdc67501""}","https://test12345.live/?participantId=19EB7F1A9A254C79947F194398F94246&assignmentId=5e961dca-ba7d-46a8-b7e8-c08bb047e7cf&projectId=a0a8f18c-a66e-4ba7-a170-23efbdc67501","19EB7F1A9A254C79947F194398F94246-2024-11-24-17-37-43","","null","","images/schematic_sequence/restaurant_scheme/restaurant_scheme_3.png","null","",""
"","","","","","image-button-response","128","596990","0.0-16.0-1.0-1.2","19EB7F1A9A254C79947F194398F94246","19EB7F1A9A254C79947F194398F94246","5e961dca-ba7d-46a8-b7e8-c08bb047e7cf","a0a8f18c-a66e-4ba7-a170-23efbdc67501","{""participantId"":""19EB7F1A9A254C79947F194398F94246"",""assignmentId"":""5e961dca-ba7d-46a8-b7e8-c08bb047e7cf"",""projectId"":""a0a8f18c-a66e-4ba7-a170-23efbdc67501""}","https://test12345.live/?participantId=19EB7F1A9A254C79947F194398F94246&assignmentId=5e961dca-ba7d-46a8-b7e8-c08bb047e7cf&projectId=a0a8f18c-a66e-4ba7-a170-23efbdc67501","19EB7F1A9A254C79947F194398F94246-2024-11-24-17-37-43","","1654","","images/schematic_sequence/restaurant_scheme/restaurant_scheme_3.png","1","",""
"","","","","","image-button-response","129","598792","0.0-16.0-1.0-2.2","19EB7F1A9A254C79947F194398F94246","19EB7F1A9A254C79947F194398F94246","5e961dca-ba7d-46a8-b7e8-c08bb047e7cf","a0a8f18c-a66e-4ba7-a170-23efbdc67501","{""participantId"":""19EB7F1A9A254C79947F194398F94246"",""assignmentId"":""5e961dca-ba7d-46a8-b7e8-c08bb047e7cf"",""projectId"":""a0a8f18c-a66e-4ba7-a170-23efbdc67501""}","https://test12345.live/?participantId=19EB7F1A9A254C79947F194398F94246&assignmentId=5e961dca-ba7d-46a8-b7e8-c08bb047e7cf&projectId=a0a8f18c-a66e-4ba7-a170-23efbdc67501","19EB7F1A9A254C79947F194398F94246-2024-11-24-17-37-43","","null","","[]","null","",""
"","","","","","image-button-response","130","603294","0.0-16.0-1.0-0.3","19EB7F1A9A254C79947F194398F94246","19EB7F1A9A254C79947F194398F94246","5e961dca-ba7d-46a8-b7e8-c08bb047e7cf","a0a8f18c-a66e-4ba7-a170-23efbdc67501","{""participantId"":""19EB7F1A9A254C79947F194398F94246"",""assignmentId"":""5e961dca-ba7d-46a8-b7e8-c08bb047e7cf"",""projectId"":""a0a8f18c-a66e-4ba7-a170-23efbdc67501""}","https://test12345.live/?participantId=19EB7F1A9A254C79947F194398F94246&assignmentId=5e961dca-ba7d-46a8-b7e8-c08bb047e7cf&projectId=a0a8f18c-a66e-4ba7-a170-23efbdc67501","19EB7F1A9A254C79947F194398F94246-2024-11-24-17-37-43","","null","","images/schematic_sequence/restaurant_scheme/restaurant_scheme_4.png","null","",""
"","","","","","image-button-response","131","604265","0.0-16.0-1.0-1.3","19EB7F1A9A254C79947F194398F94246","19EB7F1A9A254C79947F194398F94246","5e961dca-ba7d-46a8-b7e8-c08bb047e7cf","a0a8f18c-a66e-4ba7-a170-23efbdc67501","{""participantId"":""19EB7F1A9A254C79947F194398F94246"",""assignmentId"":""5e961dca-ba7d-46a8-b7e8-c08bb047e7cf"",""projectId"":""a0a8f18c-a66e-4ba7-a170-23efbdc67501""}","https://test12345.live/?participantId=19EB7F1A9A254C79947F194398F94246&assignmentId=5e961dca-ba7d-46a8-b7e8-c08bb047e7cf&projectId=a0a8f18c-a66e-4ba7-a170-23efbdc67501","19EB7F1A9A254C79947F194398F94246-2024-11-24-17-37-43","","971","","images/schematic_sequence/restaurant_scheme/restaurant_scheme_4.png","0","",""
"","","","","","image-button-response","132","606069","0.0-16.0-1.0-2.3","19EB7F1A9A254C79947F194398F94246","19EB7F1A9A254C79947F194398F94246","5e961dca-ba7d-46a8-b7e8-c08bb047e7cf","a0a8f18c-a66e-4ba7-a170-23efbdc67501","{""participantId"":""19EB7F1A9A254C79947F194398F94246"",""assignmentId"":""5e961dca-ba7d-46a8-b7e8-c08bb047e7cf"",""projectId"":""a0a8f18c-a66e-4ba7-a170-23efbdc67501""}","https://test12345.live/?participantId=19EB7F1A9A254C79947F194398F94246&assignmentId=5e961dca-ba7d-46a8-b7e8-c08bb047e7cf&projectId=a0a8f18c-a66e-4ba7-a170-23efbdc67501","19EB7F1A9A254C79947F194398F94246-2024-11-24-17-37-43","","null","","[]","null","",""
"","","","","","image-button-response","133","610572","0.0-16.0-1.0-0.4","19EB7F1A9A254C79947F194398F94246","19EB7F1A9A254C79947F194398F94246","5e961dca-ba7d-46a8-b7e8-c08bb047e7cf","a0a8f18c-a66e-4ba7-a170-23efbdc67501","{""participantId"":""19EB7F1A9A254C79947F194398F94246"",""assignmentId"":""5e961dca-ba7d-46a8-b7e8-c08bb047e7cf"",""projectId"":""a0a8f18c-a66e-4ba7-a170-23efbdc67501""}","https://test12345.live/?participantId=19EB7F1A9A254C79947F194398F94246&assignmentId=5e961dca-ba7d-46a8-b7e8-c08bb047e7cf&projectId=a0a8f18c-a66e-4ba7-a170-23efbdc67501","19EB7F1A9A254C79947F194398F94246-2024-11-24-17-37-43","","null","","images/schematic_sequence/restaurant_scheme/restaurant_scheme_5.png","null","",""
"","","","","","image-button-response","134","611353","0.0-16.0-1.0-1.4","19EB7F1A9A254C79947F194398F94246","19EB7F1A9A254C79947F194398F94246","5e961dca-ba7d-46a8-b7e8-c08bb047e7cf","a0a8f18c-a66e-4ba7-a170-23efbdc67501","{""participantId"":""19EB7F1A9A254C79947F194398F94246"",""assignmentId"":""5e961dca-ba7d-46a8-b7e8-c08bb047e7cf"",""projectId"":""a0a8f18c-a66e-4ba7-a170-23efbdc67501""}","https://test12345.live/?participantId=19EB7F1A9A254C79947F194398F94246&assignmentId=5e961dca-ba7d-46a8-b7e8-c08bb047e7cf&projectId=a0a8f18c-a66e-4ba7-a170-23efbdc67501","19EB7F1A9A254C79947F194398F94246-2024-11-24-17-37-43","","781","","images/schematic_sequence/restaurant_scheme/restaurant_scheme_5.png","0","",""
"","","","","","image-button-response","135","613157","0.0-16.0-1.0-2.4","19EB7F1A9A254C79947F194398F94246","19EB7F1A9A254C79947F194398F94246","5e961dca-ba7d-46a8-b7e8-c08bb047e7cf","a0a8f18c-a66e-4ba7-a170-23efbdc67501","{""participantId"":""19EB7F1A9A254C79947F194398F94246"",""assignmentId"":""5e961dca-ba7d-46a8-b7e8-c08bb047e7cf"",""projectId"":""a0a8f18c-a66e-4ba7-a170-23efbdc67501""}","https://test12345.live/?participantId=19EB7F1A9A254C79947F194398F94246&assignmentId=5e961dca-ba7d-46a8-b7e8-c08bb047e7cf&projectId=a0a8f18c-a66e-4ba7-a170-23efbdc67501","19EB7F1A9A254C79947F194398F94246-2024-11-24-17-37-43","","null","","[]","null","",""
"","","","","","image-button-response","136","617658","0.0-16.0-1.0-0.5","19EB7F1A9A254C79947F194398F94246","19EB7F1A9A254C79947F194398F94246","5e961dca-ba7d-46a8-b7e8-c08bb047e7cf","a0a8f18c-a66e-4ba7-a170-23efbdc67501","{""participantId"":""19EB7F1A9A254C79947F194398F94246"",""assignmentId"":""5e961dca-ba7d-46a8-b7e8-c08bb047e7cf"",""projectId"":""a0a8f18c-a66e-4ba7-a170-23efbdc67501""}","https://test12345.live/?participantId=19EB7F1A9A254C79947F194398F94246&assignmentId=5e961dca-ba7d-46a8-b7e8-c08bb047e7cf&projectId=a0a8f18c-a66e-4ba7-a170-23efbdc67501","19EB7F1A9A254C79947F194398F94246-2024-11-24-17-37-43","","null","","images/schematic_sequence/restaurant_scheme/restaurant_scheme_6.png","null","",""
"","","","","","image-button-response","137","618405","0.0-16.0-1.0-1.5","19EB7F1A9A254C79947F194398F94246","19EB7F1A9A254C79947F194398F94246","5e961dca-ba7d-46a8-b7e8-c08bb047e7cf","a0a8f18c-a66e-4ba7-a170-23efbdc67501","{""participantId"":""19EB7F1A9A254C79947F194398F94246"",""assignmentId"":""5e961dca-ba7d-46a8-b7e8-c08bb047e7cf"",""projectId"":""a0a8f18c-a66e-4ba7-a170-23efbdc67501""}","https://test12345.live/?participantId=19EB7F1A9A254C79947F194398F94246&assignmentId=5e961dca-ba7d-46a8-b7e8-c08bb047e7cf&projectId=a0a8f18c-a66e-4ba7-a170-23efbdc67501","19EB7F1A9A254C79947F194398F94246-2024-11-24-17-37-43","","746","","images/schematic_sequence/restaurant_scheme/restaurant_scheme_6.png","1","",""
"","","","","","image-button-response","138","620211","0.0-16.0-1.0-2.5","19EB7F1A9A254C79947F194398F94246","19EB7F1A9A254C79947F194398F94246","5e961dca-ba7d-46a8-b7e8-c08bb047e7cf","a0a8f18c-a66e-4ba7-a170-23efbdc67501","{""participantId"":""19EB7F1A9A254C79947F194398F94246"",""assignmentId"":""5e961dca-ba7d-46a8-b7e8-c08bb047e7cf"",""projectId"":""a0a8f18c-a66e-4ba7-a170-23efbdc67501""}","https://test12345.live/?participantId=19EB7F1A9A254C79947F194398F94246&assignmentId=5e961dca-ba7d-46a8-b7e8-c08bb047e7cf&projectId=a0a8f18c-a66e-4ba7-a170-23efbdc67501","19EB7F1A9A254C79947F194398F94246-2024-11-24-17-37-43","","null","","[]","null","",""
"","","","","","image-button-response","139","624713","0.0-16.0-1.0-0.6","19EB7F1A9A254C79947F194398F94246","19EB7F1A9A254C79947F194398F94246","5e961dca-ba7d-46a8-b7e8-c08bb047e7cf","a0a8f18c-a66e-4ba7-a170-23efbdc67501","{""participantId"":""19EB7F1A9A254C79947F194398F94246"",""assignmentId"":""5e961dca-ba7d-46a8-b7e8-c08bb047e7cf"",""projectId"":""a0a8f18c-a66e-4ba7-a170-23efbdc67501""}","https://test12345.live/?participantId=19EB7F1A9A254C79947F194398F94246&assignmentId=5e961dca-ba7d-46a8-b7e8-c08bb047e7cf&projectId=a0a8f18c-a66e-4ba7-a170-23efbdc67501","19EB7F1A9A254C79947F194398F94246-2024-11-24-17-37-43","","null","","images/schematic_sequence/restaurant_scheme/restaurant_scheme_7.png","null","",""
"","","","","","image-button-response","140","625451","0.0-16.0-1.0-1.6","19EB7F1A9A254C79947F194398F94246","19EB7F1A9A254C79947F194398F94246","5e961dca-ba7d-46a8-b7e8-c08bb047e7cf","a0a8f18c-a66e-4ba7-a170-23efbdc67501","{""participantId"":""19EB7F1A9A254C79947F194398F94246"",""assignmentId"":""5e961dca-ba7d-46a8-b7e8-c08bb047e7cf"",""projectId"":""a0a8f18c-a66e-4ba7-a170-23efbdc67501""}","https://test12345.live/?participantId=19EB7F1A9A254C79947F194398F94246&assignmentId=5e961dca-ba7d-46a8-b7e8-c08bb047e7cf&projectId=a0a8f18c-a66e-4ba7-a170-23efbdc67501","19EB7F1A9A254C79947F194398F94246-2024-11-24-17-37-43","","737","","images/schematic_sequence/restaurant_scheme/restaurant_scheme_7.png","1","",""
"","","","","","image-button-response","141","627254","0.0-16.0-1.0-2.6","19EB7F1A9A254C79947F194398F94246","19EB7F1A9A254C79947F194398F94246","5e961dca-ba7d-46a8-b7e8-c08bb047e7cf","a0a8f18c-a66e-4ba7-a170-23efbdc67501","{""participantId"":""19EB7F1A9A254C79947F194398F94246"",""assignmentId"":""5e961dca-ba7d-46a8-b7e8-c08bb047e7cf"",""projectId"":""a0a8f18c-a66e-4ba7-a170-23efbdc67501""}","https://test12345.live/?participantId=19EB7F1A9A254C79947F194398F94246&assignmentId=5e961dca-ba7d-46a8-b7e8-c08bb047e7cf&projectId=a0a8f18c-a66e-4ba7-a170-23efbdc67501","19EB7F1A9A254C79947F194398F94246-2024-11-24-17-37-43","","null","","[]","null","",""
"","","","","","image-button-response","142","631755","0.0-16.0-1.0-0.7","19EB7F1A9A254C79947F194398F94246","19EB7F1A9A254C79947F194398F94246","5e961dca-ba7d-46a8-b7e8-c08bb047e7cf","a0a8f18c-a66e-4ba7-a170-23efbdc67501","{""participantId"":""19EB7F1A9A254C79947F194398F94246"",""assignmentId"":""5e961dca-ba7d-46a8-b7e8-c08bb047e7cf"",""projectId"":""a0a8f18c-a66e-4ba7-a170-23efbdc67501""}","https://test12345.live/?participantId=19EB7F1A9A254C79947F194398F94246&assignmentId=5e961dca-ba7d-46a8-b7e8-c08bb047e7cf&projectId=a0a8f18c-a66e-4ba7-a170-23efbdc67501","19EB7F1A9A254C79947F194398F94246-2024-11-24-17-37-43","","null","","images/schematic_sequence/restaurant_scheme/restaurant_scheme_8.png","null","",""
