"success","timeout","failed_images","failed_audio","failed_video","trial_type","trial_index","time_elapsed","internal_node_id","subject","subject_id","study_id","session_id","urlvar","current_url","audio_id","view_history","rt","device_id","stimulus","response","estimated_stimulus_onset","seq_name"
"true","false","[]","[]","[]","preload","0","5416","0.0-0.0","19FB1404915F435982BFED72792BC23B","19FB1404915F435982BFED72792BC23B","8ec6a1d4-d2a7-4f8f-aa3f-858bf3fa82e8","a0b7c245-2e46-4983-bf8f-29c553c03130","{""participantId"":""19FB1404915F435982BFED72792BC23B"",""assignmentId"":""8ec6a1d4-d2a7-4f8f-aa3f-858bf3fa82e8"",""projectId"":""a0b7c245-2e46-4983-bf8f-29c553c03130""}","https://test12345.live/?participantId=19FB1404915F435982BFED72792BC23B&assignmentId=8ec6a1d4-d2a7-4f8f-aa3f-858bf3fa82e8&projectId=a0b7c245-2e46-4983-bf8f-29c553c03130","19FB1404915F435982BFED72792BC23B-2024-11-18-20-10-04","","","","","","",""
"","","","","","instructions","1","139823","0.0-1.0","19FB1404915F435982BFED72792BC23B","19FB1404915F435982BFED72792BC23B","8ec6a1d4-d2a7-4f8f-aa3f-858bf3fa82e8","a0b7c245-2e46-4983-bf8f-29c553c03130","{""participantId"":""19FB1404915F435982BFED72792BC23B"",""assignmentId"":""8ec6a1d4-d2a7-4f8f-aa3f-858bf3fa82e8"",""projectId"":""a0b7c245-2e46-4983-bf8f-29c553c03130""}","https://test12345.live/?participantId=19FB1404915F435982BFED72792BC23B&assignmentId=8ec6a1d4-d2a7-4f8f-aa3f-858bf3fa82e8&projectId=a0b7c245-2e46-4983-bf8f-29c553c03130","19FB1404915F435982BFED72792BC23B-2024-11-18-20-10-04","[{""page_index"":0,""viewing_time"":134409}]","134410","","","","",""
"","","","","","instructions","2","156718","0.0-2.0","19FB1404915F435982BFED72792BC23B","19FB1404915F435982BFED72792BC23B","8ec6a1d4-d2a7-4f8f-aa3f-858bf3fa82e8","a0b7c245-2e46-4983-bf8f-29c553c03130","{""participantId"":""19FB1404915F435982BFED72792BC23B"",""assignmentId"":""8ec6a1d4-d2a7-4f8f-aa3f-858bf3fa82e8"",""projectId"":""a0b7c245-2e46-4983-bf8f-29c553c03130""}","https://test12345.live/?participantId=19FB1404915F435982BFED72792BC23B&assignmentId=8ec6a1d4-d2a7-4f8f-aa3f-858bf3fa82e8&projectId=a0b7c245-2e46-4983-bf8f-29c553c03130","19FB1404915F435982BFED72792BC23B-2024-11-18-20-10-04","[{""page_index"":0,""viewing_time"":16897}]","16898","","","","",""
"true","","","","","fullscreen","3","160214","0.0-3.0","19FB1404915F435982BFED72792BC23B","19FB1404915F435982BFED72792BC23B","8ec6a1d4-d2a7-4f8f-aa3f-858bf3fa82e8","a0b7c245-2e46-4983-bf8f-29c553c03130","{""participantId"":""19FB1404915F435982BFED72792BC23B"",""assignmentId"":""8ec6a1d4-d2a7-4f8f-aa3f-858bf3fa82e8"",""projectId"":""a0b7c245-2e46-4983-bf8f-29c553c03130""}","https://test12345.live/?participantId=19FB1404915F435982BFED72792BC23B&assignmentId=8ec6a1d4-d2a7-4f8f-aa3f-858bf3fa82e8&projectId=a0b7c245-2e46-4983-bf8f-29c553c03130","19FB1404915F435982BFED72792BC23B-2024-11-18-20-10-04","","2498","","","","",""
"","","","","","initialize-microphone","4","169087","0.0-4.0-0.0","19FB1404915F435982BFED72792BC23B","19FB1404915F435982BFED72792BC23B","8ec6a1d4-d2a7-4f8f-aa3f-858bf3fa82e8","a0b7c245-2e46-4983-bf8f-29c553c03130","{""participantId"":""19FB1404915F435982BFED72792BC23B"",""assignmentId"":""8ec6a1d4-d2a7-4f8f-aa3f-858bf3fa82e8"",""projectId"":""a0b7c245-2e46-4983-bf8f-29c553c03130""}","https://test12345.live/?participantId=19FB1404915F435982BFED72792BC23B&assignmentId=8ec6a1d4-d2a7-4f8f-aa3f-858bf3fa82e8&projectId=a0b7c245-2e46-4983-bf8f-29c553c03130","19FB1404915F435982BFED72792BC23B-2024-11-18-20-10-04","","","7ce4b3cbf6b758723ba493a3b981820e6c8be1339c802e9fe14725985a6196b8","","","",""
"","","","","","html-audio-response","5","179244","0.0-4.0-1.0","19FB1404915F435982BFED72792BC23B","19FB1404915F435982BFED72792BC23B","8ec6a1d4-d2a7-4f8f-aa3f-858bf3fa82e8","a0b7c245-2e46-4983-bf8f-29c553c03130","{""participantId"":""19FB1404915F435982BFED72792BC23B"",""assignmentId"":""8ec6a1d4-d2a7-4f8f-aa3f-858bf3fa82e8"",""projectId"":""a0b7c245-2e46-4983-bf8f-29c553c03130""}","https://test12345.live/?participantId=19FB1404915F435982BFED72792BC23B&assignmentId=8ec6a1d4-d2a7-4f8f-aa3f-858bf3fa82e8&projectId=a0b7c245-2e46-4983-bf8f-29c553c03130","19FB1404915F435982BFED72792BC23B-2024-11-18-20-10-04","","3020","","<span style=""color: red; font-size: 24px""> NOW RECORDING</span>
        <p>Please test Microphone</p>","","1",""
"","","","","","html-button-response","6","180826","0.0-4.0-2.0","19FB1404915F435982BFED72792BC23B","19FB1404915F435982BFED72792BC23B","8ec6a1d4-d2a7-4f8f-aa3f-858bf3fa82e8","a0b7c245-2e46-4983-bf8f-29c553c03130","{""participantId"":""19FB1404915F435982BFED72792BC23B"",""assignmentId"":""8ec6a1d4-d2a7-4f8f-aa3f-858bf3fa82e8"",""projectId"":""a0b7c245-2e46-4983-bf8f-29c553c03130""}","https://test12345.live/?participantId=19FB1404915F435982BFED72792BC23B&assignmentId=8ec6a1d4-d2a7-4f8f-aa3f-858bf3fa82e8&projectId=a0b7c245-2e46-4983-bf8f-29c553c03130","19FB1404915F435982BFED72792BC23B-2024-11-18-20-10-04","","1581","","<p style=""font-size:48px; color:red;"">Is Microphone OK?</p>","1","",""
"","","","","","instructions","7","194338","0.0-5.0","19FB1404915F435982BFED72792BC23B","19FB1404915F435982BFED72792BC23B","8ec6a1d4-d2a7-4f8f-aa3f-858bf3fa82e8","a0b7c245-2e46-4983-bf8f-29c553c03130","{""participantId"":""19FB1404915F435982BFED72792BC23B"",""assignmentId"":""8ec6a1d4-d2a7-4f8f-aa3f-858bf3fa82e8"",""projectId"":""a0b7c245-2e46-4983-bf8f-29c553c03130""}","https://test12345.live/?participantId=19FB1404915F435982BFED72792BC23B&assignmentId=8ec6a1d4-d2a7-4f8f-aa3f-858bf3fa82e8&projectId=a0b7c245-2e46-4983-bf8f-29c553c03130","19FB1404915F435982BFED72792BC23B-2024-11-18-20-10-04","[{""page_index"":0,""viewing_time"":4716},{""page_index"":1,""viewing_time"":8799}]","13515","","","","",""
"","","","","","image-button-response","8","200346","0.0-6.0-0.0","19FB1404915F435982BFED72792BC23B","19FB1404915F435982BFED72792BC23B","8ec6a1d4-d2a7-4f8f-aa3f-858bf3fa82e8","a0b7c245-2e46-4983-bf8f-29c553c03130","{""participantId"":""19FB1404915F435982BFED72792BC23B"",""assignmentId"":""8ec6a1d4-d2a7-4f8f-aa3f-858bf3fa82e8"",""projectId"":""a0b7c245-2e46-4983-bf8f-29c553c03130""}","https://test12345.live/?participantId=19FB1404915F435982BFED72792BC23B&assignmentId=8ec6a1d4-d2a7-4f8f-aa3f-858bf3fa82e8&projectId=a0b7c245-2e46-4983-bf8f-29c553c03130","19FB1404915F435982BFED72792BC23B-2024-11-18-20-10-04","","null","","images/instructions/movie_0.png","null","",""
"","","","","","image-button-response","9","204854","0.0-6.0-1.0-0.0","19FB1404915F435982BFED72792BC23B","19FB1404915F435982BFED72792BC23B","8ec6a1d4-d2a7-4f8f-aa3f-858bf3fa82e8","a0b7c245-2e46-4983-bf8f-29c553c03130","{""participantId"":""19FB1404915F435982BFED72792BC23B"",""assignmentId"":""8ec6a1d4-d2a7-4f8f-aa3f-858bf3fa82e8"",""projectId"":""a0b7c245-2e46-4983-bf8f-29c553c03130""}","https://test12345.live/?participantId=19FB1404915F435982BFED72792BC23B&assignmentId=8ec6a1d4-d2a7-4f8f-aa3f-858bf3fa82e8&projectId=a0b7c245-2e46-4983-bf8f-29c553c03130","19FB1404915F435982BFED72792BC23B-2024-11-18-20-10-04","","null","","images/instructions/movie_1.png","null","",""
"","","","","","image-button-response","10","208119","0.0-6.0-1.0-1.0","19FB1404915F435982BFED72792BC23B","19FB1404915F435982BFED72792BC23B","8ec6a1d4-d2a7-4f8f-aa3f-858bf3fa82e8","a0b7c245-2e46-4983-bf8f-29c553c03130","{""participantId"":""19FB1404915F435982BFED72792BC23B"",""assignmentId"":""8ec6a1d4-d2a7-4f8f-aa3f-858bf3fa82e8"",""projectId"":""a0b7c245-2e46-4983-bf8f-29c553c03130""}","https://test12345.live/?participantId=19FB1404915F435982BFED72792BC23B&assignmentId=8ec6a1d4-d2a7-4f8f-aa3f-858bf3fa82e8&projectId=a0b7c245-2e46-4983-bf8f-29c553c03130","19FB1404915F435982BFED72792BC23B-2024-11-18-20-10-04","","3263","","images/instructions/movie_1.png","0","",""
"","","","","","image-button-response","11","209927","0.0-6.0-1.0-2.0","19FB1404915F435982BFED72792BC23B","19FB1404915F435982BFED72792BC23B","8ec6a1d4-d2a7-4f8f-aa3f-858bf3fa82e8","a0b7c245-2e46-4983-bf8f-29c553c03130","{""participantId"":""19FB1404915F435982BFED72792BC23B"",""assignmentId"":""8ec6a1d4-d2a7-4f8f-aa3f-858bf3fa82e8"",""projectId"":""a0b7c245-2e46-4983-bf8f-29c553c03130""}","https://test12345.live/?participantId=19FB1404915F435982BFED72792BC23B&assignmentId=8ec6a1d4-d2a7-4f8f-aa3f-858bf3fa82e8&projectId=a0b7c245-2e46-4983-bf8f-29c553c03130","19FB1404915F435982BFED72792BC23B-2024-11-18-20-10-04","","null","","[]","null","",""
"","","","","","image-button-response","12","214434","0.0-6.0-1.0-0.1","19FB1404915F435982BFED72792BC23B","19FB1404915F435982BFED72792BC23B","8ec6a1d4-d2a7-4f8f-aa3f-858bf3fa82e8","a0b7c245-2e46-4983-bf8f-29c553c03130","{""participantId"":""19FB1404915F435982BFED72792BC23B"",""assignmentId"":""8ec6a1d4-d2a7-4f8f-aa3f-858bf3fa82e8"",""projectId"":""a0b7c245-2e46-4983-bf8f-29c553c03130""}","https://test12345.live/?participantId=19FB1404915F435982BFED72792BC23B&assignmentId=8ec6a1d4-d2a7-4f8f-aa3f-858bf3fa82e8&projectId=a0b7c245-2e46-4983-bf8f-29c553c03130","19FB1404915F435982BFED72792BC23B-2024-11-18-20-10-04","","null","","images/instructions/movie_2.png","null","",""
"","","","","","image-button-response","13","217052","0.0-6.0-1.0-1.1","19FB1404915F435982BFED72792BC23B","19FB1404915F435982BFED72792BC23B","8ec6a1d4-d2a7-4f8f-aa3f-858bf3fa82e8","a0b7c245-2e46-4983-bf8f-29c553c03130","{""participantId"":""19FB1404915F435982BFED72792BC23B"",""assignmentId"":""8ec6a1d4-d2a7-4f8f-aa3f-858bf3fa82e8"",""projectId"":""a0b7c245-2e46-4983-bf8f-29c553c03130""}","https://test12345.live/?participantId=19FB1404915F435982BFED72792BC23B&assignmentId=8ec6a1d4-d2a7-4f8f-aa3f-858bf3fa82e8&projectId=a0b7c245-2e46-4983-bf8f-29c553c03130","19FB1404915F435982BFED72792BC23B-2024-11-18-20-10-04","","2616","","images/instructions/movie_2.png","1","",""
"","","","","","image-button-response","14","218854","0.0-6.0-1.0-2.1","19FB1404915F435982BFED72792BC23B","19FB1404915F435982BFED72792BC23B","8ec6a1d4-d2a7-4f8f-aa3f-858bf3fa82e8","a0b7c245-2e46-4983-bf8f-29c553c03130","{""participantId"":""19FB1404915F435982BFED72792BC23B"",""assignmentId"":""8ec6a1d4-d2a7-4f8f-aa3f-858bf3fa82e8"",""projectId"":""a0b7c245-2e46-4983-bf8f-29c553c03130""}","https://test12345.live/?participantId=19FB1404915F435982BFED72792BC23B&assignmentId=8ec6a1d4-d2a7-4f8f-aa3f-858bf3fa82e8&projectId=a0b7c245-2e46-4983-bf8f-29c553c03130","19FB1404915F435982BFED72792BC23B-2024-11-18-20-10-04","","null","","[]","null","",""
"","","","","","image-button-response","15","223362","0.0-6.0-1.0-0.2","19FB1404915F435982BFED72792BC23B","19FB1404915F435982BFED72792BC23B","8ec6a1d4-d2a7-4f8f-aa3f-858bf3fa82e8","a0b7c245-2e46-4983-bf8f-29c553c03130","{""participantId"":""19FB1404915F435982BFED72792BC23B"",""assignmentId"":""8ec6a1d4-d2a7-4f8f-aa3f-858bf3fa82e8"",""projectId"":""a0b7c245-2e46-4983-bf8f-29c553c03130""}","https://test12345.live/?participantId=19FB1404915F435982BFED72792BC23B&assignmentId=8ec6a1d4-d2a7-4f8f-aa3f-858bf3fa82e8&projectId=a0b7c245-2e46-4983-bf8f-29c553c03130","19FB1404915F435982BFED72792BC23B-2024-11-18-20-10-04","","null","","images/instructions/movie_3.png","null","",""
"","","","","","image-button-response","16","225235","0.0-6.0-1.0-1.2","19FB1404915F435982BFED72792BC23B","19FB1404915F435982BFED72792BC23B","8ec6a1d4-d2a7-4f8f-aa3f-858bf3fa82e8","a0b7c245-2e46-4983-bf8f-29c553c03130","{""participantId"":""19FB1404915F435982BFED72792BC23B"",""assignmentId"":""8ec6a1d4-d2a7-4f8f-aa3f-858bf3fa82e8"",""projectId"":""a0b7c245-2e46-4983-bf8f-29c553c03130""}","https://test12345.live/?participantId=19FB1404915F435982BFED72792BC23B&assignmentId=8ec6a1d4-d2a7-4f8f-aa3f-858bf3fa82e8&projectId=a0b7c245-2e46-4983-bf8f-29c553c03130","19FB1404915F435982BFED72792BC23B-2024-11-18-20-10-04","","1871","","images/instructions/movie_3.png","0","",""
"","","","","","image-button-response","17","227040","0.0-6.0-1.0-2.2","19FB1404915F435982BFED72792BC23B","19FB1404915F435982BFED72792BC23B","8ec6a1d4-d2a7-4f8f-aa3f-858bf3fa82e8","a0b7c245-2e46-4983-bf8f-29c553c03130","{""participantId"":""19FB1404915F435982BFED72792BC23B"",""assignmentId"":""8ec6a1d4-d2a7-4f8f-aa3f-858bf3fa82e8"",""projectId"":""a0b7c245-2e46-4983-bf8f-29c553c03130""}","https://test12345.live/?participantId=19FB1404915F435982BFED72792BC23B&assignmentId=8ec6a1d4-d2a7-4f8f-aa3f-858bf3fa82e8&projectId=a0b7c245-2e46-4983-bf8f-29c553c03130","19FB1404915F435982BFED72792BC23B-2024-11-18-20-10-04","","null","","[]","null","",""
"","","","","","image-button-response","18","231546","0.0-6.0-1.0-0.3","19FB1404915F435982BFED72792BC23B","19FB1404915F435982BFED72792BC23B","8ec6a1d4-d2a7-4f8f-aa3f-858bf3fa82e8","a0b7c245-2e46-4983-bf8f-29c553c03130","{""participantId"":""19FB1404915F435982BFED72792BC23B"",""assignmentId"":""8ec6a1d4-d2a7-4f8f-aa3f-858bf3fa82e8"",""projectId"":""a0b7c245-2e46-4983-bf8f-29c553c03130""}","https://test12345.live/?participantId=19FB1404915F435982BFED72792BC23B&assignmentId=8ec6a1d4-d2a7-4f8f-aa3f-858bf3fa82e8&projectId=a0b7c245-2e46-4983-bf8f-29c553c03130","19FB1404915F435982BFED72792BC23B-2024-11-18-20-10-04","","null","","images/instructions/movie_4.png","null","",""
"","","","","","image-button-response","19","232919","0.0-6.0-1.0-1.3","19FB1404915F435982BFED72792BC23B","19FB1404915F435982BFED72792BC23B","8ec6a1d4-d2a7-4f8f-aa3f-858bf3fa82e8","a0b7c245-2e46-4983-bf8f-29c553c03130","{""participantId"":""19FB1404915F435982BFED72792BC23B"",""assignmentId"":""8ec6a1d4-d2a7-4f8f-aa3f-858bf3fa82e8"",""projectId"":""a0b7c245-2e46-4983-bf8f-29c553c03130""}","https://test12345.live/?participantId=19FB1404915F435982BFED72792BC23B&assignmentId=8ec6a1d4-d2a7-4f8f-aa3f-858bf3fa82e8&projectId=a0b7c245-2e46-4983-bf8f-29c553c03130","19FB1404915F435982BFED72792BC23B-2024-11-18-20-10-04","","1370","","images/instructions/movie_4.png","0","",""
"","","","","","image-button-response","20","234725","0.0-6.0-1.0-2.3","19FB1404915F435982BFED72792BC23B","19FB1404915F435982BFED72792BC23B","8ec6a1d4-d2a7-4f8f-aa3f-858bf3fa82e8","a0b7c245-2e46-4983-bf8f-29c553c03130","{""participantId"":""19FB1404915F435982BFED72792BC23B"",""assignmentId"":""8ec6a1d4-d2a7-4f8f-aa3f-858bf3fa82e8"",""projectId"":""a0b7c245-2e46-4983-bf8f-29c553c03130""}","https://test12345.live/?participantId=19FB1404915F435982BFED72792BC23B&assignmentId=8ec6a1d4-d2a7-4f8f-aa3f-858bf3fa82e8&projectId=a0b7c245-2e46-4983-bf8f-29c553c03130","19FB1404915F435982BFED72792BC23B-2024-11-18-20-10-04","","null","","[]","null","",""
"","","","","","instructions","21","242202","0.0-7.0","19FB1404915F435982BFED72792BC23B","19FB1404915F435982BFED72792BC23B","8ec6a1d4-d2a7-4f8f-aa3f-858bf3fa82e8","a0b7c245-2e46-4983-bf8f-29c553c03130","{""participantId"":""19FB1404915F435982BFED72792BC23B"",""assignmentId"":""8ec6a1d4-d2a7-4f8f-aa3f-858bf3fa82e8"",""projectId"":""a0b7c245-2e46-4983-bf8f-29c553c03130""}","https://test12345.live/?participantId=19FB1404915F435982BFED72792BC23B&assignmentId=8ec6a1d4-d2a7-4f8f-aa3f-858bf3fa82e8&projectId=a0b7c245-2e46-4983-bf8f-29c553c03130","19FB1404915F435982BFED72792BC23B-2024-11-18-20-10-04","[{""page_index"":0,""viewing_time"":5793},{""page_index"":1,""viewing_time"":1684}]","7477","","","","",""
"","","","","","html-audio-response","22","275051","0.0-8.0","19FB1404915F435982BFED72792BC23B","19FB1404915F435982BFED72792BC23B","8ec6a1d4-d2a7-4f8f-aa3f-858bf3fa82e8","a0b7c245-2e46-4983-bf8f-29c553c03130","{""participantId"":""19FB1404915F435982BFED72792BC23B"",""assignmentId"":""8ec6a1d4-d2a7-4f8f-aa3f-858bf3fa82e8"",""projectId"":""a0b7c245-2e46-4983-bf8f-29c553c03130""}","https://test12345.live/?participantId=19FB1404915F435982BFED72792BC23B&assignmentId=8ec6a1d4-d2a7-4f8f-aa3f-858bf3fa82e8&projectId=a0b7c245-2e46-4983-bf8f-29c553c03130","19FB1404915F435982BFED72792BC23B-2024-11-18-20-10-04","","11975","","[""<span style=\""color: red; font-size: 24px\""> NOW RECORDING</span><p>Please say out loud all the images you saw, as many as you can remember. The images can be said in any order.</p>""]","","2",""
"","","","","","instructions","23","276551","0.0-9.0","19FB1404915F435982BFED72792BC23B","19FB1404915F435982BFED72792BC23B","8ec6a1d4-d2a7-4f8f-aa3f-858bf3fa82e8","a0b7c245-2e46-4983-bf8f-29c553c03130","{""participantId"":""19FB1404915F435982BFED72792BC23B"",""assignmentId"":""8ec6a1d4-d2a7-4f8f-aa3f-858bf3fa82e8"",""projectId"":""a0b7c245-2e46-4983-bf8f-29c553c03130""}","https://test12345.live/?participantId=19FB1404915F435982BFED72792BC23B&assignmentId=8ec6a1d4-d2a7-4f8f-aa3f-858bf3fa82e8&projectId=a0b7c245-2e46-4983-bf8f-29c553c03130","19FB1404915F435982BFED72792BC23B-2024-11-18-20-10-04","[{""page_index"":0,""viewing_time"":1494}]","1495","","","","",""
"","","","","","image-button-response","24","282558","0.0-10.0-0.0","19FB1404915F435982BFED72792BC23B","19FB1404915F435982BFED72792BC23B","8ec6a1d4-d2a7-4f8f-aa3f-858bf3fa82e8","a0b7c245-2e46-4983-bf8f-29c553c03130","{""participantId"":""19FB1404915F435982BFED72792BC23B"",""assignmentId"":""8ec6a1d4-d2a7-4f8f-aa3f-858bf3fa82e8"",""projectId"":""a0b7c245-2e46-4983-bf8f-29c553c03130""}","https://test12345.live/?participantId=19FB1404915F435982BFED72792BC23B&assignmentId=8ec6a1d4-d2a7-4f8f-aa3f-858bf3fa82e8&projectId=a0b7c245-2e46-4983-bf8f-29c553c03130","19FB1404915F435982BFED72792BC23B-2024-11-18-20-10-04","","null","","images/schematic_sequence/flight_scheme/flight_scheme_0.png","null","",""
"","","","","","image-button-response","25","287062","0.0-10.0-1.0-0.0","19FB1404915F435982BFED72792BC23B","19FB1404915F435982BFED72792BC23B","8ec6a1d4-d2a7-4f8f-aa3f-858bf3fa82e8","a0b7c245-2e46-4983-bf8f-29c553c03130","{""participantId"":""19FB1404915F435982BFED72792BC23B"",""assignmentId"":""8ec6a1d4-d2a7-4f8f-aa3f-858bf3fa82e8"",""projectId"":""a0b7c245-2e46-4983-bf8f-29c553c03130""}","https://test12345.live/?participantId=19FB1404915F435982BFED72792BC23B&assignmentId=8ec6a1d4-d2a7-4f8f-aa3f-858bf3fa82e8&projectId=a0b7c245-2e46-4983-bf8f-29c553c03130","19FB1404915F435982BFED72792BC23B-2024-11-18-20-10-04","","null","","images/schematic_sequence/flight_scheme/flight_scheme_ten.png","null","",""
"","","","","","image-button-response","26","288969","0.0-10.0-1.0-1.0","19FB1404915F435982BFED72792BC23B","19FB1404915F435982BFED72792BC23B","8ec6a1d4-d2a7-4f8f-aa3f-858bf3fa82e8","a0b7c245-2e46-4983-bf8f-29c553c03130","{""participantId"":""19FB1404915F435982BFED72792BC23B"",""assignmentId"":""8ec6a1d4-d2a7-4f8f-aa3f-858bf3fa82e8"",""projectId"":""a0b7c245-2e46-4983-bf8f-29c553c03130""}","https://test12345.live/?participantId=19FB1404915F435982BFED72792BC23B&assignmentId=8ec6a1d4-d2a7-4f8f-aa3f-858bf3fa82e8&projectId=a0b7c245-2e46-4983-bf8f-29c553c03130","19FB1404915F435982BFED72792BC23B-2024-11-18-20-10-04","","1905","","images/schematic_sequence/flight_scheme/flight_scheme_ten.png","0","",""
"","","","","","image-button-response","27","290775","0.0-10.0-1.0-2.0","19FB1404915F435982BFED72792BC23B","19FB1404915F435982BFED72792BC23B","8ec6a1d4-d2a7-4f8f-aa3f-858bf3fa82e8","a0b7c245-2e46-4983-bf8f-29c553c03130","{""participantId"":""19FB1404915F435982BFED72792BC23B"",""assignmentId"":""8ec6a1d4-d2a7-4f8f-aa3f-858bf3fa82e8"",""projectId"":""a0b7c245-2e46-4983-bf8f-29c553c03130""}","https://test12345.live/?participantId=19FB1404915F435982BFED72792BC23B&assignmentId=8ec6a1d4-d2a7-4f8f-aa3f-858bf3fa82e8&projectId=a0b7c245-2e46-4983-bf8f-29c553c03130","19FB1404915F435982BFED72792BC23B-2024-11-18-20-10-04","","null","","[]","null","",""
"","","","","","image-button-response","28","295282","0.0-10.0-1.0-0.1","19FB1404915F435982BFED72792BC23B","19FB1404915F435982BFED72792BC23B","8ec6a1d4-d2a7-4f8f-aa3f-858bf3fa82e8","a0b7c245-2e46-4983-bf8f-29c553c03130","{""participantId"":""19FB1404915F435982BFED72792BC23B"",""assignmentId"":""8ec6a1d4-d2a7-4f8f-aa3f-858bf3fa82e8"",""projectId"":""a0b7c245-2e46-4983-bf8f-29c553c03130""}","https://test12345.live/?participantId=19FB1404915F435982BFED72792BC23B&assignmentId=8ec6a1d4-d2a7-4f8f-aa3f-858bf3fa82e8&projectId=a0b7c245-2e46-4983-bf8f-29c553c03130","19FB1404915F435982BFED72792BC23B-2024-11-18-20-10-04","","null","","images/schematic_sequence/flight_scheme/flight_scheme_2.png","null","",""
"","","","","","image-button-response","29","296785","0.0-10.0-1.0-1.1","19FB1404915F435982BFED72792BC23B","19FB1404915F435982BFED72792BC23B","8ec6a1d4-d2a7-4f8f-aa3f-858bf3fa82e8","a0b7c245-2e46-4983-bf8f-29c553c03130","{""participantId"":""19FB1404915F435982BFED72792BC23B"",""assignmentId"":""8ec6a1d4-d2a7-4f8f-aa3f-858bf3fa82e8"",""projectId"":""a0b7c245-2e46-4983-bf8f-29c553c03130""}","https://test12345.live/?participantId=19FB1404915F435982BFED72792BC23B&assignmentId=8ec6a1d4-d2a7-4f8f-aa3f-858bf3fa82e8&projectId=a0b7c245-2e46-4983-bf8f-29c553c03130","19FB1404915F435982BFED72792BC23B-2024-11-18-20-10-04","","1501","","images/schematic_sequence/flight_scheme/flight_scheme_2.png","1","",""
"","","","","","image-button-response","30","298588","0.0-10.0-1.0-2.1","19FB1404915F435982BFED72792BC23B","19FB1404915F435982BFED72792BC23B","8ec6a1d4-d2a7-4f8f-aa3f-858bf3fa82e8","a0b7c245-2e46-4983-bf8f-29c553c03130","{""participantId"":""19FB1404915F435982BFED72792BC23B"",""assignmentId"":""8ec6a1d4-d2a7-4f8f-aa3f-858bf3fa82e8"",""projectId"":""a0b7c245-2e46-4983-bf8f-29c553c03130""}","https://test12345.live/?participantId=19FB1404915F435982BFED72792BC23B&assignmentId=8ec6a1d4-d2a7-4f8f-aa3f-858bf3fa82e8&projectId=a0b7c245-2e46-4983-bf8f-29c553c03130","19FB1404915F435982BFED72792BC23B-2024-11-18-20-10-04","","null","","[]","null","",""
"","","","","","image-button-response","31","303090","0.0-10.0-1.0-0.2","19FB1404915F435982BFED72792BC23B","19FB1404915F435982BFED72792BC23B","8ec6a1d4-d2a7-4f8f-aa3f-858bf3fa82e8","a0b7c245-2e46-4983-bf8f-29c553c03130","{""participantId"":""19FB1404915F435982BFED72792BC23B"",""assignmentId"":""8ec6a1d4-d2a7-4f8f-aa3f-858bf3fa82e8"",""projectId"":""a0b7c245-2e46-4983-bf8f-29c553c03130""}","https://test12345.live/?participantId=19FB1404915F435982BFED72792BC23B&assignmentId=8ec6a1d4-d2a7-4f8f-aa3f-858bf3fa82e8&projectId=a0b7c245-2e46-4983-bf8f-29c553c03130","19FB1404915F435982BFED72792BC23B-2024-11-18-20-10-04","","null","","images/schematic_sequence/flight_scheme/flight_scheme_6.png","null","",""
"","","","","","image-button-response","32","306052","0.0-10.0-1.0-1.2","19FB1404915F435982BFED72792BC23B","19FB1404915F435982BFED72792BC23B","8ec6a1d4-d2a7-4f8f-aa3f-858bf3fa82e8","a0b7c245-2e46-4983-bf8f-29c553c03130","{""participantId"":""19FB1404915F435982BFED72792BC23B"",""assignmentId"":""8ec6a1d4-d2a7-4f8f-aa3f-858bf3fa82e8"",""projectId"":""a0b7c245-2e46-4983-bf8f-29c553c03130""}","https://test12345.live/?participantId=19FB1404915F435982BFED72792BC23B&assignmentId=8ec6a1d4-d2a7-4f8f-aa3f-858bf3fa82e8&projectId=a0b7c245-2e46-4983-bf8f-29c553c03130","19FB1404915F435982BFED72792BC23B-2024-11-18-20-10-04","","2959","","images/schematic_sequence/flight_scheme/flight_scheme_6.png","1","",""
"","","","","","image-button-response","33","307858","0.0-10.0-1.0-2.2","19FB1404915F435982BFED72792BC23B","19FB1404915F435982BFED72792BC23B","8ec6a1d4-d2a7-4f8f-aa3f-858bf3fa82e8","a0b7c245-2e46-4983-bf8f-29c553c03130","{""participantId"":""19FB1404915F435982BFED72792BC23B"",""assignmentId"":""8ec6a1d4-d2a7-4f8f-aa3f-858bf3fa82e8"",""projectId"":""a0b7c245-2e46-4983-bf8f-29c553c03130""}","https://test12345.live/?participantId=19FB1404915F435982BFED72792BC23B&assignmentId=8ec6a1d4-d2a7-4f8f-aa3f-858bf3fa82e8&projectId=a0b7c245-2e46-4983-bf8f-29c553c03130","19FB1404915F435982BFED72792BC23B-2024-11-18-20-10-04","","null","","[]","null","",""
"","","","","","image-button-response","34","312365","0.0-10.0-1.0-0.3","19FB1404915F435982BFED72792BC23B","19FB1404915F435982BFED72792BC23B","8ec6a1d4-d2a7-4f8f-aa3f-858bf3fa82e8","a0b7c245-2e46-4983-bf8f-29c553c03130","{""participantId"":""19FB1404915F435982BFED72792BC23B"",""assignmentId"":""8ec6a1d4-d2a7-4f8f-aa3f-858bf3fa82e8"",""projectId"":""a0b7c245-2e46-4983-bf8f-29c553c03130""}","https://test12345.live/?participantId=19FB1404915F435982BFED72792BC23B&assignmentId=8ec6a1d4-d2a7-4f8f-aa3f-858bf3fa82e8&projectId=a0b7c245-2e46-4983-bf8f-29c553c03130","19FB1404915F435982BFED72792BC23B-2024-11-18-20-10-04","","null","","images/schematic_sequence/flight_scheme/flight_scheme_9.png","null","",""
"","","","","","image-button-response","35","314936","0.0-10.0-1.0-1.3","19FB1404915F435982BFED72792BC23B","19FB1404915F435982BFED72792BC23B","8ec6a1d4-d2a7-4f8f-aa3f-858bf3fa82e8","a0b7c245-2e46-4983-bf8f-29c553c03130","{""participantId"":""19FB1404915F435982BFED72792BC23B"",""assignmentId"":""8ec6a1d4-d2a7-4f8f-aa3f-858bf3fa82e8"",""projectId"":""a0b7c245-2e46-4983-bf8f-29c553c03130""}","https://test12345.live/?participantId=19FB1404915F435982BFED72792BC23B&assignmentId=8ec6a1d4-d2a7-4f8f-aa3f-858bf3fa82e8&projectId=a0b7c245-2e46-4983-bf8f-29c553c03130","19FB1404915F435982BFED72792BC23B-2024-11-18-20-10-04","","2569","","images/schematic_sequence/flight_scheme/flight_scheme_9.png","0","",""
"","","","","","image-button-response","36","316742","0.0-10.0-1.0-2.3","19FB1404915F435982BFED72792BC23B","19FB1404915F435982BFED72792BC23B","8ec6a1d4-d2a7-4f8f-aa3f-858bf3fa82e8","a0b7c245-2e46-4983-bf8f-29c553c03130","{""participantId"":""19FB1404915F435982BFED72792BC23B"",""assignmentId"":""8ec6a1d4-d2a7-4f8f-aa3f-858bf3fa82e8"",""projectId"":""a0b7c245-2e46-4983-bf8f-29c553c03130""}","https://test12345.live/?participantId=19FB1404915F435982BFED72792BC23B&assignmentId=8ec6a1d4-d2a7-4f8f-aa3f-858bf3fa82e8&projectId=a0b7c245-2e46-4983-bf8f-29c553c03130","19FB1404915F435982BFED72792BC23B-2024-11-18-20-10-04","","null","","[]","null","",""
"","","","","","image-button-response","37","321250","0.0-10.0-1.0-0.4","19FB1404915F435982BFED72792BC23B","19FB1404915F435982BFED72792BC23B","8ec6a1d4-d2a7-4f8f-aa3f-858bf3fa82e8","a0b7c245-2e46-4983-bf8f-29c553c03130","{""participantId"":""19FB1404915F435982BFED72792BC23B"",""assignmentId"":""8ec6a1d4-d2a7-4f8f-aa3f-858bf3fa82e8"",""projectId"":""a0b7c245-2e46-4983-bf8f-29c553c03130""}","https://test12345.live/?participantId=19FB1404915F435982BFED72792BC23B&assignmentId=8ec6a1d4-d2a7-4f8f-aa3f-858bf3fa82e8&projectId=a0b7c245-2e46-4983-bf8f-29c553c03130","19FB1404915F435982BFED72792BC23B-2024-11-18-20-10-04","","null","","images/schematic_sequence/flight_scheme/flight_scheme_4.png","null","",""
"","","","","","image-button-response","38","323633","0.0-10.0-1.0-1.4","19FB1404915F435982BFED72792BC23B","19FB1404915F435982BFED72792BC23B","8ec6a1d4-d2a7-4f8f-aa3f-858bf3fa82e8","a0b7c245-2e46-4983-bf8f-29c553c03130","{""participantId"":""19FB1404915F435982BFED72792BC23B"",""assignmentId"":""8ec6a1d4-d2a7-4f8f-aa3f-858bf3fa82e8"",""projectId"":""a0b7c245-2e46-4983-bf8f-29c553c03130""}","https://test12345.live/?participantId=19FB1404915F435982BFED72792BC23B&assignmentId=8ec6a1d4-d2a7-4f8f-aa3f-858bf3fa82e8&projectId=a0b7c245-2e46-4983-bf8f-29c553c03130","19FB1404915F435982BFED72792BC23B-2024-11-18-20-10-04","","2382","","images/schematic_sequence/flight_scheme/flight_scheme_4.png","0","",""
"","","","","","image-button-response","39","325435","0.0-10.0-1.0-2.4","19FB1404915F435982BFED72792BC23B","19FB1404915F435982BFED72792BC23B","8ec6a1d4-d2a7-4f8f-aa3f-858bf3fa82e8","a0b7c245-2e46-4983-bf8f-29c553c03130","{""participantId"":""19FB1404915F435982BFED72792BC23B"",""assignmentId"":""8ec6a1d4-d2a7-4f8f-aa3f-858bf3fa82e8"",""projectId"":""a0b7c245-2e46-4983-bf8f-29c553c03130""}","https://test12345.live/?participantId=19FB1404915F435982BFED72792BC23B&assignmentId=8ec6a1d4-d2a7-4f8f-aa3f-858bf3fa82e8&projectId=a0b7c245-2e46-4983-bf8f-29c553c03130","19FB1404915F435982BFED72792BC23B-2024-11-18-20-10-04","","null","","[]","null","",""
"","","","","","image-button-response","40","329941","0.0-10.0-1.0-0.5","19FB1404915F435982BFED72792BC23B","19FB1404915F435982BFED72792BC23B","8ec6a1d4-d2a7-4f8f-aa3f-858bf3fa82e8","a0b7c245-2e46-4983-bf8f-29c553c03130","{""participantId"":""19FB1404915F435982BFED72792BC23B"",""assignmentId"":""8ec6a1d4-d2a7-4f8f-aa3f-858bf3fa82e8"",""projectId"":""a0b7c245-2e46-4983-bf8f-29c553c03130""}","https://test12345.live/?participantId=19FB1404915F435982BFED72792BC23B&assignmentId=8ec6a1d4-d2a7-4f8f-aa3f-858bf3fa82e8&projectId=a0b7c245-2e46-4983-bf8f-29c553c03130","19FB1404915F435982BFED72792BC23B-2024-11-18-20-10-04","","null","","images/schematic_sequence/flight_scheme/flight_scheme_3.png","null","",""
"","","","","","image-button-response","41","332284","0.0-10.0-1.0-1.5","19FB1404915F435982BFED72792BC23B","19FB1404915F435982BFED72792BC23B","8ec6a1d4-d2a7-4f8f-aa3f-858bf3fa82e8","a0b7c245-2e46-4983-bf8f-29c553c03130","{""participantId"":""19FB1404915F435982BFED72792BC23B"",""assignmentId"":""8ec6a1d4-d2a7-4f8f-aa3f-858bf3fa82e8"",""projectId"":""a0b7c245-2e46-4983-bf8f-29c553c03130""}","https://test12345.live/?participantId=19FB1404915F435982BFED72792BC23B&assignmentId=8ec6a1d4-d2a7-4f8f-aa3f-858bf3fa82e8&projectId=a0b7c245-2e46-4983-bf8f-29c553c03130","19FB1404915F435982BFED72792BC23B-2024-11-18-20-10-04","","2341","","images/schematic_sequence/flight_scheme/flight_scheme_3.png","0","",""
"","","","","","image-button-response","42","334088","0.0-10.0-1.0-2.5","19FB1404915F435982BFED72792BC23B","19FB1404915F435982BFED72792BC23B","8ec6a1d4-d2a7-4f8f-aa3f-858bf3fa82e8","a0b7c245-2e46-4983-bf8f-29c553c03130","{""participantId"":""19FB1404915F435982BFED72792BC23B"",""assignmentId"":""8ec6a1d4-d2a7-4f8f-aa3f-858bf3fa82e8"",""projectId"":""a0b7c245-2e46-4983-bf8f-29c553c03130""}","https://test12345.live/?participantId=19FB1404915F435982BFED72792BC23B&assignmentId=8ec6a1d4-d2a7-4f8f-aa3f-858bf3fa82e8&projectId=a0b7c245-2e46-4983-bf8f-29c553c03130","19FB1404915F435982BFED72792BC23B-2024-11-18-20-10-04","","null","","[]","null","",""
"","","","","","image-button-response","43","338595","0.0-10.0-1.0-0.6","19FB1404915F435982BFED72792BC23B","19FB1404915F435982BFED72792BC23B","8ec6a1d4-d2a7-4f8f-aa3f-858bf3fa82e8","a0b7c245-2e46-4983-bf8f-29c553c03130","{""participantId"":""19FB1404915F435982BFED72792BC23B"",""assignmentId"":""8ec6a1d4-d2a7-4f8f-aa3f-858bf3fa82e8"",""projectId"":""a0b7c245-2e46-4983-bf8f-29c553c03130""}","https://test12345.live/?participantId=19FB1404915F435982BFED72792BC23B&assignmentId=8ec6a1d4-d2a7-4f8f-aa3f-858bf3fa82e8&projectId=a0b7c245-2e46-4983-bf8f-29c553c03130","19FB1404915F435982BFED72792BC23B-2024-11-18-20-10-04","","null","","images/schematic_sequence/flight_scheme/flight_scheme_1.png","null","",""
"","","","","","image-button-response","44","340918","0.0-10.0-1.0-1.6","19FB1404915F435982BFED72792BC23B","19FB1404915F435982BFED72792BC23B","8ec6a1d4-d2a7-4f8f-aa3f-858bf3fa82e8","a0b7c245-2e46-4983-bf8f-29c553c03130","{""participantId"":""19FB1404915F435982BFED72792BC23B"",""assignmentId"":""8ec6a1d4-d2a7-4f8f-aa3f-858bf3fa82e8"",""projectId"":""a0b7c245-2e46-4983-bf8f-29c553c03130""}","https://test12345.live/?participantId=19FB1404915F435982BFED72792BC23B&assignmentId=8ec6a1d4-d2a7-4f8f-aa3f-858bf3fa82e8&projectId=a0b7c245-2e46-4983-bf8f-29c553c03130","19FB1404915F435982BFED72792BC23B-2024-11-18-20-10-04","","2320","","images/schematic_sequence/flight_scheme/flight_scheme_1.png","1","",""
"","","","","","image-button-response","45","342725","0.0-10.0-1.0-2.6","19FB1404915F435982BFED72792BC23B","19FB1404915F435982BFED72792BC23B","8ec6a1d4-d2a7-4f8f-aa3f-858bf3fa82e8","a0b7c245-2e46-4983-bf8f-29c553c03130","{""participantId"":""19FB1404915F435982BFED72792BC23B"",""assignmentId"":""8ec6a1d4-d2a7-4f8f-aa3f-858bf3fa82e8"",""projectId"":""a0b7c245-2e46-4983-bf8f-29c553c03130""}","https://test12345.live/?participantId=19FB1404915F435982BFED72792BC23B&assignmentId=8ec6a1d4-d2a7-4f8f-aa3f-858bf3fa82e8&projectId=a0b7c245-2e46-4983-bf8f-29c553c03130","19FB1404915F435982BFED72792BC23B-2024-11-18-20-10-04","","null","","[]","null","",""
"","","","","","image-button-response","46","347232","0.0-10.0-1.0-0.7","19FB1404915F435982BFED72792BC23B","19FB1404915F435982BFED72792BC23B","8ec6a1d4-d2a7-4f8f-aa3f-858bf3fa82e8","a0b7c245-2e46-4983-bf8f-29c553c03130","{""participantId"":""19FB1404915F435982BFED72792BC23B"",""assignmentId"":""8ec6a1d4-d2a7-4f8f-aa3f-858bf3fa82e8"",""projectId"":""a0b7c245-2e46-4983-bf8f-29c553c03130""}","https://test12345.live/?participantId=19FB1404915F435982BFED72792BC23B&assignmentId=8ec6a1d4-d2a7-4f8f-aa3f-858bf3fa82e8&projectId=a0b7c245-2e46-4983-bf8f-29c553c03130","19FB1404915F435982BFED72792BC23B-2024-11-18-20-10-04","","null","","images/schematic_sequence/flight_scheme/flight_scheme_5.png","null","",""
"","","","","","image-button-response","47","348836","0.0-10.0-1.0-1.7","19FB1404915F435982BFED72792BC23B","19FB1404915F435982BFED72792BC23B","8ec6a1d4-d2a7-4f8f-aa3f-858bf3fa82e8","a0b7c245-2e46-4983-bf8f-29c553c03130","{""participantId"":""19FB1404915F435982BFED72792BC23B"",""assignmentId"":""8ec6a1d4-d2a7-4f8f-aa3f-858bf3fa82e8"",""projectId"":""a0b7c245-2e46-4983-bf8f-29c553c03130""}","https://test12345.live/?participantId=19FB1404915F435982BFED72792BC23B&assignmentId=8ec6a1d4-d2a7-4f8f-aa3f-858bf3fa82e8&projectId=a0b7c245-2e46-4983-bf8f-29c553c03130","19FB1404915F435982BFED72792BC23B-2024-11-18-20-10-04","","1602","","images/schematic_sequence/flight_scheme/flight_scheme_5.png","0","",""
"","","","","","image-button-response","48","350638","0.0-10.0-1.0-2.7","19FB1404915F435982BFED72792BC23B","19FB1404915F435982BFED72792BC23B","8ec6a1d4-d2a7-4f8f-aa3f-858bf3fa82e8","a0b7c245-2e46-4983-bf8f-29c553c03130","{""participantId"":""19FB1404915F435982BFED72792BC23B"",""assignmentId"":""8ec6a1d4-d2a7-4f8f-aa3f-858bf3fa82e8"",""projectId"":""a0b7c245-2e46-4983-bf8f-29c553c03130""}","https://test12345.live/?participantId=19FB1404915F435982BFED72792BC23B&assignmentId=8ec6a1d4-d2a7-4f8f-aa3f-858bf3fa82e8&projectId=a0b7c245-2e46-4983-bf8f-29c553c03130","19FB1404915F435982BFED72792BC23B-2024-11-18-20-10-04","","null","","[]","null","",""
"","","","","","image-button-response","49","355144","0.0-10.0-1.0-0.8","19FB1404915F435982BFED72792BC23B","19FB1404915F435982BFED72792BC23B","8ec6a1d4-d2a7-4f8f-aa3f-858bf3fa82e8","a0b7c245-2e46-4983-bf8f-29c553c03130","{""participantId"":""19FB1404915F435982BFED72792BC23B"",""assignmentId"":""8ec6a1d4-d2a7-4f8f-aa3f-858bf3fa82e8"",""projectId"":""a0b7c245-2e46-4983-bf8f-29c553c03130""}","https://test12345.live/?participantId=19FB1404915F435982BFED72792BC23B&assignmentId=8ec6a1d4-d2a7-4f8f-aa3f-858bf3fa82e8&projectId=a0b7c245-2e46-4983-bf8f-29c553c03130","19FB1404915F435982BFED72792BC23B-2024-11-18-20-10-04","","null","","images/schematic_sequence/flight_scheme/flight_scheme_8.png","null","",""
"","","","","","image-button-response","50","359018","0.0-10.0-1.0-1.8","19FB1404915F435982BFED72792BC23B","19FB1404915F435982BFED72792BC23B","8ec6a1d4-d2a7-4f8f-aa3f-858bf3fa82e8","a0b7c245-2e46-4983-bf8f-29c553c03130","{""participantId"":""19FB1404915F435982BFED72792BC23B"",""assignmentId"":""8ec6a1d4-d2a7-4f8f-aa3f-858bf3fa82e8"",""projectId"":""a0b7c245-2e46-4983-bf8f-29c553c03130""}","https://test12345.live/?participantId=19FB1404915F435982BFED72792BC23B&assignmentId=8ec6a1d4-d2a7-4f8f-aa3f-858bf3fa82e8&projectId=a0b7c245-2e46-4983-bf8f-29c553c03130","19FB1404915F435982BFED72792BC23B-2024-11-18-20-10-04","","3871","","images/schematic_sequence/flight_scheme/flight_scheme_8.png","1","",""
"","","","","","image-button-response","51","360821","0.0-10.0-1.0-2.8","19FB1404915F435982BFED72792BC23B","19FB1404915F435982BFED72792BC23B","8ec6a1d4-d2a7-4f8f-aa3f-858bf3fa82e8","a0b7c245-2e46-4983-bf8f-29c553c03130","{""participantId"":""19FB1404915F435982BFED72792BC23B"",""assignmentId"":""8ec6a1d4-d2a7-4f8f-aa3f-858bf3fa82e8"",""projectId"":""a0b7c245-2e46-4983-bf8f-29c553c03130""}","https://test12345.live/?participantId=19FB1404915F435982BFED72792BC23B&assignmentId=8ec6a1d4-d2a7-4f8f-aa3f-858bf3fa82e8&projectId=a0b7c245-2e46-4983-bf8f-29c553c03130","19FB1404915F435982BFED72792BC23B-2024-11-18-20-10-04","","null","","[]","null","",""
"","","","","","image-button-response","52","365327","0.0-10.0-1.0-0.9","19FB1404915F435982BFED72792BC23B","19FB1404915F435982BFED72792BC23B","8ec6a1d4-d2a7-4f8f-aa3f-858bf3fa82e8","a0b7c245-2e46-4983-bf8f-29c553c03130","{""participantId"":""19FB1404915F435982BFED72792BC23B"",""assignmentId"":""8ec6a1d4-d2a7-4f8f-aa3f-858bf3fa82e8"",""projectId"":""a0b7c245-2e46-4983-bf8f-29c553c03130""}","https://test12345.live/?participantId=19FB1404915F435982BFED72792BC23B&assignmentId=8ec6a1d4-d2a7-4f8f-aa3f-858bf3fa82e8&projectId=a0b7c245-2e46-4983-bf8f-29c553c03130","19FB1404915F435982BFED72792BC23B-2024-11-18-20-10-04","","null","","images/schematic_sequence/flight_scheme/flight_scheme_7.png","null","",""
"","","","","","image-button-response","53","367417","0.0-10.0-1.0-1.9","19FB1404915F435982BFED72792BC23B","19FB1404915F435982BFED72792BC23B","8ec6a1d4-d2a7-4f8f-aa3f-858bf3fa82e8","a0b7c245-2e46-4983-bf8f-29c553c03130","{""participantId"":""19FB1404915F435982BFED72792BC23B"",""assignmentId"":""8ec6a1d4-d2a7-4f8f-aa3f-858bf3fa82e8"",""projectId"":""a0b7c245-2e46-4983-bf8f-29c553c03130""}","https://test12345.live/?participantId=19FB1404915F435982BFED72792BC23B&assignmentId=8ec6a1d4-d2a7-4f8f-aa3f-858bf3fa82e8&projectId=a0b7c245-2e46-4983-bf8f-29c553c03130","19FB1404915F435982BFED72792BC23B-2024-11-18-20-10-04","","2088","","images/schematic_sequence/flight_scheme/flight_scheme_7.png","1","",""
"","","","","","image-button-response","54","369224","0.0-10.0-1.0-2.9","19FB1404915F435982BFED72792BC23B","19FB1404915F435982BFED72792BC23B","8ec6a1d4-d2a7-4f8f-aa3f-858bf3fa82e8","a0b7c245-2e46-4983-bf8f-29c553c03130","{""participantId"":""19FB1404915F435982BFED72792BC23B"",""assignmentId"":""8ec6a1d4-d2a7-4f8f-aa3f-858bf3fa82e8"",""projectId"":""a0b7c245-2e46-4983-bf8f-29c553c03130""}","https://test12345.live/?participantId=19FB1404915F435982BFED72792BC23B&assignmentId=8ec6a1d4-d2a7-4f8f-aa3f-858bf3fa82e8&projectId=a0b7c245-2e46-4983-bf8f-29c553c03130","19FB1404915F435982BFED72792BC23B-2024-11-18-20-10-04","","null","","[]","null","",""
"","","","","","html-audio-response","55","434099","0.0-11.0","19FB1404915F435982BFED72792BC23B","19FB1404915F435982BFED72792BC23B","8ec6a1d4-d2a7-4f8f-aa3f-858bf3fa82e8","a0b7c245-2e46-4983-bf8f-29c553c03130","{""participantId"":""19FB1404915F435982BFED72792BC23B"",""assignmentId"":""8ec6a1d4-d2a7-4f8f-aa3f-858bf3fa82e8"",""projectId"":""a0b7c245-2e46-4983-bf8f-29c553c03130""}","https://test12345.live/?participantId=19FB1404915F435982BFED72792BC23B&assignmentId=8ec6a1d4-d2a7-4f8f-aa3f-858bf3fa82e8&projectId=a0b7c245-2e46-4983-bf8f-29c553c03130","19FB1404915F435982BFED72792BC23B-2024-11-18-20-10-04","","33019","","[""<span style=\""color: red; font-size: 24px\""> NOW RECORDING</span><p>Please say out loud all the images you saw, as many as you can remember. The images can be said in any order.</p>""]","","2","flight_scheme"
"","","","","","image-button-response","56","440112","0.0-12.0-0.0","19FB1404915F435982BFED72792BC23B","19FB1404915F435982BFED72792BC23B","8ec6a1d4-d2a7-4f8f-aa3f-858bf3fa82e8","a0b7c245-2e46-4983-bf8f-29c553c03130","{""participantId"":""19FB1404915F435982BFED72792BC23B"",""assignmentId"":""8ec6a1d4-d2a7-4f8f-aa3f-858bf3fa82e8"",""projectId"":""a0b7c245-2e46-4983-bf8f-29c553c03130""}","https://test12345.live/?participantId=19FB1404915F435982BFED72792BC23B&assignmentId=8ec6a1d4-d2a7-4f8f-aa3f-858bf3fa82e8&projectId=a0b7c245-2e46-4983-bf8f-29c553c03130","19FB1404915F435982BFED72792BC23B-2024-11-18-20-10-04","","null","","images/causal_sequence/dog_causal/dog_causal_0.png","null","",""
"","","","","","image-button-response","57","444616","0.0-12.0-1.0-0.0","19FB1404915F435982BFED72792BC23B","19FB1404915F435982BFED72792BC23B","8ec6a1d4-d2a7-4f8f-aa3f-858bf3fa82e8","a0b7c245-2e46-4983-bf8f-29c553c03130","{""participantId"":""19FB1404915F435982BFED72792BC23B"",""assignmentId"":""8ec6a1d4-d2a7-4f8f-aa3f-858bf3fa82e8"",""projectId"":""a0b7c245-2e46-4983-bf8f-29c553c03130""}","https://test12345.live/?participantId=19FB1404915F435982BFED72792BC23B&assignmentId=8ec6a1d4-d2a7-4f8f-aa3f-858bf3fa82e8&projectId=a0b7c245-2e46-4983-bf8f-29c553c03130","19FB1404915F435982BFED72792BC23B-2024-11-18-20-10-04","","null","","images/causal_sequence/dog_causal/dog_causal_4.png","null","",""
"","","","","","image-button-response","58","445817","0.0-12.0-1.0-1.0","19FB1404915F435982BFED72792BC23B","19FB1404915F435982BFED72792BC23B","8ec6a1d4-d2a7-4f8f-aa3f-858bf3fa82e8","a0b7c245-2e46-4983-bf8f-29c553c03130","{""participantId"":""19FB1404915F435982BFED72792BC23B"",""assignmentId"":""8ec6a1d4-d2a7-4f8f-aa3f-858bf3fa82e8"",""projectId"":""a0b7c245-2e46-4983-bf8f-29c553c03130""}","https://test12345.live/?participantId=19FB1404915F435982BFED72792BC23B&assignmentId=8ec6a1d4-d2a7-4f8f-aa3f-858bf3fa82e8&projectId=a0b7c245-2e46-4983-bf8f-29c553c03130","19FB1404915F435982BFED72792BC23B-2024-11-18-20-10-04","","1198","","images/causal_sequence/dog_causal/dog_causal_4.png","0","",""
"","","","","","image-button-response","59","447624","0.0-12.0-1.0-2.0","19FB1404915F435982BFED72792BC23B","19FB1404915F435982BFED72792BC23B","8ec6a1d4-d2a7-4f8f-aa3f-858bf3fa82e8","a0b7c245-2e46-4983-bf8f-29c553c03130","{""participantId"":""19FB1404915F435982BFED72792BC23B"",""assignmentId"":""8ec6a1d4-d2a7-4f8f-aa3f-858bf3fa82e8"",""projectId"":""a0b7c245-2e46-4983-bf8f-29c553c03130""}","https://test12345.live/?participantId=19FB1404915F435982BFED72792BC23B&assignmentId=8ec6a1d4-d2a7-4f8f-aa3f-858bf3fa82e8&projectId=a0b7c245-2e46-4983-bf8f-29c553c03130","19FB1404915F435982BFED72792BC23B-2024-11-18-20-10-04","","null","","[]","null","",""
"","","","","","image-button-response","60","452126","0.0-12.0-1.0-0.1","19FB1404915F435982BFED72792BC23B","19FB1404915F435982BFED72792BC23B","8ec6a1d4-d2a7-4f8f-aa3f-858bf3fa82e8","a0b7c245-2e46-4983-bf8f-29c553c03130","{""participantId"":""19FB1404915F435982BFED72792BC23B"",""assignmentId"":""8ec6a1d4-d2a7-4f8f-aa3f-858bf3fa82e8"",""projectId"":""a0b7c245-2e46-4983-bf8f-29c553c03130""}","https://test12345.live/?participantId=19FB1404915F435982BFED72792BC23B&assignmentId=8ec6a1d4-d2a7-4f8f-aa3f-858bf3fa82e8&projectId=a0b7c245-2e46-4983-bf8f-29c553c03130","19FB1404915F435982BFED72792BC23B-2024-11-18-20-10-04","","null","","images/causal_sequence/dog_causal/dog_causal_6.png","null","",""
"","","","","","image-button-response","61","453499","0.0-12.0-1.0-1.1","19FB1404915F435982BFED72792BC23B","19FB1404915F435982BFED72792BC23B","8ec6a1d4-d2a7-4f8f-aa3f-858bf3fa82e8","a0b7c245-2e46-4983-bf8f-29c553c03130","{""participantId"":""19FB1404915F435982BFED72792BC23B"",""assignmentId"":""8ec6a1d4-d2a7-4f8f-aa3f-858bf3fa82e8"",""projectId"":""a0b7c245-2e46-4983-bf8f-29c553c03130""}","https://test12345.live/?participantId=19FB1404915F435982BFED72792BC23B&assignmentId=8ec6a1d4-d2a7-4f8f-aa3f-858bf3fa82e8&projectId=a0b7c245-2e46-4983-bf8f-29c553c03130","19FB1404915F435982BFED72792BC23B-2024-11-18-20-10-04","","1371","","images/causal_sequence/dog_causal/dog_causal_6.png","0","",""
"","","","","","image-button-response","62","455307","0.0-12.0-1.0-2.1","19FB1404915F435982BFED72792BC23B","19FB1404915F435982BFED72792BC23B","8ec6a1d4-d2a7-4f8f-aa3f-858bf3fa82e8","a0b7c245-2e46-4983-bf8f-29c553c03130","{""participantId"":""19FB1404915F435982BFED72792BC23B"",""assignmentId"":""8ec6a1d4-d2a7-4f8f-aa3f-858bf3fa82e8"",""projectId"":""a0b7c245-2e46-4983-bf8f-29c553c03130""}","https://test12345.live/?participantId=19FB1404915F435982BFED72792BC23B&assignmentId=8ec6a1d4-d2a7-4f8f-aa3f-858bf3fa82e8&projectId=a0b7c245-2e46-4983-bf8f-29c553c03130","19FB1404915F435982BFED72792BC23B-2024-11-18-20-10-04","","null","","[]","null","",""
"","","","","","image-button-response","63","459814","0.0-12.0-1.0-0.2","19FB1404915F435982BFED72792BC23B","19FB1404915F435982BFED72792BC23B","8ec6a1d4-d2a7-4f8f-aa3f-858bf3fa82e8","a0b7c245-2e46-4983-bf8f-29c553c03130","{""participantId"":""19FB1404915F435982BFED72792BC23B"",""assignmentId"":""8ec6a1d4-d2a7-4f8f-aa3f-858bf3fa82e8"",""projectId"":""a0b7c245-2e46-4983-bf8f-29c553c03130""}","https://test12345.live/?participantId=19FB1404915F435982BFED72792BC23B&assignmentId=8ec6a1d4-d2a7-4f8f-aa3f-858bf3fa82e8&projectId=a0b7c245-2e46-4983-bf8f-29c553c03130","19FB1404915F435982BFED72792BC23B-2024-11-18-20-10-04","","null","","images/causal_sequence/dog_causal/dog_causal_5.png","null","",""
"","","","","","image-button-response","64","461882","0.0-12.0-1.0-1.2","19FB1404915F435982BFED72792BC23B","19FB1404915F435982BFED72792BC23B","8ec6a1d4-d2a7-4f8f-aa3f-858bf3fa82e8","a0b7c245-2e46-4983-bf8f-29c553c03130","{""participantId"":""19FB1404915F435982BFED72792BC23B"",""assignmentId"":""8ec6a1d4-d2a7-4f8f-aa3f-858bf3fa82e8"",""projectId"":""a0b7c245-2e46-4983-bf8f-29c553c03130""}","https://test12345.live/?participantId=19FB1404915F435982BFED72792BC23B&assignmentId=8ec6a1d4-d2a7-4f8f-aa3f-858bf3fa82e8&projectId=a0b7c245-2e46-4983-bf8f-29c553c03130","19FB1404915F435982BFED72792BC23B-2024-11-18-20-10-04","","2067","","images/causal_sequence/dog_causal/dog_causal_5.png","0","",""
"","","","","","image-button-response","65","463687","0.0-12.0-1.0-2.2","19FB1404915F435982BFED72792BC23B","19FB1404915F435982BFED72792BC23B","8ec6a1d4-d2a7-4f8f-aa3f-858bf3fa82e8","a0b7c245-2e46-4983-bf8f-29c553c03130","{""participantId"":""19FB1404915F435982BFED72792BC23B"",""assignmentId"":""8ec6a1d4-d2a7-4f8f-aa3f-858bf3fa82e8"",""projectId"":""a0b7c245-2e46-4983-bf8f-29c553c03130""}","https://test12345.live/?participantId=19FB1404915F435982BFED72792BC23B&assignmentId=8ec6a1d4-d2a7-4f8f-aa3f-858bf3fa82e8&projectId=a0b7c245-2e46-4983-bf8f-29c553c03130","19FB1404915F435982BFED72792BC23B-2024-11-18-20-10-04","","null","","[]","null","",""
"","","","","","image-button-response","66","468194","0.0-12.0-1.0-0.3","19FB1404915F435982BFED72792BC23B","19FB1404915F435982BFED72792BC23B","8ec6a1d4-d2a7-4f8f-aa3f-858bf3fa82e8","a0b7c245-2e46-4983-bf8f-29c553c03130","{""participantId"":""19FB1404915F435982BFED72792BC23B"",""assignmentId"":""8ec6a1d4-d2a7-4f8f-aa3f-858bf3fa82e8"",""projectId"":""a0b7c245-2e46-4983-bf8f-29c553c03130""}","https://test12345.live/?participantId=19FB1404915F435982BFED72792BC23B&assignmentId=8ec6a1d4-d2a7-4f8f-aa3f-858bf3fa82e8&projectId=a0b7c245-2e46-4983-bf8f-29c553c03130","19FB1404915F435982BFED72792BC23B-2024-11-18-20-10-04","","null","","images/causal_sequence/dog_causal/dog_causal_8.png","null","",""
"","","","","","image-button-response","67","469735","0.0-12.0-1.0-1.3","19FB1404915F435982BFED72792BC23B","19FB1404915F435982BFED72792BC23B","8ec6a1d4-d2a7-4f8f-aa3f-858bf3fa82e8","a0b7c245-2e46-4983-bf8f-29c553c03130","{""participantId"":""19FB1404915F435982BFED72792BC23B"",""assignmentId"":""8ec6a1d4-d2a7-4f8f-aa3f-858bf3fa82e8"",""projectId"":""a0b7c245-2e46-4983-bf8f-29c553c03130""}","https://test12345.live/?participantId=19FB1404915F435982BFED72792BC23B&assignmentId=8ec6a1d4-d2a7-4f8f-aa3f-858bf3fa82e8&projectId=a0b7c245-2e46-4983-bf8f-29c553c03130","19FB1404915F435982BFED72792BC23B-2024-11-18-20-10-04","","1538","","images/causal_sequence/dog_causal/dog_causal_8.png","0","",""
"","","","","","image-button-response","68","471541","0.0-12.0-1.0-2.3","19FB1404915F435982BFED72792BC23B","19FB1404915F435982BFED72792BC23B","8ec6a1d4-d2a7-4f8f-aa3f-858bf3fa82e8","a0b7c245-2e46-4983-bf8f-29c553c03130","{""participantId"":""19FB1404915F435982BFED72792BC23B"",""assignmentId"":""8ec6a1d4-d2a7-4f8f-aa3f-858bf3fa82e8"",""projectId"":""a0b7c245-2e46-4983-bf8f-29c553c03130""}","https://test12345.live/?participantId=19FB1404915F435982BFED72792BC23B&assignmentId=8ec6a1d4-d2a7-4f8f-aa3f-858bf3fa82e8&projectId=a0b7c245-2e46-4983-bf8f-29c553c03130","19FB1404915F435982BFED72792BC23B-2024-11-18-20-10-04","","null","","[]","null","",""
"","","","","","image-button-response","69","476049","0.0-12.0-1.0-0.4","19FB1404915F435982BFED72792BC23B","19FB1404915F435982BFED72792BC23B","8ec6a1d4-d2a7-4f8f-aa3f-858bf3fa82e8","a0b7c245-2e46-4983-bf8f-29c553c03130","{""participantId"":""19FB1404915F435982BFED72792BC23B"",""assignmentId"":""8ec6a1d4-d2a7-4f8f-aa3f-858bf3fa82e8"",""projectId"":""a0b7c245-2e46-4983-bf8f-29c553c03130""}","https://test12345.live/?participantId=19FB1404915F435982BFED72792BC23B&assignmentId=8ec6a1d4-d2a7-4f8f-aa3f-858bf3fa82e8&projectId=a0b7c245-2e46-4983-bf8f-29c553c03130","19FB1404915F435982BFED72792BC23B-2024-11-18-20-10-04","","null","","images/causal_sequence/dog_causal/dog_causal_1.png","null","",""
"","","","","","image-button-response","70","477065","0.0-12.0-1.0-1.4","19FB1404915F435982BFED72792BC23B","19FB1404915F435982BFED72792BC23B","8ec6a1d4-d2a7-4f8f-aa3f-858bf3fa82e8","a0b7c245-2e46-4983-bf8f-29c553c03130","{""participantId"":""19FB1404915F435982BFED72792BC23B"",""assignmentId"":""8ec6a1d4-d2a7-4f8f-aa3f-858bf3fa82e8"",""projectId"":""a0b7c245-2e46-4983-bf8f-29c553c03130""}","https://test12345.live/?participantId=19FB1404915F435982BFED72792BC23B&assignmentId=8ec6a1d4-d2a7-4f8f-aa3f-858bf3fa82e8&projectId=a0b7c245-2e46-4983-bf8f-29c553c03130","19FB1404915F435982BFED72792BC23B-2024-11-18-20-10-04","","1014","","images/causal_sequence/dog_causal/dog_causal_1.png","0","",""
"","","","","","image-button-response","71","478871","0.0-12.0-1.0-2.4","19FB1404915F435982BFED72792BC23B","19FB1404915F435982BFED72792BC23B","8ec6a1d4-d2a7-4f8f-aa3f-858bf3fa82e8","a0b7c245-2e46-4983-bf8f-29c553c03130","{""participantId"":""19FB1404915F435982BFED72792BC23B"",""assignmentId"":""8ec6a1d4-d2a7-4f8f-aa3f-858bf3fa82e8"",""projectId"":""a0b7c245-2e46-4983-bf8f-29c553c03130""}","https://test12345.live/?participantId=19FB1404915F435982BFED72792BC23B&assignmentId=8ec6a1d4-d2a7-4f8f-aa3f-858bf3fa82e8&projectId=a0b7c245-2e46-4983-bf8f-29c553c03130","19FB1404915F435982BFED72792BC23B-2024-11-18-20-10-04","","null","","[]","null","",""
"","","","","","image-button-response","72","483376","0.0-12.0-1.0-0.5","19FB1404915F435982BFED72792BC23B","19FB1404915F435982BFED72792BC23B","8ec6a1d4-d2a7-4f8f-aa3f-858bf3fa82e8","a0b7c245-2e46-4983-bf8f-29c553c03130","{""participantId"":""19FB1404915F435982BFED72792BC23B"",""assignmentId"":""8ec6a1d4-d2a7-4f8f-aa3f-858bf3fa82e8"",""projectId"":""a0b7c245-2e46-4983-bf8f-29c553c03130""}","https://test12345.live/?participantId=19FB1404915F435982BFED72792BC23B&assignmentId=8ec6a1d4-d2a7-4f8f-aa3f-858bf3fa82e8&projectId=a0b7c245-2e46-4983-bf8f-29c553c03130","19FB1404915F435982BFED72792BC23B-2024-11-18-20-10-04","","null","","images/causal_sequence/dog_causal/dog_causal_ten.png","null","",""
"","","","","","image-button-response","73","484633","0.0-12.0-1.0-1.5","19FB1404915F435982BFED72792BC23B","19FB1404915F435982BFED72792BC23B","8ec6a1d4-d2a7-4f8f-aa3f-858bf3fa82e8","a0b7c245-2e46-4983-bf8f-29c553c03130","{""participantId"":""19FB1404915F435982BFED72792BC23B"",""assignmentId"":""8ec6a1d4-d2a7-4f8f-aa3f-858bf3fa82e8"",""projectId"":""a0b7c245-2e46-4983-bf8f-29c553c03130""}","https://test12345.live/?participantId=19FB1404915F435982BFED72792BC23B&assignmentId=8ec6a1d4-d2a7-4f8f-aa3f-858bf3fa82e8&projectId=a0b7c245-2e46-4983-bf8f-29c553c03130","19FB1404915F435982BFED72792BC23B-2024-11-18-20-10-04","","1255","","images/causal_sequence/dog_causal/dog_causal_ten.png","0","",""
"","","","","","image-button-response","74","486439","0.0-12.0-1.0-2.5","19FB1404915F435982BFED72792BC23B","19FB1404915F435982BFED72792BC23B","8ec6a1d4-d2a7-4f8f-aa3f-858bf3fa82e8","a0b7c245-2e46-4983-bf8f-29c553c03130","{""participantId"":""19FB1404915F435982BFED72792BC23B"",""assignmentId"":""8ec6a1d4-d2a7-4f8f-aa3f-858bf3fa82e8"",""projectId"":""a0b7c245-2e46-4983-bf8f-29c553c03130""}","https://test12345.live/?participantId=19FB1404915F435982BFED72792BC23B&assignmentId=8ec6a1d4-d2a7-4f8f-aa3f-858bf3fa82e8&projectId=a0b7c245-2e46-4983-bf8f-29c553c03130","19FB1404915F435982BFED72792BC23B-2024-11-18-20-10-04","","null","","[]","null","",""
"","","","","","image-button-response","75","490947","0.0-12.0-1.0-0.6","19FB1404915F435982BFED72792BC23B","19FB1404915F435982BFED72792BC23B","8ec6a1d4-d2a7-4f8f-aa3f-858bf3fa82e8","a0b7c245-2e46-4983-bf8f-29c553c03130","{""participantId"":""19FB1404915F435982BFED72792BC23B"",""assignmentId"":""8ec6a1d4-d2a7-4f8f-aa3f-858bf3fa82e8"",""projectId"":""a0b7c245-2e46-4983-bf8f-29c553c03130""}","https://test12345.live/?participantId=19FB1404915F435982BFED72792BC23B&assignmentId=8ec6a1d4-d2a7-4f8f-aa3f-858bf3fa82e8&projectId=a0b7c245-2e46-4983-bf8f-29c553c03130","19FB1404915F435982BFED72792BC23B-2024-11-18-20-10-04","","null","","images/causal_sequence/dog_causal/dog_causal_2.png","null","",""
"","","","","","image-button-response","76","492249","0.0-12.0-1.0-1.6","19FB1404915F435982BFED72792BC23B","19FB1404915F435982BFED72792BC23B","8ec6a1d4-d2a7-4f8f-aa3f-858bf3fa82e8","a0b7c245-2e46-4983-bf8f-29c553c03130","{""participantId"":""19FB1404915F435982BFED72792BC23B"",""assignmentId"":""8ec6a1d4-d2a7-4f8f-aa3f-858bf3fa82e8"",""projectId"":""a0b7c245-2e46-4983-bf8f-29c553c03130""}","https://test12345.live/?participantId=19FB1404915F435982BFED72792BC23B&assignmentId=8ec6a1d4-d2a7-4f8f-aa3f-858bf3fa82e8&projectId=a0b7c245-2e46-4983-bf8f-29c553c03130","19FB1404915F435982BFED72792BC23B-2024-11-18-20-10-04","","1300","","images/causal_sequence/dog_causal/dog_causal_2.png","0","",""
"","","","","","image-button-response","77","494056","0.0-12.0-1.0-2.6","19FB1404915F435982BFED72792BC23B","19FB1404915F435982BFED72792BC23B","8ec6a1d4-d2a7-4f8f-aa3f-858bf3fa82e8","a0b7c245-2e46-4983-bf8f-29c553c03130","{""participantId"":""19FB1404915F435982BFED72792BC23B"",""assignmentId"":""8ec6a1d4-d2a7-4f8f-aa3f-858bf3fa82e8"",""projectId"":""a0b7c245-2e46-4983-bf8f-29c553c03130""}","https://test12345.live/?participantId=19FB1404915F435982BFED72792BC23B&assignmentId=8ec6a1d4-d2a7-4f8f-aa3f-858bf3fa82e8&projectId=a0b7c245-2e46-4983-bf8f-29c553c03130","19FB1404915F435982BFED72792BC23B-2024-11-18-20-10-04","","null","","[]","null","",""
"","","","","","image-button-response","78","498562","0.0-12.0-1.0-0.7","19FB1404915F435982BFED72792BC23B","19FB1404915F435982BFED72792BC23B","8ec6a1d4-d2a7-4f8f-aa3f-858bf3fa82e8","a0b7c245-2e46-4983-bf8f-29c553c03130","{""participantId"":""19FB1404915F435982BFED72792BC23B"",""assignmentId"":""8ec6a1d4-d2a7-4f8f-aa3f-858bf3fa82e8"",""projectId"":""a0b7c245-2e46-4983-bf8f-29c553c03130""}","https://test12345.live/?participantId=19FB1404915F435982BFED72792BC23B&assignmentId=8ec6a1d4-d2a7-4f8f-aa3f-858bf3fa82e8&projectId=a0b7c245-2e46-4983-bf8f-29c553c03130","19FB1404915F435982BFED72792BC23B-2024-11-18-20-10-04","","null","","images/causal_sequence/dog_causal/dog_causal_9.png","null","",""
"","","","","","image-button-response","79","499666","0.0-12.0-1.0-1.7","19FB1404915F435982BFED72792BC23B","19FB1404915F435982BFED72792BC23B","8ec6a1d4-d2a7-4f8f-aa3f-858bf3fa82e8","a0b7c245-2e46-4983-bf8f-29c553c03130","{""participantId"":""19FB1404915F435982BFED72792BC23B"",""assignmentId"":""8ec6a1d4-d2a7-4f8f-aa3f-858bf3fa82e8"",""projectId"":""a0b7c245-2e46-4983-bf8f-29c553c03130""}","https://test12345.live/?participantId=19FB1404915F435982BFED72792BC23B&assignmentId=8ec6a1d4-d2a7-4f8f-aa3f-858bf3fa82e8&projectId=a0b7c245-2e46-4983-bf8f-29c553c03130","19FB1404915F435982BFED72792BC23B-2024-11-18-20-10-04","","1103","","images/causal_sequence/dog_causal/dog_causal_9.png","0","",""
"","","","","","image-button-response","80","501470","0.0-12.0-1.0-2.7","19FB1404915F435982BFED72792BC23B","19FB1404915F435982BFED72792BC23B","8ec6a1d4-d2a7-4f8f-aa3f-858bf3fa82e8","a0b7c245-2e46-4983-bf8f-29c553c03130","{""participantId"":""19FB1404915F435982BFED72792BC23B"",""assignmentId"":""8ec6a1d4-d2a7-4f8f-aa3f-858bf3fa82e8"",""projectId"":""a0b7c245-2e46-4983-bf8f-29c553c03130""}","https://test12345.live/?participantId=19FB1404915F435982BFED72792BC23B&assignmentId=8ec6a1d4-d2a7-4f8f-aa3f-858bf3fa82e8&projectId=a0b7c245-2e46-4983-bf8f-29c553c03130","19FB1404915F435982BFED72792BC23B-2024-11-18-20-10-04","","null","","[]","null","",""
"","","","","","image-button-response","81","505977","0.0-12.0-1.0-0.8","19FB1404915F435982BFED72792BC23B","19FB1404915F435982BFED72792BC23B","8ec6a1d4-d2a7-4f8f-aa3f-858bf3fa82e8","a0b7c245-2e46-4983-bf8f-29c553c03130","{""participantId"":""19FB1404915F435982BFED72792BC23B"",""assignmentId"":""8ec6a1d4-d2a7-4f8f-aa3f-858bf3fa82e8"",""projectId"":""a0b7c245-2e46-4983-bf8f-29c553c03130""}","https://test12345.live/?participantId=19FB1404915F435982BFED72792BC23B&assignmentId=8ec6a1d4-d2a7-4f8f-aa3f-858bf3fa82e8&projectId=a0b7c245-2e46-4983-bf8f-29c553c03130","19FB1404915F435982BFED72792BC23B-2024-11-18-20-10-04","","null","","images/causal_sequence/dog_causal/dog_causal_3.png","null","",""
"","","","","","image-button-response","82","507983","0.0-12.0-1.0-1.8","19FB1404915F435982BFED72792BC23B","19FB1404915F435982BFED72792BC23B","8ec6a1d4-d2a7-4f8f-aa3f-858bf3fa82e8","a0b7c245-2e46-4983-bf8f-29c553c03130","{""participantId"":""19FB1404915F435982BFED72792BC23B"",""assignmentId"":""8ec6a1d4-d2a7-4f8f-aa3f-858bf3fa82e8"",""projectId"":""a0b7c245-2e46-4983-bf8f-29c553c03130""}","https://test12345.live/?participantId=19FB1404915F435982BFED72792BC23B&assignmentId=8ec6a1d4-d2a7-4f8f-aa3f-858bf3fa82e8&projectId=a0b7c245-2e46-4983-bf8f-29c553c03130","19FB1404915F435982BFED72792BC23B-2024-11-18-20-10-04","","2004","","images/causal_sequence/dog_causal/dog_causal_3.png","0","",""
"","","","","","image-button-response","83","509790","0.0-12.0-1.0-2.8","19FB1404915F435982BFED72792BC23B","19FB1404915F435982BFED72792BC23B","8ec6a1d4-d2a7-4f8f-aa3f-858bf3fa82e8","a0b7c245-2e46-4983-bf8f-29c553c03130","{""participantId"":""19FB1404915F435982BFED72792BC23B"",""assignmentId"":""8ec6a1d4-d2a7-4f8f-aa3f-858bf3fa82e8"",""projectId"":""a0b7c245-2e46-4983-bf8f-29c553c03130""}","https://test12345.live/?participantId=19FB1404915F435982BFED72792BC23B&assignmentId=8ec6a1d4-d2a7-4f8f-aa3f-858bf3fa82e8&projectId=a0b7c245-2e46-4983-bf8f-29c553c03130","19FB1404915F435982BFED72792BC23B-2024-11-18-20-10-04","","null","","[]","null","",""
"","","","","","image-button-response","84","514295","0.0-12.0-1.0-0.9","19FB1404915F435982BFED72792BC23B","19FB1404915F435982BFED72792BC23B","8ec6a1d4-d2a7-4f8f-aa3f-858bf3fa82e8","a0b7c245-2e46-4983-bf8f-29c553c03130","{""participantId"":""19FB1404915F435982BFED72792BC23B"",""assignmentId"":""8ec6a1d4-d2a7-4f8f-aa3f-858bf3fa82e8"",""projectId"":""a0b7c245-2e46-4983-bf8f-29c553c03130""}","https://test12345.live/?participantId=19FB1404915F435982BFED72792BC23B&assignmentId=8ec6a1d4-d2a7-4f8f-aa3f-858bf3fa82e8&projectId=a0b7c245-2e46-4983-bf8f-29c553c03130","19FB1404915F435982BFED72792BC23B-2024-11-18-20-10-04","","null","","images/causal_sequence/dog_causal/dog_causal_7.png","null","",""
"","","","","","image-button-response","85","516067","0.0-12.0-1.0-1.9","19FB1404915F435982BFED72792BC23B","19FB1404915F435982BFED72792BC23B","8ec6a1d4-d2a7-4f8f-aa3f-858bf3fa82e8","a0b7c245-2e46-4983-bf8f-29c553c03130","{""participantId"":""19FB1404915F435982BFED72792BC23B"",""assignmentId"":""8ec6a1d4-d2a7-4f8f-aa3f-858bf3fa82e8"",""projectId"":""a0b7c245-2e46-4983-bf8f-29c553c03130""}","https://test12345.live/?participantId=19FB1404915F435982BFED72792BC23B&assignmentId=8ec6a1d4-d2a7-4f8f-aa3f-858bf3fa82e8&projectId=a0b7c245-2e46-4983-bf8f-29c553c03130","19FB1404915F435982BFED72792BC23B-2024-11-18-20-10-04","","1770","","images/causal_sequence/dog_causal/dog_causal_7.png","0","",""
"","","","","","image-button-response","86","517873","0.0-12.0-1.0-2.9","19FB1404915F435982BFED72792BC23B","19FB1404915F435982BFED72792BC23B","8ec6a1d4-d2a7-4f8f-aa3f-858bf3fa82e8","a0b7c245-2e46-4983-bf8f-29c553c03130","{""participantId"":""19FB1404915F435982BFED72792BC23B"",""assignmentId"":""8ec6a1d4-d2a7-4f8f-aa3f-858bf3fa82e8"",""projectId"":""a0b7c245-2e46-4983-bf8f-29c553c03130""}","https://test12345.live/?participantId=19FB1404915F435982BFED72792BC23B&assignmentId=8ec6a1d4-d2a7-4f8f-aa3f-858bf3fa82e8&projectId=a0b7c245-2e46-4983-bf8f-29c553c03130","19FB1404915F435982BFED72792BC23B-2024-11-18-20-10-04","","null","","[]","null","",""
"","","","","","html-audio-response","87","558965","0.0-13.0","19FB1404915F435982BFED72792BC23B","19FB1404915F435982BFED72792BC23B","8ec6a1d4-d2a7-4f8f-aa3f-858bf3fa82e8","a0b7c245-2e46-4983-bf8f-29c553c03130","{""participantId"":""19FB1404915F435982BFED72792BC23B"",""assignmentId"":""8ec6a1d4-d2a7-4f8f-aa3f-858bf3fa82e8"",""projectId"":""a0b7c245-2e46-4983-bf8f-29c553c03130""}","https://test12345.live/?participantId=19FB1404915F435982BFED72792BC23B&assignmentId=8ec6a1d4-d2a7-4f8f-aa3f-858bf3fa82e8&projectId=a0b7c245-2e46-4983-bf8f-29c553c03130","19FB1404915F435982BFED72792BC23B-2024-11-18-20-10-04","","39054","","[""<span style=\""color: red; font-size: 24px\""> NOW RECORDING</span><p>Please say out loud all the images you saw, as many as you can remember. The images can be said in any order.</p>""]","","2","dog_causal"
"","","","","","image-button-response","88","564980","0.0-14.0-0.0","19FB1404915F435982BFED72792BC23B","19FB1404915F435982BFED72792BC23B","8ec6a1d4-d2a7-4f8f-aa3f-858bf3fa82e8","a0b7c245-2e46-4983-bf8f-29c553c03130","{""participantId"":""19FB1404915F435982BFED72792BC23B"",""assignmentId"":""8ec6a1d4-d2a7-4f8f-aa3f-858bf3fa82e8"",""projectId"":""a0b7c245-2e46-4983-bf8f-29c553c03130""}","https://test12345.live/?participantId=19FB1404915F435982BFED72792BC23B&assignmentId=8ec6a1d4-d2a7-4f8f-aa3f-858bf3fa82e8&projectId=a0b7c245-2e46-4983-bf8f-29c553c03130","19FB1404915F435982BFED72792BC23B-2024-11-18-20-10-04","","null","","images/semantic_sequence/housework_semantic/housework_semantic_0.png","null","",""
"","","","","","image-button-response","89","569483","0.0-14.0-1.0-0.0","19FB1404915F435982BFED72792BC23B","19FB1404915F435982BFED72792BC23B","8ec6a1d4-d2a7-4f8f-aa3f-858bf3fa82e8","a0b7c245-2e46-4983-bf8f-29c553c03130","{""participantId"":""19FB1404915F435982BFED72792BC23B"",""assignmentId"":""8ec6a1d4-d2a7-4f8f-aa3f-858bf3fa82e8"",""projectId"":""a0b7c245-2e46-4983-bf8f-29c553c03130""}","https://test12345.live/?participantId=19FB1404915F435982BFED72792BC23B&assignmentId=8ec6a1d4-d2a7-4f8f-aa3f-858bf3fa82e8&projectId=a0b7c245-2e46-4983-bf8f-29c553c03130","19FB1404915F435982BFED72792BC23B-2024-11-18-20-10-04","","null","","images/semantic_sequence/housework_semantic/housework_semantic_1.png","null","",""
"","","","","","image-button-response","90","570999","0.0-14.0-1.0-1.0","19FB1404915F435982BFED72792BC23B","19FB1404915F435982BFED72792BC23B","8ec6a1d4-d2a7-4f8f-aa3f-858bf3fa82e8","a0b7c245-2e46-4983-bf8f-29c553c03130","{""participantId"":""19FB1404915F435982BFED72792BC23B"",""assignmentId"":""8ec6a1d4-d2a7-4f8f-aa3f-858bf3fa82e8"",""projectId"":""a0b7c245-2e46-4983-bf8f-29c553c03130""}","https://test12345.live/?participantId=19FB1404915F435982BFED72792BC23B&assignmentId=8ec6a1d4-d2a7-4f8f-aa3f-858bf3fa82e8&projectId=a0b7c245-2e46-4983-bf8f-29c553c03130","19FB1404915F435982BFED72792BC23B-2024-11-18-20-10-04","","1514","","images/semantic_sequence/housework_semantic/housework_semantic_1.png","1","",""
"","","","","","image-button-response","91","572801","0.0-14.0-1.0-2.0","19FB1404915F435982BFED72792BC23B","19FB1404915F435982BFED72792BC23B","8ec6a1d4-d2a7-4f8f-aa3f-858bf3fa82e8","a0b7c245-2e46-4983-bf8f-29c553c03130","{""participantId"":""19FB1404915F435982BFED72792BC23B"",""assignmentId"":""8ec6a1d4-d2a7-4f8f-aa3f-858bf3fa82e8"",""projectId"":""a0b7c245-2e46-4983-bf8f-29c553c03130""}","https://test12345.live/?participantId=19FB1404915F435982BFED72792BC23B&assignmentId=8ec6a1d4-d2a7-4f8f-aa3f-858bf3fa82e8&projectId=a0b7c245-2e46-4983-bf8f-29c553c03130","19FB1404915F435982BFED72792BC23B-2024-11-18-20-10-04","","null","","[]","null","",""
"","","","","","image-button-response","92","577303","0.0-14.0-1.0-0.1","19FB1404915F435982BFED72792BC23B","19FB1404915F435982BFED72792BC23B","8ec6a1d4-d2a7-4f8f-aa3f-858bf3fa82e8","a0b7c245-2e46-4983-bf8f-29c553c03130","{""participantId"":""19FB1404915F435982BFED72792BC23B"",""assignmentId"":""8ec6a1d4-d2a7-4f8f-aa3f-858bf3fa82e8"",""projectId"":""a0b7c245-2e46-4983-bf8f-29c553c03130""}","https://test12345.live/?participantId=19FB1404915F435982BFED72792BC23B&assignmentId=8ec6a1d4-d2a7-4f8f-aa3f-858bf3fa82e8&projectId=a0b7c245-2e46-4983-bf8f-29c553c03130","19FB1404915F435982BFED72792BC23B-2024-11-18-20-10-04","","null","","images/semantic_sequence/housework_semantic/housework_semantic_2.png","null","",""
"","","","","","image-button-response","93","578133","0.0-14.0-1.0-1.1","19FB1404915F435982BFED72792BC23B","19FB1404915F435982BFED72792BC23B","8ec6a1d4-d2a7-4f8f-aa3f-858bf3fa82e8","a0b7c245-2e46-4983-bf8f-29c553c03130","{""participantId"":""19FB1404915F435982BFED72792BC23B"",""assignmentId"":""8ec6a1d4-d2a7-4f8f-aa3f-858bf3fa82e8"",""projectId"":""a0b7c245-2e46-4983-bf8f-29c553c03130""}","https://test12345.live/?participantId=19FB1404915F435982BFED72792BC23B&assignmentId=8ec6a1d4-d2a7-4f8f-aa3f-858bf3fa82e8&projectId=a0b7c245-2e46-4983-bf8f-29c553c03130","19FB1404915F435982BFED72792BC23B-2024-11-18-20-10-04","","828","","images/semantic_sequence/housework_semantic/housework_semantic_2.png","0","",""
"","","","","","image-button-response","94","579940","0.0-14.0-1.0-2.1","19FB1404915F435982BFED72792BC23B","19FB1404915F435982BFED72792BC23B","8ec6a1d4-d2a7-4f8f-aa3f-858bf3fa82e8","a0b7c245-2e46-4983-bf8f-29c553c03130","{""participantId"":""19FB1404915F435982BFED72792BC23B"",""assignmentId"":""8ec6a1d4-d2a7-4f8f-aa3f-858bf3fa82e8"",""projectId"":""a0b7c245-2e46-4983-bf8f-29c553c03130""}","https://test12345.live/?participantId=19FB1404915F435982BFED72792BC23B&assignmentId=8ec6a1d4-d2a7-4f8f-aa3f-858bf3fa82e8&projectId=a0b7c245-2e46-4983-bf8f-29c553c03130","19FB1404915F435982BFED72792BC23B-2024-11-18-20-10-04","","null","","[]","null","",""
"","","","","","image-button-response","95","584448","0.0-14.0-1.0-0.2","19FB1404915F435982BFED72792BC23B","19FB1404915F435982BFED72792BC23B","8ec6a1d4-d2a7-4f8f-aa3f-858bf3fa82e8","a0b7c245-2e46-4983-bf8f-29c553c03130","{""participantId"":""19FB1404915F435982BFED72792BC23B"",""assignmentId"":""8ec6a1d4-d2a7-4f8f-aa3f-858bf3fa82e8"",""projectId"":""a0b7c245-2e46-4983-bf8f-29c553c03130""}","https://test12345.live/?participantId=19FB1404915F435982BFED72792BC23B&assignmentId=8ec6a1d4-d2a7-4f8f-aa3f-858bf3fa82e8&projectId=a0b7c245-2e46-4983-bf8f-29c553c03130","19FB1404915F435982BFED72792BC23B-2024-11-18-20-10-04","","null","","images/semantic_sequence/housework_semantic/housework_semantic_3.png","null","",""
"","","","","","image-button-response","96","586032","0.0-14.0-1.0-1.2","19FB1404915F435982BFED72792BC23B","19FB1404915F435982BFED72792BC23B","8ec6a1d4-d2a7-4f8f-aa3f-858bf3fa82e8","a0b7c245-2e46-4983-bf8f-29c553c03130","{""participantId"":""19FB1404915F435982BFED72792BC23B"",""assignmentId"":""8ec6a1d4-d2a7-4f8f-aa3f-858bf3fa82e8"",""projectId"":""a0b7c245-2e46-4983-bf8f-29c553c03130""}","https://test12345.live/?participantId=19FB1404915F435982BFED72792BC23B&assignmentId=8ec6a1d4-d2a7-4f8f-aa3f-858bf3fa82e8&projectId=a0b7c245-2e46-4983-bf8f-29c553c03130","19FB1404915F435982BFED72792BC23B-2024-11-18-20-10-04","","1582","","images/semantic_sequence/housework_semantic/housework_semantic_3.png","0","",""
"","","","","","image-button-response","97","587839","0.0-14.0-1.0-2.2","19FB1404915F435982BFED72792BC23B","19FB1404915F435982BFED72792BC23B","8ec6a1d4-d2a7-4f8f-aa3f-858bf3fa82e8","a0b7c245-2e46-4983-bf8f-29c553c03130","{""participantId"":""19FB1404915F435982BFED72792BC23B"",""assignmentId"":""8ec6a1d4-d2a7-4f8f-aa3f-858bf3fa82e8"",""projectId"":""a0b7c245-2e46-4983-bf8f-29c553c03130""}","https://test12345.live/?participantId=19FB1404915F435982BFED72792BC23B&assignmentId=8ec6a1d4-d2a7-4f8f-aa3f-858bf3fa82e8&projectId=a0b7c245-2e46-4983-bf8f-29c553c03130","19FB1404915F435982BFED72792BC23B-2024-11-18-20-10-04","","null","","[]","null","",""
"","","","","","image-button-response","98","592346","0.0-14.0-1.0-0.3","19FB1404915F435982BFED72792BC23B","19FB1404915F435982BFED72792BC23B","8ec6a1d4-d2a7-4f8f-aa3f-858bf3fa82e8","a0b7c245-2e46-4983-bf8f-29c553c03130","{""participantId"":""19FB1404915F435982BFED72792BC23B"",""assignmentId"":""8ec6a1d4-d2a7-4f8f-aa3f-858bf3fa82e8"",""projectId"":""a0b7c245-2e46-4983-bf8f-29c553c03130""}","https://test12345.live/?participantId=19FB1404915F435982BFED72792BC23B&assignmentId=8ec6a1d4-d2a7-4f8f-aa3f-858bf3fa82e8&projectId=a0b7c245-2e46-4983-bf8f-29c553c03130","19FB1404915F435982BFED72792BC23B-2024-11-18-20-10-04","","null","","images/semantic_sequence/housework_semantic/housework_semantic_4.png","null","",""
"","","","","","image-button-response","99","593565","0.0-14.0-1.0-1.3","19FB1404915F435982BFED72792BC23B","19FB1404915F435982BFED72792BC23B","8ec6a1d4-d2a7-4f8f-aa3f-858bf3fa82e8","a0b7c245-2e46-4983-bf8f-29c553c03130","{""participantId"":""19FB1404915F435982BFED72792BC23B"",""assignmentId"":""8ec6a1d4-d2a7-4f8f-aa3f-858bf3fa82e8"",""projectId"":""a0b7c245-2e46-4983-bf8f-29c553c03130""}","https://test12345.live/?participantId=19FB1404915F435982BFED72792BC23B&assignmentId=8ec6a1d4-d2a7-4f8f-aa3f-858bf3fa82e8&projectId=a0b7c245-2e46-4983-bf8f-29c553c03130","19FB1404915F435982BFED72792BC23B-2024-11-18-20-10-04","","1216","","images/semantic_sequence/housework_semantic/housework_semantic_4.png","0","",""
"","","","","","image-button-response","100","595371","0.0-14.0-1.0-2.3","19FB1404915F435982BFED72792BC23B","19FB1404915F435982BFED72792BC23B","8ec6a1d4-d2a7-4f8f-aa3f-858bf3fa82e8","a0b7c245-2e46-4983-bf8f-29c553c03130","{""participantId"":""19FB1404915F435982BFED72792BC23B"",""assignmentId"":""8ec6a1d4-d2a7-4f8f-aa3f-858bf3fa82e8"",""projectId"":""a0b7c245-2e46-4983-bf8f-29c553c03130""}","https://test12345.live/?participantId=19FB1404915F435982BFED72792BC23B&assignmentId=8ec6a1d4-d2a7-4f8f-aa3f-858bf3fa82e8&projectId=a0b7c245-2e46-4983-bf8f-29c553c03130","19FB1404915F435982BFED72792BC23B-2024-11-18-20-10-04","","null","","[]","null","",""
"","","","","","image-button-response","101","599878","0.0-14.0-1.0-0.4","19FB1404915F435982BFED72792BC23B","19FB1404915F435982BFED72792BC23B","8ec6a1d4-d2a7-4f8f-aa3f-858bf3fa82e8","a0b7c245-2e46-4983-bf8f-29c553c03130","{""participantId"":""19FB1404915F435982BFED72792BC23B"",""assignmentId"":""8ec6a1d4-d2a7-4f8f-aa3f-858bf3fa82e8"",""projectId"":""a0b7c245-2e46-4983-bf8f-29c553c03130""}","https://test12345.live/?participantId=19FB1404915F435982BFED72792BC23B&assignmentId=8ec6a1d4-d2a7-4f8f-aa3f-858bf3fa82e8&projectId=a0b7c245-2e46-4983-bf8f-29c553c03130","19FB1404915F435982BFED72792BC23B-2024-11-18-20-10-04","","null","","images/semantic_sequence/housework_semantic/housework_semantic_5.png","null","",""
"","","","","","image-button-response","102","601168","0.0-14.0-1.0-1.4","19FB1404915F435982BFED72792BC23B","19FB1404915F435982BFED72792BC23B","8ec6a1d4-d2a7-4f8f-aa3f-858bf3fa82e8","a0b7c245-2e46-4983-bf8f-29c553c03130","{""participantId"":""19FB1404915F435982BFED72792BC23B"",""assignmentId"":""8ec6a1d4-d2a7-4f8f-aa3f-858bf3fa82e8"",""projectId"":""a0b7c245-2e46-4983-bf8f-29c553c03130""}","https://test12345.live/?participantId=19FB1404915F435982BFED72792BC23B&assignmentId=8ec6a1d4-d2a7-4f8f-aa3f-858bf3fa82e8&projectId=a0b7c245-2e46-4983-bf8f-29c553c03130","19FB1404915F435982BFED72792BC23B-2024-11-18-20-10-04","","1287","","images/semantic_sequence/housework_semantic/housework_semantic_5.png","0","",""
"","","","","","image-button-response","103","602974","0.0-14.0-1.0-2.4","19FB1404915F435982BFED72792BC23B","19FB1404915F435982BFED72792BC23B","8ec6a1d4-d2a7-4f8f-aa3f-858bf3fa82e8","a0b7c245-2e46-4983-bf8f-29c553c03130","{""participantId"":""19FB1404915F435982BFED72792BC23B"",""assignmentId"":""8ec6a1d4-d2a7-4f8f-aa3f-858bf3fa82e8"",""projectId"":""a0b7c245-2e46-4983-bf8f-29c553c03130""}","https://test12345.live/?participantId=19FB1404915F435982BFED72792BC23B&assignmentId=8ec6a1d4-d2a7-4f8f-aa3f-858bf3fa82e8&projectId=a0b7c245-2e46-4983-bf8f-29c553c03130","19FB1404915F435982BFED72792BC23B-2024-11-18-20-10-04","","null","","[]","null","",""
"","","","","","image-button-response","104","607480","0.0-14.0-1.0-0.5","19FB1404915F435982BFED72792BC23B","19FB1404915F435982BFED72792BC23B","8ec6a1d4-d2a7-4f8f-aa3f-858bf3fa82e8","a0b7c245-2e46-4983-bf8f-29c553c03130","{""participantId"":""19FB1404915F435982BFED72792BC23B"",""assignmentId"":""8ec6a1d4-d2a7-4f8f-aa3f-858bf3fa82e8"",""projectId"":""a0b7c245-2e46-4983-bf8f-29c553c03130""}","https://test12345.live/?participantId=19FB1404915F435982BFED72792BC23B&assignmentId=8ec6a1d4-d2a7-4f8f-aa3f-858bf3fa82e8&projectId=a0b7c245-2e46-4983-bf8f-29c553c03130","19FB1404915F435982BFED72792BC23B-2024-11-18-20-10-04","","null","","images/semantic_sequence/housework_semantic/housework_semantic_6.png","null","",""
"","","","","","image-button-response","105","608365","0.0-14.0-1.0-1.5","19FB1404915F435982BFED72792BC23B","19FB1404915F435982BFED72792BC23B","8ec6a1d4-d2a7-4f8f-aa3f-858bf3fa82e8","a0b7c245-2e46-4983-bf8f-29c553c03130","{""participantId"":""19FB1404915F435982BFED72792BC23B"",""assignmentId"":""8ec6a1d4-d2a7-4f8f-aa3f-858bf3fa82e8"",""projectId"":""a0b7c245-2e46-4983-bf8f-29c553c03130""}","https://test12345.live/?participantId=19FB1404915F435982BFED72792BC23B&assignmentId=8ec6a1d4-d2a7-4f8f-aa3f-858bf3fa82e8&projectId=a0b7c245-2e46-4983-bf8f-29c553c03130","19FB1404915F435982BFED72792BC23B-2024-11-18-20-10-04","","883","","images/semantic_sequence/housework_semantic/housework_semantic_6.png","0","",""
"","","","","","image-button-response","106","610170","0.0-14.0-1.0-2.5","19FB1404915F435982BFED72792BC23B","19FB1404915F435982BFED72792BC23B","8ec6a1d4-d2a7-4f8f-aa3f-858bf3fa82e8","a0b7c245-2e46-4983-bf8f-29c553c03130","{""participantId"":""19FB1404915F435982BFED72792BC23B"",""assignmentId"":""8ec6a1d4-d2a7-4f8f-aa3f-858bf3fa82e8"",""projectId"":""a0b7c245-2e46-4983-bf8f-29c553c03130""}","https://test12345.live/?participantId=19FB1404915F435982BFED72792BC23B&assignmentId=8ec6a1d4-d2a7-4f8f-aa3f-858bf3fa82e8&projectId=a0b7c245-2e46-4983-bf8f-29c553c03130","19FB1404915F435982BFED72792BC23B-2024-11-18-20-10-04","","null","","[]","null","",""
"","","","","","image-button-response","107","614673","0.0-14.0-1.0-0.6","19FB1404915F435982BFED72792BC23B","19FB1404915F435982BFED72792BC23B","8ec6a1d4-d2a7-4f8f-aa3f-858bf3fa82e8","a0b7c245-2e46-4983-bf8f-29c553c03130","{""participantId"":""19FB1404915F435982BFED72792BC23B"",""assignmentId"":""8ec6a1d4-d2a7-4f8f-aa3f-858bf3fa82e8"",""projectId"":""a0b7c245-2e46-4983-bf8f-29c553c03130""}","https://test12345.live/?participantId=19FB1404915F435982BFED72792BC23B&assignmentId=8ec6a1d4-d2a7-4f8f-aa3f-858bf3fa82e8&projectId=a0b7c245-2e46-4983-bf8f-29c553c03130","19FB1404915F435982BFED72792BC23B-2024-11-18-20-10-04","","null","","images/semantic_sequence/housework_semantic/housework_semantic_7.png","null","",""
"","","","","","image-button-response","108","615597","0.0-14.0-1.0-1.6","19FB1404915F435982BFED72792BC23B","19FB1404915F435982BFED72792BC23B","8ec6a1d4-d2a7-4f8f-aa3f-858bf3fa82e8","a0b7c245-2e46-4983-bf8f-29c553c03130","{""participantId"":""19FB1404915F435982BFED72792BC23B"",""assignmentId"":""8ec6a1d4-d2a7-4f8f-aa3f-858bf3fa82e8"",""projectId"":""a0b7c245-2e46-4983-bf8f-29c553c03130""}","https://test12345.live/?participantId=19FB1404915F435982BFED72792BC23B&assignmentId=8ec6a1d4-d2a7-4f8f-aa3f-858bf3fa82e8&projectId=a0b7c245-2e46-4983-bf8f-29c553c03130","19FB1404915F435982BFED72792BC23B-2024-11-18-20-10-04","","923","","images/semantic_sequence/housework_semantic/housework_semantic_7.png","0","",""
"","","","","","image-button-response","109","617400","0.0-14.0-1.0-2.6","19FB1404915F435982BFED72792BC23B","19FB1404915F435982BFED72792BC23B","8ec6a1d4-d2a7-4f8f-aa3f-858bf3fa82e8","a0b7c245-2e46-4983-bf8f-29c553c03130","{""participantId"":""19FB1404915F435982BFED72792BC23B"",""assignmentId"":""8ec6a1d4-d2a7-4f8f-aa3f-858bf3fa82e8"",""projectId"":""a0b7c245-2e46-4983-bf8f-29c553c03130""}","https://test12345.live/?participantId=19FB1404915F435982BFED72792BC23B&assignmentId=8ec6a1d4-d2a7-4f8f-aa3f-858bf3fa82e8&projectId=a0b7c245-2e46-4983-bf8f-29c553c03130","19FB1404915F435982BFED72792BC23B-2024-11-18-20-10-04","","null","","[]","null","",""
"","","","","","image-button-response","110","621902","0.0-14.0-1.0-0.7","19FB1404915F435982BFED72792BC23B","19FB1404915F435982BFED72792BC23B","8ec6a1d4-d2a7-4f8f-aa3f-858bf3fa82e8","a0b7c245-2e46-4983-bf8f-29c553c03130","{""participantId"":""19FB1404915F435982BFED72792BC23B"",""assignmentId"":""8ec6a1d4-d2a7-4f8f-aa3f-858bf3fa82e8"",""projectId"":""a0b7c245-2e46-4983-bf8f-29c553c03130""}","https://test12345.live/?participantId=19FB1404915F435982BFED72792BC23B&assignmentId=8ec6a1d4-d2a7-4f8f-aa3f-858bf3fa82e8&projectId=a0b7c245-2e46-4983-bf8f-29c553c03130","19FB1404915F435982BFED72792BC23B-2024-11-18-20-10-04","","null","","images/semantic_sequence/housework_semantic/housework_semantic_8.png","null","",""
"","","","","","image-button-response","111","623532","0.0-14.0-1.0-1.7","19FB1404915F435982BFED72792BC23B","19FB1404915F435982BFED72792BC23B","8ec6a1d4-d2a7-4f8f-aa3f-858bf3fa82e8","a0b7c245-2e46-4983-bf8f-29c553c03130","{""participantId"":""19FB1404915F435982BFED72792BC23B"",""assignmentId"":""8ec6a1d4-d2a7-4f8f-aa3f-858bf3fa82e8"",""projectId"":""a0b7c245-2e46-4983-bf8f-29c553c03130""}","https://test12345.live/?participantId=19FB1404915F435982BFED72792BC23B&assignmentId=8ec6a1d4-d2a7-4f8f-aa3f-858bf3fa82e8&projectId=a0b7c245-2e46-4983-bf8f-29c553c03130","19FB1404915F435982BFED72792BC23B-2024-11-18-20-10-04","","1629","","images/semantic_sequence/housework_semantic/housework_semantic_8.png","0","",""
"","","","","","image-button-response","112","625336","0.0-14.0-1.0-2.7","19FB1404915F435982BFED72792BC23B","19FB1404915F435982BFED72792BC23B","8ec6a1d4-d2a7-4f8f-aa3f-858bf3fa82e8","a0b7c245-2e46-4983-bf8f-29c553c03130","{""participantId"":""19FB1404915F435982BFED72792BC23B"",""assignmentId"":""8ec6a1d4-d2a7-4f8f-aa3f-858bf3fa82e8"",""projectId"":""a0b7c245-2e46-4983-bf8f-29c553c03130""}","https://test12345.live/?participantId=19FB1404915F435982BFED72792BC23B&assignmentId=8ec6a1d4-d2a7-4f8f-aa3f-858bf3fa82e8&projectId=a0b7c245-2e46-4983-bf8f-29c553c03130","19FB1404915F435982BFED72792BC23B-2024-11-18-20-10-04","","null","","[]","null","",""
"","","","","","image-button-response","113","629843","0.0-14.0-1.0-0.8","19FB1404915F435982BFED72792BC23B","19FB1404915F435982BFED72792BC23B","8ec6a1d4-d2a7-4f8f-aa3f-858bf3fa82e8","a0b7c245-2e46-4983-bf8f-29c553c03130","{""participantId"":""19FB1404915F435982BFED72792BC23B"",""assignmentId"":""8ec6a1d4-d2a7-4f8f-aa3f-858bf3fa82e8"",""projectId"":""a0b7c245-2e46-4983-bf8f-29c553c03130""}","https://test12345.live/?participantId=19FB1404915F435982BFED72792BC23B&assignmentId=8ec6a1d4-d2a7-4f8f-aa3f-858bf3fa82e8&projectId=a0b7c245-2e46-4983-bf8f-29c553c03130","19FB1404915F435982BFED72792BC23B-2024-11-18-20-10-04","","null","","images/semantic_sequence/housework_semantic/housework_semantic_9.png","null","",""
"","","","","","image-button-response","114","631148","0.0-14.0-1.0-1.8","19FB1404915F435982BFED72792BC23B","19FB1404915F435982BFED72792BC23B","8ec6a1d4-d2a7-4f8f-aa3f-858bf3fa82e8","a0b7c245-2e46-4983-bf8f-29c553c03130","{""participantId"":""19FB1404915F435982BFED72792BC23B"",""assignmentId"":""8ec6a1d4-d2a7-4f8f-aa3f-858bf3fa82e8"",""projectId"":""a0b7c245-2e46-4983-bf8f-29c553c03130""}","https://test12345.live/?participantId=19FB1404915F435982BFED72792BC23B&assignmentId=8ec6a1d4-d2a7-4f8f-aa3f-858bf3fa82e8&projectId=a0b7c245-2e46-4983-bf8f-29c553c03130","19FB1404915F435982BFED72792BC23B-2024-11-18-20-10-04","","1302","","images/semantic_sequence/housework_semantic/housework_semantic_9.png","0","",""
"","","","","","image-button-response","115","632953","0.0-14.0-1.0-2.8","19FB1404915F435982BFED72792BC23B","19FB1404915F435982BFED72792BC23B","8ec6a1d4-d2a7-4f8f-aa3f-858bf3fa82e8","a0b7c245-2e46-4983-bf8f-29c553c03130","{""participantId"":""19FB1404915F435982BFED72792BC23B"",""assignmentId"":""8ec6a1d4-d2a7-4f8f-aa3f-858bf3fa82e8"",""projectId"":""a0b7c245-2e46-4983-bf8f-29c553c03130""}","https://test12345.live/?participantId=19FB1404915F435982BFED72792BC23B&assignmentId=8ec6a1d4-d2a7-4f8f-aa3f-858bf3fa82e8&projectId=a0b7c245-2e46-4983-bf8f-29c553c03130","19FB1404915F435982BFED72792BC23B-2024-11-18-20-10-04","","null","","[]","null","",""
"","","","","","image-button-response","116","637460","0.0-14.0-1.0-0.9","19FB1404915F435982BFED72792BC23B","19FB1404915F435982BFED72792BC23B","8ec6a1d4-d2a7-4f8f-aa3f-858bf3fa82e8","a0b7c245-2e46-4983-bf8f-29c553c03130","{""participantId"":""19FB1404915F435982BFED72792BC23B"",""assignmentId"":""8ec6a1d4-d2a7-4f8f-aa3f-858bf3fa82e8"",""projectId"":""a0b7c245-2e46-4983-bf8f-29c553c03130""}","https://test12345.live/?participantId=19FB1404915F435982BFED72792BC23B&assignmentId=8ec6a1d4-d2a7-4f8f-aa3f-858bf3fa82e8&projectId=a0b7c245-2e46-4983-bf8f-29c553c03130","19FB1404915F435982BFED72792BC23B-2024-11-18-20-10-04","","null","","images/semantic_sequence/housework_semantic/housework_semantic_ten.png","null","",""
"","","","","","image-button-response","117","638865","0.0-14.0-1.0-1.9","19FB1404915F435982BFED72792BC23B","19FB1404915F435982BFED72792BC23B","8ec6a1d4-d2a7-4f8f-aa3f-858bf3fa82e8","a0b7c245-2e46-4983-bf8f-29c553c03130","{""participantId"":""19FB1404915F435982BFED72792BC23B"",""assignmentId"":""8ec6a1d4-d2a7-4f8f-aa3f-858bf3fa82e8"",""projectId"":""a0b7c245-2e46-4983-bf8f-29c553c03130""}","https://test12345.live/?participantId=19FB1404915F435982BFED72792BC23B&assignmentId=8ec6a1d4-d2a7-4f8f-aa3f-858bf3fa82e8&projectId=a0b7c245-2e46-4983-bf8f-29c553c03130","19FB1404915F435982BFED72792BC23B-2024-11-18-20-10-04","","1404","","images/semantic_sequence/housework_semantic/housework_semantic_ten.png","0","",""
"","","","","","image-button-response","118","640671","0.0-14.0-1.0-2.9","19FB1404915F435982BFED72792BC23B","19FB1404915F435982BFED72792BC23B","8ec6a1d4-d2a7-4f8f-aa3f-858bf3fa82e8","a0b7c245-2e46-4983-bf8f-29c553c03130","{""participantId"":""19FB1404915F435982BFED72792BC23B"",""assignmentId"":""8ec6a1d4-d2a7-4f8f-aa3f-858bf3fa82e8"",""projectId"":""a0b7c245-2e46-4983-bf8f-29c553c03130""}","https://test12345.live/?participantId=19FB1404915F435982BFED72792BC23B&assignmentId=8ec6a1d4-d2a7-4f8f-aa3f-858bf3fa82e8&projectId=a0b7c245-2e46-4983-bf8f-29c553c03130","19FB1404915F435982BFED72792BC23B-2024-11-18-20-10-04","","null","","[]","null","",""
"","","","","","html-audio-response","119","679500","0.0-15.0","19FB1404915F435982BFED72792BC23B","19FB1404915F435982BFED72792BC23B","8ec6a1d4-d2a7-4f8f-aa3f-858bf3fa82e8","a0b7c245-2e46-4983-bf8f-29c553c03130","{""participantId"":""19FB1404915F435982BFED72792BC23B"",""assignmentId"":""8ec6a1d4-d2a7-4f8f-aa3f-858bf3fa82e8"",""projectId"":""a0b7c245-2e46-4983-bf8f-29c553c03130""}","https://test12345.live/?participantId=19FB1404915F435982BFED72792BC23B&assignmentId=8ec6a1d4-d2a7-4f8f-aa3f-858bf3fa82e8&projectId=a0b7c245-2e46-4983-bf8f-29c553c03130","19FB1404915F435982BFED72792BC23B-2024-11-18-20-10-04","","21320","","[""<span style=\""color: red; font-size: 24px\""> NOW RECORDING</span><p>Please say out loud all the images you saw, as many as you can remember. The images can be said in any order.</p>""]","","2","housework_semantic"
"","","","","","image-button-response","120","685510","0.0-16.0-0.0","19FB1404915F435982BFED72792BC23B","19FB1404915F435982BFED72792BC23B","8ec6a1d4-d2a7-4f8f-aa3f-858bf3fa82e8","a0b7c245-2e46-4983-bf8f-29c553c03130","{""participantId"":""19FB1404915F435982BFED72792BC23B"",""assignmentId"":""8ec6a1d4-d2a7-4f8f-aa3f-858bf3fa82e8"",""projectId"":""a0b7c245-2e46-4983-bf8f-29c553c03130""}","https://test12345.live/?participantId=19FB1404915F435982BFED72792BC23B&assignmentId=8ec6a1d4-d2a7-4f8f-aa3f-858bf3fa82e8&projectId=a0b7c245-2e46-4983-bf8f-29c553c03130","19FB1404915F435982BFED72792BC23B-2024-11-18-20-10-04","","null","","images/causal_sequence/package_causal/package_causal_0.png","null","",""
"","","","","","image-button-response","121","690015","0.0-16.0-1.0-0.0","19FB1404915F435982BFED72792BC23B","19FB1404915F435982BFED72792BC23B","8ec6a1d4-d2a7-4f8f-aa3f-858bf3fa82e8","a0b7c245-2e46-4983-bf8f-29c553c03130","{""participantId"":""19FB1404915F435982BFED72792BC23B"",""assignmentId"":""8ec6a1d4-d2a7-4f8f-aa3f-858bf3fa82e8"",""projectId"":""a0b7c245-2e46-4983-bf8f-29c553c03130""}","https://test12345.live/?participantId=19FB1404915F435982BFED72792BC23B&assignmentId=8ec6a1d4-d2a7-4f8f-aa3f-858bf3fa82e8&projectId=a0b7c245-2e46-4983-bf8f-29c553c03130","19FB1404915F435982BFED72792BC23B-2024-11-18-20-10-04","","null","","images/causal_sequence/package_causal/package_causal_8.png","null","",""
"","","","","","image-button-response","122","691765","0.0-16.0-1.0-1.0","19FB1404915F435982BFED72792BC23B","19FB1404915F435982BFED72792BC23B","8ec6a1d4-d2a7-4f8f-aa3f-858bf3fa82e8","a0b7c245-2e46-4983-bf8f-29c553c03130","{""participantId"":""19FB1404915F435982BFED72792BC23B"",""assignmentId"":""8ec6a1d4-d2a7-4f8f-aa3f-858bf3fa82e8"",""projectId"":""a0b7c245-2e46-4983-bf8f-29c553c03130""}","https://test12345.live/?participantId=19FB1404915F435982BFED72792BC23B&assignmentId=8ec6a1d4-d2a7-4f8f-aa3f-858bf3fa82e8&projectId=a0b7c245-2e46-4983-bf8f-29c553c03130","19FB1404915F435982BFED72792BC23B-2024-11-18-20-10-04","","1748","","images/causal_sequence/package_causal/package_causal_8.png","0","",""
"","","","","","image-button-response","123","693572","0.0-16.0-1.0-2.0","19FB1404915F435982BFED72792BC23B","19FB1404915F435982BFED72792BC23B","8ec6a1d4-d2a7-4f8f-aa3f-858bf3fa82e8","a0b7c245-2e46-4983-bf8f-29c553c03130","{""participantId"":""19FB1404915F435982BFED72792BC23B"",""assignmentId"":""8ec6a1d4-d2a7-4f8f-aa3f-858bf3fa82e8"",""projectId"":""a0b7c245-2e46-4983-bf8f-29c553c03130""}","https://test12345.live/?participantId=19FB1404915F435982BFED72792BC23B&assignmentId=8ec6a1d4-d2a7-4f8f-aa3f-858bf3fa82e8&projectId=a0b7c245-2e46-4983-bf8f-29c553c03130","19FB1404915F435982BFED72792BC23B-2024-11-18-20-10-04","","null","","[]","null","",""
"","","","","","image-button-response","124","698078","0.0-16.0-1.0-0.1","19FB1404915F435982BFED72792BC23B","19FB1404915F435982BFED72792BC23B","8ec6a1d4-d2a7-4f8f-aa3f-858bf3fa82e8","a0b7c245-2e46-4983-bf8f-29c553c03130","{""participantId"":""19FB1404915F435982BFED72792BC23B"",""assignmentId"":""8ec6a1d4-d2a7-4f8f-aa3f-858bf3fa82e8"",""projectId"":""a0b7c245-2e46-4983-bf8f-29c553c03130""}","https://test12345.live/?participantId=19FB1404915F435982BFED72792BC23B&assignmentId=8ec6a1d4-d2a7-4f8f-aa3f-858bf3fa82e8&projectId=a0b7c245-2e46-4983-bf8f-29c553c03130","19FB1404915F435982BFED72792BC23B-2024-11-18-20-10-04","","null","","images/causal_sequence/package_causal/package_causal_7.png","null","",""
"","","","","","image-button-response","125","699546","0.0-16.0-1.0-1.1","19FB1404915F435982BFED72792BC23B","19FB1404915F435982BFED72792BC23B","8ec6a1d4-d2a7-4f8f-aa3f-858bf3fa82e8","a0b7c245-2e46-4983-bf8f-29c553c03130","{""participantId"":""19FB1404915F435982BFED72792BC23B"",""assignmentId"":""8ec6a1d4-d2a7-4f8f-aa3f-858bf3fa82e8"",""projectId"":""a0b7c245-2e46-4983-bf8f-29c553c03130""}","https://test12345.live/?participantId=19FB1404915F435982BFED72792BC23B&assignmentId=8ec6a1d4-d2a7-4f8f-aa3f-858bf3fa82e8&projectId=a0b7c245-2e46-4983-bf8f-29c553c03130","19FB1404915F435982BFED72792BC23B-2024-11-18-20-10-04","","1467","","images/causal_sequence/package_causal/package_causal_7.png","0","",""
"","","","","","image-button-response","126","701351","0.0-16.0-1.0-2.1","19FB1404915F435982BFED72792BC23B","19FB1404915F435982BFED72792BC23B","8ec6a1d4-d2a7-4f8f-aa3f-858bf3fa82e8","a0b7c245-2e46-4983-bf8f-29c553c03130","{""participantId"":""19FB1404915F435982BFED72792BC23B"",""assignmentId"":""8ec6a1d4-d2a7-4f8f-aa3f-858bf3fa82e8"",""projectId"":""a0b7c245-2e46-4983-bf8f-29c553c03130""}","https://test12345.live/?participantId=19FB1404915F435982BFED72792BC23B&assignmentId=8ec6a1d4-d2a7-4f8f-aa3f-858bf3fa82e8&projectId=a0b7c245-2e46-4983-bf8f-29c553c03130","19FB1404915F435982BFED72792BC23B-2024-11-18-20-10-04","","null","","[]","null","",""
"","","","","","image-button-response","127","705858","0.0-16.0-1.0-0.2","19FB1404915F435982BFED72792BC23B","19FB1404915F435982BFED72792BC23B","8ec6a1d4-d2a7-4f8f-aa3f-858bf3fa82e8","a0b7c245-2e46-4983-bf8f-29c553c03130","{""participantId"":""19FB1404915F435982BFED72792BC23B"",""assignmentId"":""8ec6a1d4-d2a7-4f8f-aa3f-858bf3fa82e8"",""projectId"":""a0b7c245-2e46-4983-bf8f-29c553c03130""}","https://test12345.live/?participantId=19FB1404915F435982BFED72792BC23B&assignmentId=8ec6a1d4-d2a7-4f8f-aa3f-858bf3fa82e8&projectId=a0b7c245-2e46-4983-bf8f-29c553c03130","19FB1404915F435982BFED72792BC23B-2024-11-18-20-10-04","","null","","images/causal_sequence/package_causal/package_causal_3.png","null","",""
"","","","","","image-button-response","128","707364","0.0-16.0-1.0-1.2","19FB1404915F435982BFED72792BC23B","19FB1404915F435982BFED72792BC23B","8ec6a1d4-d2a7-4f8f-aa3f-858bf3fa82e8","a0b7c245-2e46-4983-bf8f-29c553c03130","{""participantId"":""19FB1404915F435982BFED72792BC23B"",""assignmentId"":""8ec6a1d4-d2a7-4f8f-aa3f-858bf3fa82e8"",""projectId"":""a0b7c245-2e46-4983-bf8f-29c553c03130""}","https://test12345.live/?participantId=19FB1404915F435982BFED72792BC23B&assignmentId=8ec6a1d4-d2a7-4f8f-aa3f-858bf3fa82e8&projectId=a0b7c245-2e46-4983-bf8f-29c553c03130","19FB1404915F435982BFED72792BC23B-2024-11-18-20-10-04","","1504","","images/causal_sequence/package_causal/package_causal_3.png","0","",""
"","","","","","image-button-response","129","709169","0.0-16.0-1.0-2.2","19FB1404915F435982BFED72792BC23B","19FB1404915F435982BFED72792BC23B","8ec6a1d4-d2a7-4f8f-aa3f-858bf3fa82e8","a0b7c245-2e46-4983-bf8f-29c553c03130","{""participantId"":""19FB1404915F435982BFED72792BC23B"",""assignmentId"":""8ec6a1d4-d2a7-4f8f-aa3f-858bf3fa82e8"",""projectId"":""a0b7c245-2e46-4983-bf8f-29c553c03130""}","https://test12345.live/?participantId=19FB1404915F435982BFED72792BC23B&assignmentId=8ec6a1d4-d2a7-4f8f-aa3f-858bf3fa82e8&projectId=a0b7c245-2e46-4983-bf8f-29c553c03130","19FB1404915F435982BFED72792BC23B-2024-11-18-20-10-04","","null","","[]","null","",""
"","","","","","image-button-response","130","713677","0.0-16.0-1.0-0.3","19FB1404915F435982BFED72792BC23B","19FB1404915F435982BFED72792BC23B","8ec6a1d4-d2a7-4f8f-aa3f-858bf3fa82e8","a0b7c245-2e46-4983-bf8f-29c553c03130","{""participantId"":""19FB1404915F435982BFED72792BC23B"",""assignmentId"":""8ec6a1d4-d2a7-4f8f-aa3f-858bf3fa82e8"",""projectId"":""a0b7c245-2e46-4983-bf8f-29c553c03130""}","https://test12345.live/?participantId=19FB1404915F435982BFED72792BC23B&assignmentId=8ec6a1d4-d2a7-4f8f-aa3f-858bf3fa82e8&projectId=a0b7c245-2e46-4983-bf8f-29c553c03130","19FB1404915F435982BFED72792BC23B-2024-11-18-20-10-04","","null","","images/causal_sequence/package_causal/package_causal_9.png","null","",""
"","","","","","image-button-response","131","714881","0.0-16.0-1.0-1.3","19FB1404915F435982BFED72792BC23B","19FB1404915F435982BFED72792BC23B","8ec6a1d4-d2a7-4f8f-aa3f-858bf3fa82e8","a0b7c245-2e46-4983-bf8f-29c553c03130","{""participantId"":""19FB1404915F435982BFED72792BC23B"",""assignmentId"":""8ec6a1d4-d2a7-4f8f-aa3f-858bf3fa82e8"",""projectId"":""a0b7c245-2e46-4983-bf8f-29c553c03130""}","https://test12345.live/?participantId=19FB1404915F435982BFED72792BC23B&assignmentId=8ec6a1d4-d2a7-4f8f-aa3f-858bf3fa82e8&projectId=a0b7c245-2e46-4983-bf8f-29c553c03130","19FB1404915F435982BFED72792BC23B-2024-11-18-20-10-04","","1202","","images/causal_sequence/package_causal/package_causal_9.png","0","",""
"","","","","","image-button-response","132","716688","0.0-16.0-1.0-2.3","19FB1404915F435982BFED72792BC23B","19FB1404915F435982BFED72792BC23B","8ec6a1d4-d2a7-4f8f-aa3f-858bf3fa82e8","a0b7c245-2e46-4983-bf8f-29c553c03130","{""participantId"":""19FB1404915F435982BFED72792BC23B"",""assignmentId"":""8ec6a1d4-d2a7-4f8f-aa3f-858bf3fa82e8"",""projectId"":""a0b7c245-2e46-4983-bf8f-29c553c03130""}","https://test12345.live/?participantId=19FB1404915F435982BFED72792BC23B&assignmentId=8ec6a1d4-d2a7-4f8f-aa3f-858bf3fa82e8&projectId=a0b7c245-2e46-4983-bf8f-29c553c03130","19FB1404915F435982BFED72792BC23B-2024-11-18-20-10-04","","null","","[]","null","",""
"","","","","","image-button-response","133","721193","0.0-16.0-1.0-0.4","19FB1404915F435982BFED72792BC23B","19FB1404915F435982BFED72792BC23B","8ec6a1d4-d2a7-4f8f-aa3f-858bf3fa82e8","a0b7c245-2e46-4983-bf8f-29c553c03130","{""participantId"":""19FB1404915F435982BFED72792BC23B"",""assignmentId"":""8ec6a1d4-d2a7-4f8f-aa3f-858bf3fa82e8"",""projectId"":""a0b7c245-2e46-4983-bf8f-29c553c03130""}","https://test12345.live/?participantId=19FB1404915F435982BFED72792BC23B&assignmentId=8ec6a1d4-d2a7-4f8f-aa3f-858bf3fa82e8&projectId=a0b7c245-2e46-4983-bf8f-29c553c03130","19FB1404915F435982BFED72792BC23B-2024-11-18-20-10-04","","null","","images/causal_sequence/package_causal/package_causal_5.png","null","",""
"","","","","","image-button-response","134","722264","0.0-16.0-1.0-1.4","19FB1404915F435982BFED72792BC23B","19FB1404915F435982BFED72792BC23B","8ec6a1d4-d2a7-4f8f-aa3f-858bf3fa82e8","a0b7c245-2e46-4983-bf8f-29c553c03130","{""participantId"":""19FB1404915F435982BFED72792BC23B"",""assignmentId"":""8ec6a1d4-d2a7-4f8f-aa3f-858bf3fa82e8"",""projectId"":""a0b7c245-2e46-4983-bf8f-29c553c03130""}","https://test12345.live/?participantId=19FB1404915F435982BFED72792BC23B&assignmentId=8ec6a1d4-d2a7-4f8f-aa3f-858bf3fa82e8&projectId=a0b7c245-2e46-4983-bf8f-29c553c03130","19FB1404915F435982BFED72792BC23B-2024-11-18-20-10-04","","1069","","images/causal_sequence/package_causal/package_causal_5.png","0","",""
"","","","","","image-button-response","135","724069","0.0-16.0-1.0-2.4","19FB1404915F435982BFED72792BC23B","19FB1404915F435982BFED72792BC23B","8ec6a1d4-d2a7-4f8f-aa3f-858bf3fa82e8","a0b7c245-2e46-4983-bf8f-29c553c03130","{""participantId"":""19FB1404915F435982BFED72792BC23B"",""assignmentId"":""8ec6a1d4-d2a7-4f8f-aa3f-858bf3fa82e8"",""projectId"":""a0b7c245-2e46-4983-bf8f-29c553c03130""}","https://test12345.live/?participantId=19FB1404915F435982BFED72792BC23B&assignmentId=8ec6a1d4-d2a7-4f8f-aa3f-858bf3fa82e8&projectId=a0b7c245-2e46-4983-bf8f-29c553c03130","19FB1404915F435982BFED72792BC23B-2024-11-18-20-10-04","","null","","[]","null","",""
"","","","","","image-button-response","136","728573","0.0-16.0-1.0-0.5","19FB1404915F435982BFED72792BC23B","19FB1404915F435982BFED72792BC23B","8ec6a1d4-d2a7-4f8f-aa3f-858bf3fa82e8","a0b7c245-2e46-4983-bf8f-29c553c03130","{""participantId"":""19FB1404915F435982BFED72792BC23B"",""assignmentId"":""8ec6a1d4-d2a7-4f8f-aa3f-858bf3fa82e8"",""projectId"":""a0b7c245-2e46-4983-bf8f-29c553c03130""}","https://test12345.live/?participantId=19FB1404915F435982BFED72792BC23B&assignmentId=8ec6a1d4-d2a7-4f8f-aa3f-858bf3fa82e8&projectId=a0b7c245-2e46-4983-bf8f-29c553c03130","19FB1404915F435982BFED72792BC23B-2024-11-18-20-10-04","","null","","images/causal_sequence/package_causal/package_causal_1.png","null","",""
"","","","","","image-button-response","137","729596","0.0-16.0-1.0-1.5","19FB1404915F435982BFED72792BC23B","19FB1404915F435982BFED72792BC23B","8ec6a1d4-d2a7-4f8f-aa3f-858bf3fa82e8","a0b7c245-2e46-4983-bf8f-29c553c03130","{""participantId"":""19FB1404915F435982BFED72792BC23B"",""assignmentId"":""8ec6a1d4-d2a7-4f8f-aa3f-858bf3fa82e8"",""projectId"":""a0b7c245-2e46-4983-bf8f-29c553c03130""}","https://test12345.live/?participantId=19FB1404915F435982BFED72792BC23B&assignmentId=8ec6a1d4-d2a7-4f8f-aa3f-858bf3fa82e8&projectId=a0b7c245-2e46-4983-bf8f-29c553c03130","19FB1404915F435982BFED72792BC23B-2024-11-18-20-10-04","","1021","","images/causal_sequence/package_causal/package_causal_1.png","0","",""
"","","","","","image-button-response","138","731402","0.0-16.0-1.0-2.5","19FB1404915F435982BFED72792BC23B","19FB1404915F435982BFED72792BC23B","8ec6a1d4-d2a7-4f8f-aa3f-858bf3fa82e8","a0b7c245-2e46-4983-bf8f-29c553c03130","{""participantId"":""19FB1404915F435982BFED72792BC23B"",""assignmentId"":""8ec6a1d4-d2a7-4f8f-aa3f-858bf3fa82e8"",""projectId"":""a0b7c245-2e46-4983-bf8f-29c553c03130""}","https://test12345.live/?participantId=19FB1404915F435982BFED72792BC23B&assignmentId=8ec6a1d4-d2a7-4f8f-aa3f-858bf3fa82e8&projectId=a0b7c245-2e46-4983-bf8f-29c553c03130","19FB1404915F435982BFED72792BC23B-2024-11-18-20-10-04","","null","","[]","null","",""
"","","","","","image-button-response","139","735910","0.0-16.0-1.0-0.6","19FB1404915F435982BFED72792BC23B","19FB1404915F435982BFED72792BC23B","8ec6a1d4-d2a7-4f8f-aa3f-858bf3fa82e8","a0b7c245-2e46-4983-bf8f-29c553c03130","{""participantId"":""19FB1404915F435982BFED72792BC23B"",""assignmentId"":""8ec6a1d4-d2a7-4f8f-aa3f-858bf3fa82e8"",""projectId"":""a0b7c245-2e46-4983-bf8f-29c553c03130""}","https://test12345.live/?participantId=19FB1404915F435982BFED72792BC23B&assignmentId=8ec6a1d4-d2a7-4f8f-aa3f-858bf3fa82e8&projectId=a0b7c245-2e46-4983-bf8f-29c553c03130","19FB1404915F435982BFED72792BC23B-2024-11-18-20-10-04","","null","","images/causal_sequence/package_causal/package_causal_6.png","null","",""
"","","","","","image-button-response","140","736681","0.0-16.0-1.0-1.6","19FB1404915F435982BFED72792BC23B","19FB1404915F435982BFED72792BC23B","8ec6a1d4-d2a7-4f8f-aa3f-858bf3fa82e8","a0b7c245-2e46-4983-bf8f-29c553c03130","{""participantId"":""19FB1404915F435982BFED72792BC23B"",""assignmentId"":""8ec6a1d4-d2a7-4f8f-aa3f-858bf3fa82e8"",""projectId"":""a0b7c245-2e46-4983-bf8f-29c553c03130""}","https://test12345.live/?participantId=19FB1404915F435982BFED72792BC23B&assignmentId=8ec6a1d4-d2a7-4f8f-aa3f-858bf3fa82e8&projectId=a0b7c245-2e46-4983-bf8f-29c553c03130","19FB1404915F435982BFED72792BC23B-2024-11-18-20-10-04","","769","","images/causal_sequence/package_causal/package_causal_6.png","0","",""
"","","","","","image-button-response","141","738484","0.0-16.0-1.0-2.6","19FB1404915F435982BFED72792BC23B","19FB1404915F435982BFED72792BC23B","8ec6a1d4-d2a7-4f8f-aa3f-858bf3fa82e8","a0b7c245-2e46-4983-bf8f-29c553c03130","{""participantId"":""19FB1404915F435982BFED72792BC23B"",""assignmentId"":""8ec6a1d4-d2a7-4f8f-aa3f-858bf3fa82e8"",""projectId"":""a0b7c245-2e46-4983-bf8f-29c553c03130""}","https://test12345.live/?participantId=19FB1404915F435982BFED72792BC23B&assignmentId=8ec6a1d4-d2a7-4f8f-aa3f-858bf3fa82e8&projectId=a0b7c245-2e46-4983-bf8f-29c553c03130","19FB1404915F435982BFED72792BC23B-2024-11-18-20-10-04","","null","","[]","null","",""
"","","","","","image-button-response","142","742991","0.0-16.0-1.0-0.7","19FB1404915F435982BFED72792BC23B","19FB1404915F435982BFED72792BC23B","8ec6a1d4-d2a7-4f8f-aa3f-858bf3fa82e8","a0b7c245-2e46-4983-bf8f-29c553c03130","{""participantId"":""19FB1404915F435982BFED72792BC23B"",""assignmentId"":""8ec6a1d4-d2a7-4f8f-aa3f-858bf3fa82e8"",""projectId"":""a0b7c245-2e46-4983-bf8f-29c553c03130""}","https://test12345.live/?participantId=19FB1404915F435982BFED72792BC23B&assignmentId=8ec6a1d4-d2a7-4f8f-aa3f-858bf3fa82e8&projectId=a0b7c245-2e46-4983-bf8f-29c553c03130","19FB1404915F435982BFED72792BC23B-2024-11-18-20-10-04","","null","","images/causal_sequence/package_causal/package_causal_2.png","null","",""
"","","","","","image-button-response","143","743781","0.0-16.0-1.0-1.7","19FB1404915F435982BFED72792BC23B","19FB1404915F435982BFED72792BC23B","8ec6a1d4-d2a7-4f8f-aa3f-858bf3fa82e8","a0b7c245-2e46-4983-bf8f-29c553c03130","{""participantId"":""19FB1404915F435982BFED72792BC23B"",""assignmentId"":""8ec6a1d4-d2a7-4f8f-aa3f-858bf3fa82e8"",""projectId"":""a0b7c245-2e46-4983-bf8f-29c553c03130""}","https://test12345.live/?participantId=19FB1404915F435982BFED72792BC23B&assignmentId=8ec6a1d4-d2a7-4f8f-aa3f-858bf3fa82e8&projectId=a0b7c245-2e46-4983-bf8f-29c553c03130","19FB1404915F435982BFED72792BC23B-2024-11-18-20-10-04","","788","","images/causal_sequence/package_causal/package_causal_2.png","0","",""
