"success","timeout","failed_images","failed_audio","failed_video","trial_type","trial_index","time_elapsed","internal_node_id","subject","subject_id","study_id","session_id","urlvar","current_url","audio_id","view_history","rt","device_id","stimulus","response","estimated_stimulus_onset","seq_name"
"true","false","[]","[]","[]","preload","0","1691","0.0-0.0","1ED68823D3214CDBB80039EC4F099D48","1ED68823D3214CDBB80039EC4F099D48","0198ee69-6d88-7119-8738-522e39ba1df0","0198ee3c-27ac-7803-a9ea-f3b4ad4ad678","{""num_scrambled_semantic"":""8"",""num_scrambled_causal"":""4"",""num_scrambled_schematic"":""4"",""participantId"":""1ED68823D3214CDBB80039EC4F099D48"",""assignmentId"":""0198ee69-6d88-7119-8738-522e39ba1df0"",""projectId"":""0198ee3c-27ac-7803-a9ea-f3b4ad4ad678""}","https://test12345.live/?num_scrambled_semantic=8&num_scrambled_causal=4&num_scrambled_schematic=4&participantId=1ED68823D3214CDBB80039EC4F099D48&assignmentId=0198ee69-6d88-7119-8738-522e39ba1df0&projectId=0198ee3c-27ac-7803-a9ea-f3b4ad4ad678","1ED68823D3214CDBB80039EC4F099D48-2025-08-28-02-58-09","","","","","","",""
"","","","","","instructions","1","52907","0.0-1.0","1ED68823D3214CDBB80039EC4F099D48","1ED68823D3214CDBB80039EC4F099D48","0198ee69-6d88-7119-8738-522e39ba1df0","0198ee3c-27ac-7803-a9ea-f3b4ad4ad678","{""num_scrambled_semantic"":""8"",""num_scrambled_causal"":""4"",""num_scrambled_schematic"":""4"",""participantId"":""1ED68823D3214CDBB80039EC4F099D48"",""assignmentId"":""0198ee69-6d88-7119-8738-522e39ba1df0"",""projectId"":""0198ee3c-27ac-7803-a9ea-f3b4ad4ad678""}","https://test12345.live/?num_scrambled_semantic=8&num_scrambled_causal=4&num_scrambled_schematic=4&participantId=1ED68823D3214CDBB80039EC4F099D48&assignmentId=0198ee69-6d88-7119-8738-522e39ba1df0&projectId=0198ee3c-27ac-7803-a9ea-f3b4ad4ad678","1ED68823D3214CDBB80039EC4F099D48-2025-08-28-02-58-09","[{""page_index"":0,""viewing_time"":51216}]","51217","","","","",""
"","","","","","instructions","2","67256","0.0-2.0","1ED68823D3214CDBB80039EC4F099D48","1ED68823D3214CDBB80039EC4F099D48","0198ee69-6d88-7119-8738-522e39ba1df0","0198ee3c-27ac-7803-a9ea-f3b4ad4ad678","{""num_scrambled_semantic"":""8"",""num_scrambled_causal"":""4"",""num_scrambled_schematic"":""4"",""participantId"":""1ED68823D3214CDBB80039EC4F099D48"",""assignmentId"":""0198ee69-6d88-7119-8738-522e39ba1df0"",""projectId"":""0198ee3c-27ac-7803-a9ea-f3b4ad4ad678""}","https://test12345.live/?num_scrambled_semantic=8&num_scrambled_causal=4&num_scrambled_schematic=4&participantId=1ED68823D3214CDBB80039EC4F099D48&assignmentId=0198ee69-6d88-7119-8738-522e39ba1df0&projectId=0198ee3c-27ac-7803-a9ea-f3b4ad4ad678","1ED68823D3214CDBB80039EC4F099D48-2025-08-28-02-58-09","[{""page_index"":0,""viewing_time"":14348}]","14348","","","","",""
"true","","","","","fullscreen","3","76267","0.0-3.0","1ED68823D3214CDBB80039EC4F099D48","1ED68823D3214CDBB80039EC4F099D48","0198ee69-6d88-7119-8738-522e39ba1df0","0198ee3c-27ac-7803-a9ea-f3b4ad4ad678","{""num_scrambled_semantic"":""8"",""num_scrambled_causal"":""4"",""num_scrambled_schematic"":""4"",""participantId"":""1ED68823D3214CDBB80039EC4F099D48"",""assignmentId"":""0198ee69-6d88-7119-8738-522e39ba1df0"",""projectId"":""0198ee3c-27ac-7803-a9ea-f3b4ad4ad678""}","https://test12345.live/?num_scrambled_semantic=8&num_scrambled_causal=4&num_scrambled_schematic=4&participantId=1ED68823D3214CDBB80039EC4F099D48&assignmentId=0198ee69-6d88-7119-8738-522e39ba1df0&projectId=0198ee3c-27ac-7803-a9ea-f3b4ad4ad678","1ED68823D3214CDBB80039EC4F099D48-2025-08-28-02-58-09","","8007","","","","",""
"","","","","","initialize-microphone","4","83641","0.0-4.0-0.0","1ED68823D3214CDBB80039EC4F099D48","1ED68823D3214CDBB80039EC4F099D48","0198ee69-6d88-7119-8738-522e39ba1df0","0198ee3c-27ac-7803-a9ea-f3b4ad4ad678","{""num_scrambled_semantic"":""8"",""num_scrambled_causal"":""4"",""num_scrambled_schematic"":""4"",""participantId"":""1ED68823D3214CDBB80039EC4F099D48"",""assignmentId"":""0198ee69-6d88-7119-8738-522e39ba1df0"",""projectId"":""0198ee3c-27ac-7803-a9ea-f3b4ad4ad678""}","https://test12345.live/?num_scrambled_semantic=8&num_scrambled_causal=4&num_scrambled_schematic=4&participantId=1ED68823D3214CDBB80039EC4F099D48&assignmentId=0198ee69-6d88-7119-8738-522e39ba1df0&projectId=0198ee3c-27ac-7803-a9ea-f3b4ad4ad678","1ED68823D3214CDBB80039EC4F099D48-2025-08-28-02-58-09","","","1c95d9e8fb66db56f2df0bd6f5bfa2bbc0f5554dcc0c53a1a581bde6cdb84e6e","","","",""
"","","","","","html-audio-response","5","95818","0.0-4.0-1.0","1ED68823D3214CDBB80039EC4F099D48","1ED68823D3214CDBB80039EC4F099D48","0198ee69-6d88-7119-8738-522e39ba1df0","0198ee3c-27ac-7803-a9ea-f3b4ad4ad678","{""num_scrambled_semantic"":""8"",""num_scrambled_causal"":""4"",""num_scrambled_schematic"":""4"",""participantId"":""1ED68823D3214CDBB80039EC4F099D48"",""assignmentId"":""0198ee69-6d88-7119-8738-522e39ba1df0"",""projectId"":""0198ee3c-27ac-7803-a9ea-f3b4ad4ad678""}","https://test12345.live/?num_scrambled_semantic=8&num_scrambled_causal=4&num_scrambled_schematic=4&participantId=1ED68823D3214CDBB80039EC4F099D48&assignmentId=0198ee69-6d88-7119-8738-522e39ba1df0&projectId=0198ee3c-27ac-7803-a9ea-f3b4ad4ad678","1ED68823D3214CDBB80039EC4F099D48-2025-08-28-02-58-09","","5673","","<span style=""color: red; font-size: 24px""> NOW RECORDING</span>
        <p>Please test Microphone</p>","","2",""
"","","","","","html-button-response","6","97780","0.0-4.0-2.0","1ED68823D3214CDBB80039EC4F099D48","1ED68823D3214CDBB80039EC4F099D48","0198ee69-6d88-7119-8738-522e39ba1df0","0198ee3c-27ac-7803-a9ea-f3b4ad4ad678","{""num_scrambled_semantic"":""8"",""num_scrambled_causal"":""4"",""num_scrambled_schematic"":""4"",""participantId"":""1ED68823D3214CDBB80039EC4F099D48"",""assignmentId"":""0198ee69-6d88-7119-8738-522e39ba1df0"",""projectId"":""0198ee3c-27ac-7803-a9ea-f3b4ad4ad678""}","https://test12345.live/?num_scrambled_semantic=8&num_scrambled_causal=4&num_scrambled_schematic=4&participantId=1ED68823D3214CDBB80039EC4F099D48&assignmentId=0198ee69-6d88-7119-8738-522e39ba1df0&projectId=0198ee3c-27ac-7803-a9ea-f3b4ad4ad678","1ED68823D3214CDBB80039EC4F099D48-2025-08-28-02-58-09","","1961","","<p style=""font-size:48px; color:red;"">Is Microphone OK?</p>","1","",""
"","","","","","instructions","7","141421","0.0-5.0","1ED68823D3214CDBB80039EC4F099D48","1ED68823D3214CDBB80039EC4F099D48","0198ee69-6d88-7119-8738-522e39ba1df0","0198ee3c-27ac-7803-a9ea-f3b4ad4ad678","{""num_scrambled_semantic"":""8"",""num_scrambled_causal"":""4"",""num_scrambled_schematic"":""4"",""participantId"":""1ED68823D3214CDBB80039EC4F099D48"",""assignmentId"":""0198ee69-6d88-7119-8738-522e39ba1df0"",""projectId"":""0198ee3c-27ac-7803-a9ea-f3b4ad4ad678""}","https://test12345.live/?num_scrambled_semantic=8&num_scrambled_causal=4&num_scrambled_schematic=4&participantId=1ED68823D3214CDBB80039EC4F099D48&assignmentId=0198ee69-6d88-7119-8738-522e39ba1df0&projectId=0198ee3c-27ac-7803-a9ea-f3b4ad4ad678","1ED68823D3214CDBB80039EC4F099D48-2025-08-28-02-58-09","[{""page_index"":0,""viewing_time"":4703},{""page_index"":1,""viewing_time"":38938}]","43641","","","","",""
"","","","","","image-button-response","8","147427","0.0-6.0-0.0","1ED68823D3214CDBB80039EC4F099D48","1ED68823D3214CDBB80039EC4F099D48","0198ee69-6d88-7119-8738-522e39ba1df0","0198ee3c-27ac-7803-a9ea-f3b4ad4ad678","{""num_scrambled_semantic"":""8"",""num_scrambled_causal"":""4"",""num_scrambled_schematic"":""4"",""participantId"":""1ED68823D3214CDBB80039EC4F099D48"",""assignmentId"":""0198ee69-6d88-7119-8738-522e39ba1df0"",""projectId"":""0198ee3c-27ac-7803-a9ea-f3b4ad4ad678""}","https://test12345.live/?num_scrambled_semantic=8&num_scrambled_causal=4&num_scrambled_schematic=4&participantId=1ED68823D3214CDBB80039EC4F099D48&assignmentId=0198ee69-6d88-7119-8738-522e39ba1df0&projectId=0198ee3c-27ac-7803-a9ea-f3b4ad4ad678","1ED68823D3214CDBB80039EC4F099D48-2025-08-28-02-58-09","","null","","images/instructions/movie_0.png","null","",""
"","","","","","image-button-response","9","151940","0.0-6.0-1.0-0.0","1ED68823D3214CDBB80039EC4F099D48","1ED68823D3214CDBB80039EC4F099D48","0198ee69-6d88-7119-8738-522e39ba1df0","0198ee3c-27ac-7803-a9ea-f3b4ad4ad678","{""num_scrambled_semantic"":""8"",""num_scrambled_causal"":""4"",""num_scrambled_schematic"":""4"",""participantId"":""1ED68823D3214CDBB80039EC4F099D48"",""assignmentId"":""0198ee69-6d88-7119-8738-522e39ba1df0"",""projectId"":""0198ee3c-27ac-7803-a9ea-f3b4ad4ad678""}","https://test12345.live/?num_scrambled_semantic=8&num_scrambled_causal=4&num_scrambled_schematic=4&participantId=1ED68823D3214CDBB80039EC4F099D48&assignmentId=0198ee69-6d88-7119-8738-522e39ba1df0&projectId=0198ee3c-27ac-7803-a9ea-f3b4ad4ad678","1ED68823D3214CDBB80039EC4F099D48-2025-08-28-02-58-09","","null","","images/instructions/movie_1.png","null","",""
"","","","","","image-button-response","10","155949","0.0-6.0-1.0-1.0","1ED68823D3214CDBB80039EC4F099D48","1ED68823D3214CDBB80039EC4F099D48","0198ee69-6d88-7119-8738-522e39ba1df0","0198ee3c-27ac-7803-a9ea-f3b4ad4ad678","{""num_scrambled_semantic"":""8"",""num_scrambled_causal"":""4"",""num_scrambled_schematic"":""4"",""participantId"":""1ED68823D3214CDBB80039EC4F099D48"",""assignmentId"":""0198ee69-6d88-7119-8738-522e39ba1df0"",""projectId"":""0198ee3c-27ac-7803-a9ea-f3b4ad4ad678""}","https://test12345.live/?num_scrambled_semantic=8&num_scrambled_causal=4&num_scrambled_schematic=4&participantId=1ED68823D3214CDBB80039EC4F099D48&assignmentId=0198ee69-6d88-7119-8738-522e39ba1df0&projectId=0198ee3c-27ac-7803-a9ea-f3b4ad4ad678","1ED68823D3214CDBB80039EC4F099D48-2025-08-28-02-58-09","","null","","images/instructions/movie_1.png","null","",""
"","","","","","image-button-response","11","157754","0.0-6.0-1.0-2.0","1ED68823D3214CDBB80039EC4F099D48","1ED68823D3214CDBB80039EC4F099D48","0198ee69-6d88-7119-8738-522e39ba1df0","0198ee3c-27ac-7803-a9ea-f3b4ad4ad678","{""num_scrambled_semantic"":""8"",""num_scrambled_causal"":""4"",""num_scrambled_schematic"":""4"",""participantId"":""1ED68823D3214CDBB80039EC4F099D48"",""assignmentId"":""0198ee69-6d88-7119-8738-522e39ba1df0"",""projectId"":""0198ee3c-27ac-7803-a9ea-f3b4ad4ad678""}","https://test12345.live/?num_scrambled_semantic=8&num_scrambled_causal=4&num_scrambled_schematic=4&participantId=1ED68823D3214CDBB80039EC4F099D48&assignmentId=0198ee69-6d88-7119-8738-522e39ba1df0&projectId=0198ee3c-27ac-7803-a9ea-f3b4ad4ad678","1ED68823D3214CDBB80039EC4F099D48-2025-08-28-02-58-09","","null","","[]","null","",""
"","","","","","image-button-response","12","162269","0.0-6.0-1.0-0.1","1ED68823D3214CDBB80039EC4F099D48","1ED68823D3214CDBB80039EC4F099D48","0198ee69-6d88-7119-8738-522e39ba1df0","0198ee3c-27ac-7803-a9ea-f3b4ad4ad678","{""num_scrambled_semantic"":""8"",""num_scrambled_causal"":""4"",""num_scrambled_schematic"":""4"",""participantId"":""1ED68823D3214CDBB80039EC4F099D48"",""assignmentId"":""0198ee69-6d88-7119-8738-522e39ba1df0"",""projectId"":""0198ee3c-27ac-7803-a9ea-f3b4ad4ad678""}","https://test12345.live/?num_scrambled_semantic=8&num_scrambled_causal=4&num_scrambled_schematic=4&participantId=1ED68823D3214CDBB80039EC4F099D48&assignmentId=0198ee69-6d88-7119-8738-522e39ba1df0&projectId=0198ee3c-27ac-7803-a9ea-f3b4ad4ad678","1ED68823D3214CDBB80039EC4F099D48-2025-08-28-02-58-09","","null","","images/instructions/movie_2.png","null","",""
"","","","","","image-button-response","13","163862","0.0-6.0-1.0-1.1","1ED68823D3214CDBB80039EC4F099D48","1ED68823D3214CDBB80039EC4F099D48","0198ee69-6d88-7119-8738-522e39ba1df0","0198ee3c-27ac-7803-a9ea-f3b4ad4ad678","{""num_scrambled_semantic"":""8"",""num_scrambled_causal"":""4"",""num_scrambled_schematic"":""4"",""participantId"":""1ED68823D3214CDBB80039EC4F099D48"",""assignmentId"":""0198ee69-6d88-7119-8738-522e39ba1df0"",""projectId"":""0198ee3c-27ac-7803-a9ea-f3b4ad4ad678""}","https://test12345.live/?num_scrambled_semantic=8&num_scrambled_causal=4&num_scrambled_schematic=4&participantId=1ED68823D3214CDBB80039EC4F099D48&assignmentId=0198ee69-6d88-7119-8738-522e39ba1df0&projectId=0198ee3c-27ac-7803-a9ea-f3b4ad4ad678","1ED68823D3214CDBB80039EC4F099D48-2025-08-28-02-58-09","","1592","","images/instructions/movie_2.png","1","",""
"","","","","","image-button-response","14","165674","0.0-6.0-1.0-2.1","1ED68823D3214CDBB80039EC4F099D48","1ED68823D3214CDBB80039EC4F099D48","0198ee69-6d88-7119-8738-522e39ba1df0","0198ee3c-27ac-7803-a9ea-f3b4ad4ad678","{""num_scrambled_semantic"":""8"",""num_scrambled_causal"":""4"",""num_scrambled_schematic"":""4"",""participantId"":""1ED68823D3214CDBB80039EC4F099D48"",""assignmentId"":""0198ee69-6d88-7119-8738-522e39ba1df0"",""projectId"":""0198ee3c-27ac-7803-a9ea-f3b4ad4ad678""}","https://test12345.live/?num_scrambled_semantic=8&num_scrambled_causal=4&num_scrambled_schematic=4&participantId=1ED68823D3214CDBB80039EC4F099D48&assignmentId=0198ee69-6d88-7119-8738-522e39ba1df0&projectId=0198ee3c-27ac-7803-a9ea-f3b4ad4ad678","1ED68823D3214CDBB80039EC4F099D48-2025-08-28-02-58-09","","null","","[]","null","",""
"","","","","","image-button-response","15","170187","0.0-6.0-1.0-0.2","1ED68823D3214CDBB80039EC4F099D48","1ED68823D3214CDBB80039EC4F099D48","0198ee69-6d88-7119-8738-522e39ba1df0","0198ee3c-27ac-7803-a9ea-f3b4ad4ad678","{""num_scrambled_semantic"":""8"",""num_scrambled_causal"":""4"",""num_scrambled_schematic"":""4"",""participantId"":""1ED68823D3214CDBB80039EC4F099D48"",""assignmentId"":""0198ee69-6d88-7119-8738-522e39ba1df0"",""projectId"":""0198ee3c-27ac-7803-a9ea-f3b4ad4ad678""}","https://test12345.live/?num_scrambled_semantic=8&num_scrambled_causal=4&num_scrambled_schematic=4&participantId=1ED68823D3214CDBB80039EC4F099D48&assignmentId=0198ee69-6d88-7119-8738-522e39ba1df0&projectId=0198ee3c-27ac-7803-a9ea-f3b4ad4ad678","1ED68823D3214CDBB80039EC4F099D48-2025-08-28-02-58-09","","null","","images/instructions/movie_3.png","null","",""
"","","","","","image-button-response","16","171594","0.0-6.0-1.0-1.2","1ED68823D3214CDBB80039EC4F099D48","1ED68823D3214CDBB80039EC4F099D48","0198ee69-6d88-7119-8738-522e39ba1df0","0198ee3c-27ac-7803-a9ea-f3b4ad4ad678","{""num_scrambled_semantic"":""8"",""num_scrambled_causal"":""4"",""num_scrambled_schematic"":""4"",""participantId"":""1ED68823D3214CDBB80039EC4F099D48"",""assignmentId"":""0198ee69-6d88-7119-8738-522e39ba1df0"",""projectId"":""0198ee3c-27ac-7803-a9ea-f3b4ad4ad678""}","https://test12345.live/?num_scrambled_semantic=8&num_scrambled_causal=4&num_scrambled_schematic=4&participantId=1ED68823D3214CDBB80039EC4F099D48&assignmentId=0198ee69-6d88-7119-8738-522e39ba1df0&projectId=0198ee3c-27ac-7803-a9ea-f3b4ad4ad678","1ED68823D3214CDBB80039EC4F099D48-2025-08-28-02-58-09","","1406","","images/instructions/movie_3.png","0","",""
"","","","","","image-button-response","17","173401","0.0-6.0-1.0-2.2","1ED68823D3214CDBB80039EC4F099D48","1ED68823D3214CDBB80039EC4F099D48","0198ee69-6d88-7119-8738-522e39ba1df0","0198ee3c-27ac-7803-a9ea-f3b4ad4ad678","{""num_scrambled_semantic"":""8"",""num_scrambled_causal"":""4"",""num_scrambled_schematic"":""4"",""participantId"":""1ED68823D3214CDBB80039EC4F099D48"",""assignmentId"":""0198ee69-6d88-7119-8738-522e39ba1df0"",""projectId"":""0198ee3c-27ac-7803-a9ea-f3b4ad4ad678""}","https://test12345.live/?num_scrambled_semantic=8&num_scrambled_causal=4&num_scrambled_schematic=4&participantId=1ED68823D3214CDBB80039EC4F099D48&assignmentId=0198ee69-6d88-7119-8738-522e39ba1df0&projectId=0198ee3c-27ac-7803-a9ea-f3b4ad4ad678","1ED68823D3214CDBB80039EC4F099D48-2025-08-28-02-58-09","","null","","[]","null","",""
"","","","","","image-button-response","18","177909","0.0-6.0-1.0-0.3","1ED68823D3214CDBB80039EC4F099D48","1ED68823D3214CDBB80039EC4F099D48","0198ee69-6d88-7119-8738-522e39ba1df0","0198ee3c-27ac-7803-a9ea-f3b4ad4ad678","{""num_scrambled_semantic"":""8"",""num_scrambled_causal"":""4"",""num_scrambled_schematic"":""4"",""participantId"":""1ED68823D3214CDBB80039EC4F099D48"",""assignmentId"":""0198ee69-6d88-7119-8738-522e39ba1df0"",""projectId"":""0198ee3c-27ac-7803-a9ea-f3b4ad4ad678""}","https://test12345.live/?num_scrambled_semantic=8&num_scrambled_causal=4&num_scrambled_schematic=4&participantId=1ED68823D3214CDBB80039EC4F099D48&assignmentId=0198ee69-6d88-7119-8738-522e39ba1df0&projectId=0198ee3c-27ac-7803-a9ea-f3b4ad4ad678","1ED68823D3214CDBB80039EC4F099D48-2025-08-28-02-58-09","","null","","images/instructions/movie_4.png","null","",""
"","","","","","image-button-response","19","178986","0.0-6.0-1.0-1.3","1ED68823D3214CDBB80039EC4F099D48","1ED68823D3214CDBB80039EC4F099D48","0198ee69-6d88-7119-8738-522e39ba1df0","0198ee3c-27ac-7803-a9ea-f3b4ad4ad678","{""num_scrambled_semantic"":""8"",""num_scrambled_causal"":""4"",""num_scrambled_schematic"":""4"",""participantId"":""1ED68823D3214CDBB80039EC4F099D48"",""assignmentId"":""0198ee69-6d88-7119-8738-522e39ba1df0"",""projectId"":""0198ee3c-27ac-7803-a9ea-f3b4ad4ad678""}","https://test12345.live/?num_scrambled_semantic=8&num_scrambled_causal=4&num_scrambled_schematic=4&participantId=1ED68823D3214CDBB80039EC4F099D48&assignmentId=0198ee69-6d88-7119-8738-522e39ba1df0&projectId=0198ee3c-27ac-7803-a9ea-f3b4ad4ad678","1ED68823D3214CDBB80039EC4F099D48-2025-08-28-02-58-09","","1076","","images/instructions/movie_4.png","0","",""
"","","","","","image-button-response","20","180798","0.0-6.0-1.0-2.3","1ED68823D3214CDBB80039EC4F099D48","1ED68823D3214CDBB80039EC4F099D48","0198ee69-6d88-7119-8738-522e39ba1df0","0198ee3c-27ac-7803-a9ea-f3b4ad4ad678","{""num_scrambled_semantic"":""8"",""num_scrambled_causal"":""4"",""num_scrambled_schematic"":""4"",""participantId"":""1ED68823D3214CDBB80039EC4F099D48"",""assignmentId"":""0198ee69-6d88-7119-8738-522e39ba1df0"",""projectId"":""0198ee3c-27ac-7803-a9ea-f3b4ad4ad678""}","https://test12345.live/?num_scrambled_semantic=8&num_scrambled_causal=4&num_scrambled_schematic=4&participantId=1ED68823D3214CDBB80039EC4F099D48&assignmentId=0198ee69-6d88-7119-8738-522e39ba1df0&projectId=0198ee3c-27ac-7803-a9ea-f3b4ad4ad678","1ED68823D3214CDBB80039EC4F099D48-2025-08-28-02-58-09","","null","","[]","null","",""
"","","","","","instructions","21","206434","0.0-7.0","1ED68823D3214CDBB80039EC4F099D48","1ED68823D3214CDBB80039EC4F099D48","0198ee69-6d88-7119-8738-522e39ba1df0","0198ee3c-27ac-7803-a9ea-f3b4ad4ad678","{""num_scrambled_semantic"":""8"",""num_scrambled_causal"":""4"",""num_scrambled_schematic"":""4"",""participantId"":""1ED68823D3214CDBB80039EC4F099D48"",""assignmentId"":""0198ee69-6d88-7119-8738-522e39ba1df0"",""projectId"":""0198ee3c-27ac-7803-a9ea-f3b4ad4ad678""}","https://test12345.live/?num_scrambled_semantic=8&num_scrambled_causal=4&num_scrambled_schematic=4&participantId=1ED68823D3214CDBB80039EC4F099D48&assignmentId=0198ee69-6d88-7119-8738-522e39ba1df0&projectId=0198ee3c-27ac-7803-a9ea-f3b4ad4ad678","1ED68823D3214CDBB80039EC4F099D48-2025-08-28-02-58-09","[{""page_index"":0,""viewing_time"":25636}]","25636","","","","",""
"","","","","","html-audio-response","22","228415","0.0-8.0","1ED68823D3214CDBB80039EC4F099D48","1ED68823D3214CDBB80039EC4F099D48","0198ee69-6d88-7119-8738-522e39ba1df0","0198ee3c-27ac-7803-a9ea-f3b4ad4ad678","{""num_scrambled_semantic"":""8"",""num_scrambled_causal"":""4"",""num_scrambled_schematic"":""4"",""participantId"":""1ED68823D3214CDBB80039EC4F099D48"",""assignmentId"":""0198ee69-6d88-7119-8738-522e39ba1df0"",""projectId"":""0198ee3c-27ac-7803-a9ea-f3b4ad4ad678""}","https://test12345.live/?num_scrambled_semantic=8&num_scrambled_causal=4&num_scrambled_schematic=4&participantId=1ED68823D3214CDBB80039EC4F099D48&assignmentId=0198ee69-6d88-7119-8738-522e39ba1df0&projectId=0198ee3c-27ac-7803-a9ea-f3b4ad4ad678","1ED68823D3214CDBB80039EC4F099D48-2025-08-28-02-58-09","","15157","","[""<span style=\""color: red; font-size: 24px\""> NOW RECORDING</span><p>Please say out loud all the images you saw, in the order of the story they create. Try to recall the sequence of events as they appeared in the story, not necessarily the order they were presented on the screen.</p>""]","","1",""
"","","","","","instructions","23","229418","0.0-9.0","1ED68823D3214CDBB80039EC4F099D48","1ED68823D3214CDBB80039EC4F099D48","0198ee69-6d88-7119-8738-522e39ba1df0","0198ee3c-27ac-7803-a9ea-f3b4ad4ad678","{""num_scrambled_semantic"":""8"",""num_scrambled_causal"":""4"",""num_scrambled_schematic"":""4"",""participantId"":""1ED68823D3214CDBB80039EC4F099D48"",""assignmentId"":""0198ee69-6d88-7119-8738-522e39ba1df0"",""projectId"":""0198ee3c-27ac-7803-a9ea-f3b4ad4ad678""}","https://test12345.live/?num_scrambled_semantic=8&num_scrambled_causal=4&num_scrambled_schematic=4&participantId=1ED68823D3214CDBB80039EC4F099D48&assignmentId=0198ee69-6d88-7119-8738-522e39ba1df0&projectId=0198ee3c-27ac-7803-a9ea-f3b4ad4ad678","1ED68823D3214CDBB80039EC4F099D48-2025-08-28-02-58-09","[{""page_index"":0,""viewing_time"":1001}]","1001","","","","",""
"","","","","","image-button-response","24","235426","0.0-10.0-0.0","1ED68823D3214CDBB80039EC4F099D48","1ED68823D3214CDBB80039EC4F099D48","0198ee69-6d88-7119-8738-522e39ba1df0","0198ee3c-27ac-7803-a9ea-f3b4ad4ad678","{""num_scrambled_semantic"":""8"",""num_scrambled_causal"":""4"",""num_scrambled_schematic"":""4"",""participantId"":""1ED68823D3214CDBB80039EC4F099D48"",""assignmentId"":""0198ee69-6d88-7119-8738-522e39ba1df0"",""projectId"":""0198ee3c-27ac-7803-a9ea-f3b4ad4ad678""}","https://test12345.live/?num_scrambled_semantic=8&num_scrambled_causal=4&num_scrambled_schematic=4&participantId=1ED68823D3214CDBB80039EC4F099D48&assignmentId=0198ee69-6d88-7119-8738-522e39ba1df0&projectId=0198ee3c-27ac-7803-a9ea-f3b4ad4ad678","1ED68823D3214CDBB80039EC4F099D48-2025-08-28-02-58-09","","null","","images/schematic_sequence/supermarket_scheme/supermarket_scheme_0.png","null","",""
"","","","","","image-button-response","25","239937","0.0-10.0-1.0-0.0","1ED68823D3214CDBB80039EC4F099D48","1ED68823D3214CDBB80039EC4F099D48","0198ee69-6d88-7119-8738-522e39ba1df0","0198ee3c-27ac-7803-a9ea-f3b4ad4ad678","{""num_scrambled_semantic"":""8"",""num_scrambled_causal"":""4"",""num_scrambled_schematic"":""4"",""participantId"":""1ED68823D3214CDBB80039EC4F099D48"",""assignmentId"":""0198ee69-6d88-7119-8738-522e39ba1df0"",""projectId"":""0198ee3c-27ac-7803-a9ea-f3b4ad4ad678""}","https://test12345.live/?num_scrambled_semantic=8&num_scrambled_causal=4&num_scrambled_schematic=4&participantId=1ED68823D3214CDBB80039EC4F099D48&assignmentId=0198ee69-6d88-7119-8738-522e39ba1df0&projectId=0198ee3c-27ac-7803-a9ea-f3b4ad4ad678","1ED68823D3214CDBB80039EC4F099D48-2025-08-28-02-58-09","","null","","images/schematic_sequence/supermarket_scheme/supermarket_scheme_1.png","null","",""
"","","","","","image-button-response","26","241440","0.0-10.0-1.0-1.0","1ED68823D3214CDBB80039EC4F099D48","1ED68823D3214CDBB80039EC4F099D48","0198ee69-6d88-7119-8738-522e39ba1df0","0198ee3c-27ac-7803-a9ea-f3b4ad4ad678","{""num_scrambled_semantic"":""8"",""num_scrambled_causal"":""4"",""num_scrambled_schematic"":""4"",""participantId"":""1ED68823D3214CDBB80039EC4F099D48"",""assignmentId"":""0198ee69-6d88-7119-8738-522e39ba1df0"",""projectId"":""0198ee3c-27ac-7803-a9ea-f3b4ad4ad678""}","https://test12345.live/?num_scrambled_semantic=8&num_scrambled_causal=4&num_scrambled_schematic=4&participantId=1ED68823D3214CDBB80039EC4F099D48&assignmentId=0198ee69-6d88-7119-8738-522e39ba1df0&projectId=0198ee3c-27ac-7803-a9ea-f3b4ad4ad678","1ED68823D3214CDBB80039EC4F099D48-2025-08-28-02-58-09","","1502","","images/schematic_sequence/supermarket_scheme/supermarket_scheme_1.png","1","",""
"","","","","","image-button-response","27","243244","0.0-10.0-1.0-2.0","1ED68823D3214CDBB80039EC4F099D48","1ED68823D3214CDBB80039EC4F099D48","0198ee69-6d88-7119-8738-522e39ba1df0","0198ee3c-27ac-7803-a9ea-f3b4ad4ad678","{""num_scrambled_semantic"":""8"",""num_scrambled_causal"":""4"",""num_scrambled_schematic"":""4"",""participantId"":""1ED68823D3214CDBB80039EC4F099D48"",""assignmentId"":""0198ee69-6d88-7119-8738-522e39ba1df0"",""projectId"":""0198ee3c-27ac-7803-a9ea-f3b4ad4ad678""}","https://test12345.live/?num_scrambled_semantic=8&num_scrambled_causal=4&num_scrambled_schematic=4&participantId=1ED68823D3214CDBB80039EC4F099D48&assignmentId=0198ee69-6d88-7119-8738-522e39ba1df0&projectId=0198ee3c-27ac-7803-a9ea-f3b4ad4ad678","1ED68823D3214CDBB80039EC4F099D48-2025-08-28-02-58-09","","null","","[]","null","",""
"","","","","","image-button-response","28","247753","0.0-10.0-1.0-0.1","1ED68823D3214CDBB80039EC4F099D48","1ED68823D3214CDBB80039EC4F099D48","0198ee69-6d88-7119-8738-522e39ba1df0","0198ee3c-27ac-7803-a9ea-f3b4ad4ad678","{""num_scrambled_semantic"":""8"",""num_scrambled_causal"":""4"",""num_scrambled_schematic"":""4"",""participantId"":""1ED68823D3214CDBB80039EC4F099D48"",""assignmentId"":""0198ee69-6d88-7119-8738-522e39ba1df0"",""projectId"":""0198ee3c-27ac-7803-a9ea-f3b4ad4ad678""}","https://test12345.live/?num_scrambled_semantic=8&num_scrambled_causal=4&num_scrambled_schematic=4&participantId=1ED68823D3214CDBB80039EC4F099D48&assignmentId=0198ee69-6d88-7119-8738-522e39ba1df0&projectId=0198ee3c-27ac-7803-a9ea-f3b4ad4ad678","1ED68823D3214CDBB80039EC4F099D48-2025-08-28-02-58-09","","null","","images/schematic_sequence/supermarket_scheme/supermarket_scheme_2.png","null","",""
"","","","","","image-button-response","29","249282","0.0-10.0-1.0-1.1","1ED68823D3214CDBB80039EC4F099D48","1ED68823D3214CDBB80039EC4F099D48","0198ee69-6d88-7119-8738-522e39ba1df0","0198ee3c-27ac-7803-a9ea-f3b4ad4ad678","{""num_scrambled_semantic"":""8"",""num_scrambled_causal"":""4"",""num_scrambled_schematic"":""4"",""participantId"":""1ED68823D3214CDBB80039EC4F099D48"",""assignmentId"":""0198ee69-6d88-7119-8738-522e39ba1df0"",""projectId"":""0198ee3c-27ac-7803-a9ea-f3b4ad4ad678""}","https://test12345.live/?num_scrambled_semantic=8&num_scrambled_causal=4&num_scrambled_schematic=4&participantId=1ED68823D3214CDBB80039EC4F099D48&assignmentId=0198ee69-6d88-7119-8738-522e39ba1df0&projectId=0198ee3c-27ac-7803-a9ea-f3b4ad4ad678","1ED68823D3214CDBB80039EC4F099D48-2025-08-28-02-58-09","","1529","","images/schematic_sequence/supermarket_scheme/supermarket_scheme_2.png","1","",""
"","","","","","image-button-response","30","251087","0.0-10.0-1.0-2.1","1ED68823D3214CDBB80039EC4F099D48","1ED68823D3214CDBB80039EC4F099D48","0198ee69-6d88-7119-8738-522e39ba1df0","0198ee3c-27ac-7803-a9ea-f3b4ad4ad678","{""num_scrambled_semantic"":""8"",""num_scrambled_causal"":""4"",""num_scrambled_schematic"":""4"",""participantId"":""1ED68823D3214CDBB80039EC4F099D48"",""assignmentId"":""0198ee69-6d88-7119-8738-522e39ba1df0"",""projectId"":""0198ee3c-27ac-7803-a9ea-f3b4ad4ad678""}","https://test12345.live/?num_scrambled_semantic=8&num_scrambled_causal=4&num_scrambled_schematic=4&participantId=1ED68823D3214CDBB80039EC4F099D48&assignmentId=0198ee69-6d88-7119-8738-522e39ba1df0&projectId=0198ee3c-27ac-7803-a9ea-f3b4ad4ad678","1ED68823D3214CDBB80039EC4F099D48-2025-08-28-02-58-09","","null","","[]","null","",""
"","","","","","image-button-response","31","255596","0.0-10.0-1.0-0.2","1ED68823D3214CDBB80039EC4F099D48","1ED68823D3214CDBB80039EC4F099D48","0198ee69-6d88-7119-8738-522e39ba1df0","0198ee3c-27ac-7803-a9ea-f3b4ad4ad678","{""num_scrambled_semantic"":""8"",""num_scrambled_causal"":""4"",""num_scrambled_schematic"":""4"",""participantId"":""1ED68823D3214CDBB80039EC4F099D48"",""assignmentId"":""0198ee69-6d88-7119-8738-522e39ba1df0"",""projectId"":""0198ee3c-27ac-7803-a9ea-f3b4ad4ad678""}","https://test12345.live/?num_scrambled_semantic=8&num_scrambled_causal=4&num_scrambled_schematic=4&participantId=1ED68823D3214CDBB80039EC4F099D48&assignmentId=0198ee69-6d88-7119-8738-522e39ba1df0&projectId=0198ee3c-27ac-7803-a9ea-f3b4ad4ad678","1ED68823D3214CDBB80039EC4F099D48-2025-08-28-02-58-09","","null","","images/schematic_sequence/supermarket_scheme/supermarket_scheme_3.png","null","",""
"","","","","","image-button-response","32","256795","0.0-10.0-1.0-1.2","1ED68823D3214CDBB80039EC4F099D48","1ED68823D3214CDBB80039EC4F099D48","0198ee69-6d88-7119-8738-522e39ba1df0","0198ee3c-27ac-7803-a9ea-f3b4ad4ad678","{""num_scrambled_semantic"":""8"",""num_scrambled_causal"":""4"",""num_scrambled_schematic"":""4"",""participantId"":""1ED68823D3214CDBB80039EC4F099D48"",""assignmentId"":""0198ee69-6d88-7119-8738-522e39ba1df0"",""projectId"":""0198ee3c-27ac-7803-a9ea-f3b4ad4ad678""}","https://test12345.live/?num_scrambled_semantic=8&num_scrambled_causal=4&num_scrambled_schematic=4&participantId=1ED68823D3214CDBB80039EC4F099D48&assignmentId=0198ee69-6d88-7119-8738-522e39ba1df0&projectId=0198ee3c-27ac-7803-a9ea-f3b4ad4ad678","1ED68823D3214CDBB80039EC4F099D48-2025-08-28-02-58-09","","1199","","images/schematic_sequence/supermarket_scheme/supermarket_scheme_3.png","1","",""
"","","","","","image-button-response","33","258610","0.0-10.0-1.0-2.2","1ED68823D3214CDBB80039EC4F099D48","1ED68823D3214CDBB80039EC4F099D48","0198ee69-6d88-7119-8738-522e39ba1df0","0198ee3c-27ac-7803-a9ea-f3b4ad4ad678","{""num_scrambled_semantic"":""8"",""num_scrambled_causal"":""4"",""num_scrambled_schematic"":""4"",""participantId"":""1ED68823D3214CDBB80039EC4F099D48"",""assignmentId"":""0198ee69-6d88-7119-8738-522e39ba1df0"",""projectId"":""0198ee3c-27ac-7803-a9ea-f3b4ad4ad678""}","https://test12345.live/?num_scrambled_semantic=8&num_scrambled_causal=4&num_scrambled_schematic=4&participantId=1ED68823D3214CDBB80039EC4F099D48&assignmentId=0198ee69-6d88-7119-8738-522e39ba1df0&projectId=0198ee3c-27ac-7803-a9ea-f3b4ad4ad678","1ED68823D3214CDBB80039EC4F099D48-2025-08-28-02-58-09","","null","","[]","null","",""
"","","","","","image-button-response","34","263116","0.0-10.0-1.0-0.3","1ED68823D3214CDBB80039EC4F099D48","1ED68823D3214CDBB80039EC4F099D48","0198ee69-6d88-7119-8738-522e39ba1df0","0198ee3c-27ac-7803-a9ea-f3b4ad4ad678","{""num_scrambled_semantic"":""8"",""num_scrambled_causal"":""4"",""num_scrambled_schematic"":""4"",""participantId"":""1ED68823D3214CDBB80039EC4F099D48"",""assignmentId"":""0198ee69-6d88-7119-8738-522e39ba1df0"",""projectId"":""0198ee3c-27ac-7803-a9ea-f3b4ad4ad678""}","https://test12345.live/?num_scrambled_semantic=8&num_scrambled_causal=4&num_scrambled_schematic=4&participantId=1ED68823D3214CDBB80039EC4F099D48&assignmentId=0198ee69-6d88-7119-8738-522e39ba1df0&projectId=0198ee3c-27ac-7803-a9ea-f3b4ad4ad678","1ED68823D3214CDBB80039EC4F099D48-2025-08-28-02-58-09","","null","","images/schematic_sequence/supermarket_scheme/supermarket_scheme_4.png","null","",""
"","","","","","image-button-response","35","264652","0.0-10.0-1.0-1.3","1ED68823D3214CDBB80039EC4F099D48","1ED68823D3214CDBB80039EC4F099D48","0198ee69-6d88-7119-8738-522e39ba1df0","0198ee3c-27ac-7803-a9ea-f3b4ad4ad678","{""num_scrambled_semantic"":""8"",""num_scrambled_causal"":""4"",""num_scrambled_schematic"":""4"",""participantId"":""1ED68823D3214CDBB80039EC4F099D48"",""assignmentId"":""0198ee69-6d88-7119-8738-522e39ba1df0"",""projectId"":""0198ee3c-27ac-7803-a9ea-f3b4ad4ad678""}","https://test12345.live/?num_scrambled_semantic=8&num_scrambled_causal=4&num_scrambled_schematic=4&participantId=1ED68823D3214CDBB80039EC4F099D48&assignmentId=0198ee69-6d88-7119-8738-522e39ba1df0&projectId=0198ee3c-27ac-7803-a9ea-f3b4ad4ad678","1ED68823D3214CDBB80039EC4F099D48-2025-08-28-02-58-09","","1535","","images/schematic_sequence/supermarket_scheme/supermarket_scheme_4.png","0","",""
"","","","","","image-button-response","36","266463","0.0-10.0-1.0-2.3","1ED68823D3214CDBB80039EC4F099D48","1ED68823D3214CDBB80039EC4F099D48","0198ee69-6d88-7119-8738-522e39ba1df0","0198ee3c-27ac-7803-a9ea-f3b4ad4ad678","{""num_scrambled_semantic"":""8"",""num_scrambled_causal"":""4"",""num_scrambled_schematic"":""4"",""participantId"":""1ED68823D3214CDBB80039EC4F099D48"",""assignmentId"":""0198ee69-6d88-7119-8738-522e39ba1df0"",""projectId"":""0198ee3c-27ac-7803-a9ea-f3b4ad4ad678""}","https://test12345.live/?num_scrambled_semantic=8&num_scrambled_causal=4&num_scrambled_schematic=4&participantId=1ED68823D3214CDBB80039EC4F099D48&assignmentId=0198ee69-6d88-7119-8738-522e39ba1df0&projectId=0198ee3c-27ac-7803-a9ea-f3b4ad4ad678","1ED68823D3214CDBB80039EC4F099D48-2025-08-28-02-58-09","","null","","[]","null","",""
"","","","","","image-button-response","37","270973","0.0-10.0-1.0-0.4","1ED68823D3214CDBB80039EC4F099D48","1ED68823D3214CDBB80039EC4F099D48","0198ee69-6d88-7119-8738-522e39ba1df0","0198ee3c-27ac-7803-a9ea-f3b4ad4ad678","{""num_scrambled_semantic"":""8"",""num_scrambled_causal"":""4"",""num_scrambled_schematic"":""4"",""participantId"":""1ED68823D3214CDBB80039EC4F099D48"",""assignmentId"":""0198ee69-6d88-7119-8738-522e39ba1df0"",""projectId"":""0198ee3c-27ac-7803-a9ea-f3b4ad4ad678""}","https://test12345.live/?num_scrambled_semantic=8&num_scrambled_causal=4&num_scrambled_schematic=4&participantId=1ED68823D3214CDBB80039EC4F099D48&assignmentId=0198ee69-6d88-7119-8738-522e39ba1df0&projectId=0198ee3c-27ac-7803-a9ea-f3b4ad4ad678","1ED68823D3214CDBB80039EC4F099D48-2025-08-28-02-58-09","","null","","images/schematic_sequence/supermarket_scheme/supermarket_scheme_5.png","null","",""
"","","","","","image-button-response","38","271643","0.0-10.0-1.0-1.4","1ED68823D3214CDBB80039EC4F099D48","1ED68823D3214CDBB80039EC4F099D48","0198ee69-6d88-7119-8738-522e39ba1df0","0198ee3c-27ac-7803-a9ea-f3b4ad4ad678","{""num_scrambled_semantic"":""8"",""num_scrambled_causal"":""4"",""num_scrambled_schematic"":""4"",""participantId"":""1ED68823D3214CDBB80039EC4F099D48"",""assignmentId"":""0198ee69-6d88-7119-8738-522e39ba1df0"",""projectId"":""0198ee3c-27ac-7803-a9ea-f3b4ad4ad678""}","https://test12345.live/?num_scrambled_semantic=8&num_scrambled_causal=4&num_scrambled_schematic=4&participantId=1ED68823D3214CDBB80039EC4F099D48&assignmentId=0198ee69-6d88-7119-8738-522e39ba1df0&projectId=0198ee3c-27ac-7803-a9ea-f3b4ad4ad678","1ED68823D3214CDBB80039EC4F099D48-2025-08-28-02-58-09","","669","","images/schematic_sequence/supermarket_scheme/supermarket_scheme_5.png","1","",""
"","","","","","image-button-response","39","273443","0.0-10.0-1.0-2.4","1ED68823D3214CDBB80039EC4F099D48","1ED68823D3214CDBB80039EC4F099D48","0198ee69-6d88-7119-8738-522e39ba1df0","0198ee3c-27ac-7803-a9ea-f3b4ad4ad678","{""num_scrambled_semantic"":""8"",""num_scrambled_causal"":""4"",""num_scrambled_schematic"":""4"",""participantId"":""1ED68823D3214CDBB80039EC4F099D48"",""assignmentId"":""0198ee69-6d88-7119-8738-522e39ba1df0"",""projectId"":""0198ee3c-27ac-7803-a9ea-f3b4ad4ad678""}","https://test12345.live/?num_scrambled_semantic=8&num_scrambled_causal=4&num_scrambled_schematic=4&participantId=1ED68823D3214CDBB80039EC4F099D48&assignmentId=0198ee69-6d88-7119-8738-522e39ba1df0&projectId=0198ee3c-27ac-7803-a9ea-f3b4ad4ad678","1ED68823D3214CDBB80039EC4F099D48-2025-08-28-02-58-09","","null","","[]","null","",""
"","","","","","image-button-response","40","277947","0.0-10.0-1.0-0.5","1ED68823D3214CDBB80039EC4F099D48","1ED68823D3214CDBB80039EC4F099D48","0198ee69-6d88-7119-8738-522e39ba1df0","0198ee3c-27ac-7803-a9ea-f3b4ad4ad678","{""num_scrambled_semantic"":""8"",""num_scrambled_causal"":""4"",""num_scrambled_schematic"":""4"",""participantId"":""1ED68823D3214CDBB80039EC4F099D48"",""assignmentId"":""0198ee69-6d88-7119-8738-522e39ba1df0"",""projectId"":""0198ee3c-27ac-7803-a9ea-f3b4ad4ad678""}","https://test12345.live/?num_scrambled_semantic=8&num_scrambled_causal=4&num_scrambled_schematic=4&participantId=1ED68823D3214CDBB80039EC4F099D48&assignmentId=0198ee69-6d88-7119-8738-522e39ba1df0&projectId=0198ee3c-27ac-7803-a9ea-f3b4ad4ad678","1ED68823D3214CDBB80039EC4F099D48-2025-08-28-02-58-09","","null","","images/schematic_sequence/supermarket_scheme/supermarket_scheme_6.png","null","",""
"","","","","","image-button-response","41","280133","0.0-10.0-1.0-1.5","1ED68823D3214CDBB80039EC4F099D48","1ED68823D3214CDBB80039EC4F099D48","0198ee69-6d88-7119-8738-522e39ba1df0","0198ee3c-27ac-7803-a9ea-f3b4ad4ad678","{""num_scrambled_semantic"":""8"",""num_scrambled_causal"":""4"",""num_scrambled_schematic"":""4"",""participantId"":""1ED68823D3214CDBB80039EC4F099D48"",""assignmentId"":""0198ee69-6d88-7119-8738-522e39ba1df0"",""projectId"":""0198ee3c-27ac-7803-a9ea-f3b4ad4ad678""}","https://test12345.live/?num_scrambled_semantic=8&num_scrambled_causal=4&num_scrambled_schematic=4&participantId=1ED68823D3214CDBB80039EC4F099D48&assignmentId=0198ee69-6d88-7119-8738-522e39ba1df0&projectId=0198ee3c-27ac-7803-a9ea-f3b4ad4ad678","1ED68823D3214CDBB80039EC4F099D48-2025-08-28-02-58-09","","2185","","images/schematic_sequence/supermarket_scheme/supermarket_scheme_6.png","0","",""
"","","","","","image-button-response","42","281940","0.0-10.0-1.0-2.5","1ED68823D3214CDBB80039EC4F099D48","1ED68823D3214CDBB80039EC4F099D48","0198ee69-6d88-7119-8738-522e39ba1df0","0198ee3c-27ac-7803-a9ea-f3b4ad4ad678","{""num_scrambled_semantic"":""8"",""num_scrambled_causal"":""4"",""num_scrambled_schematic"":""4"",""participantId"":""1ED68823D3214CDBB80039EC4F099D48"",""assignmentId"":""0198ee69-6d88-7119-8738-522e39ba1df0"",""projectId"":""0198ee3c-27ac-7803-a9ea-f3b4ad4ad678""}","https://test12345.live/?num_scrambled_semantic=8&num_scrambled_causal=4&num_scrambled_schematic=4&participantId=1ED68823D3214CDBB80039EC4F099D48&assignmentId=0198ee69-6d88-7119-8738-522e39ba1df0&projectId=0198ee3c-27ac-7803-a9ea-f3b4ad4ad678","1ED68823D3214CDBB80039EC4F099D48-2025-08-28-02-58-09","","null","","[]","null","",""
"","","","","","image-button-response","43","286449","0.0-10.0-1.0-0.6","1ED68823D3214CDBB80039EC4F099D48","1ED68823D3214CDBB80039EC4F099D48","0198ee69-6d88-7119-8738-522e39ba1df0","0198ee3c-27ac-7803-a9ea-f3b4ad4ad678","{""num_scrambled_semantic"":""8"",""num_scrambled_causal"":""4"",""num_scrambled_schematic"":""4"",""participantId"":""1ED68823D3214CDBB80039EC4F099D48"",""assignmentId"":""0198ee69-6d88-7119-8738-522e39ba1df0"",""projectId"":""0198ee3c-27ac-7803-a9ea-f3b4ad4ad678""}","https://test12345.live/?num_scrambled_semantic=8&num_scrambled_causal=4&num_scrambled_schematic=4&participantId=1ED68823D3214CDBB80039EC4F099D48&assignmentId=0198ee69-6d88-7119-8738-522e39ba1df0&projectId=0198ee3c-27ac-7803-a9ea-f3b4ad4ad678","1ED68823D3214CDBB80039EC4F099D48-2025-08-28-02-58-09","","null","","images/schematic_sequence/supermarket_scheme/supermarket_scheme_7.png","null","",""
"","","","","","image-button-response","44","288757","0.0-10.0-1.0-1.6","1ED68823D3214CDBB80039EC4F099D48","1ED68823D3214CDBB80039EC4F099D48","0198ee69-6d88-7119-8738-522e39ba1df0","0198ee3c-27ac-7803-a9ea-f3b4ad4ad678","{""num_scrambled_semantic"":""8"",""num_scrambled_causal"":""4"",""num_scrambled_schematic"":""4"",""participantId"":""1ED68823D3214CDBB80039EC4F099D48"",""assignmentId"":""0198ee69-6d88-7119-8738-522e39ba1df0"",""projectId"":""0198ee3c-27ac-7803-a9ea-f3b4ad4ad678""}","https://test12345.live/?num_scrambled_semantic=8&num_scrambled_causal=4&num_scrambled_schematic=4&participantId=1ED68823D3214CDBB80039EC4F099D48&assignmentId=0198ee69-6d88-7119-8738-522e39ba1df0&projectId=0198ee3c-27ac-7803-a9ea-f3b4ad4ad678","1ED68823D3214CDBB80039EC4F099D48-2025-08-28-02-58-09","","2307","","images/schematic_sequence/supermarket_scheme/supermarket_scheme_7.png","0","",""
"","","","","","image-button-response","45","290564","0.0-10.0-1.0-2.6","1ED68823D3214CDBB80039EC4F099D48","1ED68823D3214CDBB80039EC4F099D48","0198ee69-6d88-7119-8738-522e39ba1df0","0198ee3c-27ac-7803-a9ea-f3b4ad4ad678","{""num_scrambled_semantic"":""8"",""num_scrambled_causal"":""4"",""num_scrambled_schematic"":""4"",""participantId"":""1ED68823D3214CDBB80039EC4F099D48"",""assignmentId"":""0198ee69-6d88-7119-8738-522e39ba1df0"",""projectId"":""0198ee3c-27ac-7803-a9ea-f3b4ad4ad678""}","https://test12345.live/?num_scrambled_semantic=8&num_scrambled_causal=4&num_scrambled_schematic=4&participantId=1ED68823D3214CDBB80039EC4F099D48&assignmentId=0198ee69-6d88-7119-8738-522e39ba1df0&projectId=0198ee3c-27ac-7803-a9ea-f3b4ad4ad678","1ED68823D3214CDBB80039EC4F099D48-2025-08-28-02-58-09","","null","","[]","null","",""
"","","","","","image-button-response","46","295066","0.0-10.0-1.0-0.7","1ED68823D3214CDBB80039EC4F099D48","1ED68823D3214CDBB80039EC4F099D48","0198ee69-6d88-7119-8738-522e39ba1df0","0198ee3c-27ac-7803-a9ea-f3b4ad4ad678","{""num_scrambled_semantic"":""8"",""num_scrambled_causal"":""4"",""num_scrambled_schematic"":""4"",""participantId"":""1ED68823D3214CDBB80039EC4F099D48"",""assignmentId"":""0198ee69-6d88-7119-8738-522e39ba1df0"",""projectId"":""0198ee3c-27ac-7803-a9ea-f3b4ad4ad678""}","https://test12345.live/?num_scrambled_semantic=8&num_scrambled_causal=4&num_scrambled_schematic=4&participantId=1ED68823D3214CDBB80039EC4F099D48&assignmentId=0198ee69-6d88-7119-8738-522e39ba1df0&projectId=0198ee3c-27ac-7803-a9ea-f3b4ad4ad678","1ED68823D3214CDBB80039EC4F099D48-2025-08-28-02-58-09","","null","","images/schematic_sequence/supermarket_scheme/supermarket_scheme_8.png","null","",""
"","","","","","image-button-response","47","297232","0.0-10.0-1.0-1.7","1ED68823D3214CDBB80039EC4F099D48","1ED68823D3214CDBB80039EC4F099D48","0198ee69-6d88-7119-8738-522e39ba1df0","0198ee3c-27ac-7803-a9ea-f3b4ad4ad678","{""num_scrambled_semantic"":""8"",""num_scrambled_causal"":""4"",""num_scrambled_schematic"":""4"",""participantId"":""1ED68823D3214CDBB80039EC4F099D48"",""assignmentId"":""0198ee69-6d88-7119-8738-522e39ba1df0"",""projectId"":""0198ee3c-27ac-7803-a9ea-f3b4ad4ad678""}","https://test12345.live/?num_scrambled_semantic=8&num_scrambled_causal=4&num_scrambled_schematic=4&participantId=1ED68823D3214CDBB80039EC4F099D48&assignmentId=0198ee69-6d88-7119-8738-522e39ba1df0&projectId=0198ee3c-27ac-7803-a9ea-f3b4ad4ad678","1ED68823D3214CDBB80039EC4F099D48-2025-08-28-02-58-09","","2165","","images/schematic_sequence/supermarket_scheme/supermarket_scheme_8.png","0","",""
"","","","","","image-button-response","48","299034","0.0-10.0-1.0-2.7","1ED68823D3214CDBB80039EC4F099D48","1ED68823D3214CDBB80039EC4F099D48","0198ee69-6d88-7119-8738-522e39ba1df0","0198ee3c-27ac-7803-a9ea-f3b4ad4ad678","{""num_scrambled_semantic"":""8"",""num_scrambled_causal"":""4"",""num_scrambled_schematic"":""4"",""participantId"":""1ED68823D3214CDBB80039EC4F099D48"",""assignmentId"":""0198ee69-6d88-7119-8738-522e39ba1df0"",""projectId"":""0198ee3c-27ac-7803-a9ea-f3b4ad4ad678""}","https://test12345.live/?num_scrambled_semantic=8&num_scrambled_causal=4&num_scrambled_schematic=4&participantId=1ED68823D3214CDBB80039EC4F099D48&assignmentId=0198ee69-6d88-7119-8738-522e39ba1df0&projectId=0198ee3c-27ac-7803-a9ea-f3b4ad4ad678","1ED68823D3214CDBB80039EC4F099D48-2025-08-28-02-58-09","","null","","[]","null","",""
"","","","","","image-button-response","49","303538","0.0-10.0-1.0-0.8","1ED68823D3214CDBB80039EC4F099D48","1ED68823D3214CDBB80039EC4F099D48","0198ee69-6d88-7119-8738-522e39ba1df0","0198ee3c-27ac-7803-a9ea-f3b4ad4ad678","{""num_scrambled_semantic"":""8"",""num_scrambled_causal"":""4"",""num_scrambled_schematic"":""4"",""participantId"":""1ED68823D3214CDBB80039EC4F099D48"",""assignmentId"":""0198ee69-6d88-7119-8738-522e39ba1df0"",""projectId"":""0198ee3c-27ac-7803-a9ea-f3b4ad4ad678""}","https://test12345.live/?num_scrambled_semantic=8&num_scrambled_causal=4&num_scrambled_schematic=4&participantId=1ED68823D3214CDBB80039EC4F099D48&assignmentId=0198ee69-6d88-7119-8738-522e39ba1df0&projectId=0198ee3c-27ac-7803-a9ea-f3b4ad4ad678","1ED68823D3214CDBB80039EC4F099D48-2025-08-28-02-58-09","","null","","images/schematic_sequence/supermarket_scheme/supermarket_scheme_9.png","null","",""
"","","","","","image-button-response","50","304480","0.0-10.0-1.0-1.8","1ED68823D3214CDBB80039EC4F099D48","1ED68823D3214CDBB80039EC4F099D48","0198ee69-6d88-7119-8738-522e39ba1df0","0198ee3c-27ac-7803-a9ea-f3b4ad4ad678","{""num_scrambled_semantic"":""8"",""num_scrambled_causal"":""4"",""num_scrambled_schematic"":""4"",""participantId"":""1ED68823D3214CDBB80039EC4F099D48"",""assignmentId"":""0198ee69-6d88-7119-8738-522e39ba1df0"",""projectId"":""0198ee3c-27ac-7803-a9ea-f3b4ad4ad678""}","https://test12345.live/?num_scrambled_semantic=8&num_scrambled_causal=4&num_scrambled_schematic=4&participantId=1ED68823D3214CDBB80039EC4F099D48&assignmentId=0198ee69-6d88-7119-8738-522e39ba1df0&projectId=0198ee3c-27ac-7803-a9ea-f3b4ad4ad678","1ED68823D3214CDBB80039EC4F099D48-2025-08-28-02-58-09","","942","","images/schematic_sequence/supermarket_scheme/supermarket_scheme_9.png","0","",""
"","","","","","image-button-response","51","306282","0.0-10.0-1.0-2.8","1ED68823D3214CDBB80039EC4F099D48","1ED68823D3214CDBB80039EC4F099D48","0198ee69-6d88-7119-8738-522e39ba1df0","0198ee3c-27ac-7803-a9ea-f3b4ad4ad678","{""num_scrambled_semantic"":""8"",""num_scrambled_causal"":""4"",""num_scrambled_schematic"":""4"",""participantId"":""1ED68823D3214CDBB80039EC4F099D48"",""assignmentId"":""0198ee69-6d88-7119-8738-522e39ba1df0"",""projectId"":""0198ee3c-27ac-7803-a9ea-f3b4ad4ad678""}","https://test12345.live/?num_scrambled_semantic=8&num_scrambled_causal=4&num_scrambled_schematic=4&participantId=1ED68823D3214CDBB80039EC4F099D48&assignmentId=0198ee69-6d88-7119-8738-522e39ba1df0&projectId=0198ee3c-27ac-7803-a9ea-f3b4ad4ad678","1ED68823D3214CDBB80039EC4F099D48-2025-08-28-02-58-09","","null","","[]","null","",""
"","","","","","image-button-response","52","310789","0.0-10.0-1.0-0.9","1ED68823D3214CDBB80039EC4F099D48","1ED68823D3214CDBB80039EC4F099D48","0198ee69-6d88-7119-8738-522e39ba1df0","0198ee3c-27ac-7803-a9ea-f3b4ad4ad678","{""num_scrambled_semantic"":""8"",""num_scrambled_causal"":""4"",""num_scrambled_schematic"":""4"",""participantId"":""1ED68823D3214CDBB80039EC4F099D48"",""assignmentId"":""0198ee69-6d88-7119-8738-522e39ba1df0"",""projectId"":""0198ee3c-27ac-7803-a9ea-f3b4ad4ad678""}","https://test12345.live/?num_scrambled_semantic=8&num_scrambled_causal=4&num_scrambled_schematic=4&participantId=1ED68823D3214CDBB80039EC4F099D48&assignmentId=0198ee69-6d88-7119-8738-522e39ba1df0&projectId=0198ee3c-27ac-7803-a9ea-f3b4ad4ad678","1ED68823D3214CDBB80039EC4F099D48-2025-08-28-02-58-09","","null","","images/schematic_sequence/supermarket_scheme/supermarket_scheme_ten.png","null","",""
"","","","","","image-button-response","53","312474","0.0-10.0-1.0-1.9","1ED68823D3214CDBB80039EC4F099D48","1ED68823D3214CDBB80039EC4F099D48","0198ee69-6d88-7119-8738-522e39ba1df0","0198ee3c-27ac-7803-a9ea-f3b4ad4ad678","{""num_scrambled_semantic"":""8"",""num_scrambled_causal"":""4"",""num_scrambled_schematic"":""4"",""participantId"":""1ED68823D3214CDBB80039EC4F099D48"",""assignmentId"":""0198ee69-6d88-7119-8738-522e39ba1df0"",""projectId"":""0198ee3c-27ac-7803-a9ea-f3b4ad4ad678""}","https://test12345.live/?num_scrambled_semantic=8&num_scrambled_causal=4&num_scrambled_schematic=4&participantId=1ED68823D3214CDBB80039EC4F099D48&assignmentId=0198ee69-6d88-7119-8738-522e39ba1df0&projectId=0198ee3c-27ac-7803-a9ea-f3b4ad4ad678","1ED68823D3214CDBB80039EC4F099D48-2025-08-28-02-58-09","","1684","","images/schematic_sequence/supermarket_scheme/supermarket_scheme_ten.png","1","",""
"","","","","","image-button-response","54","314279","0.0-10.0-1.0-2.9","1ED68823D3214CDBB80039EC4F099D48","1ED68823D3214CDBB80039EC4F099D48","0198ee69-6d88-7119-8738-522e39ba1df0","0198ee3c-27ac-7803-a9ea-f3b4ad4ad678","{""num_scrambled_semantic"":""8"",""num_scrambled_causal"":""4"",""num_scrambled_schematic"":""4"",""participantId"":""1ED68823D3214CDBB80039EC4F099D48"",""assignmentId"":""0198ee69-6d88-7119-8738-522e39ba1df0"",""projectId"":""0198ee3c-27ac-7803-a9ea-f3b4ad4ad678""}","https://test12345.live/?num_scrambled_semantic=8&num_scrambled_causal=4&num_scrambled_schematic=4&participantId=1ED68823D3214CDBB80039EC4F099D48&assignmentId=0198ee69-6d88-7119-8738-522e39ba1df0&projectId=0198ee3c-27ac-7803-a9ea-f3b4ad4ad678","1ED68823D3214CDBB80039EC4F099D48-2025-08-28-02-58-09","","null","","[]","null","",""
"","","","","","html-audio-response","55","348740","0.0-11.0","1ED68823D3214CDBB80039EC4F099D48","1ED68823D3214CDBB80039EC4F099D48","0198ee69-6d88-7119-8738-522e39ba1df0","0198ee3c-27ac-7803-a9ea-f3b4ad4ad678","{""num_scrambled_semantic"":""8"",""num_scrambled_causal"":""4"",""num_scrambled_schematic"":""4"",""participantId"":""1ED68823D3214CDBB80039EC4F099D48"",""assignmentId"":""0198ee69-6d88-7119-8738-522e39ba1df0"",""projectId"":""0198ee3c-27ac-7803-a9ea-f3b4ad4ad678""}","https://test12345.live/?num_scrambled_semantic=8&num_scrambled_causal=4&num_scrambled_schematic=4&participantId=1ED68823D3214CDBB80039EC4F099D48&assignmentId=0198ee69-6d88-7119-8738-522e39ba1df0&projectId=0198ee3c-27ac-7803-a9ea-f3b4ad4ad678","1ED68823D3214CDBB80039EC4F099D48-2025-08-28-02-58-09","","32111","","[""<span style=\""color: red; font-size: 24px\""> NOW RECORDING</span><p>Please say out loud all the images you saw, in the order of the story they create. Try to recall the sequence of events as they appeared in the story, not necessarily the order they were presented on the screen.</p>""]","","1","supermarket_scheme"
"","","","","","image-button-response","56","354749","0.0-12.0-0.0","1ED68823D3214CDBB80039EC4F099D48","1ED68823D3214CDBB80039EC4F099D48","0198ee69-6d88-7119-8738-522e39ba1df0","0198ee3c-27ac-7803-a9ea-f3b4ad4ad678","{""num_scrambled_semantic"":""8"",""num_scrambled_causal"":""4"",""num_scrambled_schematic"":""4"",""participantId"":""1ED68823D3214CDBB80039EC4F099D48"",""assignmentId"":""0198ee69-6d88-7119-8738-522e39ba1df0"",""projectId"":""0198ee3c-27ac-7803-a9ea-f3b4ad4ad678""}","https://test12345.live/?num_scrambled_semantic=8&num_scrambled_causal=4&num_scrambled_schematic=4&participantId=1ED68823D3214CDBB80039EC4F099D48&assignmentId=0198ee69-6d88-7119-8738-522e39ba1df0&projectId=0198ee3c-27ac-7803-a9ea-f3b4ad4ad678","1ED68823D3214CDBB80039EC4F099D48-2025-08-28-02-58-09","","null","","images/semantic_sequence/visiting_cities_semantic/visiting_cities_semantic_0.png","null","",""
"","","","","","image-button-response","57","359259","0.0-12.0-1.0-0.0","1ED68823D3214CDBB80039EC4F099D48","1ED68823D3214CDBB80039EC4F099D48","0198ee69-6d88-7119-8738-522e39ba1df0","0198ee3c-27ac-7803-a9ea-f3b4ad4ad678","{""num_scrambled_semantic"":""8"",""num_scrambled_causal"":""4"",""num_scrambled_schematic"":""4"",""participantId"":""1ED68823D3214CDBB80039EC4F099D48"",""assignmentId"":""0198ee69-6d88-7119-8738-522e39ba1df0"",""projectId"":""0198ee3c-27ac-7803-a9ea-f3b4ad4ad678""}","https://test12345.live/?num_scrambled_semantic=8&num_scrambled_causal=4&num_scrambled_schematic=4&participantId=1ED68823D3214CDBB80039EC4F099D48&assignmentId=0198ee69-6d88-7119-8738-522e39ba1df0&projectId=0198ee3c-27ac-7803-a9ea-f3b4ad4ad678","1ED68823D3214CDBB80039EC4F099D48-2025-08-28-02-58-09","","null","","images/semantic_sequence/visiting_cities_semantic/visiting_cities_semantic_1.png","null","",""
"","","","","","image-button-response","58","362081","0.0-12.0-1.0-1.0","1ED68823D3214CDBB80039EC4F099D48","1ED68823D3214CDBB80039EC4F099D48","0198ee69-6d88-7119-8738-522e39ba1df0","0198ee3c-27ac-7803-a9ea-f3b4ad4ad678","{""num_scrambled_semantic"":""8"",""num_scrambled_causal"":""4"",""num_scrambled_schematic"":""4"",""participantId"":""1ED68823D3214CDBB80039EC4F099D48"",""assignmentId"":""0198ee69-6d88-7119-8738-522e39ba1df0"",""projectId"":""0198ee3c-27ac-7803-a9ea-f3b4ad4ad678""}","https://test12345.live/?num_scrambled_semantic=8&num_scrambled_causal=4&num_scrambled_schematic=4&participantId=1ED68823D3214CDBB80039EC4F099D48&assignmentId=0198ee69-6d88-7119-8738-522e39ba1df0&projectId=0198ee3c-27ac-7803-a9ea-f3b4ad4ad678","1ED68823D3214CDBB80039EC4F099D48-2025-08-28-02-58-09","","2821","","images/semantic_sequence/visiting_cities_semantic/visiting_cities_semantic_1.png","0","",""
"","","","","","image-button-response","59","363896","0.0-12.0-1.0-2.0","1ED68823D3214CDBB80039EC4F099D48","1ED68823D3214CDBB80039EC4F099D48","0198ee69-6d88-7119-8738-522e39ba1df0","0198ee3c-27ac-7803-a9ea-f3b4ad4ad678","{""num_scrambled_semantic"":""8"",""num_scrambled_causal"":""4"",""num_scrambled_schematic"":""4"",""participantId"":""1ED68823D3214CDBB80039EC4F099D48"",""assignmentId"":""0198ee69-6d88-7119-8738-522e39ba1df0"",""projectId"":""0198ee3c-27ac-7803-a9ea-f3b4ad4ad678""}","https://test12345.live/?num_scrambled_semantic=8&num_scrambled_causal=4&num_scrambled_schematic=4&participantId=1ED68823D3214CDBB80039EC4F099D48&assignmentId=0198ee69-6d88-7119-8738-522e39ba1df0&projectId=0198ee3c-27ac-7803-a9ea-f3b4ad4ad678","1ED68823D3214CDBB80039EC4F099D48-2025-08-28-02-58-09","","null","","[]","null","",""
"","","","","","image-button-response","60","368399","0.0-12.0-1.0-0.1","1ED68823D3214CDBB80039EC4F099D48","1ED68823D3214CDBB80039EC4F099D48","0198ee69-6d88-7119-8738-522e39ba1df0","0198ee3c-27ac-7803-a9ea-f3b4ad4ad678","{""num_scrambled_semantic"":""8"",""num_scrambled_causal"":""4"",""num_scrambled_schematic"":""4"",""participantId"":""1ED68823D3214CDBB80039EC4F099D48"",""assignmentId"":""0198ee69-6d88-7119-8738-522e39ba1df0"",""projectId"":""0198ee3c-27ac-7803-a9ea-f3b4ad4ad678""}","https://test12345.live/?num_scrambled_semantic=8&num_scrambled_causal=4&num_scrambled_schematic=4&participantId=1ED68823D3214CDBB80039EC4F099D48&assignmentId=0198ee69-6d88-7119-8738-522e39ba1df0&projectId=0198ee3c-27ac-7803-a9ea-f3b4ad4ad678","1ED68823D3214CDBB80039EC4F099D48-2025-08-28-02-58-09","","null","","images/semantic_sequence/visiting_cities_semantic/visiting_cities_semantic_2.png","null","",""
"","","","","","image-button-response","61","370069","0.0-12.0-1.0-1.1","1ED68823D3214CDBB80039EC4F099D48","1ED68823D3214CDBB80039EC4F099D48","0198ee69-6d88-7119-8738-522e39ba1df0","0198ee3c-27ac-7803-a9ea-f3b4ad4ad678","{""num_scrambled_semantic"":""8"",""num_scrambled_causal"":""4"",""num_scrambled_schematic"":""4"",""participantId"":""1ED68823D3214CDBB80039EC4F099D48"",""assignmentId"":""0198ee69-6d88-7119-8738-522e39ba1df0"",""projectId"":""0198ee3c-27ac-7803-a9ea-f3b4ad4ad678""}","https://test12345.live/?num_scrambled_semantic=8&num_scrambled_causal=4&num_scrambled_schematic=4&participantId=1ED68823D3214CDBB80039EC4F099D48&assignmentId=0198ee69-6d88-7119-8738-522e39ba1df0&projectId=0198ee3c-27ac-7803-a9ea-f3b4ad4ad678","1ED68823D3214CDBB80039EC4F099D48-2025-08-28-02-58-09","","1669","","images/semantic_sequence/visiting_cities_semantic/visiting_cities_semantic_2.png","1","",""
"","","","","","image-button-response","62","371885","0.0-12.0-1.0-2.1","1ED68823D3214CDBB80039EC4F099D48","1ED68823D3214CDBB80039EC4F099D48","0198ee69-6d88-7119-8738-522e39ba1df0","0198ee3c-27ac-7803-a9ea-f3b4ad4ad678","{""num_scrambled_semantic"":""8"",""num_scrambled_causal"":""4"",""num_scrambled_schematic"":""4"",""participantId"":""1ED68823D3214CDBB80039EC4F099D48"",""assignmentId"":""0198ee69-6d88-7119-8738-522e39ba1df0"",""projectId"":""0198ee3c-27ac-7803-a9ea-f3b4ad4ad678""}","https://test12345.live/?num_scrambled_semantic=8&num_scrambled_causal=4&num_scrambled_schematic=4&participantId=1ED68823D3214CDBB80039EC4F099D48&assignmentId=0198ee69-6d88-7119-8738-522e39ba1df0&projectId=0198ee3c-27ac-7803-a9ea-f3b4ad4ad678","1ED68823D3214CDBB80039EC4F099D48-2025-08-28-02-58-09","","null","","[]","null","",""
"","","","","","image-button-response","63","376388","0.0-12.0-1.0-0.2","1ED68823D3214CDBB80039EC4F099D48","1ED68823D3214CDBB80039EC4F099D48","0198ee69-6d88-7119-8738-522e39ba1df0","0198ee3c-27ac-7803-a9ea-f3b4ad4ad678","{""num_scrambled_semantic"":""8"",""num_scrambled_causal"":""4"",""num_scrambled_schematic"":""4"",""participantId"":""1ED68823D3214CDBB80039EC4F099D48"",""assignmentId"":""0198ee69-6d88-7119-8738-522e39ba1df0"",""projectId"":""0198ee3c-27ac-7803-a9ea-f3b4ad4ad678""}","https://test12345.live/?num_scrambled_semantic=8&num_scrambled_causal=4&num_scrambled_schematic=4&participantId=1ED68823D3214CDBB80039EC4F099D48&assignmentId=0198ee69-6d88-7119-8738-522e39ba1df0&projectId=0198ee3c-27ac-7803-a9ea-f3b4ad4ad678","1ED68823D3214CDBB80039EC4F099D48-2025-08-28-02-58-09","","null","","images/semantic_sequence/visiting_cities_semantic/visiting_cities_semantic_3.png","null","",""
"","","","","","image-button-response","64","379876","0.0-12.0-1.0-1.2","1ED68823D3214CDBB80039EC4F099D48","1ED68823D3214CDBB80039EC4F099D48","0198ee69-6d88-7119-8738-522e39ba1df0","0198ee3c-27ac-7803-a9ea-f3b4ad4ad678","{""num_scrambled_semantic"":""8"",""num_scrambled_causal"":""4"",""num_scrambled_schematic"":""4"",""participantId"":""1ED68823D3214CDBB80039EC4F099D48"",""assignmentId"":""0198ee69-6d88-7119-8738-522e39ba1df0"",""projectId"":""0198ee3c-27ac-7803-a9ea-f3b4ad4ad678""}","https://test12345.live/?num_scrambled_semantic=8&num_scrambled_causal=4&num_scrambled_schematic=4&participantId=1ED68823D3214CDBB80039EC4F099D48&assignmentId=0198ee69-6d88-7119-8738-522e39ba1df0&projectId=0198ee3c-27ac-7803-a9ea-f3b4ad4ad678","1ED68823D3214CDBB80039EC4F099D48-2025-08-28-02-58-09","","3487","","images/semantic_sequence/visiting_cities_semantic/visiting_cities_semantic_3.png","1","",""
"","","","","","image-button-response","65","381683","0.0-12.0-1.0-2.2","1ED68823D3214CDBB80039EC4F099D48","1ED68823D3214CDBB80039EC4F099D48","0198ee69-6d88-7119-8738-522e39ba1df0","0198ee3c-27ac-7803-a9ea-f3b4ad4ad678","{""num_scrambled_semantic"":""8"",""num_scrambled_causal"":""4"",""num_scrambled_schematic"":""4"",""participantId"":""1ED68823D3214CDBB80039EC4F099D48"",""assignmentId"":""0198ee69-6d88-7119-8738-522e39ba1df0"",""projectId"":""0198ee3c-27ac-7803-a9ea-f3b4ad4ad678""}","https://test12345.live/?num_scrambled_semantic=8&num_scrambled_causal=4&num_scrambled_schematic=4&participantId=1ED68823D3214CDBB80039EC4F099D48&assignmentId=0198ee69-6d88-7119-8738-522e39ba1df0&projectId=0198ee3c-27ac-7803-a9ea-f3b4ad4ad678","1ED68823D3214CDBB80039EC4F099D48-2025-08-28-02-58-09","","null","","[]","null","",""
"","","","","","image-button-response","66","386188","0.0-12.0-1.0-0.3","1ED68823D3214CDBB80039EC4F099D48","1ED68823D3214CDBB80039EC4F099D48","0198ee69-6d88-7119-8738-522e39ba1df0","0198ee3c-27ac-7803-a9ea-f3b4ad4ad678","{""num_scrambled_semantic"":""8"",""num_scrambled_causal"":""4"",""num_scrambled_schematic"":""4"",""participantId"":""1ED68823D3214CDBB80039EC4F099D48"",""assignmentId"":""0198ee69-6d88-7119-8738-522e39ba1df0"",""projectId"":""0198ee3c-27ac-7803-a9ea-f3b4ad4ad678""}","https://test12345.live/?num_scrambled_semantic=8&num_scrambled_causal=4&num_scrambled_schematic=4&participantId=1ED68823D3214CDBB80039EC4F099D48&assignmentId=0198ee69-6d88-7119-8738-522e39ba1df0&projectId=0198ee3c-27ac-7803-a9ea-f3b4ad4ad678","1ED68823D3214CDBB80039EC4F099D48-2025-08-28-02-58-09","","null","","images/semantic_sequence/visiting_cities_semantic/visiting_cities_semantic_4.png","null","",""
"","","","","","image-button-response","67","387454","0.0-12.0-1.0-1.3","1ED68823D3214CDBB80039EC4F099D48","1ED68823D3214CDBB80039EC4F099D48","0198ee69-6d88-7119-8738-522e39ba1df0","0198ee3c-27ac-7803-a9ea-f3b4ad4ad678","{""num_scrambled_semantic"":""8"",""num_scrambled_causal"":""4"",""num_scrambled_schematic"":""4"",""participantId"":""1ED68823D3214CDBB80039EC4F099D48"",""assignmentId"":""0198ee69-6d88-7119-8738-522e39ba1df0"",""projectId"":""0198ee3c-27ac-7803-a9ea-f3b4ad4ad678""}","https://test12345.live/?num_scrambled_semantic=8&num_scrambled_causal=4&num_scrambled_schematic=4&participantId=1ED68823D3214CDBB80039EC4F099D48&assignmentId=0198ee69-6d88-7119-8738-522e39ba1df0&projectId=0198ee3c-27ac-7803-a9ea-f3b4ad4ad678","1ED68823D3214CDBB80039EC4F099D48-2025-08-28-02-58-09","","1265","","images/semantic_sequence/visiting_cities_semantic/visiting_cities_semantic_4.png","1","",""
"","","","","","image-button-response","68","389261","0.0-12.0-1.0-2.3","1ED68823D3214CDBB80039EC4F099D48","1ED68823D3214CDBB80039EC4F099D48","0198ee69-6d88-7119-8738-522e39ba1df0","0198ee3c-27ac-7803-a9ea-f3b4ad4ad678","{""num_scrambled_semantic"":""8"",""num_scrambled_causal"":""4"",""num_scrambled_schematic"":""4"",""participantId"":""1ED68823D3214CDBB80039EC4F099D48"",""assignmentId"":""0198ee69-6d88-7119-8738-522e39ba1df0"",""projectId"":""0198ee3c-27ac-7803-a9ea-f3b4ad4ad678""}","https://test12345.live/?num_scrambled_semantic=8&num_scrambled_causal=4&num_scrambled_schematic=4&participantId=1ED68823D3214CDBB80039EC4F099D48&assignmentId=0198ee69-6d88-7119-8738-522e39ba1df0&projectId=0198ee3c-27ac-7803-a9ea-f3b4ad4ad678","1ED68823D3214CDBB80039EC4F099D48-2025-08-28-02-58-09","","null","","[]","null","",""
"","","","","","image-button-response","69","393765","0.0-12.0-1.0-0.4","1ED68823D3214CDBB80039EC4F099D48","1ED68823D3214CDBB80039EC4F099D48","0198ee69-6d88-7119-8738-522e39ba1df0","0198ee3c-27ac-7803-a9ea-f3b4ad4ad678","{""num_scrambled_semantic"":""8"",""num_scrambled_causal"":""4"",""num_scrambled_schematic"":""4"",""participantId"":""1ED68823D3214CDBB80039EC4F099D48"",""assignmentId"":""0198ee69-6d88-7119-8738-522e39ba1df0"",""projectId"":""0198ee3c-27ac-7803-a9ea-f3b4ad4ad678""}","https://test12345.live/?num_scrambled_semantic=8&num_scrambled_causal=4&num_scrambled_schematic=4&participantId=1ED68823D3214CDBB80039EC4F099D48&assignmentId=0198ee69-6d88-7119-8738-522e39ba1df0&projectId=0198ee3c-27ac-7803-a9ea-f3b4ad4ad678","1ED68823D3214CDBB80039EC4F099D48-2025-08-28-02-58-09","","null","","images/semantic_sequence/visiting_cities_semantic/visiting_cities_semantic_5.png","null","",""
"","","","","","image-button-response","70","394754","0.0-12.0-1.0-1.4","1ED68823D3214CDBB80039EC4F099D48","1ED68823D3214CDBB80039EC4F099D48","0198ee69-6d88-7119-8738-522e39ba1df0","0198ee3c-27ac-7803-a9ea-f3b4ad4ad678","{""num_scrambled_semantic"":""8"",""num_scrambled_causal"":""4"",""num_scrambled_schematic"":""4"",""participantId"":""1ED68823D3214CDBB80039EC4F099D48"",""assignmentId"":""0198ee69-6d88-7119-8738-522e39ba1df0"",""projectId"":""0198ee3c-27ac-7803-a9ea-f3b4ad4ad678""}","https://test12345.live/?num_scrambled_semantic=8&num_scrambled_causal=4&num_scrambled_schematic=4&participantId=1ED68823D3214CDBB80039EC4F099D48&assignmentId=0198ee69-6d88-7119-8738-522e39ba1df0&projectId=0198ee3c-27ac-7803-a9ea-f3b4ad4ad678","1ED68823D3214CDBB80039EC4F099D48-2025-08-28-02-58-09","","988","","images/semantic_sequence/visiting_cities_semantic/visiting_cities_semantic_5.png","1","",""
"","","","","","image-button-response","71","396562","0.0-12.0-1.0-2.4","1ED68823D3214CDBB80039EC4F099D48","1ED68823D3214CDBB80039EC4F099D48","0198ee69-6d88-7119-8738-522e39ba1df0","0198ee3c-27ac-7803-a9ea-f3b4ad4ad678","{""num_scrambled_semantic"":""8"",""num_scrambled_causal"":""4"",""num_scrambled_schematic"":""4"",""participantId"":""1ED68823D3214CDBB80039EC4F099D48"",""assignmentId"":""0198ee69-6d88-7119-8738-522e39ba1df0"",""projectId"":""0198ee3c-27ac-7803-a9ea-f3b4ad4ad678""}","https://test12345.live/?num_scrambled_semantic=8&num_scrambled_causal=4&num_scrambled_schematic=4&participantId=1ED68823D3214CDBB80039EC4F099D48&assignmentId=0198ee69-6d88-7119-8738-522e39ba1df0&projectId=0198ee3c-27ac-7803-a9ea-f3b4ad4ad678","1ED68823D3214CDBB80039EC4F099D48-2025-08-28-02-58-09","","null","","[]","null","",""
"","","","","","image-button-response","72","401070","0.0-12.0-1.0-0.5","1ED68823D3214CDBB80039EC4F099D48","1ED68823D3214CDBB80039EC4F099D48","0198ee69-6d88-7119-8738-522e39ba1df0","0198ee3c-27ac-7803-a9ea-f3b4ad4ad678","{""num_scrambled_semantic"":""8"",""num_scrambled_causal"":""4"",""num_scrambled_schematic"":""4"",""participantId"":""1ED68823D3214CDBB80039EC4F099D48"",""assignmentId"":""0198ee69-6d88-7119-8738-522e39ba1df0"",""projectId"":""0198ee3c-27ac-7803-a9ea-f3b4ad4ad678""}","https://test12345.live/?num_scrambled_semantic=8&num_scrambled_causal=4&num_scrambled_schematic=4&participantId=1ED68823D3214CDBB80039EC4F099D48&assignmentId=0198ee69-6d88-7119-8738-522e39ba1df0&projectId=0198ee3c-27ac-7803-a9ea-f3b4ad4ad678","1ED68823D3214CDBB80039EC4F099D48-2025-08-28-02-58-09","","null","","images/semantic_sequence/visiting_cities_semantic/visiting_cities_semantic_6.png","null","",""
"","","","","","image-button-response","73","401859","0.0-12.0-1.0-1.5","1ED68823D3214CDBB80039EC4F099D48","1ED68823D3214CDBB80039EC4F099D48","0198ee69-6d88-7119-8738-522e39ba1df0","0198ee3c-27ac-7803-a9ea-f3b4ad4ad678","{""num_scrambled_semantic"":""8"",""num_scrambled_causal"":""4"",""num_scrambled_schematic"":""4"",""participantId"":""1ED68823D3214CDBB80039EC4F099D48"",""assignmentId"":""0198ee69-6d88-7119-8738-522e39ba1df0"",""projectId"":""0198ee3c-27ac-7803-a9ea-f3b4ad4ad678""}","https://test12345.live/?num_scrambled_semantic=8&num_scrambled_causal=4&num_scrambled_schematic=4&participantId=1ED68823D3214CDBB80039EC4F099D48&assignmentId=0198ee69-6d88-7119-8738-522e39ba1df0&projectId=0198ee3c-27ac-7803-a9ea-f3b4ad4ad678","1ED68823D3214CDBB80039EC4F099D48-2025-08-28-02-58-09","","789","","images/semantic_sequence/visiting_cities_semantic/visiting_cities_semantic_6.png","1","",""
"","","","","","image-button-response","74","403663","0.0-12.0-1.0-2.5","1ED68823D3214CDBB80039EC4F099D48","1ED68823D3214CDBB80039EC4F099D48","0198ee69-6d88-7119-8738-522e39ba1df0","0198ee3c-27ac-7803-a9ea-f3b4ad4ad678","{""num_scrambled_semantic"":""8"",""num_scrambled_causal"":""4"",""num_scrambled_schematic"":""4"",""participantId"":""1ED68823D3214CDBB80039EC4F099D48"",""assignmentId"":""0198ee69-6d88-7119-8738-522e39ba1df0"",""projectId"":""0198ee3c-27ac-7803-a9ea-f3b4ad4ad678""}","https://test12345.live/?num_scrambled_semantic=8&num_scrambled_causal=4&num_scrambled_schematic=4&participantId=1ED68823D3214CDBB80039EC4F099D48&assignmentId=0198ee69-6d88-7119-8738-522e39ba1df0&projectId=0198ee3c-27ac-7803-a9ea-f3b4ad4ad678","1ED68823D3214CDBB80039EC4F099D48-2025-08-28-02-58-09","","null","","[]","null","",""
"","","","","","image-button-response","75","408170","0.0-12.0-1.0-0.6","1ED68823D3214CDBB80039EC4F099D48","1ED68823D3214CDBB80039EC4F099D48","0198ee69-6d88-7119-8738-522e39ba1df0","0198ee3c-27ac-7803-a9ea-f3b4ad4ad678","{""num_scrambled_semantic"":""8"",""num_scrambled_causal"":""4"",""num_scrambled_schematic"":""4"",""participantId"":""1ED68823D3214CDBB80039EC4F099D48"",""assignmentId"":""0198ee69-6d88-7119-8738-522e39ba1df0"",""projectId"":""0198ee3c-27ac-7803-a9ea-f3b4ad4ad678""}","https://test12345.live/?num_scrambled_semantic=8&num_scrambled_causal=4&num_scrambled_schematic=4&participantId=1ED68823D3214CDBB80039EC4F099D48&assignmentId=0198ee69-6d88-7119-8738-522e39ba1df0&projectId=0198ee3c-27ac-7803-a9ea-f3b4ad4ad678","1ED68823D3214CDBB80039EC4F099D48-2025-08-28-02-58-09","","null","","images/semantic_sequence/visiting_cities_semantic/visiting_cities_semantic_7.png","null","",""
"","","","","","image-button-response","76","410330","0.0-12.0-1.0-1.6","1ED68823D3214CDBB80039EC4F099D48","1ED68823D3214CDBB80039EC4F099D48","0198ee69-6d88-7119-8738-522e39ba1df0","0198ee3c-27ac-7803-a9ea-f3b4ad4ad678","{""num_scrambled_semantic"":""8"",""num_scrambled_causal"":""4"",""num_scrambled_schematic"":""4"",""participantId"":""1ED68823D3214CDBB80039EC4F099D48"",""assignmentId"":""0198ee69-6d88-7119-8738-522e39ba1df0"",""projectId"":""0198ee3c-27ac-7803-a9ea-f3b4ad4ad678""}","https://test12345.live/?num_scrambled_semantic=8&num_scrambled_causal=4&num_scrambled_schematic=4&participantId=1ED68823D3214CDBB80039EC4F099D48&assignmentId=0198ee69-6d88-7119-8738-522e39ba1df0&projectId=0198ee3c-27ac-7803-a9ea-f3b4ad4ad678","1ED68823D3214CDBB80039EC4F099D48-2025-08-28-02-58-09","","2159","","images/semantic_sequence/visiting_cities_semantic/visiting_cities_semantic_7.png","0","",""
"","","","","","image-button-response","77","412142","0.0-12.0-1.0-2.6","1ED68823D3214CDBB80039EC4F099D48","1ED68823D3214CDBB80039EC4F099D48","0198ee69-6d88-7119-8738-522e39ba1df0","0198ee3c-27ac-7803-a9ea-f3b4ad4ad678","{""num_scrambled_semantic"":""8"",""num_scrambled_causal"":""4"",""num_scrambled_schematic"":""4"",""participantId"":""1ED68823D3214CDBB80039EC4F099D48"",""assignmentId"":""0198ee69-6d88-7119-8738-522e39ba1df0"",""projectId"":""0198ee3c-27ac-7803-a9ea-f3b4ad4ad678""}","https://test12345.live/?num_scrambled_semantic=8&num_scrambled_causal=4&num_scrambled_schematic=4&participantId=1ED68823D3214CDBB80039EC4F099D48&assignmentId=0198ee69-6d88-7119-8738-522e39ba1df0&projectId=0198ee3c-27ac-7803-a9ea-f3b4ad4ad678","1ED68823D3214CDBB80039EC4F099D48-2025-08-28-02-58-09","","null","","[]","null","",""
"","","","","","image-button-response","78","416646","0.0-12.0-1.0-0.7","1ED68823D3214CDBB80039EC4F099D48","1ED68823D3214CDBB80039EC4F099D48","0198ee69-6d88-7119-8738-522e39ba1df0","0198ee3c-27ac-7803-a9ea-f3b4ad4ad678","{""num_scrambled_semantic"":""8"",""num_scrambled_causal"":""4"",""num_scrambled_schematic"":""4"",""participantId"":""1ED68823D3214CDBB80039EC4F099D48"",""assignmentId"":""0198ee69-6d88-7119-8738-522e39ba1df0"",""projectId"":""0198ee3c-27ac-7803-a9ea-f3b4ad4ad678""}","https://test12345.live/?num_scrambled_semantic=8&num_scrambled_causal=4&num_scrambled_schematic=4&participantId=1ED68823D3214CDBB80039EC4F099D48&assignmentId=0198ee69-6d88-7119-8738-522e39ba1df0&projectId=0198ee3c-27ac-7803-a9ea-f3b4ad4ad678","1ED68823D3214CDBB80039EC4F099D48-2025-08-28-02-58-09","","null","","images/semantic_sequence/visiting_cities_semantic/visiting_cities_semantic_8.png","null","",""
"","","","","","image-button-response","79","418512","0.0-12.0-1.0-1.7","1ED68823D3214CDBB80039EC4F099D48","1ED68823D3214CDBB80039EC4F099D48","0198ee69-6d88-7119-8738-522e39ba1df0","0198ee3c-27ac-7803-a9ea-f3b4ad4ad678","{""num_scrambled_semantic"":""8"",""num_scrambled_causal"":""4"",""num_scrambled_schematic"":""4"",""participantId"":""1ED68823D3214CDBB80039EC4F099D48"",""assignmentId"":""0198ee69-6d88-7119-8738-522e39ba1df0"",""projectId"":""0198ee3c-27ac-7803-a9ea-f3b4ad4ad678""}","https://test12345.live/?num_scrambled_semantic=8&num_scrambled_causal=4&num_scrambled_schematic=4&participantId=1ED68823D3214CDBB80039EC4F099D48&assignmentId=0198ee69-6d88-7119-8738-522e39ba1df0&projectId=0198ee3c-27ac-7803-a9ea-f3b4ad4ad678","1ED68823D3214CDBB80039EC4F099D48-2025-08-28-02-58-09","","1865","","images/semantic_sequence/visiting_cities_semantic/visiting_cities_semantic_8.png","0","",""
"","","","","","image-button-response","80","420313","0.0-12.0-1.0-2.7","1ED68823D3214CDBB80039EC4F099D48","1ED68823D3214CDBB80039EC4F099D48","0198ee69-6d88-7119-8738-522e39ba1df0","0198ee3c-27ac-7803-a9ea-f3b4ad4ad678","{""num_scrambled_semantic"":""8"",""num_scrambled_causal"":""4"",""num_scrambled_schematic"":""4"",""participantId"":""1ED68823D3214CDBB80039EC4F099D48"",""assignmentId"":""0198ee69-6d88-7119-8738-522e39ba1df0"",""projectId"":""0198ee3c-27ac-7803-a9ea-f3b4ad4ad678""}","https://test12345.live/?num_scrambled_semantic=8&num_scrambled_causal=4&num_scrambled_schematic=4&participantId=1ED68823D3214CDBB80039EC4F099D48&assignmentId=0198ee69-6d88-7119-8738-522e39ba1df0&projectId=0198ee3c-27ac-7803-a9ea-f3b4ad4ad678","1ED68823D3214CDBB80039EC4F099D48-2025-08-28-02-58-09","","null","","[]","null","",""
"","","","","","image-button-response","81","424828","0.0-12.0-1.0-0.8","1ED68823D3214CDBB80039EC4F099D48","1ED68823D3214CDBB80039EC4F099D48","0198ee69-6d88-7119-8738-522e39ba1df0","0198ee3c-27ac-7803-a9ea-f3b4ad4ad678","{""num_scrambled_semantic"":""8"",""num_scrambled_causal"":""4"",""num_scrambled_schematic"":""4"",""participantId"":""1ED68823D3214CDBB80039EC4F099D48"",""assignmentId"":""0198ee69-6d88-7119-8738-522e39ba1df0"",""projectId"":""0198ee3c-27ac-7803-a9ea-f3b4ad4ad678""}","https://test12345.live/?num_scrambled_semantic=8&num_scrambled_causal=4&num_scrambled_schematic=4&participantId=1ED68823D3214CDBB80039EC4F099D48&assignmentId=0198ee69-6d88-7119-8738-522e39ba1df0&projectId=0198ee3c-27ac-7803-a9ea-f3b4ad4ad678","1ED68823D3214CDBB80039EC4F099D48-2025-08-28-02-58-09","","null","","images/semantic_sequence/visiting_cities_semantic/visiting_cities_semantic_9.png","null","",""
"","","","","","image-button-response","82","426201","0.0-12.0-1.0-1.8","1ED68823D3214CDBB80039EC4F099D48","1ED68823D3214CDBB80039EC4F099D48","0198ee69-6d88-7119-8738-522e39ba1df0","0198ee3c-27ac-7803-a9ea-f3b4ad4ad678","{""num_scrambled_semantic"":""8"",""num_scrambled_causal"":""4"",""num_scrambled_schematic"":""4"",""participantId"":""1ED68823D3214CDBB80039EC4F099D48"",""assignmentId"":""0198ee69-6d88-7119-8738-522e39ba1df0"",""projectId"":""0198ee3c-27ac-7803-a9ea-f3b4ad4ad678""}","https://test12345.live/?num_scrambled_semantic=8&num_scrambled_causal=4&num_scrambled_schematic=4&participantId=1ED68823D3214CDBB80039EC4F099D48&assignmentId=0198ee69-6d88-7119-8738-522e39ba1df0&projectId=0198ee3c-27ac-7803-a9ea-f3b4ad4ad678","1ED68823D3214CDBB80039EC4F099D48-2025-08-28-02-58-09","","1373","","images/semantic_sequence/visiting_cities_semantic/visiting_cities_semantic_9.png","1","",""
"","","","","","image-button-response","83","428008","0.0-12.0-1.0-2.8","1ED68823D3214CDBB80039EC4F099D48","1ED68823D3214CDBB80039EC4F099D48","0198ee69-6d88-7119-8738-522e39ba1df0","0198ee3c-27ac-7803-a9ea-f3b4ad4ad678","{""num_scrambled_semantic"":""8"",""num_scrambled_causal"":""4"",""num_scrambled_schematic"":""4"",""participantId"":""1ED68823D3214CDBB80039EC4F099D48"",""assignmentId"":""0198ee69-6d88-7119-8738-522e39ba1df0"",""projectId"":""0198ee3c-27ac-7803-a9ea-f3b4ad4ad678""}","https://test12345.live/?num_scrambled_semantic=8&num_scrambled_causal=4&num_scrambled_schematic=4&participantId=1ED68823D3214CDBB80039EC4F099D48&assignmentId=0198ee69-6d88-7119-8738-522e39ba1df0&projectId=0198ee3c-27ac-7803-a9ea-f3b4ad4ad678","1ED68823D3214CDBB80039EC4F099D48-2025-08-28-02-58-09","","null","","[]","null","",""
"","","","","","image-button-response","84","432519","0.0-12.0-1.0-0.9","1ED68823D3214CDBB80039EC4F099D48","1ED68823D3214CDBB80039EC4F099D48","0198ee69-6d88-7119-8738-522e39ba1df0","0198ee3c-27ac-7803-a9ea-f3b4ad4ad678","{""num_scrambled_semantic"":""8"",""num_scrambled_causal"":""4"",""num_scrambled_schematic"":""4"",""participantId"":""1ED68823D3214CDBB80039EC4F099D48"",""assignmentId"":""0198ee69-6d88-7119-8738-522e39ba1df0"",""projectId"":""0198ee3c-27ac-7803-a9ea-f3b4ad4ad678""}","https://test12345.live/?num_scrambled_semantic=8&num_scrambled_causal=4&num_scrambled_schematic=4&participantId=1ED68823D3214CDBB80039EC4F099D48&assignmentId=0198ee69-6d88-7119-8738-522e39ba1df0&projectId=0198ee3c-27ac-7803-a9ea-f3b4ad4ad678","1ED68823D3214CDBB80039EC4F099D48-2025-08-28-02-58-09","","null","","images/semantic_sequence/visiting_cities_semantic/visiting_cities_semantic_ten.png","null","",""
"","","","","","image-button-response","85","434222","0.0-12.0-1.0-1.9","1ED68823D3214CDBB80039EC4F099D48","1ED68823D3214CDBB80039EC4F099D48","0198ee69-6d88-7119-8738-522e39ba1df0","0198ee3c-27ac-7803-a9ea-f3b4ad4ad678","{""num_scrambled_semantic"":""8"",""num_scrambled_causal"":""4"",""num_scrambled_schematic"":""4"",""participantId"":""1ED68823D3214CDBB80039EC4F099D48"",""assignmentId"":""0198ee69-6d88-7119-8738-522e39ba1df0"",""projectId"":""0198ee3c-27ac-7803-a9ea-f3b4ad4ad678""}","https://test12345.live/?num_scrambled_semantic=8&num_scrambled_causal=4&num_scrambled_schematic=4&participantId=1ED68823D3214CDBB80039EC4F099D48&assignmentId=0198ee69-6d88-7119-8738-522e39ba1df0&projectId=0198ee3c-27ac-7803-a9ea-f3b4ad4ad678","1ED68823D3214CDBB80039EC4F099D48-2025-08-28-02-58-09","","1703","","images/semantic_sequence/visiting_cities_semantic/visiting_cities_semantic_ten.png","1","",""
"","","","","","image-button-response","86","436027","0.0-12.0-1.0-2.9","1ED68823D3214CDBB80039EC4F099D48","1ED68823D3214CDBB80039EC4F099D48","0198ee69-6d88-7119-8738-522e39ba1df0","0198ee3c-27ac-7803-a9ea-f3b4ad4ad678","{""num_scrambled_semantic"":""8"",""num_scrambled_causal"":""4"",""num_scrambled_schematic"":""4"",""participantId"":""1ED68823D3214CDBB80039EC4F099D48"",""assignmentId"":""0198ee69-6d88-7119-8738-522e39ba1df0"",""projectId"":""0198ee3c-27ac-7803-a9ea-f3b4ad4ad678""}","https://test12345.live/?num_scrambled_semantic=8&num_scrambled_causal=4&num_scrambled_schematic=4&participantId=1ED68823D3214CDBB80039EC4F099D48&assignmentId=0198ee69-6d88-7119-8738-522e39ba1df0&projectId=0198ee3c-27ac-7803-a9ea-f3b4ad4ad678","1ED68823D3214CDBB80039EC4F099D48-2025-08-28-02-58-09","","null","","[]","null","",""
"","","","","","html-audio-response","87","462385","0.0-13.0","1ED68823D3214CDBB80039EC4F099D48","1ED68823D3214CDBB80039EC4F099D48","0198ee69-6d88-7119-8738-522e39ba1df0","0198ee3c-27ac-7803-a9ea-f3b4ad4ad678","{""num_scrambled_semantic"":""8"",""num_scrambled_causal"":""4"",""num_scrambled_schematic"":""4"",""participantId"":""1ED68823D3214CDBB80039EC4F099D48"",""assignmentId"":""0198ee69-6d88-7119-8738-522e39ba1df0"",""projectId"":""0198ee3c-27ac-7803-a9ea-f3b4ad4ad678""}","https://test12345.live/?num_scrambled_semantic=8&num_scrambled_causal=4&num_scrambled_schematic=4&participantId=1ED68823D3214CDBB80039EC4F099D48&assignmentId=0198ee69-6d88-7119-8738-522e39ba1df0&projectId=0198ee3c-27ac-7803-a9ea-f3b4ad4ad678","1ED68823D3214CDBB80039EC4F099D48-2025-08-28-02-58-09","","25213","","[""<span style=\""color: red; font-size: 24px\""> NOW RECORDING</span><p>Please say out loud all the images you saw, in the order of the story they create. Try to recall the sequence of events as they appeared in the story, not necessarily the order they were presented on the screen.</p>""]","","1","visiting_cities_semantic"
"","","","","","image-button-response","88","468397","0.0-14.0-0.0","1ED68823D3214CDBB80039EC4F099D48","1ED68823D3214CDBB80039EC4F099D48","0198ee69-6d88-7119-8738-522e39ba1df0","0198ee3c-27ac-7803-a9ea-f3b4ad4ad678","{""num_scrambled_semantic"":""8"",""num_scrambled_causal"":""4"",""num_scrambled_schematic"":""4"",""participantId"":""1ED68823D3214CDBB80039EC4F099D48"",""assignmentId"":""0198ee69-6d88-7119-8738-522e39ba1df0"",""projectId"":""0198ee3c-27ac-7803-a9ea-f3b4ad4ad678""}","https://test12345.live/?num_scrambled_semantic=8&num_scrambled_causal=4&num_scrambled_schematic=4&participantId=1ED68823D3214CDBB80039EC4F099D48&assignmentId=0198ee69-6d88-7119-8738-522e39ba1df0&projectId=0198ee3c-27ac-7803-a9ea-f3b4ad4ad678","1ED68823D3214CDBB80039EC4F099D48-2025-08-28-02-58-09","","null","","images/semantic_sequence/creative_activities_semantic/creative_activities_semantic_0.png","null","",""
"","","","","","image-button-response","89","472897","0.0-14.0-1.0-0.0","1ED68823D3214CDBB80039EC4F099D48","1ED68823D3214CDBB80039EC4F099D48","0198ee69-6d88-7119-8738-522e39ba1df0","0198ee3c-27ac-7803-a9ea-f3b4ad4ad678","{""num_scrambled_semantic"":""8"",""num_scrambled_causal"":""4"",""num_scrambled_schematic"":""4"",""participantId"":""1ED68823D3214CDBB80039EC4F099D48"",""assignmentId"":""0198ee69-6d88-7119-8738-522e39ba1df0"",""projectId"":""0198ee3c-27ac-7803-a9ea-f3b4ad4ad678""}","https://test12345.live/?num_scrambled_semantic=8&num_scrambled_causal=4&num_scrambled_schematic=4&participantId=1ED68823D3214CDBB80039EC4F099D48&assignmentId=0198ee69-6d88-7119-8738-522e39ba1df0&projectId=0198ee3c-27ac-7803-a9ea-f3b4ad4ad678","1ED68823D3214CDBB80039EC4F099D48-2025-08-28-02-58-09","","null","","images/semantic_sequence/creative_activities_semantic/creative_activities_semantic_8.png","null","",""
"","","","","","image-button-response","90","474029","0.0-14.0-1.0-1.0","1ED68823D3214CDBB80039EC4F099D48","1ED68823D3214CDBB80039EC4F099D48","0198ee69-6d88-7119-8738-522e39ba1df0","0198ee3c-27ac-7803-a9ea-f3b4ad4ad678","{""num_scrambled_semantic"":""8"",""num_scrambled_causal"":""4"",""num_scrambled_schematic"":""4"",""participantId"":""1ED68823D3214CDBB80039EC4F099D48"",""assignmentId"":""0198ee69-6d88-7119-8738-522e39ba1df0"",""projectId"":""0198ee3c-27ac-7803-a9ea-f3b4ad4ad678""}","https://test12345.live/?num_scrambled_semantic=8&num_scrambled_causal=4&num_scrambled_schematic=4&participantId=1ED68823D3214CDBB80039EC4F099D48&assignmentId=0198ee69-6d88-7119-8738-522e39ba1df0&projectId=0198ee3c-27ac-7803-a9ea-f3b4ad4ad678","1ED68823D3214CDBB80039EC4F099D48-2025-08-28-02-58-09","","1132","","images/semantic_sequence/creative_activities_semantic/creative_activities_semantic_8.png","0","",""
"","","","","","image-button-response","91","475835","0.0-14.0-1.0-2.0","1ED68823D3214CDBB80039EC4F099D48","1ED68823D3214CDBB80039EC4F099D48","0198ee69-6d88-7119-8738-522e39ba1df0","0198ee3c-27ac-7803-a9ea-f3b4ad4ad678","{""num_scrambled_semantic"":""8"",""num_scrambled_causal"":""4"",""num_scrambled_schematic"":""4"",""participantId"":""1ED68823D3214CDBB80039EC4F099D48"",""assignmentId"":""0198ee69-6d88-7119-8738-522e39ba1df0"",""projectId"":""0198ee3c-27ac-7803-a9ea-f3b4ad4ad678""}","https://test12345.live/?num_scrambled_semantic=8&num_scrambled_causal=4&num_scrambled_schematic=4&participantId=1ED68823D3214CDBB80039EC4F099D48&assignmentId=0198ee69-6d88-7119-8738-522e39ba1df0&projectId=0198ee3c-27ac-7803-a9ea-f3b4ad4ad678","1ED68823D3214CDBB80039EC4F099D48-2025-08-28-02-58-09","","null","","[]","null","",""
"","","","","","image-button-response","92","480336","0.0-14.0-1.0-0.1","1ED68823D3214CDBB80039EC4F099D48","1ED68823D3214CDBB80039EC4F099D48","0198ee69-6d88-7119-8738-522e39ba1df0","0198ee3c-27ac-7803-a9ea-f3b4ad4ad678","{""num_scrambled_semantic"":""8"",""num_scrambled_causal"":""4"",""num_scrambled_schematic"":""4"",""participantId"":""1ED68823D3214CDBB80039EC4F099D48"",""assignmentId"":""0198ee69-6d88-7119-8738-522e39ba1df0"",""projectId"":""0198ee3c-27ac-7803-a9ea-f3b4ad4ad678""}","https://test12345.live/?num_scrambled_semantic=8&num_scrambled_causal=4&num_scrambled_schematic=4&participantId=1ED68823D3214CDBB80039EC4F099D48&assignmentId=0198ee69-6d88-7119-8738-522e39ba1df0&projectId=0198ee3c-27ac-7803-a9ea-f3b4ad4ad678","1ED68823D3214CDBB80039EC4F099D48-2025-08-28-02-58-09","","null","","images/semantic_sequence/creative_activities_semantic/creative_activities_semantic_4.png","null","",""
"","","","","","image-button-response","93","481912","0.0-14.0-1.0-1.1","1ED68823D3214CDBB80039EC4F099D48","1ED68823D3214CDBB80039EC4F099D48","0198ee69-6d88-7119-8738-522e39ba1df0","0198ee3c-27ac-7803-a9ea-f3b4ad4ad678","{""num_scrambled_semantic"":""8"",""num_scrambled_causal"":""4"",""num_scrambled_schematic"":""4"",""participantId"":""1ED68823D3214CDBB80039EC4F099D48"",""assignmentId"":""0198ee69-6d88-7119-8738-522e39ba1df0"",""projectId"":""0198ee3c-27ac-7803-a9ea-f3b4ad4ad678""}","https://test12345.live/?num_scrambled_semantic=8&num_scrambled_causal=4&num_scrambled_schematic=4&participantId=1ED68823D3214CDBB80039EC4F099D48&assignmentId=0198ee69-6d88-7119-8738-522e39ba1df0&projectId=0198ee3c-27ac-7803-a9ea-f3b4ad4ad678","1ED68823D3214CDBB80039EC4F099D48-2025-08-28-02-58-09","","1575","","images/semantic_sequence/creative_activities_semantic/creative_activities_semantic_4.png","0","",""
"","","","","","image-button-response","94","483713","0.0-14.0-1.0-2.1","1ED68823D3214CDBB80039EC4F099D48","1ED68823D3214CDBB80039EC4F099D48","0198ee69-6d88-7119-8738-522e39ba1df0","0198ee3c-27ac-7803-a9ea-f3b4ad4ad678","{""num_scrambled_semantic"":""8"",""num_scrambled_causal"":""4"",""num_scrambled_schematic"":""4"",""participantId"":""1ED68823D3214CDBB80039EC4F099D48"",""assignmentId"":""0198ee69-6d88-7119-8738-522e39ba1df0"",""projectId"":""0198ee3c-27ac-7803-a9ea-f3b4ad4ad678""}","https://test12345.live/?num_scrambled_semantic=8&num_scrambled_causal=4&num_scrambled_schematic=4&participantId=1ED68823D3214CDBB80039EC4F099D48&assignmentId=0198ee69-6d88-7119-8738-522e39ba1df0&projectId=0198ee3c-27ac-7803-a9ea-f3b4ad4ad678","1ED68823D3214CDBB80039EC4F099D48-2025-08-28-02-58-09","","null","","[]","null","",""
"","","","","","image-button-response","95","488224","0.0-14.0-1.0-0.2","1ED68823D3214CDBB80039EC4F099D48","1ED68823D3214CDBB80039EC4F099D48","0198ee69-6d88-7119-8738-522e39ba1df0","0198ee3c-27ac-7803-a9ea-f3b4ad4ad678","{""num_scrambled_semantic"":""8"",""num_scrambled_causal"":""4"",""num_scrambled_schematic"":""4"",""participantId"":""1ED68823D3214CDBB80039EC4F099D48"",""assignmentId"":""0198ee69-6d88-7119-8738-522e39ba1df0"",""projectId"":""0198ee3c-27ac-7803-a9ea-f3b4ad4ad678""}","https://test12345.live/?num_scrambled_semantic=8&num_scrambled_causal=4&num_scrambled_schematic=4&participantId=1ED68823D3214CDBB80039EC4F099D48&assignmentId=0198ee69-6d88-7119-8738-522e39ba1df0&projectId=0198ee3c-27ac-7803-a9ea-f3b4ad4ad678","1ED68823D3214CDBB80039EC4F099D48-2025-08-28-02-58-09","","null","","images/semantic_sequence/creative_activities_semantic/creative_activities_semantic_7.png","null","",""
"","","","","","image-button-response","96","490323","0.0-14.0-1.0-1.2","1ED68823D3214CDBB80039EC4F099D48","1ED68823D3214CDBB80039EC4F099D48","0198ee69-6d88-7119-8738-522e39ba1df0","0198ee3c-27ac-7803-a9ea-f3b4ad4ad678","{""num_scrambled_semantic"":""8"",""num_scrambled_causal"":""4"",""num_scrambled_schematic"":""4"",""participantId"":""1ED68823D3214CDBB80039EC4F099D48"",""assignmentId"":""0198ee69-6d88-7119-8738-522e39ba1df0"",""projectId"":""0198ee3c-27ac-7803-a9ea-f3b4ad4ad678""}","https://test12345.live/?num_scrambled_semantic=8&num_scrambled_causal=4&num_scrambled_schematic=4&participantId=1ED68823D3214CDBB80039EC4F099D48&assignmentId=0198ee69-6d88-7119-8738-522e39ba1df0&projectId=0198ee3c-27ac-7803-a9ea-f3b4ad4ad678","1ED68823D3214CDBB80039EC4F099D48-2025-08-28-02-58-09","","2098","","images/semantic_sequence/creative_activities_semantic/creative_activities_semantic_7.png","0","",""
"","","","","","image-button-response","97","492126","0.0-14.0-1.0-2.2","1ED68823D3214CDBB80039EC4F099D48","1ED68823D3214CDBB80039EC4F099D48","0198ee69-6d88-7119-8738-522e39ba1df0","0198ee3c-27ac-7803-a9ea-f3b4ad4ad678","{""num_scrambled_semantic"":""8"",""num_scrambled_causal"":""4"",""num_scrambled_schematic"":""4"",""participantId"":""1ED68823D3214CDBB80039EC4F099D48"",""assignmentId"":""0198ee69-6d88-7119-8738-522e39ba1df0"",""projectId"":""0198ee3c-27ac-7803-a9ea-f3b4ad4ad678""}","https://test12345.live/?num_scrambled_semantic=8&num_scrambled_causal=4&num_scrambled_schematic=4&participantId=1ED68823D3214CDBB80039EC4F099D48&assignmentId=0198ee69-6d88-7119-8738-522e39ba1df0&projectId=0198ee3c-27ac-7803-a9ea-f3b4ad4ad678","1ED68823D3214CDBB80039EC4F099D48-2025-08-28-02-58-09","","null","","[]","null","",""
"","","","","","image-button-response","98","496626","0.0-14.0-1.0-0.3","1ED68823D3214CDBB80039EC4F099D48","1ED68823D3214CDBB80039EC4F099D48","0198ee69-6d88-7119-8738-522e39ba1df0","0198ee3c-27ac-7803-a9ea-f3b4ad4ad678","{""num_scrambled_semantic"":""8"",""num_scrambled_causal"":""4"",""num_scrambled_schematic"":""4"",""participantId"":""1ED68823D3214CDBB80039EC4F099D48"",""assignmentId"":""0198ee69-6d88-7119-8738-522e39ba1df0"",""projectId"":""0198ee3c-27ac-7803-a9ea-f3b4ad4ad678""}","https://test12345.live/?num_scrambled_semantic=8&num_scrambled_causal=4&num_scrambled_schematic=4&participantId=1ED68823D3214CDBB80039EC4F099D48&assignmentId=0198ee69-6d88-7119-8738-522e39ba1df0&projectId=0198ee3c-27ac-7803-a9ea-f3b4ad4ad678","1ED68823D3214CDBB80039EC4F099D48-2025-08-28-02-58-09","","null","","images/semantic_sequence/creative_activities_semantic/creative_activities_semantic_5.png","null","",""
"","","","","","image-button-response","99","497400","0.0-14.0-1.0-1.3","1ED68823D3214CDBB80039EC4F099D48","1ED68823D3214CDBB80039EC4F099D48","0198ee69-6d88-7119-8738-522e39ba1df0","0198ee3c-27ac-7803-a9ea-f3b4ad4ad678","{""num_scrambled_semantic"":""8"",""num_scrambled_causal"":""4"",""num_scrambled_schematic"":""4"",""participantId"":""1ED68823D3214CDBB80039EC4F099D48"",""assignmentId"":""0198ee69-6d88-7119-8738-522e39ba1df0"",""projectId"":""0198ee3c-27ac-7803-a9ea-f3b4ad4ad678""}","https://test12345.live/?num_scrambled_semantic=8&num_scrambled_causal=4&num_scrambled_schematic=4&participantId=1ED68823D3214CDBB80039EC4F099D48&assignmentId=0198ee69-6d88-7119-8738-522e39ba1df0&projectId=0198ee3c-27ac-7803-a9ea-f3b4ad4ad678","1ED68823D3214CDBB80039EC4F099D48-2025-08-28-02-58-09","","773","","images/semantic_sequence/creative_activities_semantic/creative_activities_semantic_5.png","0","",""
"","","","","","image-button-response","100","499208","0.0-14.0-1.0-2.3","1ED68823D3214CDBB80039EC4F099D48","1ED68823D3214CDBB80039EC4F099D48","0198ee69-6d88-7119-8738-522e39ba1df0","0198ee3c-27ac-7803-a9ea-f3b4ad4ad678","{""num_scrambled_semantic"":""8"",""num_scrambled_causal"":""4"",""num_scrambled_schematic"":""4"",""participantId"":""1ED68823D3214CDBB80039EC4F099D48"",""assignmentId"":""0198ee69-6d88-7119-8738-522e39ba1df0"",""projectId"":""0198ee3c-27ac-7803-a9ea-f3b4ad4ad678""}","https://test12345.live/?num_scrambled_semantic=8&num_scrambled_causal=4&num_scrambled_schematic=4&participantId=1ED68823D3214CDBB80039EC4F099D48&assignmentId=0198ee69-6d88-7119-8738-522e39ba1df0&projectId=0198ee3c-27ac-7803-a9ea-f3b4ad4ad678","1ED68823D3214CDBB80039EC4F099D48-2025-08-28-02-58-09","","null","","[]","null","",""
"","","","","","image-button-response","101","503721","0.0-14.0-1.0-0.4","1ED68823D3214CDBB80039EC4F099D48","1ED68823D3214CDBB80039EC4F099D48","0198ee69-6d88-7119-8738-522e39ba1df0","0198ee3c-27ac-7803-a9ea-f3b4ad4ad678","{""num_scrambled_semantic"":""8"",""num_scrambled_causal"":""4"",""num_scrambled_schematic"":""4"",""participantId"":""1ED68823D3214CDBB80039EC4F099D48"",""assignmentId"":""0198ee69-6d88-7119-8738-522e39ba1df0"",""projectId"":""0198ee3c-27ac-7803-a9ea-f3b4ad4ad678""}","https://test12345.live/?num_scrambled_semantic=8&num_scrambled_causal=4&num_scrambled_schematic=4&participantId=1ED68823D3214CDBB80039EC4F099D48&assignmentId=0198ee69-6d88-7119-8738-522e39ba1df0&projectId=0198ee3c-27ac-7803-a9ea-f3b4ad4ad678","1ED68823D3214CDBB80039EC4F099D48-2025-08-28-02-58-09","","null","","images/semantic_sequence/creative_activities_semantic/creative_activities_semantic_6.png","null","",""
"","","","","","image-button-response","102","505365","0.0-14.0-1.0-1.4","1ED68823D3214CDBB80039EC4F099D48","1ED68823D3214CDBB80039EC4F099D48","0198ee69-6d88-7119-8738-522e39ba1df0","0198ee3c-27ac-7803-a9ea-f3b4ad4ad678","{""num_scrambled_semantic"":""8"",""num_scrambled_causal"":""4"",""num_scrambled_schematic"":""4"",""participantId"":""1ED68823D3214CDBB80039EC4F099D48"",""assignmentId"":""0198ee69-6d88-7119-8738-522e39ba1df0"",""projectId"":""0198ee3c-27ac-7803-a9ea-f3b4ad4ad678""}","https://test12345.live/?num_scrambled_semantic=8&num_scrambled_causal=4&num_scrambled_schematic=4&participantId=1ED68823D3214CDBB80039EC4F099D48&assignmentId=0198ee69-6d88-7119-8738-522e39ba1df0&projectId=0198ee3c-27ac-7803-a9ea-f3b4ad4ad678","1ED68823D3214CDBB80039EC4F099D48-2025-08-28-02-58-09","","1643","","images/semantic_sequence/creative_activities_semantic/creative_activities_semantic_6.png","0","",""
"","","","","","image-button-response","103","507171","0.0-14.0-1.0-2.4","1ED68823D3214CDBB80039EC4F099D48","1ED68823D3214CDBB80039EC4F099D48","0198ee69-6d88-7119-8738-522e39ba1df0","0198ee3c-27ac-7803-a9ea-f3b4ad4ad678","{""num_scrambled_semantic"":""8"",""num_scrambled_causal"":""4"",""num_scrambled_schematic"":""4"",""participantId"":""1ED68823D3214CDBB80039EC4F099D48"",""assignmentId"":""0198ee69-6d88-7119-8738-522e39ba1df0"",""projectId"":""0198ee3c-27ac-7803-a9ea-f3b4ad4ad678""}","https://test12345.live/?num_scrambled_semantic=8&num_scrambled_causal=4&num_scrambled_schematic=4&participantId=1ED68823D3214CDBB80039EC4F099D48&assignmentId=0198ee69-6d88-7119-8738-522e39ba1df0&projectId=0198ee3c-27ac-7803-a9ea-f3b4ad4ad678","1ED68823D3214CDBB80039EC4F099D48-2025-08-28-02-58-09","","null","","[]","null","",""
"","","","","","image-button-response","104","511678","0.0-14.0-1.0-0.5","1ED68823D3214CDBB80039EC4F099D48","1ED68823D3214CDBB80039EC4F099D48","0198ee69-6d88-7119-8738-522e39ba1df0","0198ee3c-27ac-7803-a9ea-f3b4ad4ad678","{""num_scrambled_semantic"":""8"",""num_scrambled_causal"":""4"",""num_scrambled_schematic"":""4"",""participantId"":""1ED68823D3214CDBB80039EC4F099D48"",""assignmentId"":""0198ee69-6d88-7119-8738-522e39ba1df0"",""projectId"":""0198ee3c-27ac-7803-a9ea-f3b4ad4ad678""}","https://test12345.live/?num_scrambled_semantic=8&num_scrambled_causal=4&num_scrambled_schematic=4&participantId=1ED68823D3214CDBB80039EC4F099D48&assignmentId=0198ee69-6d88-7119-8738-522e39ba1df0&projectId=0198ee3c-27ac-7803-a9ea-f3b4ad4ad678","1ED68823D3214CDBB80039EC4F099D48-2025-08-28-02-58-09","","null","","images/semantic_sequence/creative_activities_semantic/creative_activities_semantic_ten.png","null","",""
"","","","","","image-button-response","105","513701","0.0-14.0-1.0-1.5","1ED68823D3214CDBB80039EC4F099D48","1ED68823D3214CDBB80039EC4F099D48","0198ee69-6d88-7119-8738-522e39ba1df0","0198ee3c-27ac-7803-a9ea-f3b4ad4ad678","{""num_scrambled_semantic"":""8"",""num_scrambled_causal"":""4"",""num_scrambled_schematic"":""4"",""participantId"":""1ED68823D3214CDBB80039EC4F099D48"",""assignmentId"":""0198ee69-6d88-7119-8738-522e39ba1df0"",""projectId"":""0198ee3c-27ac-7803-a9ea-f3b4ad4ad678""}","https://test12345.live/?num_scrambled_semantic=8&num_scrambled_causal=4&num_scrambled_schematic=4&participantId=1ED68823D3214CDBB80039EC4F099D48&assignmentId=0198ee69-6d88-7119-8738-522e39ba1df0&projectId=0198ee3c-27ac-7803-a9ea-f3b4ad4ad678","1ED68823D3214CDBB80039EC4F099D48-2025-08-28-02-58-09","","2023","","images/semantic_sequence/creative_activities_semantic/creative_activities_semantic_ten.png","0","",""
"","","","","","image-button-response","106","515516","0.0-14.0-1.0-2.5","1ED68823D3214CDBB80039EC4F099D48","1ED68823D3214CDBB80039EC4F099D48","0198ee69-6d88-7119-8738-522e39ba1df0","0198ee3c-27ac-7803-a9ea-f3b4ad4ad678","{""num_scrambled_semantic"":""8"",""num_scrambled_causal"":""4"",""num_scrambled_schematic"":""4"",""participantId"":""1ED68823D3214CDBB80039EC4F099D48"",""assignmentId"":""0198ee69-6d88-7119-8738-522e39ba1df0"",""projectId"":""0198ee3c-27ac-7803-a9ea-f3b4ad4ad678""}","https://test12345.live/?num_scrambled_semantic=8&num_scrambled_causal=4&num_scrambled_schematic=4&participantId=1ED68823D3214CDBB80039EC4F099D48&assignmentId=0198ee69-6d88-7119-8738-522e39ba1df0&projectId=0198ee3c-27ac-7803-a9ea-f3b4ad4ad678","1ED68823D3214CDBB80039EC4F099D48-2025-08-28-02-58-09","","null","","[]","null","",""
"","","","","","image-button-response","107","520021","0.0-14.0-1.0-0.6","1ED68823D3214CDBB80039EC4F099D48","1ED68823D3214CDBB80039EC4F099D48","0198ee69-6d88-7119-8738-522e39ba1df0","0198ee3c-27ac-7803-a9ea-f3b4ad4ad678","{""num_scrambled_semantic"":""8"",""num_scrambled_causal"":""4"",""num_scrambled_schematic"":""4"",""participantId"":""1ED68823D3214CDBB80039EC4F099D48"",""assignmentId"":""0198ee69-6d88-7119-8738-522e39ba1df0"",""projectId"":""0198ee3c-27ac-7803-a9ea-f3b4ad4ad678""}","https://test12345.live/?num_scrambled_semantic=8&num_scrambled_causal=4&num_scrambled_schematic=4&participantId=1ED68823D3214CDBB80039EC4F099D48&assignmentId=0198ee69-6d88-7119-8738-522e39ba1df0&projectId=0198ee3c-27ac-7803-a9ea-f3b4ad4ad678","1ED68823D3214CDBB80039EC4F099D48-2025-08-28-02-58-09","","null","","images/semantic_sequence/creative_activities_semantic/creative_activities_semantic_1.png","null","",""
"","","","","","image-button-response","108","521716","0.0-14.0-1.0-1.6","1ED68823D3214CDBB80039EC4F099D48","1ED68823D3214CDBB80039EC4F099D48","0198ee69-6d88-7119-8738-522e39ba1df0","0198ee3c-27ac-7803-a9ea-f3b4ad4ad678","{""num_scrambled_semantic"":""8"",""num_scrambled_causal"":""4"",""num_scrambled_schematic"":""4"",""participantId"":""1ED68823D3214CDBB80039EC4F099D48"",""assignmentId"":""0198ee69-6d88-7119-8738-522e39ba1df0"",""projectId"":""0198ee3c-27ac-7803-a9ea-f3b4ad4ad678""}","https://test12345.live/?num_scrambled_semantic=8&num_scrambled_causal=4&num_scrambled_schematic=4&participantId=1ED68823D3214CDBB80039EC4F099D48&assignmentId=0198ee69-6d88-7119-8738-522e39ba1df0&projectId=0198ee3c-27ac-7803-a9ea-f3b4ad4ad678","1ED68823D3214CDBB80039EC4F099D48-2025-08-28-02-58-09","","1695","","images/semantic_sequence/creative_activities_semantic/creative_activities_semantic_1.png","0","",""
"","","","","","image-button-response","109","523522","0.0-14.0-1.0-2.6","1ED68823D3214CDBB80039EC4F099D48","1ED68823D3214CDBB80039EC4F099D48","0198ee69-6d88-7119-8738-522e39ba1df0","0198ee3c-27ac-7803-a9ea-f3b4ad4ad678","{""num_scrambled_semantic"":""8"",""num_scrambled_causal"":""4"",""num_scrambled_schematic"":""4"",""participantId"":""1ED68823D3214CDBB80039EC4F099D48"",""assignmentId"":""0198ee69-6d88-7119-8738-522e39ba1df0"",""projectId"":""0198ee3c-27ac-7803-a9ea-f3b4ad4ad678""}","https://test12345.live/?num_scrambled_semantic=8&num_scrambled_causal=4&num_scrambled_schematic=4&participantId=1ED68823D3214CDBB80039EC4F099D48&assignmentId=0198ee69-6d88-7119-8738-522e39ba1df0&projectId=0198ee3c-27ac-7803-a9ea-f3b4ad4ad678","1ED68823D3214CDBB80039EC4F099D48-2025-08-28-02-58-09","","null","","[]","null","",""
"","","","","","image-button-response","110","528029","0.0-14.0-1.0-0.7","1ED68823D3214CDBB80039EC4F099D48","1ED68823D3214CDBB80039EC4F099D48","0198ee69-6d88-7119-8738-522e39ba1df0","0198ee3c-27ac-7803-a9ea-f3b4ad4ad678","{""num_scrambled_semantic"":""8"",""num_scrambled_causal"":""4"",""num_scrambled_schematic"":""4"",""participantId"":""1ED68823D3214CDBB80039EC4F099D48"",""assignmentId"":""0198ee69-6d88-7119-8738-522e39ba1df0"",""projectId"":""0198ee3c-27ac-7803-a9ea-f3b4ad4ad678""}","https://test12345.live/?num_scrambled_semantic=8&num_scrambled_causal=4&num_scrambled_schematic=4&participantId=1ED68823D3214CDBB80039EC4F099D48&assignmentId=0198ee69-6d88-7119-8738-522e39ba1df0&projectId=0198ee3c-27ac-7803-a9ea-f3b4ad4ad678","1ED68823D3214CDBB80039EC4F099D48-2025-08-28-02-58-09","","null","","images/semantic_sequence/creative_activities_semantic/creative_activities_semantic_2.png","null","",""
"","","","","","image-button-response","111","530124","0.0-14.0-1.0-1.7","1ED68823D3214CDBB80039EC4F099D48","1ED68823D3214CDBB80039EC4F099D48","0198ee69-6d88-7119-8738-522e39ba1df0","0198ee3c-27ac-7803-a9ea-f3b4ad4ad678","{""num_scrambled_semantic"":""8"",""num_scrambled_causal"":""4"",""num_scrambled_schematic"":""4"",""participantId"":""1ED68823D3214CDBB80039EC4F099D48"",""assignmentId"":""0198ee69-6d88-7119-8738-522e39ba1df0"",""projectId"":""0198ee3c-27ac-7803-a9ea-f3b4ad4ad678""}","https://test12345.live/?num_scrambled_semantic=8&num_scrambled_causal=4&num_scrambled_schematic=4&participantId=1ED68823D3214CDBB80039EC4F099D48&assignmentId=0198ee69-6d88-7119-8738-522e39ba1df0&projectId=0198ee3c-27ac-7803-a9ea-f3b4ad4ad678","1ED68823D3214CDBB80039EC4F099D48-2025-08-28-02-58-09","","2095","","images/semantic_sequence/creative_activities_semantic/creative_activities_semantic_2.png","0","",""
"","","","","","image-button-response","112","531929","0.0-14.0-1.0-2.7","1ED68823D3214CDBB80039EC4F099D48","1ED68823D3214CDBB80039EC4F099D48","0198ee69-6d88-7119-8738-522e39ba1df0","0198ee3c-27ac-7803-a9ea-f3b4ad4ad678","{""num_scrambled_semantic"":""8"",""num_scrambled_causal"":""4"",""num_scrambled_schematic"":""4"",""participantId"":""1ED68823D3214CDBB80039EC4F099D48"",""assignmentId"":""0198ee69-6d88-7119-8738-522e39ba1df0"",""projectId"":""0198ee3c-27ac-7803-a9ea-f3b4ad4ad678""}","https://test12345.live/?num_scrambled_semantic=8&num_scrambled_causal=4&num_scrambled_schematic=4&participantId=1ED68823D3214CDBB80039EC4F099D48&assignmentId=0198ee69-6d88-7119-8738-522e39ba1df0&projectId=0198ee3c-27ac-7803-a9ea-f3b4ad4ad678","1ED68823D3214CDBB80039EC4F099D48-2025-08-28-02-58-09","","null","","[]","null","",""
"","","","","","image-button-response","113","536432","0.0-14.0-1.0-0.8","1ED68823D3214CDBB80039EC4F099D48","1ED68823D3214CDBB80039EC4F099D48","0198ee69-6d88-7119-8738-522e39ba1df0","0198ee3c-27ac-7803-a9ea-f3b4ad4ad678","{""num_scrambled_semantic"":""8"",""num_scrambled_causal"":""4"",""num_scrambled_schematic"":""4"",""participantId"":""1ED68823D3214CDBB80039EC4F099D48"",""assignmentId"":""0198ee69-6d88-7119-8738-522e39ba1df0"",""projectId"":""0198ee3c-27ac-7803-a9ea-f3b4ad4ad678""}","https://test12345.live/?num_scrambled_semantic=8&num_scrambled_causal=4&num_scrambled_schematic=4&participantId=1ED68823D3214CDBB80039EC4F099D48&assignmentId=0198ee69-6d88-7119-8738-522e39ba1df0&projectId=0198ee3c-27ac-7803-a9ea-f3b4ad4ad678","1ED68823D3214CDBB80039EC4F099D48-2025-08-28-02-58-09","","null","","images/semantic_sequence/creative_activities_semantic/creative_activities_semantic_3.png","null","",""
