"success","timeout","failed_images","failed_audio","failed_video","trial_type","trial_index","time_elapsed","internal_node_id","subject","subject_id","study_id","session_id","urlvar","current_url","audio_id","view_history","rt","device_id","stimulus","response","estimated_stimulus_onset","seq_name"
"true","false","[]","[]","[]","preload","0","8840","0.0-0.0","1F026B3DA02E42E4B3914FD41B21D716","1F026B3DA02E42E4B3914FD41B21D716","d4cda327-6f3e-4e83-8f22-28d4359b406a","5e631737-0fa4-44a6-b227-7ba1d7345015","{""num_scrambled_semantic"":""8"",""num_scrambled_causal"":""4"",""num_scrambled_schematic"":""4"",""participantId"":""1F026B3DA02E42E4B3914FD41B21D716"",""assignmentId"":""d4cda327-6f3e-4e83-8f22-28d4359b406a"",""projectId"":""5e631737-0fa4-44a6-b227-7ba1d7345015""}","https://test12345.live/?num_scrambled_semantic=8&num_scrambled_causal=4&num_scrambled_schematic=4&participantId=1F026B3DA02E42E4B3914FD41B21D716&assignmentId=d4cda327-6f3e-4e83-8f22-28d4359b406a&projectId=5e631737-0fa4-44a6-b227-7ba1d7345015","1F026B3DA02E42E4B3914FD41B21D716-2025-05-27-20-25-49","","","","","","",""
"","","","","","instructions","1","288461","0.0-1.0","1F026B3DA02E42E4B3914FD41B21D716","1F026B3DA02E42E4B3914FD41B21D716","d4cda327-6f3e-4e83-8f22-28d4359b406a","5e631737-0fa4-44a6-b227-7ba1d7345015","{""num_scrambled_semantic"":""8"",""num_scrambled_causal"":""4"",""num_scrambled_schematic"":""4"",""participantId"":""1F026B3DA02E42E4B3914FD41B21D716"",""assignmentId"":""d4cda327-6f3e-4e83-8f22-28d4359b406a"",""projectId"":""5e631737-0fa4-44a6-b227-7ba1d7345015""}","https://test12345.live/?num_scrambled_semantic=8&num_scrambled_causal=4&num_scrambled_schematic=4&participantId=1F026B3DA02E42E4B3914FD41B21D716&assignmentId=d4cda327-6f3e-4e83-8f22-28d4359b406a&projectId=5e631737-0fa4-44a6-b227-7ba1d7345015","1F026B3DA02E42E4B3914FD41B21D716-2025-05-27-20-25-49","[{""page_index"":0,""viewing_time"":279620}]","279621","","","","",""
"","","","","","instructions","2","296244","0.0-2.0","1F026B3DA02E42E4B3914FD41B21D716","1F026B3DA02E42E4B3914FD41B21D716","d4cda327-6f3e-4e83-8f22-28d4359b406a","5e631737-0fa4-44a6-b227-7ba1d7345015","{""num_scrambled_semantic"":""8"",""num_scrambled_causal"":""4"",""num_scrambled_schematic"":""4"",""participantId"":""1F026B3DA02E42E4B3914FD41B21D716"",""assignmentId"":""d4cda327-6f3e-4e83-8f22-28d4359b406a"",""projectId"":""5e631737-0fa4-44a6-b227-7ba1d7345015""}","https://test12345.live/?num_scrambled_semantic=8&num_scrambled_causal=4&num_scrambled_schematic=4&participantId=1F026B3DA02E42E4B3914FD41B21D716&assignmentId=d4cda327-6f3e-4e83-8f22-28d4359b406a&projectId=5e631737-0fa4-44a6-b227-7ba1d7345015","1F026B3DA02E42E4B3914FD41B21D716-2025-05-27-20-25-49","[{""page_index"":0,""viewing_time"":7782}]","7782","","","","",""
"true","","","","","fullscreen","3","299041","0.0-3.0","1F026B3DA02E42E4B3914FD41B21D716","1F026B3DA02E42E4B3914FD41B21D716","d4cda327-6f3e-4e83-8f22-28d4359b406a","5e631737-0fa4-44a6-b227-7ba1d7345015","{""num_scrambled_semantic"":""8"",""num_scrambled_causal"":""4"",""num_scrambled_schematic"":""4"",""participantId"":""1F026B3DA02E42E4B3914FD41B21D716"",""assignmentId"":""d4cda327-6f3e-4e83-8f22-28d4359b406a"",""projectId"":""5e631737-0fa4-44a6-b227-7ba1d7345015""}","https://test12345.live/?num_scrambled_semantic=8&num_scrambled_causal=4&num_scrambled_schematic=4&participantId=1F026B3DA02E42E4B3914FD41B21D716&assignmentId=d4cda327-6f3e-4e83-8f22-28d4359b406a&projectId=5e631737-0fa4-44a6-b227-7ba1d7345015","1F026B3DA02E42E4B3914FD41B21D716-2025-05-27-20-25-49","","1793","","","","",""
"","","","","","initialize-microphone","4","303718","0.0-4.0-0.0","1F026B3DA02E42E4B3914FD41B21D716","1F026B3DA02E42E4B3914FD41B21D716","d4cda327-6f3e-4e83-8f22-28d4359b406a","5e631737-0fa4-44a6-b227-7ba1d7345015","{""num_scrambled_semantic"":""8"",""num_scrambled_causal"":""4"",""num_scrambled_schematic"":""4"",""participantId"":""1F026B3DA02E42E4B3914FD41B21D716"",""assignmentId"":""d4cda327-6f3e-4e83-8f22-28d4359b406a"",""projectId"":""5e631737-0fa4-44a6-b227-7ba1d7345015""}","https://test12345.live/?num_scrambled_semantic=8&num_scrambled_causal=4&num_scrambled_schematic=4&participantId=1F026B3DA02E42E4B3914FD41B21D716&assignmentId=d4cda327-6f3e-4e83-8f22-28d4359b406a&projectId=5e631737-0fa4-44a6-b227-7ba1d7345015","1F026B3DA02E42E4B3914FD41B21D716-2025-05-27-20-25-49","","","e8b9fcbf7418acb69eb18f546a0f774d2e5c4aea5db34970486f537328124617","","","",""
"","","","","","html-audio-response","5","315247","0.0-4.0-1.0","1F026B3DA02E42E4B3914FD41B21D716","1F026B3DA02E42E4B3914FD41B21D716","d4cda327-6f3e-4e83-8f22-28d4359b406a","5e631737-0fa4-44a6-b227-7ba1d7345015","{""num_scrambled_semantic"":""8"",""num_scrambled_causal"":""4"",""num_scrambled_schematic"":""4"",""participantId"":""1F026B3DA02E42E4B3914FD41B21D716"",""assignmentId"":""d4cda327-6f3e-4e83-8f22-28d4359b406a"",""projectId"":""5e631737-0fa4-44a6-b227-7ba1d7345015""}","https://test12345.live/?num_scrambled_semantic=8&num_scrambled_causal=4&num_scrambled_schematic=4&participantId=1F026B3DA02E42E4B3914FD41B21D716&assignmentId=d4cda327-6f3e-4e83-8f22-28d4359b406a&projectId=5e631737-0fa4-44a6-b227-7ba1d7345015","1F026B3DA02E42E4B3914FD41B21D716-2025-05-27-20-25-49","","1722","","<span style=""color: red; font-size: 24px""> NOW RECORDING</span>
        <p>Please test Microphone</p>","","1",""
"","","","","","html-button-response","6","316483","0.0-4.0-2.0","1F026B3DA02E42E4B3914FD41B21D716","1F026B3DA02E42E4B3914FD41B21D716","d4cda327-6f3e-4e83-8f22-28d4359b406a","5e631737-0fa4-44a6-b227-7ba1d7345015","{""num_scrambled_semantic"":""8"",""num_scrambled_causal"":""4"",""num_scrambled_schematic"":""4"",""participantId"":""1F026B3DA02E42E4B3914FD41B21D716"",""assignmentId"":""d4cda327-6f3e-4e83-8f22-28d4359b406a"",""projectId"":""5e631737-0fa4-44a6-b227-7ba1d7345015""}","https://test12345.live/?num_scrambled_semantic=8&num_scrambled_causal=4&num_scrambled_schematic=4&participantId=1F026B3DA02E42E4B3914FD41B21D716&assignmentId=d4cda327-6f3e-4e83-8f22-28d4359b406a&projectId=5e631737-0fa4-44a6-b227-7ba1d7345015","1F026B3DA02E42E4B3914FD41B21D716-2025-05-27-20-25-49","","1235","","<p style=""font-size:48px; color:red;"">Is Microphone OK?</p>","1","",""
"","","","","","instructions","7","322550","0.0-5.0","1F026B3DA02E42E4B3914FD41B21D716","1F026B3DA02E42E4B3914FD41B21D716","d4cda327-6f3e-4e83-8f22-28d4359b406a","5e631737-0fa4-44a6-b227-7ba1d7345015","{""num_scrambled_semantic"":""8"",""num_scrambled_causal"":""4"",""num_scrambled_schematic"":""4"",""participantId"":""1F026B3DA02E42E4B3914FD41B21D716"",""assignmentId"":""d4cda327-6f3e-4e83-8f22-28d4359b406a"",""projectId"":""5e631737-0fa4-44a6-b227-7ba1d7345015""}","https://test12345.live/?num_scrambled_semantic=8&num_scrambled_causal=4&num_scrambled_schematic=4&participantId=1F026B3DA02E42E4B3914FD41B21D716&assignmentId=d4cda327-6f3e-4e83-8f22-28d4359b406a&projectId=5e631737-0fa4-44a6-b227-7ba1d7345015","1F026B3DA02E42E4B3914FD41B21D716-2025-05-27-20-25-49","[{""page_index"":0,""viewing_time"":3247},{""page_index"":1,""viewing_time"":2818}]","6066","","","","",""
"","","","","","image-button-response","8","328558","0.0-6.0-0.0","1F026B3DA02E42E4B3914FD41B21D716","1F026B3DA02E42E4B3914FD41B21D716","d4cda327-6f3e-4e83-8f22-28d4359b406a","5e631737-0fa4-44a6-b227-7ba1d7345015","{""num_scrambled_semantic"":""8"",""num_scrambled_causal"":""4"",""num_scrambled_schematic"":""4"",""participantId"":""1F026B3DA02E42E4B3914FD41B21D716"",""assignmentId"":""d4cda327-6f3e-4e83-8f22-28d4359b406a"",""projectId"":""5e631737-0fa4-44a6-b227-7ba1d7345015""}","https://test12345.live/?num_scrambled_semantic=8&num_scrambled_causal=4&num_scrambled_schematic=4&participantId=1F026B3DA02E42E4B3914FD41B21D716&assignmentId=d4cda327-6f3e-4e83-8f22-28d4359b406a&projectId=5e631737-0fa4-44a6-b227-7ba1d7345015","1F026B3DA02E42E4B3914FD41B21D716-2025-05-27-20-25-49","","null","","images/instructions/movie_0.png","null","",""
"","","","","","image-button-response","9","333065","0.0-6.0-1.0-0.0","1F026B3DA02E42E4B3914FD41B21D716","1F026B3DA02E42E4B3914FD41B21D716","d4cda327-6f3e-4e83-8f22-28d4359b406a","5e631737-0fa4-44a6-b227-7ba1d7345015","{""num_scrambled_semantic"":""8"",""num_scrambled_causal"":""4"",""num_scrambled_schematic"":""4"",""participantId"":""1F026B3DA02E42E4B3914FD41B21D716"",""assignmentId"":""d4cda327-6f3e-4e83-8f22-28d4359b406a"",""projectId"":""5e631737-0fa4-44a6-b227-7ba1d7345015""}","https://test12345.live/?num_scrambled_semantic=8&num_scrambled_causal=4&num_scrambled_schematic=4&participantId=1F026B3DA02E42E4B3914FD41B21D716&assignmentId=d4cda327-6f3e-4e83-8f22-28d4359b406a&projectId=5e631737-0fa4-44a6-b227-7ba1d7345015","1F026B3DA02E42E4B3914FD41B21D716-2025-05-27-20-25-49","","null","","images/instructions/movie_1.png","null","",""
"","","","","","image-button-response","10","335847","0.0-6.0-1.0-1.0","1F026B3DA02E42E4B3914FD41B21D716","1F026B3DA02E42E4B3914FD41B21D716","d4cda327-6f3e-4e83-8f22-28d4359b406a","5e631737-0fa4-44a6-b227-7ba1d7345015","{""num_scrambled_semantic"":""8"",""num_scrambled_causal"":""4"",""num_scrambled_schematic"":""4"",""participantId"":""1F026B3DA02E42E4B3914FD41B21D716"",""assignmentId"":""d4cda327-6f3e-4e83-8f22-28d4359b406a"",""projectId"":""5e631737-0fa4-44a6-b227-7ba1d7345015""}","https://test12345.live/?num_scrambled_semantic=8&num_scrambled_causal=4&num_scrambled_schematic=4&participantId=1F026B3DA02E42E4B3914FD41B21D716&assignmentId=d4cda327-6f3e-4e83-8f22-28d4359b406a&projectId=5e631737-0fa4-44a6-b227-7ba1d7345015","1F026B3DA02E42E4B3914FD41B21D716-2025-05-27-20-25-49","","2779","","images/instructions/movie_1.png","0","",""
"","","","","","image-button-response","11","337650","0.0-6.0-1.0-2.0","1F026B3DA02E42E4B3914FD41B21D716","1F026B3DA02E42E4B3914FD41B21D716","d4cda327-6f3e-4e83-8f22-28d4359b406a","5e631737-0fa4-44a6-b227-7ba1d7345015","{""num_scrambled_semantic"":""8"",""num_scrambled_causal"":""4"",""num_scrambled_schematic"":""4"",""participantId"":""1F026B3DA02E42E4B3914FD41B21D716"",""assignmentId"":""d4cda327-6f3e-4e83-8f22-28d4359b406a"",""projectId"":""5e631737-0fa4-44a6-b227-7ba1d7345015""}","https://test12345.live/?num_scrambled_semantic=8&num_scrambled_causal=4&num_scrambled_schematic=4&participantId=1F026B3DA02E42E4B3914FD41B21D716&assignmentId=d4cda327-6f3e-4e83-8f22-28d4359b406a&projectId=5e631737-0fa4-44a6-b227-7ba1d7345015","1F026B3DA02E42E4B3914FD41B21D716-2025-05-27-20-25-49","","null","","[]","null","",""
"","","","","","image-button-response","12","342157","0.0-6.0-1.0-0.1","1F026B3DA02E42E4B3914FD41B21D716","1F026B3DA02E42E4B3914FD41B21D716","d4cda327-6f3e-4e83-8f22-28d4359b406a","5e631737-0fa4-44a6-b227-7ba1d7345015","{""num_scrambled_semantic"":""8"",""num_scrambled_causal"":""4"",""num_scrambled_schematic"":""4"",""participantId"":""1F026B3DA02E42E4B3914FD41B21D716"",""assignmentId"":""d4cda327-6f3e-4e83-8f22-28d4359b406a"",""projectId"":""5e631737-0fa4-44a6-b227-7ba1d7345015""}","https://test12345.live/?num_scrambled_semantic=8&num_scrambled_causal=4&num_scrambled_schematic=4&participantId=1F026B3DA02E42E4B3914FD41B21D716&assignmentId=d4cda327-6f3e-4e83-8f22-28d4359b406a&projectId=5e631737-0fa4-44a6-b227-7ba1d7345015","1F026B3DA02E42E4B3914FD41B21D716-2025-05-27-20-25-49","","null","","images/instructions/movie_2.png","null","",""
"","","","","","image-button-response","13","346158","0.0-6.0-1.0-1.1","1F026B3DA02E42E4B3914FD41B21D716","1F026B3DA02E42E4B3914FD41B21D716","d4cda327-6f3e-4e83-8f22-28d4359b406a","5e631737-0fa4-44a6-b227-7ba1d7345015","{""num_scrambled_semantic"":""8"",""num_scrambled_causal"":""4"",""num_scrambled_schematic"":""4"",""participantId"":""1F026B3DA02E42E4B3914FD41B21D716"",""assignmentId"":""d4cda327-6f3e-4e83-8f22-28d4359b406a"",""projectId"":""5e631737-0fa4-44a6-b227-7ba1d7345015""}","https://test12345.live/?num_scrambled_semantic=8&num_scrambled_causal=4&num_scrambled_schematic=4&participantId=1F026B3DA02E42E4B3914FD41B21D716&assignmentId=d4cda327-6f3e-4e83-8f22-28d4359b406a&projectId=5e631737-0fa4-44a6-b227-7ba1d7345015","1F026B3DA02E42E4B3914FD41B21D716-2025-05-27-20-25-49","","null","","images/instructions/movie_2.png","null","",""
"","","","","","image-button-response","14","347964","0.0-6.0-1.0-2.1","1F026B3DA02E42E4B3914FD41B21D716","1F026B3DA02E42E4B3914FD41B21D716","d4cda327-6f3e-4e83-8f22-28d4359b406a","5e631737-0fa4-44a6-b227-7ba1d7345015","{""num_scrambled_semantic"":""8"",""num_scrambled_causal"":""4"",""num_scrambled_schematic"":""4"",""participantId"":""1F026B3DA02E42E4B3914FD41B21D716"",""assignmentId"":""d4cda327-6f3e-4e83-8f22-28d4359b406a"",""projectId"":""5e631737-0fa4-44a6-b227-7ba1d7345015""}","https://test12345.live/?num_scrambled_semantic=8&num_scrambled_causal=4&num_scrambled_schematic=4&participantId=1F026B3DA02E42E4B3914FD41B21D716&assignmentId=d4cda327-6f3e-4e83-8f22-28d4359b406a&projectId=5e631737-0fa4-44a6-b227-7ba1d7345015","1F026B3DA02E42E4B3914FD41B21D716-2025-05-27-20-25-49","","null","","[]","null","",""
"","","","","","image-button-response","15","352468","0.0-6.0-1.0-0.2","1F026B3DA02E42E4B3914FD41B21D716","1F026B3DA02E42E4B3914FD41B21D716","d4cda327-6f3e-4e83-8f22-28d4359b406a","5e631737-0fa4-44a6-b227-7ba1d7345015","{""num_scrambled_semantic"":""8"",""num_scrambled_causal"":""4"",""num_scrambled_schematic"":""4"",""participantId"":""1F026B3DA02E42E4B3914FD41B21D716"",""assignmentId"":""d4cda327-6f3e-4e83-8f22-28d4359b406a"",""projectId"":""5e631737-0fa4-44a6-b227-7ba1d7345015""}","https://test12345.live/?num_scrambled_semantic=8&num_scrambled_causal=4&num_scrambled_schematic=4&participantId=1F026B3DA02E42E4B3914FD41B21D716&assignmentId=d4cda327-6f3e-4e83-8f22-28d4359b406a&projectId=5e631737-0fa4-44a6-b227-7ba1d7345015","1F026B3DA02E42E4B3914FD41B21D716-2025-05-27-20-25-49","","null","","images/instructions/movie_3.png","null","",""
"","","","","","image-button-response","16","353496","0.0-6.0-1.0-1.2","1F026B3DA02E42E4B3914FD41B21D716","1F026B3DA02E42E4B3914FD41B21D716","d4cda327-6f3e-4e83-8f22-28d4359b406a","5e631737-0fa4-44a6-b227-7ba1d7345015","{""num_scrambled_semantic"":""8"",""num_scrambled_causal"":""4"",""num_scrambled_schematic"":""4"",""participantId"":""1F026B3DA02E42E4B3914FD41B21D716"",""assignmentId"":""d4cda327-6f3e-4e83-8f22-28d4359b406a"",""projectId"":""5e631737-0fa4-44a6-b227-7ba1d7345015""}","https://test12345.live/?num_scrambled_semantic=8&num_scrambled_causal=4&num_scrambled_schematic=4&participantId=1F026B3DA02E42E4B3914FD41B21D716&assignmentId=d4cda327-6f3e-4e83-8f22-28d4359b406a&projectId=5e631737-0fa4-44a6-b227-7ba1d7345015","1F026B3DA02E42E4B3914FD41B21D716-2025-05-27-20-25-49","","1026","","images/instructions/movie_3.png","0","",""
"","","","","","image-button-response","17","355299","0.0-6.0-1.0-2.2","1F026B3DA02E42E4B3914FD41B21D716","1F026B3DA02E42E4B3914FD41B21D716","d4cda327-6f3e-4e83-8f22-28d4359b406a","5e631737-0fa4-44a6-b227-7ba1d7345015","{""num_scrambled_semantic"":""8"",""num_scrambled_causal"":""4"",""num_scrambled_schematic"":""4"",""participantId"":""1F026B3DA02E42E4B3914FD41B21D716"",""assignmentId"":""d4cda327-6f3e-4e83-8f22-28d4359b406a"",""projectId"":""5e631737-0fa4-44a6-b227-7ba1d7345015""}","https://test12345.live/?num_scrambled_semantic=8&num_scrambled_causal=4&num_scrambled_schematic=4&participantId=1F026B3DA02E42E4B3914FD41B21D716&assignmentId=d4cda327-6f3e-4e83-8f22-28d4359b406a&projectId=5e631737-0fa4-44a6-b227-7ba1d7345015","1F026B3DA02E42E4B3914FD41B21D716-2025-05-27-20-25-49","","null","","[]","null","",""
"","","","","","image-button-response","18","359805","0.0-6.0-1.0-0.3","1F026B3DA02E42E4B3914FD41B21D716","1F026B3DA02E42E4B3914FD41B21D716","d4cda327-6f3e-4e83-8f22-28d4359b406a","5e631737-0fa4-44a6-b227-7ba1d7345015","{""num_scrambled_semantic"":""8"",""num_scrambled_causal"":""4"",""num_scrambled_schematic"":""4"",""participantId"":""1F026B3DA02E42E4B3914FD41B21D716"",""assignmentId"":""d4cda327-6f3e-4e83-8f22-28d4359b406a"",""projectId"":""5e631737-0fa4-44a6-b227-7ba1d7345015""}","https://test12345.live/?num_scrambled_semantic=8&num_scrambled_causal=4&num_scrambled_schematic=4&participantId=1F026B3DA02E42E4B3914FD41B21D716&assignmentId=d4cda327-6f3e-4e83-8f22-28d4359b406a&projectId=5e631737-0fa4-44a6-b227-7ba1d7345015","1F026B3DA02E42E4B3914FD41B21D716-2025-05-27-20-25-49","","null","","images/instructions/movie_4.png","null","",""
"","","","","","image-button-response","19","360640","0.0-6.0-1.0-1.3","1F026B3DA02E42E4B3914FD41B21D716","1F026B3DA02E42E4B3914FD41B21D716","d4cda327-6f3e-4e83-8f22-28d4359b406a","5e631737-0fa4-44a6-b227-7ba1d7345015","{""num_scrambled_semantic"":""8"",""num_scrambled_causal"":""4"",""num_scrambled_schematic"":""4"",""participantId"":""1F026B3DA02E42E4B3914FD41B21D716"",""assignmentId"":""d4cda327-6f3e-4e83-8f22-28d4359b406a"",""projectId"":""5e631737-0fa4-44a6-b227-7ba1d7345015""}","https://test12345.live/?num_scrambled_semantic=8&num_scrambled_causal=4&num_scrambled_schematic=4&participantId=1F026B3DA02E42E4B3914FD41B21D716&assignmentId=d4cda327-6f3e-4e83-8f22-28d4359b406a&projectId=5e631737-0fa4-44a6-b227-7ba1d7345015","1F026B3DA02E42E4B3914FD41B21D716-2025-05-27-20-25-49","","833","","images/instructions/movie_4.png","0","",""
"","","","","","image-button-response","20","362447","0.0-6.0-1.0-2.3","1F026B3DA02E42E4B3914FD41B21D716","1F026B3DA02E42E4B3914FD41B21D716","d4cda327-6f3e-4e83-8f22-28d4359b406a","5e631737-0fa4-44a6-b227-7ba1d7345015","{""num_scrambled_semantic"":""8"",""num_scrambled_causal"":""4"",""num_scrambled_schematic"":""4"",""participantId"":""1F026B3DA02E42E4B3914FD41B21D716"",""assignmentId"":""d4cda327-6f3e-4e83-8f22-28d4359b406a"",""projectId"":""5e631737-0fa4-44a6-b227-7ba1d7345015""}","https://test12345.live/?num_scrambled_semantic=8&num_scrambled_causal=4&num_scrambled_schematic=4&participantId=1F026B3DA02E42E4B3914FD41B21D716&assignmentId=d4cda327-6f3e-4e83-8f22-28d4359b406a&projectId=5e631737-0fa4-44a6-b227-7ba1d7345015","1F026B3DA02E42E4B3914FD41B21D716-2025-05-27-20-25-49","","null","","[]","null","",""
"","","","","","instructions","21","368638","0.0-7.0","1F026B3DA02E42E4B3914FD41B21D716","1F026B3DA02E42E4B3914FD41B21D716","d4cda327-6f3e-4e83-8f22-28d4359b406a","5e631737-0fa4-44a6-b227-7ba1d7345015","{""num_scrambled_semantic"":""8"",""num_scrambled_causal"":""4"",""num_scrambled_schematic"":""4"",""participantId"":""1F026B3DA02E42E4B3914FD41B21D716"",""assignmentId"":""d4cda327-6f3e-4e83-8f22-28d4359b406a"",""projectId"":""5e631737-0fa4-44a6-b227-7ba1d7345015""}","https://test12345.live/?num_scrambled_semantic=8&num_scrambled_causal=4&num_scrambled_schematic=4&participantId=1F026B3DA02E42E4B3914FD41B21D716&assignmentId=d4cda327-6f3e-4e83-8f22-28d4359b406a&projectId=5e631737-0fa4-44a6-b227-7ba1d7345015","1F026B3DA02E42E4B3914FD41B21D716-2025-05-27-20-25-49","[{""page_index"":0,""viewing_time"":5175},{""page_index"":1,""viewing_time"":1015}]","6190","","","","",""
"","","","","","html-audio-response","22","389120","0.0-8.0","1F026B3DA02E42E4B3914FD41B21D716","1F026B3DA02E42E4B3914FD41B21D716","d4cda327-6f3e-4e83-8f22-28d4359b406a","5e631737-0fa4-44a6-b227-7ba1d7345015","{""num_scrambled_semantic"":""8"",""num_scrambled_causal"":""4"",""num_scrambled_schematic"":""4"",""participantId"":""1F026B3DA02E42E4B3914FD41B21D716"",""assignmentId"":""d4cda327-6f3e-4e83-8f22-28d4359b406a"",""projectId"":""5e631737-0fa4-44a6-b227-7ba1d7345015""}","https://test12345.live/?num_scrambled_semantic=8&num_scrambled_causal=4&num_scrambled_schematic=4&participantId=1F026B3DA02E42E4B3914FD41B21D716&assignmentId=d4cda327-6f3e-4e83-8f22-28d4359b406a&projectId=5e631737-0fa4-44a6-b227-7ba1d7345015","1F026B3DA02E42E4B3914FD41B21D716-2025-05-27-20-25-49","","15178","","[""<span style=\""color: red; font-size: 24px\""> NOW RECORDING</span><p>Please say out loud all the images you saw in the exact order you saw them. Try to recall as many images as you can, but remember: getting the order right is more important than the number of images you recall.</p>""]","","1",""
"","","","","","instructions","23","564060","0.0-9.0","1F026B3DA02E42E4B3914FD41B21D716","1F026B3DA02E42E4B3914FD41B21D716","d4cda327-6f3e-4e83-8f22-28d4359b406a","5e631737-0fa4-44a6-b227-7ba1d7345015","{""num_scrambled_semantic"":""8"",""num_scrambled_causal"":""4"",""num_scrambled_schematic"":""4"",""participantId"":""1F026B3DA02E42E4B3914FD41B21D716"",""assignmentId"":""d4cda327-6f3e-4e83-8f22-28d4359b406a"",""projectId"":""5e631737-0fa4-44a6-b227-7ba1d7345015""}","https://test12345.live/?num_scrambled_semantic=8&num_scrambled_causal=4&num_scrambled_schematic=4&participantId=1F026B3DA02E42E4B3914FD41B21D716&assignmentId=d4cda327-6f3e-4e83-8f22-28d4359b406a&projectId=5e631737-0fa4-44a6-b227-7ba1d7345015","1F026B3DA02E42E4B3914FD41B21D716-2025-05-27-20-25-49","[{""page_index"":0,""viewing_time"":174936}]","174936","","","","",""
"","","","","","image-button-response","24","570066","0.0-10.0-0.0","1F026B3DA02E42E4B3914FD41B21D716","1F026B3DA02E42E4B3914FD41B21D716","d4cda327-6f3e-4e83-8f22-28d4359b406a","5e631737-0fa4-44a6-b227-7ba1d7345015","{""num_scrambled_semantic"":""8"",""num_scrambled_causal"":""4"",""num_scrambled_schematic"":""4"",""participantId"":""1F026B3DA02E42E4B3914FD41B21D716"",""assignmentId"":""d4cda327-6f3e-4e83-8f22-28d4359b406a"",""projectId"":""5e631737-0fa4-44a6-b227-7ba1d7345015""}","https://test12345.live/?num_scrambled_semantic=8&num_scrambled_causal=4&num_scrambled_schematic=4&participantId=1F026B3DA02E42E4B3914FD41B21D716&assignmentId=d4cda327-6f3e-4e83-8f22-28d4359b406a&projectId=5e631737-0fa4-44a6-b227-7ba1d7345015","1F026B3DA02E42E4B3914FD41B21D716-2025-05-27-20-25-49","","null","","images/schematic_sequence/dinner_party_scheme/dinner_party_scheme_0.png","null","",""
"","","","","","image-button-response","25","574569","0.0-10.0-1.0-0.0","1F026B3DA02E42E4B3914FD41B21D716","1F026B3DA02E42E4B3914FD41B21D716","d4cda327-6f3e-4e83-8f22-28d4359b406a","5e631737-0fa4-44a6-b227-7ba1d7345015","{""num_scrambled_semantic"":""8"",""num_scrambled_causal"":""4"",""num_scrambled_schematic"":""4"",""participantId"":""1F026B3DA02E42E4B3914FD41B21D716"",""assignmentId"":""d4cda327-6f3e-4e83-8f22-28d4359b406a"",""projectId"":""5e631737-0fa4-44a6-b227-7ba1d7345015""}","https://test12345.live/?num_scrambled_semantic=8&num_scrambled_causal=4&num_scrambled_schematic=4&participantId=1F026B3DA02E42E4B3914FD41B21D716&assignmentId=d4cda327-6f3e-4e83-8f22-28d4359b406a&projectId=5e631737-0fa4-44a6-b227-7ba1d7345015","1F026B3DA02E42E4B3914FD41B21D716-2025-05-27-20-25-49","","null","","images/schematic_sequence/dinner_party_scheme/dinner_party_scheme_1.png","null","",""
"","","","","","image-button-response","26","575983","0.0-10.0-1.0-1.0","1F026B3DA02E42E4B3914FD41B21D716","1F026B3DA02E42E4B3914FD41B21D716","d4cda327-6f3e-4e83-8f22-28d4359b406a","5e631737-0fa4-44a6-b227-7ba1d7345015","{""num_scrambled_semantic"":""8"",""num_scrambled_causal"":""4"",""num_scrambled_schematic"":""4"",""participantId"":""1F026B3DA02E42E4B3914FD41B21D716"",""assignmentId"":""d4cda327-6f3e-4e83-8f22-28d4359b406a"",""projectId"":""5e631737-0fa4-44a6-b227-7ba1d7345015""}","https://test12345.live/?num_scrambled_semantic=8&num_scrambled_causal=4&num_scrambled_schematic=4&participantId=1F026B3DA02E42E4B3914FD41B21D716&assignmentId=d4cda327-6f3e-4e83-8f22-28d4359b406a&projectId=5e631737-0fa4-44a6-b227-7ba1d7345015","1F026B3DA02E42E4B3914FD41B21D716-2025-05-27-20-25-49","","1413","","images/schematic_sequence/dinner_party_scheme/dinner_party_scheme_1.png","0","",""
"","","","","","image-button-response","27","577788","0.0-10.0-1.0-2.0","1F026B3DA02E42E4B3914FD41B21D716","1F026B3DA02E42E4B3914FD41B21D716","d4cda327-6f3e-4e83-8f22-28d4359b406a","5e631737-0fa4-44a6-b227-7ba1d7345015","{""num_scrambled_semantic"":""8"",""num_scrambled_causal"":""4"",""num_scrambled_schematic"":""4"",""participantId"":""1F026B3DA02E42E4B3914FD41B21D716"",""assignmentId"":""d4cda327-6f3e-4e83-8f22-28d4359b406a"",""projectId"":""5e631737-0fa4-44a6-b227-7ba1d7345015""}","https://test12345.live/?num_scrambled_semantic=8&num_scrambled_causal=4&num_scrambled_schematic=4&participantId=1F026B3DA02E42E4B3914FD41B21D716&assignmentId=d4cda327-6f3e-4e83-8f22-28d4359b406a&projectId=5e631737-0fa4-44a6-b227-7ba1d7345015","1F026B3DA02E42E4B3914FD41B21D716-2025-05-27-20-25-49","","null","","[]","null","",""
"","","","","","image-button-response","28","582295","0.0-10.0-1.0-0.1","1F026B3DA02E42E4B3914FD41B21D716","1F026B3DA02E42E4B3914FD41B21D716","d4cda327-6f3e-4e83-8f22-28d4359b406a","5e631737-0fa4-44a6-b227-7ba1d7345015","{""num_scrambled_semantic"":""8"",""num_scrambled_causal"":""4"",""num_scrambled_schematic"":""4"",""participantId"":""1F026B3DA02E42E4B3914FD41B21D716"",""assignmentId"":""d4cda327-6f3e-4e83-8f22-28d4359b406a"",""projectId"":""5e631737-0fa4-44a6-b227-7ba1d7345015""}","https://test12345.live/?num_scrambled_semantic=8&num_scrambled_causal=4&num_scrambled_schematic=4&participantId=1F026B3DA02E42E4B3914FD41B21D716&assignmentId=d4cda327-6f3e-4e83-8f22-28d4359b406a&projectId=5e631737-0fa4-44a6-b227-7ba1d7345015","1F026B3DA02E42E4B3914FD41B21D716-2025-05-27-20-25-49","","null","","images/schematic_sequence/dinner_party_scheme/dinner_party_scheme_2.png","null","",""
"","","","","","image-button-response","29","582981","0.0-10.0-1.0-1.1","1F026B3DA02E42E4B3914FD41B21D716","1F026B3DA02E42E4B3914FD41B21D716","d4cda327-6f3e-4e83-8f22-28d4359b406a","5e631737-0fa4-44a6-b227-7ba1d7345015","{""num_scrambled_semantic"":""8"",""num_scrambled_causal"":""4"",""num_scrambled_schematic"":""4"",""participantId"":""1F026B3DA02E42E4B3914FD41B21D716"",""assignmentId"":""d4cda327-6f3e-4e83-8f22-28d4359b406a"",""projectId"":""5e631737-0fa4-44a6-b227-7ba1d7345015""}","https://test12345.live/?num_scrambled_semantic=8&num_scrambled_causal=4&num_scrambled_schematic=4&participantId=1F026B3DA02E42E4B3914FD41B21D716&assignmentId=d4cda327-6f3e-4e83-8f22-28d4359b406a&projectId=5e631737-0fa4-44a6-b227-7ba1d7345015","1F026B3DA02E42E4B3914FD41B21D716-2025-05-27-20-25-49","","684","","images/schematic_sequence/dinner_party_scheme/dinner_party_scheme_2.png","0","",""
"","","","","","image-button-response","30","584785","0.0-10.0-1.0-2.1","1F026B3DA02E42E4B3914FD41B21D716","1F026B3DA02E42E4B3914FD41B21D716","d4cda327-6f3e-4e83-8f22-28d4359b406a","5e631737-0fa4-44a6-b227-7ba1d7345015","{""num_scrambled_semantic"":""8"",""num_scrambled_causal"":""4"",""num_scrambled_schematic"":""4"",""participantId"":""1F026B3DA02E42E4B3914FD41B21D716"",""assignmentId"":""d4cda327-6f3e-4e83-8f22-28d4359b406a"",""projectId"":""5e631737-0fa4-44a6-b227-7ba1d7345015""}","https://test12345.live/?num_scrambled_semantic=8&num_scrambled_causal=4&num_scrambled_schematic=4&participantId=1F026B3DA02E42E4B3914FD41B21D716&assignmentId=d4cda327-6f3e-4e83-8f22-28d4359b406a&projectId=5e631737-0fa4-44a6-b227-7ba1d7345015","1F026B3DA02E42E4B3914FD41B21D716-2025-05-27-20-25-49","","null","","[]","null","",""
"","","","","","image-button-response","31","589289","0.0-10.0-1.0-0.2","1F026B3DA02E42E4B3914FD41B21D716","1F026B3DA02E42E4B3914FD41B21D716","d4cda327-6f3e-4e83-8f22-28d4359b406a","5e631737-0fa4-44a6-b227-7ba1d7345015","{""num_scrambled_semantic"":""8"",""num_scrambled_causal"":""4"",""num_scrambled_schematic"":""4"",""participantId"":""1F026B3DA02E42E4B3914FD41B21D716"",""assignmentId"":""d4cda327-6f3e-4e83-8f22-28d4359b406a"",""projectId"":""5e631737-0fa4-44a6-b227-7ba1d7345015""}","https://test12345.live/?num_scrambled_semantic=8&num_scrambled_causal=4&num_scrambled_schematic=4&participantId=1F026B3DA02E42E4B3914FD41B21D716&assignmentId=d4cda327-6f3e-4e83-8f22-28d4359b406a&projectId=5e631737-0fa4-44a6-b227-7ba1d7345015","1F026B3DA02E42E4B3914FD41B21D716-2025-05-27-20-25-49","","null","","images/schematic_sequence/dinner_party_scheme/dinner_party_scheme_3.png","null","",""
"","","","","","image-button-response","32","590198","0.0-10.0-1.0-1.2","1F026B3DA02E42E4B3914FD41B21D716","1F026B3DA02E42E4B3914FD41B21D716","d4cda327-6f3e-4e83-8f22-28d4359b406a","5e631737-0fa4-44a6-b227-7ba1d7345015","{""num_scrambled_semantic"":""8"",""num_scrambled_causal"":""4"",""num_scrambled_schematic"":""4"",""participantId"":""1F026B3DA02E42E4B3914FD41B21D716"",""assignmentId"":""d4cda327-6f3e-4e83-8f22-28d4359b406a"",""projectId"":""5e631737-0fa4-44a6-b227-7ba1d7345015""}","https://test12345.live/?num_scrambled_semantic=8&num_scrambled_causal=4&num_scrambled_schematic=4&participantId=1F026B3DA02E42E4B3914FD41B21D716&assignmentId=d4cda327-6f3e-4e83-8f22-28d4359b406a&projectId=5e631737-0fa4-44a6-b227-7ba1d7345015","1F026B3DA02E42E4B3914FD41B21D716-2025-05-27-20-25-49","","907","","images/schematic_sequence/dinner_party_scheme/dinner_party_scheme_3.png","0","",""
"","","","","","image-button-response","33","592002","0.0-10.0-1.0-2.2","1F026B3DA02E42E4B3914FD41B21D716","1F026B3DA02E42E4B3914FD41B21D716","d4cda327-6f3e-4e83-8f22-28d4359b406a","5e631737-0fa4-44a6-b227-7ba1d7345015","{""num_scrambled_semantic"":""8"",""num_scrambled_causal"":""4"",""num_scrambled_schematic"":""4"",""participantId"":""1F026B3DA02E42E4B3914FD41B21D716"",""assignmentId"":""d4cda327-6f3e-4e83-8f22-28d4359b406a"",""projectId"":""5e631737-0fa4-44a6-b227-7ba1d7345015""}","https://test12345.live/?num_scrambled_semantic=8&num_scrambled_causal=4&num_scrambled_schematic=4&participantId=1F026B3DA02E42E4B3914FD41B21D716&assignmentId=d4cda327-6f3e-4e83-8f22-28d4359b406a&projectId=5e631737-0fa4-44a6-b227-7ba1d7345015","1F026B3DA02E42E4B3914FD41B21D716-2025-05-27-20-25-49","","null","","[]","null","",""
"","","","","","image-button-response","34","596504","0.0-10.0-1.0-0.3","1F026B3DA02E42E4B3914FD41B21D716","1F026B3DA02E42E4B3914FD41B21D716","d4cda327-6f3e-4e83-8f22-28d4359b406a","5e631737-0fa4-44a6-b227-7ba1d7345015","{""num_scrambled_semantic"":""8"",""num_scrambled_causal"":""4"",""num_scrambled_schematic"":""4"",""participantId"":""1F026B3DA02E42E4B3914FD41B21D716"",""assignmentId"":""d4cda327-6f3e-4e83-8f22-28d4359b406a"",""projectId"":""5e631737-0fa4-44a6-b227-7ba1d7345015""}","https://test12345.live/?num_scrambled_semantic=8&num_scrambled_causal=4&num_scrambled_schematic=4&participantId=1F026B3DA02E42E4B3914FD41B21D716&assignmentId=d4cda327-6f3e-4e83-8f22-28d4359b406a&projectId=5e631737-0fa4-44a6-b227-7ba1d7345015","1F026B3DA02E42E4B3914FD41B21D716-2025-05-27-20-25-49","","null","","images/schematic_sequence/dinner_party_scheme/dinner_party_scheme_4.png","null","",""
"","","","","","image-button-response","35","596983","0.0-10.0-1.0-1.3","1F026B3DA02E42E4B3914FD41B21D716","1F026B3DA02E42E4B3914FD41B21D716","d4cda327-6f3e-4e83-8f22-28d4359b406a","5e631737-0fa4-44a6-b227-7ba1d7345015","{""num_scrambled_semantic"":""8"",""num_scrambled_causal"":""4"",""num_scrambled_schematic"":""4"",""participantId"":""1F026B3DA02E42E4B3914FD41B21D716"",""assignmentId"":""d4cda327-6f3e-4e83-8f22-28d4359b406a"",""projectId"":""5e631737-0fa4-44a6-b227-7ba1d7345015""}","https://test12345.live/?num_scrambled_semantic=8&num_scrambled_causal=4&num_scrambled_schematic=4&participantId=1F026B3DA02E42E4B3914FD41B21D716&assignmentId=d4cda327-6f3e-4e83-8f22-28d4359b406a&projectId=5e631737-0fa4-44a6-b227-7ba1d7345015","1F026B3DA02E42E4B3914FD41B21D716-2025-05-27-20-25-49","","477","","images/schematic_sequence/dinner_party_scheme/dinner_party_scheme_4.png","0","",""
"","","","","","image-button-response","36","598788","0.0-10.0-1.0-2.3","1F026B3DA02E42E4B3914FD41B21D716","1F026B3DA02E42E4B3914FD41B21D716","d4cda327-6f3e-4e83-8f22-28d4359b406a","5e631737-0fa4-44a6-b227-7ba1d7345015","{""num_scrambled_semantic"":""8"",""num_scrambled_causal"":""4"",""num_scrambled_schematic"":""4"",""participantId"":""1F026B3DA02E42E4B3914FD41B21D716"",""assignmentId"":""d4cda327-6f3e-4e83-8f22-28d4359b406a"",""projectId"":""5e631737-0fa4-44a6-b227-7ba1d7345015""}","https://test12345.live/?num_scrambled_semantic=8&num_scrambled_causal=4&num_scrambled_schematic=4&participantId=1F026B3DA02E42E4B3914FD41B21D716&assignmentId=d4cda327-6f3e-4e83-8f22-28d4359b406a&projectId=5e631737-0fa4-44a6-b227-7ba1d7345015","1F026B3DA02E42E4B3914FD41B21D716-2025-05-27-20-25-49","","null","","[]","null","",""
"","","","","","image-button-response","37","603294","0.0-10.0-1.0-0.4","1F026B3DA02E42E4B3914FD41B21D716","1F026B3DA02E42E4B3914FD41B21D716","d4cda327-6f3e-4e83-8f22-28d4359b406a","5e631737-0fa4-44a6-b227-7ba1d7345015","{""num_scrambled_semantic"":""8"",""num_scrambled_causal"":""4"",""num_scrambled_schematic"":""4"",""participantId"":""1F026B3DA02E42E4B3914FD41B21D716"",""assignmentId"":""d4cda327-6f3e-4e83-8f22-28d4359b406a"",""projectId"":""5e631737-0fa4-44a6-b227-7ba1d7345015""}","https://test12345.live/?num_scrambled_semantic=8&num_scrambled_causal=4&num_scrambled_schematic=4&participantId=1F026B3DA02E42E4B3914FD41B21D716&assignmentId=d4cda327-6f3e-4e83-8f22-28d4359b406a&projectId=5e631737-0fa4-44a6-b227-7ba1d7345015","1F026B3DA02E42E4B3914FD41B21D716-2025-05-27-20-25-49","","null","","images/schematic_sequence/dinner_party_scheme/dinner_party_scheme_5.png","null","",""
"","","","","","image-button-response","38","603952","0.0-10.0-1.0-1.4","1F026B3DA02E42E4B3914FD41B21D716","1F026B3DA02E42E4B3914FD41B21D716","d4cda327-6f3e-4e83-8f22-28d4359b406a","5e631737-0fa4-44a6-b227-7ba1d7345015","{""num_scrambled_semantic"":""8"",""num_scrambled_causal"":""4"",""num_scrambled_schematic"":""4"",""participantId"":""1F026B3DA02E42E4B3914FD41B21D716"",""assignmentId"":""d4cda327-6f3e-4e83-8f22-28d4359b406a"",""projectId"":""5e631737-0fa4-44a6-b227-7ba1d7345015""}","https://test12345.live/?num_scrambled_semantic=8&num_scrambled_causal=4&num_scrambled_schematic=4&participantId=1F026B3DA02E42E4B3914FD41B21D716&assignmentId=d4cda327-6f3e-4e83-8f22-28d4359b406a&projectId=5e631737-0fa4-44a6-b227-7ba1d7345015","1F026B3DA02E42E4B3914FD41B21D716-2025-05-27-20-25-49","","656","","images/schematic_sequence/dinner_party_scheme/dinner_party_scheme_5.png","0","",""
"","","","","","image-button-response","39","605759","0.0-10.0-1.0-2.4","1F026B3DA02E42E4B3914FD41B21D716","1F026B3DA02E42E4B3914FD41B21D716","d4cda327-6f3e-4e83-8f22-28d4359b406a","5e631737-0fa4-44a6-b227-7ba1d7345015","{""num_scrambled_semantic"":""8"",""num_scrambled_causal"":""4"",""num_scrambled_schematic"":""4"",""participantId"":""1F026B3DA02E42E4B3914FD41B21D716"",""assignmentId"":""d4cda327-6f3e-4e83-8f22-28d4359b406a"",""projectId"":""5e631737-0fa4-44a6-b227-7ba1d7345015""}","https://test12345.live/?num_scrambled_semantic=8&num_scrambled_causal=4&num_scrambled_schematic=4&participantId=1F026B3DA02E42E4B3914FD41B21D716&assignmentId=d4cda327-6f3e-4e83-8f22-28d4359b406a&projectId=5e631737-0fa4-44a6-b227-7ba1d7345015","1F026B3DA02E42E4B3914FD41B21D716-2025-05-27-20-25-49","","null","","[]","null","",""
"","","","","","image-button-response","40","610265","0.0-10.0-1.0-0.5","1F026B3DA02E42E4B3914FD41B21D716","1F026B3DA02E42E4B3914FD41B21D716","d4cda327-6f3e-4e83-8f22-28d4359b406a","5e631737-0fa4-44a6-b227-7ba1d7345015","{""num_scrambled_semantic"":""8"",""num_scrambled_causal"":""4"",""num_scrambled_schematic"":""4"",""participantId"":""1F026B3DA02E42E4B3914FD41B21D716"",""assignmentId"":""d4cda327-6f3e-4e83-8f22-28d4359b406a"",""projectId"":""5e631737-0fa4-44a6-b227-7ba1d7345015""}","https://test12345.live/?num_scrambled_semantic=8&num_scrambled_causal=4&num_scrambled_schematic=4&participantId=1F026B3DA02E42E4B3914FD41B21D716&assignmentId=d4cda327-6f3e-4e83-8f22-28d4359b406a&projectId=5e631737-0fa4-44a6-b227-7ba1d7345015","1F026B3DA02E42E4B3914FD41B21D716-2025-05-27-20-25-49","","null","","images/schematic_sequence/dinner_party_scheme/dinner_party_scheme_6.png","null","",""
"","","","","","image-button-response","41","610769","0.0-10.0-1.0-1.5","1F026B3DA02E42E4B3914FD41B21D716","1F026B3DA02E42E4B3914FD41B21D716","d4cda327-6f3e-4e83-8f22-28d4359b406a","5e631737-0fa4-44a6-b227-7ba1d7345015","{""num_scrambled_semantic"":""8"",""num_scrambled_causal"":""4"",""num_scrambled_schematic"":""4"",""participantId"":""1F026B3DA02E42E4B3914FD41B21D716"",""assignmentId"":""d4cda327-6f3e-4e83-8f22-28d4359b406a"",""projectId"":""5e631737-0fa4-44a6-b227-7ba1d7345015""}","https://test12345.live/?num_scrambled_semantic=8&num_scrambled_causal=4&num_scrambled_schematic=4&participantId=1F026B3DA02E42E4B3914FD41B21D716&assignmentId=d4cda327-6f3e-4e83-8f22-28d4359b406a&projectId=5e631737-0fa4-44a6-b227-7ba1d7345015","1F026B3DA02E42E4B3914FD41B21D716-2025-05-27-20-25-49","","502","","images/schematic_sequence/dinner_party_scheme/dinner_party_scheme_6.png","0","",""
"","","","","","image-button-response","42","612575","0.0-10.0-1.0-2.5","1F026B3DA02E42E4B3914FD41B21D716","1F026B3DA02E42E4B3914FD41B21D716","d4cda327-6f3e-4e83-8f22-28d4359b406a","5e631737-0fa4-44a6-b227-7ba1d7345015","{""num_scrambled_semantic"":""8"",""num_scrambled_causal"":""4"",""num_scrambled_schematic"":""4"",""participantId"":""1F026B3DA02E42E4B3914FD41B21D716"",""assignmentId"":""d4cda327-6f3e-4e83-8f22-28d4359b406a"",""projectId"":""5e631737-0fa4-44a6-b227-7ba1d7345015""}","https://test12345.live/?num_scrambled_semantic=8&num_scrambled_causal=4&num_scrambled_schematic=4&participantId=1F026B3DA02E42E4B3914FD41B21D716&assignmentId=d4cda327-6f3e-4e83-8f22-28d4359b406a&projectId=5e631737-0fa4-44a6-b227-7ba1d7345015","1F026B3DA02E42E4B3914FD41B21D716-2025-05-27-20-25-49","","null","","[]","null","",""
"","","","","","image-button-response","43","617080","0.0-10.0-1.0-0.6","1F026B3DA02E42E4B3914FD41B21D716","1F026B3DA02E42E4B3914FD41B21D716","d4cda327-6f3e-4e83-8f22-28d4359b406a","5e631737-0fa4-44a6-b227-7ba1d7345015","{""num_scrambled_semantic"":""8"",""num_scrambled_causal"":""4"",""num_scrambled_schematic"":""4"",""participantId"":""1F026B3DA02E42E4B3914FD41B21D716"",""assignmentId"":""d4cda327-6f3e-4e83-8f22-28d4359b406a"",""projectId"":""5e631737-0fa4-44a6-b227-7ba1d7345015""}","https://test12345.live/?num_scrambled_semantic=8&num_scrambled_causal=4&num_scrambled_schematic=4&participantId=1F026B3DA02E42E4B3914FD41B21D716&assignmentId=d4cda327-6f3e-4e83-8f22-28d4359b406a&projectId=5e631737-0fa4-44a6-b227-7ba1d7345015","1F026B3DA02E42E4B3914FD41B21D716-2025-05-27-20-25-49","","null","","images/schematic_sequence/dinner_party_scheme/dinner_party_scheme_7.png","null","",""
"","","","","","image-button-response","44","617654","0.0-10.0-1.0-1.6","1F026B3DA02E42E4B3914FD41B21D716","1F026B3DA02E42E4B3914FD41B21D716","d4cda327-6f3e-4e83-8f22-28d4359b406a","5e631737-0fa4-44a6-b227-7ba1d7345015","{""num_scrambled_semantic"":""8"",""num_scrambled_causal"":""4"",""num_scrambled_schematic"":""4"",""participantId"":""1F026B3DA02E42E4B3914FD41B21D716"",""assignmentId"":""d4cda327-6f3e-4e83-8f22-28d4359b406a"",""projectId"":""5e631737-0fa4-44a6-b227-7ba1d7345015""}","https://test12345.live/?num_scrambled_semantic=8&num_scrambled_causal=4&num_scrambled_schematic=4&participantId=1F026B3DA02E42E4B3914FD41B21D716&assignmentId=d4cda327-6f3e-4e83-8f22-28d4359b406a&projectId=5e631737-0fa4-44a6-b227-7ba1d7345015","1F026B3DA02E42E4B3914FD41B21D716-2025-05-27-20-25-49","","572","","images/schematic_sequence/dinner_party_scheme/dinner_party_scheme_7.png","0","",""
"","","","","","image-button-response","45","619458","0.0-10.0-1.0-2.6","1F026B3DA02E42E4B3914FD41B21D716","1F026B3DA02E42E4B3914FD41B21D716","d4cda327-6f3e-4e83-8f22-28d4359b406a","5e631737-0fa4-44a6-b227-7ba1d7345015","{""num_scrambled_semantic"":""8"",""num_scrambled_causal"":""4"",""num_scrambled_schematic"":""4"",""participantId"":""1F026B3DA02E42E4B3914FD41B21D716"",""assignmentId"":""d4cda327-6f3e-4e83-8f22-28d4359b406a"",""projectId"":""5e631737-0fa4-44a6-b227-7ba1d7345015""}","https://test12345.live/?num_scrambled_semantic=8&num_scrambled_causal=4&num_scrambled_schematic=4&participantId=1F026B3DA02E42E4B3914FD41B21D716&assignmentId=d4cda327-6f3e-4e83-8f22-28d4359b406a&projectId=5e631737-0fa4-44a6-b227-7ba1d7345015","1F026B3DA02E42E4B3914FD41B21D716-2025-05-27-20-25-49","","null","","[]","null","",""
"","","","","","image-button-response","46","623965","0.0-10.0-1.0-0.7","1F026B3DA02E42E4B3914FD41B21D716","1F026B3DA02E42E4B3914FD41B21D716","d4cda327-6f3e-4e83-8f22-28d4359b406a","5e631737-0fa4-44a6-b227-7ba1d7345015","{""num_scrambled_semantic"":""8"",""num_scrambled_causal"":""4"",""num_scrambled_schematic"":""4"",""participantId"":""1F026B3DA02E42E4B3914FD41B21D716"",""assignmentId"":""d4cda327-6f3e-4e83-8f22-28d4359b406a"",""projectId"":""5e631737-0fa4-44a6-b227-7ba1d7345015""}","https://test12345.live/?num_scrambled_semantic=8&num_scrambled_causal=4&num_scrambled_schematic=4&participantId=1F026B3DA02E42E4B3914FD41B21D716&assignmentId=d4cda327-6f3e-4e83-8f22-28d4359b406a&projectId=5e631737-0fa4-44a6-b227-7ba1d7345015","1F026B3DA02E42E4B3914FD41B21D716-2025-05-27-20-25-49","","null","","images/schematic_sequence/dinner_party_scheme/dinner_party_scheme_8.png","null","",""
"","","","","","image-button-response","47","624441","0.0-10.0-1.0-1.7","1F026B3DA02E42E4B3914FD41B21D716","1F026B3DA02E42E4B3914FD41B21D716","d4cda327-6f3e-4e83-8f22-28d4359b406a","5e631737-0fa4-44a6-b227-7ba1d7345015","{""num_scrambled_semantic"":""8"",""num_scrambled_causal"":""4"",""num_scrambled_schematic"":""4"",""participantId"":""1F026B3DA02E42E4B3914FD41B21D716"",""assignmentId"":""d4cda327-6f3e-4e83-8f22-28d4359b406a"",""projectId"":""5e631737-0fa4-44a6-b227-7ba1d7345015""}","https://test12345.live/?num_scrambled_semantic=8&num_scrambled_causal=4&num_scrambled_schematic=4&participantId=1F026B3DA02E42E4B3914FD41B21D716&assignmentId=d4cda327-6f3e-4e83-8f22-28d4359b406a&projectId=5e631737-0fa4-44a6-b227-7ba1d7345015","1F026B3DA02E42E4B3914FD41B21D716-2025-05-27-20-25-49","","474","","images/schematic_sequence/dinner_party_scheme/dinner_party_scheme_8.png","0","",""
"","","","","","image-button-response","48","626247","0.0-10.0-1.0-2.7","1F026B3DA02E42E4B3914FD41B21D716","1F026B3DA02E42E4B3914FD41B21D716","d4cda327-6f3e-4e83-8f22-28d4359b406a","5e631737-0fa4-44a6-b227-7ba1d7345015","{""num_scrambled_semantic"":""8"",""num_scrambled_causal"":""4"",""num_scrambled_schematic"":""4"",""participantId"":""1F026B3DA02E42E4B3914FD41B21D716"",""assignmentId"":""d4cda327-6f3e-4e83-8f22-28d4359b406a"",""projectId"":""5e631737-0fa4-44a6-b227-7ba1d7345015""}","https://test12345.live/?num_scrambled_semantic=8&num_scrambled_causal=4&num_scrambled_schematic=4&participantId=1F026B3DA02E42E4B3914FD41B21D716&assignmentId=d4cda327-6f3e-4e83-8f22-28d4359b406a&projectId=5e631737-0fa4-44a6-b227-7ba1d7345015","1F026B3DA02E42E4B3914FD41B21D716-2025-05-27-20-25-49","","null","","[]","null","",""
"","","","","","image-button-response","49","630755","0.0-10.0-1.0-0.8","1F026B3DA02E42E4B3914FD41B21D716","1F026B3DA02E42E4B3914FD41B21D716","d4cda327-6f3e-4e83-8f22-28d4359b406a","5e631737-0fa4-44a6-b227-7ba1d7345015","{""num_scrambled_semantic"":""8"",""num_scrambled_causal"":""4"",""num_scrambled_schematic"":""4"",""participantId"":""1F026B3DA02E42E4B3914FD41B21D716"",""assignmentId"":""d4cda327-6f3e-4e83-8f22-28d4359b406a"",""projectId"":""5e631737-0fa4-44a6-b227-7ba1d7345015""}","https://test12345.live/?num_scrambled_semantic=8&num_scrambled_causal=4&num_scrambled_schematic=4&participantId=1F026B3DA02E42E4B3914FD41B21D716&assignmentId=d4cda327-6f3e-4e83-8f22-28d4359b406a&projectId=5e631737-0fa4-44a6-b227-7ba1d7345015","1F026B3DA02E42E4B3914FD41B21D716-2025-05-27-20-25-49","","null","","images/schematic_sequence/dinner_party_scheme/dinner_party_scheme_9.png","null","",""
"","","","","","image-button-response","50","631319","0.0-10.0-1.0-1.8","1F026B3DA02E42E4B3914FD41B21D716","1F026B3DA02E42E4B3914FD41B21D716","d4cda327-6f3e-4e83-8f22-28d4359b406a","5e631737-0fa4-44a6-b227-7ba1d7345015","{""num_scrambled_semantic"":""8"",""num_scrambled_causal"":""4"",""num_scrambled_schematic"":""4"",""participantId"":""1F026B3DA02E42E4B3914FD41B21D716"",""assignmentId"":""d4cda327-6f3e-4e83-8f22-28d4359b406a"",""projectId"":""5e631737-0fa4-44a6-b227-7ba1d7345015""}","https://test12345.live/?num_scrambled_semantic=8&num_scrambled_causal=4&num_scrambled_schematic=4&participantId=1F026B3DA02E42E4B3914FD41B21D716&assignmentId=d4cda327-6f3e-4e83-8f22-28d4359b406a&projectId=5e631737-0fa4-44a6-b227-7ba1d7345015","1F026B3DA02E42E4B3914FD41B21D716-2025-05-27-20-25-49","","562","","images/schematic_sequence/dinner_party_scheme/dinner_party_scheme_9.png","0","",""
"","","","","","image-button-response","51","633126","0.0-10.0-1.0-2.8","1F026B3DA02E42E4B3914FD41B21D716","1F026B3DA02E42E4B3914FD41B21D716","d4cda327-6f3e-4e83-8f22-28d4359b406a","5e631737-0fa4-44a6-b227-7ba1d7345015","{""num_scrambled_semantic"":""8"",""num_scrambled_causal"":""4"",""num_scrambled_schematic"":""4"",""participantId"":""1F026B3DA02E42E4B3914FD41B21D716"",""assignmentId"":""d4cda327-6f3e-4e83-8f22-28d4359b406a"",""projectId"":""5e631737-0fa4-44a6-b227-7ba1d7345015""}","https://test12345.live/?num_scrambled_semantic=8&num_scrambled_causal=4&num_scrambled_schematic=4&participantId=1F026B3DA02E42E4B3914FD41B21D716&assignmentId=d4cda327-6f3e-4e83-8f22-28d4359b406a&projectId=5e631737-0fa4-44a6-b227-7ba1d7345015","1F026B3DA02E42E4B3914FD41B21D716-2025-05-27-20-25-49","","null","","[]","null","",""
"","","","","","image-button-response","52","637633","0.0-10.0-1.0-0.9","1F026B3DA02E42E4B3914FD41B21D716","1F026B3DA02E42E4B3914FD41B21D716","d4cda327-6f3e-4e83-8f22-28d4359b406a","5e631737-0fa4-44a6-b227-7ba1d7345015","{""num_scrambled_semantic"":""8"",""num_scrambled_causal"":""4"",""num_scrambled_schematic"":""4"",""participantId"":""1F026B3DA02E42E4B3914FD41B21D716"",""assignmentId"":""d4cda327-6f3e-4e83-8f22-28d4359b406a"",""projectId"":""5e631737-0fa4-44a6-b227-7ba1d7345015""}","https://test12345.live/?num_scrambled_semantic=8&num_scrambled_causal=4&num_scrambled_schematic=4&participantId=1F026B3DA02E42E4B3914FD41B21D716&assignmentId=d4cda327-6f3e-4e83-8f22-28d4359b406a&projectId=5e631737-0fa4-44a6-b227-7ba1d7345015","1F026B3DA02E42E4B3914FD41B21D716-2025-05-27-20-25-49","","null","","images/schematic_sequence/dinner_party_scheme/dinner_party_scheme_ten.png","null","",""
"","","","","","image-button-response","53","638041","0.0-10.0-1.0-1.9","1F026B3DA02E42E4B3914FD41B21D716","1F026B3DA02E42E4B3914FD41B21D716","d4cda327-6f3e-4e83-8f22-28d4359b406a","5e631737-0fa4-44a6-b227-7ba1d7345015","{""num_scrambled_semantic"":""8"",""num_scrambled_causal"":""4"",""num_scrambled_schematic"":""4"",""participantId"":""1F026B3DA02E42E4B3914FD41B21D716"",""assignmentId"":""d4cda327-6f3e-4e83-8f22-28d4359b406a"",""projectId"":""5e631737-0fa4-44a6-b227-7ba1d7345015""}","https://test12345.live/?num_scrambled_semantic=8&num_scrambled_causal=4&num_scrambled_schematic=4&participantId=1F026B3DA02E42E4B3914FD41B21D716&assignmentId=d4cda327-6f3e-4e83-8f22-28d4359b406a&projectId=5e631737-0fa4-44a6-b227-7ba1d7345015","1F026B3DA02E42E4B3914FD41B21D716-2025-05-27-20-25-49","","407","","images/schematic_sequence/dinner_party_scheme/dinner_party_scheme_ten.png","0","",""
"","","","","","image-button-response","54","639848","0.0-10.0-1.0-2.9","1F026B3DA02E42E4B3914FD41B21D716","1F026B3DA02E42E4B3914FD41B21D716","d4cda327-6f3e-4e83-8f22-28d4359b406a","5e631737-0fa4-44a6-b227-7ba1d7345015","{""num_scrambled_semantic"":""8"",""num_scrambled_causal"":""4"",""num_scrambled_schematic"":""4"",""participantId"":""1F026B3DA02E42E4B3914FD41B21D716"",""assignmentId"":""d4cda327-6f3e-4e83-8f22-28d4359b406a"",""projectId"":""5e631737-0fa4-44a6-b227-7ba1d7345015""}","https://test12345.live/?num_scrambled_semantic=8&num_scrambled_causal=4&num_scrambled_schematic=4&participantId=1F026B3DA02E42E4B3914FD41B21D716&assignmentId=d4cda327-6f3e-4e83-8f22-28d4359b406a&projectId=5e631737-0fa4-44a6-b227-7ba1d7345015","1F026B3DA02E42E4B3914FD41B21D716-2025-05-27-20-25-49","","null","","[]","null","",""
"","","","","","html-audio-response","55","668407","0.0-11.0","1F026B3DA02E42E4B3914FD41B21D716","1F026B3DA02E42E4B3914FD41B21D716","d4cda327-6f3e-4e83-8f22-28d4359b406a","5e631737-0fa4-44a6-b227-7ba1d7345015","{""num_scrambled_semantic"":""8"",""num_scrambled_causal"":""4"",""num_scrambled_schematic"":""4"",""participantId"":""1F026B3DA02E42E4B3914FD41B21D716"",""assignmentId"":""d4cda327-6f3e-4e83-8f22-28d4359b406a"",""projectId"":""5e631737-0fa4-44a6-b227-7ba1d7345015""}","https://test12345.live/?num_scrambled_semantic=8&num_scrambled_causal=4&num_scrambled_schematic=4&participantId=1F026B3DA02E42E4B3914FD41B21D716&assignmentId=d4cda327-6f3e-4e83-8f22-28d4359b406a&projectId=5e631737-0fa4-44a6-b227-7ba1d7345015","1F026B3DA02E42E4B3914FD41B21D716-2025-05-27-20-25-49","","22574","","[""<span style=\""color: red; font-size: 24px\""> NOW RECORDING</span><p>Please say out loud all the images you saw, in the exact order you saw them. Try to recall as many images as you can, but remember: getting the order right is more important than the number of images you recall.</p>""]","","2","dinner_party_scheme"
"","","","","","image-button-response","56","674413","0.0-12.0-0.0","1F026B3DA02E42E4B3914FD41B21D716","1F026B3DA02E42E4B3914FD41B21D716","d4cda327-6f3e-4e83-8f22-28d4359b406a","5e631737-0fa4-44a6-b227-7ba1d7345015","{""num_scrambled_semantic"":""8"",""num_scrambled_causal"":""4"",""num_scrambled_schematic"":""4"",""participantId"":""1F026B3DA02E42E4B3914FD41B21D716"",""assignmentId"":""d4cda327-6f3e-4e83-8f22-28d4359b406a"",""projectId"":""5e631737-0fa4-44a6-b227-7ba1d7345015""}","https://test12345.live/?num_scrambled_semantic=8&num_scrambled_causal=4&num_scrambled_schematic=4&participantId=1F026B3DA02E42E4B3914FD41B21D716&assignmentId=d4cda327-6f3e-4e83-8f22-28d4359b406a&projectId=5e631737-0fa4-44a6-b227-7ba1d7345015","1F026B3DA02E42E4B3914FD41B21D716-2025-05-27-20-25-49","","null","","images/causal_sequence/coin_causal/coin_causal_0.png","null","",""
"","","","","","image-button-response","57","678916","0.0-12.0-1.0-0.0","1F026B3DA02E42E4B3914FD41B21D716","1F026B3DA02E42E4B3914FD41B21D716","d4cda327-6f3e-4e83-8f22-28d4359b406a","5e631737-0fa4-44a6-b227-7ba1d7345015","{""num_scrambled_semantic"":""8"",""num_scrambled_causal"":""4"",""num_scrambled_schematic"":""4"",""participantId"":""1F026B3DA02E42E4B3914FD41B21D716"",""assignmentId"":""d4cda327-6f3e-4e83-8f22-28d4359b406a"",""projectId"":""5e631737-0fa4-44a6-b227-7ba1d7345015""}","https://test12345.live/?num_scrambled_semantic=8&num_scrambled_causal=4&num_scrambled_schematic=4&participantId=1F026B3DA02E42E4B3914FD41B21D716&assignmentId=d4cda327-6f3e-4e83-8f22-28d4359b406a&projectId=5e631737-0fa4-44a6-b227-7ba1d7345015","1F026B3DA02E42E4B3914FD41B21D716-2025-05-27-20-25-49","","null","","images/causal_sequence/coin_causal/coin_causal_ten.png","null","",""
"","","","","","image-button-response","58","680496","0.0-12.0-1.0-1.0","1F026B3DA02E42E4B3914FD41B21D716","1F026B3DA02E42E4B3914FD41B21D716","d4cda327-6f3e-4e83-8f22-28d4359b406a","5e631737-0fa4-44a6-b227-7ba1d7345015","{""num_scrambled_semantic"":""8"",""num_scrambled_causal"":""4"",""num_scrambled_schematic"":""4"",""participantId"":""1F026B3DA02E42E4B3914FD41B21D716"",""assignmentId"":""d4cda327-6f3e-4e83-8f22-28d4359b406a"",""projectId"":""5e631737-0fa4-44a6-b227-7ba1d7345015""}","https://test12345.live/?num_scrambled_semantic=8&num_scrambled_causal=4&num_scrambled_schematic=4&participantId=1F026B3DA02E42E4B3914FD41B21D716&assignmentId=d4cda327-6f3e-4e83-8f22-28d4359b406a&projectId=5e631737-0fa4-44a6-b227-7ba1d7345015","1F026B3DA02E42E4B3914FD41B21D716-2025-05-27-20-25-49","","1579","","images/causal_sequence/coin_causal/coin_causal_ten.png","0","",""
"","","","","","image-button-response","59","682303","0.0-12.0-1.0-2.0","1F026B3DA02E42E4B3914FD41B21D716","1F026B3DA02E42E4B3914FD41B21D716","d4cda327-6f3e-4e83-8f22-28d4359b406a","5e631737-0fa4-44a6-b227-7ba1d7345015","{""num_scrambled_semantic"":""8"",""num_scrambled_causal"":""4"",""num_scrambled_schematic"":""4"",""participantId"":""1F026B3DA02E42E4B3914FD41B21D716"",""assignmentId"":""d4cda327-6f3e-4e83-8f22-28d4359b406a"",""projectId"":""5e631737-0fa4-44a6-b227-7ba1d7345015""}","https://test12345.live/?num_scrambled_semantic=8&num_scrambled_causal=4&num_scrambled_schematic=4&participantId=1F026B3DA02E42E4B3914FD41B21D716&assignmentId=d4cda327-6f3e-4e83-8f22-28d4359b406a&projectId=5e631737-0fa4-44a6-b227-7ba1d7345015","1F026B3DA02E42E4B3914FD41B21D716-2025-05-27-20-25-49","","null","","[]","null","",""
"","","","","","image-button-response","60","686808","0.0-12.0-1.0-0.1","1F026B3DA02E42E4B3914FD41B21D716","1F026B3DA02E42E4B3914FD41B21D716","d4cda327-6f3e-4e83-8f22-28d4359b406a","5e631737-0fa4-44a6-b227-7ba1d7345015","{""num_scrambled_semantic"":""8"",""num_scrambled_causal"":""4"",""num_scrambled_schematic"":""4"",""participantId"":""1F026B3DA02E42E4B3914FD41B21D716"",""assignmentId"":""d4cda327-6f3e-4e83-8f22-28d4359b406a"",""projectId"":""5e631737-0fa4-44a6-b227-7ba1d7345015""}","https://test12345.live/?num_scrambled_semantic=8&num_scrambled_causal=4&num_scrambled_schematic=4&participantId=1F026B3DA02E42E4B3914FD41B21D716&assignmentId=d4cda327-6f3e-4e83-8f22-28d4359b406a&projectId=5e631737-0fa4-44a6-b227-7ba1d7345015","1F026B3DA02E42E4B3914FD41B21D716-2025-05-27-20-25-49","","null","","images/causal_sequence/coin_causal/coin_causal_4.png","null","",""
"","","","","","image-button-response","61","687247","0.0-12.0-1.0-1.1","1F026B3DA02E42E4B3914FD41B21D716","1F026B3DA02E42E4B3914FD41B21D716","d4cda327-6f3e-4e83-8f22-28d4359b406a","5e631737-0fa4-44a6-b227-7ba1d7345015","{""num_scrambled_semantic"":""8"",""num_scrambled_causal"":""4"",""num_scrambled_schematic"":""4"",""participantId"":""1F026B3DA02E42E4B3914FD41B21D716"",""assignmentId"":""d4cda327-6f3e-4e83-8f22-28d4359b406a"",""projectId"":""5e631737-0fa4-44a6-b227-7ba1d7345015""}","https://test12345.live/?num_scrambled_semantic=8&num_scrambled_causal=4&num_scrambled_schematic=4&participantId=1F026B3DA02E42E4B3914FD41B21D716&assignmentId=d4cda327-6f3e-4e83-8f22-28d4359b406a&projectId=5e631737-0fa4-44a6-b227-7ba1d7345015","1F026B3DA02E42E4B3914FD41B21D716-2025-05-27-20-25-49","","437","","images/causal_sequence/coin_causal/coin_causal_4.png","0","",""
"","","","","","image-button-response","62","689053","0.0-12.0-1.0-2.1","1F026B3DA02E42E4B3914FD41B21D716","1F026B3DA02E42E4B3914FD41B21D716","d4cda327-6f3e-4e83-8f22-28d4359b406a","5e631737-0fa4-44a6-b227-7ba1d7345015","{""num_scrambled_semantic"":""8"",""num_scrambled_causal"":""4"",""num_scrambled_schematic"":""4"",""participantId"":""1F026B3DA02E42E4B3914FD41B21D716"",""assignmentId"":""d4cda327-6f3e-4e83-8f22-28d4359b406a"",""projectId"":""5e631737-0fa4-44a6-b227-7ba1d7345015""}","https://test12345.live/?num_scrambled_semantic=8&num_scrambled_causal=4&num_scrambled_schematic=4&participantId=1F026B3DA02E42E4B3914FD41B21D716&assignmentId=d4cda327-6f3e-4e83-8f22-28d4359b406a&projectId=5e631737-0fa4-44a6-b227-7ba1d7345015","1F026B3DA02E42E4B3914FD41B21D716-2025-05-27-20-25-49","","null","","[]","null","",""
"","","","","","image-button-response","63","693555","0.0-12.0-1.0-0.2","1F026B3DA02E42E4B3914FD41B21D716","1F026B3DA02E42E4B3914FD41B21D716","d4cda327-6f3e-4e83-8f22-28d4359b406a","5e631737-0fa4-44a6-b227-7ba1d7345015","{""num_scrambled_semantic"":""8"",""num_scrambled_causal"":""4"",""num_scrambled_schematic"":""4"",""participantId"":""1F026B3DA02E42E4B3914FD41B21D716"",""assignmentId"":""d4cda327-6f3e-4e83-8f22-28d4359b406a"",""projectId"":""5e631737-0fa4-44a6-b227-7ba1d7345015""}","https://test12345.live/?num_scrambled_semantic=8&num_scrambled_causal=4&num_scrambled_schematic=4&participantId=1F026B3DA02E42E4B3914FD41B21D716&assignmentId=d4cda327-6f3e-4e83-8f22-28d4359b406a&projectId=5e631737-0fa4-44a6-b227-7ba1d7345015","1F026B3DA02E42E4B3914FD41B21D716-2025-05-27-20-25-49","","null","","images/causal_sequence/coin_causal/coin_causal_6.png","null","",""
"","","","","","image-button-response","64","693986","0.0-12.0-1.0-1.2","1F026B3DA02E42E4B3914FD41B21D716","1F026B3DA02E42E4B3914FD41B21D716","d4cda327-6f3e-4e83-8f22-28d4359b406a","5e631737-0fa4-44a6-b227-7ba1d7345015","{""num_scrambled_semantic"":""8"",""num_scrambled_causal"":""4"",""num_scrambled_schematic"":""4"",""participantId"":""1F026B3DA02E42E4B3914FD41B21D716"",""assignmentId"":""d4cda327-6f3e-4e83-8f22-28d4359b406a"",""projectId"":""5e631737-0fa4-44a6-b227-7ba1d7345015""}","https://test12345.live/?num_scrambled_semantic=8&num_scrambled_causal=4&num_scrambled_schematic=4&participantId=1F026B3DA02E42E4B3914FD41B21D716&assignmentId=d4cda327-6f3e-4e83-8f22-28d4359b406a&projectId=5e631737-0fa4-44a6-b227-7ba1d7345015","1F026B3DA02E42E4B3914FD41B21D716-2025-05-27-20-25-49","","428","","images/causal_sequence/coin_causal/coin_causal_6.png","0","",""
"","","","","","image-button-response","65","695792","0.0-12.0-1.0-2.2","1F026B3DA02E42E4B3914FD41B21D716","1F026B3DA02E42E4B3914FD41B21D716","d4cda327-6f3e-4e83-8f22-28d4359b406a","5e631737-0fa4-44a6-b227-7ba1d7345015","{""num_scrambled_semantic"":""8"",""num_scrambled_causal"":""4"",""num_scrambled_schematic"":""4"",""participantId"":""1F026B3DA02E42E4B3914FD41B21D716"",""assignmentId"":""d4cda327-6f3e-4e83-8f22-28d4359b406a"",""projectId"":""5e631737-0fa4-44a6-b227-7ba1d7345015""}","https://test12345.live/?num_scrambled_semantic=8&num_scrambled_causal=4&num_scrambled_schematic=4&participantId=1F026B3DA02E42E4B3914FD41B21D716&assignmentId=d4cda327-6f3e-4e83-8f22-28d4359b406a&projectId=5e631737-0fa4-44a6-b227-7ba1d7345015","1F026B3DA02E42E4B3914FD41B21D716-2025-05-27-20-25-49","","null","","[]","null","",""
"","","","","","image-button-response","66","700295","0.0-12.0-1.0-0.3","1F026B3DA02E42E4B3914FD41B21D716","1F026B3DA02E42E4B3914FD41B21D716","d4cda327-6f3e-4e83-8f22-28d4359b406a","5e631737-0fa4-44a6-b227-7ba1d7345015","{""num_scrambled_semantic"":""8"",""num_scrambled_causal"":""4"",""num_scrambled_schematic"":""4"",""participantId"":""1F026B3DA02E42E4B3914FD41B21D716"",""assignmentId"":""d4cda327-6f3e-4e83-8f22-28d4359b406a"",""projectId"":""5e631737-0fa4-44a6-b227-7ba1d7345015""}","https://test12345.live/?num_scrambled_semantic=8&num_scrambled_causal=4&num_scrambled_schematic=4&participantId=1F026B3DA02E42E4B3914FD41B21D716&assignmentId=d4cda327-6f3e-4e83-8f22-28d4359b406a&projectId=5e631737-0fa4-44a6-b227-7ba1d7345015","1F026B3DA02E42E4B3914FD41B21D716-2025-05-27-20-25-49","","null","","images/causal_sequence/coin_causal/coin_causal_3.png","null","",""
"","","","","","image-button-response","67","700733","0.0-12.0-1.0-1.3","1F026B3DA02E42E4B3914FD41B21D716","1F026B3DA02E42E4B3914FD41B21D716","d4cda327-6f3e-4e83-8f22-28d4359b406a","5e631737-0fa4-44a6-b227-7ba1d7345015","{""num_scrambled_semantic"":""8"",""num_scrambled_causal"":""4"",""num_scrambled_schematic"":""4"",""participantId"":""1F026B3DA02E42E4B3914FD41B21D716"",""assignmentId"":""d4cda327-6f3e-4e83-8f22-28d4359b406a"",""projectId"":""5e631737-0fa4-44a6-b227-7ba1d7345015""}","https://test12345.live/?num_scrambled_semantic=8&num_scrambled_causal=4&num_scrambled_schematic=4&participantId=1F026B3DA02E42E4B3914FD41B21D716&assignmentId=d4cda327-6f3e-4e83-8f22-28d4359b406a&projectId=5e631737-0fa4-44a6-b227-7ba1d7345015","1F026B3DA02E42E4B3914FD41B21D716-2025-05-27-20-25-49","","436","","images/causal_sequence/coin_causal/coin_causal_3.png","0","",""
"","","","","","image-button-response","68","702538","0.0-12.0-1.0-2.3","1F026B3DA02E42E4B3914FD41B21D716","1F026B3DA02E42E4B3914FD41B21D716","d4cda327-6f3e-4e83-8f22-28d4359b406a","5e631737-0fa4-44a6-b227-7ba1d7345015","{""num_scrambled_semantic"":""8"",""num_scrambled_causal"":""4"",""num_scrambled_schematic"":""4"",""participantId"":""1F026B3DA02E42E4B3914FD41B21D716"",""assignmentId"":""d4cda327-6f3e-4e83-8f22-28d4359b406a"",""projectId"":""5e631737-0fa4-44a6-b227-7ba1d7345015""}","https://test12345.live/?num_scrambled_semantic=8&num_scrambled_causal=4&num_scrambled_schematic=4&participantId=1F026B3DA02E42E4B3914FD41B21D716&assignmentId=d4cda327-6f3e-4e83-8f22-28d4359b406a&projectId=5e631737-0fa4-44a6-b227-7ba1d7345015","1F026B3DA02E42E4B3914FD41B21D716-2025-05-27-20-25-49","","null","","[]","null","",""
"","","","","","image-button-response","69","707045","0.0-12.0-1.0-0.4","1F026B3DA02E42E4B3914FD41B21D716","1F026B3DA02E42E4B3914FD41B21D716","d4cda327-6f3e-4e83-8f22-28d4359b406a","5e631737-0fa4-44a6-b227-7ba1d7345015","{""num_scrambled_semantic"":""8"",""num_scrambled_causal"":""4"",""num_scrambled_schematic"":""4"",""participantId"":""1F026B3DA02E42E4B3914FD41B21D716"",""assignmentId"":""d4cda327-6f3e-4e83-8f22-28d4359b406a"",""projectId"":""5e631737-0fa4-44a6-b227-7ba1d7345015""}","https://test12345.live/?num_scrambled_semantic=8&num_scrambled_causal=4&num_scrambled_schematic=4&participantId=1F026B3DA02E42E4B3914FD41B21D716&assignmentId=d4cda327-6f3e-4e83-8f22-28d4359b406a&projectId=5e631737-0fa4-44a6-b227-7ba1d7345015","1F026B3DA02E42E4B3914FD41B21D716-2025-05-27-20-25-49","","null","","images/causal_sequence/coin_causal/coin_causal_9.png","null","",""
"","","","","","image-button-response","70","707580","0.0-12.0-1.0-1.4","1F026B3DA02E42E4B3914FD41B21D716","1F026B3DA02E42E4B3914FD41B21D716","d4cda327-6f3e-4e83-8f22-28d4359b406a","5e631737-0fa4-44a6-b227-7ba1d7345015","{""num_scrambled_semantic"":""8"",""num_scrambled_causal"":""4"",""num_scrambled_schematic"":""4"",""participantId"":""1F026B3DA02E42E4B3914FD41B21D716"",""assignmentId"":""d4cda327-6f3e-4e83-8f22-28d4359b406a"",""projectId"":""5e631737-0fa4-44a6-b227-7ba1d7345015""}","https://test12345.live/?num_scrambled_semantic=8&num_scrambled_causal=4&num_scrambled_schematic=4&participantId=1F026B3DA02E42E4B3914FD41B21D716&assignmentId=d4cda327-6f3e-4e83-8f22-28d4359b406a&projectId=5e631737-0fa4-44a6-b227-7ba1d7345015","1F026B3DA02E42E4B3914FD41B21D716-2025-05-27-20-25-49","","534","","images/causal_sequence/coin_causal/coin_causal_9.png","0","",""
"","","","","","image-button-response","71","709382","0.0-12.0-1.0-2.4","1F026B3DA02E42E4B3914FD41B21D716","1F026B3DA02E42E4B3914FD41B21D716","d4cda327-6f3e-4e83-8f22-28d4359b406a","5e631737-0fa4-44a6-b227-7ba1d7345015","{""num_scrambled_semantic"":""8"",""num_scrambled_causal"":""4"",""num_scrambled_schematic"":""4"",""participantId"":""1F026B3DA02E42E4B3914FD41B21D716"",""assignmentId"":""d4cda327-6f3e-4e83-8f22-28d4359b406a"",""projectId"":""5e631737-0fa4-44a6-b227-7ba1d7345015""}","https://test12345.live/?num_scrambled_semantic=8&num_scrambled_causal=4&num_scrambled_schematic=4&participantId=1F026B3DA02E42E4B3914FD41B21D716&assignmentId=d4cda327-6f3e-4e83-8f22-28d4359b406a&projectId=5e631737-0fa4-44a6-b227-7ba1d7345015","1F026B3DA02E42E4B3914FD41B21D716-2025-05-27-20-25-49","","null","","[]","null","",""
"","","","","","image-button-response","72","713889","0.0-12.0-1.0-0.5","1F026B3DA02E42E4B3914FD41B21D716","1F026B3DA02E42E4B3914FD41B21D716","d4cda327-6f3e-4e83-8f22-28d4359b406a","5e631737-0fa4-44a6-b227-7ba1d7345015","{""num_scrambled_semantic"":""8"",""num_scrambled_causal"":""4"",""num_scrambled_schematic"":""4"",""participantId"":""1F026B3DA02E42E4B3914FD41B21D716"",""assignmentId"":""d4cda327-6f3e-4e83-8f22-28d4359b406a"",""projectId"":""5e631737-0fa4-44a6-b227-7ba1d7345015""}","https://test12345.live/?num_scrambled_semantic=8&num_scrambled_causal=4&num_scrambled_schematic=4&participantId=1F026B3DA02E42E4B3914FD41B21D716&assignmentId=d4cda327-6f3e-4e83-8f22-28d4359b406a&projectId=5e631737-0fa4-44a6-b227-7ba1d7345015","1F026B3DA02E42E4B3914FD41B21D716-2025-05-27-20-25-49","","null","","images/causal_sequence/coin_causal/coin_causal_1.png","null","",""
"","","","","","image-button-response","73","714398","0.0-12.0-1.0-1.5","1F026B3DA02E42E4B3914FD41B21D716","1F026B3DA02E42E4B3914FD41B21D716","d4cda327-6f3e-4e83-8f22-28d4359b406a","5e631737-0fa4-44a6-b227-7ba1d7345015","{""num_scrambled_semantic"":""8"",""num_scrambled_causal"":""4"",""num_scrambled_schematic"":""4"",""participantId"":""1F026B3DA02E42E4B3914FD41B21D716"",""assignmentId"":""d4cda327-6f3e-4e83-8f22-28d4359b406a"",""projectId"":""5e631737-0fa4-44a6-b227-7ba1d7345015""}","https://test12345.live/?num_scrambled_semantic=8&num_scrambled_causal=4&num_scrambled_schematic=4&participantId=1F026B3DA02E42E4B3914FD41B21D716&assignmentId=d4cda327-6f3e-4e83-8f22-28d4359b406a&projectId=5e631737-0fa4-44a6-b227-7ba1d7345015","1F026B3DA02E42E4B3914FD41B21D716-2025-05-27-20-25-49","","507","","images/causal_sequence/coin_causal/coin_causal_1.png","0","",""
"","","","","","image-button-response","74","716204","0.0-12.0-1.0-2.5","1F026B3DA02E42E4B3914FD41B21D716","1F026B3DA02E42E4B3914FD41B21D716","d4cda327-6f3e-4e83-8f22-28d4359b406a","5e631737-0fa4-44a6-b227-7ba1d7345015","{""num_scrambled_semantic"":""8"",""num_scrambled_causal"":""4"",""num_scrambled_schematic"":""4"",""participantId"":""1F026B3DA02E42E4B3914FD41B21D716"",""assignmentId"":""d4cda327-6f3e-4e83-8f22-28d4359b406a"",""projectId"":""5e631737-0fa4-44a6-b227-7ba1d7345015""}","https://test12345.live/?num_scrambled_semantic=8&num_scrambled_causal=4&num_scrambled_schematic=4&participantId=1F026B3DA02E42E4B3914FD41B21D716&assignmentId=d4cda327-6f3e-4e83-8f22-28d4359b406a&projectId=5e631737-0fa4-44a6-b227-7ba1d7345015","1F026B3DA02E42E4B3914FD41B21D716-2025-05-27-20-25-49","","null","","[]","null","",""
"","","","","","image-button-response","75","720708","0.0-12.0-1.0-0.6","1F026B3DA02E42E4B3914FD41B21D716","1F026B3DA02E42E4B3914FD41B21D716","d4cda327-6f3e-4e83-8f22-28d4359b406a","5e631737-0fa4-44a6-b227-7ba1d7345015","{""num_scrambled_semantic"":""8"",""num_scrambled_causal"":""4"",""num_scrambled_schematic"":""4"",""participantId"":""1F026B3DA02E42E4B3914FD41B21D716"",""assignmentId"":""d4cda327-6f3e-4e83-8f22-28d4359b406a"",""projectId"":""5e631737-0fa4-44a6-b227-7ba1d7345015""}","https://test12345.live/?num_scrambled_semantic=8&num_scrambled_causal=4&num_scrambled_schematic=4&participantId=1F026B3DA02E42E4B3914FD41B21D716&assignmentId=d4cda327-6f3e-4e83-8f22-28d4359b406a&projectId=5e631737-0fa4-44a6-b227-7ba1d7345015","1F026B3DA02E42E4B3914FD41B21D716-2025-05-27-20-25-49","","null","","images/causal_sequence/coin_causal/coin_causal_2.png","null","",""
"","","","","","image-button-response","76","722842","0.0-12.0-1.0-1.6","1F026B3DA02E42E4B3914FD41B21D716","1F026B3DA02E42E4B3914FD41B21D716","d4cda327-6f3e-4e83-8f22-28d4359b406a","5e631737-0fa4-44a6-b227-7ba1d7345015","{""num_scrambled_semantic"":""8"",""num_scrambled_causal"":""4"",""num_scrambled_schematic"":""4"",""participantId"":""1F026B3DA02E42E4B3914FD41B21D716"",""assignmentId"":""d4cda327-6f3e-4e83-8f22-28d4359b406a"",""projectId"":""5e631737-0fa4-44a6-b227-7ba1d7345015""}","https://test12345.live/?num_scrambled_semantic=8&num_scrambled_causal=4&num_scrambled_schematic=4&participantId=1F026B3DA02E42E4B3914FD41B21D716&assignmentId=d4cda327-6f3e-4e83-8f22-28d4359b406a&projectId=5e631737-0fa4-44a6-b227-7ba1d7345015","1F026B3DA02E42E4B3914FD41B21D716-2025-05-27-20-25-49","","2132","","images/causal_sequence/coin_causal/coin_causal_2.png","0","",""
"","","","","","image-button-response","77","724648","0.0-12.0-1.0-2.6","1F026B3DA02E42E4B3914FD41B21D716","1F026B3DA02E42E4B3914FD41B21D716","d4cda327-6f3e-4e83-8f22-28d4359b406a","5e631737-0fa4-44a6-b227-7ba1d7345015","{""num_scrambled_semantic"":""8"",""num_scrambled_causal"":""4"",""num_scrambled_schematic"":""4"",""participantId"":""1F026B3DA02E42E4B3914FD41B21D716"",""assignmentId"":""d4cda327-6f3e-4e83-8f22-28d4359b406a"",""projectId"":""5e631737-0fa4-44a6-b227-7ba1d7345015""}","https://test12345.live/?num_scrambled_semantic=8&num_scrambled_causal=4&num_scrambled_schematic=4&participantId=1F026B3DA02E42E4B3914FD41B21D716&assignmentId=d4cda327-6f3e-4e83-8f22-28d4359b406a&projectId=5e631737-0fa4-44a6-b227-7ba1d7345015","1F026B3DA02E42E4B3914FD41B21D716-2025-05-27-20-25-49","","null","","[]","null","",""
"","","","","","image-button-response","78","729153","0.0-12.0-1.0-0.7","1F026B3DA02E42E4B3914FD41B21D716","1F026B3DA02E42E4B3914FD41B21D716","d4cda327-6f3e-4e83-8f22-28d4359b406a","5e631737-0fa4-44a6-b227-7ba1d7345015","{""num_scrambled_semantic"":""8"",""num_scrambled_causal"":""4"",""num_scrambled_schematic"":""4"",""participantId"":""1F026B3DA02E42E4B3914FD41B21D716"",""assignmentId"":""d4cda327-6f3e-4e83-8f22-28d4359b406a"",""projectId"":""5e631737-0fa4-44a6-b227-7ba1d7345015""}","https://test12345.live/?num_scrambled_semantic=8&num_scrambled_causal=4&num_scrambled_schematic=4&participantId=1F026B3DA02E42E4B3914FD41B21D716&assignmentId=d4cda327-6f3e-4e83-8f22-28d4359b406a&projectId=5e631737-0fa4-44a6-b227-7ba1d7345015","1F026B3DA02E42E4B3914FD41B21D716-2025-05-27-20-25-49","","null","","images/causal_sequence/coin_causal/coin_causal_5.png","null","",""
"","","","","","image-button-response","79","731119","0.0-12.0-1.0-1.7","1F026B3DA02E42E4B3914FD41B21D716","1F026B3DA02E42E4B3914FD41B21D716","d4cda327-6f3e-4e83-8f22-28d4359b406a","5e631737-0fa4-44a6-b227-7ba1d7345015","{""num_scrambled_semantic"":""8"",""num_scrambled_causal"":""4"",""num_scrambled_schematic"":""4"",""participantId"":""1F026B3DA02E42E4B3914FD41B21D716"",""assignmentId"":""d4cda327-6f3e-4e83-8f22-28d4359b406a"",""projectId"":""5e631737-0fa4-44a6-b227-7ba1d7345015""}","https://test12345.live/?num_scrambled_semantic=8&num_scrambled_causal=4&num_scrambled_schematic=4&participantId=1F026B3DA02E42E4B3914FD41B21D716&assignmentId=d4cda327-6f3e-4e83-8f22-28d4359b406a&projectId=5e631737-0fa4-44a6-b227-7ba1d7345015","1F026B3DA02E42E4B3914FD41B21D716-2025-05-27-20-25-49","","1964","","images/causal_sequence/coin_causal/coin_causal_5.png","0","",""
"","","","","","image-button-response","80","732924","0.0-12.0-1.0-2.7","1F026B3DA02E42E4B3914FD41B21D716","1F026B3DA02E42E4B3914FD41B21D716","d4cda327-6f3e-4e83-8f22-28d4359b406a","5e631737-0fa4-44a6-b227-7ba1d7345015","{""num_scrambled_semantic"":""8"",""num_scrambled_causal"":""4"",""num_scrambled_schematic"":""4"",""participantId"":""1F026B3DA02E42E4B3914FD41B21D716"",""assignmentId"":""d4cda327-6f3e-4e83-8f22-28d4359b406a"",""projectId"":""5e631737-0fa4-44a6-b227-7ba1d7345015""}","https://test12345.live/?num_scrambled_semantic=8&num_scrambled_causal=4&num_scrambled_schematic=4&participantId=1F026B3DA02E42E4B3914FD41B21D716&assignmentId=d4cda327-6f3e-4e83-8f22-28d4359b406a&projectId=5e631737-0fa4-44a6-b227-7ba1d7345015","1F026B3DA02E42E4B3914FD41B21D716-2025-05-27-20-25-49","","null","","[]","null","",""
"","","","","","image-button-response","81","737429","0.0-12.0-1.0-0.8","1F026B3DA02E42E4B3914FD41B21D716","1F026B3DA02E42E4B3914FD41B21D716","d4cda327-6f3e-4e83-8f22-28d4359b406a","5e631737-0fa4-44a6-b227-7ba1d7345015","{""num_scrambled_semantic"":""8"",""num_scrambled_causal"":""4"",""num_scrambled_schematic"":""4"",""participantId"":""1F026B3DA02E42E4B3914FD41B21D716"",""assignmentId"":""d4cda327-6f3e-4e83-8f22-28d4359b406a"",""projectId"":""5e631737-0fa4-44a6-b227-7ba1d7345015""}","https://test12345.live/?num_scrambled_semantic=8&num_scrambled_causal=4&num_scrambled_schematic=4&participantId=1F026B3DA02E42E4B3914FD41B21D716&assignmentId=d4cda327-6f3e-4e83-8f22-28d4359b406a&projectId=5e631737-0fa4-44a6-b227-7ba1d7345015","1F026B3DA02E42E4B3914FD41B21D716-2025-05-27-20-25-49","","null","","images/causal_sequence/coin_causal/coin_causal_8.png","null","",""
"","","","","","image-button-response","82","738266","0.0-12.0-1.0-1.8","1F026B3DA02E42E4B3914FD41B21D716","1F026B3DA02E42E4B3914FD41B21D716","d4cda327-6f3e-4e83-8f22-28d4359b406a","5e631737-0fa4-44a6-b227-7ba1d7345015","{""num_scrambled_semantic"":""8"",""num_scrambled_causal"":""4"",""num_scrambled_schematic"":""4"",""participantId"":""1F026B3DA02E42E4B3914FD41B21D716"",""assignmentId"":""d4cda327-6f3e-4e83-8f22-28d4359b406a"",""projectId"":""5e631737-0fa4-44a6-b227-7ba1d7345015""}","https://test12345.live/?num_scrambled_semantic=8&num_scrambled_causal=4&num_scrambled_schematic=4&participantId=1F026B3DA02E42E4B3914FD41B21D716&assignmentId=d4cda327-6f3e-4e83-8f22-28d4359b406a&projectId=5e631737-0fa4-44a6-b227-7ba1d7345015","1F026B3DA02E42E4B3914FD41B21D716-2025-05-27-20-25-49","","835","","images/causal_sequence/coin_causal/coin_causal_8.png","0","",""
"","","","","","image-button-response","83","740072","0.0-12.0-1.0-2.8","1F026B3DA02E42E4B3914FD41B21D716","1F026B3DA02E42E4B3914FD41B21D716","d4cda327-6f3e-4e83-8f22-28d4359b406a","5e631737-0fa4-44a6-b227-7ba1d7345015","{""num_scrambled_semantic"":""8"",""num_scrambled_causal"":""4"",""num_scrambled_schematic"":""4"",""participantId"":""1F026B3DA02E42E4B3914FD41B21D716"",""assignmentId"":""d4cda327-6f3e-4e83-8f22-28d4359b406a"",""projectId"":""5e631737-0fa4-44a6-b227-7ba1d7345015""}","https://test12345.live/?num_scrambled_semantic=8&num_scrambled_causal=4&num_scrambled_schematic=4&participantId=1F026B3DA02E42E4B3914FD41B21D716&assignmentId=d4cda327-6f3e-4e83-8f22-28d4359b406a&projectId=5e631737-0fa4-44a6-b227-7ba1d7345015","1F026B3DA02E42E4B3914FD41B21D716-2025-05-27-20-25-49","","null","","[]","null","",""
"","","","","","image-button-response","84","744578","0.0-12.0-1.0-0.9","1F026B3DA02E42E4B3914FD41B21D716","1F026B3DA02E42E4B3914FD41B21D716","d4cda327-6f3e-4e83-8f22-28d4359b406a","5e631737-0fa4-44a6-b227-7ba1d7345015","{""num_scrambled_semantic"":""8"",""num_scrambled_causal"":""4"",""num_scrambled_schematic"":""4"",""participantId"":""1F026B3DA02E42E4B3914FD41B21D716"",""assignmentId"":""d4cda327-6f3e-4e83-8f22-28d4359b406a"",""projectId"":""5e631737-0fa4-44a6-b227-7ba1d7345015""}","https://test12345.live/?num_scrambled_semantic=8&num_scrambled_causal=4&num_scrambled_schematic=4&participantId=1F026B3DA02E42E4B3914FD41B21D716&assignmentId=d4cda327-6f3e-4e83-8f22-28d4359b406a&projectId=5e631737-0fa4-44a6-b227-7ba1d7345015","1F026B3DA02E42E4B3914FD41B21D716-2025-05-27-20-25-49","","null","","images/causal_sequence/coin_causal/coin_causal_7.png","null","",""
"","","","","","image-button-response","85","745164","0.0-12.0-1.0-1.9","1F026B3DA02E42E4B3914FD41B21D716","1F026B3DA02E42E4B3914FD41B21D716","d4cda327-6f3e-4e83-8f22-28d4359b406a","5e631737-0fa4-44a6-b227-7ba1d7345015","{""num_scrambled_semantic"":""8"",""num_scrambled_causal"":""4"",""num_scrambled_schematic"":""4"",""participantId"":""1F026B3DA02E42E4B3914FD41B21D716"",""assignmentId"":""d4cda327-6f3e-4e83-8f22-28d4359b406a"",""projectId"":""5e631737-0fa4-44a6-b227-7ba1d7345015""}","https://test12345.live/?num_scrambled_semantic=8&num_scrambled_causal=4&num_scrambled_schematic=4&participantId=1F026B3DA02E42E4B3914FD41B21D716&assignmentId=d4cda327-6f3e-4e83-8f22-28d4359b406a&projectId=5e631737-0fa4-44a6-b227-7ba1d7345015","1F026B3DA02E42E4B3914FD41B21D716-2025-05-27-20-25-49","","583","","images/causal_sequence/coin_causal/coin_causal_7.png","0","",""
"","","","","","image-button-response","86","746968","0.0-12.0-1.0-2.9","1F026B3DA02E42E4B3914FD41B21D716","1F026B3DA02E42E4B3914FD41B21D716","d4cda327-6f3e-4e83-8f22-28d4359b406a","5e631737-0fa4-44a6-b227-7ba1d7345015","{""num_scrambled_semantic"":""8"",""num_scrambled_causal"":""4"",""num_scrambled_schematic"":""4"",""participantId"":""1F026B3DA02E42E4B3914FD41B21D716"",""assignmentId"":""d4cda327-6f3e-4e83-8f22-28d4359b406a"",""projectId"":""5e631737-0fa4-44a6-b227-7ba1d7345015""}","https://test12345.live/?num_scrambled_semantic=8&num_scrambled_causal=4&num_scrambled_schematic=4&participantId=1F026B3DA02E42E4B3914FD41B21D716&assignmentId=d4cda327-6f3e-4e83-8f22-28d4359b406a&projectId=5e631737-0fa4-44a6-b227-7ba1d7345015","1F026B3DA02E42E4B3914FD41B21D716-2025-05-27-20-25-49","","null","","[]","null","",""
"","","","","","html-audio-response","87","840314","0.0-13.0","1F026B3DA02E42E4B3914FD41B21D716","1F026B3DA02E42E4B3914FD41B21D716","d4cda327-6f3e-4e83-8f22-28d4359b406a","5e631737-0fa4-44a6-b227-7ba1d7345015","{""num_scrambled_semantic"":""8"",""num_scrambled_causal"":""4"",""num_scrambled_schematic"":""4"",""participantId"":""1F026B3DA02E42E4B3914FD41B21D716"",""assignmentId"":""d4cda327-6f3e-4e83-8f22-28d4359b406a"",""projectId"":""5e631737-0fa4-44a6-b227-7ba1d7345015""}","https://test12345.live/?num_scrambled_semantic=8&num_scrambled_causal=4&num_scrambled_schematic=4&participantId=1F026B3DA02E42E4B3914FD41B21D716&assignmentId=d4cda327-6f3e-4e83-8f22-28d4359b406a&projectId=5e631737-0fa4-44a6-b227-7ba1d7345015","1F026B3DA02E42E4B3914FD41B21D716-2025-05-27-20-25-49","","24086","","[""<span style=\""color: red; font-size: 24px\""> NOW RECORDING</span><p>Please say out loud all the images you saw, in the exact order you saw them. Try to recall as many images as you can, but remember: getting the order right is more important than the number of images you recall.</p>""]","","2","coin_causal"
"","","","","","image-button-response","88","846318","0.0-14.0-0.0","1F026B3DA02E42E4B3914FD41B21D716","1F026B3DA02E42E4B3914FD41B21D716","d4cda327-6f3e-4e83-8f22-28d4359b406a","5e631737-0fa4-44a6-b227-7ba1d7345015","{""num_scrambled_semantic"":""8"",""num_scrambled_causal"":""4"",""num_scrambled_schematic"":""4"",""participantId"":""1F026B3DA02E42E4B3914FD41B21D716"",""assignmentId"":""d4cda327-6f3e-4e83-8f22-28d4359b406a"",""projectId"":""5e631737-0fa4-44a6-b227-7ba1d7345015""}","https://test12345.live/?num_scrambled_semantic=8&num_scrambled_causal=4&num_scrambled_schematic=4&participantId=1F026B3DA02E42E4B3914FD41B21D716&assignmentId=d4cda327-6f3e-4e83-8f22-28d4359b406a&projectId=5e631737-0fa4-44a6-b227-7ba1d7345015","1F026B3DA02E42E4B3914FD41B21D716-2025-05-27-20-25-49","","null","","images/causal_sequence/package_causal/package_causal_0.png","null","",""
"","","","","","image-button-response","89","850823","0.0-14.0-1.0-0.0","1F026B3DA02E42E4B3914FD41B21D716","1F026B3DA02E42E4B3914FD41B21D716","d4cda327-6f3e-4e83-8f22-28d4359b406a","5e631737-0fa4-44a6-b227-7ba1d7345015","{""num_scrambled_semantic"":""8"",""num_scrambled_causal"":""4"",""num_scrambled_schematic"":""4"",""participantId"":""1F026B3DA02E42E4B3914FD41B21D716"",""assignmentId"":""d4cda327-6f3e-4e83-8f22-28d4359b406a"",""projectId"":""5e631737-0fa4-44a6-b227-7ba1d7345015""}","https://test12345.live/?num_scrambled_semantic=8&num_scrambled_causal=4&num_scrambled_schematic=4&participantId=1F026B3DA02E42E4B3914FD41B21D716&assignmentId=d4cda327-6f3e-4e83-8f22-28d4359b406a&projectId=5e631737-0fa4-44a6-b227-7ba1d7345015","1F026B3DA02E42E4B3914FD41B21D716-2025-05-27-20-25-49","","null","","images/causal_sequence/package_causal/package_causal_8.png","null","",""
"","","","","","image-button-response","90","852348","0.0-14.0-1.0-1.0","1F026B3DA02E42E4B3914FD41B21D716","1F026B3DA02E42E4B3914FD41B21D716","d4cda327-6f3e-4e83-8f22-28d4359b406a","5e631737-0fa4-44a6-b227-7ba1d7345015","{""num_scrambled_semantic"":""8"",""num_scrambled_causal"":""4"",""num_scrambled_schematic"":""4"",""participantId"":""1F026B3DA02E42E4B3914FD41B21D716"",""assignmentId"":""d4cda327-6f3e-4e83-8f22-28d4359b406a"",""projectId"":""5e631737-0fa4-44a6-b227-7ba1d7345015""}","https://test12345.live/?num_scrambled_semantic=8&num_scrambled_causal=4&num_scrambled_schematic=4&participantId=1F026B3DA02E42E4B3914FD41B21D716&assignmentId=d4cda327-6f3e-4e83-8f22-28d4359b406a&projectId=5e631737-0fa4-44a6-b227-7ba1d7345015","1F026B3DA02E42E4B3914FD41B21D716-2025-05-27-20-25-49","","1524","","images/causal_sequence/package_causal/package_causal_8.png","0","",""
"","","","","","image-button-response","91","854155","0.0-14.0-1.0-2.0","1F026B3DA02E42E4B3914FD41B21D716","1F026B3DA02E42E4B3914FD41B21D716","d4cda327-6f3e-4e83-8f22-28d4359b406a","5e631737-0fa4-44a6-b227-7ba1d7345015","{""num_scrambled_semantic"":""8"",""num_scrambled_causal"":""4"",""num_scrambled_schematic"":""4"",""participantId"":""1F026B3DA02E42E4B3914FD41B21D716"",""assignmentId"":""d4cda327-6f3e-4e83-8f22-28d4359b406a"",""projectId"":""5e631737-0fa4-44a6-b227-7ba1d7345015""}","https://test12345.live/?num_scrambled_semantic=8&num_scrambled_causal=4&num_scrambled_schematic=4&participantId=1F026B3DA02E42E4B3914FD41B21D716&assignmentId=d4cda327-6f3e-4e83-8f22-28d4359b406a&projectId=5e631737-0fa4-44a6-b227-7ba1d7345015","1F026B3DA02E42E4B3914FD41B21D716-2025-05-27-20-25-49","","null","","[]","null","",""
"","","","","","image-button-response","92","858659","0.0-14.0-1.0-0.1","1F026B3DA02E42E4B3914FD41B21D716","1F026B3DA02E42E4B3914FD41B21D716","d4cda327-6f3e-4e83-8f22-28d4359b406a","5e631737-0fa4-44a6-b227-7ba1d7345015","{""num_scrambled_semantic"":""8"",""num_scrambled_causal"":""4"",""num_scrambled_schematic"":""4"",""participantId"":""1F026B3DA02E42E4B3914FD41B21D716"",""assignmentId"":""d4cda327-6f3e-4e83-8f22-28d4359b406a"",""projectId"":""5e631737-0fa4-44a6-b227-7ba1d7345015""}","https://test12345.live/?num_scrambled_semantic=8&num_scrambled_causal=4&num_scrambled_schematic=4&participantId=1F026B3DA02E42E4B3914FD41B21D716&assignmentId=d4cda327-6f3e-4e83-8f22-28d4359b406a&projectId=5e631737-0fa4-44a6-b227-7ba1d7345015","1F026B3DA02E42E4B3914FD41B21D716-2025-05-27-20-25-49","","null","","images/causal_sequence/package_causal/package_causal_2.png","null","",""
"","","","","","image-button-response","93","859141","0.0-14.0-1.0-1.1","1F026B3DA02E42E4B3914FD41B21D716","1F026B3DA02E42E4B3914FD41B21D716","d4cda327-6f3e-4e83-8f22-28d4359b406a","5e631737-0fa4-44a6-b227-7ba1d7345015","{""num_scrambled_semantic"":""8"",""num_scrambled_causal"":""4"",""num_scrambled_schematic"":""4"",""participantId"":""1F026B3DA02E42E4B3914FD41B21D716"",""assignmentId"":""d4cda327-6f3e-4e83-8f22-28d4359b406a"",""projectId"":""5e631737-0fa4-44a6-b227-7ba1d7345015""}","https://test12345.live/?num_scrambled_semantic=8&num_scrambled_causal=4&num_scrambled_schematic=4&participantId=1F026B3DA02E42E4B3914FD41B21D716&assignmentId=d4cda327-6f3e-4e83-8f22-28d4359b406a&projectId=5e631737-0fa4-44a6-b227-7ba1d7345015","1F026B3DA02E42E4B3914FD41B21D716-2025-05-27-20-25-49","","480","","images/causal_sequence/package_causal/package_causal_2.png","0","",""
"","","","","","image-button-response","94","860945","0.0-14.0-1.0-2.1","1F026B3DA02E42E4B3914FD41B21D716","1F026B3DA02E42E4B3914FD41B21D716","d4cda327-6f3e-4e83-8f22-28d4359b406a","5e631737-0fa4-44a6-b227-7ba1d7345015","{""num_scrambled_semantic"":""8"",""num_scrambled_causal"":""4"",""num_scrambled_schematic"":""4"",""participantId"":""1F026B3DA02E42E4B3914FD41B21D716"",""assignmentId"":""d4cda327-6f3e-4e83-8f22-28d4359b406a"",""projectId"":""5e631737-0fa4-44a6-b227-7ba1d7345015""}","https://test12345.live/?num_scrambled_semantic=8&num_scrambled_causal=4&num_scrambled_schematic=4&participantId=1F026B3DA02E42E4B3914FD41B21D716&assignmentId=d4cda327-6f3e-4e83-8f22-28d4359b406a&projectId=5e631737-0fa4-44a6-b227-7ba1d7345015","1F026B3DA02E42E4B3914FD41B21D716-2025-05-27-20-25-49","","null","","[]","null","",""
"","","","","","image-button-response","95","865449","0.0-14.0-1.0-0.2","1F026B3DA02E42E4B3914FD41B21D716","1F026B3DA02E42E4B3914FD41B21D716","d4cda327-6f3e-4e83-8f22-28d4359b406a","5e631737-0fa4-44a6-b227-7ba1d7345015","{""num_scrambled_semantic"":""8"",""num_scrambled_causal"":""4"",""num_scrambled_schematic"":""4"",""participantId"":""1F026B3DA02E42E4B3914FD41B21D716"",""assignmentId"":""d4cda327-6f3e-4e83-8f22-28d4359b406a"",""projectId"":""5e631737-0fa4-44a6-b227-7ba1d7345015""}","https://test12345.live/?num_scrambled_semantic=8&num_scrambled_causal=4&num_scrambled_schematic=4&participantId=1F026B3DA02E42E4B3914FD41B21D716&assignmentId=d4cda327-6f3e-4e83-8f22-28d4359b406a&projectId=5e631737-0fa4-44a6-b227-7ba1d7345015","1F026B3DA02E42E4B3914FD41B21D716-2025-05-27-20-25-49","","null","","images/causal_sequence/package_causal/package_causal_3.png","null","",""
"","","","","","image-button-response","96","865980","0.0-14.0-1.0-1.2","1F026B3DA02E42E4B3914FD41B21D716","1F026B3DA02E42E4B3914FD41B21D716","d4cda327-6f3e-4e83-8f22-28d4359b406a","5e631737-0fa4-44a6-b227-7ba1d7345015","{""num_scrambled_semantic"":""8"",""num_scrambled_causal"":""4"",""num_scrambled_schematic"":""4"",""participantId"":""1F026B3DA02E42E4B3914FD41B21D716"",""assignmentId"":""d4cda327-6f3e-4e83-8f22-28d4359b406a"",""projectId"":""5e631737-0fa4-44a6-b227-7ba1d7345015""}","https://test12345.live/?num_scrambled_semantic=8&num_scrambled_causal=4&num_scrambled_schematic=4&participantId=1F026B3DA02E42E4B3914FD41B21D716&assignmentId=d4cda327-6f3e-4e83-8f22-28d4359b406a&projectId=5e631737-0fa4-44a6-b227-7ba1d7345015","1F026B3DA02E42E4B3914FD41B21D716-2025-05-27-20-25-49","","529","","images/causal_sequence/package_causal/package_causal_3.png","0","",""
"","","","","","image-button-response","97","867785","0.0-14.0-1.0-2.2","1F026B3DA02E42E4B3914FD41B21D716","1F026B3DA02E42E4B3914FD41B21D716","d4cda327-6f3e-4e83-8f22-28d4359b406a","5e631737-0fa4-44a6-b227-7ba1d7345015","{""num_scrambled_semantic"":""8"",""num_scrambled_causal"":""4"",""num_scrambled_schematic"":""4"",""participantId"":""1F026B3DA02E42E4B3914FD41B21D716"",""assignmentId"":""d4cda327-6f3e-4e83-8f22-28d4359b406a"",""projectId"":""5e631737-0fa4-44a6-b227-7ba1d7345015""}","https://test12345.live/?num_scrambled_semantic=8&num_scrambled_causal=4&num_scrambled_schematic=4&participantId=1F026B3DA02E42E4B3914FD41B21D716&assignmentId=d4cda327-6f3e-4e83-8f22-28d4359b406a&projectId=5e631737-0fa4-44a6-b227-7ba1d7345015","1F026B3DA02E42E4B3914FD41B21D716-2025-05-27-20-25-49","","null","","[]","null","",""
"","","","","","image-button-response","98","872290","0.0-14.0-1.0-0.3","1F026B3DA02E42E4B3914FD41B21D716","1F026B3DA02E42E4B3914FD41B21D716","d4cda327-6f3e-4e83-8f22-28d4359b406a","5e631737-0fa4-44a6-b227-7ba1d7345015","{""num_scrambled_semantic"":""8"",""num_scrambled_causal"":""4"",""num_scrambled_schematic"":""4"",""participantId"":""1F026B3DA02E42E4B3914FD41B21D716"",""assignmentId"":""d4cda327-6f3e-4e83-8f22-28d4359b406a"",""projectId"":""5e631737-0fa4-44a6-b227-7ba1d7345015""}","https://test12345.live/?num_scrambled_semantic=8&num_scrambled_causal=4&num_scrambled_schematic=4&participantId=1F026B3DA02E42E4B3914FD41B21D716&assignmentId=d4cda327-6f3e-4e83-8f22-28d4359b406a&projectId=5e631737-0fa4-44a6-b227-7ba1d7345015","1F026B3DA02E42E4B3914FD41B21D716-2025-05-27-20-25-49","","null","","images/causal_sequence/package_causal/package_causal_ten.png","null","",""
"","","","","","image-button-response","99","872830","0.0-14.0-1.0-1.3","1F026B3DA02E42E4B3914FD41B21D716","1F026B3DA02E42E4B3914FD41B21D716","d4cda327-6f3e-4e83-8f22-28d4359b406a","5e631737-0fa4-44a6-b227-7ba1d7345015","{""num_scrambled_semantic"":""8"",""num_scrambled_causal"":""4"",""num_scrambled_schematic"":""4"",""participantId"":""1F026B3DA02E42E4B3914FD41B21D716"",""assignmentId"":""d4cda327-6f3e-4e83-8f22-28d4359b406a"",""projectId"":""5e631737-0fa4-44a6-b227-7ba1d7345015""}","https://test12345.live/?num_scrambled_semantic=8&num_scrambled_causal=4&num_scrambled_schematic=4&participantId=1F026B3DA02E42E4B3914FD41B21D716&assignmentId=d4cda327-6f3e-4e83-8f22-28d4359b406a&projectId=5e631737-0fa4-44a6-b227-7ba1d7345015","1F026B3DA02E42E4B3914FD41B21D716-2025-05-27-20-25-49","","538","","images/causal_sequence/package_causal/package_causal_ten.png","0","",""
"","","","","","image-button-response","100","874635","0.0-14.0-1.0-2.3","1F026B3DA02E42E4B3914FD41B21D716","1F026B3DA02E42E4B3914FD41B21D716","d4cda327-6f3e-4e83-8f22-28d4359b406a","5e631737-0fa4-44a6-b227-7ba1d7345015","{""num_scrambled_semantic"":""8"",""num_scrambled_causal"":""4"",""num_scrambled_schematic"":""4"",""participantId"":""1F026B3DA02E42E4B3914FD41B21D716"",""assignmentId"":""d4cda327-6f3e-4e83-8f22-28d4359b406a"",""projectId"":""5e631737-0fa4-44a6-b227-7ba1d7345015""}","https://test12345.live/?num_scrambled_semantic=8&num_scrambled_causal=4&num_scrambled_schematic=4&participantId=1F026B3DA02E42E4B3914FD41B21D716&assignmentId=d4cda327-6f3e-4e83-8f22-28d4359b406a&projectId=5e631737-0fa4-44a6-b227-7ba1d7345015","1F026B3DA02E42E4B3914FD41B21D716-2025-05-27-20-25-49","","null","","[]","null","",""
"","","","","","image-button-response","101","879138","0.0-14.0-1.0-0.4","1F026B3DA02E42E4B3914FD41B21D716","1F026B3DA02E42E4B3914FD41B21D716","d4cda327-6f3e-4e83-8f22-28d4359b406a","5e631737-0fa4-44a6-b227-7ba1d7345015","{""num_scrambled_semantic"":""8"",""num_scrambled_causal"":""4"",""num_scrambled_schematic"":""4"",""participantId"":""1F026B3DA02E42E4B3914FD41B21D716"",""assignmentId"":""d4cda327-6f3e-4e83-8f22-28d4359b406a"",""projectId"":""5e631737-0fa4-44a6-b227-7ba1d7345015""}","https://test12345.live/?num_scrambled_semantic=8&num_scrambled_causal=4&num_scrambled_schematic=4&participantId=1F026B3DA02E42E4B3914FD41B21D716&assignmentId=d4cda327-6f3e-4e83-8f22-28d4359b406a&projectId=5e631737-0fa4-44a6-b227-7ba1d7345015","1F026B3DA02E42E4B3914FD41B21D716-2025-05-27-20-25-49","","null","","images/causal_sequence/package_causal/package_causal_6.png","null","",""
"","","","","","image-button-response","102","879626","0.0-14.0-1.0-1.4","1F026B3DA02E42E4B3914FD41B21D716","1F026B3DA02E42E4B3914FD41B21D716","d4cda327-6f3e-4e83-8f22-28d4359b406a","5e631737-0fa4-44a6-b227-7ba1d7345015","{""num_scrambled_semantic"":""8"",""num_scrambled_causal"":""4"",""num_scrambled_schematic"":""4"",""participantId"":""1F026B3DA02E42E4B3914FD41B21D716"",""assignmentId"":""d4cda327-6f3e-4e83-8f22-28d4359b406a"",""projectId"":""5e631737-0fa4-44a6-b227-7ba1d7345015""}","https://test12345.live/?num_scrambled_semantic=8&num_scrambled_causal=4&num_scrambled_schematic=4&participantId=1F026B3DA02E42E4B3914FD41B21D716&assignmentId=d4cda327-6f3e-4e83-8f22-28d4359b406a&projectId=5e631737-0fa4-44a6-b227-7ba1d7345015","1F026B3DA02E42E4B3914FD41B21D716-2025-05-27-20-25-49","","486","","images/causal_sequence/package_causal/package_causal_6.png","0","",""
"","","","","","image-button-response","103","881432","0.0-14.0-1.0-2.4","1F026B3DA02E42E4B3914FD41B21D716","1F026B3DA02E42E4B3914FD41B21D716","d4cda327-6f3e-4e83-8f22-28d4359b406a","5e631737-0fa4-44a6-b227-7ba1d7345015","{""num_scrambled_semantic"":""8"",""num_scrambled_causal"":""4"",""num_scrambled_schematic"":""4"",""participantId"":""1F026B3DA02E42E4B3914FD41B21D716"",""assignmentId"":""d4cda327-6f3e-4e83-8f22-28d4359b406a"",""projectId"":""5e631737-0fa4-44a6-b227-7ba1d7345015""}","https://test12345.live/?num_scrambled_semantic=8&num_scrambled_causal=4&num_scrambled_schematic=4&participantId=1F026B3DA02E42E4B3914FD41B21D716&assignmentId=d4cda327-6f3e-4e83-8f22-28d4359b406a&projectId=5e631737-0fa4-44a6-b227-7ba1d7345015","1F026B3DA02E42E4B3914FD41B21D716-2025-05-27-20-25-49","","null","","[]","null","",""
"","","","","","image-button-response","104","885938","0.0-14.0-1.0-0.5","1F026B3DA02E42E4B3914FD41B21D716","1F026B3DA02E42E4B3914FD41B21D716","d4cda327-6f3e-4e83-8f22-28d4359b406a","5e631737-0fa4-44a6-b227-7ba1d7345015","{""num_scrambled_semantic"":""8"",""num_scrambled_causal"":""4"",""num_scrambled_schematic"":""4"",""participantId"":""1F026B3DA02E42E4B3914FD41B21D716"",""assignmentId"":""d4cda327-6f3e-4e83-8f22-28d4359b406a"",""projectId"":""5e631737-0fa4-44a6-b227-7ba1d7345015""}","https://test12345.live/?num_scrambled_semantic=8&num_scrambled_causal=4&num_scrambled_schematic=4&participantId=1F026B3DA02E42E4B3914FD41B21D716&assignmentId=d4cda327-6f3e-4e83-8f22-28d4359b406a&projectId=5e631737-0fa4-44a6-b227-7ba1d7345015","1F026B3DA02E42E4B3914FD41B21D716-2025-05-27-20-25-49","","null","","images/causal_sequence/package_causal/package_causal_4.png","null","",""
"","","","","","image-button-response","105","886367","0.0-14.0-1.0-1.5","1F026B3DA02E42E4B3914FD41B21D716","1F026B3DA02E42E4B3914FD41B21D716","d4cda327-6f3e-4e83-8f22-28d4359b406a","5e631737-0fa4-44a6-b227-7ba1d7345015","{""num_scrambled_semantic"":""8"",""num_scrambled_causal"":""4"",""num_scrambled_schematic"":""4"",""participantId"":""1F026B3DA02E42E4B3914FD41B21D716"",""assignmentId"":""d4cda327-6f3e-4e83-8f22-28d4359b406a"",""projectId"":""5e631737-0fa4-44a6-b227-7ba1d7345015""}","https://test12345.live/?num_scrambled_semantic=8&num_scrambled_causal=4&num_scrambled_schematic=4&participantId=1F026B3DA02E42E4B3914FD41B21D716&assignmentId=d4cda327-6f3e-4e83-8f22-28d4359b406a&projectId=5e631737-0fa4-44a6-b227-7ba1d7345015","1F026B3DA02E42E4B3914FD41B21D716-2025-05-27-20-25-49","","427","","images/causal_sequence/package_causal/package_causal_4.png","1","",""
"","","","","","image-button-response","106","888173","0.0-14.0-1.0-2.5","1F026B3DA02E42E4B3914FD41B21D716","1F026B3DA02E42E4B3914FD41B21D716","d4cda327-6f3e-4e83-8f22-28d4359b406a","5e631737-0fa4-44a6-b227-7ba1d7345015","{""num_scrambled_semantic"":""8"",""num_scrambled_causal"":""4"",""num_scrambled_schematic"":""4"",""participantId"":""1F026B3DA02E42E4B3914FD41B21D716"",""assignmentId"":""d4cda327-6f3e-4e83-8f22-28d4359b406a"",""projectId"":""5e631737-0fa4-44a6-b227-7ba1d7345015""}","https://test12345.live/?num_scrambled_semantic=8&num_scrambled_causal=4&num_scrambled_schematic=4&participantId=1F026B3DA02E42E4B3914FD41B21D716&assignmentId=d4cda327-6f3e-4e83-8f22-28d4359b406a&projectId=5e631737-0fa4-44a6-b227-7ba1d7345015","1F026B3DA02E42E4B3914FD41B21D716-2025-05-27-20-25-49","","null","","[]","null","",""
"","","","","","image-button-response","107","892678","0.0-14.0-1.0-0.6","1F026B3DA02E42E4B3914FD41B21D716","1F026B3DA02E42E4B3914FD41B21D716","d4cda327-6f3e-4e83-8f22-28d4359b406a","5e631737-0fa4-44a6-b227-7ba1d7345015","{""num_scrambled_semantic"":""8"",""num_scrambled_causal"":""4"",""num_scrambled_schematic"":""4"",""participantId"":""1F026B3DA02E42E4B3914FD41B21D716"",""assignmentId"":""d4cda327-6f3e-4e83-8f22-28d4359b406a"",""projectId"":""5e631737-0fa4-44a6-b227-7ba1d7345015""}","https://test12345.live/?num_scrambled_semantic=8&num_scrambled_causal=4&num_scrambled_schematic=4&participantId=1F026B3DA02E42E4B3914FD41B21D716&assignmentId=d4cda327-6f3e-4e83-8f22-28d4359b406a&projectId=5e631737-0fa4-44a6-b227-7ba1d7345015","1F026B3DA02E42E4B3914FD41B21D716-2025-05-27-20-25-49","","null","","images/causal_sequence/package_causal/package_causal_9.png","null","",""
"","","","","","image-button-response","108","894137","0.0-14.0-1.0-1.6","1F026B3DA02E42E4B3914FD41B21D716","1F026B3DA02E42E4B3914FD41B21D716","d4cda327-6f3e-4e83-8f22-28d4359b406a","5e631737-0fa4-44a6-b227-7ba1d7345015","{""num_scrambled_semantic"":""8"",""num_scrambled_causal"":""4"",""num_scrambled_schematic"":""4"",""participantId"":""1F026B3DA02E42E4B3914FD41B21D716"",""assignmentId"":""d4cda327-6f3e-4e83-8f22-28d4359b406a"",""projectId"":""5e631737-0fa4-44a6-b227-7ba1d7345015""}","https://test12345.live/?num_scrambled_semantic=8&num_scrambled_causal=4&num_scrambled_schematic=4&participantId=1F026B3DA02E42E4B3914FD41B21D716&assignmentId=d4cda327-6f3e-4e83-8f22-28d4359b406a&projectId=5e631737-0fa4-44a6-b227-7ba1d7345015","1F026B3DA02E42E4B3914FD41B21D716-2025-05-27-20-25-49","","1457","","images/causal_sequence/package_causal/package_causal_9.png","0","",""
"","","","","","image-button-response","109","895942","0.0-14.0-1.0-2.6","1F026B3DA02E42E4B3914FD41B21D716","1F026B3DA02E42E4B3914FD41B21D716","d4cda327-6f3e-4e83-8f22-28d4359b406a","5e631737-0fa4-44a6-b227-7ba1d7345015","{""num_scrambled_semantic"":""8"",""num_scrambled_causal"":""4"",""num_scrambled_schematic"":""4"",""participantId"":""1F026B3DA02E42E4B3914FD41B21D716"",""assignmentId"":""d4cda327-6f3e-4e83-8f22-28d4359b406a"",""projectId"":""5e631737-0fa4-44a6-b227-7ba1d7345015""}","https://test12345.live/?num_scrambled_semantic=8&num_scrambled_causal=4&num_scrambled_schematic=4&participantId=1F026B3DA02E42E4B3914FD41B21D716&assignmentId=d4cda327-6f3e-4e83-8f22-28d4359b406a&projectId=5e631737-0fa4-44a6-b227-7ba1d7345015","1F026B3DA02E42E4B3914FD41B21D716-2025-05-27-20-25-49","","null","","[]","null","",""
"","","","","","image-button-response","110","900446","0.0-14.0-1.0-0.7","1F026B3DA02E42E4B3914FD41B21D716","1F026B3DA02E42E4B3914FD41B21D716","d4cda327-6f3e-4e83-8f22-28d4359b406a","5e631737-0fa4-44a6-b227-7ba1d7345015","{""num_scrambled_semantic"":""8"",""num_scrambled_causal"":""4"",""num_scrambled_schematic"":""4"",""participantId"":""1F026B3DA02E42E4B3914FD41B21D716"",""assignmentId"":""d4cda327-6f3e-4e83-8f22-28d4359b406a"",""projectId"":""5e631737-0fa4-44a6-b227-7ba1d7345015""}","https://test12345.live/?num_scrambled_semantic=8&num_scrambled_causal=4&num_scrambled_schematic=4&participantId=1F026B3DA02E42E4B3914FD41B21D716&assignmentId=d4cda327-6f3e-4e83-8f22-28d4359b406a&projectId=5e631737-0fa4-44a6-b227-7ba1d7345015","1F026B3DA02E42E4B3914FD41B21D716-2025-05-27-20-25-49","","null","","images/causal_sequence/package_causal/package_causal_1.png","null","",""
"","","","","","image-button-response","111","901229","0.0-14.0-1.0-1.7","1F026B3DA02E42E4B3914FD41B21D716","1F026B3DA02E42E4B3914FD41B21D716","d4cda327-6f3e-4e83-8f22-28d4359b406a","5e631737-0fa4-44a6-b227-7ba1d7345015","{""num_scrambled_semantic"":""8"",""num_scrambled_causal"":""4"",""num_scrambled_schematic"":""4"",""participantId"":""1F026B3DA02E42E4B3914FD41B21D716"",""assignmentId"":""d4cda327-6f3e-4e83-8f22-28d4359b406a"",""projectId"":""5e631737-0fa4-44a6-b227-7ba1d7345015""}","https://test12345.live/?num_scrambled_semantic=8&num_scrambled_causal=4&num_scrambled_schematic=4&participantId=1F026B3DA02E42E4B3914FD41B21D716&assignmentId=d4cda327-6f3e-4e83-8f22-28d4359b406a&projectId=5e631737-0fa4-44a6-b227-7ba1d7345015","1F026B3DA02E42E4B3914FD41B21D716-2025-05-27-20-25-49","","780","","images/causal_sequence/package_causal/package_causal_1.png","0","",""
"","","","","","image-button-response","112","903035","0.0-14.0-1.0-2.7","1F026B3DA02E42E4B3914FD41B21D716","1F026B3DA02E42E4B3914FD41B21D716","d4cda327-6f3e-4e83-8f22-28d4359b406a","5e631737-0fa4-44a6-b227-7ba1d7345015","{""num_scrambled_semantic"":""8"",""num_scrambled_causal"":""4"",""num_scrambled_schematic"":""4"",""participantId"":""1F026B3DA02E42E4B3914FD41B21D716"",""assignmentId"":""d4cda327-6f3e-4e83-8f22-28d4359b406a"",""projectId"":""5e631737-0fa4-44a6-b227-7ba1d7345015""}","https://test12345.live/?num_scrambled_semantic=8&num_scrambled_causal=4&num_scrambled_schematic=4&participantId=1F026B3DA02E42E4B3914FD41B21D716&assignmentId=d4cda327-6f3e-4e83-8f22-28d4359b406a&projectId=5e631737-0fa4-44a6-b227-7ba1d7345015","1F026B3DA02E42E4B3914FD41B21D716-2025-05-27-20-25-49","","null","","[]","null","",""
"","","","","","image-button-response","113","907538","0.0-14.0-1.0-0.8","1F026B3DA02E42E4B3914FD41B21D716","1F026B3DA02E42E4B3914FD41B21D716","d4cda327-6f3e-4e83-8f22-28d4359b406a","5e631737-0fa4-44a6-b227-7ba1d7345015","{""num_scrambled_semantic"":""8"",""num_scrambled_causal"":""4"",""num_scrambled_schematic"":""4"",""participantId"":""1F026B3DA02E42E4B3914FD41B21D716"",""assignmentId"":""d4cda327-6f3e-4e83-8f22-28d4359b406a"",""projectId"":""5e631737-0fa4-44a6-b227-7ba1d7345015""}","https://test12345.live/?num_scrambled_semantic=8&num_scrambled_causal=4&num_scrambled_schematic=4&participantId=1F026B3DA02E42E4B3914FD41B21D716&assignmentId=d4cda327-6f3e-4e83-8f22-28d4359b406a&projectId=5e631737-0fa4-44a6-b227-7ba1d7345015","1F026B3DA02E42E4B3914FD41B21D716-2025-05-27-20-25-49","","null","","images/causal_sequence/package_causal/package_causal_5.png","null","",""
"","","","","","image-button-response","114","908073","0.0-14.0-1.0-1.8","1F026B3DA02E42E4B3914FD41B21D716","1F026B3DA02E42E4B3914FD41B21D716","d4cda327-6f3e-4e83-8f22-28d4359b406a","5e631737-0fa4-44a6-b227-7ba1d7345015","{""num_scrambled_semantic"":""8"",""num_scrambled_causal"":""4"",""num_scrambled_schematic"":""4"",""participantId"":""1F026B3DA02E42E4B3914FD41B21D716"",""assignmentId"":""d4cda327-6f3e-4e83-8f22-28d4359b406a"",""projectId"":""5e631737-0fa4-44a6-b227-7ba1d7345015""}","https://test12345.live/?num_scrambled_semantic=8&num_scrambled_causal=4&num_scrambled_schematic=4&participantId=1F026B3DA02E42E4B3914FD41B21D716&assignmentId=d4cda327-6f3e-4e83-8f22-28d4359b406a&projectId=5e631737-0fa4-44a6-b227-7ba1d7345015","1F026B3DA02E42E4B3914FD41B21D716-2025-05-27-20-25-49","","533","","images/causal_sequence/package_causal/package_causal_5.png","0","",""
