"success","timeout","failed_images","failed_audio","failed_video","trial_type","trial_index","time_elapsed","internal_node_id","subject","subject_id","study_id","session_id","urlvar","current_url","audio_id","view_history","rt","device_id","stimulus","response","estimated_stimulus_onset","seq_name"
"true","false","[]","[]","[]","preload","0","8188","0.0-0.0","1F6D14219DB14F748F80AE9837CEEDF0","1F6D14219DB14F748F80AE9837CEEDF0","3c38df97-5bea-40e9-b030-d912dbaae88e","6d972c12-ef4f-4967-baa7-815328c4c025","{""num_scrambled_semantic"":""8"",""num_scrambled_causal"":""4"",""num_scrambled_schematic"":""4"",""participantId"":""1F6D14219DB14F748F80AE9837CEEDF0"",""assignmentId"":""3c38df97-5bea-40e9-b030-d912dbaae88e"",""projectId"":""6d972c12-ef4f-4967-baa7-815328c4c025""}","https://test12345.live/?num_scrambled_semantic=8&num_scrambled_causal=4&num_scrambled_schematic=4&participantId=1F6D14219DB14F748F80AE9837CEEDF0&assignmentId=3c38df97-5bea-40e9-b030-d912dbaae88e&projectId=6d972c12-ef4f-4967-baa7-815328c4c025","1F6D14219DB14F748F80AE9837CEEDF0-2025-08-07-18-27-36","","","","","","",""
"","","","","","instructions","1","39324","0.0-1.0","1F6D14219DB14F748F80AE9837CEEDF0","1F6D14219DB14F748F80AE9837CEEDF0","3c38df97-5bea-40e9-b030-d912dbaae88e","6d972c12-ef4f-4967-baa7-815328c4c025","{""num_scrambled_semantic"":""8"",""num_scrambled_causal"":""4"",""num_scrambled_schematic"":""4"",""participantId"":""1F6D14219DB14F748F80AE9837CEEDF0"",""assignmentId"":""3c38df97-5bea-40e9-b030-d912dbaae88e"",""projectId"":""6d972c12-ef4f-4967-baa7-815328c4c025""}","https://test12345.live/?num_scrambled_semantic=8&num_scrambled_causal=4&num_scrambled_schematic=4&participantId=1F6D14219DB14F748F80AE9837CEEDF0&assignmentId=3c38df97-5bea-40e9-b030-d912dbaae88e&projectId=6d972c12-ef4f-4967-baa7-815328c4c025","1F6D14219DB14F748F80AE9837CEEDF0-2025-08-07-18-27-36","[{""page_index"":0,""viewing_time"":31135}]","31135","","","","",""
"","","","","","instructions","2","42487","0.0-2.0","1F6D14219DB14F748F80AE9837CEEDF0","1F6D14219DB14F748F80AE9837CEEDF0","3c38df97-5bea-40e9-b030-d912dbaae88e","6d972c12-ef4f-4967-baa7-815328c4c025","{""num_scrambled_semantic"":""8"",""num_scrambled_causal"":""4"",""num_scrambled_schematic"":""4"",""participantId"":""1F6D14219DB14F748F80AE9837CEEDF0"",""assignmentId"":""3c38df97-5bea-40e9-b030-d912dbaae88e"",""projectId"":""6d972c12-ef4f-4967-baa7-815328c4c025""}","https://test12345.live/?num_scrambled_semantic=8&num_scrambled_causal=4&num_scrambled_schematic=4&participantId=1F6D14219DB14F748F80AE9837CEEDF0&assignmentId=3c38df97-5bea-40e9-b030-d912dbaae88e&projectId=6d972c12-ef4f-4967-baa7-815328c4c025","1F6D14219DB14F748F80AE9837CEEDF0-2025-08-07-18-27-36","[{""page_index"":0,""viewing_time"":3162}]","3162","","","","",""
"true","","","","","fullscreen","3","49259","0.0-3.0","1F6D14219DB14F748F80AE9837CEEDF0","1F6D14219DB14F748F80AE9837CEEDF0","3c38df97-5bea-40e9-b030-d912dbaae88e","6d972c12-ef4f-4967-baa7-815328c4c025","{""num_scrambled_semantic"":""8"",""num_scrambled_causal"":""4"",""num_scrambled_schematic"":""4"",""participantId"":""1F6D14219DB14F748F80AE9837CEEDF0"",""assignmentId"":""3c38df97-5bea-40e9-b030-d912dbaae88e"",""projectId"":""6d972c12-ef4f-4967-baa7-815328c4c025""}","https://test12345.live/?num_scrambled_semantic=8&num_scrambled_causal=4&num_scrambled_schematic=4&participantId=1F6D14219DB14F748F80AE9837CEEDF0&assignmentId=3c38df97-5bea-40e9-b030-d912dbaae88e&projectId=6d972c12-ef4f-4967-baa7-815328c4c025","1F6D14219DB14F748F80AE9837CEEDF0-2025-08-07-18-27-36","","5761","","","","",""
"","","","","","initialize-microphone","4","148569","0.0-4.0-0.0","1F6D14219DB14F748F80AE9837CEEDF0","1F6D14219DB14F748F80AE9837CEEDF0","3c38df97-5bea-40e9-b030-d912dbaae88e","6d972c12-ef4f-4967-baa7-815328c4c025","{""num_scrambled_semantic"":""8"",""num_scrambled_causal"":""4"",""num_scrambled_schematic"":""4"",""participantId"":""1F6D14219DB14F748F80AE9837CEEDF0"",""assignmentId"":""3c38df97-5bea-40e9-b030-d912dbaae88e"",""projectId"":""6d972c12-ef4f-4967-baa7-815328c4c025""}","https://test12345.live/?num_scrambled_semantic=8&num_scrambled_causal=4&num_scrambled_schematic=4&participantId=1F6D14219DB14F748F80AE9837CEEDF0&assignmentId=3c38df97-5bea-40e9-b030-d912dbaae88e&projectId=6d972c12-ef4f-4967-baa7-815328c4c025","1F6D14219DB14F748F80AE9837CEEDF0-2025-08-07-18-27-36","","","c546acc125201e90853449396e4112f4e527eb5d40329d9c9f5c1a865eb209f9","","","",""
"","","","","","html-audio-response","5","358409","0.0-4.0-1.0","1F6D14219DB14F748F80AE9837CEEDF0","1F6D14219DB14F748F80AE9837CEEDF0","3c38df97-5bea-40e9-b030-d912dbaae88e","6d972c12-ef4f-4967-baa7-815328c4c025","{""num_scrambled_semantic"":""8"",""num_scrambled_causal"":""4"",""num_scrambled_schematic"":""4"",""participantId"":""1F6D14219DB14F748F80AE9837CEEDF0"",""assignmentId"":""3c38df97-5bea-40e9-b030-d912dbaae88e"",""projectId"":""6d972c12-ef4f-4967-baa7-815328c4c025""}","https://test12345.live/?num_scrambled_semantic=8&num_scrambled_causal=4&num_scrambled_schematic=4&participantId=1F6D14219DB14F748F80AE9837CEEDF0&assignmentId=3c38df97-5bea-40e9-b030-d912dbaae88e&projectId=6d972c12-ef4f-4967-baa7-815328c4c025","1F6D14219DB14F748F80AE9837CEEDF0-2025-08-07-18-27-36","","2522","","<span style=""color: red; font-size: 24px""> NOW RECORDING</span>
        <p>Please test Microphone</p>","","4",""
"","","","","","html-button-response","6","359935","0.0-4.0-2.0","1F6D14219DB14F748F80AE9837CEEDF0","1F6D14219DB14F748F80AE9837CEEDF0","3c38df97-5bea-40e9-b030-d912dbaae88e","6d972c12-ef4f-4967-baa7-815328c4c025","{""num_scrambled_semantic"":""8"",""num_scrambled_causal"":""4"",""num_scrambled_schematic"":""4"",""participantId"":""1F6D14219DB14F748F80AE9837CEEDF0"",""assignmentId"":""3c38df97-5bea-40e9-b030-d912dbaae88e"",""projectId"":""6d972c12-ef4f-4967-baa7-815328c4c025""}","https://test12345.live/?num_scrambled_semantic=8&num_scrambled_causal=4&num_scrambled_schematic=4&participantId=1F6D14219DB14F748F80AE9837CEEDF0&assignmentId=3c38df97-5bea-40e9-b030-d912dbaae88e&projectId=6d972c12-ef4f-4967-baa7-815328c4c025","1F6D14219DB14F748F80AE9837CEEDF0-2025-08-07-18-27-36","","1525","","<p style=""font-size:48px; color:red;"">Is Microphone OK?</p>","1","",""
"","","","","","instructions","7","397144","0.0-5.0","1F6D14219DB14F748F80AE9837CEEDF0","1F6D14219DB14F748F80AE9837CEEDF0","3c38df97-5bea-40e9-b030-d912dbaae88e","6d972c12-ef4f-4967-baa7-815328c4c025","{""num_scrambled_semantic"":""8"",""num_scrambled_causal"":""4"",""num_scrambled_schematic"":""4"",""participantId"":""1F6D14219DB14F748F80AE9837CEEDF0"",""assignmentId"":""3c38df97-5bea-40e9-b030-d912dbaae88e"",""projectId"":""6d972c12-ef4f-4967-baa7-815328c4c025""}","https://test12345.live/?num_scrambled_semantic=8&num_scrambled_causal=4&num_scrambled_schematic=4&participantId=1F6D14219DB14F748F80AE9837CEEDF0&assignmentId=3c38df97-5bea-40e9-b030-d912dbaae88e&projectId=6d972c12-ef4f-4967-baa7-815328c4c025","1F6D14219DB14F748F80AE9837CEEDF0-2025-08-07-18-27-36","[{""page_index"":0,""viewing_time"":3392},{""page_index"":1,""viewing_time"":33816}]","37208","","","","",""
"","","","","","image-button-response","8","403147","0.0-6.0-0.0","1F6D14219DB14F748F80AE9837CEEDF0","1F6D14219DB14F748F80AE9837CEEDF0","3c38df97-5bea-40e9-b030-d912dbaae88e","6d972c12-ef4f-4967-baa7-815328c4c025","{""num_scrambled_semantic"":""8"",""num_scrambled_causal"":""4"",""num_scrambled_schematic"":""4"",""participantId"":""1F6D14219DB14F748F80AE9837CEEDF0"",""assignmentId"":""3c38df97-5bea-40e9-b030-d912dbaae88e"",""projectId"":""6d972c12-ef4f-4967-baa7-815328c4c025""}","https://test12345.live/?num_scrambled_semantic=8&num_scrambled_causal=4&num_scrambled_schematic=4&participantId=1F6D14219DB14F748F80AE9837CEEDF0&assignmentId=3c38df97-5bea-40e9-b030-d912dbaae88e&projectId=6d972c12-ef4f-4967-baa7-815328c4c025","1F6D14219DB14F748F80AE9837CEEDF0-2025-08-07-18-27-36","","null","","images/instructions/movie_0.png","null","",""
"","","","","","image-button-response","9","407648","0.0-6.0-1.0-0.0","1F6D14219DB14F748F80AE9837CEEDF0","1F6D14219DB14F748F80AE9837CEEDF0","3c38df97-5bea-40e9-b030-d912dbaae88e","6d972c12-ef4f-4967-baa7-815328c4c025","{""num_scrambled_semantic"":""8"",""num_scrambled_causal"":""4"",""num_scrambled_schematic"":""4"",""participantId"":""1F6D14219DB14F748F80AE9837CEEDF0"",""assignmentId"":""3c38df97-5bea-40e9-b030-d912dbaae88e"",""projectId"":""6d972c12-ef4f-4967-baa7-815328c4c025""}","https://test12345.live/?num_scrambled_semantic=8&num_scrambled_causal=4&num_scrambled_schematic=4&participantId=1F6D14219DB14F748F80AE9837CEEDF0&assignmentId=3c38df97-5bea-40e9-b030-d912dbaae88e&projectId=6d972c12-ef4f-4967-baa7-815328c4c025","1F6D14219DB14F748F80AE9837CEEDF0-2025-08-07-18-27-36","","null","","images/instructions/movie_1.png","null","",""
"","","","","","image-button-response","10","410039","0.0-6.0-1.0-1.0","1F6D14219DB14F748F80AE9837CEEDF0","1F6D14219DB14F748F80AE9837CEEDF0","3c38df97-5bea-40e9-b030-d912dbaae88e","6d972c12-ef4f-4967-baa7-815328c4c025","{""num_scrambled_semantic"":""8"",""num_scrambled_causal"":""4"",""num_scrambled_schematic"":""4"",""participantId"":""1F6D14219DB14F748F80AE9837CEEDF0"",""assignmentId"":""3c38df97-5bea-40e9-b030-d912dbaae88e"",""projectId"":""6d972c12-ef4f-4967-baa7-815328c4c025""}","https://test12345.live/?num_scrambled_semantic=8&num_scrambled_causal=4&num_scrambled_schematic=4&participantId=1F6D14219DB14F748F80AE9837CEEDF0&assignmentId=3c38df97-5bea-40e9-b030-d912dbaae88e&projectId=6d972c12-ef4f-4967-baa7-815328c4c025","1F6D14219DB14F748F80AE9837CEEDF0-2025-08-07-18-27-36","","2389","","images/instructions/movie_1.png","0","",""
"","","","","","image-button-response","11","411841","0.0-6.0-1.0-2.0","1F6D14219DB14F748F80AE9837CEEDF0","1F6D14219DB14F748F80AE9837CEEDF0","3c38df97-5bea-40e9-b030-d912dbaae88e","6d972c12-ef4f-4967-baa7-815328c4c025","{""num_scrambled_semantic"":""8"",""num_scrambled_causal"":""4"",""num_scrambled_schematic"":""4"",""participantId"":""1F6D14219DB14F748F80AE9837CEEDF0"",""assignmentId"":""3c38df97-5bea-40e9-b030-d912dbaae88e"",""projectId"":""6d972c12-ef4f-4967-baa7-815328c4c025""}","https://test12345.live/?num_scrambled_semantic=8&num_scrambled_causal=4&num_scrambled_schematic=4&participantId=1F6D14219DB14F748F80AE9837CEEDF0&assignmentId=3c38df97-5bea-40e9-b030-d912dbaae88e&projectId=6d972c12-ef4f-4967-baa7-815328c4c025","1F6D14219DB14F748F80AE9837CEEDF0-2025-08-07-18-27-36","","null","","[]","null","",""
"","","","","","image-button-response","12","416343","0.0-6.0-1.0-0.1","1F6D14219DB14F748F80AE9837CEEDF0","1F6D14219DB14F748F80AE9837CEEDF0","3c38df97-5bea-40e9-b030-d912dbaae88e","6d972c12-ef4f-4967-baa7-815328c4c025","{""num_scrambled_semantic"":""8"",""num_scrambled_causal"":""4"",""num_scrambled_schematic"":""4"",""participantId"":""1F6D14219DB14F748F80AE9837CEEDF0"",""assignmentId"":""3c38df97-5bea-40e9-b030-d912dbaae88e"",""projectId"":""6d972c12-ef4f-4967-baa7-815328c4c025""}","https://test12345.live/?num_scrambled_semantic=8&num_scrambled_causal=4&num_scrambled_schematic=4&participantId=1F6D14219DB14F748F80AE9837CEEDF0&assignmentId=3c38df97-5bea-40e9-b030-d912dbaae88e&projectId=6d972c12-ef4f-4967-baa7-815328c4c025","1F6D14219DB14F748F80AE9837CEEDF0-2025-08-07-18-27-36","","null","","images/instructions/movie_2.png","null","",""
"","","","","","image-button-response","13","419378","0.0-6.0-1.0-1.1","1F6D14219DB14F748F80AE9837CEEDF0","1F6D14219DB14F748F80AE9837CEEDF0","3c38df97-5bea-40e9-b030-d912dbaae88e","6d972c12-ef4f-4967-baa7-815328c4c025","{""num_scrambled_semantic"":""8"",""num_scrambled_causal"":""4"",""num_scrambled_schematic"":""4"",""participantId"":""1F6D14219DB14F748F80AE9837CEEDF0"",""assignmentId"":""3c38df97-5bea-40e9-b030-d912dbaae88e"",""projectId"":""6d972c12-ef4f-4967-baa7-815328c4c025""}","https://test12345.live/?num_scrambled_semantic=8&num_scrambled_causal=4&num_scrambled_schematic=4&participantId=1F6D14219DB14F748F80AE9837CEEDF0&assignmentId=3c38df97-5bea-40e9-b030-d912dbaae88e&projectId=6d972c12-ef4f-4967-baa7-815328c4c025","1F6D14219DB14F748F80AE9837CEEDF0-2025-08-07-18-27-36","","3034","","images/instructions/movie_2.png","0","",""
"","","","","","image-button-response","14","421179","0.0-6.0-1.0-2.1","1F6D14219DB14F748F80AE9837CEEDF0","1F6D14219DB14F748F80AE9837CEEDF0","3c38df97-5bea-40e9-b030-d912dbaae88e","6d972c12-ef4f-4967-baa7-815328c4c025","{""num_scrambled_semantic"":""8"",""num_scrambled_causal"":""4"",""num_scrambled_schematic"":""4"",""participantId"":""1F6D14219DB14F748F80AE9837CEEDF0"",""assignmentId"":""3c38df97-5bea-40e9-b030-d912dbaae88e"",""projectId"":""6d972c12-ef4f-4967-baa7-815328c4c025""}","https://test12345.live/?num_scrambled_semantic=8&num_scrambled_causal=4&num_scrambled_schematic=4&participantId=1F6D14219DB14F748F80AE9837CEEDF0&assignmentId=3c38df97-5bea-40e9-b030-d912dbaae88e&projectId=6d972c12-ef4f-4967-baa7-815328c4c025","1F6D14219DB14F748F80AE9837CEEDF0-2025-08-07-18-27-36","","null","","[]","null","",""
"","","","","","image-button-response","15","425681","0.0-6.0-1.0-0.2","1F6D14219DB14F748F80AE9837CEEDF0","1F6D14219DB14F748F80AE9837CEEDF0","3c38df97-5bea-40e9-b030-d912dbaae88e","6d972c12-ef4f-4967-baa7-815328c4c025","{""num_scrambled_semantic"":""8"",""num_scrambled_causal"":""4"",""num_scrambled_schematic"":""4"",""participantId"":""1F6D14219DB14F748F80AE9837CEEDF0"",""assignmentId"":""3c38df97-5bea-40e9-b030-d912dbaae88e"",""projectId"":""6d972c12-ef4f-4967-baa7-815328c4c025""}","https://test12345.live/?num_scrambled_semantic=8&num_scrambled_causal=4&num_scrambled_schematic=4&participantId=1F6D14219DB14F748F80AE9837CEEDF0&assignmentId=3c38df97-5bea-40e9-b030-d912dbaae88e&projectId=6d972c12-ef4f-4967-baa7-815328c4c025","1F6D14219DB14F748F80AE9837CEEDF0-2025-08-07-18-27-36","","null","","images/instructions/movie_3.png","null","",""
"","","","","","image-button-response","16","426921","0.0-6.0-1.0-1.2","1F6D14219DB14F748F80AE9837CEEDF0","1F6D14219DB14F748F80AE9837CEEDF0","3c38df97-5bea-40e9-b030-d912dbaae88e","6d972c12-ef4f-4967-baa7-815328c4c025","{""num_scrambled_semantic"":""8"",""num_scrambled_causal"":""4"",""num_scrambled_schematic"":""4"",""participantId"":""1F6D14219DB14F748F80AE9837CEEDF0"",""assignmentId"":""3c38df97-5bea-40e9-b030-d912dbaae88e"",""projectId"":""6d972c12-ef4f-4967-baa7-815328c4c025""}","https://test12345.live/?num_scrambled_semantic=8&num_scrambled_causal=4&num_scrambled_schematic=4&participantId=1F6D14219DB14F748F80AE9837CEEDF0&assignmentId=3c38df97-5bea-40e9-b030-d912dbaae88e&projectId=6d972c12-ef4f-4967-baa7-815328c4c025","1F6D14219DB14F748F80AE9837CEEDF0-2025-08-07-18-27-36","","1239","","images/instructions/movie_3.png","0","",""
"","","","","","image-button-response","17","428723","0.0-6.0-1.0-2.2","1F6D14219DB14F748F80AE9837CEEDF0","1F6D14219DB14F748F80AE9837CEEDF0","3c38df97-5bea-40e9-b030-d912dbaae88e","6d972c12-ef4f-4967-baa7-815328c4c025","{""num_scrambled_semantic"":""8"",""num_scrambled_causal"":""4"",""num_scrambled_schematic"":""4"",""participantId"":""1F6D14219DB14F748F80AE9837CEEDF0"",""assignmentId"":""3c38df97-5bea-40e9-b030-d912dbaae88e"",""projectId"":""6d972c12-ef4f-4967-baa7-815328c4c025""}","https://test12345.live/?num_scrambled_semantic=8&num_scrambled_causal=4&num_scrambled_schematic=4&participantId=1F6D14219DB14F748F80AE9837CEEDF0&assignmentId=3c38df97-5bea-40e9-b030-d912dbaae88e&projectId=6d972c12-ef4f-4967-baa7-815328c4c025","1F6D14219DB14F748F80AE9837CEEDF0-2025-08-07-18-27-36","","null","","[]","null","",""
"","","","","","image-button-response","18","433224","0.0-6.0-1.0-0.3","1F6D14219DB14F748F80AE9837CEEDF0","1F6D14219DB14F748F80AE9837CEEDF0","3c38df97-5bea-40e9-b030-d912dbaae88e","6d972c12-ef4f-4967-baa7-815328c4c025","{""num_scrambled_semantic"":""8"",""num_scrambled_causal"":""4"",""num_scrambled_schematic"":""4"",""participantId"":""1F6D14219DB14F748F80AE9837CEEDF0"",""assignmentId"":""3c38df97-5bea-40e9-b030-d912dbaae88e"",""projectId"":""6d972c12-ef4f-4967-baa7-815328c4c025""}","https://test12345.live/?num_scrambled_semantic=8&num_scrambled_causal=4&num_scrambled_schematic=4&participantId=1F6D14219DB14F748F80AE9837CEEDF0&assignmentId=3c38df97-5bea-40e9-b030-d912dbaae88e&projectId=6d972c12-ef4f-4967-baa7-815328c4c025","1F6D14219DB14F748F80AE9837CEEDF0-2025-08-07-18-27-36","","null","","images/instructions/movie_4.png","null","",""
"","","","","","image-button-response","19","437226","0.0-6.0-1.0-1.3","1F6D14219DB14F748F80AE9837CEEDF0","1F6D14219DB14F748F80AE9837CEEDF0","3c38df97-5bea-40e9-b030-d912dbaae88e","6d972c12-ef4f-4967-baa7-815328c4c025","{""num_scrambled_semantic"":""8"",""num_scrambled_causal"":""4"",""num_scrambled_schematic"":""4"",""participantId"":""1F6D14219DB14F748F80AE9837CEEDF0"",""assignmentId"":""3c38df97-5bea-40e9-b030-d912dbaae88e"",""projectId"":""6d972c12-ef4f-4967-baa7-815328c4c025""}","https://test12345.live/?num_scrambled_semantic=8&num_scrambled_causal=4&num_scrambled_schematic=4&participantId=1F6D14219DB14F748F80AE9837CEEDF0&assignmentId=3c38df97-5bea-40e9-b030-d912dbaae88e&projectId=6d972c12-ef4f-4967-baa7-815328c4c025","1F6D14219DB14F748F80AE9837CEEDF0-2025-08-07-18-27-36","","null","","images/instructions/movie_4.png","null","",""
"","","","","","image-button-response","20","439028","0.0-6.0-1.0-2.3","1F6D14219DB14F748F80AE9837CEEDF0","1F6D14219DB14F748F80AE9837CEEDF0","3c38df97-5bea-40e9-b030-d912dbaae88e","6d972c12-ef4f-4967-baa7-815328c4c025","{""num_scrambled_semantic"":""8"",""num_scrambled_causal"":""4"",""num_scrambled_schematic"":""4"",""participantId"":""1F6D14219DB14F748F80AE9837CEEDF0"",""assignmentId"":""3c38df97-5bea-40e9-b030-d912dbaae88e"",""projectId"":""6d972c12-ef4f-4967-baa7-815328c4c025""}","https://test12345.live/?num_scrambled_semantic=8&num_scrambled_causal=4&num_scrambled_schematic=4&participantId=1F6D14219DB14F748F80AE9837CEEDF0&assignmentId=3c38df97-5bea-40e9-b030-d912dbaae88e&projectId=6d972c12-ef4f-4967-baa7-815328c4c025","1F6D14219DB14F748F80AE9837CEEDF0-2025-08-07-18-27-36","","null","","[]","null","",""
"","","","","","instructions","21","469942","0.0-7.0","1F6D14219DB14F748F80AE9837CEEDF0","1F6D14219DB14F748F80AE9837CEEDF0","3c38df97-5bea-40e9-b030-d912dbaae88e","6d972c12-ef4f-4967-baa7-815328c4c025","{""num_scrambled_semantic"":""8"",""num_scrambled_causal"":""4"",""num_scrambled_schematic"":""4"",""participantId"":""1F6D14219DB14F748F80AE9837CEEDF0"",""assignmentId"":""3c38df97-5bea-40e9-b030-d912dbaae88e"",""projectId"":""6d972c12-ef4f-4967-baa7-815328c4c025""}","https://test12345.live/?num_scrambled_semantic=8&num_scrambled_causal=4&num_scrambled_schematic=4&participantId=1F6D14219DB14F748F80AE9837CEEDF0&assignmentId=3c38df97-5bea-40e9-b030-d912dbaae88e&projectId=6d972c12-ef4f-4967-baa7-815328c4c025","1F6D14219DB14F748F80AE9837CEEDF0-2025-08-07-18-27-36","[{""page_index"":0,""viewing_time"":29113},{""page_index"":1,""viewing_time"":1801}]","30914","","","","",""
"","","","","","html-audio-response","22","492793","0.0-8.0","1F6D14219DB14F748F80AE9837CEEDF0","1F6D14219DB14F748F80AE9837CEEDF0","3c38df97-5bea-40e9-b030-d912dbaae88e","6d972c12-ef4f-4967-baa7-815328c4c025","{""num_scrambled_semantic"":""8"",""num_scrambled_causal"":""4"",""num_scrambled_schematic"":""4"",""participantId"":""1F6D14219DB14F748F80AE9837CEEDF0"",""assignmentId"":""3c38df97-5bea-40e9-b030-d912dbaae88e"",""projectId"":""6d972c12-ef4f-4967-baa7-815328c4c025""}","https://test12345.live/?num_scrambled_semantic=8&num_scrambled_causal=4&num_scrambled_schematic=4&participantId=1F6D14219DB14F748F80AE9837CEEDF0&assignmentId=3c38df97-5bea-40e9-b030-d912dbaae88e&projectId=6d972c12-ef4f-4967-baa7-815328c4c025","1F6D14219DB14F748F80AE9837CEEDF0-2025-08-07-18-27-36","","11316","","[""<span style=\""color: red; font-size: 24px\""> NOW RECORDING</span><p>Please say out loud all the images you saw in the exact order you saw them. Try to recall as many images as you can, but remember: getting the order right is more important than the number of images you recall.</p>""]","","2",""
"","","","","","instructions","23","493739","0.0-9.0","1F6D14219DB14F748F80AE9837CEEDF0","1F6D14219DB14F748F80AE9837CEEDF0","3c38df97-5bea-40e9-b030-d912dbaae88e","6d972c12-ef4f-4967-baa7-815328c4c025","{""num_scrambled_semantic"":""8"",""num_scrambled_causal"":""4"",""num_scrambled_schematic"":""4"",""participantId"":""1F6D14219DB14F748F80AE9837CEEDF0"",""assignmentId"":""3c38df97-5bea-40e9-b030-d912dbaae88e"",""projectId"":""6d972c12-ef4f-4967-baa7-815328c4c025""}","https://test12345.live/?num_scrambled_semantic=8&num_scrambled_causal=4&num_scrambled_schematic=4&participantId=1F6D14219DB14F748F80AE9837CEEDF0&assignmentId=3c38df97-5bea-40e9-b030-d912dbaae88e&projectId=6d972c12-ef4f-4967-baa7-815328c4c025","1F6D14219DB14F748F80AE9837CEEDF0-2025-08-07-18-27-36","[{""page_index"":0,""viewing_time"":941}]","941","","","","",""
"","","","","","image-button-response","24","499742","0.0-10.0-0.0","1F6D14219DB14F748F80AE9837CEEDF0","1F6D14219DB14F748F80AE9837CEEDF0","3c38df97-5bea-40e9-b030-d912dbaae88e","6d972c12-ef4f-4967-baa7-815328c4c025","{""num_scrambled_semantic"":""8"",""num_scrambled_causal"":""4"",""num_scrambled_schematic"":""4"",""participantId"":""1F6D14219DB14F748F80AE9837CEEDF0"",""assignmentId"":""3c38df97-5bea-40e9-b030-d912dbaae88e"",""projectId"":""6d972c12-ef4f-4967-baa7-815328c4c025""}","https://test12345.live/?num_scrambled_semantic=8&num_scrambled_causal=4&num_scrambled_schematic=4&participantId=1F6D14219DB14F748F80AE9837CEEDF0&assignmentId=3c38df97-5bea-40e9-b030-d912dbaae88e&projectId=6d972c12-ef4f-4967-baa7-815328c4c025","1F6D14219DB14F748F80AE9837CEEDF0-2025-08-07-18-27-36","","null","","images/semantic_sequence/creative_activities_semantic/creative_activities_semantic_0.png","null","",""
"","","","","","image-button-response","25","504244","0.0-10.0-1.0-0.0","1F6D14219DB14F748F80AE9837CEEDF0","1F6D14219DB14F748F80AE9837CEEDF0","3c38df97-5bea-40e9-b030-d912dbaae88e","6d972c12-ef4f-4967-baa7-815328c4c025","{""num_scrambled_semantic"":""8"",""num_scrambled_causal"":""4"",""num_scrambled_schematic"":""4"",""participantId"":""1F6D14219DB14F748F80AE9837CEEDF0"",""assignmentId"":""3c38df97-5bea-40e9-b030-d912dbaae88e"",""projectId"":""6d972c12-ef4f-4967-baa7-815328c4c025""}","https://test12345.live/?num_scrambled_semantic=8&num_scrambled_causal=4&num_scrambled_schematic=4&participantId=1F6D14219DB14F748F80AE9837CEEDF0&assignmentId=3c38df97-5bea-40e9-b030-d912dbaae88e&projectId=6d972c12-ef4f-4967-baa7-815328c4c025","1F6D14219DB14F748F80AE9837CEEDF0-2025-08-07-18-27-36","","null","","images/semantic_sequence/creative_activities_semantic/creative_activities_semantic_1.png","null","",""
"","","","","","image-button-response","26","506438","0.0-10.0-1.0-1.0","1F6D14219DB14F748F80AE9837CEEDF0","1F6D14219DB14F748F80AE9837CEEDF0","3c38df97-5bea-40e9-b030-d912dbaae88e","6d972c12-ef4f-4967-baa7-815328c4c025","{""num_scrambled_semantic"":""8"",""num_scrambled_causal"":""4"",""num_scrambled_schematic"":""4"",""participantId"":""1F6D14219DB14F748F80AE9837CEEDF0"",""assignmentId"":""3c38df97-5bea-40e9-b030-d912dbaae88e"",""projectId"":""6d972c12-ef4f-4967-baa7-815328c4c025""}","https://test12345.live/?num_scrambled_semantic=8&num_scrambled_causal=4&num_scrambled_schematic=4&participantId=1F6D14219DB14F748F80AE9837CEEDF0&assignmentId=3c38df97-5bea-40e9-b030-d912dbaae88e&projectId=6d972c12-ef4f-4967-baa7-815328c4c025","1F6D14219DB14F748F80AE9837CEEDF0-2025-08-07-18-27-36","","2193","","images/semantic_sequence/creative_activities_semantic/creative_activities_semantic_1.png","0","",""
"","","","","","image-button-response","27","508240","0.0-10.0-1.0-2.0","1F6D14219DB14F748F80AE9837CEEDF0","1F6D14219DB14F748F80AE9837CEEDF0","3c38df97-5bea-40e9-b030-d912dbaae88e","6d972c12-ef4f-4967-baa7-815328c4c025","{""num_scrambled_semantic"":""8"",""num_scrambled_causal"":""4"",""num_scrambled_schematic"":""4"",""participantId"":""1F6D14219DB14F748F80AE9837CEEDF0"",""assignmentId"":""3c38df97-5bea-40e9-b030-d912dbaae88e"",""projectId"":""6d972c12-ef4f-4967-baa7-815328c4c025""}","https://test12345.live/?num_scrambled_semantic=8&num_scrambled_causal=4&num_scrambled_schematic=4&participantId=1F6D14219DB14F748F80AE9837CEEDF0&assignmentId=3c38df97-5bea-40e9-b030-d912dbaae88e&projectId=6d972c12-ef4f-4967-baa7-815328c4c025","1F6D14219DB14F748F80AE9837CEEDF0-2025-08-07-18-27-36","","null","","[]","null","",""
"","","","","","image-button-response","28","512741","0.0-10.0-1.0-0.1","1F6D14219DB14F748F80AE9837CEEDF0","1F6D14219DB14F748F80AE9837CEEDF0","3c38df97-5bea-40e9-b030-d912dbaae88e","6d972c12-ef4f-4967-baa7-815328c4c025","{""num_scrambled_semantic"":""8"",""num_scrambled_causal"":""4"",""num_scrambled_schematic"":""4"",""participantId"":""1F6D14219DB14F748F80AE9837CEEDF0"",""assignmentId"":""3c38df97-5bea-40e9-b030-d912dbaae88e"",""projectId"":""6d972c12-ef4f-4967-baa7-815328c4c025""}","https://test12345.live/?num_scrambled_semantic=8&num_scrambled_causal=4&num_scrambled_schematic=4&participantId=1F6D14219DB14F748F80AE9837CEEDF0&assignmentId=3c38df97-5bea-40e9-b030-d912dbaae88e&projectId=6d972c12-ef4f-4967-baa7-815328c4c025","1F6D14219DB14F748F80AE9837CEEDF0-2025-08-07-18-27-36","","null","","images/semantic_sequence/creative_activities_semantic/creative_activities_semantic_7.png","null","",""
"","","","","","image-button-response","29","513416","0.0-10.0-1.0-1.1","1F6D14219DB14F748F80AE9837CEEDF0","1F6D14219DB14F748F80AE9837CEEDF0","3c38df97-5bea-40e9-b030-d912dbaae88e","6d972c12-ef4f-4967-baa7-815328c4c025","{""num_scrambled_semantic"":""8"",""num_scrambled_causal"":""4"",""num_scrambled_schematic"":""4"",""participantId"":""1F6D14219DB14F748F80AE9837CEEDF0"",""assignmentId"":""3c38df97-5bea-40e9-b030-d912dbaae88e"",""projectId"":""6d972c12-ef4f-4967-baa7-815328c4c025""}","https://test12345.live/?num_scrambled_semantic=8&num_scrambled_causal=4&num_scrambled_schematic=4&participantId=1F6D14219DB14F748F80AE9837CEEDF0&assignmentId=3c38df97-5bea-40e9-b030-d912dbaae88e&projectId=6d972c12-ef4f-4967-baa7-815328c4c025","1F6D14219DB14F748F80AE9837CEEDF0-2025-08-07-18-27-36","","674","","images/semantic_sequence/creative_activities_semantic/creative_activities_semantic_7.png","0","",""
"","","","","","image-button-response","30","515218","0.0-10.0-1.0-2.1","1F6D14219DB14F748F80AE9837CEEDF0","1F6D14219DB14F748F80AE9837CEEDF0","3c38df97-5bea-40e9-b030-d912dbaae88e","6d972c12-ef4f-4967-baa7-815328c4c025","{""num_scrambled_semantic"":""8"",""num_scrambled_causal"":""4"",""num_scrambled_schematic"":""4"",""participantId"":""1F6D14219DB14F748F80AE9837CEEDF0"",""assignmentId"":""3c38df97-5bea-40e9-b030-d912dbaae88e"",""projectId"":""6d972c12-ef4f-4967-baa7-815328c4c025""}","https://test12345.live/?num_scrambled_semantic=8&num_scrambled_causal=4&num_scrambled_schematic=4&participantId=1F6D14219DB14F748F80AE9837CEEDF0&assignmentId=3c38df97-5bea-40e9-b030-d912dbaae88e&projectId=6d972c12-ef4f-4967-baa7-815328c4c025","1F6D14219DB14F748F80AE9837CEEDF0-2025-08-07-18-27-36","","null","","[]","null","",""
"","","","","","image-button-response","31","519719","0.0-10.0-1.0-0.2","1F6D14219DB14F748F80AE9837CEEDF0","1F6D14219DB14F748F80AE9837CEEDF0","3c38df97-5bea-40e9-b030-d912dbaae88e","6d972c12-ef4f-4967-baa7-815328c4c025","{""num_scrambled_semantic"":""8"",""num_scrambled_causal"":""4"",""num_scrambled_schematic"":""4"",""participantId"":""1F6D14219DB14F748F80AE9837CEEDF0"",""assignmentId"":""3c38df97-5bea-40e9-b030-d912dbaae88e"",""projectId"":""6d972c12-ef4f-4967-baa7-815328c4c025""}","https://test12345.live/?num_scrambled_semantic=8&num_scrambled_causal=4&num_scrambled_schematic=4&participantId=1F6D14219DB14F748F80AE9837CEEDF0&assignmentId=3c38df97-5bea-40e9-b030-d912dbaae88e&projectId=6d972c12-ef4f-4967-baa7-815328c4c025","1F6D14219DB14F748F80AE9837CEEDF0-2025-08-07-18-27-36","","null","","images/semantic_sequence/creative_activities_semantic/creative_activities_semantic_3.png","null","",""
"","","","","","image-button-response","32","520422","0.0-10.0-1.0-1.2","1F6D14219DB14F748F80AE9837CEEDF0","1F6D14219DB14F748F80AE9837CEEDF0","3c38df97-5bea-40e9-b030-d912dbaae88e","6d972c12-ef4f-4967-baa7-815328c4c025","{""num_scrambled_semantic"":""8"",""num_scrambled_causal"":""4"",""num_scrambled_schematic"":""4"",""participantId"":""1F6D14219DB14F748F80AE9837CEEDF0"",""assignmentId"":""3c38df97-5bea-40e9-b030-d912dbaae88e"",""projectId"":""6d972c12-ef4f-4967-baa7-815328c4c025""}","https://test12345.live/?num_scrambled_semantic=8&num_scrambled_causal=4&num_scrambled_schematic=4&participantId=1F6D14219DB14F748F80AE9837CEEDF0&assignmentId=3c38df97-5bea-40e9-b030-d912dbaae88e&projectId=6d972c12-ef4f-4967-baa7-815328c4c025","1F6D14219DB14F748F80AE9837CEEDF0-2025-08-07-18-27-36","","702","","images/semantic_sequence/creative_activities_semantic/creative_activities_semantic_3.png","0","",""
"","","","","","image-button-response","33","522224","0.0-10.0-1.0-2.2","1F6D14219DB14F748F80AE9837CEEDF0","1F6D14219DB14F748F80AE9837CEEDF0","3c38df97-5bea-40e9-b030-d912dbaae88e","6d972c12-ef4f-4967-baa7-815328c4c025","{""num_scrambled_semantic"":""8"",""num_scrambled_causal"":""4"",""num_scrambled_schematic"":""4"",""participantId"":""1F6D14219DB14F748F80AE9837CEEDF0"",""assignmentId"":""3c38df97-5bea-40e9-b030-d912dbaae88e"",""projectId"":""6d972c12-ef4f-4967-baa7-815328c4c025""}","https://test12345.live/?num_scrambled_semantic=8&num_scrambled_causal=4&num_scrambled_schematic=4&participantId=1F6D14219DB14F748F80AE9837CEEDF0&assignmentId=3c38df97-5bea-40e9-b030-d912dbaae88e&projectId=6d972c12-ef4f-4967-baa7-815328c4c025","1F6D14219DB14F748F80AE9837CEEDF0-2025-08-07-18-27-36","","null","","[]","null","",""
"","","","","","image-button-response","34","526726","0.0-10.0-1.0-0.3","1F6D14219DB14F748F80AE9837CEEDF0","1F6D14219DB14F748F80AE9837CEEDF0","3c38df97-5bea-40e9-b030-d912dbaae88e","6d972c12-ef4f-4967-baa7-815328c4c025","{""num_scrambled_semantic"":""8"",""num_scrambled_causal"":""4"",""num_scrambled_schematic"":""4"",""participantId"":""1F6D14219DB14F748F80AE9837CEEDF0"",""assignmentId"":""3c38df97-5bea-40e9-b030-d912dbaae88e"",""projectId"":""6d972c12-ef4f-4967-baa7-815328c4c025""}","https://test12345.live/?num_scrambled_semantic=8&num_scrambled_causal=4&num_scrambled_schematic=4&participantId=1F6D14219DB14F748F80AE9837CEEDF0&assignmentId=3c38df97-5bea-40e9-b030-d912dbaae88e&projectId=6d972c12-ef4f-4967-baa7-815328c4c025","1F6D14219DB14F748F80AE9837CEEDF0-2025-08-07-18-27-36","","null","","images/semantic_sequence/creative_activities_semantic/creative_activities_semantic_4.png","null","",""
"","","","","","image-button-response","35","527477","0.0-10.0-1.0-1.3","1F6D14219DB14F748F80AE9837CEEDF0","1F6D14219DB14F748F80AE9837CEEDF0","3c38df97-5bea-40e9-b030-d912dbaae88e","6d972c12-ef4f-4967-baa7-815328c4c025","{""num_scrambled_semantic"":""8"",""num_scrambled_causal"":""4"",""num_scrambled_schematic"":""4"",""participantId"":""1F6D14219DB14F748F80AE9837CEEDF0"",""assignmentId"":""3c38df97-5bea-40e9-b030-d912dbaae88e"",""projectId"":""6d972c12-ef4f-4967-baa7-815328c4c025""}","https://test12345.live/?num_scrambled_semantic=8&num_scrambled_causal=4&num_scrambled_schematic=4&participantId=1F6D14219DB14F748F80AE9837CEEDF0&assignmentId=3c38df97-5bea-40e9-b030-d912dbaae88e&projectId=6d972c12-ef4f-4967-baa7-815328c4c025","1F6D14219DB14F748F80AE9837CEEDF0-2025-08-07-18-27-36","","750","","images/semantic_sequence/creative_activities_semantic/creative_activities_semantic_4.png","0","",""
"","","","","","image-button-response","36","529278","0.0-10.0-1.0-2.3","1F6D14219DB14F748F80AE9837CEEDF0","1F6D14219DB14F748F80AE9837CEEDF0","3c38df97-5bea-40e9-b030-d912dbaae88e","6d972c12-ef4f-4967-baa7-815328c4c025","{""num_scrambled_semantic"":""8"",""num_scrambled_causal"":""4"",""num_scrambled_schematic"":""4"",""participantId"":""1F6D14219DB14F748F80AE9837CEEDF0"",""assignmentId"":""3c38df97-5bea-40e9-b030-d912dbaae88e"",""projectId"":""6d972c12-ef4f-4967-baa7-815328c4c025""}","https://test12345.live/?num_scrambled_semantic=8&num_scrambled_causal=4&num_scrambled_schematic=4&participantId=1F6D14219DB14F748F80AE9837CEEDF0&assignmentId=3c38df97-5bea-40e9-b030-d912dbaae88e&projectId=6d972c12-ef4f-4967-baa7-815328c4c025","1F6D14219DB14F748F80AE9837CEEDF0-2025-08-07-18-27-36","","null","","[]","null","",""
"","","","","","image-button-response","37","533780","0.0-10.0-1.0-0.4","1F6D14219DB14F748F80AE9837CEEDF0","1F6D14219DB14F748F80AE9837CEEDF0","3c38df97-5bea-40e9-b030-d912dbaae88e","6d972c12-ef4f-4967-baa7-815328c4c025","{""num_scrambled_semantic"":""8"",""num_scrambled_causal"":""4"",""num_scrambled_schematic"":""4"",""participantId"":""1F6D14219DB14F748F80AE9837CEEDF0"",""assignmentId"":""3c38df97-5bea-40e9-b030-d912dbaae88e"",""projectId"":""6d972c12-ef4f-4967-baa7-815328c4c025""}","https://test12345.live/?num_scrambled_semantic=8&num_scrambled_causal=4&num_scrambled_schematic=4&participantId=1F6D14219DB14F748F80AE9837CEEDF0&assignmentId=3c38df97-5bea-40e9-b030-d912dbaae88e&projectId=6d972c12-ef4f-4967-baa7-815328c4c025","1F6D14219DB14F748F80AE9837CEEDF0-2025-08-07-18-27-36","","null","","images/semantic_sequence/creative_activities_semantic/creative_activities_semantic_6.png","null","",""
"","","","","","image-button-response","38","534877","0.0-10.0-1.0-1.4","1F6D14219DB14F748F80AE9837CEEDF0","1F6D14219DB14F748F80AE9837CEEDF0","3c38df97-5bea-40e9-b030-d912dbaae88e","6d972c12-ef4f-4967-baa7-815328c4c025","{""num_scrambled_semantic"":""8"",""num_scrambled_causal"":""4"",""num_scrambled_schematic"":""4"",""participantId"":""1F6D14219DB14F748F80AE9837CEEDF0"",""assignmentId"":""3c38df97-5bea-40e9-b030-d912dbaae88e"",""projectId"":""6d972c12-ef4f-4967-baa7-815328c4c025""}","https://test12345.live/?num_scrambled_semantic=8&num_scrambled_causal=4&num_scrambled_schematic=4&participantId=1F6D14219DB14F748F80AE9837CEEDF0&assignmentId=3c38df97-5bea-40e9-b030-d912dbaae88e&projectId=6d972c12-ef4f-4967-baa7-815328c4c025","1F6D14219DB14F748F80AE9837CEEDF0-2025-08-07-18-27-36","","1096","","images/semantic_sequence/creative_activities_semantic/creative_activities_semantic_6.png","0","",""
"","","","","","image-button-response","39","536677","0.0-10.0-1.0-2.4","1F6D14219DB14F748F80AE9837CEEDF0","1F6D14219DB14F748F80AE9837CEEDF0","3c38df97-5bea-40e9-b030-d912dbaae88e","6d972c12-ef4f-4967-baa7-815328c4c025","{""num_scrambled_semantic"":""8"",""num_scrambled_causal"":""4"",""num_scrambled_schematic"":""4"",""participantId"":""1F6D14219DB14F748F80AE9837CEEDF0"",""assignmentId"":""3c38df97-5bea-40e9-b030-d912dbaae88e"",""projectId"":""6d972c12-ef4f-4967-baa7-815328c4c025""}","https://test12345.live/?num_scrambled_semantic=8&num_scrambled_causal=4&num_scrambled_schematic=4&participantId=1F6D14219DB14F748F80AE9837CEEDF0&assignmentId=3c38df97-5bea-40e9-b030-d912dbaae88e&projectId=6d972c12-ef4f-4967-baa7-815328c4c025","1F6D14219DB14F748F80AE9837CEEDF0-2025-08-07-18-27-36","","null","","[]","null","",""
"","","","","","image-button-response","40","541179","0.0-10.0-1.0-0.5","1F6D14219DB14F748F80AE9837CEEDF0","1F6D14219DB14F748F80AE9837CEEDF0","3c38df97-5bea-40e9-b030-d912dbaae88e","6d972c12-ef4f-4967-baa7-815328c4c025","{""num_scrambled_semantic"":""8"",""num_scrambled_causal"":""4"",""num_scrambled_schematic"":""4"",""participantId"":""1F6D14219DB14F748F80AE9837CEEDF0"",""assignmentId"":""3c38df97-5bea-40e9-b030-d912dbaae88e"",""projectId"":""6d972c12-ef4f-4967-baa7-815328c4c025""}","https://test12345.live/?num_scrambled_semantic=8&num_scrambled_causal=4&num_scrambled_schematic=4&participantId=1F6D14219DB14F748F80AE9837CEEDF0&assignmentId=3c38df97-5bea-40e9-b030-d912dbaae88e&projectId=6d972c12-ef4f-4967-baa7-815328c4c025","1F6D14219DB14F748F80AE9837CEEDF0-2025-08-07-18-27-36","","null","","images/semantic_sequence/creative_activities_semantic/creative_activities_semantic_5.png","null","",""
"","","","","","image-button-response","41","543862","0.0-10.0-1.0-1.5","1F6D14219DB14F748F80AE9837CEEDF0","1F6D14219DB14F748F80AE9837CEEDF0","3c38df97-5bea-40e9-b030-d912dbaae88e","6d972c12-ef4f-4967-baa7-815328c4c025","{""num_scrambled_semantic"":""8"",""num_scrambled_causal"":""4"",""num_scrambled_schematic"":""4"",""participantId"":""1F6D14219DB14F748F80AE9837CEEDF0"",""assignmentId"":""3c38df97-5bea-40e9-b030-d912dbaae88e"",""projectId"":""6d972c12-ef4f-4967-baa7-815328c4c025""}","https://test12345.live/?num_scrambled_semantic=8&num_scrambled_causal=4&num_scrambled_schematic=4&participantId=1F6D14219DB14F748F80AE9837CEEDF0&assignmentId=3c38df97-5bea-40e9-b030-d912dbaae88e&projectId=6d972c12-ef4f-4967-baa7-815328c4c025","1F6D14219DB14F748F80AE9837CEEDF0-2025-08-07-18-27-36","","2682","","images/semantic_sequence/creative_activities_semantic/creative_activities_semantic_5.png","0","",""
"","","","","","image-button-response","42","545664","0.0-10.0-1.0-2.5","1F6D14219DB14F748F80AE9837CEEDF0","1F6D14219DB14F748F80AE9837CEEDF0","3c38df97-5bea-40e9-b030-d912dbaae88e","6d972c12-ef4f-4967-baa7-815328c4c025","{""num_scrambled_semantic"":""8"",""num_scrambled_causal"":""4"",""num_scrambled_schematic"":""4"",""participantId"":""1F6D14219DB14F748F80AE9837CEEDF0"",""assignmentId"":""3c38df97-5bea-40e9-b030-d912dbaae88e"",""projectId"":""6d972c12-ef4f-4967-baa7-815328c4c025""}","https://test12345.live/?num_scrambled_semantic=8&num_scrambled_causal=4&num_scrambled_schematic=4&participantId=1F6D14219DB14F748F80AE9837CEEDF0&assignmentId=3c38df97-5bea-40e9-b030-d912dbaae88e&projectId=6d972c12-ef4f-4967-baa7-815328c4c025","1F6D14219DB14F748F80AE9837CEEDF0-2025-08-07-18-27-36","","null","","[]","null","",""
"","","","","","image-button-response","43","550166","0.0-10.0-1.0-0.6","1F6D14219DB14F748F80AE9837CEEDF0","1F6D14219DB14F748F80AE9837CEEDF0","3c38df97-5bea-40e9-b030-d912dbaae88e","6d972c12-ef4f-4967-baa7-815328c4c025","{""num_scrambled_semantic"":""8"",""num_scrambled_causal"":""4"",""num_scrambled_schematic"":""4"",""participantId"":""1F6D14219DB14F748F80AE9837CEEDF0"",""assignmentId"":""3c38df97-5bea-40e9-b030-d912dbaae88e"",""projectId"":""6d972c12-ef4f-4967-baa7-815328c4c025""}","https://test12345.live/?num_scrambled_semantic=8&num_scrambled_causal=4&num_scrambled_schematic=4&participantId=1F6D14219DB14F748F80AE9837CEEDF0&assignmentId=3c38df97-5bea-40e9-b030-d912dbaae88e&projectId=6d972c12-ef4f-4967-baa7-815328c4c025","1F6D14219DB14F748F80AE9837CEEDF0-2025-08-07-18-27-36","","null","","images/semantic_sequence/creative_activities_semantic/creative_activities_semantic_8.png","null","",""
"","","","","","image-button-response","44","550964","0.0-10.0-1.0-1.6","1F6D14219DB14F748F80AE9837CEEDF0","1F6D14219DB14F748F80AE9837CEEDF0","3c38df97-5bea-40e9-b030-d912dbaae88e","6d972c12-ef4f-4967-baa7-815328c4c025","{""num_scrambled_semantic"":""8"",""num_scrambled_causal"":""4"",""num_scrambled_schematic"":""4"",""participantId"":""1F6D14219DB14F748F80AE9837CEEDF0"",""assignmentId"":""3c38df97-5bea-40e9-b030-d912dbaae88e"",""projectId"":""6d972c12-ef4f-4967-baa7-815328c4c025""}","https://test12345.live/?num_scrambled_semantic=8&num_scrambled_causal=4&num_scrambled_schematic=4&participantId=1F6D14219DB14F748F80AE9837CEEDF0&assignmentId=3c38df97-5bea-40e9-b030-d912dbaae88e&projectId=6d972c12-ef4f-4967-baa7-815328c4c025","1F6D14219DB14F748F80AE9837CEEDF0-2025-08-07-18-27-36","","797","","images/semantic_sequence/creative_activities_semantic/creative_activities_semantic_8.png","0","",""
"","","","","","image-button-response","45","552766","0.0-10.0-1.0-2.6","1F6D14219DB14F748F80AE9837CEEDF0","1F6D14219DB14F748F80AE9837CEEDF0","3c38df97-5bea-40e9-b030-d912dbaae88e","6d972c12-ef4f-4967-baa7-815328c4c025","{""num_scrambled_semantic"":""8"",""num_scrambled_causal"":""4"",""num_scrambled_schematic"":""4"",""participantId"":""1F6D14219DB14F748F80AE9837CEEDF0"",""assignmentId"":""3c38df97-5bea-40e9-b030-d912dbaae88e"",""projectId"":""6d972c12-ef4f-4967-baa7-815328c4c025""}","https://test12345.live/?num_scrambled_semantic=8&num_scrambled_causal=4&num_scrambled_schematic=4&participantId=1F6D14219DB14F748F80AE9837CEEDF0&assignmentId=3c38df97-5bea-40e9-b030-d912dbaae88e&projectId=6d972c12-ef4f-4967-baa7-815328c4c025","1F6D14219DB14F748F80AE9837CEEDF0-2025-08-07-18-27-36","","null","","[]","null","",""
"","","","","","image-button-response","46","557267","0.0-10.0-1.0-0.7","1F6D14219DB14F748F80AE9837CEEDF0","1F6D14219DB14F748F80AE9837CEEDF0","3c38df97-5bea-40e9-b030-d912dbaae88e","6d972c12-ef4f-4967-baa7-815328c4c025","{""num_scrambled_semantic"":""8"",""num_scrambled_causal"":""4"",""num_scrambled_schematic"":""4"",""participantId"":""1F6D14219DB14F748F80AE9837CEEDF0"",""assignmentId"":""3c38df97-5bea-40e9-b030-d912dbaae88e"",""projectId"":""6d972c12-ef4f-4967-baa7-815328c4c025""}","https://test12345.live/?num_scrambled_semantic=8&num_scrambled_causal=4&num_scrambled_schematic=4&participantId=1F6D14219DB14F748F80AE9837CEEDF0&assignmentId=3c38df97-5bea-40e9-b030-d912dbaae88e&projectId=6d972c12-ef4f-4967-baa7-815328c4c025","1F6D14219DB14F748F80AE9837CEEDF0-2025-08-07-18-27-36","","null","","images/semantic_sequence/creative_activities_semantic/creative_activities_semantic_9.png","null","",""
"","","","","","image-button-response","47","558012","0.0-10.0-1.0-1.7","1F6D14219DB14F748F80AE9837CEEDF0","1F6D14219DB14F748F80AE9837CEEDF0","3c38df97-5bea-40e9-b030-d912dbaae88e","6d972c12-ef4f-4967-baa7-815328c4c025","{""num_scrambled_semantic"":""8"",""num_scrambled_causal"":""4"",""num_scrambled_schematic"":""4"",""participantId"":""1F6D14219DB14F748F80AE9837CEEDF0"",""assignmentId"":""3c38df97-5bea-40e9-b030-d912dbaae88e"",""projectId"":""6d972c12-ef4f-4967-baa7-815328c4c025""}","https://test12345.live/?num_scrambled_semantic=8&num_scrambled_causal=4&num_scrambled_schematic=4&participantId=1F6D14219DB14F748F80AE9837CEEDF0&assignmentId=3c38df97-5bea-40e9-b030-d912dbaae88e&projectId=6d972c12-ef4f-4967-baa7-815328c4c025","1F6D14219DB14F748F80AE9837CEEDF0-2025-08-07-18-27-36","","744","","images/semantic_sequence/creative_activities_semantic/creative_activities_semantic_9.png","0","",""
"","","","","","image-button-response","48","559814","0.0-10.0-1.0-2.7","1F6D14219DB14F748F80AE9837CEEDF0","1F6D14219DB14F748F80AE9837CEEDF0","3c38df97-5bea-40e9-b030-d912dbaae88e","6d972c12-ef4f-4967-baa7-815328c4c025","{""num_scrambled_semantic"":""8"",""num_scrambled_causal"":""4"",""num_scrambled_schematic"":""4"",""participantId"":""1F6D14219DB14F748F80AE9837CEEDF0"",""assignmentId"":""3c38df97-5bea-40e9-b030-d912dbaae88e"",""projectId"":""6d972c12-ef4f-4967-baa7-815328c4c025""}","https://test12345.live/?num_scrambled_semantic=8&num_scrambled_causal=4&num_scrambled_schematic=4&participantId=1F6D14219DB14F748F80AE9837CEEDF0&assignmentId=3c38df97-5bea-40e9-b030-d912dbaae88e&projectId=6d972c12-ef4f-4967-baa7-815328c4c025","1F6D14219DB14F748F80AE9837CEEDF0-2025-08-07-18-27-36","","null","","[]","null","",""
"","","","","","image-button-response","49","564315","0.0-10.0-1.0-0.8","1F6D14219DB14F748F80AE9837CEEDF0","1F6D14219DB14F748F80AE9837CEEDF0","3c38df97-5bea-40e9-b030-d912dbaae88e","6d972c12-ef4f-4967-baa7-815328c4c025","{""num_scrambled_semantic"":""8"",""num_scrambled_causal"":""4"",""num_scrambled_schematic"":""4"",""participantId"":""1F6D14219DB14F748F80AE9837CEEDF0"",""assignmentId"":""3c38df97-5bea-40e9-b030-d912dbaae88e"",""projectId"":""6d972c12-ef4f-4967-baa7-815328c4c025""}","https://test12345.live/?num_scrambled_semantic=8&num_scrambled_causal=4&num_scrambled_schematic=4&participantId=1F6D14219DB14F748F80AE9837CEEDF0&assignmentId=3c38df97-5bea-40e9-b030-d912dbaae88e&projectId=6d972c12-ef4f-4967-baa7-815328c4c025","1F6D14219DB14F748F80AE9837CEEDF0-2025-08-07-18-27-36","","null","","images/semantic_sequence/creative_activities_semantic/creative_activities_semantic_2.png","null","",""
"","","","","","image-button-response","50","564973","0.0-10.0-1.0-1.8","1F6D14219DB14F748F80AE9837CEEDF0","1F6D14219DB14F748F80AE9837CEEDF0","3c38df97-5bea-40e9-b030-d912dbaae88e","6d972c12-ef4f-4967-baa7-815328c4c025","{""num_scrambled_semantic"":""8"",""num_scrambled_causal"":""4"",""num_scrambled_schematic"":""4"",""participantId"":""1F6D14219DB14F748F80AE9837CEEDF0"",""assignmentId"":""3c38df97-5bea-40e9-b030-d912dbaae88e"",""projectId"":""6d972c12-ef4f-4967-baa7-815328c4c025""}","https://test12345.live/?num_scrambled_semantic=8&num_scrambled_causal=4&num_scrambled_schematic=4&participantId=1F6D14219DB14F748F80AE9837CEEDF0&assignmentId=3c38df97-5bea-40e9-b030-d912dbaae88e&projectId=6d972c12-ef4f-4967-baa7-815328c4c025","1F6D14219DB14F748F80AE9837CEEDF0-2025-08-07-18-27-36","","656","","images/semantic_sequence/creative_activities_semantic/creative_activities_semantic_2.png","0","",""
"","","","","","image-button-response","51","566774","0.0-10.0-1.0-2.8","1F6D14219DB14F748F80AE9837CEEDF0","1F6D14219DB14F748F80AE9837CEEDF0","3c38df97-5bea-40e9-b030-d912dbaae88e","6d972c12-ef4f-4967-baa7-815328c4c025","{""num_scrambled_semantic"":""8"",""num_scrambled_causal"":""4"",""num_scrambled_schematic"":""4"",""participantId"":""1F6D14219DB14F748F80AE9837CEEDF0"",""assignmentId"":""3c38df97-5bea-40e9-b030-d912dbaae88e"",""projectId"":""6d972c12-ef4f-4967-baa7-815328c4c025""}","https://test12345.live/?num_scrambled_semantic=8&num_scrambled_causal=4&num_scrambled_schematic=4&participantId=1F6D14219DB14F748F80AE9837CEEDF0&assignmentId=3c38df97-5bea-40e9-b030-d912dbaae88e&projectId=6d972c12-ef4f-4967-baa7-815328c4c025","1F6D14219DB14F748F80AE9837CEEDF0-2025-08-07-18-27-36","","null","","[]","null","",""
"","","","","","image-button-response","52","571275","0.0-10.0-1.0-0.9","1F6D14219DB14F748F80AE9837CEEDF0","1F6D14219DB14F748F80AE9837CEEDF0","3c38df97-5bea-40e9-b030-d912dbaae88e","6d972c12-ef4f-4967-baa7-815328c4c025","{""num_scrambled_semantic"":""8"",""num_scrambled_causal"":""4"",""num_scrambled_schematic"":""4"",""participantId"":""1F6D14219DB14F748F80AE9837CEEDF0"",""assignmentId"":""3c38df97-5bea-40e9-b030-d912dbaae88e"",""projectId"":""6d972c12-ef4f-4967-baa7-815328c4c025""}","https://test12345.live/?num_scrambled_semantic=8&num_scrambled_causal=4&num_scrambled_schematic=4&participantId=1F6D14219DB14F748F80AE9837CEEDF0&assignmentId=3c38df97-5bea-40e9-b030-d912dbaae88e&projectId=6d972c12-ef4f-4967-baa7-815328c4c025","1F6D14219DB14F748F80AE9837CEEDF0-2025-08-07-18-27-36","","null","","images/semantic_sequence/creative_activities_semantic/creative_activities_semantic_ten.png","null","",""
"","","","","","image-button-response","53","572508","0.0-10.0-1.0-1.9","1F6D14219DB14F748F80AE9837CEEDF0","1F6D14219DB14F748F80AE9837CEEDF0","3c38df97-5bea-40e9-b030-d912dbaae88e","6d972c12-ef4f-4967-baa7-815328c4c025","{""num_scrambled_semantic"":""8"",""num_scrambled_causal"":""4"",""num_scrambled_schematic"":""4"",""participantId"":""1F6D14219DB14F748F80AE9837CEEDF0"",""assignmentId"":""3c38df97-5bea-40e9-b030-d912dbaae88e"",""projectId"":""6d972c12-ef4f-4967-baa7-815328c4c025""}","https://test12345.live/?num_scrambled_semantic=8&num_scrambled_causal=4&num_scrambled_schematic=4&participantId=1F6D14219DB14F748F80AE9837CEEDF0&assignmentId=3c38df97-5bea-40e9-b030-d912dbaae88e&projectId=6d972c12-ef4f-4967-baa7-815328c4c025","1F6D14219DB14F748F80AE9837CEEDF0-2025-08-07-18-27-36","","1232","","images/semantic_sequence/creative_activities_semantic/creative_activities_semantic_ten.png","0","",""
"","","","","","image-button-response","54","574309","0.0-10.0-1.0-2.9","1F6D14219DB14F748F80AE9837CEEDF0","1F6D14219DB14F748F80AE9837CEEDF0","3c38df97-5bea-40e9-b030-d912dbaae88e","6d972c12-ef4f-4967-baa7-815328c4c025","{""num_scrambled_semantic"":""8"",""num_scrambled_causal"":""4"",""num_scrambled_schematic"":""4"",""participantId"":""1F6D14219DB14F748F80AE9837CEEDF0"",""assignmentId"":""3c38df97-5bea-40e9-b030-d912dbaae88e"",""projectId"":""6d972c12-ef4f-4967-baa7-815328c4c025""}","https://test12345.live/?num_scrambled_semantic=8&num_scrambled_causal=4&num_scrambled_schematic=4&participantId=1F6D14219DB14F748F80AE9837CEEDF0&assignmentId=3c38df97-5bea-40e9-b030-d912dbaae88e&projectId=6d972c12-ef4f-4967-baa7-815328c4c025","1F6D14219DB14F748F80AE9837CEEDF0-2025-08-07-18-27-36","","null","","[]","null","",""
"","","","","","html-audio-response","55","590297","0.0-11.0","1F6D14219DB14F748F80AE9837CEEDF0","1F6D14219DB14F748F80AE9837CEEDF0","3c38df97-5bea-40e9-b030-d912dbaae88e","6d972c12-ef4f-4967-baa7-815328c4c025","{""num_scrambled_semantic"":""8"",""num_scrambled_causal"":""4"",""num_scrambled_schematic"":""4"",""participantId"":""1F6D14219DB14F748F80AE9837CEEDF0"",""assignmentId"":""3c38df97-5bea-40e9-b030-d912dbaae88e"",""projectId"":""6d972c12-ef4f-4967-baa7-815328c4c025""}","https://test12345.live/?num_scrambled_semantic=8&num_scrambled_causal=4&num_scrambled_schematic=4&participantId=1F6D14219DB14F748F80AE9837CEEDF0&assignmentId=3c38df97-5bea-40e9-b030-d912dbaae88e&projectId=6d972c12-ef4f-4967-baa7-815328c4c025","1F6D14219DB14F748F80AE9837CEEDF0-2025-08-07-18-27-36","","14633","","[""<span style=\""color: red; font-size: 24px\""> NOW RECORDING</span><p>Please say out loud all the images you saw, in the exact order you saw them. Try to recall as many images as you can, but remember: getting the order right is more important than the number of images you recall.</p>""]","","10","creative_activities_semantic"
"","","","","","image-button-response","56","596302","0.0-12.0-0.0","1F6D14219DB14F748F80AE9837CEEDF0","1F6D14219DB14F748F80AE9837CEEDF0","3c38df97-5bea-40e9-b030-d912dbaae88e","6d972c12-ef4f-4967-baa7-815328c4c025","{""num_scrambled_semantic"":""8"",""num_scrambled_causal"":""4"",""num_scrambled_schematic"":""4"",""participantId"":""1F6D14219DB14F748F80AE9837CEEDF0"",""assignmentId"":""3c38df97-5bea-40e9-b030-d912dbaae88e"",""projectId"":""6d972c12-ef4f-4967-baa7-815328c4c025""}","https://test12345.live/?num_scrambled_semantic=8&num_scrambled_causal=4&num_scrambled_schematic=4&participantId=1F6D14219DB14F748F80AE9837CEEDF0&assignmentId=3c38df97-5bea-40e9-b030-d912dbaae88e&projectId=6d972c12-ef4f-4967-baa7-815328c4c025","1F6D14219DB14F748F80AE9837CEEDF0-2025-08-07-18-27-36","","null","","images/causal_sequence/package_causal/package_causal_0.png","null","",""
"","","","","","image-button-response","57","600803","0.0-12.0-1.0-0.0","1F6D14219DB14F748F80AE9837CEEDF0","1F6D14219DB14F748F80AE9837CEEDF0","3c38df97-5bea-40e9-b030-d912dbaae88e","6d972c12-ef4f-4967-baa7-815328c4c025","{""num_scrambled_semantic"":""8"",""num_scrambled_causal"":""4"",""num_scrambled_schematic"":""4"",""participantId"":""1F6D14219DB14F748F80AE9837CEEDF0"",""assignmentId"":""3c38df97-5bea-40e9-b030-d912dbaae88e"",""projectId"":""6d972c12-ef4f-4967-baa7-815328c4c025""}","https://test12345.live/?num_scrambled_semantic=8&num_scrambled_causal=4&num_scrambled_schematic=4&participantId=1F6D14219DB14F748F80AE9837CEEDF0&assignmentId=3c38df97-5bea-40e9-b030-d912dbaae88e&projectId=6d972c12-ef4f-4967-baa7-815328c4c025","1F6D14219DB14F748F80AE9837CEEDF0-2025-08-07-18-27-36","","null","","images/causal_sequence/package_causal/package_causal_1.png","null","",""
"","","","","","image-button-response","58","603151","0.0-12.0-1.0-1.0","1F6D14219DB14F748F80AE9837CEEDF0","1F6D14219DB14F748F80AE9837CEEDF0","3c38df97-5bea-40e9-b030-d912dbaae88e","6d972c12-ef4f-4967-baa7-815328c4c025","{""num_scrambled_semantic"":""8"",""num_scrambled_causal"":""4"",""num_scrambled_schematic"":""4"",""participantId"":""1F6D14219DB14F748F80AE9837CEEDF0"",""assignmentId"":""3c38df97-5bea-40e9-b030-d912dbaae88e"",""projectId"":""6d972c12-ef4f-4967-baa7-815328c4c025""}","https://test12345.live/?num_scrambled_semantic=8&num_scrambled_causal=4&num_scrambled_schematic=4&participantId=1F6D14219DB14F748F80AE9837CEEDF0&assignmentId=3c38df97-5bea-40e9-b030-d912dbaae88e&projectId=6d972c12-ef4f-4967-baa7-815328c4c025","1F6D14219DB14F748F80AE9837CEEDF0-2025-08-07-18-27-36","","2346","","images/causal_sequence/package_causal/package_causal_1.png","0","",""
"","","","","","image-button-response","59","604953","0.0-12.0-1.0-2.0","1F6D14219DB14F748F80AE9837CEEDF0","1F6D14219DB14F748F80AE9837CEEDF0","3c38df97-5bea-40e9-b030-d912dbaae88e","6d972c12-ef4f-4967-baa7-815328c4c025","{""num_scrambled_semantic"":""8"",""num_scrambled_causal"":""4"",""num_scrambled_schematic"":""4"",""participantId"":""1F6D14219DB14F748F80AE9837CEEDF0"",""assignmentId"":""3c38df97-5bea-40e9-b030-d912dbaae88e"",""projectId"":""6d972c12-ef4f-4967-baa7-815328c4c025""}","https://test12345.live/?num_scrambled_semantic=8&num_scrambled_causal=4&num_scrambled_schematic=4&participantId=1F6D14219DB14F748F80AE9837CEEDF0&assignmentId=3c38df97-5bea-40e9-b030-d912dbaae88e&projectId=6d972c12-ef4f-4967-baa7-815328c4c025","1F6D14219DB14F748F80AE9837CEEDF0-2025-08-07-18-27-36","","null","","[]","null","",""
"","","","","","image-button-response","60","609454","0.0-12.0-1.0-0.1","1F6D14219DB14F748F80AE9837CEEDF0","1F6D14219DB14F748F80AE9837CEEDF0","3c38df97-5bea-40e9-b030-d912dbaae88e","6d972c12-ef4f-4967-baa7-815328c4c025","{""num_scrambled_semantic"":""8"",""num_scrambled_causal"":""4"",""num_scrambled_schematic"":""4"",""participantId"":""1F6D14219DB14F748F80AE9837CEEDF0"",""assignmentId"":""3c38df97-5bea-40e9-b030-d912dbaae88e"",""projectId"":""6d972c12-ef4f-4967-baa7-815328c4c025""}","https://test12345.live/?num_scrambled_semantic=8&num_scrambled_causal=4&num_scrambled_schematic=4&participantId=1F6D14219DB14F748F80AE9837CEEDF0&assignmentId=3c38df97-5bea-40e9-b030-d912dbaae88e&projectId=6d972c12-ef4f-4967-baa7-815328c4c025","1F6D14219DB14F748F80AE9837CEEDF0-2025-08-07-18-27-36","","null","","images/causal_sequence/package_causal/package_causal_2.png","null","",""
"","","","","","image-button-response","61","612375","0.0-12.0-1.0-1.1","1F6D14219DB14F748F80AE9837CEEDF0","1F6D14219DB14F748F80AE9837CEEDF0","3c38df97-5bea-40e9-b030-d912dbaae88e","6d972c12-ef4f-4967-baa7-815328c4c025","{""num_scrambled_semantic"":""8"",""num_scrambled_causal"":""4"",""num_scrambled_schematic"":""4"",""participantId"":""1F6D14219DB14F748F80AE9837CEEDF0"",""assignmentId"":""3c38df97-5bea-40e9-b030-d912dbaae88e"",""projectId"":""6d972c12-ef4f-4967-baa7-815328c4c025""}","https://test12345.live/?num_scrambled_semantic=8&num_scrambled_causal=4&num_scrambled_schematic=4&participantId=1F6D14219DB14F748F80AE9837CEEDF0&assignmentId=3c38df97-5bea-40e9-b030-d912dbaae88e&projectId=6d972c12-ef4f-4967-baa7-815328c4c025","1F6D14219DB14F748F80AE9837CEEDF0-2025-08-07-18-27-36","","2920","","images/causal_sequence/package_causal/package_causal_2.png","0","",""
"","","","","","image-button-response","62","614177","0.0-12.0-1.0-2.1","1F6D14219DB14F748F80AE9837CEEDF0","1F6D14219DB14F748F80AE9837CEEDF0","3c38df97-5bea-40e9-b030-d912dbaae88e","6d972c12-ef4f-4967-baa7-815328c4c025","{""num_scrambled_semantic"":""8"",""num_scrambled_causal"":""4"",""num_scrambled_schematic"":""4"",""participantId"":""1F6D14219DB14F748F80AE9837CEEDF0"",""assignmentId"":""3c38df97-5bea-40e9-b030-d912dbaae88e"",""projectId"":""6d972c12-ef4f-4967-baa7-815328c4c025""}","https://test12345.live/?num_scrambled_semantic=8&num_scrambled_causal=4&num_scrambled_schematic=4&participantId=1F6D14219DB14F748F80AE9837CEEDF0&assignmentId=3c38df97-5bea-40e9-b030-d912dbaae88e&projectId=6d972c12-ef4f-4967-baa7-815328c4c025","1F6D14219DB14F748F80AE9837CEEDF0-2025-08-07-18-27-36","","null","","[]","null","",""
"","","","","","image-button-response","63","618679","0.0-12.0-1.0-0.2","1F6D14219DB14F748F80AE9837CEEDF0","1F6D14219DB14F748F80AE9837CEEDF0","3c38df97-5bea-40e9-b030-d912dbaae88e","6d972c12-ef4f-4967-baa7-815328c4c025","{""num_scrambled_semantic"":""8"",""num_scrambled_causal"":""4"",""num_scrambled_schematic"":""4"",""participantId"":""1F6D14219DB14F748F80AE9837CEEDF0"",""assignmentId"":""3c38df97-5bea-40e9-b030-d912dbaae88e"",""projectId"":""6d972c12-ef4f-4967-baa7-815328c4c025""}","https://test12345.live/?num_scrambled_semantic=8&num_scrambled_causal=4&num_scrambled_schematic=4&participantId=1F6D14219DB14F748F80AE9837CEEDF0&assignmentId=3c38df97-5bea-40e9-b030-d912dbaae88e&projectId=6d972c12-ef4f-4967-baa7-815328c4c025","1F6D14219DB14F748F80AE9837CEEDF0-2025-08-07-18-27-36","","null","","images/causal_sequence/package_causal/package_causal_3.png","null","",""
"","","","","","image-button-response","64","619352","0.0-12.0-1.0-1.2","1F6D14219DB14F748F80AE9837CEEDF0","1F6D14219DB14F748F80AE9837CEEDF0","3c38df97-5bea-40e9-b030-d912dbaae88e","6d972c12-ef4f-4967-baa7-815328c4c025","{""num_scrambled_semantic"":""8"",""num_scrambled_causal"":""4"",""num_scrambled_schematic"":""4"",""participantId"":""1F6D14219DB14F748F80AE9837CEEDF0"",""assignmentId"":""3c38df97-5bea-40e9-b030-d912dbaae88e"",""projectId"":""6d972c12-ef4f-4967-baa7-815328c4c025""}","https://test12345.live/?num_scrambled_semantic=8&num_scrambled_causal=4&num_scrambled_schematic=4&participantId=1F6D14219DB14F748F80AE9837CEEDF0&assignmentId=3c38df97-5bea-40e9-b030-d912dbaae88e&projectId=6d972c12-ef4f-4967-baa7-815328c4c025","1F6D14219DB14F748F80AE9837CEEDF0-2025-08-07-18-27-36","","672","","images/causal_sequence/package_causal/package_causal_3.png","0","",""
"","","","","","image-button-response","65","621153","0.0-12.0-1.0-2.2","1F6D14219DB14F748F80AE9837CEEDF0","1F6D14219DB14F748F80AE9837CEEDF0","3c38df97-5bea-40e9-b030-d912dbaae88e","6d972c12-ef4f-4967-baa7-815328c4c025","{""num_scrambled_semantic"":""8"",""num_scrambled_causal"":""4"",""num_scrambled_schematic"":""4"",""participantId"":""1F6D14219DB14F748F80AE9837CEEDF0"",""assignmentId"":""3c38df97-5bea-40e9-b030-d912dbaae88e"",""projectId"":""6d972c12-ef4f-4967-baa7-815328c4c025""}","https://test12345.live/?num_scrambled_semantic=8&num_scrambled_causal=4&num_scrambled_schematic=4&participantId=1F6D14219DB14F748F80AE9837CEEDF0&assignmentId=3c38df97-5bea-40e9-b030-d912dbaae88e&projectId=6d972c12-ef4f-4967-baa7-815328c4c025","1F6D14219DB14F748F80AE9837CEEDF0-2025-08-07-18-27-36","","null","","[]","null","",""
"","","","","","image-button-response","66","625654","0.0-12.0-1.0-0.3","1F6D14219DB14F748F80AE9837CEEDF0","1F6D14219DB14F748F80AE9837CEEDF0","3c38df97-5bea-40e9-b030-d912dbaae88e","6d972c12-ef4f-4967-baa7-815328c4c025","{""num_scrambled_semantic"":""8"",""num_scrambled_causal"":""4"",""num_scrambled_schematic"":""4"",""participantId"":""1F6D14219DB14F748F80AE9837CEEDF0"",""assignmentId"":""3c38df97-5bea-40e9-b030-d912dbaae88e"",""projectId"":""6d972c12-ef4f-4967-baa7-815328c4c025""}","https://test12345.live/?num_scrambled_semantic=8&num_scrambled_causal=4&num_scrambled_schematic=4&participantId=1F6D14219DB14F748F80AE9837CEEDF0&assignmentId=3c38df97-5bea-40e9-b030-d912dbaae88e&projectId=6d972c12-ef4f-4967-baa7-815328c4c025","1F6D14219DB14F748F80AE9837CEEDF0-2025-08-07-18-27-36","","null","","images/causal_sequence/package_causal/package_causal_4.png","null","",""
"","","","","","image-button-response","67","626774","0.0-12.0-1.0-1.3","1F6D14219DB14F748F80AE9837CEEDF0","1F6D14219DB14F748F80AE9837CEEDF0","3c38df97-5bea-40e9-b030-d912dbaae88e","6d972c12-ef4f-4967-baa7-815328c4c025","{""num_scrambled_semantic"":""8"",""num_scrambled_causal"":""4"",""num_scrambled_schematic"":""4"",""participantId"":""1F6D14219DB14F748F80AE9837CEEDF0"",""assignmentId"":""3c38df97-5bea-40e9-b030-d912dbaae88e"",""projectId"":""6d972c12-ef4f-4967-baa7-815328c4c025""}","https://test12345.live/?num_scrambled_semantic=8&num_scrambled_causal=4&num_scrambled_schematic=4&participantId=1F6D14219DB14F748F80AE9837CEEDF0&assignmentId=3c38df97-5bea-40e9-b030-d912dbaae88e&projectId=6d972c12-ef4f-4967-baa7-815328c4c025","1F6D14219DB14F748F80AE9837CEEDF0-2025-08-07-18-27-36","","1119","","images/causal_sequence/package_causal/package_causal_4.png","1","",""
"","","","","","image-button-response","68","628575","0.0-12.0-1.0-2.3","1F6D14219DB14F748F80AE9837CEEDF0","1F6D14219DB14F748F80AE9837CEEDF0","3c38df97-5bea-40e9-b030-d912dbaae88e","6d972c12-ef4f-4967-baa7-815328c4c025","{""num_scrambled_semantic"":""8"",""num_scrambled_causal"":""4"",""num_scrambled_schematic"":""4"",""participantId"":""1F6D14219DB14F748F80AE9837CEEDF0"",""assignmentId"":""3c38df97-5bea-40e9-b030-d912dbaae88e"",""projectId"":""6d972c12-ef4f-4967-baa7-815328c4c025""}","https://test12345.live/?num_scrambled_semantic=8&num_scrambled_causal=4&num_scrambled_schematic=4&participantId=1F6D14219DB14F748F80AE9837CEEDF0&assignmentId=3c38df97-5bea-40e9-b030-d912dbaae88e&projectId=6d972c12-ef4f-4967-baa7-815328c4c025","1F6D14219DB14F748F80AE9837CEEDF0-2025-08-07-18-27-36","","null","","[]","null","",""
"","","","","","image-button-response","69","633076","0.0-12.0-1.0-0.4","1F6D14219DB14F748F80AE9837CEEDF0","1F6D14219DB14F748F80AE9837CEEDF0","3c38df97-5bea-40e9-b030-d912dbaae88e","6d972c12-ef4f-4967-baa7-815328c4c025","{""num_scrambled_semantic"":""8"",""num_scrambled_causal"":""4"",""num_scrambled_schematic"":""4"",""participantId"":""1F6D14219DB14F748F80AE9837CEEDF0"",""assignmentId"":""3c38df97-5bea-40e9-b030-d912dbaae88e"",""projectId"":""6d972c12-ef4f-4967-baa7-815328c4c025""}","https://test12345.live/?num_scrambled_semantic=8&num_scrambled_causal=4&num_scrambled_schematic=4&participantId=1F6D14219DB14F748F80AE9837CEEDF0&assignmentId=3c38df97-5bea-40e9-b030-d912dbaae88e&projectId=6d972c12-ef4f-4967-baa7-815328c4c025","1F6D14219DB14F748F80AE9837CEEDF0-2025-08-07-18-27-36","","null","","images/causal_sequence/package_causal/package_causal_5.png","null","",""
"","","","","","image-button-response","70","633813","0.0-12.0-1.0-1.4","1F6D14219DB14F748F80AE9837CEEDF0","1F6D14219DB14F748F80AE9837CEEDF0","3c38df97-5bea-40e9-b030-d912dbaae88e","6d972c12-ef4f-4967-baa7-815328c4c025","{""num_scrambled_semantic"":""8"",""num_scrambled_causal"":""4"",""num_scrambled_schematic"":""4"",""participantId"":""1F6D14219DB14F748F80AE9837CEEDF0"",""assignmentId"":""3c38df97-5bea-40e9-b030-d912dbaae88e"",""projectId"":""6d972c12-ef4f-4967-baa7-815328c4c025""}","https://test12345.live/?num_scrambled_semantic=8&num_scrambled_causal=4&num_scrambled_schematic=4&participantId=1F6D14219DB14F748F80AE9837CEEDF0&assignmentId=3c38df97-5bea-40e9-b030-d912dbaae88e&projectId=6d972c12-ef4f-4967-baa7-815328c4c025","1F6D14219DB14F748F80AE9837CEEDF0-2025-08-07-18-27-36","","736","","images/causal_sequence/package_causal/package_causal_5.png","0","",""
"","","","","","image-button-response","71","635616","0.0-12.0-1.0-2.4","1F6D14219DB14F748F80AE9837CEEDF0","1F6D14219DB14F748F80AE9837CEEDF0","3c38df97-5bea-40e9-b030-d912dbaae88e","6d972c12-ef4f-4967-baa7-815328c4c025","{""num_scrambled_semantic"":""8"",""num_scrambled_causal"":""4"",""num_scrambled_schematic"":""4"",""participantId"":""1F6D14219DB14F748F80AE9837CEEDF0"",""assignmentId"":""3c38df97-5bea-40e9-b030-d912dbaae88e"",""projectId"":""6d972c12-ef4f-4967-baa7-815328c4c025""}","https://test12345.live/?num_scrambled_semantic=8&num_scrambled_causal=4&num_scrambled_schematic=4&participantId=1F6D14219DB14F748F80AE9837CEEDF0&assignmentId=3c38df97-5bea-40e9-b030-d912dbaae88e&projectId=6d972c12-ef4f-4967-baa7-815328c4c025","1F6D14219DB14F748F80AE9837CEEDF0-2025-08-07-18-27-36","","null","","[]","null","",""
"","","","","","image-button-response","72","640118","0.0-12.0-1.0-0.5","1F6D14219DB14F748F80AE9837CEEDF0","1F6D14219DB14F748F80AE9837CEEDF0","3c38df97-5bea-40e9-b030-d912dbaae88e","6d972c12-ef4f-4967-baa7-815328c4c025","{""num_scrambled_semantic"":""8"",""num_scrambled_causal"":""4"",""num_scrambled_schematic"":""4"",""participantId"":""1F6D14219DB14F748F80AE9837CEEDF0"",""assignmentId"":""3c38df97-5bea-40e9-b030-d912dbaae88e"",""projectId"":""6d972c12-ef4f-4967-baa7-815328c4c025""}","https://test12345.live/?num_scrambled_semantic=8&num_scrambled_causal=4&num_scrambled_schematic=4&participantId=1F6D14219DB14F748F80AE9837CEEDF0&assignmentId=3c38df97-5bea-40e9-b030-d912dbaae88e&projectId=6d972c12-ef4f-4967-baa7-815328c4c025","1F6D14219DB14F748F80AE9837CEEDF0-2025-08-07-18-27-36","","null","","images/causal_sequence/package_causal/package_causal_6.png","null","",""
"","","","","","image-button-response","73","640636","0.0-12.0-1.0-1.5","1F6D14219DB14F748F80AE9837CEEDF0","1F6D14219DB14F748F80AE9837CEEDF0","3c38df97-5bea-40e9-b030-d912dbaae88e","6d972c12-ef4f-4967-baa7-815328c4c025","{""num_scrambled_semantic"":""8"",""num_scrambled_causal"":""4"",""num_scrambled_schematic"":""4"",""participantId"":""1F6D14219DB14F748F80AE9837CEEDF0"",""assignmentId"":""3c38df97-5bea-40e9-b030-d912dbaae88e"",""projectId"":""6d972c12-ef4f-4967-baa7-815328c4c025""}","https://test12345.live/?num_scrambled_semantic=8&num_scrambled_causal=4&num_scrambled_schematic=4&participantId=1F6D14219DB14F748F80AE9837CEEDF0&assignmentId=3c38df97-5bea-40e9-b030-d912dbaae88e&projectId=6d972c12-ef4f-4967-baa7-815328c4c025","1F6D14219DB14F748F80AE9837CEEDF0-2025-08-07-18-27-36","","518","","images/causal_sequence/package_causal/package_causal_6.png","0","",""
"","","","","","image-button-response","74","642438","0.0-12.0-1.0-2.5","1F6D14219DB14F748F80AE9837CEEDF0","1F6D14219DB14F748F80AE9837CEEDF0","3c38df97-5bea-40e9-b030-d912dbaae88e","6d972c12-ef4f-4967-baa7-815328c4c025","{""num_scrambled_semantic"":""8"",""num_scrambled_causal"":""4"",""num_scrambled_schematic"":""4"",""participantId"":""1F6D14219DB14F748F80AE9837CEEDF0"",""assignmentId"":""3c38df97-5bea-40e9-b030-d912dbaae88e"",""projectId"":""6d972c12-ef4f-4967-baa7-815328c4c025""}","https://test12345.live/?num_scrambled_semantic=8&num_scrambled_causal=4&num_scrambled_schematic=4&participantId=1F6D14219DB14F748F80AE9837CEEDF0&assignmentId=3c38df97-5bea-40e9-b030-d912dbaae88e&projectId=6d972c12-ef4f-4967-baa7-815328c4c025","1F6D14219DB14F748F80AE9837CEEDF0-2025-08-07-18-27-36","","null","","[]","null","",""
"","","","","","image-button-response","75","646939","0.0-12.0-1.0-0.6","1F6D14219DB14F748F80AE9837CEEDF0","1F6D14219DB14F748F80AE9837CEEDF0","3c38df97-5bea-40e9-b030-d912dbaae88e","6d972c12-ef4f-4967-baa7-815328c4c025","{""num_scrambled_semantic"":""8"",""num_scrambled_causal"":""4"",""num_scrambled_schematic"":""4"",""participantId"":""1F6D14219DB14F748F80AE9837CEEDF0"",""assignmentId"":""3c38df97-5bea-40e9-b030-d912dbaae88e"",""projectId"":""6d972c12-ef4f-4967-baa7-815328c4c025""}","https://test12345.live/?num_scrambled_semantic=8&num_scrambled_causal=4&num_scrambled_schematic=4&participantId=1F6D14219DB14F748F80AE9837CEEDF0&assignmentId=3c38df97-5bea-40e9-b030-d912dbaae88e&projectId=6d972c12-ef4f-4967-baa7-815328c4c025","1F6D14219DB14F748F80AE9837CEEDF0-2025-08-07-18-27-36","","null","","images/causal_sequence/package_causal/package_causal_7.png","null","",""
"","","","","","image-button-response","76","648130","0.0-12.0-1.0-1.6","1F6D14219DB14F748F80AE9837CEEDF0","1F6D14219DB14F748F80AE9837CEEDF0","3c38df97-5bea-40e9-b030-d912dbaae88e","6d972c12-ef4f-4967-baa7-815328c4c025","{""num_scrambled_semantic"":""8"",""num_scrambled_causal"":""4"",""num_scrambled_schematic"":""4"",""participantId"":""1F6D14219DB14F748F80AE9837CEEDF0"",""assignmentId"":""3c38df97-5bea-40e9-b030-d912dbaae88e"",""projectId"":""6d972c12-ef4f-4967-baa7-815328c4c025""}","https://test12345.live/?num_scrambled_semantic=8&num_scrambled_causal=4&num_scrambled_schematic=4&participantId=1F6D14219DB14F748F80AE9837CEEDF0&assignmentId=3c38df97-5bea-40e9-b030-d912dbaae88e&projectId=6d972c12-ef4f-4967-baa7-815328c4c025","1F6D14219DB14F748F80AE9837CEEDF0-2025-08-07-18-27-36","","1189","","images/causal_sequence/package_causal/package_causal_7.png","0","",""
"","","","","","image-button-response","77","649933","0.0-12.0-1.0-2.6","1F6D14219DB14F748F80AE9837CEEDF0","1F6D14219DB14F748F80AE9837CEEDF0","3c38df97-5bea-40e9-b030-d912dbaae88e","6d972c12-ef4f-4967-baa7-815328c4c025","{""num_scrambled_semantic"":""8"",""num_scrambled_causal"":""4"",""num_scrambled_schematic"":""4"",""participantId"":""1F6D14219DB14F748F80AE9837CEEDF0"",""assignmentId"":""3c38df97-5bea-40e9-b030-d912dbaae88e"",""projectId"":""6d972c12-ef4f-4967-baa7-815328c4c025""}","https://test12345.live/?num_scrambled_semantic=8&num_scrambled_causal=4&num_scrambled_schematic=4&participantId=1F6D14219DB14F748F80AE9837CEEDF0&assignmentId=3c38df97-5bea-40e9-b030-d912dbaae88e&projectId=6d972c12-ef4f-4967-baa7-815328c4c025","1F6D14219DB14F748F80AE9837CEEDF0-2025-08-07-18-27-36","","null","","[]","null","",""
"","","","","","image-button-response","78","654434","0.0-12.0-1.0-0.7","1F6D14219DB14F748F80AE9837CEEDF0","1F6D14219DB14F748F80AE9837CEEDF0","3c38df97-5bea-40e9-b030-d912dbaae88e","6d972c12-ef4f-4967-baa7-815328c4c025","{""num_scrambled_semantic"":""8"",""num_scrambled_causal"":""4"",""num_scrambled_schematic"":""4"",""participantId"":""1F6D14219DB14F748F80AE9837CEEDF0"",""assignmentId"":""3c38df97-5bea-40e9-b030-d912dbaae88e"",""projectId"":""6d972c12-ef4f-4967-baa7-815328c4c025""}","https://test12345.live/?num_scrambled_semantic=8&num_scrambled_causal=4&num_scrambled_schematic=4&participantId=1F6D14219DB14F748F80AE9837CEEDF0&assignmentId=3c38df97-5bea-40e9-b030-d912dbaae88e&projectId=6d972c12-ef4f-4967-baa7-815328c4c025","1F6D14219DB14F748F80AE9837CEEDF0-2025-08-07-18-27-36","","null","","images/causal_sequence/package_causal/package_causal_8.png","null","",""
"","","","","","image-button-response","79","655329","0.0-12.0-1.0-1.7","1F6D14219DB14F748F80AE9837CEEDF0","1F6D14219DB14F748F80AE9837CEEDF0","3c38df97-5bea-40e9-b030-d912dbaae88e","6d972c12-ef4f-4967-baa7-815328c4c025","{""num_scrambled_semantic"":""8"",""num_scrambled_causal"":""4"",""num_scrambled_schematic"":""4"",""participantId"":""1F6D14219DB14F748F80AE9837CEEDF0"",""assignmentId"":""3c38df97-5bea-40e9-b030-d912dbaae88e"",""projectId"":""6d972c12-ef4f-4967-baa7-815328c4c025""}","https://test12345.live/?num_scrambled_semantic=8&num_scrambled_causal=4&num_scrambled_schematic=4&participantId=1F6D14219DB14F748F80AE9837CEEDF0&assignmentId=3c38df97-5bea-40e9-b030-d912dbaae88e&projectId=6d972c12-ef4f-4967-baa7-815328c4c025","1F6D14219DB14F748F80AE9837CEEDF0-2025-08-07-18-27-36","","895","","images/causal_sequence/package_causal/package_causal_8.png","0","",""
"","","","","","image-button-response","80","657131","0.0-12.0-1.0-2.7","1F6D14219DB14F748F80AE9837CEEDF0","1F6D14219DB14F748F80AE9837CEEDF0","3c38df97-5bea-40e9-b030-d912dbaae88e","6d972c12-ef4f-4967-baa7-815328c4c025","{""num_scrambled_semantic"":""8"",""num_scrambled_causal"":""4"",""num_scrambled_schematic"":""4"",""participantId"":""1F6D14219DB14F748F80AE9837CEEDF0"",""assignmentId"":""3c38df97-5bea-40e9-b030-d912dbaae88e"",""projectId"":""6d972c12-ef4f-4967-baa7-815328c4c025""}","https://test12345.live/?num_scrambled_semantic=8&num_scrambled_causal=4&num_scrambled_schematic=4&participantId=1F6D14219DB14F748F80AE9837CEEDF0&assignmentId=3c38df97-5bea-40e9-b030-d912dbaae88e&projectId=6d972c12-ef4f-4967-baa7-815328c4c025","1F6D14219DB14F748F80AE9837CEEDF0-2025-08-07-18-27-36","","null","","[]","null","",""
"","","","","","image-button-response","81","661632","0.0-12.0-1.0-0.8","1F6D14219DB14F748F80AE9837CEEDF0","1F6D14219DB14F748F80AE9837CEEDF0","3c38df97-5bea-40e9-b030-d912dbaae88e","6d972c12-ef4f-4967-baa7-815328c4c025","{""num_scrambled_semantic"":""8"",""num_scrambled_causal"":""4"",""num_scrambled_schematic"":""4"",""participantId"":""1F6D14219DB14F748F80AE9837CEEDF0"",""assignmentId"":""3c38df97-5bea-40e9-b030-d912dbaae88e"",""projectId"":""6d972c12-ef4f-4967-baa7-815328c4c025""}","https://test12345.live/?num_scrambled_semantic=8&num_scrambled_causal=4&num_scrambled_schematic=4&participantId=1F6D14219DB14F748F80AE9837CEEDF0&assignmentId=3c38df97-5bea-40e9-b030-d912dbaae88e&projectId=6d972c12-ef4f-4967-baa7-815328c4c025","1F6D14219DB14F748F80AE9837CEEDF0-2025-08-07-18-27-36","","null","","images/causal_sequence/package_causal/package_causal_9.png","null","",""
"","","","","","image-button-response","82","662318","0.0-12.0-1.0-1.8","1F6D14219DB14F748F80AE9837CEEDF0","1F6D14219DB14F748F80AE9837CEEDF0","3c38df97-5bea-40e9-b030-d912dbaae88e","6d972c12-ef4f-4967-baa7-815328c4c025","{""num_scrambled_semantic"":""8"",""num_scrambled_causal"":""4"",""num_scrambled_schematic"":""4"",""participantId"":""1F6D14219DB14F748F80AE9837CEEDF0"",""assignmentId"":""3c38df97-5bea-40e9-b030-d912dbaae88e"",""projectId"":""6d972c12-ef4f-4967-baa7-815328c4c025""}","https://test12345.live/?num_scrambled_semantic=8&num_scrambled_causal=4&num_scrambled_schematic=4&participantId=1F6D14219DB14F748F80AE9837CEEDF0&assignmentId=3c38df97-5bea-40e9-b030-d912dbaae88e&projectId=6d972c12-ef4f-4967-baa7-815328c4c025","1F6D14219DB14F748F80AE9837CEEDF0-2025-08-07-18-27-36","","685","","images/causal_sequence/package_causal/package_causal_9.png","0","",""
"","","","","","image-button-response","83","664119","0.0-12.0-1.0-2.8","1F6D14219DB14F748F80AE9837CEEDF0","1F6D14219DB14F748F80AE9837CEEDF0","3c38df97-5bea-40e9-b030-d912dbaae88e","6d972c12-ef4f-4967-baa7-815328c4c025","{""num_scrambled_semantic"":""8"",""num_scrambled_causal"":""4"",""num_scrambled_schematic"":""4"",""participantId"":""1F6D14219DB14F748F80AE9837CEEDF0"",""assignmentId"":""3c38df97-5bea-40e9-b030-d912dbaae88e"",""projectId"":""6d972c12-ef4f-4967-baa7-815328c4c025""}","https://test12345.live/?num_scrambled_semantic=8&num_scrambled_causal=4&num_scrambled_schematic=4&participantId=1F6D14219DB14F748F80AE9837CEEDF0&assignmentId=3c38df97-5bea-40e9-b030-d912dbaae88e&projectId=6d972c12-ef4f-4967-baa7-815328c4c025","1F6D14219DB14F748F80AE9837CEEDF0-2025-08-07-18-27-36","","null","","[]","null","",""
"","","","","","image-button-response","84","668621","0.0-12.0-1.0-0.9","1F6D14219DB14F748F80AE9837CEEDF0","1F6D14219DB14F748F80AE9837CEEDF0","3c38df97-5bea-40e9-b030-d912dbaae88e","6d972c12-ef4f-4967-baa7-815328c4c025","{""num_scrambled_semantic"":""8"",""num_scrambled_causal"":""4"",""num_scrambled_schematic"":""4"",""participantId"":""1F6D14219DB14F748F80AE9837CEEDF0"",""assignmentId"":""3c38df97-5bea-40e9-b030-d912dbaae88e"",""projectId"":""6d972c12-ef4f-4967-baa7-815328c4c025""}","https://test12345.live/?num_scrambled_semantic=8&num_scrambled_causal=4&num_scrambled_schematic=4&participantId=1F6D14219DB14F748F80AE9837CEEDF0&assignmentId=3c38df97-5bea-40e9-b030-d912dbaae88e&projectId=6d972c12-ef4f-4967-baa7-815328c4c025","1F6D14219DB14F748F80AE9837CEEDF0-2025-08-07-18-27-36","","null","","images/causal_sequence/package_causal/package_causal_ten.png","null","",""
"","","","","","image-button-response","85","669836","0.0-12.0-1.0-1.9","1F6D14219DB14F748F80AE9837CEEDF0","1F6D14219DB14F748F80AE9837CEEDF0","3c38df97-5bea-40e9-b030-d912dbaae88e","6d972c12-ef4f-4967-baa7-815328c4c025","{""num_scrambled_semantic"":""8"",""num_scrambled_causal"":""4"",""num_scrambled_schematic"":""4"",""participantId"":""1F6D14219DB14F748F80AE9837CEEDF0"",""assignmentId"":""3c38df97-5bea-40e9-b030-d912dbaae88e"",""projectId"":""6d972c12-ef4f-4967-baa7-815328c4c025""}","https://test12345.live/?num_scrambled_semantic=8&num_scrambled_causal=4&num_scrambled_schematic=4&participantId=1F6D14219DB14F748F80AE9837CEEDF0&assignmentId=3c38df97-5bea-40e9-b030-d912dbaae88e&projectId=6d972c12-ef4f-4967-baa7-815328c4c025","1F6D14219DB14F748F80AE9837CEEDF0-2025-08-07-18-27-36","","1214","","images/causal_sequence/package_causal/package_causal_ten.png","0","",""
"","","","","","image-button-response","86","671638","0.0-12.0-1.0-2.9","1F6D14219DB14F748F80AE9837CEEDF0","1F6D14219DB14F748F80AE9837CEEDF0","3c38df97-5bea-40e9-b030-d912dbaae88e","6d972c12-ef4f-4967-baa7-815328c4c025","{""num_scrambled_semantic"":""8"",""num_scrambled_causal"":""4"",""num_scrambled_schematic"":""4"",""participantId"":""1F6D14219DB14F748F80AE9837CEEDF0"",""assignmentId"":""3c38df97-5bea-40e9-b030-d912dbaae88e"",""projectId"":""6d972c12-ef4f-4967-baa7-815328c4c025""}","https://test12345.live/?num_scrambled_semantic=8&num_scrambled_causal=4&num_scrambled_schematic=4&participantId=1F6D14219DB14F748F80AE9837CEEDF0&assignmentId=3c38df97-5bea-40e9-b030-d912dbaae88e&projectId=6d972c12-ef4f-4967-baa7-815328c4c025","1F6D14219DB14F748F80AE9837CEEDF0-2025-08-07-18-27-36","","null","","[]","null","",""
"","","","","","html-audio-response","87","716786","0.0-13.0","1F6D14219DB14F748F80AE9837CEEDF0","1F6D14219DB14F748F80AE9837CEEDF0","3c38df97-5bea-40e9-b030-d912dbaae88e","6d972c12-ef4f-4967-baa7-815328c4c025","{""num_scrambled_semantic"":""8"",""num_scrambled_causal"":""4"",""num_scrambled_schematic"":""4"",""participantId"":""1F6D14219DB14F748F80AE9837CEEDF0"",""assignmentId"":""3c38df97-5bea-40e9-b030-d912dbaae88e"",""projectId"":""6d972c12-ef4f-4967-baa7-815328c4c025""}","https://test12345.live/?num_scrambled_semantic=8&num_scrambled_causal=4&num_scrambled_schematic=4&participantId=1F6D14219DB14F748F80AE9837CEEDF0&assignmentId=3c38df97-5bea-40e9-b030-d912dbaae88e&projectId=6d972c12-ef4f-4967-baa7-815328c4c025","1F6D14219DB14F748F80AE9837CEEDF0-2025-08-07-18-27-36","","36668","","[""<span style=\""color: red; font-size: 24px\""> NOW RECORDING</span><p>Please say out loud all the images you saw, in the exact order you saw them. Try to recall as many images as you can, but remember: getting the order right is more important than the number of images you recall.</p>""]","","3","package_causal"
"","","","","","image-button-response","88","722793","0.0-14.0-0.0","1F6D14219DB14F748F80AE9837CEEDF0","1F6D14219DB14F748F80AE9837CEEDF0","3c38df97-5bea-40e9-b030-d912dbaae88e","6d972c12-ef4f-4967-baa7-815328c4c025","{""num_scrambled_semantic"":""8"",""num_scrambled_causal"":""4"",""num_scrambled_schematic"":""4"",""participantId"":""1F6D14219DB14F748F80AE9837CEEDF0"",""assignmentId"":""3c38df97-5bea-40e9-b030-d912dbaae88e"",""projectId"":""6d972c12-ef4f-4967-baa7-815328c4c025""}","https://test12345.live/?num_scrambled_semantic=8&num_scrambled_causal=4&num_scrambled_schematic=4&participantId=1F6D14219DB14F748F80AE9837CEEDF0&assignmentId=3c38df97-5bea-40e9-b030-d912dbaae88e&projectId=6d972c12-ef4f-4967-baa7-815328c4c025","1F6D14219DB14F748F80AE9837CEEDF0-2025-08-07-18-27-36","","null","","images/causal_sequence/saving_a_cat_causal/saving_a_cat_causal_0.png","null","",""
"","","","","","image-button-response","89","727294","0.0-14.0-1.0-0.0","1F6D14219DB14F748F80AE9837CEEDF0","1F6D14219DB14F748F80AE9837CEEDF0","3c38df97-5bea-40e9-b030-d912dbaae88e","6d972c12-ef4f-4967-baa7-815328c4c025","{""num_scrambled_semantic"":""8"",""num_scrambled_causal"":""4"",""num_scrambled_schematic"":""4"",""participantId"":""1F6D14219DB14F748F80AE9837CEEDF0"",""assignmentId"":""3c38df97-5bea-40e9-b030-d912dbaae88e"",""projectId"":""6d972c12-ef4f-4967-baa7-815328c4c025""}","https://test12345.live/?num_scrambled_semantic=8&num_scrambled_causal=4&num_scrambled_schematic=4&participantId=1F6D14219DB14F748F80AE9837CEEDF0&assignmentId=3c38df97-5bea-40e9-b030-d912dbaae88e&projectId=6d972c12-ef4f-4967-baa7-815328c4c025","1F6D14219DB14F748F80AE9837CEEDF0-2025-08-07-18-27-36","","null","","images/causal_sequence/saving_a_cat_causal/saving_a_cat_causal_5.png","null","",""
"","","","","","image-button-response","90","731297","0.0-14.0-1.0-1.0","1F6D14219DB14F748F80AE9837CEEDF0","1F6D14219DB14F748F80AE9837CEEDF0","3c38df97-5bea-40e9-b030-d912dbaae88e","6d972c12-ef4f-4967-baa7-815328c4c025","{""num_scrambled_semantic"":""8"",""num_scrambled_causal"":""4"",""num_scrambled_schematic"":""4"",""participantId"":""1F6D14219DB14F748F80AE9837CEEDF0"",""assignmentId"":""3c38df97-5bea-40e9-b030-d912dbaae88e"",""projectId"":""6d972c12-ef4f-4967-baa7-815328c4c025""}","https://test12345.live/?num_scrambled_semantic=8&num_scrambled_causal=4&num_scrambled_schematic=4&participantId=1F6D14219DB14F748F80AE9837CEEDF0&assignmentId=3c38df97-5bea-40e9-b030-d912dbaae88e&projectId=6d972c12-ef4f-4967-baa7-815328c4c025","1F6D14219DB14F748F80AE9837CEEDF0-2025-08-07-18-27-36","","null","","images/causal_sequence/saving_a_cat_causal/saving_a_cat_causal_5.png","null","",""
"","","","","","image-button-response","91","733098","0.0-14.0-1.0-2.0","1F6D14219DB14F748F80AE9837CEEDF0","1F6D14219DB14F748F80AE9837CEEDF0","3c38df97-5bea-40e9-b030-d912dbaae88e","6d972c12-ef4f-4967-baa7-815328c4c025","{""num_scrambled_semantic"":""8"",""num_scrambled_causal"":""4"",""num_scrambled_schematic"":""4"",""participantId"":""1F6D14219DB14F748F80AE9837CEEDF0"",""assignmentId"":""3c38df97-5bea-40e9-b030-d912dbaae88e"",""projectId"":""6d972c12-ef4f-4967-baa7-815328c4c025""}","https://test12345.live/?num_scrambled_semantic=8&num_scrambled_causal=4&num_scrambled_schematic=4&participantId=1F6D14219DB14F748F80AE9837CEEDF0&assignmentId=3c38df97-5bea-40e9-b030-d912dbaae88e&projectId=6d972c12-ef4f-4967-baa7-815328c4c025","1F6D14219DB14F748F80AE9837CEEDF0-2025-08-07-18-27-36","","null","","[]","null","",""
"","","","","","image-button-response","92","737599","0.0-14.0-1.0-0.1","1F6D14219DB14F748F80AE9837CEEDF0","1F6D14219DB14F748F80AE9837CEEDF0","3c38df97-5bea-40e9-b030-d912dbaae88e","6d972c12-ef4f-4967-baa7-815328c4c025","{""num_scrambled_semantic"":""8"",""num_scrambled_causal"":""4"",""num_scrambled_schematic"":""4"",""participantId"":""1F6D14219DB14F748F80AE9837CEEDF0"",""assignmentId"":""3c38df97-5bea-40e9-b030-d912dbaae88e"",""projectId"":""6d972c12-ef4f-4967-baa7-815328c4c025""}","https://test12345.live/?num_scrambled_semantic=8&num_scrambled_causal=4&num_scrambled_schematic=4&participantId=1F6D14219DB14F748F80AE9837CEEDF0&assignmentId=3c38df97-5bea-40e9-b030-d912dbaae88e&projectId=6d972c12-ef4f-4967-baa7-815328c4c025","1F6D14219DB14F748F80AE9837CEEDF0-2025-08-07-18-27-36","","null","","images/causal_sequence/saving_a_cat_causal/saving_a_cat_causal_1.png","null","",""
"","","","","","image-button-response","93","738441","0.0-14.0-1.0-1.1","1F6D14219DB14F748F80AE9837CEEDF0","1F6D14219DB14F748F80AE9837CEEDF0","3c38df97-5bea-40e9-b030-d912dbaae88e","6d972c12-ef4f-4967-baa7-815328c4c025","{""num_scrambled_semantic"":""8"",""num_scrambled_causal"":""4"",""num_scrambled_schematic"":""4"",""participantId"":""1F6D14219DB14F748F80AE9837CEEDF0"",""assignmentId"":""3c38df97-5bea-40e9-b030-d912dbaae88e"",""projectId"":""6d972c12-ef4f-4967-baa7-815328c4c025""}","https://test12345.live/?num_scrambled_semantic=8&num_scrambled_causal=4&num_scrambled_schematic=4&participantId=1F6D14219DB14F748F80AE9837CEEDF0&assignmentId=3c38df97-5bea-40e9-b030-d912dbaae88e&projectId=6d972c12-ef4f-4967-baa7-815328c4c025","1F6D14219DB14F748F80AE9837CEEDF0-2025-08-07-18-27-36","","841","","images/causal_sequence/saving_a_cat_causal/saving_a_cat_causal_1.png","0","",""
"","","","","","image-button-response","94","740242","0.0-14.0-1.0-2.1","1F6D14219DB14F748F80AE9837CEEDF0","1F6D14219DB14F748F80AE9837CEEDF0","3c38df97-5bea-40e9-b030-d912dbaae88e","6d972c12-ef4f-4967-baa7-815328c4c025","{""num_scrambled_semantic"":""8"",""num_scrambled_causal"":""4"",""num_scrambled_schematic"":""4"",""participantId"":""1F6D14219DB14F748F80AE9837CEEDF0"",""assignmentId"":""3c38df97-5bea-40e9-b030-d912dbaae88e"",""projectId"":""6d972c12-ef4f-4967-baa7-815328c4c025""}","https://test12345.live/?num_scrambled_semantic=8&num_scrambled_causal=4&num_scrambled_schematic=4&participantId=1F6D14219DB14F748F80AE9837CEEDF0&assignmentId=3c38df97-5bea-40e9-b030-d912dbaae88e&projectId=6d972c12-ef4f-4967-baa7-815328c4c025","1F6D14219DB14F748F80AE9837CEEDF0-2025-08-07-18-27-36","","null","","[]","null","",""
"","","","","","image-button-response","95","744744","0.0-14.0-1.0-0.2","1F6D14219DB14F748F80AE9837CEEDF0","1F6D14219DB14F748F80AE9837CEEDF0","3c38df97-5bea-40e9-b030-d912dbaae88e","6d972c12-ef4f-4967-baa7-815328c4c025","{""num_scrambled_semantic"":""8"",""num_scrambled_causal"":""4"",""num_scrambled_schematic"":""4"",""participantId"":""1F6D14219DB14F748F80AE9837CEEDF0"",""assignmentId"":""3c38df97-5bea-40e9-b030-d912dbaae88e"",""projectId"":""6d972c12-ef4f-4967-baa7-815328c4c025""}","https://test12345.live/?num_scrambled_semantic=8&num_scrambled_causal=4&num_scrambled_schematic=4&participantId=1F6D14219DB14F748F80AE9837CEEDF0&assignmentId=3c38df97-5bea-40e9-b030-d912dbaae88e&projectId=6d972c12-ef4f-4967-baa7-815328c4c025","1F6D14219DB14F748F80AE9837CEEDF0-2025-08-07-18-27-36","","null","","images/causal_sequence/saving_a_cat_causal/saving_a_cat_causal_7.png","null","",""
"","","","","","image-button-response","96","745977","0.0-14.0-1.0-1.2","1F6D14219DB14F748F80AE9837CEEDF0","1F6D14219DB14F748F80AE9837CEEDF0","3c38df97-5bea-40e9-b030-d912dbaae88e","6d972c12-ef4f-4967-baa7-815328c4c025","{""num_scrambled_semantic"":""8"",""num_scrambled_causal"":""4"",""num_scrambled_schematic"":""4"",""participantId"":""1F6D14219DB14F748F80AE9837CEEDF0"",""assignmentId"":""3c38df97-5bea-40e9-b030-d912dbaae88e"",""projectId"":""6d972c12-ef4f-4967-baa7-815328c4c025""}","https://test12345.live/?num_scrambled_semantic=8&num_scrambled_causal=4&num_scrambled_schematic=4&participantId=1F6D14219DB14F748F80AE9837CEEDF0&assignmentId=3c38df97-5bea-40e9-b030-d912dbaae88e&projectId=6d972c12-ef4f-4967-baa7-815328c4c025","1F6D14219DB14F748F80AE9837CEEDF0-2025-08-07-18-27-36","","1233","","images/causal_sequence/saving_a_cat_causal/saving_a_cat_causal_7.png","0","",""
"","","","","","image-button-response","97","747779","0.0-14.0-1.0-2.2","1F6D14219DB14F748F80AE9837CEEDF0","1F6D14219DB14F748F80AE9837CEEDF0","3c38df97-5bea-40e9-b030-d912dbaae88e","6d972c12-ef4f-4967-baa7-815328c4c025","{""num_scrambled_semantic"":""8"",""num_scrambled_causal"":""4"",""num_scrambled_schematic"":""4"",""participantId"":""1F6D14219DB14F748F80AE9837CEEDF0"",""assignmentId"":""3c38df97-5bea-40e9-b030-d912dbaae88e"",""projectId"":""6d972c12-ef4f-4967-baa7-815328c4c025""}","https://test12345.live/?num_scrambled_semantic=8&num_scrambled_causal=4&num_scrambled_schematic=4&participantId=1F6D14219DB14F748F80AE9837CEEDF0&assignmentId=3c38df97-5bea-40e9-b030-d912dbaae88e&projectId=6d972c12-ef4f-4967-baa7-815328c4c025","1F6D14219DB14F748F80AE9837CEEDF0-2025-08-07-18-27-36","","null","","[]","null","",""
"","","","","","image-button-response","98","752280","0.0-14.0-1.0-0.3","1F6D14219DB14F748F80AE9837CEEDF0","1F6D14219DB14F748F80AE9837CEEDF0","3c38df97-5bea-40e9-b030-d912dbaae88e","6d972c12-ef4f-4967-baa7-815328c4c025","{""num_scrambled_semantic"":""8"",""num_scrambled_causal"":""4"",""num_scrambled_schematic"":""4"",""participantId"":""1F6D14219DB14F748F80AE9837CEEDF0"",""assignmentId"":""3c38df97-5bea-40e9-b030-d912dbaae88e"",""projectId"":""6d972c12-ef4f-4967-baa7-815328c4c025""}","https://test12345.live/?num_scrambled_semantic=8&num_scrambled_causal=4&num_scrambled_schematic=4&participantId=1F6D14219DB14F748F80AE9837CEEDF0&assignmentId=3c38df97-5bea-40e9-b030-d912dbaae88e&projectId=6d972c12-ef4f-4967-baa7-815328c4c025","1F6D14219DB14F748F80AE9837CEEDF0-2025-08-07-18-27-36","","null","","images/causal_sequence/saving_a_cat_causal/saving_a_cat_causal_6.png","null","",""
"","","","","","image-button-response","99","752910","0.0-14.0-1.0-1.3","1F6D14219DB14F748F80AE9837CEEDF0","1F6D14219DB14F748F80AE9837CEEDF0","3c38df97-5bea-40e9-b030-d912dbaae88e","6d972c12-ef4f-4967-baa7-815328c4c025","{""num_scrambled_semantic"":""8"",""num_scrambled_causal"":""4"",""num_scrambled_schematic"":""4"",""participantId"":""1F6D14219DB14F748F80AE9837CEEDF0"",""assignmentId"":""3c38df97-5bea-40e9-b030-d912dbaae88e"",""projectId"":""6d972c12-ef4f-4967-baa7-815328c4c025""}","https://test12345.live/?num_scrambled_semantic=8&num_scrambled_causal=4&num_scrambled_schematic=4&participantId=1F6D14219DB14F748F80AE9837CEEDF0&assignmentId=3c38df97-5bea-40e9-b030-d912dbaae88e&projectId=6d972c12-ef4f-4967-baa7-815328c4c025","1F6D14219DB14F748F80AE9837CEEDF0-2025-08-07-18-27-36","","629","","images/causal_sequence/saving_a_cat_causal/saving_a_cat_causal_6.png","0","",""
"","","","","","image-button-response","100","754711","0.0-14.0-1.0-2.3","1F6D14219DB14F748F80AE9837CEEDF0","1F6D14219DB14F748F80AE9837CEEDF0","3c38df97-5bea-40e9-b030-d912dbaae88e","6d972c12-ef4f-4967-baa7-815328c4c025","{""num_scrambled_semantic"":""8"",""num_scrambled_causal"":""4"",""num_scrambled_schematic"":""4"",""participantId"":""1F6D14219DB14F748F80AE9837CEEDF0"",""assignmentId"":""3c38df97-5bea-40e9-b030-d912dbaae88e"",""projectId"":""6d972c12-ef4f-4967-baa7-815328c4c025""}","https://test12345.live/?num_scrambled_semantic=8&num_scrambled_causal=4&num_scrambled_schematic=4&participantId=1F6D14219DB14F748F80AE9837CEEDF0&assignmentId=3c38df97-5bea-40e9-b030-d912dbaae88e&projectId=6d972c12-ef4f-4967-baa7-815328c4c025","1F6D14219DB14F748F80AE9837CEEDF0-2025-08-07-18-27-36","","null","","[]","null","",""
"","","","","","image-button-response","101","759213","0.0-14.0-1.0-0.4","1F6D14219DB14F748F80AE9837CEEDF0","1F6D14219DB14F748F80AE9837CEEDF0","3c38df97-5bea-40e9-b030-d912dbaae88e","6d972c12-ef4f-4967-baa7-815328c4c025","{""num_scrambled_semantic"":""8"",""num_scrambled_causal"":""4"",""num_scrambled_schematic"":""4"",""participantId"":""1F6D14219DB14F748F80AE9837CEEDF0"",""assignmentId"":""3c38df97-5bea-40e9-b030-d912dbaae88e"",""projectId"":""6d972c12-ef4f-4967-baa7-815328c4c025""}","https://test12345.live/?num_scrambled_semantic=8&num_scrambled_causal=4&num_scrambled_schematic=4&participantId=1F6D14219DB14F748F80AE9837CEEDF0&assignmentId=3c38df97-5bea-40e9-b030-d912dbaae88e&projectId=6d972c12-ef4f-4967-baa7-815328c4c025","1F6D14219DB14F748F80AE9837CEEDF0-2025-08-07-18-27-36","","null","","images/causal_sequence/saving_a_cat_causal/saving_a_cat_causal_3.png","null","",""
"","","","","","image-button-response","102","759913","0.0-14.0-1.0-1.4","1F6D14219DB14F748F80AE9837CEEDF0","1F6D14219DB14F748F80AE9837CEEDF0","3c38df97-5bea-40e9-b030-d912dbaae88e","6d972c12-ef4f-4967-baa7-815328c4c025","{""num_scrambled_semantic"":""8"",""num_scrambled_causal"":""4"",""num_scrambled_schematic"":""4"",""participantId"":""1F6D14219DB14F748F80AE9837CEEDF0"",""assignmentId"":""3c38df97-5bea-40e9-b030-d912dbaae88e"",""projectId"":""6d972c12-ef4f-4967-baa7-815328c4c025""}","https://test12345.live/?num_scrambled_semantic=8&num_scrambled_causal=4&num_scrambled_schematic=4&participantId=1F6D14219DB14F748F80AE9837CEEDF0&assignmentId=3c38df97-5bea-40e9-b030-d912dbaae88e&projectId=6d972c12-ef4f-4967-baa7-815328c4c025","1F6D14219DB14F748F80AE9837CEEDF0-2025-08-07-18-27-36","","699","","images/causal_sequence/saving_a_cat_causal/saving_a_cat_causal_3.png","0","",""
"","","","","","image-button-response","103","761715","0.0-14.0-1.0-2.4","1F6D14219DB14F748F80AE9837CEEDF0","1F6D14219DB14F748F80AE9837CEEDF0","3c38df97-5bea-40e9-b030-d912dbaae88e","6d972c12-ef4f-4967-baa7-815328c4c025","{""num_scrambled_semantic"":""8"",""num_scrambled_causal"":""4"",""num_scrambled_schematic"":""4"",""participantId"":""1F6D14219DB14F748F80AE9837CEEDF0"",""assignmentId"":""3c38df97-5bea-40e9-b030-d912dbaae88e"",""projectId"":""6d972c12-ef4f-4967-baa7-815328c4c025""}","https://test12345.live/?num_scrambled_semantic=8&num_scrambled_causal=4&num_scrambled_schematic=4&participantId=1F6D14219DB14F748F80AE9837CEEDF0&assignmentId=3c38df97-5bea-40e9-b030-d912dbaae88e&projectId=6d972c12-ef4f-4967-baa7-815328c4c025","1F6D14219DB14F748F80AE9837CEEDF0-2025-08-07-18-27-36","","null","","[]","null","",""
"","","","","","image-button-response","104","766216","0.0-14.0-1.0-0.5","1F6D14219DB14F748F80AE9837CEEDF0","1F6D14219DB14F748F80AE9837CEEDF0","3c38df97-5bea-40e9-b030-d912dbaae88e","6d972c12-ef4f-4967-baa7-815328c4c025","{""num_scrambled_semantic"":""8"",""num_scrambled_causal"":""4"",""num_scrambled_schematic"":""4"",""participantId"":""1F6D14219DB14F748F80AE9837CEEDF0"",""assignmentId"":""3c38df97-5bea-40e9-b030-d912dbaae88e"",""projectId"":""6d972c12-ef4f-4967-baa7-815328c4c025""}","https://test12345.live/?num_scrambled_semantic=8&num_scrambled_causal=4&num_scrambled_schematic=4&participantId=1F6D14219DB14F748F80AE9837CEEDF0&assignmentId=3c38df97-5bea-40e9-b030-d912dbaae88e&projectId=6d972c12-ef4f-4967-baa7-815328c4c025","1F6D14219DB14F748F80AE9837CEEDF0-2025-08-07-18-27-36","","null","","images/causal_sequence/saving_a_cat_causal/saving_a_cat_causal_4.png","null","",""
"","","","","","image-button-response","105","767079","0.0-14.0-1.0-1.5","1F6D14219DB14F748F80AE9837CEEDF0","1F6D14219DB14F748F80AE9837CEEDF0","3c38df97-5bea-40e9-b030-d912dbaae88e","6d972c12-ef4f-4967-baa7-815328c4c025","{""num_scrambled_semantic"":""8"",""num_scrambled_causal"":""4"",""num_scrambled_schematic"":""4"",""participantId"":""1F6D14219DB14F748F80AE9837CEEDF0"",""assignmentId"":""3c38df97-5bea-40e9-b030-d912dbaae88e"",""projectId"":""6d972c12-ef4f-4967-baa7-815328c4c025""}","https://test12345.live/?num_scrambled_semantic=8&num_scrambled_causal=4&num_scrambled_schematic=4&participantId=1F6D14219DB14F748F80AE9837CEEDF0&assignmentId=3c38df97-5bea-40e9-b030-d912dbaae88e&projectId=6d972c12-ef4f-4967-baa7-815328c4c025","1F6D14219DB14F748F80AE9837CEEDF0-2025-08-07-18-27-36","","862","","images/causal_sequence/saving_a_cat_causal/saving_a_cat_causal_4.png","0","",""
"","","","","","image-button-response","106","768881","0.0-14.0-1.0-2.5","1F6D14219DB14F748F80AE9837CEEDF0","1F6D14219DB14F748F80AE9837CEEDF0","3c38df97-5bea-40e9-b030-d912dbaae88e","6d972c12-ef4f-4967-baa7-815328c4c025","{""num_scrambled_semantic"":""8"",""num_scrambled_causal"":""4"",""num_scrambled_schematic"":""4"",""participantId"":""1F6D14219DB14F748F80AE9837CEEDF0"",""assignmentId"":""3c38df97-5bea-40e9-b030-d912dbaae88e"",""projectId"":""6d972c12-ef4f-4967-baa7-815328c4c025""}","https://test12345.live/?num_scrambled_semantic=8&num_scrambled_causal=4&num_scrambled_schematic=4&participantId=1F6D14219DB14F748F80AE9837CEEDF0&assignmentId=3c38df97-5bea-40e9-b030-d912dbaae88e&projectId=6d972c12-ef4f-4967-baa7-815328c4c025","1F6D14219DB14F748F80AE9837CEEDF0-2025-08-07-18-27-36","","null","","[]","null","",""
"","","","","","image-button-response","107","773383","0.0-14.0-1.0-0.6","1F6D14219DB14F748F80AE9837CEEDF0","1F6D14219DB14F748F80AE9837CEEDF0","3c38df97-5bea-40e9-b030-d912dbaae88e","6d972c12-ef4f-4967-baa7-815328c4c025","{""num_scrambled_semantic"":""8"",""num_scrambled_causal"":""4"",""num_scrambled_schematic"":""4"",""participantId"":""1F6D14219DB14F748F80AE9837CEEDF0"",""assignmentId"":""3c38df97-5bea-40e9-b030-d912dbaae88e"",""projectId"":""6d972c12-ef4f-4967-baa7-815328c4c025""}","https://test12345.live/?num_scrambled_semantic=8&num_scrambled_causal=4&num_scrambled_schematic=4&participantId=1F6D14219DB14F748F80AE9837CEEDF0&assignmentId=3c38df97-5bea-40e9-b030-d912dbaae88e&projectId=6d972c12-ef4f-4967-baa7-815328c4c025","1F6D14219DB14F748F80AE9837CEEDF0-2025-08-07-18-27-36","","null","","images/causal_sequence/saving_a_cat_causal/saving_a_cat_causal_2.png","null","",""
"","","","","","image-button-response","108","773872","0.0-14.0-1.0-1.6","1F6D14219DB14F748F80AE9837CEEDF0","1F6D14219DB14F748F80AE9837CEEDF0","3c38df97-5bea-40e9-b030-d912dbaae88e","6d972c12-ef4f-4967-baa7-815328c4c025","{""num_scrambled_semantic"":""8"",""num_scrambled_causal"":""4"",""num_scrambled_schematic"":""4"",""participantId"":""1F6D14219DB14F748F80AE9837CEEDF0"",""assignmentId"":""3c38df97-5bea-40e9-b030-d912dbaae88e"",""projectId"":""6d972c12-ef4f-4967-baa7-815328c4c025""}","https://test12345.live/?num_scrambled_semantic=8&num_scrambled_causal=4&num_scrambled_schematic=4&participantId=1F6D14219DB14F748F80AE9837CEEDF0&assignmentId=3c38df97-5bea-40e9-b030-d912dbaae88e&projectId=6d972c12-ef4f-4967-baa7-815328c4c025","1F6D14219DB14F748F80AE9837CEEDF0-2025-08-07-18-27-36","","488","","images/causal_sequence/saving_a_cat_causal/saving_a_cat_causal_2.png","1","",""
"","","","","","image-button-response","109","775672","0.0-14.0-1.0-2.6","1F6D14219DB14F748F80AE9837CEEDF0","1F6D14219DB14F748F80AE9837CEEDF0","3c38df97-5bea-40e9-b030-d912dbaae88e","6d972c12-ef4f-4967-baa7-815328c4c025","{""num_scrambled_semantic"":""8"",""num_scrambled_causal"":""4"",""num_scrambled_schematic"":""4"",""participantId"":""1F6D14219DB14F748F80AE9837CEEDF0"",""assignmentId"":""3c38df97-5bea-40e9-b030-d912dbaae88e"",""projectId"":""6d972c12-ef4f-4967-baa7-815328c4c025""}","https://test12345.live/?num_scrambled_semantic=8&num_scrambled_causal=4&num_scrambled_schematic=4&participantId=1F6D14219DB14F748F80AE9837CEEDF0&assignmentId=3c38df97-5bea-40e9-b030-d912dbaae88e&projectId=6d972c12-ef4f-4967-baa7-815328c4c025","1F6D14219DB14F748F80AE9837CEEDF0-2025-08-07-18-27-36","","null","","[]","null","",""
"","","","","","image-button-response","110","780174","0.0-14.0-1.0-0.7","1F6D14219DB14F748F80AE9837CEEDF0","1F6D14219DB14F748F80AE9837CEEDF0","3c38df97-5bea-40e9-b030-d912dbaae88e","6d972c12-ef4f-4967-baa7-815328c4c025","{""num_scrambled_semantic"":""8"",""num_scrambled_causal"":""4"",""num_scrambled_schematic"":""4"",""participantId"":""1F6D14219DB14F748F80AE9837CEEDF0"",""assignmentId"":""3c38df97-5bea-40e9-b030-d912dbaae88e"",""projectId"":""6d972c12-ef4f-4967-baa7-815328c4c025""}","https://test12345.live/?num_scrambled_semantic=8&num_scrambled_causal=4&num_scrambled_schematic=4&participantId=1F6D14219DB14F748F80AE9837CEEDF0&assignmentId=3c38df97-5bea-40e9-b030-d912dbaae88e&projectId=6d972c12-ef4f-4967-baa7-815328c4c025","1F6D14219DB14F748F80AE9837CEEDF0-2025-08-07-18-27-36","","null","","images/causal_sequence/saving_a_cat_causal/saving_a_cat_causal_ten.png","null","",""
"","","","","","image-button-response","111","780812","0.0-14.0-1.0-1.7","1F6D14219DB14F748F80AE9837CEEDF0","1F6D14219DB14F748F80AE9837CEEDF0","3c38df97-5bea-40e9-b030-d912dbaae88e","6d972c12-ef4f-4967-baa7-815328c4c025","{""num_scrambled_semantic"":""8"",""num_scrambled_causal"":""4"",""num_scrambled_schematic"":""4"",""participantId"":""1F6D14219DB14F748F80AE9837CEEDF0"",""assignmentId"":""3c38df97-5bea-40e9-b030-d912dbaae88e"",""projectId"":""6d972c12-ef4f-4967-baa7-815328c4c025""}","https://test12345.live/?num_scrambled_semantic=8&num_scrambled_causal=4&num_scrambled_schematic=4&participantId=1F6D14219DB14F748F80AE9837CEEDF0&assignmentId=3c38df97-5bea-40e9-b030-d912dbaae88e&projectId=6d972c12-ef4f-4967-baa7-815328c4c025","1F6D14219DB14F748F80AE9837CEEDF0-2025-08-07-18-27-36","","637","","images/causal_sequence/saving_a_cat_causal/saving_a_cat_causal_ten.png","0","",""
"","","","","","image-button-response","112","782614","0.0-14.0-1.0-2.7","1F6D14219DB14F748F80AE9837CEEDF0","1F6D14219DB14F748F80AE9837CEEDF0","3c38df97-5bea-40e9-b030-d912dbaae88e","6d972c12-ef4f-4967-baa7-815328c4c025","{""num_scrambled_semantic"":""8"",""num_scrambled_causal"":""4"",""num_scrambled_schematic"":""4"",""participantId"":""1F6D14219DB14F748F80AE9837CEEDF0"",""assignmentId"":""3c38df97-5bea-40e9-b030-d912dbaae88e"",""projectId"":""6d972c12-ef4f-4967-baa7-815328c4c025""}","https://test12345.live/?num_scrambled_semantic=8&num_scrambled_causal=4&num_scrambled_schematic=4&participantId=1F6D14219DB14F748F80AE9837CEEDF0&assignmentId=3c38df97-5bea-40e9-b030-d912dbaae88e&projectId=6d972c12-ef4f-4967-baa7-815328c4c025","1F6D14219DB14F748F80AE9837CEEDF0-2025-08-07-18-27-36","","null","","[]","null","",""
"","","","","","image-button-response","113","787116","0.0-14.0-1.0-0.8","1F6D14219DB14F748F80AE9837CEEDF0","1F6D14219DB14F748F80AE9837CEEDF0","3c38df97-5bea-40e9-b030-d912dbaae88e","6d972c12-ef4f-4967-baa7-815328c4c025","{""num_scrambled_semantic"":""8"",""num_scrambled_causal"":""4"",""num_scrambled_schematic"":""4"",""participantId"":""1F6D14219DB14F748F80AE9837CEEDF0"",""assignmentId"":""3c38df97-5bea-40e9-b030-d912dbaae88e"",""projectId"":""6d972c12-ef4f-4967-baa7-815328c4c025""}","https://test12345.live/?num_scrambled_semantic=8&num_scrambled_causal=4&num_scrambled_schematic=4&participantId=1F6D14219DB14F748F80AE9837CEEDF0&assignmentId=3c38df97-5bea-40e9-b030-d912dbaae88e&projectId=6d972c12-ef4f-4967-baa7-815328c4c025","1F6D14219DB14F748F80AE9837CEEDF0-2025-08-07-18-27-36","","null","","images/causal_sequence/saving_a_cat_causal/saving_a_cat_causal_8.png","null","",""
