"success","timeout","failed_images","failed_audio","failed_video","trial_type","trial_index","time_elapsed","internal_node_id","subject","subject_id","study_id","session_id","urlvar","current_url","audio_id","view_history","rt","device_id","stimulus","response","estimated_stimulus_onset","seq_name"
"true","false","[]","[]","[]","preload","0","17166","0.0-0.0","21202E089E0245E5814E122098366964","21202E089E0245E5814E122098366964","771a37c7-a2d8-4793-9d3e-b7bbc93ae015","051c06f1-75cc-4548-856d-4923ddaba0dc","{""num_scrambled_semantic"":""8"",""num_scrambled_causal"":""4"",""num_scrambled_schematic"":""4"",""participantId"":""21202E089E0245E5814E122098366964"",""assignmentId"":""771a37c7-a2d8-4793-9d3e-b7bbc93ae015"",""projectId"":""051c06f1-75cc-4548-856d-4923ddaba0dc""}","https://test12345.live/?num_scrambled_semantic=8&num_scrambled_causal=4&num_scrambled_schematic=4&participantId=21202E089E0245E5814E122098366964&assignmentId=771a37c7-a2d8-4793-9d3e-b7bbc93ae015&projectId=051c06f1-75cc-4548-856d-4923ddaba0dc","21202E089E0245E5814E122098366964-2025-05-15-19-02-59","","","","","","",""
"","","","","","instructions","1","54772","0.0-1.0","21202E089E0245E5814E122098366964","21202E089E0245E5814E122098366964","771a37c7-a2d8-4793-9d3e-b7bbc93ae015","051c06f1-75cc-4548-856d-4923ddaba0dc","{""num_scrambled_semantic"":""8"",""num_scrambled_causal"":""4"",""num_scrambled_schematic"":""4"",""participantId"":""21202E089E0245E5814E122098366964"",""assignmentId"":""771a37c7-a2d8-4793-9d3e-b7bbc93ae015"",""projectId"":""051c06f1-75cc-4548-856d-4923ddaba0dc""}","https://test12345.live/?num_scrambled_semantic=8&num_scrambled_causal=4&num_scrambled_schematic=4&participantId=21202E089E0245E5814E122098366964&assignmentId=771a37c7-a2d8-4793-9d3e-b7bbc93ae015&projectId=051c06f1-75cc-4548-856d-4923ddaba0dc","21202E089E0245E5814E122098366964-2025-05-15-19-02-59","[{""page_index"":0,""viewing_time"":37606}]","37606","","","","",""
"","","","","","instructions","2","66116","0.0-2.0","21202E089E0245E5814E122098366964","21202E089E0245E5814E122098366964","771a37c7-a2d8-4793-9d3e-b7bbc93ae015","051c06f1-75cc-4548-856d-4923ddaba0dc","{""num_scrambled_semantic"":""8"",""num_scrambled_causal"":""4"",""num_scrambled_schematic"":""4"",""participantId"":""21202E089E0245E5814E122098366964"",""assignmentId"":""771a37c7-a2d8-4793-9d3e-b7bbc93ae015"",""projectId"":""051c06f1-75cc-4548-856d-4923ddaba0dc""}","https://test12345.live/?num_scrambled_semantic=8&num_scrambled_causal=4&num_scrambled_schematic=4&participantId=21202E089E0245E5814E122098366964&assignmentId=771a37c7-a2d8-4793-9d3e-b7bbc93ae015&projectId=051c06f1-75cc-4548-856d-4923ddaba0dc","21202E089E0245E5814E122098366964-2025-05-15-19-02-59","[{""page_index"":0,""viewing_time"":11343}]","11344","","","","",""
"true","","","","","fullscreen","3","69483","0.0-3.0","21202E089E0245E5814E122098366964","21202E089E0245E5814E122098366964","771a37c7-a2d8-4793-9d3e-b7bbc93ae015","051c06f1-75cc-4548-856d-4923ddaba0dc","{""num_scrambled_semantic"":""8"",""num_scrambled_causal"":""4"",""num_scrambled_schematic"":""4"",""participantId"":""21202E089E0245E5814E122098366964"",""assignmentId"":""771a37c7-a2d8-4793-9d3e-b7bbc93ae015"",""projectId"":""051c06f1-75cc-4548-856d-4923ddaba0dc""}","https://test12345.live/?num_scrambled_semantic=8&num_scrambled_causal=4&num_scrambled_schematic=4&participantId=21202E089E0245E5814E122098366964&assignmentId=771a37c7-a2d8-4793-9d3e-b7bbc93ae015&projectId=051c06f1-75cc-4548-856d-4923ddaba0dc","21202E089E0245E5814E122098366964-2025-05-15-19-02-59","","2362","","","","",""
"","","","","","initialize-microphone","4","77245","0.0-4.0-0.0","21202E089E0245E5814E122098366964","21202E089E0245E5814E122098366964","771a37c7-a2d8-4793-9d3e-b7bbc93ae015","051c06f1-75cc-4548-856d-4923ddaba0dc","{""num_scrambled_semantic"":""8"",""num_scrambled_causal"":""4"",""num_scrambled_schematic"":""4"",""participantId"":""21202E089E0245E5814E122098366964"",""assignmentId"":""771a37c7-a2d8-4793-9d3e-b7bbc93ae015"",""projectId"":""051c06f1-75cc-4548-856d-4923ddaba0dc""}","https://test12345.live/?num_scrambled_semantic=8&num_scrambled_causal=4&num_scrambled_schematic=4&participantId=21202E089E0245E5814E122098366964&assignmentId=771a37c7-a2d8-4793-9d3e-b7bbc93ae015&projectId=051c06f1-75cc-4548-856d-4923ddaba0dc","21202E089E0245E5814E122098366964-2025-05-15-19-02-59","","","b5287c4e312572d1c6678affeb6c55ffea2b439caddc1806c64acdc09fa6218a","","","",""
"","","","","","html-audio-response","5","86768","0.0-4.0-1.0","21202E089E0245E5814E122098366964","21202E089E0245E5814E122098366964","771a37c7-a2d8-4793-9d3e-b7bbc93ae015","051c06f1-75cc-4548-856d-4923ddaba0dc","{""num_scrambled_semantic"":""8"",""num_scrambled_causal"":""4"",""num_scrambled_schematic"":""4"",""participantId"":""21202E089E0245E5814E122098366964"",""assignmentId"":""771a37c7-a2d8-4793-9d3e-b7bbc93ae015"",""projectId"":""051c06f1-75cc-4548-856d-4923ddaba0dc""}","https://test12345.live/?num_scrambled_semantic=8&num_scrambled_causal=4&num_scrambled_schematic=4&participantId=21202E089E0245E5814E122098366964&assignmentId=771a37c7-a2d8-4793-9d3e-b7bbc93ae015&projectId=051c06f1-75cc-4548-856d-4923ddaba0dc","21202E089E0245E5814E122098366964-2025-05-15-19-02-59","","3539","","<span style=""color: red; font-size: 24px""> NOW RECORDING</span>
        <p>Please test Microphone</p>","","8",""
"","","","","","html-button-response","6","88855","0.0-4.0-2.0","21202E089E0245E5814E122098366964","21202E089E0245E5814E122098366964","771a37c7-a2d8-4793-9d3e-b7bbc93ae015","051c06f1-75cc-4548-856d-4923ddaba0dc","{""num_scrambled_semantic"":""8"",""num_scrambled_causal"":""4"",""num_scrambled_schematic"":""4"",""participantId"":""21202E089E0245E5814E122098366964"",""assignmentId"":""771a37c7-a2d8-4793-9d3e-b7bbc93ae015"",""projectId"":""051c06f1-75cc-4548-856d-4923ddaba0dc""}","https://test12345.live/?num_scrambled_semantic=8&num_scrambled_causal=4&num_scrambled_schematic=4&participantId=21202E089E0245E5814E122098366964&assignmentId=771a37c7-a2d8-4793-9d3e-b7bbc93ae015&projectId=051c06f1-75cc-4548-856d-4923ddaba0dc","21202E089E0245E5814E122098366964-2025-05-15-19-02-59","","2086","","<p style=""font-size:48px; color:red;"">Is Microphone OK?</p>","1","",""
"","","","","","instructions","7","103136","0.0-5.0","21202E089E0245E5814E122098366964","21202E089E0245E5814E122098366964","771a37c7-a2d8-4793-9d3e-b7bbc93ae015","051c06f1-75cc-4548-856d-4923ddaba0dc","{""num_scrambled_semantic"":""8"",""num_scrambled_causal"":""4"",""num_scrambled_schematic"":""4"",""participantId"":""21202E089E0245E5814E122098366964"",""assignmentId"":""771a37c7-a2d8-4793-9d3e-b7bbc93ae015"",""projectId"":""051c06f1-75cc-4548-856d-4923ddaba0dc""}","https://test12345.live/?num_scrambled_semantic=8&num_scrambled_causal=4&num_scrambled_schematic=4&participantId=21202E089E0245E5814E122098366964&assignmentId=771a37c7-a2d8-4793-9d3e-b7bbc93ae015&projectId=051c06f1-75cc-4548-856d-4923ddaba0dc","21202E089E0245E5814E122098366964-2025-05-15-19-02-59","[{""page_index"":0,""viewing_time"":5314},{""page_index"":1,""viewing_time"":8966}]","14280","","","","",""
"","","","","","image-button-response","8","109151","0.0-6.0-0.0","21202E089E0245E5814E122098366964","21202E089E0245E5814E122098366964","771a37c7-a2d8-4793-9d3e-b7bbc93ae015","051c06f1-75cc-4548-856d-4923ddaba0dc","{""num_scrambled_semantic"":""8"",""num_scrambled_causal"":""4"",""num_scrambled_schematic"":""4"",""participantId"":""21202E089E0245E5814E122098366964"",""assignmentId"":""771a37c7-a2d8-4793-9d3e-b7bbc93ae015"",""projectId"":""051c06f1-75cc-4548-856d-4923ddaba0dc""}","https://test12345.live/?num_scrambled_semantic=8&num_scrambled_causal=4&num_scrambled_schematic=4&participantId=21202E089E0245E5814E122098366964&assignmentId=771a37c7-a2d8-4793-9d3e-b7bbc93ae015&projectId=051c06f1-75cc-4548-856d-4923ddaba0dc","21202E089E0245E5814E122098366964-2025-05-15-19-02-59","","null","","images/instructions/movie_0.png","null","",""
"","","","","","image-button-response","9","113653","0.0-6.0-1.0-0.0","21202E089E0245E5814E122098366964","21202E089E0245E5814E122098366964","771a37c7-a2d8-4793-9d3e-b7bbc93ae015","051c06f1-75cc-4548-856d-4923ddaba0dc","{""num_scrambled_semantic"":""8"",""num_scrambled_causal"":""4"",""num_scrambled_schematic"":""4"",""participantId"":""21202E089E0245E5814E122098366964"",""assignmentId"":""771a37c7-a2d8-4793-9d3e-b7bbc93ae015"",""projectId"":""051c06f1-75cc-4548-856d-4923ddaba0dc""}","https://test12345.live/?num_scrambled_semantic=8&num_scrambled_causal=4&num_scrambled_schematic=4&participantId=21202E089E0245E5814E122098366964&assignmentId=771a37c7-a2d8-4793-9d3e-b7bbc93ae015&projectId=051c06f1-75cc-4548-856d-4923ddaba0dc","21202E089E0245E5814E122098366964-2025-05-15-19-02-59","","null","","images/instructions/movie_1.png","null","",""
"","","","","","image-button-response","10","116770","0.0-6.0-1.0-1.0","21202E089E0245E5814E122098366964","21202E089E0245E5814E122098366964","771a37c7-a2d8-4793-9d3e-b7bbc93ae015","051c06f1-75cc-4548-856d-4923ddaba0dc","{""num_scrambled_semantic"":""8"",""num_scrambled_causal"":""4"",""num_scrambled_schematic"":""4"",""participantId"":""21202E089E0245E5814E122098366964"",""assignmentId"":""771a37c7-a2d8-4793-9d3e-b7bbc93ae015"",""projectId"":""051c06f1-75cc-4548-856d-4923ddaba0dc""}","https://test12345.live/?num_scrambled_semantic=8&num_scrambled_causal=4&num_scrambled_schematic=4&participantId=21202E089E0245E5814E122098366964&assignmentId=771a37c7-a2d8-4793-9d3e-b7bbc93ae015&projectId=051c06f1-75cc-4548-856d-4923ddaba0dc","21202E089E0245E5814E122098366964-2025-05-15-19-02-59","","3110","","images/instructions/movie_1.png","0","",""
"","","","","","image-button-response","11","118572","0.0-6.0-1.0-2.0","21202E089E0245E5814E122098366964","21202E089E0245E5814E122098366964","771a37c7-a2d8-4793-9d3e-b7bbc93ae015","051c06f1-75cc-4548-856d-4923ddaba0dc","{""num_scrambled_semantic"":""8"",""num_scrambled_causal"":""4"",""num_scrambled_schematic"":""4"",""participantId"":""21202E089E0245E5814E122098366964"",""assignmentId"":""771a37c7-a2d8-4793-9d3e-b7bbc93ae015"",""projectId"":""051c06f1-75cc-4548-856d-4923ddaba0dc""}","https://test12345.live/?num_scrambled_semantic=8&num_scrambled_causal=4&num_scrambled_schematic=4&participantId=21202E089E0245E5814E122098366964&assignmentId=771a37c7-a2d8-4793-9d3e-b7bbc93ae015&projectId=051c06f1-75cc-4548-856d-4923ddaba0dc","21202E089E0245E5814E122098366964-2025-05-15-19-02-59","","null","","[]","null","",""
"","","","","","image-button-response","12","123090","0.0-6.0-1.0-0.1","21202E089E0245E5814E122098366964","21202E089E0245E5814E122098366964","771a37c7-a2d8-4793-9d3e-b7bbc93ae015","051c06f1-75cc-4548-856d-4923ddaba0dc","{""num_scrambled_semantic"":""8"",""num_scrambled_causal"":""4"",""num_scrambled_schematic"":""4"",""participantId"":""21202E089E0245E5814E122098366964"",""assignmentId"":""771a37c7-a2d8-4793-9d3e-b7bbc93ae015"",""projectId"":""051c06f1-75cc-4548-856d-4923ddaba0dc""}","https://test12345.live/?num_scrambled_semantic=8&num_scrambled_causal=4&num_scrambled_schematic=4&participantId=21202E089E0245E5814E122098366964&assignmentId=771a37c7-a2d8-4793-9d3e-b7bbc93ae015&projectId=051c06f1-75cc-4548-856d-4923ddaba0dc","21202E089E0245E5814E122098366964-2025-05-15-19-02-59","","null","","images/instructions/movie_2.png","null","",""
"","","","","","image-button-response","13","124561","0.0-6.0-1.0-1.1","21202E089E0245E5814E122098366964","21202E089E0245E5814E122098366964","771a37c7-a2d8-4793-9d3e-b7bbc93ae015","051c06f1-75cc-4548-856d-4923ddaba0dc","{""num_scrambled_semantic"":""8"",""num_scrambled_causal"":""4"",""num_scrambled_schematic"":""4"",""participantId"":""21202E089E0245E5814E122098366964"",""assignmentId"":""771a37c7-a2d8-4793-9d3e-b7bbc93ae015"",""projectId"":""051c06f1-75cc-4548-856d-4923ddaba0dc""}","https://test12345.live/?num_scrambled_semantic=8&num_scrambled_causal=4&num_scrambled_schematic=4&participantId=21202E089E0245E5814E122098366964&assignmentId=771a37c7-a2d8-4793-9d3e-b7bbc93ae015&projectId=051c06f1-75cc-4548-856d-4923ddaba0dc","21202E089E0245E5814E122098366964-2025-05-15-19-02-59","","1470","","images/instructions/movie_2.png","0","",""
"","","","","","image-button-response","14","126370","0.0-6.0-1.0-2.1","21202E089E0245E5814E122098366964","21202E089E0245E5814E122098366964","771a37c7-a2d8-4793-9d3e-b7bbc93ae015","051c06f1-75cc-4548-856d-4923ddaba0dc","{""num_scrambled_semantic"":""8"",""num_scrambled_causal"":""4"",""num_scrambled_schematic"":""4"",""participantId"":""21202E089E0245E5814E122098366964"",""assignmentId"":""771a37c7-a2d8-4793-9d3e-b7bbc93ae015"",""projectId"":""051c06f1-75cc-4548-856d-4923ddaba0dc""}","https://test12345.live/?num_scrambled_semantic=8&num_scrambled_causal=4&num_scrambled_schematic=4&participantId=21202E089E0245E5814E122098366964&assignmentId=771a37c7-a2d8-4793-9d3e-b7bbc93ae015&projectId=051c06f1-75cc-4548-856d-4923ddaba0dc","21202E089E0245E5814E122098366964-2025-05-15-19-02-59","","null","","[]","null","",""
"","","","","","image-button-response","15","130882","0.0-6.0-1.0-0.2","21202E089E0245E5814E122098366964","21202E089E0245E5814E122098366964","771a37c7-a2d8-4793-9d3e-b7bbc93ae015","051c06f1-75cc-4548-856d-4923ddaba0dc","{""num_scrambled_semantic"":""8"",""num_scrambled_causal"":""4"",""num_scrambled_schematic"":""4"",""participantId"":""21202E089E0245E5814E122098366964"",""assignmentId"":""771a37c7-a2d8-4793-9d3e-b7bbc93ae015"",""projectId"":""051c06f1-75cc-4548-856d-4923ddaba0dc""}","https://test12345.live/?num_scrambled_semantic=8&num_scrambled_causal=4&num_scrambled_schematic=4&participantId=21202E089E0245E5814E122098366964&assignmentId=771a37c7-a2d8-4793-9d3e-b7bbc93ae015&projectId=051c06f1-75cc-4548-856d-4923ddaba0dc","21202E089E0245E5814E122098366964-2025-05-15-19-02-59","","null","","images/instructions/movie_3.png","null","",""
"","","","","","image-button-response","16","132062","0.0-6.0-1.0-1.2","21202E089E0245E5814E122098366964","21202E089E0245E5814E122098366964","771a37c7-a2d8-4793-9d3e-b7bbc93ae015","051c06f1-75cc-4548-856d-4923ddaba0dc","{""num_scrambled_semantic"":""8"",""num_scrambled_causal"":""4"",""num_scrambled_schematic"":""4"",""participantId"":""21202E089E0245E5814E122098366964"",""assignmentId"":""771a37c7-a2d8-4793-9d3e-b7bbc93ae015"",""projectId"":""051c06f1-75cc-4548-856d-4923ddaba0dc""}","https://test12345.live/?num_scrambled_semantic=8&num_scrambled_causal=4&num_scrambled_schematic=4&participantId=21202E089E0245E5814E122098366964&assignmentId=771a37c7-a2d8-4793-9d3e-b7bbc93ae015&projectId=051c06f1-75cc-4548-856d-4923ddaba0dc","21202E089E0245E5814E122098366964-2025-05-15-19-02-59","","1178","","images/instructions/movie_3.png","0","",""
"","","","","","image-button-response","17","133870","0.0-6.0-1.0-2.2","21202E089E0245E5814E122098366964","21202E089E0245E5814E122098366964","771a37c7-a2d8-4793-9d3e-b7bbc93ae015","051c06f1-75cc-4548-856d-4923ddaba0dc","{""num_scrambled_semantic"":""8"",""num_scrambled_causal"":""4"",""num_scrambled_schematic"":""4"",""participantId"":""21202E089E0245E5814E122098366964"",""assignmentId"":""771a37c7-a2d8-4793-9d3e-b7bbc93ae015"",""projectId"":""051c06f1-75cc-4548-856d-4923ddaba0dc""}","https://test12345.live/?num_scrambled_semantic=8&num_scrambled_causal=4&num_scrambled_schematic=4&participantId=21202E089E0245E5814E122098366964&assignmentId=771a37c7-a2d8-4793-9d3e-b7bbc93ae015&projectId=051c06f1-75cc-4548-856d-4923ddaba0dc","21202E089E0245E5814E122098366964-2025-05-15-19-02-59","","null","","[]","null","",""
"","","","","","image-button-response","18","138376","0.0-6.0-1.0-0.3","21202E089E0245E5814E122098366964","21202E089E0245E5814E122098366964","771a37c7-a2d8-4793-9d3e-b7bbc93ae015","051c06f1-75cc-4548-856d-4923ddaba0dc","{""num_scrambled_semantic"":""8"",""num_scrambled_causal"":""4"",""num_scrambled_schematic"":""4"",""participantId"":""21202E089E0245E5814E122098366964"",""assignmentId"":""771a37c7-a2d8-4793-9d3e-b7bbc93ae015"",""projectId"":""051c06f1-75cc-4548-856d-4923ddaba0dc""}","https://test12345.live/?num_scrambled_semantic=8&num_scrambled_causal=4&num_scrambled_schematic=4&participantId=21202E089E0245E5814E122098366964&assignmentId=771a37c7-a2d8-4793-9d3e-b7bbc93ae015&projectId=051c06f1-75cc-4548-856d-4923ddaba0dc","21202E089E0245E5814E122098366964-2025-05-15-19-02-59","","null","","images/instructions/movie_4.png","null","",""
"","","","","","image-button-response","19","139498","0.0-6.0-1.0-1.3","21202E089E0245E5814E122098366964","21202E089E0245E5814E122098366964","771a37c7-a2d8-4793-9d3e-b7bbc93ae015","051c06f1-75cc-4548-856d-4923ddaba0dc","{""num_scrambled_semantic"":""8"",""num_scrambled_causal"":""4"",""num_scrambled_schematic"":""4"",""participantId"":""21202E089E0245E5814E122098366964"",""assignmentId"":""771a37c7-a2d8-4793-9d3e-b7bbc93ae015"",""projectId"":""051c06f1-75cc-4548-856d-4923ddaba0dc""}","https://test12345.live/?num_scrambled_semantic=8&num_scrambled_causal=4&num_scrambled_schematic=4&participantId=21202E089E0245E5814E122098366964&assignmentId=771a37c7-a2d8-4793-9d3e-b7bbc93ae015&projectId=051c06f1-75cc-4548-856d-4923ddaba0dc","21202E089E0245E5814E122098366964-2025-05-15-19-02-59","","1120","","images/instructions/movie_4.png","0","",""
"","","","","","image-button-response","20","141310","0.0-6.0-1.0-2.3","21202E089E0245E5814E122098366964","21202E089E0245E5814E122098366964","771a37c7-a2d8-4793-9d3e-b7bbc93ae015","051c06f1-75cc-4548-856d-4923ddaba0dc","{""num_scrambled_semantic"":""8"",""num_scrambled_causal"":""4"",""num_scrambled_schematic"":""4"",""participantId"":""21202E089E0245E5814E122098366964"",""assignmentId"":""771a37c7-a2d8-4793-9d3e-b7bbc93ae015"",""projectId"":""051c06f1-75cc-4548-856d-4923ddaba0dc""}","https://test12345.live/?num_scrambled_semantic=8&num_scrambled_causal=4&num_scrambled_schematic=4&participantId=21202E089E0245E5814E122098366964&assignmentId=771a37c7-a2d8-4793-9d3e-b7bbc93ae015&projectId=051c06f1-75cc-4548-856d-4923ddaba0dc","21202E089E0245E5814E122098366964-2025-05-15-19-02-59","","null","","[]","null","",""
"","","","","","instructions","21","150942","0.0-7.0","21202E089E0245E5814E122098366964","21202E089E0245E5814E122098366964","771a37c7-a2d8-4793-9d3e-b7bbc93ae015","051c06f1-75cc-4548-856d-4923ddaba0dc","{""num_scrambled_semantic"":""8"",""num_scrambled_causal"":""4"",""num_scrambled_schematic"":""4"",""participantId"":""21202E089E0245E5814E122098366964"",""assignmentId"":""771a37c7-a2d8-4793-9d3e-b7bbc93ae015"",""projectId"":""051c06f1-75cc-4548-856d-4923ddaba0dc""}","https://test12345.live/?num_scrambled_semantic=8&num_scrambled_causal=4&num_scrambled_schematic=4&participantId=21202E089E0245E5814E122098366964&assignmentId=771a37c7-a2d8-4793-9d3e-b7bbc93ae015&projectId=051c06f1-75cc-4548-856d-4923ddaba0dc","21202E089E0245E5814E122098366964-2025-05-15-19-02-59","[{""page_index"":0,""viewing_time"":7901},{""page_index"":1,""viewing_time"":1730}]","9632","","","","",""
"","","","","","html-audio-response","22","203020","0.0-8.0","21202E089E0245E5814E122098366964","21202E089E0245E5814E122098366964","771a37c7-a2d8-4793-9d3e-b7bbc93ae015","051c06f1-75cc-4548-856d-4923ddaba0dc","{""num_scrambled_semantic"":""8"",""num_scrambled_causal"":""4"",""num_scrambled_schematic"":""4"",""participantId"":""21202E089E0245E5814E122098366964"",""assignmentId"":""771a37c7-a2d8-4793-9d3e-b7bbc93ae015"",""projectId"":""051c06f1-75cc-4548-856d-4923ddaba0dc""}","https://test12345.live/?num_scrambled_semantic=8&num_scrambled_causal=4&num_scrambled_schematic=4&participantId=21202E089E0245E5814E122098366964&assignmentId=771a37c7-a2d8-4793-9d3e-b7bbc93ae015&projectId=051c06f1-75cc-4548-856d-4923ddaba0dc","21202E089E0245E5814E122098366964-2025-05-15-19-02-59","","24750","","[""<span style=\""color: red; font-size: 24px\""> NOW RECORDING</span><p>Please say out loud all the images you saw, as many as you can remember. The images can be said in any order.</p>""]","","2",""
"","","","","","instructions","23","205103","0.0-9.0","21202E089E0245E5814E122098366964","21202E089E0245E5814E122098366964","771a37c7-a2d8-4793-9d3e-b7bbc93ae015","051c06f1-75cc-4548-856d-4923ddaba0dc","{""num_scrambled_semantic"":""8"",""num_scrambled_causal"":""4"",""num_scrambled_schematic"":""4"",""participantId"":""21202E089E0245E5814E122098366964"",""assignmentId"":""771a37c7-a2d8-4793-9d3e-b7bbc93ae015"",""projectId"":""051c06f1-75cc-4548-856d-4923ddaba0dc""}","https://test12345.live/?num_scrambled_semantic=8&num_scrambled_causal=4&num_scrambled_schematic=4&participantId=21202E089E0245E5814E122098366964&assignmentId=771a37c7-a2d8-4793-9d3e-b7bbc93ae015&projectId=051c06f1-75cc-4548-856d-4923ddaba0dc","21202E089E0245E5814E122098366964-2025-05-15-19-02-59","[{""page_index"":0,""viewing_time"":2076}]","2077","","","","",""
"","","","","","image-button-response","24","211109","0.0-10.0-0.0","21202E089E0245E5814E122098366964","21202E089E0245E5814E122098366964","771a37c7-a2d8-4793-9d3e-b7bbc93ae015","051c06f1-75cc-4548-856d-4923ddaba0dc","{""num_scrambled_semantic"":""8"",""num_scrambled_causal"":""4"",""num_scrambled_schematic"":""4"",""participantId"":""21202E089E0245E5814E122098366964"",""assignmentId"":""771a37c7-a2d8-4793-9d3e-b7bbc93ae015"",""projectId"":""051c06f1-75cc-4548-856d-4923ddaba0dc""}","https://test12345.live/?num_scrambled_semantic=8&num_scrambled_causal=4&num_scrambled_schematic=4&participantId=21202E089E0245E5814E122098366964&assignmentId=771a37c7-a2d8-4793-9d3e-b7bbc93ae015&projectId=051c06f1-75cc-4548-856d-4923ddaba0dc","21202E089E0245E5814E122098366964-2025-05-15-19-02-59","","null","","images/semantic_sequence/physical_activity_semantic/physical_activity_semantic_0.png","null","",""
"","","","","","image-button-response","25","215622","0.0-10.0-1.0-0.0","21202E089E0245E5814E122098366964","21202E089E0245E5814E122098366964","771a37c7-a2d8-4793-9d3e-b7bbc93ae015","051c06f1-75cc-4548-856d-4923ddaba0dc","{""num_scrambled_semantic"":""8"",""num_scrambled_causal"":""4"",""num_scrambled_schematic"":""4"",""participantId"":""21202E089E0245E5814E122098366964"",""assignmentId"":""771a37c7-a2d8-4793-9d3e-b7bbc93ae015"",""projectId"":""051c06f1-75cc-4548-856d-4923ddaba0dc""}","https://test12345.live/?num_scrambled_semantic=8&num_scrambled_causal=4&num_scrambled_schematic=4&participantId=21202E089E0245E5814E122098366964&assignmentId=771a37c7-a2d8-4793-9d3e-b7bbc93ae015&projectId=051c06f1-75cc-4548-856d-4923ddaba0dc","21202E089E0245E5814E122098366964-2025-05-15-19-02-59","","null","","images/semantic_sequence/physical_activity_semantic/physical_activity_semantic_6.png","null","",""
"","","","","","image-button-response","26","217807","0.0-10.0-1.0-1.0","21202E089E0245E5814E122098366964","21202E089E0245E5814E122098366964","771a37c7-a2d8-4793-9d3e-b7bbc93ae015","051c06f1-75cc-4548-856d-4923ddaba0dc","{""num_scrambled_semantic"":""8"",""num_scrambled_causal"":""4"",""num_scrambled_schematic"":""4"",""participantId"":""21202E089E0245E5814E122098366964"",""assignmentId"":""771a37c7-a2d8-4793-9d3e-b7bbc93ae015"",""projectId"":""051c06f1-75cc-4548-856d-4923ddaba0dc""}","https://test12345.live/?num_scrambled_semantic=8&num_scrambled_causal=4&num_scrambled_schematic=4&participantId=21202E089E0245E5814E122098366964&assignmentId=771a37c7-a2d8-4793-9d3e-b7bbc93ae015&projectId=051c06f1-75cc-4548-856d-4923ddaba0dc","21202E089E0245E5814E122098366964-2025-05-15-19-02-59","","2183","","images/semantic_sequence/physical_activity_semantic/physical_activity_semantic_6.png","0","",""
"","","","","","image-button-response","27","219615","0.0-10.0-1.0-2.0","21202E089E0245E5814E122098366964","21202E089E0245E5814E122098366964","771a37c7-a2d8-4793-9d3e-b7bbc93ae015","051c06f1-75cc-4548-856d-4923ddaba0dc","{""num_scrambled_semantic"":""8"",""num_scrambled_causal"":""4"",""num_scrambled_schematic"":""4"",""participantId"":""21202E089E0245E5814E122098366964"",""assignmentId"":""771a37c7-a2d8-4793-9d3e-b7bbc93ae015"",""projectId"":""051c06f1-75cc-4548-856d-4923ddaba0dc""}","https://test12345.live/?num_scrambled_semantic=8&num_scrambled_causal=4&num_scrambled_schematic=4&participantId=21202E089E0245E5814E122098366964&assignmentId=771a37c7-a2d8-4793-9d3e-b7bbc93ae015&projectId=051c06f1-75cc-4548-856d-4923ddaba0dc","21202E089E0245E5814E122098366964-2025-05-15-19-02-59","","null","","[]","null","",""
"","","","","","image-button-response","28","224129","0.0-10.0-1.0-0.1","21202E089E0245E5814E122098366964","21202E089E0245E5814E122098366964","771a37c7-a2d8-4793-9d3e-b7bbc93ae015","051c06f1-75cc-4548-856d-4923ddaba0dc","{""num_scrambled_semantic"":""8"",""num_scrambled_causal"":""4"",""num_scrambled_schematic"":""4"",""participantId"":""21202E089E0245E5814E122098366964"",""assignmentId"":""771a37c7-a2d8-4793-9d3e-b7bbc93ae015"",""projectId"":""051c06f1-75cc-4548-856d-4923ddaba0dc""}","https://test12345.live/?num_scrambled_semantic=8&num_scrambled_causal=4&num_scrambled_schematic=4&participantId=21202E089E0245E5814E122098366964&assignmentId=771a37c7-a2d8-4793-9d3e-b7bbc93ae015&projectId=051c06f1-75cc-4548-856d-4923ddaba0dc","21202E089E0245E5814E122098366964-2025-05-15-19-02-59","","null","","images/semantic_sequence/physical_activity_semantic/physical_activity_semantic_9.png","null","",""
"","","","","","image-button-response","29","225484","0.0-10.0-1.0-1.1","21202E089E0245E5814E122098366964","21202E089E0245E5814E122098366964","771a37c7-a2d8-4793-9d3e-b7bbc93ae015","051c06f1-75cc-4548-856d-4923ddaba0dc","{""num_scrambled_semantic"":""8"",""num_scrambled_causal"":""4"",""num_scrambled_schematic"":""4"",""participantId"":""21202E089E0245E5814E122098366964"",""assignmentId"":""771a37c7-a2d8-4793-9d3e-b7bbc93ae015"",""projectId"":""051c06f1-75cc-4548-856d-4923ddaba0dc""}","https://test12345.live/?num_scrambled_semantic=8&num_scrambled_causal=4&num_scrambled_schematic=4&participantId=21202E089E0245E5814E122098366964&assignmentId=771a37c7-a2d8-4793-9d3e-b7bbc93ae015&projectId=051c06f1-75cc-4548-856d-4923ddaba0dc","21202E089E0245E5814E122098366964-2025-05-15-19-02-59","","1352","","images/semantic_sequence/physical_activity_semantic/physical_activity_semantic_9.png","0","",""
"","","","","","image-button-response","30","227295","0.0-10.0-1.0-2.1","21202E089E0245E5814E122098366964","21202E089E0245E5814E122098366964","771a37c7-a2d8-4793-9d3e-b7bbc93ae015","051c06f1-75cc-4548-856d-4923ddaba0dc","{""num_scrambled_semantic"":""8"",""num_scrambled_causal"":""4"",""num_scrambled_schematic"":""4"",""participantId"":""21202E089E0245E5814E122098366964"",""assignmentId"":""771a37c7-a2d8-4793-9d3e-b7bbc93ae015"",""projectId"":""051c06f1-75cc-4548-856d-4923ddaba0dc""}","https://test12345.live/?num_scrambled_semantic=8&num_scrambled_causal=4&num_scrambled_schematic=4&participantId=21202E089E0245E5814E122098366964&assignmentId=771a37c7-a2d8-4793-9d3e-b7bbc93ae015&projectId=051c06f1-75cc-4548-856d-4923ddaba0dc","21202E089E0245E5814E122098366964-2025-05-15-19-02-59","","null","","[]","null","",""
"","","","","","image-button-response","31","231803","0.0-10.0-1.0-0.2","21202E089E0245E5814E122098366964","21202E089E0245E5814E122098366964","771a37c7-a2d8-4793-9d3e-b7bbc93ae015","051c06f1-75cc-4548-856d-4923ddaba0dc","{""num_scrambled_semantic"":""8"",""num_scrambled_causal"":""4"",""num_scrambled_schematic"":""4"",""participantId"":""21202E089E0245E5814E122098366964"",""assignmentId"":""771a37c7-a2d8-4793-9d3e-b7bbc93ae015"",""projectId"":""051c06f1-75cc-4548-856d-4923ddaba0dc""}","https://test12345.live/?num_scrambled_semantic=8&num_scrambled_causal=4&num_scrambled_schematic=4&participantId=21202E089E0245E5814E122098366964&assignmentId=771a37c7-a2d8-4793-9d3e-b7bbc93ae015&projectId=051c06f1-75cc-4548-856d-4923ddaba0dc","21202E089E0245E5814E122098366964-2025-05-15-19-02-59","","null","","images/semantic_sequence/physical_activity_semantic/physical_activity_semantic_2.png","null","",""
"","","","","","image-button-response","32","234361","0.0-10.0-1.0-1.2","21202E089E0245E5814E122098366964","21202E089E0245E5814E122098366964","771a37c7-a2d8-4793-9d3e-b7bbc93ae015","051c06f1-75cc-4548-856d-4923ddaba0dc","{""num_scrambled_semantic"":""8"",""num_scrambled_causal"":""4"",""num_scrambled_schematic"":""4"",""participantId"":""21202E089E0245E5814E122098366964"",""assignmentId"":""771a37c7-a2d8-4793-9d3e-b7bbc93ae015"",""projectId"":""051c06f1-75cc-4548-856d-4923ddaba0dc""}","https://test12345.live/?num_scrambled_semantic=8&num_scrambled_causal=4&num_scrambled_schematic=4&participantId=21202E089E0245E5814E122098366964&assignmentId=771a37c7-a2d8-4793-9d3e-b7bbc93ae015&projectId=051c06f1-75cc-4548-856d-4923ddaba0dc","21202E089E0245E5814E122098366964-2025-05-15-19-02-59","","2557","","images/semantic_sequence/physical_activity_semantic/physical_activity_semantic_2.png","0","",""
"","","","","","image-button-response","33","236164","0.0-10.0-1.0-2.2","21202E089E0245E5814E122098366964","21202E089E0245E5814E122098366964","771a37c7-a2d8-4793-9d3e-b7bbc93ae015","051c06f1-75cc-4548-856d-4923ddaba0dc","{""num_scrambled_semantic"":""8"",""num_scrambled_causal"":""4"",""num_scrambled_schematic"":""4"",""participantId"":""21202E089E0245E5814E122098366964"",""assignmentId"":""771a37c7-a2d8-4793-9d3e-b7bbc93ae015"",""projectId"":""051c06f1-75cc-4548-856d-4923ddaba0dc""}","https://test12345.live/?num_scrambled_semantic=8&num_scrambled_causal=4&num_scrambled_schematic=4&participantId=21202E089E0245E5814E122098366964&assignmentId=771a37c7-a2d8-4793-9d3e-b7bbc93ae015&projectId=051c06f1-75cc-4548-856d-4923ddaba0dc","21202E089E0245E5814E122098366964-2025-05-15-19-02-59","","null","","[]","null","",""
"","","","","","image-button-response","34","240683","0.0-10.0-1.0-0.3","21202E089E0245E5814E122098366964","21202E089E0245E5814E122098366964","771a37c7-a2d8-4793-9d3e-b7bbc93ae015","051c06f1-75cc-4548-856d-4923ddaba0dc","{""num_scrambled_semantic"":""8"",""num_scrambled_causal"":""4"",""num_scrambled_schematic"":""4"",""participantId"":""21202E089E0245E5814E122098366964"",""assignmentId"":""771a37c7-a2d8-4793-9d3e-b7bbc93ae015"",""projectId"":""051c06f1-75cc-4548-856d-4923ddaba0dc""}","https://test12345.live/?num_scrambled_semantic=8&num_scrambled_causal=4&num_scrambled_schematic=4&participantId=21202E089E0245E5814E122098366964&assignmentId=771a37c7-a2d8-4793-9d3e-b7bbc93ae015&projectId=051c06f1-75cc-4548-856d-4923ddaba0dc","21202E089E0245E5814E122098366964-2025-05-15-19-02-59","","null","","images/semantic_sequence/physical_activity_semantic/physical_activity_semantic_1.png","null","",""
"","","","","","image-button-response","35","241877","0.0-10.0-1.0-1.3","21202E089E0245E5814E122098366964","21202E089E0245E5814E122098366964","771a37c7-a2d8-4793-9d3e-b7bbc93ae015","051c06f1-75cc-4548-856d-4923ddaba0dc","{""num_scrambled_semantic"":""8"",""num_scrambled_causal"":""4"",""num_scrambled_schematic"":""4"",""participantId"":""21202E089E0245E5814E122098366964"",""assignmentId"":""771a37c7-a2d8-4793-9d3e-b7bbc93ae015"",""projectId"":""051c06f1-75cc-4548-856d-4923ddaba0dc""}","https://test12345.live/?num_scrambled_semantic=8&num_scrambled_causal=4&num_scrambled_schematic=4&participantId=21202E089E0245E5814E122098366964&assignmentId=771a37c7-a2d8-4793-9d3e-b7bbc93ae015&projectId=051c06f1-75cc-4548-856d-4923ddaba0dc","21202E089E0245E5814E122098366964-2025-05-15-19-02-59","","1193","","images/semantic_sequence/physical_activity_semantic/physical_activity_semantic_1.png","0","",""
"","","","","","image-button-response","36","243679","0.0-10.0-1.0-2.3","21202E089E0245E5814E122098366964","21202E089E0245E5814E122098366964","771a37c7-a2d8-4793-9d3e-b7bbc93ae015","051c06f1-75cc-4548-856d-4923ddaba0dc","{""num_scrambled_semantic"":""8"",""num_scrambled_causal"":""4"",""num_scrambled_schematic"":""4"",""participantId"":""21202E089E0245E5814E122098366964"",""assignmentId"":""771a37c7-a2d8-4793-9d3e-b7bbc93ae015"",""projectId"":""051c06f1-75cc-4548-856d-4923ddaba0dc""}","https://test12345.live/?num_scrambled_semantic=8&num_scrambled_causal=4&num_scrambled_schematic=4&participantId=21202E089E0245E5814E122098366964&assignmentId=771a37c7-a2d8-4793-9d3e-b7bbc93ae015&projectId=051c06f1-75cc-4548-856d-4923ddaba0dc","21202E089E0245E5814E122098366964-2025-05-15-19-02-59","","null","","[]","null","",""
"","","","","","image-button-response","37","248194","0.0-10.0-1.0-0.4","21202E089E0245E5814E122098366964","21202E089E0245E5814E122098366964","771a37c7-a2d8-4793-9d3e-b7bbc93ae015","051c06f1-75cc-4548-856d-4923ddaba0dc","{""num_scrambled_semantic"":""8"",""num_scrambled_causal"":""4"",""num_scrambled_schematic"":""4"",""participantId"":""21202E089E0245E5814E122098366964"",""assignmentId"":""771a37c7-a2d8-4793-9d3e-b7bbc93ae015"",""projectId"":""051c06f1-75cc-4548-856d-4923ddaba0dc""}","https://test12345.live/?num_scrambled_semantic=8&num_scrambled_causal=4&num_scrambled_schematic=4&participantId=21202E089E0245E5814E122098366964&assignmentId=771a37c7-a2d8-4793-9d3e-b7bbc93ae015&projectId=051c06f1-75cc-4548-856d-4923ddaba0dc","21202E089E0245E5814E122098366964-2025-05-15-19-02-59","","null","","images/semantic_sequence/physical_activity_semantic/physical_activity_semantic_4.png","null","",""
"","","","","","image-button-response","38","249957","0.0-10.0-1.0-1.4","21202E089E0245E5814E122098366964","21202E089E0245E5814E122098366964","771a37c7-a2d8-4793-9d3e-b7bbc93ae015","051c06f1-75cc-4548-856d-4923ddaba0dc","{""num_scrambled_semantic"":""8"",""num_scrambled_causal"":""4"",""num_scrambled_schematic"":""4"",""participantId"":""21202E089E0245E5814E122098366964"",""assignmentId"":""771a37c7-a2d8-4793-9d3e-b7bbc93ae015"",""projectId"":""051c06f1-75cc-4548-856d-4923ddaba0dc""}","https://test12345.live/?num_scrambled_semantic=8&num_scrambled_causal=4&num_scrambled_schematic=4&participantId=21202E089E0245E5814E122098366964&assignmentId=771a37c7-a2d8-4793-9d3e-b7bbc93ae015&projectId=051c06f1-75cc-4548-856d-4923ddaba0dc","21202E089E0245E5814E122098366964-2025-05-15-19-02-59","","1762","","images/semantic_sequence/physical_activity_semantic/physical_activity_semantic_4.png","0","",""
"","","","","","image-button-response","39","251769","0.0-10.0-1.0-2.4","21202E089E0245E5814E122098366964","21202E089E0245E5814E122098366964","771a37c7-a2d8-4793-9d3e-b7bbc93ae015","051c06f1-75cc-4548-856d-4923ddaba0dc","{""num_scrambled_semantic"":""8"",""num_scrambled_causal"":""4"",""num_scrambled_schematic"":""4"",""participantId"":""21202E089E0245E5814E122098366964"",""assignmentId"":""771a37c7-a2d8-4793-9d3e-b7bbc93ae015"",""projectId"":""051c06f1-75cc-4548-856d-4923ddaba0dc""}","https://test12345.live/?num_scrambled_semantic=8&num_scrambled_causal=4&num_scrambled_schematic=4&participantId=21202E089E0245E5814E122098366964&assignmentId=771a37c7-a2d8-4793-9d3e-b7bbc93ae015&projectId=051c06f1-75cc-4548-856d-4923ddaba0dc","21202E089E0245E5814E122098366964-2025-05-15-19-02-59","","null","","[]","null","",""
"","","","","","image-button-response","40","256282","0.0-10.0-1.0-0.5","21202E089E0245E5814E122098366964","21202E089E0245E5814E122098366964","771a37c7-a2d8-4793-9d3e-b7bbc93ae015","051c06f1-75cc-4548-856d-4923ddaba0dc","{""num_scrambled_semantic"":""8"",""num_scrambled_causal"":""4"",""num_scrambled_schematic"":""4"",""participantId"":""21202E089E0245E5814E122098366964"",""assignmentId"":""771a37c7-a2d8-4793-9d3e-b7bbc93ae015"",""projectId"":""051c06f1-75cc-4548-856d-4923ddaba0dc""}","https://test12345.live/?num_scrambled_semantic=8&num_scrambled_causal=4&num_scrambled_schematic=4&participantId=21202E089E0245E5814E122098366964&assignmentId=771a37c7-a2d8-4793-9d3e-b7bbc93ae015&projectId=051c06f1-75cc-4548-856d-4923ddaba0dc","21202E089E0245E5814E122098366964-2025-05-15-19-02-59","","null","","images/semantic_sequence/physical_activity_semantic/physical_activity_semantic_ten.png","null","",""
"","","","","","image-button-response","41","257136","0.0-10.0-1.0-1.5","21202E089E0245E5814E122098366964","21202E089E0245E5814E122098366964","771a37c7-a2d8-4793-9d3e-b7bbc93ae015","051c06f1-75cc-4548-856d-4923ddaba0dc","{""num_scrambled_semantic"":""8"",""num_scrambled_causal"":""4"",""num_scrambled_schematic"":""4"",""participantId"":""21202E089E0245E5814E122098366964"",""assignmentId"":""771a37c7-a2d8-4793-9d3e-b7bbc93ae015"",""projectId"":""051c06f1-75cc-4548-856d-4923ddaba0dc""}","https://test12345.live/?num_scrambled_semantic=8&num_scrambled_causal=4&num_scrambled_schematic=4&participantId=21202E089E0245E5814E122098366964&assignmentId=771a37c7-a2d8-4793-9d3e-b7bbc93ae015&projectId=051c06f1-75cc-4548-856d-4923ddaba0dc","21202E089E0245E5814E122098366964-2025-05-15-19-02-59","","852","","images/semantic_sequence/physical_activity_semantic/physical_activity_semantic_ten.png","0","",""
"","","","","","image-button-response","42","258948","0.0-10.0-1.0-2.5","21202E089E0245E5814E122098366964","21202E089E0245E5814E122098366964","771a37c7-a2d8-4793-9d3e-b7bbc93ae015","051c06f1-75cc-4548-856d-4923ddaba0dc","{""num_scrambled_semantic"":""8"",""num_scrambled_causal"":""4"",""num_scrambled_schematic"":""4"",""participantId"":""21202E089E0245E5814E122098366964"",""assignmentId"":""771a37c7-a2d8-4793-9d3e-b7bbc93ae015"",""projectId"":""051c06f1-75cc-4548-856d-4923ddaba0dc""}","https://test12345.live/?num_scrambled_semantic=8&num_scrambled_causal=4&num_scrambled_schematic=4&participantId=21202E089E0245E5814E122098366964&assignmentId=771a37c7-a2d8-4793-9d3e-b7bbc93ae015&projectId=051c06f1-75cc-4548-856d-4923ddaba0dc","21202E089E0245E5814E122098366964-2025-05-15-19-02-59","","null","","[]","null","",""
"","","","","","image-button-response","43","263462","0.0-10.0-1.0-0.6","21202E089E0245E5814E122098366964","21202E089E0245E5814E122098366964","771a37c7-a2d8-4793-9d3e-b7bbc93ae015","051c06f1-75cc-4548-856d-4923ddaba0dc","{""num_scrambled_semantic"":""8"",""num_scrambled_causal"":""4"",""num_scrambled_schematic"":""4"",""participantId"":""21202E089E0245E5814E122098366964"",""assignmentId"":""771a37c7-a2d8-4793-9d3e-b7bbc93ae015"",""projectId"":""051c06f1-75cc-4548-856d-4923ddaba0dc""}","https://test12345.live/?num_scrambled_semantic=8&num_scrambled_causal=4&num_scrambled_schematic=4&participantId=21202E089E0245E5814E122098366964&assignmentId=771a37c7-a2d8-4793-9d3e-b7bbc93ae015&projectId=051c06f1-75cc-4548-856d-4923ddaba0dc","21202E089E0245E5814E122098366964-2025-05-15-19-02-59","","null","","images/semantic_sequence/physical_activity_semantic/physical_activity_semantic_7.png","null","",""
"","","","","","image-button-response","44","265385","0.0-10.0-1.0-1.6","21202E089E0245E5814E122098366964","21202E089E0245E5814E122098366964","771a37c7-a2d8-4793-9d3e-b7bbc93ae015","051c06f1-75cc-4548-856d-4923ddaba0dc","{""num_scrambled_semantic"":""8"",""num_scrambled_causal"":""4"",""num_scrambled_schematic"":""4"",""participantId"":""21202E089E0245E5814E122098366964"",""assignmentId"":""771a37c7-a2d8-4793-9d3e-b7bbc93ae015"",""projectId"":""051c06f1-75cc-4548-856d-4923ddaba0dc""}","https://test12345.live/?num_scrambled_semantic=8&num_scrambled_causal=4&num_scrambled_schematic=4&participantId=21202E089E0245E5814E122098366964&assignmentId=771a37c7-a2d8-4793-9d3e-b7bbc93ae015&projectId=051c06f1-75cc-4548-856d-4923ddaba0dc","21202E089E0245E5814E122098366964-2025-05-15-19-02-59","","1922","","images/semantic_sequence/physical_activity_semantic/physical_activity_semantic_7.png","0","",""
"","","","","","image-button-response","45","267191","0.0-10.0-1.0-2.6","21202E089E0245E5814E122098366964","21202E089E0245E5814E122098366964","771a37c7-a2d8-4793-9d3e-b7bbc93ae015","051c06f1-75cc-4548-856d-4923ddaba0dc","{""num_scrambled_semantic"":""8"",""num_scrambled_causal"":""4"",""num_scrambled_schematic"":""4"",""participantId"":""21202E089E0245E5814E122098366964"",""assignmentId"":""771a37c7-a2d8-4793-9d3e-b7bbc93ae015"",""projectId"":""051c06f1-75cc-4548-856d-4923ddaba0dc""}","https://test12345.live/?num_scrambled_semantic=8&num_scrambled_causal=4&num_scrambled_schematic=4&participantId=21202E089E0245E5814E122098366964&assignmentId=771a37c7-a2d8-4793-9d3e-b7bbc93ae015&projectId=051c06f1-75cc-4548-856d-4923ddaba0dc","21202E089E0245E5814E122098366964-2025-05-15-19-02-59","","null","","[]","null","",""
"","","","","","image-button-response","46","271693","0.0-10.0-1.0-0.7","21202E089E0245E5814E122098366964","21202E089E0245E5814E122098366964","771a37c7-a2d8-4793-9d3e-b7bbc93ae015","051c06f1-75cc-4548-856d-4923ddaba0dc","{""num_scrambled_semantic"":""8"",""num_scrambled_causal"":""4"",""num_scrambled_schematic"":""4"",""participantId"":""21202E089E0245E5814E122098366964"",""assignmentId"":""771a37c7-a2d8-4793-9d3e-b7bbc93ae015"",""projectId"":""051c06f1-75cc-4548-856d-4923ddaba0dc""}","https://test12345.live/?num_scrambled_semantic=8&num_scrambled_causal=4&num_scrambled_schematic=4&participantId=21202E089E0245E5814E122098366964&assignmentId=771a37c7-a2d8-4793-9d3e-b7bbc93ae015&projectId=051c06f1-75cc-4548-856d-4923ddaba0dc","21202E089E0245E5814E122098366964-2025-05-15-19-02-59","","null","","images/semantic_sequence/physical_activity_semantic/physical_activity_semantic_8.png","null","",""
"","","","","","image-button-response","47","275204","0.0-10.0-1.0-1.7","21202E089E0245E5814E122098366964","21202E089E0245E5814E122098366964","771a37c7-a2d8-4793-9d3e-b7bbc93ae015","051c06f1-75cc-4548-856d-4923ddaba0dc","{""num_scrambled_semantic"":""8"",""num_scrambled_causal"":""4"",""num_scrambled_schematic"":""4"",""participantId"":""21202E089E0245E5814E122098366964"",""assignmentId"":""771a37c7-a2d8-4793-9d3e-b7bbc93ae015"",""projectId"":""051c06f1-75cc-4548-856d-4923ddaba0dc""}","https://test12345.live/?num_scrambled_semantic=8&num_scrambled_causal=4&num_scrambled_schematic=4&participantId=21202E089E0245E5814E122098366964&assignmentId=771a37c7-a2d8-4793-9d3e-b7bbc93ae015&projectId=051c06f1-75cc-4548-856d-4923ddaba0dc","21202E089E0245E5814E122098366964-2025-05-15-19-02-59","","3509","","images/semantic_sequence/physical_activity_semantic/physical_activity_semantic_8.png","0","",""
"","","","","","image-button-response","48","277017","0.0-10.0-1.0-2.7","21202E089E0245E5814E122098366964","21202E089E0245E5814E122098366964","771a37c7-a2d8-4793-9d3e-b7bbc93ae015","051c06f1-75cc-4548-856d-4923ddaba0dc","{""num_scrambled_semantic"":""8"",""num_scrambled_causal"":""4"",""num_scrambled_schematic"":""4"",""participantId"":""21202E089E0245E5814E122098366964"",""assignmentId"":""771a37c7-a2d8-4793-9d3e-b7bbc93ae015"",""projectId"":""051c06f1-75cc-4548-856d-4923ddaba0dc""}","https://test12345.live/?num_scrambled_semantic=8&num_scrambled_causal=4&num_scrambled_schematic=4&participantId=21202E089E0245E5814E122098366964&assignmentId=771a37c7-a2d8-4793-9d3e-b7bbc93ae015&projectId=051c06f1-75cc-4548-856d-4923ddaba0dc","21202E089E0245E5814E122098366964-2025-05-15-19-02-59","","null","","[]","null","",""
"","","","","","image-button-response","49","281522","0.0-10.0-1.0-0.8","21202E089E0245E5814E122098366964","21202E089E0245E5814E122098366964","771a37c7-a2d8-4793-9d3e-b7bbc93ae015","051c06f1-75cc-4548-856d-4923ddaba0dc","{""num_scrambled_semantic"":""8"",""num_scrambled_causal"":""4"",""num_scrambled_schematic"":""4"",""participantId"":""21202E089E0245E5814E122098366964"",""assignmentId"":""771a37c7-a2d8-4793-9d3e-b7bbc93ae015"",""projectId"":""051c06f1-75cc-4548-856d-4923ddaba0dc""}","https://test12345.live/?num_scrambled_semantic=8&num_scrambled_causal=4&num_scrambled_schematic=4&participantId=21202E089E0245E5814E122098366964&assignmentId=771a37c7-a2d8-4793-9d3e-b7bbc93ae015&projectId=051c06f1-75cc-4548-856d-4923ddaba0dc","21202E089E0245E5814E122098366964-2025-05-15-19-02-59","","null","","images/semantic_sequence/physical_activity_semantic/physical_activity_semantic_5.png","null","",""
"","","","","","image-button-response","50","282489","0.0-10.0-1.0-1.8","21202E089E0245E5814E122098366964","21202E089E0245E5814E122098366964","771a37c7-a2d8-4793-9d3e-b7bbc93ae015","051c06f1-75cc-4548-856d-4923ddaba0dc","{""num_scrambled_semantic"":""8"",""num_scrambled_causal"":""4"",""num_scrambled_schematic"":""4"",""participantId"":""21202E089E0245E5814E122098366964"",""assignmentId"":""771a37c7-a2d8-4793-9d3e-b7bbc93ae015"",""projectId"":""051c06f1-75cc-4548-856d-4923ddaba0dc""}","https://test12345.live/?num_scrambled_semantic=8&num_scrambled_causal=4&num_scrambled_schematic=4&participantId=21202E089E0245E5814E122098366964&assignmentId=771a37c7-a2d8-4793-9d3e-b7bbc93ae015&projectId=051c06f1-75cc-4548-856d-4923ddaba0dc","21202E089E0245E5814E122098366964-2025-05-15-19-02-59","","965","","images/semantic_sequence/physical_activity_semantic/physical_activity_semantic_5.png","0","",""
"","","","","","image-button-response","51","284292","0.0-10.0-1.0-2.8","21202E089E0245E5814E122098366964","21202E089E0245E5814E122098366964","771a37c7-a2d8-4793-9d3e-b7bbc93ae015","051c06f1-75cc-4548-856d-4923ddaba0dc","{""num_scrambled_semantic"":""8"",""num_scrambled_causal"":""4"",""num_scrambled_schematic"":""4"",""participantId"":""21202E089E0245E5814E122098366964"",""assignmentId"":""771a37c7-a2d8-4793-9d3e-b7bbc93ae015"",""projectId"":""051c06f1-75cc-4548-856d-4923ddaba0dc""}","https://test12345.live/?num_scrambled_semantic=8&num_scrambled_causal=4&num_scrambled_schematic=4&participantId=21202E089E0245E5814E122098366964&assignmentId=771a37c7-a2d8-4793-9d3e-b7bbc93ae015&projectId=051c06f1-75cc-4548-856d-4923ddaba0dc","21202E089E0245E5814E122098366964-2025-05-15-19-02-59","","null","","[]","null","",""
"","","","","","image-button-response","52","288799","0.0-10.0-1.0-0.9","21202E089E0245E5814E122098366964","21202E089E0245E5814E122098366964","771a37c7-a2d8-4793-9d3e-b7bbc93ae015","051c06f1-75cc-4548-856d-4923ddaba0dc","{""num_scrambled_semantic"":""8"",""num_scrambled_causal"":""4"",""num_scrambled_schematic"":""4"",""participantId"":""21202E089E0245E5814E122098366964"",""assignmentId"":""771a37c7-a2d8-4793-9d3e-b7bbc93ae015"",""projectId"":""051c06f1-75cc-4548-856d-4923ddaba0dc""}","https://test12345.live/?num_scrambled_semantic=8&num_scrambled_causal=4&num_scrambled_schematic=4&participantId=21202E089E0245E5814E122098366964&assignmentId=771a37c7-a2d8-4793-9d3e-b7bbc93ae015&projectId=051c06f1-75cc-4548-856d-4923ddaba0dc","21202E089E0245E5814E122098366964-2025-05-15-19-02-59","","null","","images/semantic_sequence/physical_activity_semantic/physical_activity_semantic_3.png","null","",""
"","","","","","image-button-response","53","289812","0.0-10.0-1.0-1.9","21202E089E0245E5814E122098366964","21202E089E0245E5814E122098366964","771a37c7-a2d8-4793-9d3e-b7bbc93ae015","051c06f1-75cc-4548-856d-4923ddaba0dc","{""num_scrambled_semantic"":""8"",""num_scrambled_causal"":""4"",""num_scrambled_schematic"":""4"",""participantId"":""21202E089E0245E5814E122098366964"",""assignmentId"":""771a37c7-a2d8-4793-9d3e-b7bbc93ae015"",""projectId"":""051c06f1-75cc-4548-856d-4923ddaba0dc""}","https://test12345.live/?num_scrambled_semantic=8&num_scrambled_causal=4&num_scrambled_schematic=4&participantId=21202E089E0245E5814E122098366964&assignmentId=771a37c7-a2d8-4793-9d3e-b7bbc93ae015&projectId=051c06f1-75cc-4548-856d-4923ddaba0dc","21202E089E0245E5814E122098366964-2025-05-15-19-02-59","","1011","","images/semantic_sequence/physical_activity_semantic/physical_activity_semantic_3.png","0","",""
"","","","","","image-button-response","54","291622","0.0-10.0-1.0-2.9","21202E089E0245E5814E122098366964","21202E089E0245E5814E122098366964","771a37c7-a2d8-4793-9d3e-b7bbc93ae015","051c06f1-75cc-4548-856d-4923ddaba0dc","{""num_scrambled_semantic"":""8"",""num_scrambled_causal"":""4"",""num_scrambled_schematic"":""4"",""participantId"":""21202E089E0245E5814E122098366964"",""assignmentId"":""771a37c7-a2d8-4793-9d3e-b7bbc93ae015"",""projectId"":""051c06f1-75cc-4548-856d-4923ddaba0dc""}","https://test12345.live/?num_scrambled_semantic=8&num_scrambled_causal=4&num_scrambled_schematic=4&participantId=21202E089E0245E5814E122098366964&assignmentId=771a37c7-a2d8-4793-9d3e-b7bbc93ae015&projectId=051c06f1-75cc-4548-856d-4923ddaba0dc","21202E089E0245E5814E122098366964-2025-05-15-19-02-59","","null","","[]","null","",""
"","","","","","html-audio-response","55","352947","0.0-11.0","21202E089E0245E5814E122098366964","21202E089E0245E5814E122098366964","771a37c7-a2d8-4793-9d3e-b7bbc93ae015","051c06f1-75cc-4548-856d-4923ddaba0dc","{""num_scrambled_semantic"":""8"",""num_scrambled_causal"":""4"",""num_scrambled_schematic"":""4"",""participantId"":""21202E089E0245E5814E122098366964"",""assignmentId"":""771a37c7-a2d8-4793-9d3e-b7bbc93ae015"",""projectId"":""051c06f1-75cc-4548-856d-4923ddaba0dc""}","https://test12345.live/?num_scrambled_semantic=8&num_scrambled_causal=4&num_scrambled_schematic=4&participantId=21202E089E0245E5814E122098366964&assignmentId=771a37c7-a2d8-4793-9d3e-b7bbc93ae015&projectId=051c06f1-75cc-4548-856d-4923ddaba0dc","21202E089E0245E5814E122098366964-2025-05-15-19-02-59","","48489","","[""<span style=\""color: red; font-size: 24px\""> NOW RECORDING</span><p>Please say out loud all the images you saw, as many as you can remember. The images can be said in any order.</p>""]","","2","physical_activity_semantic"
"","","","","","image-button-response","56","358971","0.0-12.0-0.0","21202E089E0245E5814E122098366964","21202E089E0245E5814E122098366964","771a37c7-a2d8-4793-9d3e-b7bbc93ae015","051c06f1-75cc-4548-856d-4923ddaba0dc","{""num_scrambled_semantic"":""8"",""num_scrambled_causal"":""4"",""num_scrambled_schematic"":""4"",""participantId"":""21202E089E0245E5814E122098366964"",""assignmentId"":""771a37c7-a2d8-4793-9d3e-b7bbc93ae015"",""projectId"":""051c06f1-75cc-4548-856d-4923ddaba0dc""}","https://test12345.live/?num_scrambled_semantic=8&num_scrambled_causal=4&num_scrambled_schematic=4&participantId=21202E089E0245E5814E122098366964&assignmentId=771a37c7-a2d8-4793-9d3e-b7bbc93ae015&projectId=051c06f1-75cc-4548-856d-4923ddaba0dc","21202E089E0245E5814E122098366964-2025-05-15-19-02-59","","null","","images/schematic_sequence/flight_scheme/flight_scheme_0.png","null","",""
"","","","","","image-button-response","57","363482","0.0-12.0-1.0-0.0","21202E089E0245E5814E122098366964","21202E089E0245E5814E122098366964","771a37c7-a2d8-4793-9d3e-b7bbc93ae015","051c06f1-75cc-4548-856d-4923ddaba0dc","{""num_scrambled_semantic"":""8"",""num_scrambled_causal"":""4"",""num_scrambled_schematic"":""4"",""participantId"":""21202E089E0245E5814E122098366964"",""assignmentId"":""771a37c7-a2d8-4793-9d3e-b7bbc93ae015"",""projectId"":""051c06f1-75cc-4548-856d-4923ddaba0dc""}","https://test12345.live/?num_scrambled_semantic=8&num_scrambled_causal=4&num_scrambled_schematic=4&participantId=21202E089E0245E5814E122098366964&assignmentId=771a37c7-a2d8-4793-9d3e-b7bbc93ae015&projectId=051c06f1-75cc-4548-856d-4923ddaba0dc","21202E089E0245E5814E122098366964-2025-05-15-19-02-59","","null","","images/schematic_sequence/flight_scheme/flight_scheme_2.png","null","",""
"","","","","","image-button-response","58","364448","0.0-12.0-1.0-1.0","21202E089E0245E5814E122098366964","21202E089E0245E5814E122098366964","771a37c7-a2d8-4793-9d3e-b7bbc93ae015","051c06f1-75cc-4548-856d-4923ddaba0dc","{""num_scrambled_semantic"":""8"",""num_scrambled_causal"":""4"",""num_scrambled_schematic"":""4"",""participantId"":""21202E089E0245E5814E122098366964"",""assignmentId"":""771a37c7-a2d8-4793-9d3e-b7bbc93ae015"",""projectId"":""051c06f1-75cc-4548-856d-4923ddaba0dc""}","https://test12345.live/?num_scrambled_semantic=8&num_scrambled_causal=4&num_scrambled_schematic=4&participantId=21202E089E0245E5814E122098366964&assignmentId=771a37c7-a2d8-4793-9d3e-b7bbc93ae015&projectId=051c06f1-75cc-4548-856d-4923ddaba0dc","21202E089E0245E5814E122098366964-2025-05-15-19-02-59","","964","","images/schematic_sequence/flight_scheme/flight_scheme_2.png","1","",""
"","","","","","image-button-response","59","366263","0.0-12.0-1.0-2.0","21202E089E0245E5814E122098366964","21202E089E0245E5814E122098366964","771a37c7-a2d8-4793-9d3e-b7bbc93ae015","051c06f1-75cc-4548-856d-4923ddaba0dc","{""num_scrambled_semantic"":""8"",""num_scrambled_causal"":""4"",""num_scrambled_schematic"":""4"",""participantId"":""21202E089E0245E5814E122098366964"",""assignmentId"":""771a37c7-a2d8-4793-9d3e-b7bbc93ae015"",""projectId"":""051c06f1-75cc-4548-856d-4923ddaba0dc""}","https://test12345.live/?num_scrambled_semantic=8&num_scrambled_causal=4&num_scrambled_schematic=4&participantId=21202E089E0245E5814E122098366964&assignmentId=771a37c7-a2d8-4793-9d3e-b7bbc93ae015&projectId=051c06f1-75cc-4548-856d-4923ddaba0dc","21202E089E0245E5814E122098366964-2025-05-15-19-02-59","","null","","[]","null","",""
"","","","","","image-button-response","60","370775","0.0-12.0-1.0-0.1","21202E089E0245E5814E122098366964","21202E089E0245E5814E122098366964","771a37c7-a2d8-4793-9d3e-b7bbc93ae015","051c06f1-75cc-4548-856d-4923ddaba0dc","{""num_scrambled_semantic"":""8"",""num_scrambled_causal"":""4"",""num_scrambled_schematic"":""4"",""participantId"":""21202E089E0245E5814E122098366964"",""assignmentId"":""771a37c7-a2d8-4793-9d3e-b7bbc93ae015"",""projectId"":""051c06f1-75cc-4548-856d-4923ddaba0dc""}","https://test12345.live/?num_scrambled_semantic=8&num_scrambled_causal=4&num_scrambled_schematic=4&participantId=21202E089E0245E5814E122098366964&assignmentId=771a37c7-a2d8-4793-9d3e-b7bbc93ae015&projectId=051c06f1-75cc-4548-856d-4923ddaba0dc","21202E089E0245E5814E122098366964-2025-05-15-19-02-59","","null","","images/schematic_sequence/flight_scheme/flight_scheme_4.png","null","",""
"","","","","","image-button-response","61","371544","0.0-12.0-1.0-1.1","21202E089E0245E5814E122098366964","21202E089E0245E5814E122098366964","771a37c7-a2d8-4793-9d3e-b7bbc93ae015","051c06f1-75cc-4548-856d-4923ddaba0dc","{""num_scrambled_semantic"":""8"",""num_scrambled_causal"":""4"",""num_scrambled_schematic"":""4"",""participantId"":""21202E089E0245E5814E122098366964"",""assignmentId"":""771a37c7-a2d8-4793-9d3e-b7bbc93ae015"",""projectId"":""051c06f1-75cc-4548-856d-4923ddaba0dc""}","https://test12345.live/?num_scrambled_semantic=8&num_scrambled_causal=4&num_scrambled_schematic=4&participantId=21202E089E0245E5814E122098366964&assignmentId=771a37c7-a2d8-4793-9d3e-b7bbc93ae015&projectId=051c06f1-75cc-4548-856d-4923ddaba0dc","21202E089E0245E5814E122098366964-2025-05-15-19-02-59","","768","","images/schematic_sequence/flight_scheme/flight_scheme_4.png","0","",""
"","","","","","image-button-response","62","373359","0.0-12.0-1.0-2.1","21202E089E0245E5814E122098366964","21202E089E0245E5814E122098366964","771a37c7-a2d8-4793-9d3e-b7bbc93ae015","051c06f1-75cc-4548-856d-4923ddaba0dc","{""num_scrambled_semantic"":""8"",""num_scrambled_causal"":""4"",""num_scrambled_schematic"":""4"",""participantId"":""21202E089E0245E5814E122098366964"",""assignmentId"":""771a37c7-a2d8-4793-9d3e-b7bbc93ae015"",""projectId"":""051c06f1-75cc-4548-856d-4923ddaba0dc""}","https://test12345.live/?num_scrambled_semantic=8&num_scrambled_causal=4&num_scrambled_schematic=4&participantId=21202E089E0245E5814E122098366964&assignmentId=771a37c7-a2d8-4793-9d3e-b7bbc93ae015&projectId=051c06f1-75cc-4548-856d-4923ddaba0dc","21202E089E0245E5814E122098366964-2025-05-15-19-02-59","","null","","[]","null","",""
"","","","","","image-button-response","63","377871","0.0-12.0-1.0-0.2","21202E089E0245E5814E122098366964","21202E089E0245E5814E122098366964","771a37c7-a2d8-4793-9d3e-b7bbc93ae015","051c06f1-75cc-4548-856d-4923ddaba0dc","{""num_scrambled_semantic"":""8"",""num_scrambled_causal"":""4"",""num_scrambled_schematic"":""4"",""participantId"":""21202E089E0245E5814E122098366964"",""assignmentId"":""771a37c7-a2d8-4793-9d3e-b7bbc93ae015"",""projectId"":""051c06f1-75cc-4548-856d-4923ddaba0dc""}","https://test12345.live/?num_scrambled_semantic=8&num_scrambled_causal=4&num_scrambled_schematic=4&participantId=21202E089E0245E5814E122098366964&assignmentId=771a37c7-a2d8-4793-9d3e-b7bbc93ae015&projectId=051c06f1-75cc-4548-856d-4923ddaba0dc","21202E089E0245E5814E122098366964-2025-05-15-19-02-59","","null","","images/schematic_sequence/flight_scheme/flight_scheme_9.png","null","",""
"","","","","","image-button-response","64","380650","0.0-12.0-1.0-1.2","21202E089E0245E5814E122098366964","21202E089E0245E5814E122098366964","771a37c7-a2d8-4793-9d3e-b7bbc93ae015","051c06f1-75cc-4548-856d-4923ddaba0dc","{""num_scrambled_semantic"":""8"",""num_scrambled_causal"":""4"",""num_scrambled_schematic"":""4"",""participantId"":""21202E089E0245E5814E122098366964"",""assignmentId"":""771a37c7-a2d8-4793-9d3e-b7bbc93ae015"",""projectId"":""051c06f1-75cc-4548-856d-4923ddaba0dc""}","https://test12345.live/?num_scrambled_semantic=8&num_scrambled_causal=4&num_scrambled_schematic=4&participantId=21202E089E0245E5814E122098366964&assignmentId=771a37c7-a2d8-4793-9d3e-b7bbc93ae015&projectId=051c06f1-75cc-4548-856d-4923ddaba0dc","21202E089E0245E5814E122098366964-2025-05-15-19-02-59","","2777","","images/schematic_sequence/flight_scheme/flight_scheme_9.png","0","",""
"","","","","","image-button-response","65","382451","0.0-12.0-1.0-2.2","21202E089E0245E5814E122098366964","21202E089E0245E5814E122098366964","771a37c7-a2d8-4793-9d3e-b7bbc93ae015","051c06f1-75cc-4548-856d-4923ddaba0dc","{""num_scrambled_semantic"":""8"",""num_scrambled_causal"":""4"",""num_scrambled_schematic"":""4"",""participantId"":""21202E089E0245E5814E122098366964"",""assignmentId"":""771a37c7-a2d8-4793-9d3e-b7bbc93ae015"",""projectId"":""051c06f1-75cc-4548-856d-4923ddaba0dc""}","https://test12345.live/?num_scrambled_semantic=8&num_scrambled_causal=4&num_scrambled_schematic=4&participantId=21202E089E0245E5814E122098366964&assignmentId=771a37c7-a2d8-4793-9d3e-b7bbc93ae015&projectId=051c06f1-75cc-4548-856d-4923ddaba0dc","21202E089E0245E5814E122098366964-2025-05-15-19-02-59","","null","","[]","null","",""
"","","","","","image-button-response","66","386954","0.0-12.0-1.0-0.3","21202E089E0245E5814E122098366964","21202E089E0245E5814E122098366964","771a37c7-a2d8-4793-9d3e-b7bbc93ae015","051c06f1-75cc-4548-856d-4923ddaba0dc","{""num_scrambled_semantic"":""8"",""num_scrambled_causal"":""4"",""num_scrambled_schematic"":""4"",""participantId"":""21202E089E0245E5814E122098366964"",""assignmentId"":""771a37c7-a2d8-4793-9d3e-b7bbc93ae015"",""projectId"":""051c06f1-75cc-4548-856d-4923ddaba0dc""}","https://test12345.live/?num_scrambled_semantic=8&num_scrambled_causal=4&num_scrambled_schematic=4&participantId=21202E089E0245E5814E122098366964&assignmentId=771a37c7-a2d8-4793-9d3e-b7bbc93ae015&projectId=051c06f1-75cc-4548-856d-4923ddaba0dc","21202E089E0245E5814E122098366964-2025-05-15-19-02-59","","null","","images/schematic_sequence/flight_scheme/flight_scheme_6.png","null","",""
"","","","","","image-button-response","67","388724","0.0-12.0-1.0-1.3","21202E089E0245E5814E122098366964","21202E089E0245E5814E122098366964","771a37c7-a2d8-4793-9d3e-b7bbc93ae015","051c06f1-75cc-4548-856d-4923ddaba0dc","{""num_scrambled_semantic"":""8"",""num_scrambled_causal"":""4"",""num_scrambled_schematic"":""4"",""participantId"":""21202E089E0245E5814E122098366964"",""assignmentId"":""771a37c7-a2d8-4793-9d3e-b7bbc93ae015"",""projectId"":""051c06f1-75cc-4548-856d-4923ddaba0dc""}","https://test12345.live/?num_scrambled_semantic=8&num_scrambled_causal=4&num_scrambled_schematic=4&participantId=21202E089E0245E5814E122098366964&assignmentId=771a37c7-a2d8-4793-9d3e-b7bbc93ae015&projectId=051c06f1-75cc-4548-856d-4923ddaba0dc","21202E089E0245E5814E122098366964-2025-05-15-19-02-59","","1767","","images/schematic_sequence/flight_scheme/flight_scheme_6.png","1","",""
"","","","","","image-button-response","68","390532","0.0-12.0-1.0-2.3","21202E089E0245E5814E122098366964","21202E089E0245E5814E122098366964","771a37c7-a2d8-4793-9d3e-b7bbc93ae015","051c06f1-75cc-4548-856d-4923ddaba0dc","{""num_scrambled_semantic"":""8"",""num_scrambled_causal"":""4"",""num_scrambled_schematic"":""4"",""participantId"":""21202E089E0245E5814E122098366964"",""assignmentId"":""771a37c7-a2d8-4793-9d3e-b7bbc93ae015"",""projectId"":""051c06f1-75cc-4548-856d-4923ddaba0dc""}","https://test12345.live/?num_scrambled_semantic=8&num_scrambled_causal=4&num_scrambled_schematic=4&participantId=21202E089E0245E5814E122098366964&assignmentId=771a37c7-a2d8-4793-9d3e-b7bbc93ae015&projectId=051c06f1-75cc-4548-856d-4923ddaba0dc","21202E089E0245E5814E122098366964-2025-05-15-19-02-59","","null","","[]","null","",""
"","","","","","image-button-response","69","395040","0.0-12.0-1.0-0.4","21202E089E0245E5814E122098366964","21202E089E0245E5814E122098366964","771a37c7-a2d8-4793-9d3e-b7bbc93ae015","051c06f1-75cc-4548-856d-4923ddaba0dc","{""num_scrambled_semantic"":""8"",""num_scrambled_causal"":""4"",""num_scrambled_schematic"":""4"",""participantId"":""21202E089E0245E5814E122098366964"",""assignmentId"":""771a37c7-a2d8-4793-9d3e-b7bbc93ae015"",""projectId"":""051c06f1-75cc-4548-856d-4923ddaba0dc""}","https://test12345.live/?num_scrambled_semantic=8&num_scrambled_causal=4&num_scrambled_schematic=4&participantId=21202E089E0245E5814E122098366964&assignmentId=771a37c7-a2d8-4793-9d3e-b7bbc93ae015&projectId=051c06f1-75cc-4548-856d-4923ddaba0dc","21202E089E0245E5814E122098366964-2025-05-15-19-02-59","","null","","images/schematic_sequence/flight_scheme/flight_scheme_7.png","null","",""
"","","","","","image-button-response","70","397152","0.0-12.0-1.0-1.4","21202E089E0245E5814E122098366964","21202E089E0245E5814E122098366964","771a37c7-a2d8-4793-9d3e-b7bbc93ae015","051c06f1-75cc-4548-856d-4923ddaba0dc","{""num_scrambled_semantic"":""8"",""num_scrambled_causal"":""4"",""num_scrambled_schematic"":""4"",""participantId"":""21202E089E0245E5814E122098366964"",""assignmentId"":""771a37c7-a2d8-4793-9d3e-b7bbc93ae015"",""projectId"":""051c06f1-75cc-4548-856d-4923ddaba0dc""}","https://test12345.live/?num_scrambled_semantic=8&num_scrambled_causal=4&num_scrambled_schematic=4&participantId=21202E089E0245E5814E122098366964&assignmentId=771a37c7-a2d8-4793-9d3e-b7bbc93ae015&projectId=051c06f1-75cc-4548-856d-4923ddaba0dc","21202E089E0245E5814E122098366964-2025-05-15-19-02-59","","2110","","images/schematic_sequence/flight_scheme/flight_scheme_7.png","1","",""
"","","","","","image-button-response","71","398958","0.0-12.0-1.0-2.4","21202E089E0245E5814E122098366964","21202E089E0245E5814E122098366964","771a37c7-a2d8-4793-9d3e-b7bbc93ae015","051c06f1-75cc-4548-856d-4923ddaba0dc","{""num_scrambled_semantic"":""8"",""num_scrambled_causal"":""4"",""num_scrambled_schematic"":""4"",""participantId"":""21202E089E0245E5814E122098366964"",""assignmentId"":""771a37c7-a2d8-4793-9d3e-b7bbc93ae015"",""projectId"":""051c06f1-75cc-4548-856d-4923ddaba0dc""}","https://test12345.live/?num_scrambled_semantic=8&num_scrambled_causal=4&num_scrambled_schematic=4&participantId=21202E089E0245E5814E122098366964&assignmentId=771a37c7-a2d8-4793-9d3e-b7bbc93ae015&projectId=051c06f1-75cc-4548-856d-4923ddaba0dc","21202E089E0245E5814E122098366964-2025-05-15-19-02-59","","null","","[]","null","",""
"","","","","","image-button-response","72","403466","0.0-12.0-1.0-0.5","21202E089E0245E5814E122098366964","21202E089E0245E5814E122098366964","771a37c7-a2d8-4793-9d3e-b7bbc93ae015","051c06f1-75cc-4548-856d-4923ddaba0dc","{""num_scrambled_semantic"":""8"",""num_scrambled_causal"":""4"",""num_scrambled_schematic"":""4"",""participantId"":""21202E089E0245E5814E122098366964"",""assignmentId"":""771a37c7-a2d8-4793-9d3e-b7bbc93ae015"",""projectId"":""051c06f1-75cc-4548-856d-4923ddaba0dc""}","https://test12345.live/?num_scrambled_semantic=8&num_scrambled_causal=4&num_scrambled_schematic=4&participantId=21202E089E0245E5814E122098366964&assignmentId=771a37c7-a2d8-4793-9d3e-b7bbc93ae015&projectId=051c06f1-75cc-4548-856d-4923ddaba0dc","21202E089E0245E5814E122098366964-2025-05-15-19-02-59","","null","","images/schematic_sequence/flight_scheme/flight_scheme_ten.png","null","",""
"","","","","","image-button-response","73","404842","0.0-12.0-1.0-1.5","21202E089E0245E5814E122098366964","21202E089E0245E5814E122098366964","771a37c7-a2d8-4793-9d3e-b7bbc93ae015","051c06f1-75cc-4548-856d-4923ddaba0dc","{""num_scrambled_semantic"":""8"",""num_scrambled_causal"":""4"",""num_scrambled_schematic"":""4"",""participantId"":""21202E089E0245E5814E122098366964"",""assignmentId"":""771a37c7-a2d8-4793-9d3e-b7bbc93ae015"",""projectId"":""051c06f1-75cc-4548-856d-4923ddaba0dc""}","https://test12345.live/?num_scrambled_semantic=8&num_scrambled_causal=4&num_scrambled_schematic=4&participantId=21202E089E0245E5814E122098366964&assignmentId=771a37c7-a2d8-4793-9d3e-b7bbc93ae015&projectId=051c06f1-75cc-4548-856d-4923ddaba0dc","21202E089E0245E5814E122098366964-2025-05-15-19-02-59","","1374","","images/schematic_sequence/flight_scheme/flight_scheme_ten.png","0","",""
"","","","","","image-button-response","74","406654","0.0-12.0-1.0-2.5","21202E089E0245E5814E122098366964","21202E089E0245E5814E122098366964","771a37c7-a2d8-4793-9d3e-b7bbc93ae015","051c06f1-75cc-4548-856d-4923ddaba0dc","{""num_scrambled_semantic"":""8"",""num_scrambled_causal"":""4"",""num_scrambled_schematic"":""4"",""participantId"":""21202E089E0245E5814E122098366964"",""assignmentId"":""771a37c7-a2d8-4793-9d3e-b7bbc93ae015"",""projectId"":""051c06f1-75cc-4548-856d-4923ddaba0dc""}","https://test12345.live/?num_scrambled_semantic=8&num_scrambled_causal=4&num_scrambled_schematic=4&participantId=21202E089E0245E5814E122098366964&assignmentId=771a37c7-a2d8-4793-9d3e-b7bbc93ae015&projectId=051c06f1-75cc-4548-856d-4923ddaba0dc","21202E089E0245E5814E122098366964-2025-05-15-19-02-59","","null","","[]","null","",""
"","","","","","image-button-response","75","411165","0.0-12.0-1.0-0.6","21202E089E0245E5814E122098366964","21202E089E0245E5814E122098366964","771a37c7-a2d8-4793-9d3e-b7bbc93ae015","051c06f1-75cc-4548-856d-4923ddaba0dc","{""num_scrambled_semantic"":""8"",""num_scrambled_causal"":""4"",""num_scrambled_schematic"":""4"",""participantId"":""21202E089E0245E5814E122098366964"",""assignmentId"":""771a37c7-a2d8-4793-9d3e-b7bbc93ae015"",""projectId"":""051c06f1-75cc-4548-856d-4923ddaba0dc""}","https://test12345.live/?num_scrambled_semantic=8&num_scrambled_causal=4&num_scrambled_schematic=4&participantId=21202E089E0245E5814E122098366964&assignmentId=771a37c7-a2d8-4793-9d3e-b7bbc93ae015&projectId=051c06f1-75cc-4548-856d-4923ddaba0dc","21202E089E0245E5814E122098366964-2025-05-15-19-02-59","","null","","images/schematic_sequence/flight_scheme/flight_scheme_5.png","null","",""
"","","","","","image-button-response","76","414741","0.0-12.0-1.0-1.6","21202E089E0245E5814E122098366964","21202E089E0245E5814E122098366964","771a37c7-a2d8-4793-9d3e-b7bbc93ae015","051c06f1-75cc-4548-856d-4923ddaba0dc","{""num_scrambled_semantic"":""8"",""num_scrambled_causal"":""4"",""num_scrambled_schematic"":""4"",""participantId"":""21202E089E0245E5814E122098366964"",""assignmentId"":""771a37c7-a2d8-4793-9d3e-b7bbc93ae015"",""projectId"":""051c06f1-75cc-4548-856d-4923ddaba0dc""}","https://test12345.live/?num_scrambled_semantic=8&num_scrambled_causal=4&num_scrambled_schematic=4&participantId=21202E089E0245E5814E122098366964&assignmentId=771a37c7-a2d8-4793-9d3e-b7bbc93ae015&projectId=051c06f1-75cc-4548-856d-4923ddaba0dc","21202E089E0245E5814E122098366964-2025-05-15-19-02-59","","3574","","images/schematic_sequence/flight_scheme/flight_scheme_5.png","0","",""
"","","","","","image-button-response","77","416551","0.0-12.0-1.0-2.6","21202E089E0245E5814E122098366964","21202E089E0245E5814E122098366964","771a37c7-a2d8-4793-9d3e-b7bbc93ae015","051c06f1-75cc-4548-856d-4923ddaba0dc","{""num_scrambled_semantic"":""8"",""num_scrambled_causal"":""4"",""num_scrambled_schematic"":""4"",""participantId"":""21202E089E0245E5814E122098366964"",""assignmentId"":""771a37c7-a2d8-4793-9d3e-b7bbc93ae015"",""projectId"":""051c06f1-75cc-4548-856d-4923ddaba0dc""}","https://test12345.live/?num_scrambled_semantic=8&num_scrambled_causal=4&num_scrambled_schematic=4&participantId=21202E089E0245E5814E122098366964&assignmentId=771a37c7-a2d8-4793-9d3e-b7bbc93ae015&projectId=051c06f1-75cc-4548-856d-4923ddaba0dc","21202E089E0245E5814E122098366964-2025-05-15-19-02-59","","null","","[]","null","",""
"","","","","","image-button-response","78","421059","0.0-12.0-1.0-0.7","21202E089E0245E5814E122098366964","21202E089E0245E5814E122098366964","771a37c7-a2d8-4793-9d3e-b7bbc93ae015","051c06f1-75cc-4548-856d-4923ddaba0dc","{""num_scrambled_semantic"":""8"",""num_scrambled_causal"":""4"",""num_scrambled_schematic"":""4"",""participantId"":""21202E089E0245E5814E122098366964"",""assignmentId"":""771a37c7-a2d8-4793-9d3e-b7bbc93ae015"",""projectId"":""051c06f1-75cc-4548-856d-4923ddaba0dc""}","https://test12345.live/?num_scrambled_semantic=8&num_scrambled_causal=4&num_scrambled_schematic=4&participantId=21202E089E0245E5814E122098366964&assignmentId=771a37c7-a2d8-4793-9d3e-b7bbc93ae015&projectId=051c06f1-75cc-4548-856d-4923ddaba0dc","21202E089E0245E5814E122098366964-2025-05-15-19-02-59","","null","","images/schematic_sequence/flight_scheme/flight_scheme_8.png","null","",""
"","","","","","image-button-response","79","422554","0.0-12.0-1.0-1.7","21202E089E0245E5814E122098366964","21202E089E0245E5814E122098366964","771a37c7-a2d8-4793-9d3e-b7bbc93ae015","051c06f1-75cc-4548-856d-4923ddaba0dc","{""num_scrambled_semantic"":""8"",""num_scrambled_causal"":""4"",""num_scrambled_schematic"":""4"",""participantId"":""21202E089E0245E5814E122098366964"",""assignmentId"":""771a37c7-a2d8-4793-9d3e-b7bbc93ae015"",""projectId"":""051c06f1-75cc-4548-856d-4923ddaba0dc""}","https://test12345.live/?num_scrambled_semantic=8&num_scrambled_causal=4&num_scrambled_schematic=4&participantId=21202E089E0245E5814E122098366964&assignmentId=771a37c7-a2d8-4793-9d3e-b7bbc93ae015&projectId=051c06f1-75cc-4548-856d-4923ddaba0dc","21202E089E0245E5814E122098366964-2025-05-15-19-02-59","","1493","","images/schematic_sequence/flight_scheme/flight_scheme_8.png","1","",""
"","","","","","image-button-response","80","424366","0.0-12.0-1.0-2.7","21202E089E0245E5814E122098366964","21202E089E0245E5814E122098366964","771a37c7-a2d8-4793-9d3e-b7bbc93ae015","051c06f1-75cc-4548-856d-4923ddaba0dc","{""num_scrambled_semantic"":""8"",""num_scrambled_causal"":""4"",""num_scrambled_schematic"":""4"",""participantId"":""21202E089E0245E5814E122098366964"",""assignmentId"":""771a37c7-a2d8-4793-9d3e-b7bbc93ae015"",""projectId"":""051c06f1-75cc-4548-856d-4923ddaba0dc""}","https://test12345.live/?num_scrambled_semantic=8&num_scrambled_causal=4&num_scrambled_schematic=4&participantId=21202E089E0245E5814E122098366964&assignmentId=771a37c7-a2d8-4793-9d3e-b7bbc93ae015&projectId=051c06f1-75cc-4548-856d-4923ddaba0dc","21202E089E0245E5814E122098366964-2025-05-15-19-02-59","","null","","[]","null","",""
"","","","","","image-button-response","81","428881","0.0-12.0-1.0-0.8","21202E089E0245E5814E122098366964","21202E089E0245E5814E122098366964","771a37c7-a2d8-4793-9d3e-b7bbc93ae015","051c06f1-75cc-4548-856d-4923ddaba0dc","{""num_scrambled_semantic"":""8"",""num_scrambled_causal"":""4"",""num_scrambled_schematic"":""4"",""participantId"":""21202E089E0245E5814E122098366964"",""assignmentId"":""771a37c7-a2d8-4793-9d3e-b7bbc93ae015"",""projectId"":""051c06f1-75cc-4548-856d-4923ddaba0dc""}","https://test12345.live/?num_scrambled_semantic=8&num_scrambled_causal=4&num_scrambled_schematic=4&participantId=21202E089E0245E5814E122098366964&assignmentId=771a37c7-a2d8-4793-9d3e-b7bbc93ae015&projectId=051c06f1-75cc-4548-856d-4923ddaba0dc","21202E089E0245E5814E122098366964-2025-05-15-19-02-59","","null","","images/schematic_sequence/flight_scheme/flight_scheme_3.png","null","",""
"","","","","","image-button-response","82","430458","0.0-12.0-1.0-1.8","21202E089E0245E5814E122098366964","21202E089E0245E5814E122098366964","771a37c7-a2d8-4793-9d3e-b7bbc93ae015","051c06f1-75cc-4548-856d-4923ddaba0dc","{""num_scrambled_semantic"":""8"",""num_scrambled_causal"":""4"",""num_scrambled_schematic"":""4"",""participantId"":""21202E089E0245E5814E122098366964"",""assignmentId"":""771a37c7-a2d8-4793-9d3e-b7bbc93ae015"",""projectId"":""051c06f1-75cc-4548-856d-4923ddaba0dc""}","https://test12345.live/?num_scrambled_semantic=8&num_scrambled_causal=4&num_scrambled_schematic=4&participantId=21202E089E0245E5814E122098366964&assignmentId=771a37c7-a2d8-4793-9d3e-b7bbc93ae015&projectId=051c06f1-75cc-4548-856d-4923ddaba0dc","21202E089E0245E5814E122098366964-2025-05-15-19-02-59","","1576","","images/schematic_sequence/flight_scheme/flight_scheme_3.png","0","",""
"","","","","","image-button-response","83","432260","0.0-12.0-1.0-2.8","21202E089E0245E5814E122098366964","21202E089E0245E5814E122098366964","771a37c7-a2d8-4793-9d3e-b7bbc93ae015","051c06f1-75cc-4548-856d-4923ddaba0dc","{""num_scrambled_semantic"":""8"",""num_scrambled_causal"":""4"",""num_scrambled_schematic"":""4"",""participantId"":""21202E089E0245E5814E122098366964"",""assignmentId"":""771a37c7-a2d8-4793-9d3e-b7bbc93ae015"",""projectId"":""051c06f1-75cc-4548-856d-4923ddaba0dc""}","https://test12345.live/?num_scrambled_semantic=8&num_scrambled_causal=4&num_scrambled_schematic=4&participantId=21202E089E0245E5814E122098366964&assignmentId=771a37c7-a2d8-4793-9d3e-b7bbc93ae015&projectId=051c06f1-75cc-4548-856d-4923ddaba0dc","21202E089E0245E5814E122098366964-2025-05-15-19-02-59","","null","","[]","null","",""
"","","","","","image-button-response","84","436768","0.0-12.0-1.0-0.9","21202E089E0245E5814E122098366964","21202E089E0245E5814E122098366964","771a37c7-a2d8-4793-9d3e-b7bbc93ae015","051c06f1-75cc-4548-856d-4923ddaba0dc","{""num_scrambled_semantic"":""8"",""num_scrambled_causal"":""4"",""num_scrambled_schematic"":""4"",""participantId"":""21202E089E0245E5814E122098366964"",""assignmentId"":""771a37c7-a2d8-4793-9d3e-b7bbc93ae015"",""projectId"":""051c06f1-75cc-4548-856d-4923ddaba0dc""}","https://test12345.live/?num_scrambled_semantic=8&num_scrambled_causal=4&num_scrambled_schematic=4&participantId=21202E089E0245E5814E122098366964&assignmentId=771a37c7-a2d8-4793-9d3e-b7bbc93ae015&projectId=051c06f1-75cc-4548-856d-4923ddaba0dc","21202E089E0245E5814E122098366964-2025-05-15-19-02-59","","null","","images/schematic_sequence/flight_scheme/flight_scheme_1.png","null","",""
"","","","","","image-button-response","85","437711","0.0-12.0-1.0-1.9","21202E089E0245E5814E122098366964","21202E089E0245E5814E122098366964","771a37c7-a2d8-4793-9d3e-b7bbc93ae015","051c06f1-75cc-4548-856d-4923ddaba0dc","{""num_scrambled_semantic"":""8"",""num_scrambled_causal"":""4"",""num_scrambled_schematic"":""4"",""participantId"":""21202E089E0245E5814E122098366964"",""assignmentId"":""771a37c7-a2d8-4793-9d3e-b7bbc93ae015"",""projectId"":""051c06f1-75cc-4548-856d-4923ddaba0dc""}","https://test12345.live/?num_scrambled_semantic=8&num_scrambled_causal=4&num_scrambled_schematic=4&participantId=21202E089E0245E5814E122098366964&assignmentId=771a37c7-a2d8-4793-9d3e-b7bbc93ae015&projectId=051c06f1-75cc-4548-856d-4923ddaba0dc","21202E089E0245E5814E122098366964-2025-05-15-19-02-59","","941","","images/schematic_sequence/flight_scheme/flight_scheme_1.png","0","",""
"","","","","","image-button-response","86","439523","0.0-12.0-1.0-2.9","21202E089E0245E5814E122098366964","21202E089E0245E5814E122098366964","771a37c7-a2d8-4793-9d3e-b7bbc93ae015","051c06f1-75cc-4548-856d-4923ddaba0dc","{""num_scrambled_semantic"":""8"",""num_scrambled_causal"":""4"",""num_scrambled_schematic"":""4"",""participantId"":""21202E089E0245E5814E122098366964"",""assignmentId"":""771a37c7-a2d8-4793-9d3e-b7bbc93ae015"",""projectId"":""051c06f1-75cc-4548-856d-4923ddaba0dc""}","https://test12345.live/?num_scrambled_semantic=8&num_scrambled_causal=4&num_scrambled_schematic=4&participantId=21202E089E0245E5814E122098366964&assignmentId=771a37c7-a2d8-4793-9d3e-b7bbc93ae015&projectId=051c06f1-75cc-4548-856d-4923ddaba0dc","21202E089E0245E5814E122098366964-2025-05-15-19-02-59","","null","","[]","null","",""
"","","","","","html-audio-response","87","488498","0.0-13.0","21202E089E0245E5814E122098366964","21202E089E0245E5814E122098366964","771a37c7-a2d8-4793-9d3e-b7bbc93ae015","051c06f1-75cc-4548-856d-4923ddaba0dc","{""num_scrambled_semantic"":""8"",""num_scrambled_causal"":""4"",""num_scrambled_schematic"":""4"",""participantId"":""21202E089E0245E5814E122098366964"",""assignmentId"":""771a37c7-a2d8-4793-9d3e-b7bbc93ae015"",""projectId"":""051c06f1-75cc-4548-856d-4923ddaba0dc""}","https://test12345.live/?num_scrambled_semantic=8&num_scrambled_causal=4&num_scrambled_schematic=4&participantId=21202E089E0245E5814E122098366964&assignmentId=771a37c7-a2d8-4793-9d3e-b7bbc93ae015&projectId=051c06f1-75cc-4548-856d-4923ddaba0dc","21202E089E0245E5814E122098366964-2025-05-15-19-02-59","","26992","","[""<span style=\""color: red; font-size: 24px\""> NOW RECORDING</span><p>Please say out loud all the images you saw, as many as you can remember. The images can be said in any order.</p>""]","","3","flight_scheme"
"","","","","","image-button-response","88","494505","0.0-14.0-0.0","21202E089E0245E5814E122098366964","21202E089E0245E5814E122098366964","771a37c7-a2d8-4793-9d3e-b7bbc93ae015","051c06f1-75cc-4548-856d-4923ddaba0dc","{""num_scrambled_semantic"":""8"",""num_scrambled_causal"":""4"",""num_scrambled_schematic"":""4"",""participantId"":""21202E089E0245E5814E122098366964"",""assignmentId"":""771a37c7-a2d8-4793-9d3e-b7bbc93ae015"",""projectId"":""051c06f1-75cc-4548-856d-4923ddaba0dc""}","https://test12345.live/?num_scrambled_semantic=8&num_scrambled_causal=4&num_scrambled_schematic=4&participantId=21202E089E0245E5814E122098366964&assignmentId=771a37c7-a2d8-4793-9d3e-b7bbc93ae015&projectId=051c06f1-75cc-4548-856d-4923ddaba0dc","21202E089E0245E5814E122098366964-2025-05-15-19-02-59","","null","","images/schematic_sequence/dinner_party_scheme/dinner_party_scheme_0.png","null","",""
"","","","","","image-button-response","89","499012","0.0-14.0-1.0-0.0","21202E089E0245E5814E122098366964","21202E089E0245E5814E122098366964","771a37c7-a2d8-4793-9d3e-b7bbc93ae015","051c06f1-75cc-4548-856d-4923ddaba0dc","{""num_scrambled_semantic"":""8"",""num_scrambled_causal"":""4"",""num_scrambled_schematic"":""4"",""participantId"":""21202E089E0245E5814E122098366964"",""assignmentId"":""771a37c7-a2d8-4793-9d3e-b7bbc93ae015"",""projectId"":""051c06f1-75cc-4548-856d-4923ddaba0dc""}","https://test12345.live/?num_scrambled_semantic=8&num_scrambled_causal=4&num_scrambled_schematic=4&participantId=21202E089E0245E5814E122098366964&assignmentId=771a37c7-a2d8-4793-9d3e-b7bbc93ae015&projectId=051c06f1-75cc-4548-856d-4923ddaba0dc","21202E089E0245E5814E122098366964-2025-05-15-19-02-59","","null","","images/schematic_sequence/dinner_party_scheme/dinner_party_scheme_3.png","null","",""
"","","","","","image-button-response","90","500164","0.0-14.0-1.0-1.0","21202E089E0245E5814E122098366964","21202E089E0245E5814E122098366964","771a37c7-a2d8-4793-9d3e-b7bbc93ae015","051c06f1-75cc-4548-856d-4923ddaba0dc","{""num_scrambled_semantic"":""8"",""num_scrambled_causal"":""4"",""num_scrambled_schematic"":""4"",""participantId"":""21202E089E0245E5814E122098366964"",""assignmentId"":""771a37c7-a2d8-4793-9d3e-b7bbc93ae015"",""projectId"":""051c06f1-75cc-4548-856d-4923ddaba0dc""}","https://test12345.live/?num_scrambled_semantic=8&num_scrambled_causal=4&num_scrambled_schematic=4&participantId=21202E089E0245E5814E122098366964&assignmentId=771a37c7-a2d8-4793-9d3e-b7bbc93ae015&projectId=051c06f1-75cc-4548-856d-4923ddaba0dc","21202E089E0245E5814E122098366964-2025-05-15-19-02-59","","1151","","images/schematic_sequence/dinner_party_scheme/dinner_party_scheme_3.png","0","",""
"","","","","","image-button-response","91","501980","0.0-14.0-1.0-2.0","21202E089E0245E5814E122098366964","21202E089E0245E5814E122098366964","771a37c7-a2d8-4793-9d3e-b7bbc93ae015","051c06f1-75cc-4548-856d-4923ddaba0dc","{""num_scrambled_semantic"":""8"",""num_scrambled_causal"":""4"",""num_scrambled_schematic"":""4"",""participantId"":""21202E089E0245E5814E122098366964"",""assignmentId"":""771a37c7-a2d8-4793-9d3e-b7bbc93ae015"",""projectId"":""051c06f1-75cc-4548-856d-4923ddaba0dc""}","https://test12345.live/?num_scrambled_semantic=8&num_scrambled_causal=4&num_scrambled_schematic=4&participantId=21202E089E0245E5814E122098366964&assignmentId=771a37c7-a2d8-4793-9d3e-b7bbc93ae015&projectId=051c06f1-75cc-4548-856d-4923ddaba0dc","21202E089E0245E5814E122098366964-2025-05-15-19-02-59","","null","","[]","null","",""
"","","","","","image-button-response","92","506487","0.0-14.0-1.0-0.1","21202E089E0245E5814E122098366964","21202E089E0245E5814E122098366964","771a37c7-a2d8-4793-9d3e-b7bbc93ae015","051c06f1-75cc-4548-856d-4923ddaba0dc","{""num_scrambled_semantic"":""8"",""num_scrambled_causal"":""4"",""num_scrambled_schematic"":""4"",""participantId"":""21202E089E0245E5814E122098366964"",""assignmentId"":""771a37c7-a2d8-4793-9d3e-b7bbc93ae015"",""projectId"":""051c06f1-75cc-4548-856d-4923ddaba0dc""}","https://test12345.live/?num_scrambled_semantic=8&num_scrambled_causal=4&num_scrambled_schematic=4&participantId=21202E089E0245E5814E122098366964&assignmentId=771a37c7-a2d8-4793-9d3e-b7bbc93ae015&projectId=051c06f1-75cc-4548-856d-4923ddaba0dc","21202E089E0245E5814E122098366964-2025-05-15-19-02-59","","null","","images/schematic_sequence/dinner_party_scheme/dinner_party_scheme_8.png","null","",""
"","","","","","image-button-response","93","507360","0.0-14.0-1.0-1.1","21202E089E0245E5814E122098366964","21202E089E0245E5814E122098366964","771a37c7-a2d8-4793-9d3e-b7bbc93ae015","051c06f1-75cc-4548-856d-4923ddaba0dc","{""num_scrambled_semantic"":""8"",""num_scrambled_causal"":""4"",""num_scrambled_schematic"":""4"",""participantId"":""21202E089E0245E5814E122098366964"",""assignmentId"":""771a37c7-a2d8-4793-9d3e-b7bbc93ae015"",""projectId"":""051c06f1-75cc-4548-856d-4923ddaba0dc""}","https://test12345.live/?num_scrambled_semantic=8&num_scrambled_causal=4&num_scrambled_schematic=4&participantId=21202E089E0245E5814E122098366964&assignmentId=771a37c7-a2d8-4793-9d3e-b7bbc93ae015&projectId=051c06f1-75cc-4548-856d-4923ddaba0dc","21202E089E0245E5814E122098366964-2025-05-15-19-02-59","","872","","images/schematic_sequence/dinner_party_scheme/dinner_party_scheme_8.png","0","",""
"","","","","","image-button-response","94","509171","0.0-14.0-1.0-2.1","21202E089E0245E5814E122098366964","21202E089E0245E5814E122098366964","771a37c7-a2d8-4793-9d3e-b7bbc93ae015","051c06f1-75cc-4548-856d-4923ddaba0dc","{""num_scrambled_semantic"":""8"",""num_scrambled_causal"":""4"",""num_scrambled_schematic"":""4"",""participantId"":""21202E089E0245E5814E122098366964"",""assignmentId"":""771a37c7-a2d8-4793-9d3e-b7bbc93ae015"",""projectId"":""051c06f1-75cc-4548-856d-4923ddaba0dc""}","https://test12345.live/?num_scrambled_semantic=8&num_scrambled_causal=4&num_scrambled_schematic=4&participantId=21202E089E0245E5814E122098366964&assignmentId=771a37c7-a2d8-4793-9d3e-b7bbc93ae015&projectId=051c06f1-75cc-4548-856d-4923ddaba0dc","21202E089E0245E5814E122098366964-2025-05-15-19-02-59","","null","","[]","null","",""
"","","","","","image-button-response","95","513678","0.0-14.0-1.0-0.2","21202E089E0245E5814E122098366964","21202E089E0245E5814E122098366964","771a37c7-a2d8-4793-9d3e-b7bbc93ae015","051c06f1-75cc-4548-856d-4923ddaba0dc","{""num_scrambled_semantic"":""8"",""num_scrambled_causal"":""4"",""num_scrambled_schematic"":""4"",""participantId"":""21202E089E0245E5814E122098366964"",""assignmentId"":""771a37c7-a2d8-4793-9d3e-b7bbc93ae015"",""projectId"":""051c06f1-75cc-4548-856d-4923ddaba0dc""}","https://test12345.live/?num_scrambled_semantic=8&num_scrambled_causal=4&num_scrambled_schematic=4&participantId=21202E089E0245E5814E122098366964&assignmentId=771a37c7-a2d8-4793-9d3e-b7bbc93ae015&projectId=051c06f1-75cc-4548-856d-4923ddaba0dc","21202E089E0245E5814E122098366964-2025-05-15-19-02-59","","null","","images/schematic_sequence/dinner_party_scheme/dinner_party_scheme_6.png","null","",""
"","","","","","image-button-response","96","514439","0.0-14.0-1.0-1.2","21202E089E0245E5814E122098366964","21202E089E0245E5814E122098366964","771a37c7-a2d8-4793-9d3e-b7bbc93ae015","051c06f1-75cc-4548-856d-4923ddaba0dc","{""num_scrambled_semantic"":""8"",""num_scrambled_causal"":""4"",""num_scrambled_schematic"":""4"",""participantId"":""21202E089E0245E5814E122098366964"",""assignmentId"":""771a37c7-a2d8-4793-9d3e-b7bbc93ae015"",""projectId"":""051c06f1-75cc-4548-856d-4923ddaba0dc""}","https://test12345.live/?num_scrambled_semantic=8&num_scrambled_causal=4&num_scrambled_schematic=4&participantId=21202E089E0245E5814E122098366964&assignmentId=771a37c7-a2d8-4793-9d3e-b7bbc93ae015&projectId=051c06f1-75cc-4548-856d-4923ddaba0dc","21202E089E0245E5814E122098366964-2025-05-15-19-02-59","","759","","images/schematic_sequence/dinner_party_scheme/dinner_party_scheme_6.png","0","",""
"","","","","","image-button-response","97","516240","0.0-14.0-1.0-2.2","21202E089E0245E5814E122098366964","21202E089E0245E5814E122098366964","771a37c7-a2d8-4793-9d3e-b7bbc93ae015","051c06f1-75cc-4548-856d-4923ddaba0dc","{""num_scrambled_semantic"":""8"",""num_scrambled_causal"":""4"",""num_scrambled_schematic"":""4"",""participantId"":""21202E089E0245E5814E122098366964"",""assignmentId"":""771a37c7-a2d8-4793-9d3e-b7bbc93ae015"",""projectId"":""051c06f1-75cc-4548-856d-4923ddaba0dc""}","https://test12345.live/?num_scrambled_semantic=8&num_scrambled_causal=4&num_scrambled_schematic=4&participantId=21202E089E0245E5814E122098366964&assignmentId=771a37c7-a2d8-4793-9d3e-b7bbc93ae015&projectId=051c06f1-75cc-4548-856d-4923ddaba0dc","21202E089E0245E5814E122098366964-2025-05-15-19-02-59","","null","","[]","null","",""
"","","","","","image-button-response","98","520747","0.0-14.0-1.0-0.3","21202E089E0245E5814E122098366964","21202E089E0245E5814E122098366964","771a37c7-a2d8-4793-9d3e-b7bbc93ae015","051c06f1-75cc-4548-856d-4923ddaba0dc","{""num_scrambled_semantic"":""8"",""num_scrambled_causal"":""4"",""num_scrambled_schematic"":""4"",""participantId"":""21202E089E0245E5814E122098366964"",""assignmentId"":""771a37c7-a2d8-4793-9d3e-b7bbc93ae015"",""projectId"":""051c06f1-75cc-4548-856d-4923ddaba0dc""}","https://test12345.live/?num_scrambled_semantic=8&num_scrambled_causal=4&num_scrambled_schematic=4&participantId=21202E089E0245E5814E122098366964&assignmentId=771a37c7-a2d8-4793-9d3e-b7bbc93ae015&projectId=051c06f1-75cc-4548-856d-4923ddaba0dc","21202E089E0245E5814E122098366964-2025-05-15-19-02-59","","null","","images/schematic_sequence/dinner_party_scheme/dinner_party_scheme_7.png","null","",""
"","","","","","image-button-response","99","521518","0.0-14.0-1.0-1.3","21202E089E0245E5814E122098366964","21202E089E0245E5814E122098366964","771a37c7-a2d8-4793-9d3e-b7bbc93ae015","051c06f1-75cc-4548-856d-4923ddaba0dc","{""num_scrambled_semantic"":""8"",""num_scrambled_causal"":""4"",""num_scrambled_schematic"":""4"",""participantId"":""21202E089E0245E5814E122098366964"",""assignmentId"":""771a37c7-a2d8-4793-9d3e-b7bbc93ae015"",""projectId"":""051c06f1-75cc-4548-856d-4923ddaba0dc""}","https://test12345.live/?num_scrambled_semantic=8&num_scrambled_causal=4&num_scrambled_schematic=4&participantId=21202E089E0245E5814E122098366964&assignmentId=771a37c7-a2d8-4793-9d3e-b7bbc93ae015&projectId=051c06f1-75cc-4548-856d-4923ddaba0dc","21202E089E0245E5814E122098366964-2025-05-15-19-02-59","","769","","images/schematic_sequence/dinner_party_scheme/dinner_party_scheme_7.png","0","",""
"","","","","","image-button-response","100","523330","0.0-14.0-1.0-2.3","21202E089E0245E5814E122098366964","21202E089E0245E5814E122098366964","771a37c7-a2d8-4793-9d3e-b7bbc93ae015","051c06f1-75cc-4548-856d-4923ddaba0dc","{""num_scrambled_semantic"":""8"",""num_scrambled_causal"":""4"",""num_scrambled_schematic"":""4"",""participantId"":""21202E089E0245E5814E122098366964"",""assignmentId"":""771a37c7-a2d8-4793-9d3e-b7bbc93ae015"",""projectId"":""051c06f1-75cc-4548-856d-4923ddaba0dc""}","https://test12345.live/?num_scrambled_semantic=8&num_scrambled_causal=4&num_scrambled_schematic=4&participantId=21202E089E0245E5814E122098366964&assignmentId=771a37c7-a2d8-4793-9d3e-b7bbc93ae015&projectId=051c06f1-75cc-4548-856d-4923ddaba0dc","21202E089E0245E5814E122098366964-2025-05-15-19-02-59","","null","","[]","null","",""
"","","","","","image-button-response","101","527847","0.0-14.0-1.0-0.4","21202E089E0245E5814E122098366964","21202E089E0245E5814E122098366964","771a37c7-a2d8-4793-9d3e-b7bbc93ae015","051c06f1-75cc-4548-856d-4923ddaba0dc","{""num_scrambled_semantic"":""8"",""num_scrambled_causal"":""4"",""num_scrambled_schematic"":""4"",""participantId"":""21202E089E0245E5814E122098366964"",""assignmentId"":""771a37c7-a2d8-4793-9d3e-b7bbc93ae015"",""projectId"":""051c06f1-75cc-4548-856d-4923ddaba0dc""}","https://test12345.live/?num_scrambled_semantic=8&num_scrambled_causal=4&num_scrambled_schematic=4&participantId=21202E089E0245E5814E122098366964&assignmentId=771a37c7-a2d8-4793-9d3e-b7bbc93ae015&projectId=051c06f1-75cc-4548-856d-4923ddaba0dc","21202E089E0245E5814E122098366964-2025-05-15-19-02-59","","null","","images/schematic_sequence/dinner_party_scheme/dinner_party_scheme_ten.png","null","",""
"","","","","","image-button-response","102","529710","0.0-14.0-1.0-1.4","21202E089E0245E5814E122098366964","21202E089E0245E5814E122098366964","771a37c7-a2d8-4793-9d3e-b7bbc93ae015","051c06f1-75cc-4548-856d-4923ddaba0dc","{""num_scrambled_semantic"":""8"",""num_scrambled_causal"":""4"",""num_scrambled_schematic"":""4"",""participantId"":""21202E089E0245E5814E122098366964"",""assignmentId"":""771a37c7-a2d8-4793-9d3e-b7bbc93ae015"",""projectId"":""051c06f1-75cc-4548-856d-4923ddaba0dc""}","https://test12345.live/?num_scrambled_semantic=8&num_scrambled_causal=4&num_scrambled_schematic=4&participantId=21202E089E0245E5814E122098366964&assignmentId=771a37c7-a2d8-4793-9d3e-b7bbc93ae015&projectId=051c06f1-75cc-4548-856d-4923ddaba0dc","21202E089E0245E5814E122098366964-2025-05-15-19-02-59","","1862","","images/schematic_sequence/dinner_party_scheme/dinner_party_scheme_ten.png","0","",""
"","","","","","image-button-response","103","531513","0.0-14.0-1.0-2.4","21202E089E0245E5814E122098366964","21202E089E0245E5814E122098366964","771a37c7-a2d8-4793-9d3e-b7bbc93ae015","051c06f1-75cc-4548-856d-4923ddaba0dc","{""num_scrambled_semantic"":""8"",""num_scrambled_causal"":""4"",""num_scrambled_schematic"":""4"",""participantId"":""21202E089E0245E5814E122098366964"",""assignmentId"":""771a37c7-a2d8-4793-9d3e-b7bbc93ae015"",""projectId"":""051c06f1-75cc-4548-856d-4923ddaba0dc""}","https://test12345.live/?num_scrambled_semantic=8&num_scrambled_causal=4&num_scrambled_schematic=4&participantId=21202E089E0245E5814E122098366964&assignmentId=771a37c7-a2d8-4793-9d3e-b7bbc93ae015&projectId=051c06f1-75cc-4548-856d-4923ddaba0dc","21202E089E0245E5814E122098366964-2025-05-15-19-02-59","","null","","[]","null","",""
"","","","","","image-button-response","104","536015","0.0-14.0-1.0-0.5","21202E089E0245E5814E122098366964","21202E089E0245E5814E122098366964","771a37c7-a2d8-4793-9d3e-b7bbc93ae015","051c06f1-75cc-4548-856d-4923ddaba0dc","{""num_scrambled_semantic"":""8"",""num_scrambled_causal"":""4"",""num_scrambled_schematic"":""4"",""participantId"":""21202E089E0245E5814E122098366964"",""assignmentId"":""771a37c7-a2d8-4793-9d3e-b7bbc93ae015"",""projectId"":""051c06f1-75cc-4548-856d-4923ddaba0dc""}","https://test12345.live/?num_scrambled_semantic=8&num_scrambled_causal=4&num_scrambled_schematic=4&participantId=21202E089E0245E5814E122098366964&assignmentId=771a37c7-a2d8-4793-9d3e-b7bbc93ae015&projectId=051c06f1-75cc-4548-856d-4923ddaba0dc","21202E089E0245E5814E122098366964-2025-05-15-19-02-59","","null","","images/schematic_sequence/dinner_party_scheme/dinner_party_scheme_5.png","null","",""
"","","","","","image-button-response","105","536813","0.0-14.0-1.0-1.5","21202E089E0245E5814E122098366964","21202E089E0245E5814E122098366964","771a37c7-a2d8-4793-9d3e-b7bbc93ae015","051c06f1-75cc-4548-856d-4923ddaba0dc","{""num_scrambled_semantic"":""8"",""num_scrambled_causal"":""4"",""num_scrambled_schematic"":""4"",""participantId"":""21202E089E0245E5814E122098366964"",""assignmentId"":""771a37c7-a2d8-4793-9d3e-b7bbc93ae015"",""projectId"":""051c06f1-75cc-4548-856d-4923ddaba0dc""}","https://test12345.live/?num_scrambled_semantic=8&num_scrambled_causal=4&num_scrambled_schematic=4&participantId=21202E089E0245E5814E122098366964&assignmentId=771a37c7-a2d8-4793-9d3e-b7bbc93ae015&projectId=051c06f1-75cc-4548-856d-4923ddaba0dc","21202E089E0245E5814E122098366964-2025-05-15-19-02-59","","796","","images/schematic_sequence/dinner_party_scheme/dinner_party_scheme_5.png","0","",""
"","","","","","image-button-response","106","538623","0.0-14.0-1.0-2.5","21202E089E0245E5814E122098366964","21202E089E0245E5814E122098366964","771a37c7-a2d8-4793-9d3e-b7bbc93ae015","051c06f1-75cc-4548-856d-4923ddaba0dc","{""num_scrambled_semantic"":""8"",""num_scrambled_causal"":""4"",""num_scrambled_schematic"":""4"",""participantId"":""21202E089E0245E5814E122098366964"",""assignmentId"":""771a37c7-a2d8-4793-9d3e-b7bbc93ae015"",""projectId"":""051c06f1-75cc-4548-856d-4923ddaba0dc""}","https://test12345.live/?num_scrambled_semantic=8&num_scrambled_causal=4&num_scrambled_schematic=4&participantId=21202E089E0245E5814E122098366964&assignmentId=771a37c7-a2d8-4793-9d3e-b7bbc93ae015&projectId=051c06f1-75cc-4548-856d-4923ddaba0dc","21202E089E0245E5814E122098366964-2025-05-15-19-02-59","","null","","[]","null","",""
"","","","","","image-button-response","107","543135","0.0-14.0-1.0-0.6","21202E089E0245E5814E122098366964","21202E089E0245E5814E122098366964","771a37c7-a2d8-4793-9d3e-b7bbc93ae015","051c06f1-75cc-4548-856d-4923ddaba0dc","{""num_scrambled_semantic"":""8"",""num_scrambled_causal"":""4"",""num_scrambled_schematic"":""4"",""participantId"":""21202E089E0245E5814E122098366964"",""assignmentId"":""771a37c7-a2d8-4793-9d3e-b7bbc93ae015"",""projectId"":""051c06f1-75cc-4548-856d-4923ddaba0dc""}","https://test12345.live/?num_scrambled_semantic=8&num_scrambled_causal=4&num_scrambled_schematic=4&participantId=21202E089E0245E5814E122098366964&assignmentId=771a37c7-a2d8-4793-9d3e-b7bbc93ae015&projectId=051c06f1-75cc-4548-856d-4923ddaba0dc","21202E089E0245E5814E122098366964-2025-05-15-19-02-59","","null","","images/schematic_sequence/dinner_party_scheme/dinner_party_scheme_4.png","null","",""
"","","","","","image-button-response","108","544264","0.0-14.0-1.0-1.6","21202E089E0245E5814E122098366964","21202E089E0245E5814E122098366964","771a37c7-a2d8-4793-9d3e-b7bbc93ae015","051c06f1-75cc-4548-856d-4923ddaba0dc","{""num_scrambled_semantic"":""8"",""num_scrambled_causal"":""4"",""num_scrambled_schematic"":""4"",""participantId"":""21202E089E0245E5814E122098366964"",""assignmentId"":""771a37c7-a2d8-4793-9d3e-b7bbc93ae015"",""projectId"":""051c06f1-75cc-4548-856d-4923ddaba0dc""}","https://test12345.live/?num_scrambled_semantic=8&num_scrambled_causal=4&num_scrambled_schematic=4&participantId=21202E089E0245E5814E122098366964&assignmentId=771a37c7-a2d8-4793-9d3e-b7bbc93ae015&projectId=051c06f1-75cc-4548-856d-4923ddaba0dc","21202E089E0245E5814E122098366964-2025-05-15-19-02-59","","1128","","images/schematic_sequence/dinner_party_scheme/dinner_party_scheme_4.png","0","",""
"","","","","","image-button-response","109","546071","0.0-14.0-1.0-2.6","21202E089E0245E5814E122098366964","21202E089E0245E5814E122098366964","771a37c7-a2d8-4793-9d3e-b7bbc93ae015","051c06f1-75cc-4548-856d-4923ddaba0dc","{""num_scrambled_semantic"":""8"",""num_scrambled_causal"":""4"",""num_scrambled_schematic"":""4"",""participantId"":""21202E089E0245E5814E122098366964"",""assignmentId"":""771a37c7-a2d8-4793-9d3e-b7bbc93ae015"",""projectId"":""051c06f1-75cc-4548-856d-4923ddaba0dc""}","https://test12345.live/?num_scrambled_semantic=8&num_scrambled_causal=4&num_scrambled_schematic=4&participantId=21202E089E0245E5814E122098366964&assignmentId=771a37c7-a2d8-4793-9d3e-b7bbc93ae015&projectId=051c06f1-75cc-4548-856d-4923ddaba0dc","21202E089E0245E5814E122098366964-2025-05-15-19-02-59","","null","","[]","null","",""
"","","","","","image-button-response","110","550580","0.0-14.0-1.0-0.7","21202E089E0245E5814E122098366964","21202E089E0245E5814E122098366964","771a37c7-a2d8-4793-9d3e-b7bbc93ae015","051c06f1-75cc-4548-856d-4923ddaba0dc","{""num_scrambled_semantic"":""8"",""num_scrambled_causal"":""4"",""num_scrambled_schematic"":""4"",""participantId"":""21202E089E0245E5814E122098366964"",""assignmentId"":""771a37c7-a2d8-4793-9d3e-b7bbc93ae015"",""projectId"":""051c06f1-75cc-4548-856d-4923ddaba0dc""}","https://test12345.live/?num_scrambled_semantic=8&num_scrambled_causal=4&num_scrambled_schematic=4&participantId=21202E089E0245E5814E122098366964&assignmentId=771a37c7-a2d8-4793-9d3e-b7bbc93ae015&projectId=051c06f1-75cc-4548-856d-4923ddaba0dc","21202E089E0245E5814E122098366964-2025-05-15-19-02-59","","null","","images/schematic_sequence/dinner_party_scheme/dinner_party_scheme_1.png","null","",""
"","","","","","image-button-response","111","552317","0.0-14.0-1.0-1.7","21202E089E0245E5814E122098366964","21202E089E0245E5814E122098366964","771a37c7-a2d8-4793-9d3e-b7bbc93ae015","051c06f1-75cc-4548-856d-4923ddaba0dc","{""num_scrambled_semantic"":""8"",""num_scrambled_causal"":""4"",""num_scrambled_schematic"":""4"",""participantId"":""21202E089E0245E5814E122098366964"",""assignmentId"":""771a37c7-a2d8-4793-9d3e-b7bbc93ae015"",""projectId"":""051c06f1-75cc-4548-856d-4923ddaba0dc""}","https://test12345.live/?num_scrambled_semantic=8&num_scrambled_causal=4&num_scrambled_schematic=4&participantId=21202E089E0245E5814E122098366964&assignmentId=771a37c7-a2d8-4793-9d3e-b7bbc93ae015&projectId=051c06f1-75cc-4548-856d-4923ddaba0dc","21202E089E0245E5814E122098366964-2025-05-15-19-02-59","","1735","","images/schematic_sequence/dinner_party_scheme/dinner_party_scheme_1.png","0","",""
"","","","","","image-button-response","112","554134","0.0-14.0-1.0-2.7","21202E089E0245E5814E122098366964","21202E089E0245E5814E122098366964","771a37c7-a2d8-4793-9d3e-b7bbc93ae015","051c06f1-75cc-4548-856d-4923ddaba0dc","{""num_scrambled_semantic"":""8"",""num_scrambled_causal"":""4"",""num_scrambled_schematic"":""4"",""participantId"":""21202E089E0245E5814E122098366964"",""assignmentId"":""771a37c7-a2d8-4793-9d3e-b7bbc93ae015"",""projectId"":""051c06f1-75cc-4548-856d-4923ddaba0dc""}","https://test12345.live/?num_scrambled_semantic=8&num_scrambled_causal=4&num_scrambled_schematic=4&participantId=21202E089E0245E5814E122098366964&assignmentId=771a37c7-a2d8-4793-9d3e-b7bbc93ae015&projectId=051c06f1-75cc-4548-856d-4923ddaba0dc","21202E089E0245E5814E122098366964-2025-05-15-19-02-59","","null","","[]","null","",""
"","","","","","image-button-response","113","558653","0.0-14.0-1.0-0.8","21202E089E0245E5814E122098366964","21202E089E0245E5814E122098366964","771a37c7-a2d8-4793-9d3e-b7bbc93ae015","051c06f1-75cc-4548-856d-4923ddaba0dc","{""num_scrambled_semantic"":""8"",""num_scrambled_causal"":""4"",""num_scrambled_schematic"":""4"",""participantId"":""21202E089E0245E5814E122098366964"",""assignmentId"":""771a37c7-a2d8-4793-9d3e-b7bbc93ae015"",""projectId"":""051c06f1-75cc-4548-856d-4923ddaba0dc""}","https://test12345.live/?num_scrambled_semantic=8&num_scrambled_causal=4&num_scrambled_schematic=4&participantId=21202E089E0245E5814E122098366964&assignmentId=771a37c7-a2d8-4793-9d3e-b7bbc93ae015&projectId=051c06f1-75cc-4548-856d-4923ddaba0dc","21202E089E0245E5814E122098366964-2025-05-15-19-02-59","","null","","images/schematic_sequence/dinner_party_scheme/dinner_party_scheme_2.png","null","",""
"","","","","","image-button-response","114","559298","0.0-14.0-1.0-1.8","21202E089E0245E5814E122098366964","21202E089E0245E5814E122098366964","771a37c7-a2d8-4793-9d3e-b7bbc93ae015","051c06f1-75cc-4548-856d-4923ddaba0dc","{""num_scrambled_semantic"":""8"",""num_scrambled_causal"":""4"",""num_scrambled_schematic"":""4"",""participantId"":""21202E089E0245E5814E122098366964"",""assignmentId"":""771a37c7-a2d8-4793-9d3e-b7bbc93ae015"",""projectId"":""051c06f1-75cc-4548-856d-4923ddaba0dc""}","https://test12345.live/?num_scrambled_semantic=8&num_scrambled_causal=4&num_scrambled_schematic=4&participantId=21202E089E0245E5814E122098366964&assignmentId=771a37c7-a2d8-4793-9d3e-b7bbc93ae015&projectId=051c06f1-75cc-4548-856d-4923ddaba0dc","21202E089E0245E5814E122098366964-2025-05-15-19-02-59","","643","","images/schematic_sequence/dinner_party_scheme/dinner_party_scheme_2.png","0","",""
