"success","timeout","failed_images","failed_audio","failed_video","trial_type","trial_index","time_elapsed","internal_node_id","subject","subject_id","study_id","session_id","urlvar","current_url","audio_id","view_history","rt","device_id","stimulus","response","estimated_stimulus_onset","seq_name"
"true","false","[]","[]","[]","preload","0","13489","0.0-0.0","2228F0078FB0461FA4C8F5F0F6743D8F","2228F0078FB0461FA4C8F5F0F6743D8F","fd376ca3-f329-48d3-ae3c-455ec98c2565","a0a8f18c-a66e-4ba7-a170-23efbdc67501","{""participantId"":""2228F0078FB0461FA4C8F5F0F6743D8F"",""assignmentId"":""fd376ca3-f329-48d3-ae3c-455ec98c2565"",""projectId"":""a0a8f18c-a66e-4ba7-a170-23efbdc67501""}","https://test12345.live/?participantId=2228F0078FB0461FA4C8F5F0F6743D8F&assignmentId=fd376ca3-f329-48d3-ae3c-455ec98c2565&projectId=a0a8f18c-a66e-4ba7-a170-23efbdc67501","2228F0078FB0461FA4C8F5F0F6743D8F-2024-11-24-20-16-00","","","","","","",""
"","","","","","instructions","1","1438610","0.0-1.0","2228F0078FB0461FA4C8F5F0F6743D8F","2228F0078FB0461FA4C8F5F0F6743D8F","fd376ca3-f329-48d3-ae3c-455ec98c2565","a0a8f18c-a66e-4ba7-a170-23efbdc67501","{""participantId"":""2228F0078FB0461FA4C8F5F0F6743D8F"",""assignmentId"":""fd376ca3-f329-48d3-ae3c-455ec98c2565"",""projectId"":""a0a8f18c-a66e-4ba7-a170-23efbdc67501""}","https://test12345.live/?participantId=2228F0078FB0461FA4C8F5F0F6743D8F&assignmentId=fd376ca3-f329-48d3-ae3c-455ec98c2565&projectId=a0a8f18c-a66e-4ba7-a170-23efbdc67501","2228F0078FB0461FA4C8F5F0F6743D8F-2024-11-24-20-16-00","[{""page_index"":0,""viewing_time"":1425118}]","1425119","","","","",""
"","","","","","instructions","2","1445840","0.0-2.0","2228F0078FB0461FA4C8F5F0F6743D8F","2228F0078FB0461FA4C8F5F0F6743D8F","fd376ca3-f329-48d3-ae3c-455ec98c2565","a0a8f18c-a66e-4ba7-a170-23efbdc67501","{""participantId"":""2228F0078FB0461FA4C8F5F0F6743D8F"",""assignmentId"":""fd376ca3-f329-48d3-ae3c-455ec98c2565"",""projectId"":""a0a8f18c-a66e-4ba7-a170-23efbdc67501""}","https://test12345.live/?participantId=2228F0078FB0461FA4C8F5F0F6743D8F&assignmentId=fd376ca3-f329-48d3-ae3c-455ec98c2565&projectId=a0a8f18c-a66e-4ba7-a170-23efbdc67501","2228F0078FB0461FA4C8F5F0F6743D8F-2024-11-24-20-16-00","[{""page_index"":0,""viewing_time"":7229}]","7229","","","","",""
"true","","","","","fullscreen","3","1452188","0.0-3.0","2228F0078FB0461FA4C8F5F0F6743D8F","2228F0078FB0461FA4C8F5F0F6743D8F","fd376ca3-f329-48d3-ae3c-455ec98c2565","a0a8f18c-a66e-4ba7-a170-23efbdc67501","{""participantId"":""2228F0078FB0461FA4C8F5F0F6743D8F"",""assignmentId"":""fd376ca3-f329-48d3-ae3c-455ec98c2565"",""projectId"":""a0a8f18c-a66e-4ba7-a170-23efbdc67501""}","https://test12345.live/?participantId=2228F0078FB0461FA4C8F5F0F6743D8F&assignmentId=fd376ca3-f329-48d3-ae3c-455ec98c2565&projectId=a0a8f18c-a66e-4ba7-a170-23efbdc67501","2228F0078FB0461FA4C8F5F0F6743D8F-2024-11-24-20-16-00","","5324","","","","",""
"","","","","","initialize-microphone","4","1469331","0.0-4.0-0.0","2228F0078FB0461FA4C8F5F0F6743D8F","2228F0078FB0461FA4C8F5F0F6743D8F","fd376ca3-f329-48d3-ae3c-455ec98c2565","a0a8f18c-a66e-4ba7-a170-23efbdc67501","{""participantId"":""2228F0078FB0461FA4C8F5F0F6743D8F"",""assignmentId"":""fd376ca3-f329-48d3-ae3c-455ec98c2565"",""projectId"":""a0a8f18c-a66e-4ba7-a170-23efbdc67501""}","https://test12345.live/?participantId=2228F0078FB0461FA4C8F5F0F6743D8F&assignmentId=fd376ca3-f329-48d3-ae3c-455ec98c2565&projectId=a0a8f18c-a66e-4ba7-a170-23efbdc67501","2228F0078FB0461FA4C8F5F0F6743D8F-2024-11-24-20-16-00","","","fa38f801276dfd2916ccfd13b6046b0a1df0ee5f047a5e1d16c7ff940f4aa9d5","","","",""
"","","","","","html-audio-response","5","1480505","0.0-4.0-1.0","2228F0078FB0461FA4C8F5F0F6743D8F","2228F0078FB0461FA4C8F5F0F6743D8F","fd376ca3-f329-48d3-ae3c-455ec98c2565","a0a8f18c-a66e-4ba7-a170-23efbdc67501","{""participantId"":""2228F0078FB0461FA4C8F5F0F6743D8F"",""assignmentId"":""fd376ca3-f329-48d3-ae3c-455ec98c2565"",""projectId"":""a0a8f18c-a66e-4ba7-a170-23efbdc67501""}","https://test12345.live/?participantId=2228F0078FB0461FA4C8F5F0F6743D8F&assignmentId=fd376ca3-f329-48d3-ae3c-455ec98c2565&projectId=a0a8f18c-a66e-4ba7-a170-23efbdc67501","2228F0078FB0461FA4C8F5F0F6743D8F-2024-11-24-20-16-00","","2036","","<span style=""color: red; font-size: 24px""> NOW RECORDING</span>
        <p>Please test Microphone</p>","","9",""
"","","","","","html-button-response","6","1481765","0.0-4.0-2.0","2228F0078FB0461FA4C8F5F0F6743D8F","2228F0078FB0461FA4C8F5F0F6743D8F","fd376ca3-f329-48d3-ae3c-455ec98c2565","a0a8f18c-a66e-4ba7-a170-23efbdc67501","{""participantId"":""2228F0078FB0461FA4C8F5F0F6743D8F"",""assignmentId"":""fd376ca3-f329-48d3-ae3c-455ec98c2565"",""projectId"":""a0a8f18c-a66e-4ba7-a170-23efbdc67501""}","https://test12345.live/?participantId=2228F0078FB0461FA4C8F5F0F6743D8F&assignmentId=fd376ca3-f329-48d3-ae3c-455ec98c2565&projectId=a0a8f18c-a66e-4ba7-a170-23efbdc67501","2228F0078FB0461FA4C8F5F0F6743D8F-2024-11-24-20-16-00","","1258","","<p style=""font-size:48px; color:red;"">Is Microphone OK?</p>","1","",""
"","","","","","instructions","7","1508715","0.0-5.0","2228F0078FB0461FA4C8F5F0F6743D8F","2228F0078FB0461FA4C8F5F0F6743D8F","fd376ca3-f329-48d3-ae3c-455ec98c2565","a0a8f18c-a66e-4ba7-a170-23efbdc67501","{""participantId"":""2228F0078FB0461FA4C8F5F0F6743D8F"",""assignmentId"":""fd376ca3-f329-48d3-ae3c-455ec98c2565"",""projectId"":""a0a8f18c-a66e-4ba7-a170-23efbdc67501""}","https://test12345.live/?participantId=2228F0078FB0461FA4C8F5F0F6743D8F&assignmentId=fd376ca3-f329-48d3-ae3c-455ec98c2565&projectId=a0a8f18c-a66e-4ba7-a170-23efbdc67501","2228F0078FB0461FA4C8F5F0F6743D8F-2024-11-24-20-16-00","[{""page_index"":0,""viewing_time"":24803},{""page_index"":1,""viewing_time"":2141}]","26945","","","","",""
"","","","","","image-button-response","8","1514735","0.0-6.0-0.0","2228F0078FB0461FA4C8F5F0F6743D8F","2228F0078FB0461FA4C8F5F0F6743D8F","fd376ca3-f329-48d3-ae3c-455ec98c2565","a0a8f18c-a66e-4ba7-a170-23efbdc67501","{""participantId"":""2228F0078FB0461FA4C8F5F0F6743D8F"",""assignmentId"":""fd376ca3-f329-48d3-ae3c-455ec98c2565"",""projectId"":""a0a8f18c-a66e-4ba7-a170-23efbdc67501""}","https://test12345.live/?participantId=2228F0078FB0461FA4C8F5F0F6743D8F&assignmentId=fd376ca3-f329-48d3-ae3c-455ec98c2565&projectId=a0a8f18c-a66e-4ba7-a170-23efbdc67501","2228F0078FB0461FA4C8F5F0F6743D8F-2024-11-24-20-16-00","","null","","images/instructions/movie_0.png","null","",""
"","","","","","image-button-response","9","1519241","0.0-6.0-1.0-0.0","2228F0078FB0461FA4C8F5F0F6743D8F","2228F0078FB0461FA4C8F5F0F6743D8F","fd376ca3-f329-48d3-ae3c-455ec98c2565","a0a8f18c-a66e-4ba7-a170-23efbdc67501","{""participantId"":""2228F0078FB0461FA4C8F5F0F6743D8F"",""assignmentId"":""fd376ca3-f329-48d3-ae3c-455ec98c2565"",""projectId"":""a0a8f18c-a66e-4ba7-a170-23efbdc67501""}","https://test12345.live/?participantId=2228F0078FB0461FA4C8F5F0F6743D8F&assignmentId=fd376ca3-f329-48d3-ae3c-455ec98c2565&projectId=a0a8f18c-a66e-4ba7-a170-23efbdc67501","2228F0078FB0461FA4C8F5F0F6743D8F-2024-11-24-20-16-00","","null","","images/instructions/movie_1.png","null","",""
"","","","","","image-button-response","10","1520656","0.0-6.0-1.0-1.0","2228F0078FB0461FA4C8F5F0F6743D8F","2228F0078FB0461FA4C8F5F0F6743D8F","fd376ca3-f329-48d3-ae3c-455ec98c2565","a0a8f18c-a66e-4ba7-a170-23efbdc67501","{""participantId"":""2228F0078FB0461FA4C8F5F0F6743D8F"",""assignmentId"":""fd376ca3-f329-48d3-ae3c-455ec98c2565"",""projectId"":""a0a8f18c-a66e-4ba7-a170-23efbdc67501""}","https://test12345.live/?participantId=2228F0078FB0461FA4C8F5F0F6743D8F&assignmentId=fd376ca3-f329-48d3-ae3c-455ec98c2565&projectId=a0a8f18c-a66e-4ba7-a170-23efbdc67501","2228F0078FB0461FA4C8F5F0F6743D8F-2024-11-24-20-16-00","","1412","","images/instructions/movie_1.png","0","",""
"","","","","","image-button-response","11","1522463","0.0-6.0-1.0-2.0","2228F0078FB0461FA4C8F5F0F6743D8F","2228F0078FB0461FA4C8F5F0F6743D8F","fd376ca3-f329-48d3-ae3c-455ec98c2565","a0a8f18c-a66e-4ba7-a170-23efbdc67501","{""participantId"":""2228F0078FB0461FA4C8F5F0F6743D8F"",""assignmentId"":""fd376ca3-f329-48d3-ae3c-455ec98c2565"",""projectId"":""a0a8f18c-a66e-4ba7-a170-23efbdc67501""}","https://test12345.live/?participantId=2228F0078FB0461FA4C8F5F0F6743D8F&assignmentId=fd376ca3-f329-48d3-ae3c-455ec98c2565&projectId=a0a8f18c-a66e-4ba7-a170-23efbdc67501","2228F0078FB0461FA4C8F5F0F6743D8F-2024-11-24-20-16-00","","null","","[]","null","",""
"","","","","","image-button-response","12","1526983","0.0-6.0-1.0-0.1","2228F0078FB0461FA4C8F5F0F6743D8F","2228F0078FB0461FA4C8F5F0F6743D8F","fd376ca3-f329-48d3-ae3c-455ec98c2565","a0a8f18c-a66e-4ba7-a170-23efbdc67501","{""participantId"":""2228F0078FB0461FA4C8F5F0F6743D8F"",""assignmentId"":""fd376ca3-f329-48d3-ae3c-455ec98c2565"",""projectId"":""a0a8f18c-a66e-4ba7-a170-23efbdc67501""}","https://test12345.live/?participantId=2228F0078FB0461FA4C8F5F0F6743D8F&assignmentId=fd376ca3-f329-48d3-ae3c-455ec98c2565&projectId=a0a8f18c-a66e-4ba7-a170-23efbdc67501","2228F0078FB0461FA4C8F5F0F6743D8F-2024-11-24-20-16-00","","null","","images/instructions/movie_2.png","null","",""
"","","","","","image-button-response","13","1528649","0.0-6.0-1.0-1.1","2228F0078FB0461FA4C8F5F0F6743D8F","2228F0078FB0461FA4C8F5F0F6743D8F","fd376ca3-f329-48d3-ae3c-455ec98c2565","a0a8f18c-a66e-4ba7-a170-23efbdc67501","{""participantId"":""2228F0078FB0461FA4C8F5F0F6743D8F"",""assignmentId"":""fd376ca3-f329-48d3-ae3c-455ec98c2565"",""projectId"":""a0a8f18c-a66e-4ba7-a170-23efbdc67501""}","https://test12345.live/?participantId=2228F0078FB0461FA4C8F5F0F6743D8F&assignmentId=fd376ca3-f329-48d3-ae3c-455ec98c2565&projectId=a0a8f18c-a66e-4ba7-a170-23efbdc67501","2228F0078FB0461FA4C8F5F0F6743D8F-2024-11-24-20-16-00","","1663","","images/instructions/movie_2.png","1","",""
"","","","","","image-button-response","14","1530453","0.0-6.0-1.0-2.1","2228F0078FB0461FA4C8F5F0F6743D8F","2228F0078FB0461FA4C8F5F0F6743D8F","fd376ca3-f329-48d3-ae3c-455ec98c2565","a0a8f18c-a66e-4ba7-a170-23efbdc67501","{""participantId"":""2228F0078FB0461FA4C8F5F0F6743D8F"",""assignmentId"":""fd376ca3-f329-48d3-ae3c-455ec98c2565"",""projectId"":""a0a8f18c-a66e-4ba7-a170-23efbdc67501""}","https://test12345.live/?participantId=2228F0078FB0461FA4C8F5F0F6743D8F&assignmentId=fd376ca3-f329-48d3-ae3c-455ec98c2565&projectId=a0a8f18c-a66e-4ba7-a170-23efbdc67501","2228F0078FB0461FA4C8F5F0F6743D8F-2024-11-24-20-16-00","","null","","[]","null","",""
"","","","","","image-button-response","15","1534963","0.0-6.0-1.0-0.2","2228F0078FB0461FA4C8F5F0F6743D8F","2228F0078FB0461FA4C8F5F0F6743D8F","fd376ca3-f329-48d3-ae3c-455ec98c2565","a0a8f18c-a66e-4ba7-a170-23efbdc67501","{""participantId"":""2228F0078FB0461FA4C8F5F0F6743D8F"",""assignmentId"":""fd376ca3-f329-48d3-ae3c-455ec98c2565"",""projectId"":""a0a8f18c-a66e-4ba7-a170-23efbdc67501""}","https://test12345.live/?participantId=2228F0078FB0461FA4C8F5F0F6743D8F&assignmentId=fd376ca3-f329-48d3-ae3c-455ec98c2565&projectId=a0a8f18c-a66e-4ba7-a170-23efbdc67501","2228F0078FB0461FA4C8F5F0F6743D8F-2024-11-24-20-16-00","","null","","images/instructions/movie_3.png","null","",""
"","","","","","image-button-response","16","1536114","0.0-6.0-1.0-1.2","2228F0078FB0461FA4C8F5F0F6743D8F","2228F0078FB0461FA4C8F5F0F6743D8F","fd376ca3-f329-48d3-ae3c-455ec98c2565","a0a8f18c-a66e-4ba7-a170-23efbdc67501","{""participantId"":""2228F0078FB0461FA4C8F5F0F6743D8F"",""assignmentId"":""fd376ca3-f329-48d3-ae3c-455ec98c2565"",""projectId"":""a0a8f18c-a66e-4ba7-a170-23efbdc67501""}","https://test12345.live/?participantId=2228F0078FB0461FA4C8F5F0F6743D8F&assignmentId=fd376ca3-f329-48d3-ae3c-455ec98c2565&projectId=a0a8f18c-a66e-4ba7-a170-23efbdc67501","2228F0078FB0461FA4C8F5F0F6743D8F-2024-11-24-20-16-00","","1149","","images/instructions/movie_3.png","0","",""
"","","","","","image-button-response","17","1537925","0.0-6.0-1.0-2.2","2228F0078FB0461FA4C8F5F0F6743D8F","2228F0078FB0461FA4C8F5F0F6743D8F","fd376ca3-f329-48d3-ae3c-455ec98c2565","a0a8f18c-a66e-4ba7-a170-23efbdc67501","{""participantId"":""2228F0078FB0461FA4C8F5F0F6743D8F"",""assignmentId"":""fd376ca3-f329-48d3-ae3c-455ec98c2565"",""projectId"":""a0a8f18c-a66e-4ba7-a170-23efbdc67501""}","https://test12345.live/?participantId=2228F0078FB0461FA4C8F5F0F6743D8F&assignmentId=fd376ca3-f329-48d3-ae3c-455ec98c2565&projectId=a0a8f18c-a66e-4ba7-a170-23efbdc67501","2228F0078FB0461FA4C8F5F0F6743D8F-2024-11-24-20-16-00","","null","","[]","null","",""
"","","","","","image-button-response","18","1542436","0.0-6.0-1.0-0.3","2228F0078FB0461FA4C8F5F0F6743D8F","2228F0078FB0461FA4C8F5F0F6743D8F","fd376ca3-f329-48d3-ae3c-455ec98c2565","a0a8f18c-a66e-4ba7-a170-23efbdc67501","{""participantId"":""2228F0078FB0461FA4C8F5F0F6743D8F"",""assignmentId"":""fd376ca3-f329-48d3-ae3c-455ec98c2565"",""projectId"":""a0a8f18c-a66e-4ba7-a170-23efbdc67501""}","https://test12345.live/?participantId=2228F0078FB0461FA4C8F5F0F6743D8F&assignmentId=fd376ca3-f329-48d3-ae3c-455ec98c2565&projectId=a0a8f18c-a66e-4ba7-a170-23efbdc67501","2228F0078FB0461FA4C8F5F0F6743D8F-2024-11-24-20-16-00","","null","","images/instructions/movie_4.png","null","",""
"","","","","","image-button-response","19","1543775","0.0-6.0-1.0-1.3","2228F0078FB0461FA4C8F5F0F6743D8F","2228F0078FB0461FA4C8F5F0F6743D8F","fd376ca3-f329-48d3-ae3c-455ec98c2565","a0a8f18c-a66e-4ba7-a170-23efbdc67501","{""participantId"":""2228F0078FB0461FA4C8F5F0F6743D8F"",""assignmentId"":""fd376ca3-f329-48d3-ae3c-455ec98c2565"",""projectId"":""a0a8f18c-a66e-4ba7-a170-23efbdc67501""}","https://test12345.live/?participantId=2228F0078FB0461FA4C8F5F0F6743D8F&assignmentId=fd376ca3-f329-48d3-ae3c-455ec98c2565&projectId=a0a8f18c-a66e-4ba7-a170-23efbdc67501","2228F0078FB0461FA4C8F5F0F6743D8F-2024-11-24-20-16-00","","1338","","images/instructions/movie_4.png","0","",""
"","","","","","image-button-response","20","1545585","0.0-6.0-1.0-2.3","2228F0078FB0461FA4C8F5F0F6743D8F","2228F0078FB0461FA4C8F5F0F6743D8F","fd376ca3-f329-48d3-ae3c-455ec98c2565","a0a8f18c-a66e-4ba7-a170-23efbdc67501","{""participantId"":""2228F0078FB0461FA4C8F5F0F6743D8F"",""assignmentId"":""fd376ca3-f329-48d3-ae3c-455ec98c2565"",""projectId"":""a0a8f18c-a66e-4ba7-a170-23efbdc67501""}","https://test12345.live/?participantId=2228F0078FB0461FA4C8F5F0F6743D8F&assignmentId=fd376ca3-f329-48d3-ae3c-455ec98c2565&projectId=a0a8f18c-a66e-4ba7-a170-23efbdc67501","2228F0078FB0461FA4C8F5F0F6743D8F-2024-11-24-20-16-00","","null","","[]","null","",""
"","","","","","instructions","21","1553699","0.0-7.0","2228F0078FB0461FA4C8F5F0F6743D8F","2228F0078FB0461FA4C8F5F0F6743D8F","fd376ca3-f329-48d3-ae3c-455ec98c2565","a0a8f18c-a66e-4ba7-a170-23efbdc67501","{""participantId"":""2228F0078FB0461FA4C8F5F0F6743D8F"",""assignmentId"":""fd376ca3-f329-48d3-ae3c-455ec98c2565"",""projectId"":""a0a8f18c-a66e-4ba7-a170-23efbdc67501""}","https://test12345.live/?participantId=2228F0078FB0461FA4C8F5F0F6743D8F&assignmentId=fd376ca3-f329-48d3-ae3c-455ec98c2565&projectId=a0a8f18c-a66e-4ba7-a170-23efbdc67501","2228F0078FB0461FA4C8F5F0F6743D8F-2024-11-24-20-16-00","[{""page_index"":0,""viewing_time"":6169},{""page_index"":1,""viewing_time"":1945}]","8114","","","","",""
"","","","","","html-audio-response","22","1607115","0.0-8.0","2228F0078FB0461FA4C8F5F0F6743D8F","2228F0078FB0461FA4C8F5F0F6743D8F","fd376ca3-f329-48d3-ae3c-455ec98c2565","a0a8f18c-a66e-4ba7-a170-23efbdc67501","{""participantId"":""2228F0078FB0461FA4C8F5F0F6743D8F"",""assignmentId"":""fd376ca3-f329-48d3-ae3c-455ec98c2565"",""projectId"":""a0a8f18c-a66e-4ba7-a170-23efbdc67501""}","https://test12345.live/?participantId=2228F0078FB0461FA4C8F5F0F6743D8F&assignmentId=fd376ca3-f329-48d3-ae3c-455ec98c2565&projectId=a0a8f18c-a66e-4ba7-a170-23efbdc67501","2228F0078FB0461FA4C8F5F0F6743D8F-2024-11-24-20-16-00","","9183","","[""<span style=\""color: red; font-size: 24px\""> NOW RECORDING</span><p>Please say out loud all the images you saw, as many as you can remember. The images can be said in any order.</p>""]","","2",""
"","","","","","instructions","23","1742408","0.0-9.0","2228F0078FB0461FA4C8F5F0F6743D8F","2228F0078FB0461FA4C8F5F0F6743D8F","fd376ca3-f329-48d3-ae3c-455ec98c2565","a0a8f18c-a66e-4ba7-a170-23efbdc67501","{""participantId"":""2228F0078FB0461FA4C8F5F0F6743D8F"",""assignmentId"":""fd376ca3-f329-48d3-ae3c-455ec98c2565"",""projectId"":""a0a8f18c-a66e-4ba7-a170-23efbdc67501""}","https://test12345.live/?participantId=2228F0078FB0461FA4C8F5F0F6743D8F&assignmentId=fd376ca3-f329-48d3-ae3c-455ec98c2565&projectId=a0a8f18c-a66e-4ba7-a170-23efbdc67501","2228F0078FB0461FA4C8F5F0F6743D8F-2024-11-24-20-16-00","[{""page_index"":0,""viewing_time"":135273}]","135279","","","","",""
"","","","","","image-button-response","24","1748421","0.0-10.0-0.0","2228F0078FB0461FA4C8F5F0F6743D8F","2228F0078FB0461FA4C8F5F0F6743D8F","fd376ca3-f329-48d3-ae3c-455ec98c2565","a0a8f18c-a66e-4ba7-a170-23efbdc67501","{""participantId"":""2228F0078FB0461FA4C8F5F0F6743D8F"",""assignmentId"":""fd376ca3-f329-48d3-ae3c-455ec98c2565"",""projectId"":""a0a8f18c-a66e-4ba7-a170-23efbdc67501""}","https://test12345.live/?participantId=2228F0078FB0461FA4C8F5F0F6743D8F&assignmentId=fd376ca3-f329-48d3-ae3c-455ec98c2565&projectId=a0a8f18c-a66e-4ba7-a170-23efbdc67501","2228F0078FB0461FA4C8F5F0F6743D8F-2024-11-24-20-16-00","","null","","images/causal_sequence/museum_causal/museum_causal_0.png","null","",""
"","","","","","image-button-response","25","1752934","0.0-10.0-1.0-0.0","2228F0078FB0461FA4C8F5F0F6743D8F","2228F0078FB0461FA4C8F5F0F6743D8F","fd376ca3-f329-48d3-ae3c-455ec98c2565","a0a8f18c-a66e-4ba7-a170-23efbdc67501","{""participantId"":""2228F0078FB0461FA4C8F5F0F6743D8F"",""assignmentId"":""fd376ca3-f329-48d3-ae3c-455ec98c2565"",""projectId"":""a0a8f18c-a66e-4ba7-a170-23efbdc67501""}","https://test12345.live/?participantId=2228F0078FB0461FA4C8F5F0F6743D8F&assignmentId=fd376ca3-f329-48d3-ae3c-455ec98c2565&projectId=a0a8f18c-a66e-4ba7-a170-23efbdc67501","2228F0078FB0461FA4C8F5F0F6743D8F-2024-11-24-20-16-00","","null","","images/causal_sequence/museum_causal/museum_causal_1.png","null","",""
"","","","","","image-button-response","26","1754574","0.0-10.0-1.0-1.0","2228F0078FB0461FA4C8F5F0F6743D8F","2228F0078FB0461FA4C8F5F0F6743D8F","fd376ca3-f329-48d3-ae3c-455ec98c2565","a0a8f18c-a66e-4ba7-a170-23efbdc67501","{""participantId"":""2228F0078FB0461FA4C8F5F0F6743D8F"",""assignmentId"":""fd376ca3-f329-48d3-ae3c-455ec98c2565"",""projectId"":""a0a8f18c-a66e-4ba7-a170-23efbdc67501""}","https://test12345.live/?participantId=2228F0078FB0461FA4C8F5F0F6743D8F&assignmentId=fd376ca3-f329-48d3-ae3c-455ec98c2565&projectId=a0a8f18c-a66e-4ba7-a170-23efbdc67501","2228F0078FB0461FA4C8F5F0F6743D8F-2024-11-24-20-16-00","","1638","","images/causal_sequence/museum_causal/museum_causal_1.png","0","",""
"","","","","","image-button-response","27","1756379","0.0-10.0-1.0-2.0","2228F0078FB0461FA4C8F5F0F6743D8F","2228F0078FB0461FA4C8F5F0F6743D8F","fd376ca3-f329-48d3-ae3c-455ec98c2565","a0a8f18c-a66e-4ba7-a170-23efbdc67501","{""participantId"":""2228F0078FB0461FA4C8F5F0F6743D8F"",""assignmentId"":""fd376ca3-f329-48d3-ae3c-455ec98c2565"",""projectId"":""a0a8f18c-a66e-4ba7-a170-23efbdc67501""}","https://test12345.live/?participantId=2228F0078FB0461FA4C8F5F0F6743D8F&assignmentId=fd376ca3-f329-48d3-ae3c-455ec98c2565&projectId=a0a8f18c-a66e-4ba7-a170-23efbdc67501","2228F0078FB0461FA4C8F5F0F6743D8F-2024-11-24-20-16-00","","null","","[]","null","",""
"","","","","","image-button-response","28","1760894","0.0-10.0-1.0-0.1","2228F0078FB0461FA4C8F5F0F6743D8F","2228F0078FB0461FA4C8F5F0F6743D8F","fd376ca3-f329-48d3-ae3c-455ec98c2565","a0a8f18c-a66e-4ba7-a170-23efbdc67501","{""participantId"":""2228F0078FB0461FA4C8F5F0F6743D8F"",""assignmentId"":""fd376ca3-f329-48d3-ae3c-455ec98c2565"",""projectId"":""a0a8f18c-a66e-4ba7-a170-23efbdc67501""}","https://test12345.live/?participantId=2228F0078FB0461FA4C8F5F0F6743D8F&assignmentId=fd376ca3-f329-48d3-ae3c-455ec98c2565&projectId=a0a8f18c-a66e-4ba7-a170-23efbdc67501","2228F0078FB0461FA4C8F5F0F6743D8F-2024-11-24-20-16-00","","null","","images/causal_sequence/museum_causal/museum_causal_2.png","null","",""
"","","","","","image-button-response","29","1763027","0.0-10.0-1.0-1.1","2228F0078FB0461FA4C8F5F0F6743D8F","2228F0078FB0461FA4C8F5F0F6743D8F","fd376ca3-f329-48d3-ae3c-455ec98c2565","a0a8f18c-a66e-4ba7-a170-23efbdc67501","{""participantId"":""2228F0078FB0461FA4C8F5F0F6743D8F"",""assignmentId"":""fd376ca3-f329-48d3-ae3c-455ec98c2565"",""projectId"":""a0a8f18c-a66e-4ba7-a170-23efbdc67501""}","https://test12345.live/?participantId=2228F0078FB0461FA4C8F5F0F6743D8F&assignmentId=fd376ca3-f329-48d3-ae3c-455ec98c2565&projectId=a0a8f18c-a66e-4ba7-a170-23efbdc67501","2228F0078FB0461FA4C8F5F0F6743D8F-2024-11-24-20-16-00","","2128","","images/causal_sequence/museum_causal/museum_causal_2.png","1","",""
"","","","","","image-button-response","30","1764842","0.0-10.0-1.0-2.1","2228F0078FB0461FA4C8F5F0F6743D8F","2228F0078FB0461FA4C8F5F0F6743D8F","fd376ca3-f329-48d3-ae3c-455ec98c2565","a0a8f18c-a66e-4ba7-a170-23efbdc67501","{""participantId"":""2228F0078FB0461FA4C8F5F0F6743D8F"",""assignmentId"":""fd376ca3-f329-48d3-ae3c-455ec98c2565"",""projectId"":""a0a8f18c-a66e-4ba7-a170-23efbdc67501""}","https://test12345.live/?participantId=2228F0078FB0461FA4C8F5F0F6743D8F&assignmentId=fd376ca3-f329-48d3-ae3c-455ec98c2565&projectId=a0a8f18c-a66e-4ba7-a170-23efbdc67501","2228F0078FB0461FA4C8F5F0F6743D8F-2024-11-24-20-16-00","","null","","[]","null","",""
"","","","","","image-button-response","31","1769355","0.0-10.0-1.0-0.2","2228F0078FB0461FA4C8F5F0F6743D8F","2228F0078FB0461FA4C8F5F0F6743D8F","fd376ca3-f329-48d3-ae3c-455ec98c2565","a0a8f18c-a66e-4ba7-a170-23efbdc67501","{""participantId"":""2228F0078FB0461FA4C8F5F0F6743D8F"",""assignmentId"":""fd376ca3-f329-48d3-ae3c-455ec98c2565"",""projectId"":""a0a8f18c-a66e-4ba7-a170-23efbdc67501""}","https://test12345.live/?participantId=2228F0078FB0461FA4C8F5F0F6743D8F&assignmentId=fd376ca3-f329-48d3-ae3c-455ec98c2565&projectId=a0a8f18c-a66e-4ba7-a170-23efbdc67501","2228F0078FB0461FA4C8F5F0F6743D8F-2024-11-24-20-16-00","","null","","images/causal_sequence/museum_causal/museum_causal_3.png","null","",""
"","","","","","image-button-response","32","1770171","0.0-10.0-1.0-1.2","2228F0078FB0461FA4C8F5F0F6743D8F","2228F0078FB0461FA4C8F5F0F6743D8F","fd376ca3-f329-48d3-ae3c-455ec98c2565","a0a8f18c-a66e-4ba7-a170-23efbdc67501","{""participantId"":""2228F0078FB0461FA4C8F5F0F6743D8F"",""assignmentId"":""fd376ca3-f329-48d3-ae3c-455ec98c2565"",""projectId"":""a0a8f18c-a66e-4ba7-a170-23efbdc67501""}","https://test12345.live/?participantId=2228F0078FB0461FA4C8F5F0F6743D8F&assignmentId=fd376ca3-f329-48d3-ae3c-455ec98c2565&projectId=a0a8f18c-a66e-4ba7-a170-23efbdc67501","2228F0078FB0461FA4C8F5F0F6743D8F-2024-11-24-20-16-00","","814","","images/causal_sequence/museum_causal/museum_causal_3.png","0","",""
"","","","","","image-button-response","33","1771985","0.0-10.0-1.0-2.2","2228F0078FB0461FA4C8F5F0F6743D8F","2228F0078FB0461FA4C8F5F0F6743D8F","fd376ca3-f329-48d3-ae3c-455ec98c2565","a0a8f18c-a66e-4ba7-a170-23efbdc67501","{""participantId"":""2228F0078FB0461FA4C8F5F0F6743D8F"",""assignmentId"":""fd376ca3-f329-48d3-ae3c-455ec98c2565"",""projectId"":""a0a8f18c-a66e-4ba7-a170-23efbdc67501""}","https://test12345.live/?participantId=2228F0078FB0461FA4C8F5F0F6743D8F&assignmentId=fd376ca3-f329-48d3-ae3c-455ec98c2565&projectId=a0a8f18c-a66e-4ba7-a170-23efbdc67501","2228F0078FB0461FA4C8F5F0F6743D8F-2024-11-24-20-16-00","","null","","[]","null","",""
"","","","","","image-button-response","34","1776500","0.0-10.0-1.0-0.3","2228F0078FB0461FA4C8F5F0F6743D8F","2228F0078FB0461FA4C8F5F0F6743D8F","fd376ca3-f329-48d3-ae3c-455ec98c2565","a0a8f18c-a66e-4ba7-a170-23efbdc67501","{""participantId"":""2228F0078FB0461FA4C8F5F0F6743D8F"",""assignmentId"":""fd376ca3-f329-48d3-ae3c-455ec98c2565"",""projectId"":""a0a8f18c-a66e-4ba7-a170-23efbdc67501""}","https://test12345.live/?participantId=2228F0078FB0461FA4C8F5F0F6743D8F&assignmentId=fd376ca3-f329-48d3-ae3c-455ec98c2565&projectId=a0a8f18c-a66e-4ba7-a170-23efbdc67501","2228F0078FB0461FA4C8F5F0F6743D8F-2024-11-24-20-16-00","","null","","images/causal_sequence/museum_causal/museum_causal_4.png","null","",""
"","","","","","image-button-response","35","1778355","0.0-10.0-1.0-1.3","2228F0078FB0461FA4C8F5F0F6743D8F","2228F0078FB0461FA4C8F5F0F6743D8F","fd376ca3-f329-48d3-ae3c-455ec98c2565","a0a8f18c-a66e-4ba7-a170-23efbdc67501","{""participantId"":""2228F0078FB0461FA4C8F5F0F6743D8F"",""assignmentId"":""fd376ca3-f329-48d3-ae3c-455ec98c2565"",""projectId"":""a0a8f18c-a66e-4ba7-a170-23efbdc67501""}","https://test12345.live/?participantId=2228F0078FB0461FA4C8F5F0F6743D8F&assignmentId=fd376ca3-f329-48d3-ae3c-455ec98c2565&projectId=a0a8f18c-a66e-4ba7-a170-23efbdc67501","2228F0078FB0461FA4C8F5F0F6743D8F-2024-11-24-20-16-00","","1854","","images/causal_sequence/museum_causal/museum_causal_4.png","1","",""
"","","","","","image-button-response","36","1780169","0.0-10.0-1.0-2.3","2228F0078FB0461FA4C8F5F0F6743D8F","2228F0078FB0461FA4C8F5F0F6743D8F","fd376ca3-f329-48d3-ae3c-455ec98c2565","a0a8f18c-a66e-4ba7-a170-23efbdc67501","{""participantId"":""2228F0078FB0461FA4C8F5F0F6743D8F"",""assignmentId"":""fd376ca3-f329-48d3-ae3c-455ec98c2565"",""projectId"":""a0a8f18c-a66e-4ba7-a170-23efbdc67501""}","https://test12345.live/?participantId=2228F0078FB0461FA4C8F5F0F6743D8F&assignmentId=fd376ca3-f329-48d3-ae3c-455ec98c2565&projectId=a0a8f18c-a66e-4ba7-a170-23efbdc67501","2228F0078FB0461FA4C8F5F0F6743D8F-2024-11-24-20-16-00","","null","","[]","null","",""
"","","","","","image-button-response","37","1784691","0.0-10.0-1.0-0.4","2228F0078FB0461FA4C8F5F0F6743D8F","2228F0078FB0461FA4C8F5F0F6743D8F","fd376ca3-f329-48d3-ae3c-455ec98c2565","a0a8f18c-a66e-4ba7-a170-23efbdc67501","{""participantId"":""2228F0078FB0461FA4C8F5F0F6743D8F"",""assignmentId"":""fd376ca3-f329-48d3-ae3c-455ec98c2565"",""projectId"":""a0a8f18c-a66e-4ba7-a170-23efbdc67501""}","https://test12345.live/?participantId=2228F0078FB0461FA4C8F5F0F6743D8F&assignmentId=fd376ca3-f329-48d3-ae3c-455ec98c2565&projectId=a0a8f18c-a66e-4ba7-a170-23efbdc67501","2228F0078FB0461FA4C8F5F0F6743D8F-2024-11-24-20-16-00","","null","","images/causal_sequence/museum_causal/museum_causal_5.png","null","",""
"","","","","","image-button-response","38","1785744","0.0-10.0-1.0-1.4","2228F0078FB0461FA4C8F5F0F6743D8F","2228F0078FB0461FA4C8F5F0F6743D8F","fd376ca3-f329-48d3-ae3c-455ec98c2565","a0a8f18c-a66e-4ba7-a170-23efbdc67501","{""participantId"":""2228F0078FB0461FA4C8F5F0F6743D8F"",""assignmentId"":""fd376ca3-f329-48d3-ae3c-455ec98c2565"",""projectId"":""a0a8f18c-a66e-4ba7-a170-23efbdc67501""}","https://test12345.live/?participantId=2228F0078FB0461FA4C8F5F0F6743D8F&assignmentId=fd376ca3-f329-48d3-ae3c-455ec98c2565&projectId=a0a8f18c-a66e-4ba7-a170-23efbdc67501","2228F0078FB0461FA4C8F5F0F6743D8F-2024-11-24-20-16-00","","1050","","images/causal_sequence/museum_causal/museum_causal_5.png","0","",""
"","","","","","image-button-response","39","1787556","0.0-10.0-1.0-2.4","2228F0078FB0461FA4C8F5F0F6743D8F","2228F0078FB0461FA4C8F5F0F6743D8F","fd376ca3-f329-48d3-ae3c-455ec98c2565","a0a8f18c-a66e-4ba7-a170-23efbdc67501","{""participantId"":""2228F0078FB0461FA4C8F5F0F6743D8F"",""assignmentId"":""fd376ca3-f329-48d3-ae3c-455ec98c2565"",""projectId"":""a0a8f18c-a66e-4ba7-a170-23efbdc67501""}","https://test12345.live/?participantId=2228F0078FB0461FA4C8F5F0F6743D8F&assignmentId=fd376ca3-f329-48d3-ae3c-455ec98c2565&projectId=a0a8f18c-a66e-4ba7-a170-23efbdc67501","2228F0078FB0461FA4C8F5F0F6743D8F-2024-11-24-20-16-00","","null","","[]","null","",""
"","","","","","image-button-response","40","1792071","0.0-10.0-1.0-0.5","2228F0078FB0461FA4C8F5F0F6743D8F","2228F0078FB0461FA4C8F5F0F6743D8F","fd376ca3-f329-48d3-ae3c-455ec98c2565","a0a8f18c-a66e-4ba7-a170-23efbdc67501","{""participantId"":""2228F0078FB0461FA4C8F5F0F6743D8F"",""assignmentId"":""fd376ca3-f329-48d3-ae3c-455ec98c2565"",""projectId"":""a0a8f18c-a66e-4ba7-a170-23efbdc67501""}","https://test12345.live/?participantId=2228F0078FB0461FA4C8F5F0F6743D8F&assignmentId=fd376ca3-f329-48d3-ae3c-455ec98c2565&projectId=a0a8f18c-a66e-4ba7-a170-23efbdc67501","2228F0078FB0461FA4C8F5F0F6743D8F-2024-11-24-20-16-00","","null","","images/causal_sequence/museum_causal/museum_causal_6.png","null","",""
"","","","","","image-button-response","41","1793972","0.0-10.0-1.0-1.5","2228F0078FB0461FA4C8F5F0F6743D8F","2228F0078FB0461FA4C8F5F0F6743D8F","fd376ca3-f329-48d3-ae3c-455ec98c2565","a0a8f18c-a66e-4ba7-a170-23efbdc67501","{""participantId"":""2228F0078FB0461FA4C8F5F0F6743D8F"",""assignmentId"":""fd376ca3-f329-48d3-ae3c-455ec98c2565"",""projectId"":""a0a8f18c-a66e-4ba7-a170-23efbdc67501""}","https://test12345.live/?participantId=2228F0078FB0461FA4C8F5F0F6743D8F&assignmentId=fd376ca3-f329-48d3-ae3c-455ec98c2565&projectId=a0a8f18c-a66e-4ba7-a170-23efbdc67501","2228F0078FB0461FA4C8F5F0F6743D8F-2024-11-24-20-16-00","","1899","","images/causal_sequence/museum_causal/museum_causal_6.png","0","",""
"","","","","","image-button-response","42","1795783","0.0-10.0-1.0-2.5","2228F0078FB0461FA4C8F5F0F6743D8F","2228F0078FB0461FA4C8F5F0F6743D8F","fd376ca3-f329-48d3-ae3c-455ec98c2565","a0a8f18c-a66e-4ba7-a170-23efbdc67501","{""participantId"":""2228F0078FB0461FA4C8F5F0F6743D8F"",""assignmentId"":""fd376ca3-f329-48d3-ae3c-455ec98c2565"",""projectId"":""a0a8f18c-a66e-4ba7-a170-23efbdc67501""}","https://test12345.live/?participantId=2228F0078FB0461FA4C8F5F0F6743D8F&assignmentId=fd376ca3-f329-48d3-ae3c-455ec98c2565&projectId=a0a8f18c-a66e-4ba7-a170-23efbdc67501","2228F0078FB0461FA4C8F5F0F6743D8F-2024-11-24-20-16-00","","null","","[]","null","",""
"","","","","","image-button-response","43","1800295","0.0-10.0-1.0-0.6","2228F0078FB0461FA4C8F5F0F6743D8F","2228F0078FB0461FA4C8F5F0F6743D8F","fd376ca3-f329-48d3-ae3c-455ec98c2565","a0a8f18c-a66e-4ba7-a170-23efbdc67501","{""participantId"":""2228F0078FB0461FA4C8F5F0F6743D8F"",""assignmentId"":""fd376ca3-f329-48d3-ae3c-455ec98c2565"",""projectId"":""a0a8f18c-a66e-4ba7-a170-23efbdc67501""}","https://test12345.live/?participantId=2228F0078FB0461FA4C8F5F0F6743D8F&assignmentId=fd376ca3-f329-48d3-ae3c-455ec98c2565&projectId=a0a8f18c-a66e-4ba7-a170-23efbdc67501","2228F0078FB0461FA4C8F5F0F6743D8F-2024-11-24-20-16-00","","null","","images/causal_sequence/museum_causal/museum_causal_7.png","null","",""
"","","","","","image-button-response","44","1801283","0.0-10.0-1.0-1.6","2228F0078FB0461FA4C8F5F0F6743D8F","2228F0078FB0461FA4C8F5F0F6743D8F","fd376ca3-f329-48d3-ae3c-455ec98c2565","a0a8f18c-a66e-4ba7-a170-23efbdc67501","{""participantId"":""2228F0078FB0461FA4C8F5F0F6743D8F"",""assignmentId"":""fd376ca3-f329-48d3-ae3c-455ec98c2565"",""projectId"":""a0a8f18c-a66e-4ba7-a170-23efbdc67501""}","https://test12345.live/?participantId=2228F0078FB0461FA4C8F5F0F6743D8F&assignmentId=fd376ca3-f329-48d3-ae3c-455ec98c2565&projectId=a0a8f18c-a66e-4ba7-a170-23efbdc67501","2228F0078FB0461FA4C8F5F0F6743D8F-2024-11-24-20-16-00","","985","","images/causal_sequence/museum_causal/museum_causal_7.png","1","",""
"","","","","","image-button-response","45","1803093","0.0-10.0-1.0-2.6","2228F0078FB0461FA4C8F5F0F6743D8F","2228F0078FB0461FA4C8F5F0F6743D8F","fd376ca3-f329-48d3-ae3c-455ec98c2565","a0a8f18c-a66e-4ba7-a170-23efbdc67501","{""participantId"":""2228F0078FB0461FA4C8F5F0F6743D8F"",""assignmentId"":""fd376ca3-f329-48d3-ae3c-455ec98c2565"",""projectId"":""a0a8f18c-a66e-4ba7-a170-23efbdc67501""}","https://test12345.live/?participantId=2228F0078FB0461FA4C8F5F0F6743D8F&assignmentId=fd376ca3-f329-48d3-ae3c-455ec98c2565&projectId=a0a8f18c-a66e-4ba7-a170-23efbdc67501","2228F0078FB0461FA4C8F5F0F6743D8F-2024-11-24-20-16-00","","null","","[]","null","",""
"","","","","","image-button-response","46","1807607","0.0-10.0-1.0-0.7","2228F0078FB0461FA4C8F5F0F6743D8F","2228F0078FB0461FA4C8F5F0F6743D8F","fd376ca3-f329-48d3-ae3c-455ec98c2565","a0a8f18c-a66e-4ba7-a170-23efbdc67501","{""participantId"":""2228F0078FB0461FA4C8F5F0F6743D8F"",""assignmentId"":""fd376ca3-f329-48d3-ae3c-455ec98c2565"",""projectId"":""a0a8f18c-a66e-4ba7-a170-23efbdc67501""}","https://test12345.live/?participantId=2228F0078FB0461FA4C8F5F0F6743D8F&assignmentId=fd376ca3-f329-48d3-ae3c-455ec98c2565&projectId=a0a8f18c-a66e-4ba7-a170-23efbdc67501","2228F0078FB0461FA4C8F5F0F6743D8F-2024-11-24-20-16-00","","null","","images/causal_sequence/museum_causal/museum_causal_8.png","null","",""
"","","","","","image-button-response","47","1809588","0.0-10.0-1.0-1.7","2228F0078FB0461FA4C8F5F0F6743D8F","2228F0078FB0461FA4C8F5F0F6743D8F","fd376ca3-f329-48d3-ae3c-455ec98c2565","a0a8f18c-a66e-4ba7-a170-23efbdc67501","{""participantId"":""2228F0078FB0461FA4C8F5F0F6743D8F"",""assignmentId"":""fd376ca3-f329-48d3-ae3c-455ec98c2565"",""projectId"":""a0a8f18c-a66e-4ba7-a170-23efbdc67501""}","https://test12345.live/?participantId=2228F0078FB0461FA4C8F5F0F6743D8F&assignmentId=fd376ca3-f329-48d3-ae3c-455ec98c2565&projectId=a0a8f18c-a66e-4ba7-a170-23efbdc67501","2228F0078FB0461FA4C8F5F0F6743D8F-2024-11-24-20-16-00","","1977","","images/causal_sequence/museum_causal/museum_causal_8.png","0","",""
"","","","","","image-button-response","48","1811391","0.0-10.0-1.0-2.7","2228F0078FB0461FA4C8F5F0F6743D8F","2228F0078FB0461FA4C8F5F0F6743D8F","fd376ca3-f329-48d3-ae3c-455ec98c2565","a0a8f18c-a66e-4ba7-a170-23efbdc67501","{""participantId"":""2228F0078FB0461FA4C8F5F0F6743D8F"",""assignmentId"":""fd376ca3-f329-48d3-ae3c-455ec98c2565"",""projectId"":""a0a8f18c-a66e-4ba7-a170-23efbdc67501""}","https://test12345.live/?participantId=2228F0078FB0461FA4C8F5F0F6743D8F&assignmentId=fd376ca3-f329-48d3-ae3c-455ec98c2565&projectId=a0a8f18c-a66e-4ba7-a170-23efbdc67501","2228F0078FB0461FA4C8F5F0F6743D8F-2024-11-24-20-16-00","","null","","[]","null","",""
"","","","","","image-button-response","49","1815903","0.0-10.0-1.0-0.8","2228F0078FB0461FA4C8F5F0F6743D8F","2228F0078FB0461FA4C8F5F0F6743D8F","fd376ca3-f329-48d3-ae3c-455ec98c2565","a0a8f18c-a66e-4ba7-a170-23efbdc67501","{""participantId"":""2228F0078FB0461FA4C8F5F0F6743D8F"",""assignmentId"":""fd376ca3-f329-48d3-ae3c-455ec98c2565"",""projectId"":""a0a8f18c-a66e-4ba7-a170-23efbdc67501""}","https://test12345.live/?participantId=2228F0078FB0461FA4C8F5F0F6743D8F&assignmentId=fd376ca3-f329-48d3-ae3c-455ec98c2565&projectId=a0a8f18c-a66e-4ba7-a170-23efbdc67501","2228F0078FB0461FA4C8F5F0F6743D8F-2024-11-24-20-16-00","","null","","images/causal_sequence/museum_causal/museum_causal_9.png","null","",""
"","","","","","image-button-response","50","1818582","0.0-10.0-1.0-1.8","2228F0078FB0461FA4C8F5F0F6743D8F","2228F0078FB0461FA4C8F5F0F6743D8F","fd376ca3-f329-48d3-ae3c-455ec98c2565","a0a8f18c-a66e-4ba7-a170-23efbdc67501","{""participantId"":""2228F0078FB0461FA4C8F5F0F6743D8F"",""assignmentId"":""fd376ca3-f329-48d3-ae3c-455ec98c2565"",""projectId"":""a0a8f18c-a66e-4ba7-a170-23efbdc67501""}","https://test12345.live/?participantId=2228F0078FB0461FA4C8F5F0F6743D8F&assignmentId=fd376ca3-f329-48d3-ae3c-455ec98c2565&projectId=a0a8f18c-a66e-4ba7-a170-23efbdc67501","2228F0078FB0461FA4C8F5F0F6743D8F-2024-11-24-20-16-00","","2676","","images/causal_sequence/museum_causal/museum_causal_9.png","1","",""
"","","","","","image-button-response","51","1820386","0.0-10.0-1.0-2.8","2228F0078FB0461FA4C8F5F0F6743D8F","2228F0078FB0461FA4C8F5F0F6743D8F","fd376ca3-f329-48d3-ae3c-455ec98c2565","a0a8f18c-a66e-4ba7-a170-23efbdc67501","{""participantId"":""2228F0078FB0461FA4C8F5F0F6743D8F"",""assignmentId"":""fd376ca3-f329-48d3-ae3c-455ec98c2565"",""projectId"":""a0a8f18c-a66e-4ba7-a170-23efbdc67501""}","https://test12345.live/?participantId=2228F0078FB0461FA4C8F5F0F6743D8F&assignmentId=fd376ca3-f329-48d3-ae3c-455ec98c2565&projectId=a0a8f18c-a66e-4ba7-a170-23efbdc67501","2228F0078FB0461FA4C8F5F0F6743D8F-2024-11-24-20-16-00","","null","","[]","null","",""
"","","","","","image-button-response","52","1824907","0.0-10.0-1.0-0.9","2228F0078FB0461FA4C8F5F0F6743D8F","2228F0078FB0461FA4C8F5F0F6743D8F","fd376ca3-f329-48d3-ae3c-455ec98c2565","a0a8f18c-a66e-4ba7-a170-23efbdc67501","{""participantId"":""2228F0078FB0461FA4C8F5F0F6743D8F"",""assignmentId"":""fd376ca3-f329-48d3-ae3c-455ec98c2565"",""projectId"":""a0a8f18c-a66e-4ba7-a170-23efbdc67501""}","https://test12345.live/?participantId=2228F0078FB0461FA4C8F5F0F6743D8F&assignmentId=fd376ca3-f329-48d3-ae3c-455ec98c2565&projectId=a0a8f18c-a66e-4ba7-a170-23efbdc67501","2228F0078FB0461FA4C8F5F0F6743D8F-2024-11-24-20-16-00","","null","","images/causal_sequence/museum_causal/museum_causal_ten.png","null","",""
"","","","","","image-button-response","53","1826482","0.0-10.0-1.0-1.9","2228F0078FB0461FA4C8F5F0F6743D8F","2228F0078FB0461FA4C8F5F0F6743D8F","fd376ca3-f329-48d3-ae3c-455ec98c2565","a0a8f18c-a66e-4ba7-a170-23efbdc67501","{""participantId"":""2228F0078FB0461FA4C8F5F0F6743D8F"",""assignmentId"":""fd376ca3-f329-48d3-ae3c-455ec98c2565"",""projectId"":""a0a8f18c-a66e-4ba7-a170-23efbdc67501""}","https://test12345.live/?participantId=2228F0078FB0461FA4C8F5F0F6743D8F&assignmentId=fd376ca3-f329-48d3-ae3c-455ec98c2565&projectId=a0a8f18c-a66e-4ba7-a170-23efbdc67501","2228F0078FB0461FA4C8F5F0F6743D8F-2024-11-24-20-16-00","","1571","","images/causal_sequence/museum_causal/museum_causal_ten.png","0","",""
"","","","","","image-button-response","54","1828310","0.0-10.0-1.0-2.9","2228F0078FB0461FA4C8F5F0F6743D8F","2228F0078FB0461FA4C8F5F0F6743D8F","fd376ca3-f329-48d3-ae3c-455ec98c2565","a0a8f18c-a66e-4ba7-a170-23efbdc67501","{""participantId"":""2228F0078FB0461FA4C8F5F0F6743D8F"",""assignmentId"":""fd376ca3-f329-48d3-ae3c-455ec98c2565"",""projectId"":""a0a8f18c-a66e-4ba7-a170-23efbdc67501""}","https://test12345.live/?participantId=2228F0078FB0461FA4C8F5F0F6743D8F&assignmentId=fd376ca3-f329-48d3-ae3c-455ec98c2565&projectId=a0a8f18c-a66e-4ba7-a170-23efbdc67501","2228F0078FB0461FA4C8F5F0F6743D8F-2024-11-24-20-16-00","","null","","[]","null","",""
"","","","","","html-audio-response","55","1860014","0.0-11.0","2228F0078FB0461FA4C8F5F0F6743D8F","2228F0078FB0461FA4C8F5F0F6743D8F","fd376ca3-f329-48d3-ae3c-455ec98c2565","a0a8f18c-a66e-4ba7-a170-23efbdc67501","{""participantId"":""2228F0078FB0461FA4C8F5F0F6743D8F"",""assignmentId"":""fd376ca3-f329-48d3-ae3c-455ec98c2565"",""projectId"":""a0a8f18c-a66e-4ba7-a170-23efbdc67501""}","https://test12345.live/?participantId=2228F0078FB0461FA4C8F5F0F6743D8F&assignmentId=fd376ca3-f329-48d3-ae3c-455ec98c2565&projectId=a0a8f18c-a66e-4ba7-a170-23efbdc67501","2228F0078FB0461FA4C8F5F0F6743D8F-2024-11-24-20-16-00","","16774","","[""<span style=\""color: red; font-size: 24px\""> NOW RECORDING</span><p>Please say out loud all the images you saw, as many as you can remember. The images can be said in any order.</p>""]","","3","museum_causal"
"","","","","","image-button-response","56","1866044","0.0-12.0-0.0","2228F0078FB0461FA4C8F5F0F6743D8F","2228F0078FB0461FA4C8F5F0F6743D8F","fd376ca3-f329-48d3-ae3c-455ec98c2565","a0a8f18c-a66e-4ba7-a170-23efbdc67501","{""participantId"":""2228F0078FB0461FA4C8F5F0F6743D8F"",""assignmentId"":""fd376ca3-f329-48d3-ae3c-455ec98c2565"",""projectId"":""a0a8f18c-a66e-4ba7-a170-23efbdc67501""}","https://test12345.live/?participantId=2228F0078FB0461FA4C8F5F0F6743D8F&assignmentId=fd376ca3-f329-48d3-ae3c-455ec98c2565&projectId=a0a8f18c-a66e-4ba7-a170-23efbdc67501","2228F0078FB0461FA4C8F5F0F6743D8F-2024-11-24-20-16-00","","null","","images/causal_sequence/dog_causal/dog_causal_0.png","null","",""
"","","","","","image-button-response","57","1870553","0.0-12.0-1.0-0.0","2228F0078FB0461FA4C8F5F0F6743D8F","2228F0078FB0461FA4C8F5F0F6743D8F","fd376ca3-f329-48d3-ae3c-455ec98c2565","a0a8f18c-a66e-4ba7-a170-23efbdc67501","{""participantId"":""2228F0078FB0461FA4C8F5F0F6743D8F"",""assignmentId"":""fd376ca3-f329-48d3-ae3c-455ec98c2565"",""projectId"":""a0a8f18c-a66e-4ba7-a170-23efbdc67501""}","https://test12345.live/?participantId=2228F0078FB0461FA4C8F5F0F6743D8F&assignmentId=fd376ca3-f329-48d3-ae3c-455ec98c2565&projectId=a0a8f18c-a66e-4ba7-a170-23efbdc67501","2228F0078FB0461FA4C8F5F0F6743D8F-2024-11-24-20-16-00","","null","","images/causal_sequence/dog_causal/dog_causal_2.png","null","",""
"","","","","","image-button-response","58","1873961","0.0-12.0-1.0-1.0","2228F0078FB0461FA4C8F5F0F6743D8F","2228F0078FB0461FA4C8F5F0F6743D8F","fd376ca3-f329-48d3-ae3c-455ec98c2565","a0a8f18c-a66e-4ba7-a170-23efbdc67501","{""participantId"":""2228F0078FB0461FA4C8F5F0F6743D8F"",""assignmentId"":""fd376ca3-f329-48d3-ae3c-455ec98c2565"",""projectId"":""a0a8f18c-a66e-4ba7-a170-23efbdc67501""}","https://test12345.live/?participantId=2228F0078FB0461FA4C8F5F0F6743D8F&assignmentId=fd376ca3-f329-48d3-ae3c-455ec98c2565&projectId=a0a8f18c-a66e-4ba7-a170-23efbdc67501","2228F0078FB0461FA4C8F5F0F6743D8F-2024-11-24-20-16-00","","3407","","images/causal_sequence/dog_causal/dog_causal_2.png","0","",""
"","","","","","image-button-response","59","1875776","0.0-12.0-1.0-2.0","2228F0078FB0461FA4C8F5F0F6743D8F","2228F0078FB0461FA4C8F5F0F6743D8F","fd376ca3-f329-48d3-ae3c-455ec98c2565","a0a8f18c-a66e-4ba7-a170-23efbdc67501","{""participantId"":""2228F0078FB0461FA4C8F5F0F6743D8F"",""assignmentId"":""fd376ca3-f329-48d3-ae3c-455ec98c2565"",""projectId"":""a0a8f18c-a66e-4ba7-a170-23efbdc67501""}","https://test12345.live/?participantId=2228F0078FB0461FA4C8F5F0F6743D8F&assignmentId=fd376ca3-f329-48d3-ae3c-455ec98c2565&projectId=a0a8f18c-a66e-4ba7-a170-23efbdc67501","2228F0078FB0461FA4C8F5F0F6743D8F-2024-11-24-20-16-00","","null","","[]","null","",""
"","","","","","image-button-response","60","1880295","0.0-12.0-1.0-0.1","2228F0078FB0461FA4C8F5F0F6743D8F","2228F0078FB0461FA4C8F5F0F6743D8F","fd376ca3-f329-48d3-ae3c-455ec98c2565","a0a8f18c-a66e-4ba7-a170-23efbdc67501","{""participantId"":""2228F0078FB0461FA4C8F5F0F6743D8F"",""assignmentId"":""fd376ca3-f329-48d3-ae3c-455ec98c2565"",""projectId"":""a0a8f18c-a66e-4ba7-a170-23efbdc67501""}","https://test12345.live/?participantId=2228F0078FB0461FA4C8F5F0F6743D8F&assignmentId=fd376ca3-f329-48d3-ae3c-455ec98c2565&projectId=a0a8f18c-a66e-4ba7-a170-23efbdc67501","2228F0078FB0461FA4C8F5F0F6743D8F-2024-11-24-20-16-00","","null","","images/causal_sequence/dog_causal/dog_causal_7.png","null","",""
"","","","","","image-button-response","61","1881359","0.0-12.0-1.0-1.1","2228F0078FB0461FA4C8F5F0F6743D8F","2228F0078FB0461FA4C8F5F0F6743D8F","fd376ca3-f329-48d3-ae3c-455ec98c2565","a0a8f18c-a66e-4ba7-a170-23efbdc67501","{""participantId"":""2228F0078FB0461FA4C8F5F0F6743D8F"",""assignmentId"":""fd376ca3-f329-48d3-ae3c-455ec98c2565"",""projectId"":""a0a8f18c-a66e-4ba7-a170-23efbdc67501""}","https://test12345.live/?participantId=2228F0078FB0461FA4C8F5F0F6743D8F&assignmentId=fd376ca3-f329-48d3-ae3c-455ec98c2565&projectId=a0a8f18c-a66e-4ba7-a170-23efbdc67501","2228F0078FB0461FA4C8F5F0F6743D8F-2024-11-24-20-16-00","","1062","","images/causal_sequence/dog_causal/dog_causal_7.png","0","",""
"","","","","","image-button-response","62","1883167","0.0-12.0-1.0-2.1","2228F0078FB0461FA4C8F5F0F6743D8F","2228F0078FB0461FA4C8F5F0F6743D8F","fd376ca3-f329-48d3-ae3c-455ec98c2565","a0a8f18c-a66e-4ba7-a170-23efbdc67501","{""participantId"":""2228F0078FB0461FA4C8F5F0F6743D8F"",""assignmentId"":""fd376ca3-f329-48d3-ae3c-455ec98c2565"",""projectId"":""a0a8f18c-a66e-4ba7-a170-23efbdc67501""}","https://test12345.live/?participantId=2228F0078FB0461FA4C8F5F0F6743D8F&assignmentId=fd376ca3-f329-48d3-ae3c-455ec98c2565&projectId=a0a8f18c-a66e-4ba7-a170-23efbdc67501","2228F0078FB0461FA4C8F5F0F6743D8F-2024-11-24-20-16-00","","null","","[]","null","",""
"","","","","","image-button-response","63","1887676","0.0-12.0-1.0-0.2","2228F0078FB0461FA4C8F5F0F6743D8F","2228F0078FB0461FA4C8F5F0F6743D8F","fd376ca3-f329-48d3-ae3c-455ec98c2565","a0a8f18c-a66e-4ba7-a170-23efbdc67501","{""participantId"":""2228F0078FB0461FA4C8F5F0F6743D8F"",""assignmentId"":""fd376ca3-f329-48d3-ae3c-455ec98c2565"",""projectId"":""a0a8f18c-a66e-4ba7-a170-23efbdc67501""}","https://test12345.live/?participantId=2228F0078FB0461FA4C8F5F0F6743D8F&assignmentId=fd376ca3-f329-48d3-ae3c-455ec98c2565&projectId=a0a8f18c-a66e-4ba7-a170-23efbdc67501","2228F0078FB0461FA4C8F5F0F6743D8F-2024-11-24-20-16-00","","null","","images/causal_sequence/dog_causal/dog_causal_ten.png","null","",""
"","","","","","image-button-response","64","1888520","0.0-12.0-1.0-1.2","2228F0078FB0461FA4C8F5F0F6743D8F","2228F0078FB0461FA4C8F5F0F6743D8F","fd376ca3-f329-48d3-ae3c-455ec98c2565","a0a8f18c-a66e-4ba7-a170-23efbdc67501","{""participantId"":""2228F0078FB0461FA4C8F5F0F6743D8F"",""assignmentId"":""fd376ca3-f329-48d3-ae3c-455ec98c2565"",""projectId"":""a0a8f18c-a66e-4ba7-a170-23efbdc67501""}","https://test12345.live/?participantId=2228F0078FB0461FA4C8F5F0F6743D8F&assignmentId=fd376ca3-f329-48d3-ae3c-455ec98c2565&projectId=a0a8f18c-a66e-4ba7-a170-23efbdc67501","2228F0078FB0461FA4C8F5F0F6743D8F-2024-11-24-20-16-00","","843","","images/causal_sequence/dog_causal/dog_causal_ten.png","0","",""
"","","","","","image-button-response","65","1890324","0.0-12.0-1.0-2.2","2228F0078FB0461FA4C8F5F0F6743D8F","2228F0078FB0461FA4C8F5F0F6743D8F","fd376ca3-f329-48d3-ae3c-455ec98c2565","a0a8f18c-a66e-4ba7-a170-23efbdc67501","{""participantId"":""2228F0078FB0461FA4C8F5F0F6743D8F"",""assignmentId"":""fd376ca3-f329-48d3-ae3c-455ec98c2565"",""projectId"":""a0a8f18c-a66e-4ba7-a170-23efbdc67501""}","https://test12345.live/?participantId=2228F0078FB0461FA4C8F5F0F6743D8F&assignmentId=fd376ca3-f329-48d3-ae3c-455ec98c2565&projectId=a0a8f18c-a66e-4ba7-a170-23efbdc67501","2228F0078FB0461FA4C8F5F0F6743D8F-2024-11-24-20-16-00","","null","","[]","null","",""
"","","","","","image-button-response","66","1894827","0.0-12.0-1.0-0.3","2228F0078FB0461FA4C8F5F0F6743D8F","2228F0078FB0461FA4C8F5F0F6743D8F","fd376ca3-f329-48d3-ae3c-455ec98c2565","a0a8f18c-a66e-4ba7-a170-23efbdc67501","{""participantId"":""2228F0078FB0461FA4C8F5F0F6743D8F"",""assignmentId"":""fd376ca3-f329-48d3-ae3c-455ec98c2565"",""projectId"":""a0a8f18c-a66e-4ba7-a170-23efbdc67501""}","https://test12345.live/?participantId=2228F0078FB0461FA4C8F5F0F6743D8F&assignmentId=fd376ca3-f329-48d3-ae3c-455ec98c2565&projectId=a0a8f18c-a66e-4ba7-a170-23efbdc67501","2228F0078FB0461FA4C8F5F0F6743D8F-2024-11-24-20-16-00","","null","","images/causal_sequence/dog_causal/dog_causal_4.png","null","",""
"","","","","","image-button-response","67","1895923","0.0-12.0-1.0-1.3","2228F0078FB0461FA4C8F5F0F6743D8F","2228F0078FB0461FA4C8F5F0F6743D8F","fd376ca3-f329-48d3-ae3c-455ec98c2565","a0a8f18c-a66e-4ba7-a170-23efbdc67501","{""participantId"":""2228F0078FB0461FA4C8F5F0F6743D8F"",""assignmentId"":""fd376ca3-f329-48d3-ae3c-455ec98c2565"",""projectId"":""a0a8f18c-a66e-4ba7-a170-23efbdc67501""}","https://test12345.live/?participantId=2228F0078FB0461FA4C8F5F0F6743D8F&assignmentId=fd376ca3-f329-48d3-ae3c-455ec98c2565&projectId=a0a8f18c-a66e-4ba7-a170-23efbdc67501","2228F0078FB0461FA4C8F5F0F6743D8F-2024-11-24-20-16-00","","1086","","images/causal_sequence/dog_causal/dog_causal_4.png","0","",""
"","","","","","image-button-response","68","1897732","0.0-12.0-1.0-2.3","2228F0078FB0461FA4C8F5F0F6743D8F","2228F0078FB0461FA4C8F5F0F6743D8F","fd376ca3-f329-48d3-ae3c-455ec98c2565","a0a8f18c-a66e-4ba7-a170-23efbdc67501","{""participantId"":""2228F0078FB0461FA4C8F5F0F6743D8F"",""assignmentId"":""fd376ca3-f329-48d3-ae3c-455ec98c2565"",""projectId"":""a0a8f18c-a66e-4ba7-a170-23efbdc67501""}","https://test12345.live/?participantId=2228F0078FB0461FA4C8F5F0F6743D8F&assignmentId=fd376ca3-f329-48d3-ae3c-455ec98c2565&projectId=a0a8f18c-a66e-4ba7-a170-23efbdc67501","2228F0078FB0461FA4C8F5F0F6743D8F-2024-11-24-20-16-00","","null","","[]","null","",""
"","","","","","image-button-response","69","1902244","0.0-12.0-1.0-0.4","2228F0078FB0461FA4C8F5F0F6743D8F","2228F0078FB0461FA4C8F5F0F6743D8F","fd376ca3-f329-48d3-ae3c-455ec98c2565","a0a8f18c-a66e-4ba7-a170-23efbdc67501","{""participantId"":""2228F0078FB0461FA4C8F5F0F6743D8F"",""assignmentId"":""fd376ca3-f329-48d3-ae3c-455ec98c2565"",""projectId"":""a0a8f18c-a66e-4ba7-a170-23efbdc67501""}","https://test12345.live/?participantId=2228F0078FB0461FA4C8F5F0F6743D8F&assignmentId=fd376ca3-f329-48d3-ae3c-455ec98c2565&projectId=a0a8f18c-a66e-4ba7-a170-23efbdc67501","2228F0078FB0461FA4C8F5F0F6743D8F-2024-11-24-20-16-00","","null","","images/causal_sequence/dog_causal/dog_causal_8.png","null","",""
"","","","","","image-button-response","70","1903541","0.0-12.0-1.0-1.4","2228F0078FB0461FA4C8F5F0F6743D8F","2228F0078FB0461FA4C8F5F0F6743D8F","fd376ca3-f329-48d3-ae3c-455ec98c2565","a0a8f18c-a66e-4ba7-a170-23efbdc67501","{""participantId"":""2228F0078FB0461FA4C8F5F0F6743D8F"",""assignmentId"":""fd376ca3-f329-48d3-ae3c-455ec98c2565"",""projectId"":""a0a8f18c-a66e-4ba7-a170-23efbdc67501""}","https://test12345.live/?participantId=2228F0078FB0461FA4C8F5F0F6743D8F&assignmentId=fd376ca3-f329-48d3-ae3c-455ec98c2565&projectId=a0a8f18c-a66e-4ba7-a170-23efbdc67501","2228F0078FB0461FA4C8F5F0F6743D8F-2024-11-24-20-16-00","","1294","","images/causal_sequence/dog_causal/dog_causal_8.png","0","",""
"","","","","","image-button-response","71","1905345","0.0-12.0-1.0-2.4","2228F0078FB0461FA4C8F5F0F6743D8F","2228F0078FB0461FA4C8F5F0F6743D8F","fd376ca3-f329-48d3-ae3c-455ec98c2565","a0a8f18c-a66e-4ba7-a170-23efbdc67501","{""participantId"":""2228F0078FB0461FA4C8F5F0F6743D8F"",""assignmentId"":""fd376ca3-f329-48d3-ae3c-455ec98c2565"",""projectId"":""a0a8f18c-a66e-4ba7-a170-23efbdc67501""}","https://test12345.live/?participantId=2228F0078FB0461FA4C8F5F0F6743D8F&assignmentId=fd376ca3-f329-48d3-ae3c-455ec98c2565&projectId=a0a8f18c-a66e-4ba7-a170-23efbdc67501","2228F0078FB0461FA4C8F5F0F6743D8F-2024-11-24-20-16-00","","null","","[]","null","",""
"","","","","","image-button-response","72","1909859","0.0-12.0-1.0-0.5","2228F0078FB0461FA4C8F5F0F6743D8F","2228F0078FB0461FA4C8F5F0F6743D8F","fd376ca3-f329-48d3-ae3c-455ec98c2565","a0a8f18c-a66e-4ba7-a170-23efbdc67501","{""participantId"":""2228F0078FB0461FA4C8F5F0F6743D8F"",""assignmentId"":""fd376ca3-f329-48d3-ae3c-455ec98c2565"",""projectId"":""a0a8f18c-a66e-4ba7-a170-23efbdc67501""}","https://test12345.live/?participantId=2228F0078FB0461FA4C8F5F0F6743D8F&assignmentId=fd376ca3-f329-48d3-ae3c-455ec98c2565&projectId=a0a8f18c-a66e-4ba7-a170-23efbdc67501","2228F0078FB0461FA4C8F5F0F6743D8F-2024-11-24-20-16-00","","null","","images/causal_sequence/dog_causal/dog_causal_9.png","null","",""
"","","","","","image-button-response","73","1910863","0.0-12.0-1.0-1.5","2228F0078FB0461FA4C8F5F0F6743D8F","2228F0078FB0461FA4C8F5F0F6743D8F","fd376ca3-f329-48d3-ae3c-455ec98c2565","a0a8f18c-a66e-4ba7-a170-23efbdc67501","{""participantId"":""2228F0078FB0461FA4C8F5F0F6743D8F"",""assignmentId"":""fd376ca3-f329-48d3-ae3c-455ec98c2565"",""projectId"":""a0a8f18c-a66e-4ba7-a170-23efbdc67501""}","https://test12345.live/?participantId=2228F0078FB0461FA4C8F5F0F6743D8F&assignmentId=fd376ca3-f329-48d3-ae3c-455ec98c2565&projectId=a0a8f18c-a66e-4ba7-a170-23efbdc67501","2228F0078FB0461FA4C8F5F0F6743D8F-2024-11-24-20-16-00","","1003","","images/causal_sequence/dog_causal/dog_causal_9.png","0","",""
"","","","","","image-button-response","74","1912677","0.0-12.0-1.0-2.5","2228F0078FB0461FA4C8F5F0F6743D8F","2228F0078FB0461FA4C8F5F0F6743D8F","fd376ca3-f329-48d3-ae3c-455ec98c2565","a0a8f18c-a66e-4ba7-a170-23efbdc67501","{""participantId"":""2228F0078FB0461FA4C8F5F0F6743D8F"",""assignmentId"":""fd376ca3-f329-48d3-ae3c-455ec98c2565"",""projectId"":""a0a8f18c-a66e-4ba7-a170-23efbdc67501""}","https://test12345.live/?participantId=2228F0078FB0461FA4C8F5F0F6743D8F&assignmentId=fd376ca3-f329-48d3-ae3c-455ec98c2565&projectId=a0a8f18c-a66e-4ba7-a170-23efbdc67501","2228F0078FB0461FA4C8F5F0F6743D8F-2024-11-24-20-16-00","","null","","[]","null","",""
"","","","","","image-button-response","75","1917187","0.0-12.0-1.0-0.6","2228F0078FB0461FA4C8F5F0F6743D8F","2228F0078FB0461FA4C8F5F0F6743D8F","fd376ca3-f329-48d3-ae3c-455ec98c2565","a0a8f18c-a66e-4ba7-a170-23efbdc67501","{""participantId"":""2228F0078FB0461FA4C8F5F0F6743D8F"",""assignmentId"":""fd376ca3-f329-48d3-ae3c-455ec98c2565"",""projectId"":""a0a8f18c-a66e-4ba7-a170-23efbdc67501""}","https://test12345.live/?participantId=2228F0078FB0461FA4C8F5F0F6743D8F&assignmentId=fd376ca3-f329-48d3-ae3c-455ec98c2565&projectId=a0a8f18c-a66e-4ba7-a170-23efbdc67501","2228F0078FB0461FA4C8F5F0F6743D8F-2024-11-24-20-16-00","","null","","images/causal_sequence/dog_causal/dog_causal_1.png","null","",""
"","","","","","image-button-response","76","1917940","0.0-12.0-1.0-1.6","2228F0078FB0461FA4C8F5F0F6743D8F","2228F0078FB0461FA4C8F5F0F6743D8F","fd376ca3-f329-48d3-ae3c-455ec98c2565","a0a8f18c-a66e-4ba7-a170-23efbdc67501","{""participantId"":""2228F0078FB0461FA4C8F5F0F6743D8F"",""assignmentId"":""fd376ca3-f329-48d3-ae3c-455ec98c2565"",""projectId"":""a0a8f18c-a66e-4ba7-a170-23efbdc67501""}","https://test12345.live/?participantId=2228F0078FB0461FA4C8F5F0F6743D8F&assignmentId=fd376ca3-f329-48d3-ae3c-455ec98c2565&projectId=a0a8f18c-a66e-4ba7-a170-23efbdc67501","2228F0078FB0461FA4C8F5F0F6743D8F-2024-11-24-20-16-00","","750","","images/causal_sequence/dog_causal/dog_causal_1.png","0","",""
"","","","","","image-button-response","77","1919764","0.0-12.0-1.0-2.6","2228F0078FB0461FA4C8F5F0F6743D8F","2228F0078FB0461FA4C8F5F0F6743D8F","fd376ca3-f329-48d3-ae3c-455ec98c2565","a0a8f18c-a66e-4ba7-a170-23efbdc67501","{""participantId"":""2228F0078FB0461FA4C8F5F0F6743D8F"",""assignmentId"":""fd376ca3-f329-48d3-ae3c-455ec98c2565"",""projectId"":""a0a8f18c-a66e-4ba7-a170-23efbdc67501""}","https://test12345.live/?participantId=2228F0078FB0461FA4C8F5F0F6743D8F&assignmentId=fd376ca3-f329-48d3-ae3c-455ec98c2565&projectId=a0a8f18c-a66e-4ba7-a170-23efbdc67501","2228F0078FB0461FA4C8F5F0F6743D8F-2024-11-24-20-16-00","","null","","[]","null","",""
"","","","","","image-button-response","78","1924270","0.0-12.0-1.0-0.7","2228F0078FB0461FA4C8F5F0F6743D8F","2228F0078FB0461FA4C8F5F0F6743D8F","fd376ca3-f329-48d3-ae3c-455ec98c2565","a0a8f18c-a66e-4ba7-a170-23efbdc67501","{""participantId"":""2228F0078FB0461FA4C8F5F0F6743D8F"",""assignmentId"":""fd376ca3-f329-48d3-ae3c-455ec98c2565"",""projectId"":""a0a8f18c-a66e-4ba7-a170-23efbdc67501""}","https://test12345.live/?participantId=2228F0078FB0461FA4C8F5F0F6743D8F&assignmentId=fd376ca3-f329-48d3-ae3c-455ec98c2565&projectId=a0a8f18c-a66e-4ba7-a170-23efbdc67501","2228F0078FB0461FA4C8F5F0F6743D8F-2024-11-24-20-16-00","","null","","images/causal_sequence/dog_causal/dog_causal_6.png","null","",""
"","","","","","image-button-response","79","1925183","0.0-12.0-1.0-1.7","2228F0078FB0461FA4C8F5F0F6743D8F","2228F0078FB0461FA4C8F5F0F6743D8F","fd376ca3-f329-48d3-ae3c-455ec98c2565","a0a8f18c-a66e-4ba7-a170-23efbdc67501","{""participantId"":""2228F0078FB0461FA4C8F5F0F6743D8F"",""assignmentId"":""fd376ca3-f329-48d3-ae3c-455ec98c2565"",""projectId"":""a0a8f18c-a66e-4ba7-a170-23efbdc67501""}","https://test12345.live/?participantId=2228F0078FB0461FA4C8F5F0F6743D8F&assignmentId=fd376ca3-f329-48d3-ae3c-455ec98c2565&projectId=a0a8f18c-a66e-4ba7-a170-23efbdc67501","2228F0078FB0461FA4C8F5F0F6743D8F-2024-11-24-20-16-00","","906","","images/causal_sequence/dog_causal/dog_causal_6.png","0","",""
"","","","","","image-button-response","80","1926992","0.0-12.0-1.0-2.7","2228F0078FB0461FA4C8F5F0F6743D8F","2228F0078FB0461FA4C8F5F0F6743D8F","fd376ca3-f329-48d3-ae3c-455ec98c2565","a0a8f18c-a66e-4ba7-a170-23efbdc67501","{""participantId"":""2228F0078FB0461FA4C8F5F0F6743D8F"",""assignmentId"":""fd376ca3-f329-48d3-ae3c-455ec98c2565"",""projectId"":""a0a8f18c-a66e-4ba7-a170-23efbdc67501""}","https://test12345.live/?participantId=2228F0078FB0461FA4C8F5F0F6743D8F&assignmentId=fd376ca3-f329-48d3-ae3c-455ec98c2565&projectId=a0a8f18c-a66e-4ba7-a170-23efbdc67501","2228F0078FB0461FA4C8F5F0F6743D8F-2024-11-24-20-16-00","","null","","[]","null","",""
"","","","","","image-button-response","81","1931497","0.0-12.0-1.0-0.8","2228F0078FB0461FA4C8F5F0F6743D8F","2228F0078FB0461FA4C8F5F0F6743D8F","fd376ca3-f329-48d3-ae3c-455ec98c2565","a0a8f18c-a66e-4ba7-a170-23efbdc67501","{""participantId"":""2228F0078FB0461FA4C8F5F0F6743D8F"",""assignmentId"":""fd376ca3-f329-48d3-ae3c-455ec98c2565"",""projectId"":""a0a8f18c-a66e-4ba7-a170-23efbdc67501""}","https://test12345.live/?participantId=2228F0078FB0461FA4C8F5F0F6743D8F&assignmentId=fd376ca3-f329-48d3-ae3c-455ec98c2565&projectId=a0a8f18c-a66e-4ba7-a170-23efbdc67501","2228F0078FB0461FA4C8F5F0F6743D8F-2024-11-24-20-16-00","","null","","images/causal_sequence/dog_causal/dog_causal_5.png","null","",""
"","","","","","image-button-response","82","1932771","0.0-12.0-1.0-1.8","2228F0078FB0461FA4C8F5F0F6743D8F","2228F0078FB0461FA4C8F5F0F6743D8F","fd376ca3-f329-48d3-ae3c-455ec98c2565","a0a8f18c-a66e-4ba7-a170-23efbdc67501","{""participantId"":""2228F0078FB0461FA4C8F5F0F6743D8F"",""assignmentId"":""fd376ca3-f329-48d3-ae3c-455ec98c2565"",""projectId"":""a0a8f18c-a66e-4ba7-a170-23efbdc67501""}","https://test12345.live/?participantId=2228F0078FB0461FA4C8F5F0F6743D8F&assignmentId=fd376ca3-f329-48d3-ae3c-455ec98c2565&projectId=a0a8f18c-a66e-4ba7-a170-23efbdc67501","2228F0078FB0461FA4C8F5F0F6743D8F-2024-11-24-20-16-00","","1266","","images/causal_sequence/dog_causal/dog_causal_5.png","0","",""
"","","","","","image-button-response","83","1934585","0.0-12.0-1.0-2.8","2228F0078FB0461FA4C8F5F0F6743D8F","2228F0078FB0461FA4C8F5F0F6743D8F","fd376ca3-f329-48d3-ae3c-455ec98c2565","a0a8f18c-a66e-4ba7-a170-23efbdc67501","{""participantId"":""2228F0078FB0461FA4C8F5F0F6743D8F"",""assignmentId"":""fd376ca3-f329-48d3-ae3c-455ec98c2565"",""projectId"":""a0a8f18c-a66e-4ba7-a170-23efbdc67501""}","https://test12345.live/?participantId=2228F0078FB0461FA4C8F5F0F6743D8F&assignmentId=fd376ca3-f329-48d3-ae3c-455ec98c2565&projectId=a0a8f18c-a66e-4ba7-a170-23efbdc67501","2228F0078FB0461FA4C8F5F0F6743D8F-2024-11-24-20-16-00","","null","","[]","null","",""
"","","","","","image-button-response","84","1939097","0.0-12.0-1.0-0.9","2228F0078FB0461FA4C8F5F0F6743D8F","2228F0078FB0461FA4C8F5F0F6743D8F","fd376ca3-f329-48d3-ae3c-455ec98c2565","a0a8f18c-a66e-4ba7-a170-23efbdc67501","{""participantId"":""2228F0078FB0461FA4C8F5F0F6743D8F"",""assignmentId"":""fd376ca3-f329-48d3-ae3c-455ec98c2565"",""projectId"":""a0a8f18c-a66e-4ba7-a170-23efbdc67501""}","https://test12345.live/?participantId=2228F0078FB0461FA4C8F5F0F6743D8F&assignmentId=fd376ca3-f329-48d3-ae3c-455ec98c2565&projectId=a0a8f18c-a66e-4ba7-a170-23efbdc67501","2228F0078FB0461FA4C8F5F0F6743D8F-2024-11-24-20-16-00","","null","","images/causal_sequence/dog_causal/dog_causal_3.png","null","",""
"","","","","","image-button-response","85","1940120","0.0-12.0-1.0-1.9","2228F0078FB0461FA4C8F5F0F6743D8F","2228F0078FB0461FA4C8F5F0F6743D8F","fd376ca3-f329-48d3-ae3c-455ec98c2565","a0a8f18c-a66e-4ba7-a170-23efbdc67501","{""participantId"":""2228F0078FB0461FA4C8F5F0F6743D8F"",""assignmentId"":""fd376ca3-f329-48d3-ae3c-455ec98c2565"",""projectId"":""a0a8f18c-a66e-4ba7-a170-23efbdc67501""}","https://test12345.live/?participantId=2228F0078FB0461FA4C8F5F0F6743D8F&assignmentId=fd376ca3-f329-48d3-ae3c-455ec98c2565&projectId=a0a8f18c-a66e-4ba7-a170-23efbdc67501","2228F0078FB0461FA4C8F5F0F6743D8F-2024-11-24-20-16-00","","1020","","images/causal_sequence/dog_causal/dog_causal_3.png","0","",""
"","","","","","image-button-response","86","1941935","0.0-12.0-1.0-2.9","2228F0078FB0461FA4C8F5F0F6743D8F","2228F0078FB0461FA4C8F5F0F6743D8F","fd376ca3-f329-48d3-ae3c-455ec98c2565","a0a8f18c-a66e-4ba7-a170-23efbdc67501","{""participantId"":""2228F0078FB0461FA4C8F5F0F6743D8F"",""assignmentId"":""fd376ca3-f329-48d3-ae3c-455ec98c2565"",""projectId"":""a0a8f18c-a66e-4ba7-a170-23efbdc67501""}","https://test12345.live/?participantId=2228F0078FB0461FA4C8F5F0F6743D8F&assignmentId=fd376ca3-f329-48d3-ae3c-455ec98c2565&projectId=a0a8f18c-a66e-4ba7-a170-23efbdc67501","2228F0078FB0461FA4C8F5F0F6743D8F-2024-11-24-20-16-00","","null","","[]","null","",""
"","","","","","html-audio-response","87","2057866","0.0-13.0","2228F0078FB0461FA4C8F5F0F6743D8F","2228F0078FB0461FA4C8F5F0F6743D8F","fd376ca3-f329-48d3-ae3c-455ec98c2565","a0a8f18c-a66e-4ba7-a170-23efbdc67501","{""participantId"":""2228F0078FB0461FA4C8F5F0F6743D8F"",""assignmentId"":""fd376ca3-f329-48d3-ae3c-455ec98c2565"",""projectId"":""a0a8f18c-a66e-4ba7-a170-23efbdc67501""}","https://test12345.live/?participantId=2228F0078FB0461FA4C8F5F0F6743D8F&assignmentId=fd376ca3-f329-48d3-ae3c-455ec98c2565&projectId=a0a8f18c-a66e-4ba7-a170-23efbdc67501","2228F0078FB0461FA4C8F5F0F6743D8F-2024-11-24-20-16-00","","19656","","[""<span style=\""color: red; font-size: 24px\""> NOW RECORDING</span><p>Please say out loud all the images you saw, as many as you can remember. The images can be said in any order.</p>""]","","1","dog_causal"
"","","","","","image-button-response","88","2063891","0.0-14.0-0.0","2228F0078FB0461FA4C8F5F0F6743D8F","2228F0078FB0461FA4C8F5F0F6743D8F","fd376ca3-f329-48d3-ae3c-455ec98c2565","a0a8f18c-a66e-4ba7-a170-23efbdc67501","{""participantId"":""2228F0078FB0461FA4C8F5F0F6743D8F"",""assignmentId"":""fd376ca3-f329-48d3-ae3c-455ec98c2565"",""projectId"":""a0a8f18c-a66e-4ba7-a170-23efbdc67501""}","https://test12345.live/?participantId=2228F0078FB0461FA4C8F5F0F6743D8F&assignmentId=fd376ca3-f329-48d3-ae3c-455ec98c2565&projectId=a0a8f18c-a66e-4ba7-a170-23efbdc67501","2228F0078FB0461FA4C8F5F0F6743D8F-2024-11-24-20-16-00","","null","","images/causal_sequence/saving_a_cat_causal/saving_a_cat_causal_0.png","null","",""
"","","","","","image-button-response","89","2068397","0.0-14.0-1.0-0.0","2228F0078FB0461FA4C8F5F0F6743D8F","2228F0078FB0461FA4C8F5F0F6743D8F","fd376ca3-f329-48d3-ae3c-455ec98c2565","a0a8f18c-a66e-4ba7-a170-23efbdc67501","{""participantId"":""2228F0078FB0461FA4C8F5F0F6743D8F"",""assignmentId"":""fd376ca3-f329-48d3-ae3c-455ec98c2565"",""projectId"":""a0a8f18c-a66e-4ba7-a170-23efbdc67501""}","https://test12345.live/?participantId=2228F0078FB0461FA4C8F5F0F6743D8F&assignmentId=fd376ca3-f329-48d3-ae3c-455ec98c2565&projectId=a0a8f18c-a66e-4ba7-a170-23efbdc67501","2228F0078FB0461FA4C8F5F0F6743D8F-2024-11-24-20-16-00","","null","","images/causal_sequence/saving_a_cat_causal/saving_a_cat_causal_1.png","null","",""
"","","","","","image-button-response","90","2070021","0.0-14.0-1.0-1.0","2228F0078FB0461FA4C8F5F0F6743D8F","2228F0078FB0461FA4C8F5F0F6743D8F","fd376ca3-f329-48d3-ae3c-455ec98c2565","a0a8f18c-a66e-4ba7-a170-23efbdc67501","{""participantId"":""2228F0078FB0461FA4C8F5F0F6743D8F"",""assignmentId"":""fd376ca3-f329-48d3-ae3c-455ec98c2565"",""projectId"":""a0a8f18c-a66e-4ba7-a170-23efbdc67501""}","https://test12345.live/?participantId=2228F0078FB0461FA4C8F5F0F6743D8F&assignmentId=fd376ca3-f329-48d3-ae3c-455ec98c2565&projectId=a0a8f18c-a66e-4ba7-a170-23efbdc67501","2228F0078FB0461FA4C8F5F0F6743D8F-2024-11-24-20-16-00","","1621","","images/causal_sequence/saving_a_cat_causal/saving_a_cat_causal_1.png","0","",""
"","","","","","image-button-response","91","2071831","0.0-14.0-1.0-2.0","2228F0078FB0461FA4C8F5F0F6743D8F","2228F0078FB0461FA4C8F5F0F6743D8F","fd376ca3-f329-48d3-ae3c-455ec98c2565","a0a8f18c-a66e-4ba7-a170-23efbdc67501","{""participantId"":""2228F0078FB0461FA4C8F5F0F6743D8F"",""assignmentId"":""fd376ca3-f329-48d3-ae3c-455ec98c2565"",""projectId"":""a0a8f18c-a66e-4ba7-a170-23efbdc67501""}","https://test12345.live/?participantId=2228F0078FB0461FA4C8F5F0F6743D8F&assignmentId=fd376ca3-f329-48d3-ae3c-455ec98c2565&projectId=a0a8f18c-a66e-4ba7-a170-23efbdc67501","2228F0078FB0461FA4C8F5F0F6743D8F-2024-11-24-20-16-00","","null","","[]","null","",""
"","","","","","image-button-response","92","2076342","0.0-14.0-1.0-0.1","2228F0078FB0461FA4C8F5F0F6743D8F","2228F0078FB0461FA4C8F5F0F6743D8F","fd376ca3-f329-48d3-ae3c-455ec98c2565","a0a8f18c-a66e-4ba7-a170-23efbdc67501","{""participantId"":""2228F0078FB0461FA4C8F5F0F6743D8F"",""assignmentId"":""fd376ca3-f329-48d3-ae3c-455ec98c2565"",""projectId"":""a0a8f18c-a66e-4ba7-a170-23efbdc67501""}","https://test12345.live/?participantId=2228F0078FB0461FA4C8F5F0F6743D8F&assignmentId=fd376ca3-f329-48d3-ae3c-455ec98c2565&projectId=a0a8f18c-a66e-4ba7-a170-23efbdc67501","2228F0078FB0461FA4C8F5F0F6743D8F-2024-11-24-20-16-00","","null","","images/causal_sequence/saving_a_cat_causal/saving_a_cat_causal_2.png","null","",""
"","","","","","image-button-response","93","2077361","0.0-14.0-1.0-1.1","2228F0078FB0461FA4C8F5F0F6743D8F","2228F0078FB0461FA4C8F5F0F6743D8F","fd376ca3-f329-48d3-ae3c-455ec98c2565","a0a8f18c-a66e-4ba7-a170-23efbdc67501","{""participantId"":""2228F0078FB0461FA4C8F5F0F6743D8F"",""assignmentId"":""fd376ca3-f329-48d3-ae3c-455ec98c2565"",""projectId"":""a0a8f18c-a66e-4ba7-a170-23efbdc67501""}","https://test12345.live/?participantId=2228F0078FB0461FA4C8F5F0F6743D8F&assignmentId=fd376ca3-f329-48d3-ae3c-455ec98c2565&projectId=a0a8f18c-a66e-4ba7-a170-23efbdc67501","2228F0078FB0461FA4C8F5F0F6743D8F-2024-11-24-20-16-00","","1017","","images/causal_sequence/saving_a_cat_causal/saving_a_cat_causal_2.png","0","",""
"","","","","","image-button-response","94","2079166","0.0-14.0-1.0-2.1","2228F0078FB0461FA4C8F5F0F6743D8F","2228F0078FB0461FA4C8F5F0F6743D8F","fd376ca3-f329-48d3-ae3c-455ec98c2565","a0a8f18c-a66e-4ba7-a170-23efbdc67501","{""participantId"":""2228F0078FB0461FA4C8F5F0F6743D8F"",""assignmentId"":""fd376ca3-f329-48d3-ae3c-455ec98c2565"",""projectId"":""a0a8f18c-a66e-4ba7-a170-23efbdc67501""}","https://test12345.live/?participantId=2228F0078FB0461FA4C8F5F0F6743D8F&assignmentId=fd376ca3-f329-48d3-ae3c-455ec98c2565&projectId=a0a8f18c-a66e-4ba7-a170-23efbdc67501","2228F0078FB0461FA4C8F5F0F6743D8F-2024-11-24-20-16-00","","null","","[]","null","",""
"","","","","","image-button-response","95","2083680","0.0-14.0-1.0-0.2","2228F0078FB0461FA4C8F5F0F6743D8F","2228F0078FB0461FA4C8F5F0F6743D8F","fd376ca3-f329-48d3-ae3c-455ec98c2565","a0a8f18c-a66e-4ba7-a170-23efbdc67501","{""participantId"":""2228F0078FB0461FA4C8F5F0F6743D8F"",""assignmentId"":""fd376ca3-f329-48d3-ae3c-455ec98c2565"",""projectId"":""a0a8f18c-a66e-4ba7-a170-23efbdc67501""}","https://test12345.live/?participantId=2228F0078FB0461FA4C8F5F0F6743D8F&assignmentId=fd376ca3-f329-48d3-ae3c-455ec98c2565&projectId=a0a8f18c-a66e-4ba7-a170-23efbdc67501","2228F0078FB0461FA4C8F5F0F6743D8F-2024-11-24-20-16-00","","null","","images/causal_sequence/saving_a_cat_causal/saving_a_cat_causal_3.png","null","",""
"","","","","","image-button-response","96","2085292","0.0-14.0-1.0-1.2","2228F0078FB0461FA4C8F5F0F6743D8F","2228F0078FB0461FA4C8F5F0F6743D8F","fd376ca3-f329-48d3-ae3c-455ec98c2565","a0a8f18c-a66e-4ba7-a170-23efbdc67501","{""participantId"":""2228F0078FB0461FA4C8F5F0F6743D8F"",""assignmentId"":""fd376ca3-f329-48d3-ae3c-455ec98c2565"",""projectId"":""a0a8f18c-a66e-4ba7-a170-23efbdc67501""}","https://test12345.live/?participantId=2228F0078FB0461FA4C8F5F0F6743D8F&assignmentId=fd376ca3-f329-48d3-ae3c-455ec98c2565&projectId=a0a8f18c-a66e-4ba7-a170-23efbdc67501","2228F0078FB0461FA4C8F5F0F6743D8F-2024-11-24-20-16-00","","1611","","images/causal_sequence/saving_a_cat_causal/saving_a_cat_causal_3.png","1","",""
"","","","","","image-button-response","97","2087105","0.0-14.0-1.0-2.2","2228F0078FB0461FA4C8F5F0F6743D8F","2228F0078FB0461FA4C8F5F0F6743D8F","fd376ca3-f329-48d3-ae3c-455ec98c2565","a0a8f18c-a66e-4ba7-a170-23efbdc67501","{""participantId"":""2228F0078FB0461FA4C8F5F0F6743D8F"",""assignmentId"":""fd376ca3-f329-48d3-ae3c-455ec98c2565"",""projectId"":""a0a8f18c-a66e-4ba7-a170-23efbdc67501""}","https://test12345.live/?participantId=2228F0078FB0461FA4C8F5F0F6743D8F&assignmentId=fd376ca3-f329-48d3-ae3c-455ec98c2565&projectId=a0a8f18c-a66e-4ba7-a170-23efbdc67501","2228F0078FB0461FA4C8F5F0F6743D8F-2024-11-24-20-16-00","","null","","[]","null","",""
"","","","","","image-button-response","98","2091613","0.0-14.0-1.0-0.3","2228F0078FB0461FA4C8F5F0F6743D8F","2228F0078FB0461FA4C8F5F0F6743D8F","fd376ca3-f329-48d3-ae3c-455ec98c2565","a0a8f18c-a66e-4ba7-a170-23efbdc67501","{""participantId"":""2228F0078FB0461FA4C8F5F0F6743D8F"",""assignmentId"":""fd376ca3-f329-48d3-ae3c-455ec98c2565"",""projectId"":""a0a8f18c-a66e-4ba7-a170-23efbdc67501""}","https://test12345.live/?participantId=2228F0078FB0461FA4C8F5F0F6743D8F&assignmentId=fd376ca3-f329-48d3-ae3c-455ec98c2565&projectId=a0a8f18c-a66e-4ba7-a170-23efbdc67501","2228F0078FB0461FA4C8F5F0F6743D8F-2024-11-24-20-16-00","","null","","images/causal_sequence/saving_a_cat_causal/saving_a_cat_causal_4.png","null","",""
"","","","","","image-button-response","99","2093206","0.0-14.0-1.0-1.3","2228F0078FB0461FA4C8F5F0F6743D8F","2228F0078FB0461FA4C8F5F0F6743D8F","fd376ca3-f329-48d3-ae3c-455ec98c2565","a0a8f18c-a66e-4ba7-a170-23efbdc67501","{""participantId"":""2228F0078FB0461FA4C8F5F0F6743D8F"",""assignmentId"":""fd376ca3-f329-48d3-ae3c-455ec98c2565"",""projectId"":""a0a8f18c-a66e-4ba7-a170-23efbdc67501""}","https://test12345.live/?participantId=2228F0078FB0461FA4C8F5F0F6743D8F&assignmentId=fd376ca3-f329-48d3-ae3c-455ec98c2565&projectId=a0a8f18c-a66e-4ba7-a170-23efbdc67501","2228F0078FB0461FA4C8F5F0F6743D8F-2024-11-24-20-16-00","","1591","","images/causal_sequence/saving_a_cat_causal/saving_a_cat_causal_4.png","0","",""
"","","","","","image-button-response","100","2095015","0.0-14.0-1.0-2.3","2228F0078FB0461FA4C8F5F0F6743D8F","2228F0078FB0461FA4C8F5F0F6743D8F","fd376ca3-f329-48d3-ae3c-455ec98c2565","a0a8f18c-a66e-4ba7-a170-23efbdc67501","{""participantId"":""2228F0078FB0461FA4C8F5F0F6743D8F"",""assignmentId"":""fd376ca3-f329-48d3-ae3c-455ec98c2565"",""projectId"":""a0a8f18c-a66e-4ba7-a170-23efbdc67501""}","https://test12345.live/?participantId=2228F0078FB0461FA4C8F5F0F6743D8F&assignmentId=fd376ca3-f329-48d3-ae3c-455ec98c2565&projectId=a0a8f18c-a66e-4ba7-a170-23efbdc67501","2228F0078FB0461FA4C8F5F0F6743D8F-2024-11-24-20-16-00","","null","","[]","null","",""
"","","","","","image-button-response","101","2099521","0.0-14.0-1.0-0.4","2228F0078FB0461FA4C8F5F0F6743D8F","2228F0078FB0461FA4C8F5F0F6743D8F","fd376ca3-f329-48d3-ae3c-455ec98c2565","a0a8f18c-a66e-4ba7-a170-23efbdc67501","{""participantId"":""2228F0078FB0461FA4C8F5F0F6743D8F"",""assignmentId"":""fd376ca3-f329-48d3-ae3c-455ec98c2565"",""projectId"":""a0a8f18c-a66e-4ba7-a170-23efbdc67501""}","https://test12345.live/?participantId=2228F0078FB0461FA4C8F5F0F6743D8F&assignmentId=fd376ca3-f329-48d3-ae3c-455ec98c2565&projectId=a0a8f18c-a66e-4ba7-a170-23efbdc67501","2228F0078FB0461FA4C8F5F0F6743D8F-2024-11-24-20-16-00","","null","","images/causal_sequence/saving_a_cat_causal/saving_a_cat_causal_5.png","null","",""
"","","","","","image-button-response","102","2100567","0.0-14.0-1.0-1.4","2228F0078FB0461FA4C8F5F0F6743D8F","2228F0078FB0461FA4C8F5F0F6743D8F","fd376ca3-f329-48d3-ae3c-455ec98c2565","a0a8f18c-a66e-4ba7-a170-23efbdc67501","{""participantId"":""2228F0078FB0461FA4C8F5F0F6743D8F"",""assignmentId"":""fd376ca3-f329-48d3-ae3c-455ec98c2565"",""projectId"":""a0a8f18c-a66e-4ba7-a170-23efbdc67501""}","https://test12345.live/?participantId=2228F0078FB0461FA4C8F5F0F6743D8F&assignmentId=fd376ca3-f329-48d3-ae3c-455ec98c2565&projectId=a0a8f18c-a66e-4ba7-a170-23efbdc67501","2228F0078FB0461FA4C8F5F0F6743D8F-2024-11-24-20-16-00","","1045","","images/causal_sequence/saving_a_cat_causal/saving_a_cat_causal_5.png","0","",""
"","","","","","image-button-response","103","2102375","0.0-14.0-1.0-2.4","2228F0078FB0461FA4C8F5F0F6743D8F","2228F0078FB0461FA4C8F5F0F6743D8F","fd376ca3-f329-48d3-ae3c-455ec98c2565","a0a8f18c-a66e-4ba7-a170-23efbdc67501","{""participantId"":""2228F0078FB0461FA4C8F5F0F6743D8F"",""assignmentId"":""fd376ca3-f329-48d3-ae3c-455ec98c2565"",""projectId"":""a0a8f18c-a66e-4ba7-a170-23efbdc67501""}","https://test12345.live/?participantId=2228F0078FB0461FA4C8F5F0F6743D8F&assignmentId=fd376ca3-f329-48d3-ae3c-455ec98c2565&projectId=a0a8f18c-a66e-4ba7-a170-23efbdc67501","2228F0078FB0461FA4C8F5F0F6743D8F-2024-11-24-20-16-00","","null","","[]","null","",""
"","","","","","image-button-response","104","2106881","0.0-14.0-1.0-0.5","2228F0078FB0461FA4C8F5F0F6743D8F","2228F0078FB0461FA4C8F5F0F6743D8F","fd376ca3-f329-48d3-ae3c-455ec98c2565","a0a8f18c-a66e-4ba7-a170-23efbdc67501","{""participantId"":""2228F0078FB0461FA4C8F5F0F6743D8F"",""assignmentId"":""fd376ca3-f329-48d3-ae3c-455ec98c2565"",""projectId"":""a0a8f18c-a66e-4ba7-a170-23efbdc67501""}","https://test12345.live/?participantId=2228F0078FB0461FA4C8F5F0F6743D8F&assignmentId=fd376ca3-f329-48d3-ae3c-455ec98c2565&projectId=a0a8f18c-a66e-4ba7-a170-23efbdc67501","2228F0078FB0461FA4C8F5F0F6743D8F-2024-11-24-20-16-00","","null","","images/causal_sequence/saving_a_cat_causal/saving_a_cat_causal_6.png","null","",""
"","","","","","image-button-response","105","2107601","0.0-14.0-1.0-1.5","2228F0078FB0461FA4C8F5F0F6743D8F","2228F0078FB0461FA4C8F5F0F6743D8F","fd376ca3-f329-48d3-ae3c-455ec98c2565","a0a8f18c-a66e-4ba7-a170-23efbdc67501","{""participantId"":""2228F0078FB0461FA4C8F5F0F6743D8F"",""assignmentId"":""fd376ca3-f329-48d3-ae3c-455ec98c2565"",""projectId"":""a0a8f18c-a66e-4ba7-a170-23efbdc67501""}","https://test12345.live/?participantId=2228F0078FB0461FA4C8F5F0F6743D8F&assignmentId=fd376ca3-f329-48d3-ae3c-455ec98c2565&projectId=a0a8f18c-a66e-4ba7-a170-23efbdc67501","2228F0078FB0461FA4C8F5F0F6743D8F-2024-11-24-20-16-00","","718","","images/causal_sequence/saving_a_cat_causal/saving_a_cat_causal_6.png","0","",""
"","","","","","image-button-response","106","2109408","0.0-14.0-1.0-2.5","2228F0078FB0461FA4C8F5F0F6743D8F","2228F0078FB0461FA4C8F5F0F6743D8F","fd376ca3-f329-48d3-ae3c-455ec98c2565","a0a8f18c-a66e-4ba7-a170-23efbdc67501","{""participantId"":""2228F0078FB0461FA4C8F5F0F6743D8F"",""assignmentId"":""fd376ca3-f329-48d3-ae3c-455ec98c2565"",""projectId"":""a0a8f18c-a66e-4ba7-a170-23efbdc67501""}","https://test12345.live/?participantId=2228F0078FB0461FA4C8F5F0F6743D8F&assignmentId=fd376ca3-f329-48d3-ae3c-455ec98c2565&projectId=a0a8f18c-a66e-4ba7-a170-23efbdc67501","2228F0078FB0461FA4C8F5F0F6743D8F-2024-11-24-20-16-00","","null","","[]","null","",""
"","","","","","image-button-response","107","2113919","0.0-14.0-1.0-0.6","2228F0078FB0461FA4C8F5F0F6743D8F","2228F0078FB0461FA4C8F5F0F6743D8F","fd376ca3-f329-48d3-ae3c-455ec98c2565","a0a8f18c-a66e-4ba7-a170-23efbdc67501","{""participantId"":""2228F0078FB0461FA4C8F5F0F6743D8F"",""assignmentId"":""fd376ca3-f329-48d3-ae3c-455ec98c2565"",""projectId"":""a0a8f18c-a66e-4ba7-a170-23efbdc67501""}","https://test12345.live/?participantId=2228F0078FB0461FA4C8F5F0F6743D8F&assignmentId=fd376ca3-f329-48d3-ae3c-455ec98c2565&projectId=a0a8f18c-a66e-4ba7-a170-23efbdc67501","2228F0078FB0461FA4C8F5F0F6743D8F-2024-11-24-20-16-00","","null","","images/causal_sequence/saving_a_cat_causal/saving_a_cat_causal_7.png","null","",""
"","","","","","image-button-response","108","2115662","0.0-14.0-1.0-1.6","2228F0078FB0461FA4C8F5F0F6743D8F","2228F0078FB0461FA4C8F5F0F6743D8F","fd376ca3-f329-48d3-ae3c-455ec98c2565","a0a8f18c-a66e-4ba7-a170-23efbdc67501","{""participantId"":""2228F0078FB0461FA4C8F5F0F6743D8F"",""assignmentId"":""fd376ca3-f329-48d3-ae3c-455ec98c2565"",""projectId"":""a0a8f18c-a66e-4ba7-a170-23efbdc67501""}","https://test12345.live/?participantId=2228F0078FB0461FA4C8F5F0F6743D8F&assignmentId=fd376ca3-f329-48d3-ae3c-455ec98c2565&projectId=a0a8f18c-a66e-4ba7-a170-23efbdc67501","2228F0078FB0461FA4C8F5F0F6743D8F-2024-11-24-20-16-00","","1741","","images/causal_sequence/saving_a_cat_causal/saving_a_cat_causal_7.png","0","",""
"","","","","","image-button-response","109","2117466","0.0-14.0-1.0-2.6","2228F0078FB0461FA4C8F5F0F6743D8F","2228F0078FB0461FA4C8F5F0F6743D8F","fd376ca3-f329-48d3-ae3c-455ec98c2565","a0a8f18c-a66e-4ba7-a170-23efbdc67501","{""participantId"":""2228F0078FB0461FA4C8F5F0F6743D8F"",""assignmentId"":""fd376ca3-f329-48d3-ae3c-455ec98c2565"",""projectId"":""a0a8f18c-a66e-4ba7-a170-23efbdc67501""}","https://test12345.live/?participantId=2228F0078FB0461FA4C8F5F0F6743D8F&assignmentId=fd376ca3-f329-48d3-ae3c-455ec98c2565&projectId=a0a8f18c-a66e-4ba7-a170-23efbdc67501","2228F0078FB0461FA4C8F5F0F6743D8F-2024-11-24-20-16-00","","null","","[]","null","",""
"","","","","","image-button-response","110","2121983","0.0-14.0-1.0-0.7","2228F0078FB0461FA4C8F5F0F6743D8F","2228F0078FB0461FA4C8F5F0F6743D8F","fd376ca3-f329-48d3-ae3c-455ec98c2565","a0a8f18c-a66e-4ba7-a170-23efbdc67501","{""participantId"":""2228F0078FB0461FA4C8F5F0F6743D8F"",""assignmentId"":""fd376ca3-f329-48d3-ae3c-455ec98c2565"",""projectId"":""a0a8f18c-a66e-4ba7-a170-23efbdc67501""}","https://test12345.live/?participantId=2228F0078FB0461FA4C8F5F0F6743D8F&assignmentId=fd376ca3-f329-48d3-ae3c-455ec98c2565&projectId=a0a8f18c-a66e-4ba7-a170-23efbdc67501","2228F0078FB0461FA4C8F5F0F6743D8F-2024-11-24-20-16-00","","null","","images/causal_sequence/saving_a_cat_causal/saving_a_cat_causal_8.png","null","",""
"","","","","","image-button-response","111","2123302","0.0-14.0-1.0-1.7","2228F0078FB0461FA4C8F5F0F6743D8F","2228F0078FB0461FA4C8F5F0F6743D8F","fd376ca3-f329-48d3-ae3c-455ec98c2565","a0a8f18c-a66e-4ba7-a170-23efbdc67501","{""participantId"":""2228F0078FB0461FA4C8F5F0F6743D8F"",""assignmentId"":""fd376ca3-f329-48d3-ae3c-455ec98c2565"",""projectId"":""a0a8f18c-a66e-4ba7-a170-23efbdc67501""}","https://test12345.live/?participantId=2228F0078FB0461FA4C8F5F0F6743D8F&assignmentId=fd376ca3-f329-48d3-ae3c-455ec98c2565&projectId=a0a8f18c-a66e-4ba7-a170-23efbdc67501","2228F0078FB0461FA4C8F5F0F6743D8F-2024-11-24-20-16-00","","1318","","images/causal_sequence/saving_a_cat_causal/saving_a_cat_causal_8.png","0","",""
"","","","","","image-button-response","112","2125115","0.0-14.0-1.0-2.7","2228F0078FB0461FA4C8F5F0F6743D8F","2228F0078FB0461FA4C8F5F0F6743D8F","fd376ca3-f329-48d3-ae3c-455ec98c2565","a0a8f18c-a66e-4ba7-a170-23efbdc67501","{""participantId"":""2228F0078FB0461FA4C8F5F0F6743D8F"",""assignmentId"":""fd376ca3-f329-48d3-ae3c-455ec98c2565"",""projectId"":""a0a8f18c-a66e-4ba7-a170-23efbdc67501""}","https://test12345.live/?participantId=2228F0078FB0461FA4C8F5F0F6743D8F&assignmentId=fd376ca3-f329-48d3-ae3c-455ec98c2565&projectId=a0a8f18c-a66e-4ba7-a170-23efbdc67501","2228F0078FB0461FA4C8F5F0F6743D8F-2024-11-24-20-16-00","","null","","[]","null","",""
"","","","","","image-button-response","113","2129622","0.0-14.0-1.0-0.8","2228F0078FB0461FA4C8F5F0F6743D8F","2228F0078FB0461FA4C8F5F0F6743D8F","fd376ca3-f329-48d3-ae3c-455ec98c2565","a0a8f18c-a66e-4ba7-a170-23efbdc67501","{""participantId"":""2228F0078FB0461FA4C8F5F0F6743D8F"",""assignmentId"":""fd376ca3-f329-48d3-ae3c-455ec98c2565"",""projectId"":""a0a8f18c-a66e-4ba7-a170-23efbdc67501""}","https://test12345.live/?participantId=2228F0078FB0461FA4C8F5F0F6743D8F&assignmentId=fd376ca3-f329-48d3-ae3c-455ec98c2565&projectId=a0a8f18c-a66e-4ba7-a170-23efbdc67501","2228F0078FB0461FA4C8F5F0F6743D8F-2024-11-24-20-16-00","","null","","images/causal_sequence/saving_a_cat_causal/saving_a_cat_causal_9.png","null","",""
"","","","","","image-button-response","114","2130917","0.0-14.0-1.0-1.8","2228F0078FB0461FA4C8F5F0F6743D8F","2228F0078FB0461FA4C8F5F0F6743D8F","fd376ca3-f329-48d3-ae3c-455ec98c2565","a0a8f18c-a66e-4ba7-a170-23efbdc67501","{""participantId"":""2228F0078FB0461FA4C8F5F0F6743D8F"",""assignmentId"":""fd376ca3-f329-48d3-ae3c-455ec98c2565"",""projectId"":""a0a8f18c-a66e-4ba7-a170-23efbdc67501""}","https://test12345.live/?participantId=2228F0078FB0461FA4C8F5F0F6743D8F&assignmentId=fd376ca3-f329-48d3-ae3c-455ec98c2565&projectId=a0a8f18c-a66e-4ba7-a170-23efbdc67501","2228F0078FB0461FA4C8F5F0F6743D8F-2024-11-24-20-16-00","","1293","","images/causal_sequence/saving_a_cat_causal/saving_a_cat_causal_9.png","0","",""
"","","","","","image-button-response","115","2132734","0.0-14.0-1.0-2.8","2228F0078FB0461FA4C8F5F0F6743D8F","2228F0078FB0461FA4C8F5F0F6743D8F","fd376ca3-f329-48d3-ae3c-455ec98c2565","a0a8f18c-a66e-4ba7-a170-23efbdc67501","{""participantId"":""2228F0078FB0461FA4C8F5F0F6743D8F"",""assignmentId"":""fd376ca3-f329-48d3-ae3c-455ec98c2565"",""projectId"":""a0a8f18c-a66e-4ba7-a170-23efbdc67501""}","https://test12345.live/?participantId=2228F0078FB0461FA4C8F5F0F6743D8F&assignmentId=fd376ca3-f329-48d3-ae3c-455ec98c2565&projectId=a0a8f18c-a66e-4ba7-a170-23efbdc67501","2228F0078FB0461FA4C8F5F0F6743D8F-2024-11-24-20-16-00","","null","","[]","null","",""
"","","","","","image-button-response","116","2137239","0.0-14.0-1.0-0.9","2228F0078FB0461FA4C8F5F0F6743D8F","2228F0078FB0461FA4C8F5F0F6743D8F","fd376ca3-f329-48d3-ae3c-455ec98c2565","a0a8f18c-a66e-4ba7-a170-23efbdc67501","{""participantId"":""2228F0078FB0461FA4C8F5F0F6743D8F"",""assignmentId"":""fd376ca3-f329-48d3-ae3c-455ec98c2565"",""projectId"":""a0a8f18c-a66e-4ba7-a170-23efbdc67501""}","https://test12345.live/?participantId=2228F0078FB0461FA4C8F5F0F6743D8F&assignmentId=fd376ca3-f329-48d3-ae3c-455ec98c2565&projectId=a0a8f18c-a66e-4ba7-a170-23efbdc67501","2228F0078FB0461FA4C8F5F0F6743D8F-2024-11-24-20-16-00","","null","","images/causal_sequence/saving_a_cat_causal/saving_a_cat_causal_ten.png","null","",""
"","","","","","image-button-response","117","2138390","0.0-14.0-1.0-1.9","2228F0078FB0461FA4C8F5F0F6743D8F","2228F0078FB0461FA4C8F5F0F6743D8F","fd376ca3-f329-48d3-ae3c-455ec98c2565","a0a8f18c-a66e-4ba7-a170-23efbdc67501","{""participantId"":""2228F0078FB0461FA4C8F5F0F6743D8F"",""assignmentId"":""fd376ca3-f329-48d3-ae3c-455ec98c2565"",""projectId"":""a0a8f18c-a66e-4ba7-a170-23efbdc67501""}","https://test12345.live/?participantId=2228F0078FB0461FA4C8F5F0F6743D8F&assignmentId=fd376ca3-f329-48d3-ae3c-455ec98c2565&projectId=a0a8f18c-a66e-4ba7-a170-23efbdc67501","2228F0078FB0461FA4C8F5F0F6743D8F-2024-11-24-20-16-00","","1150","","images/causal_sequence/saving_a_cat_causal/saving_a_cat_causal_ten.png","0","",""
"","","","","","image-button-response","118","2140201","0.0-14.0-1.0-2.9","2228F0078FB0461FA4C8F5F0F6743D8F","2228F0078FB0461FA4C8F5F0F6743D8F","fd376ca3-f329-48d3-ae3c-455ec98c2565","a0a8f18c-a66e-4ba7-a170-23efbdc67501","{""participantId"":""2228F0078FB0461FA4C8F5F0F6743D8F"",""assignmentId"":""fd376ca3-f329-48d3-ae3c-455ec98c2565"",""projectId"":""a0a8f18c-a66e-4ba7-a170-23efbdc67501""}","https://test12345.live/?participantId=2228F0078FB0461FA4C8F5F0F6743D8F&assignmentId=fd376ca3-f329-48d3-ae3c-455ec98c2565&projectId=a0a8f18c-a66e-4ba7-a170-23efbdc67501","2228F0078FB0461FA4C8F5F0F6743D8F-2024-11-24-20-16-00","","null","","[]","null","",""
"","","","","","html-audio-response","119","2225905","0.0-15.0","2228F0078FB0461FA4C8F5F0F6743D8F","2228F0078FB0461FA4C8F5F0F6743D8F","fd376ca3-f329-48d3-ae3c-455ec98c2565","a0a8f18c-a66e-4ba7-a170-23efbdc67501","{""participantId"":""2228F0078FB0461FA4C8F5F0F6743D8F"",""assignmentId"":""fd376ca3-f329-48d3-ae3c-455ec98c2565"",""projectId"":""a0a8f18c-a66e-4ba7-a170-23efbdc67501""}","https://test12345.live/?participantId=2228F0078FB0461FA4C8F5F0F6743D8F&assignmentId=fd376ca3-f329-48d3-ae3c-455ec98c2565&projectId=a0a8f18c-a66e-4ba7-a170-23efbdc67501","2228F0078FB0461FA4C8F5F0F6743D8F-2024-11-24-20-16-00","","17600","","[""<span style=\""color: red; font-size: 24px\""> NOW RECORDING</span><p>Please say out loud all the images you saw, as many as you can remember. The images can be said in any order.</p>""]","","11","saving_a_cat_causal"
"","","","","","image-button-response","120","2231933","0.0-16.0-0.0","2228F0078FB0461FA4C8F5F0F6743D8F","2228F0078FB0461FA4C8F5F0F6743D8F","fd376ca3-f329-48d3-ae3c-455ec98c2565","a0a8f18c-a66e-4ba7-a170-23efbdc67501","{""participantId"":""2228F0078FB0461FA4C8F5F0F6743D8F"",""assignmentId"":""fd376ca3-f329-48d3-ae3c-455ec98c2565"",""projectId"":""a0a8f18c-a66e-4ba7-a170-23efbdc67501""}","https://test12345.live/?participantId=2228F0078FB0461FA4C8F5F0F6743D8F&assignmentId=fd376ca3-f329-48d3-ae3c-455ec98c2565&projectId=a0a8f18c-a66e-4ba7-a170-23efbdc67501","2228F0078FB0461FA4C8F5F0F6743D8F-2024-11-24-20-16-00","","null","","images/schematic_sequence/restaurant_scheme/restaurant_scheme_0.png","null","",""
"","","","","","image-button-response","121","2236436","0.0-16.0-1.0-0.0","2228F0078FB0461FA4C8F5F0F6743D8F","2228F0078FB0461FA4C8F5F0F6743D8F","fd376ca3-f329-48d3-ae3c-455ec98c2565","a0a8f18c-a66e-4ba7-a170-23efbdc67501","{""participantId"":""2228F0078FB0461FA4C8F5F0F6743D8F"",""assignmentId"":""fd376ca3-f329-48d3-ae3c-455ec98c2565"",""projectId"":""a0a8f18c-a66e-4ba7-a170-23efbdc67501""}","https://test12345.live/?participantId=2228F0078FB0461FA4C8F5F0F6743D8F&assignmentId=fd376ca3-f329-48d3-ae3c-455ec98c2565&projectId=a0a8f18c-a66e-4ba7-a170-23efbdc67501","2228F0078FB0461FA4C8F5F0F6743D8F-2024-11-24-20-16-00","","null","","images/schematic_sequence/restaurant_scheme/restaurant_scheme_1.png","null","",""
"","","","","","image-button-response","122","2237956","0.0-16.0-1.0-1.0","2228F0078FB0461FA4C8F5F0F6743D8F","2228F0078FB0461FA4C8F5F0F6743D8F","fd376ca3-f329-48d3-ae3c-455ec98c2565","a0a8f18c-a66e-4ba7-a170-23efbdc67501","{""participantId"":""2228F0078FB0461FA4C8F5F0F6743D8F"",""assignmentId"":""fd376ca3-f329-48d3-ae3c-455ec98c2565"",""projectId"":""a0a8f18c-a66e-4ba7-a170-23efbdc67501""}","https://test12345.live/?participantId=2228F0078FB0461FA4C8F5F0F6743D8F&assignmentId=fd376ca3-f329-48d3-ae3c-455ec98c2565&projectId=a0a8f18c-a66e-4ba7-a170-23efbdc67501","2228F0078FB0461FA4C8F5F0F6743D8F-2024-11-24-20-16-00","","1518","","images/schematic_sequence/restaurant_scheme/restaurant_scheme_1.png","0","",""
"","","","","","image-button-response","123","2239766","0.0-16.0-1.0-2.0","2228F0078FB0461FA4C8F5F0F6743D8F","2228F0078FB0461FA4C8F5F0F6743D8F","fd376ca3-f329-48d3-ae3c-455ec98c2565","a0a8f18c-a66e-4ba7-a170-23efbdc67501","{""participantId"":""2228F0078FB0461FA4C8F5F0F6743D8F"",""assignmentId"":""fd376ca3-f329-48d3-ae3c-455ec98c2565"",""projectId"":""a0a8f18c-a66e-4ba7-a170-23efbdc67501""}","https://test12345.live/?participantId=2228F0078FB0461FA4C8F5F0F6743D8F&assignmentId=fd376ca3-f329-48d3-ae3c-455ec98c2565&projectId=a0a8f18c-a66e-4ba7-a170-23efbdc67501","2228F0078FB0461FA4C8F5F0F6743D8F-2024-11-24-20-16-00","","null","","[]","null","",""
"","","","","","image-button-response","124","2244271","0.0-16.0-1.0-0.1","2228F0078FB0461FA4C8F5F0F6743D8F","2228F0078FB0461FA4C8F5F0F6743D8F","fd376ca3-f329-48d3-ae3c-455ec98c2565","a0a8f18c-a66e-4ba7-a170-23efbdc67501","{""participantId"":""2228F0078FB0461FA4C8F5F0F6743D8F"",""assignmentId"":""fd376ca3-f329-48d3-ae3c-455ec98c2565"",""projectId"":""a0a8f18c-a66e-4ba7-a170-23efbdc67501""}","https://test12345.live/?participantId=2228F0078FB0461FA4C8F5F0F6743D8F&assignmentId=fd376ca3-f329-48d3-ae3c-455ec98c2565&projectId=a0a8f18c-a66e-4ba7-a170-23efbdc67501","2228F0078FB0461FA4C8F5F0F6743D8F-2024-11-24-20-16-00","","null","","images/schematic_sequence/restaurant_scheme/restaurant_scheme_2.png","null","",""
"","","","","","image-button-response","125","2247216","0.0-16.0-1.0-1.1","2228F0078FB0461FA4C8F5F0F6743D8F","2228F0078FB0461FA4C8F5F0F6743D8F","fd376ca3-f329-48d3-ae3c-455ec98c2565","a0a8f18c-a66e-4ba7-a170-23efbdc67501","{""participantId"":""2228F0078FB0461FA4C8F5F0F6743D8F"",""assignmentId"":""fd376ca3-f329-48d3-ae3c-455ec98c2565"",""projectId"":""a0a8f18c-a66e-4ba7-a170-23efbdc67501""}","https://test12345.live/?participantId=2228F0078FB0461FA4C8F5F0F6743D8F&assignmentId=fd376ca3-f329-48d3-ae3c-455ec98c2565&projectId=a0a8f18c-a66e-4ba7-a170-23efbdc67501","2228F0078FB0461FA4C8F5F0F6743D8F-2024-11-24-20-16-00","","2944","","images/schematic_sequence/restaurant_scheme/restaurant_scheme_2.png","1","",""
"","","","","","image-button-response","126","2249030","0.0-16.0-1.0-2.1","2228F0078FB0461FA4C8F5F0F6743D8F","2228F0078FB0461FA4C8F5F0F6743D8F","fd376ca3-f329-48d3-ae3c-455ec98c2565","a0a8f18c-a66e-4ba7-a170-23efbdc67501","{""participantId"":""2228F0078FB0461FA4C8F5F0F6743D8F"",""assignmentId"":""fd376ca3-f329-48d3-ae3c-455ec98c2565"",""projectId"":""a0a8f18c-a66e-4ba7-a170-23efbdc67501""}","https://test12345.live/?participantId=2228F0078FB0461FA4C8F5F0F6743D8F&assignmentId=fd376ca3-f329-48d3-ae3c-455ec98c2565&projectId=a0a8f18c-a66e-4ba7-a170-23efbdc67501","2228F0078FB0461FA4C8F5F0F6743D8F-2024-11-24-20-16-00","","null","","[]","null","",""
"","","","","","image-button-response","127","2253541","0.0-16.0-1.0-0.2","2228F0078FB0461FA4C8F5F0F6743D8F","2228F0078FB0461FA4C8F5F0F6743D8F","fd376ca3-f329-48d3-ae3c-455ec98c2565","a0a8f18c-a66e-4ba7-a170-23efbdc67501","{""participantId"":""2228F0078FB0461FA4C8F5F0F6743D8F"",""assignmentId"":""fd376ca3-f329-48d3-ae3c-455ec98c2565"",""projectId"":""a0a8f18c-a66e-4ba7-a170-23efbdc67501""}","https://test12345.live/?participantId=2228F0078FB0461FA4C8F5F0F6743D8F&assignmentId=fd376ca3-f329-48d3-ae3c-455ec98c2565&projectId=a0a8f18c-a66e-4ba7-a170-23efbdc67501","2228F0078FB0461FA4C8F5F0F6743D8F-2024-11-24-20-16-00","","null","","images/schematic_sequence/restaurant_scheme/restaurant_scheme_3.png","null","",""
"","","","","","image-button-response","128","2255051","0.0-16.0-1.0-1.2","2228F0078FB0461FA4C8F5F0F6743D8F","2228F0078FB0461FA4C8F5F0F6743D8F","fd376ca3-f329-48d3-ae3c-455ec98c2565","a0a8f18c-a66e-4ba7-a170-23efbdc67501","{""participantId"":""2228F0078FB0461FA4C8F5F0F6743D8F"",""assignmentId"":""fd376ca3-f329-48d3-ae3c-455ec98c2565"",""projectId"":""a0a8f18c-a66e-4ba7-a170-23efbdc67501""}","https://test12345.live/?participantId=2228F0078FB0461FA4C8F5F0F6743D8F&assignmentId=fd376ca3-f329-48d3-ae3c-455ec98c2565&projectId=a0a8f18c-a66e-4ba7-a170-23efbdc67501","2228F0078FB0461FA4C8F5F0F6743D8F-2024-11-24-20-16-00","","1508","","images/schematic_sequence/restaurant_scheme/restaurant_scheme_3.png","1","",""
"","","","","","image-button-response","129","2256856","0.0-16.0-1.0-2.2","2228F0078FB0461FA4C8F5F0F6743D8F","2228F0078FB0461FA4C8F5F0F6743D8F","fd376ca3-f329-48d3-ae3c-455ec98c2565","a0a8f18c-a66e-4ba7-a170-23efbdc67501","{""participantId"":""2228F0078FB0461FA4C8F5F0F6743D8F"",""assignmentId"":""fd376ca3-f329-48d3-ae3c-455ec98c2565"",""projectId"":""a0a8f18c-a66e-4ba7-a170-23efbdc67501""}","https://test12345.live/?participantId=2228F0078FB0461FA4C8F5F0F6743D8F&assignmentId=fd376ca3-f329-48d3-ae3c-455ec98c2565&projectId=a0a8f18c-a66e-4ba7-a170-23efbdc67501","2228F0078FB0461FA4C8F5F0F6743D8F-2024-11-24-20-16-00","","null","","[]","null","",""
"","","","","","image-button-response","130","2261363","0.0-16.0-1.0-0.3","2228F0078FB0461FA4C8F5F0F6743D8F","2228F0078FB0461FA4C8F5F0F6743D8F","fd376ca3-f329-48d3-ae3c-455ec98c2565","a0a8f18c-a66e-4ba7-a170-23efbdc67501","{""participantId"":""2228F0078FB0461FA4C8F5F0F6743D8F"",""assignmentId"":""fd376ca3-f329-48d3-ae3c-455ec98c2565"",""projectId"":""a0a8f18c-a66e-4ba7-a170-23efbdc67501""}","https://test12345.live/?participantId=2228F0078FB0461FA4C8F5F0F6743D8F&assignmentId=fd376ca3-f329-48d3-ae3c-455ec98c2565&projectId=a0a8f18c-a66e-4ba7-a170-23efbdc67501","2228F0078FB0461FA4C8F5F0F6743D8F-2024-11-24-20-16-00","","null","","images/schematic_sequence/restaurant_scheme/restaurant_scheme_4.png","null","",""
"","","","","","image-button-response","131","2262214","0.0-16.0-1.0-1.3","2228F0078FB0461FA4C8F5F0F6743D8F","2228F0078FB0461FA4C8F5F0F6743D8F","fd376ca3-f329-48d3-ae3c-455ec98c2565","a0a8f18c-a66e-4ba7-a170-23efbdc67501","{""participantId"":""2228F0078FB0461FA4C8F5F0F6743D8F"",""assignmentId"":""fd376ca3-f329-48d3-ae3c-455ec98c2565"",""projectId"":""a0a8f18c-a66e-4ba7-a170-23efbdc67501""}","https://test12345.live/?participantId=2228F0078FB0461FA4C8F5F0F6743D8F&assignmentId=fd376ca3-f329-48d3-ae3c-455ec98c2565&projectId=a0a8f18c-a66e-4ba7-a170-23efbdc67501","2228F0078FB0461FA4C8F5F0F6743D8F-2024-11-24-20-16-00","","849","","images/schematic_sequence/restaurant_scheme/restaurant_scheme_4.png","0","",""
"","","","","","image-button-response","132","2264021","0.0-16.0-1.0-2.3","2228F0078FB0461FA4C8F5F0F6743D8F","2228F0078FB0461FA4C8F5F0F6743D8F","fd376ca3-f329-48d3-ae3c-455ec98c2565","a0a8f18c-a66e-4ba7-a170-23efbdc67501","{""participantId"":""2228F0078FB0461FA4C8F5F0F6743D8F"",""assignmentId"":""fd376ca3-f329-48d3-ae3c-455ec98c2565"",""projectId"":""a0a8f18c-a66e-4ba7-a170-23efbdc67501""}","https://test12345.live/?participantId=2228F0078FB0461FA4C8F5F0F6743D8F&assignmentId=fd376ca3-f329-48d3-ae3c-455ec98c2565&projectId=a0a8f18c-a66e-4ba7-a170-23efbdc67501","2228F0078FB0461FA4C8F5F0F6743D8F-2024-11-24-20-16-00","","null","","[]","null","",""
"","","","","","image-button-response","133","2268535","0.0-16.0-1.0-0.4","2228F0078FB0461FA4C8F5F0F6743D8F","2228F0078FB0461FA4C8F5F0F6743D8F","fd376ca3-f329-48d3-ae3c-455ec98c2565","a0a8f18c-a66e-4ba7-a170-23efbdc67501","{""participantId"":""2228F0078FB0461FA4C8F5F0F6743D8F"",""assignmentId"":""fd376ca3-f329-48d3-ae3c-455ec98c2565"",""projectId"":""a0a8f18c-a66e-4ba7-a170-23efbdc67501""}","https://test12345.live/?participantId=2228F0078FB0461FA4C8F5F0F6743D8F&assignmentId=fd376ca3-f329-48d3-ae3c-455ec98c2565&projectId=a0a8f18c-a66e-4ba7-a170-23efbdc67501","2228F0078FB0461FA4C8F5F0F6743D8F-2024-11-24-20-16-00","","null","","images/schematic_sequence/restaurant_scheme/restaurant_scheme_5.png","null","",""
"","","","","","image-button-response","134","2269511","0.0-16.0-1.0-1.4","2228F0078FB0461FA4C8F5F0F6743D8F","2228F0078FB0461FA4C8F5F0F6743D8F","fd376ca3-f329-48d3-ae3c-455ec98c2565","a0a8f18c-a66e-4ba7-a170-23efbdc67501","{""participantId"":""2228F0078FB0461FA4C8F5F0F6743D8F"",""assignmentId"":""fd376ca3-f329-48d3-ae3c-455ec98c2565"",""projectId"":""a0a8f18c-a66e-4ba7-a170-23efbdc67501""}","https://test12345.live/?participantId=2228F0078FB0461FA4C8F5F0F6743D8F&assignmentId=fd376ca3-f329-48d3-ae3c-455ec98c2565&projectId=a0a8f18c-a66e-4ba7-a170-23efbdc67501","2228F0078FB0461FA4C8F5F0F6743D8F-2024-11-24-20-16-00","","974","","images/schematic_sequence/restaurant_scheme/restaurant_scheme_5.png","0","",""
"","","","","","image-button-response","135","2271324","0.0-16.0-1.0-2.4","2228F0078FB0461FA4C8F5F0F6743D8F","2228F0078FB0461FA4C8F5F0F6743D8F","fd376ca3-f329-48d3-ae3c-455ec98c2565","a0a8f18c-a66e-4ba7-a170-23efbdc67501","{""participantId"":""2228F0078FB0461FA4C8F5F0F6743D8F"",""assignmentId"":""fd376ca3-f329-48d3-ae3c-455ec98c2565"",""projectId"":""a0a8f18c-a66e-4ba7-a170-23efbdc67501""}","https://test12345.live/?participantId=2228F0078FB0461FA4C8F5F0F6743D8F&assignmentId=fd376ca3-f329-48d3-ae3c-455ec98c2565&projectId=a0a8f18c-a66e-4ba7-a170-23efbdc67501","2228F0078FB0461FA4C8F5F0F6743D8F-2024-11-24-20-16-00","","null","","[]","null","",""
"","","","","","image-button-response","136","2275841","0.0-16.0-1.0-0.5","2228F0078FB0461FA4C8F5F0F6743D8F","2228F0078FB0461FA4C8F5F0F6743D8F","fd376ca3-f329-48d3-ae3c-455ec98c2565","a0a8f18c-a66e-4ba7-a170-23efbdc67501","{""participantId"":""2228F0078FB0461FA4C8F5F0F6743D8F"",""assignmentId"":""fd376ca3-f329-48d3-ae3c-455ec98c2565"",""projectId"":""a0a8f18c-a66e-4ba7-a170-23efbdc67501""}","https://test12345.live/?participantId=2228F0078FB0461FA4C8F5F0F6743D8F&assignmentId=fd376ca3-f329-48d3-ae3c-455ec98c2565&projectId=a0a8f18c-a66e-4ba7-a170-23efbdc67501","2228F0078FB0461FA4C8F5F0F6743D8F-2024-11-24-20-16-00","","null","","images/schematic_sequence/restaurant_scheme/restaurant_scheme_6.png","null","",""
"","","","","","image-button-response","137","2277242","0.0-16.0-1.0-1.5","2228F0078FB0461FA4C8F5F0F6743D8F","2228F0078FB0461FA4C8F5F0F6743D8F","fd376ca3-f329-48d3-ae3c-455ec98c2565","a0a8f18c-a66e-4ba7-a170-23efbdc67501","{""participantId"":""2228F0078FB0461FA4C8F5F0F6743D8F"",""assignmentId"":""fd376ca3-f329-48d3-ae3c-455ec98c2565"",""projectId"":""a0a8f18c-a66e-4ba7-a170-23efbdc67501""}","https://test12345.live/?participantId=2228F0078FB0461FA4C8F5F0F6743D8F&assignmentId=fd376ca3-f329-48d3-ae3c-455ec98c2565&projectId=a0a8f18c-a66e-4ba7-a170-23efbdc67501","2228F0078FB0461FA4C8F5F0F6743D8F-2024-11-24-20-16-00","","1399","","images/schematic_sequence/restaurant_scheme/restaurant_scheme_6.png","1","",""
"","","","","","image-button-response","138","2279057","0.0-16.0-1.0-2.5","2228F0078FB0461FA4C8F5F0F6743D8F","2228F0078FB0461FA4C8F5F0F6743D8F","fd376ca3-f329-48d3-ae3c-455ec98c2565","a0a8f18c-a66e-4ba7-a170-23efbdc67501","{""participantId"":""2228F0078FB0461FA4C8F5F0F6743D8F"",""assignmentId"":""fd376ca3-f329-48d3-ae3c-455ec98c2565"",""projectId"":""a0a8f18c-a66e-4ba7-a170-23efbdc67501""}","https://test12345.live/?participantId=2228F0078FB0461FA4C8F5F0F6743D8F&assignmentId=fd376ca3-f329-48d3-ae3c-455ec98c2565&projectId=a0a8f18c-a66e-4ba7-a170-23efbdc67501","2228F0078FB0461FA4C8F5F0F6743D8F-2024-11-24-20-16-00","","null","","[]","null","",""
"","","","","","image-button-response","139","2283573","0.0-16.0-1.0-0.6","2228F0078FB0461FA4C8F5F0F6743D8F","2228F0078FB0461FA4C8F5F0F6743D8F","fd376ca3-f329-48d3-ae3c-455ec98c2565","a0a8f18c-a66e-4ba7-a170-23efbdc67501","{""participantId"":""2228F0078FB0461FA4C8F5F0F6743D8F"",""assignmentId"":""fd376ca3-f329-48d3-ae3c-455ec98c2565"",""projectId"":""a0a8f18c-a66e-4ba7-a170-23efbdc67501""}","https://test12345.live/?participantId=2228F0078FB0461FA4C8F5F0F6743D8F&assignmentId=fd376ca3-f329-48d3-ae3c-455ec98c2565&projectId=a0a8f18c-a66e-4ba7-a170-23efbdc67501","2228F0078FB0461FA4C8F5F0F6743D8F-2024-11-24-20-16-00","","null","","images/schematic_sequence/restaurant_scheme/restaurant_scheme_7.png","null","",""
"","","","","","image-button-response","140","2285130","0.0-16.0-1.0-1.6","2228F0078FB0461FA4C8F5F0F6743D8F","2228F0078FB0461FA4C8F5F0F6743D8F","fd376ca3-f329-48d3-ae3c-455ec98c2565","a0a8f18c-a66e-4ba7-a170-23efbdc67501","{""participantId"":""2228F0078FB0461FA4C8F5F0F6743D8F"",""assignmentId"":""fd376ca3-f329-48d3-ae3c-455ec98c2565"",""projectId"":""a0a8f18c-a66e-4ba7-a170-23efbdc67501""}","https://test12345.live/?participantId=2228F0078FB0461FA4C8F5F0F6743D8F&assignmentId=fd376ca3-f329-48d3-ae3c-455ec98c2565&projectId=a0a8f18c-a66e-4ba7-a170-23efbdc67501","2228F0078FB0461FA4C8F5F0F6743D8F-2024-11-24-20-16-00","","1554","","images/schematic_sequence/restaurant_scheme/restaurant_scheme_7.png","1","",""
"","","","","","image-button-response","141","2286931","0.0-16.0-1.0-2.6","2228F0078FB0461FA4C8F5F0F6743D8F","2228F0078FB0461FA4C8F5F0F6743D8F","fd376ca3-f329-48d3-ae3c-455ec98c2565","a0a8f18c-a66e-4ba7-a170-23efbdc67501","{""participantId"":""2228F0078FB0461FA4C8F5F0F6743D8F"",""assignmentId"":""fd376ca3-f329-48d3-ae3c-455ec98c2565"",""projectId"":""a0a8f18c-a66e-4ba7-a170-23efbdc67501""}","https://test12345.live/?participantId=2228F0078FB0461FA4C8F5F0F6743D8F&assignmentId=fd376ca3-f329-48d3-ae3c-455ec98c2565&projectId=a0a8f18c-a66e-4ba7-a170-23efbdc67501","2228F0078FB0461FA4C8F5F0F6743D8F-2024-11-24-20-16-00","","null","","[]","null","",""
"","","","","","image-button-response","142","2291437","0.0-16.0-1.0-0.7","2228F0078FB0461FA4C8F5F0F6743D8F","2228F0078FB0461FA4C8F5F0F6743D8F","fd376ca3-f329-48d3-ae3c-455ec98c2565","a0a8f18c-a66e-4ba7-a170-23efbdc67501","{""participantId"":""2228F0078FB0461FA4C8F5F0F6743D8F"",""assignmentId"":""fd376ca3-f329-48d3-ae3c-455ec98c2565"",""projectId"":""a0a8f18c-a66e-4ba7-a170-23efbdc67501""}","https://test12345.live/?participantId=2228F0078FB0461FA4C8F5F0F6743D8F&assignmentId=fd376ca3-f329-48d3-ae3c-455ec98c2565&projectId=a0a8f18c-a66e-4ba7-a170-23efbdc67501","2228F0078FB0461FA4C8F5F0F6743D8F-2024-11-24-20-16-00","","null","","images/schematic_sequence/restaurant_scheme/restaurant_scheme_8.png","null","",""
"","","","","","image-button-response","143","2292577","0.0-16.0-1.0-1.7","2228F0078FB0461FA4C8F5F0F6743D8F","2228F0078FB0461FA4C8F5F0F6743D8F","fd376ca3-f329-48d3-ae3c-455ec98c2565","a0a8f18c-a66e-4ba7-a170-23efbdc67501","{""participantId"":""2228F0078FB0461FA4C8F5F0F6743D8F"",""assignmentId"":""fd376ca3-f329-48d3-ae3c-455ec98c2565"",""projectId"":""a0a8f18c-a66e-4ba7-a170-23efbdc67501""}","https://test12345.live/?participantId=2228F0078FB0461FA4C8F5F0F6743D8F&assignmentId=fd376ca3-f329-48d3-ae3c-455ec98c2565&projectId=a0a8f18c-a66e-4ba7-a170-23efbdc67501","2228F0078FB0461FA4C8F5F0F6743D8F-2024-11-24-20-16-00","","1138","","images/schematic_sequence/restaurant_scheme/restaurant_scheme_8.png","1","",""
