"success","timeout","failed_images","failed_audio","failed_video","trial_type","trial_index","time_elapsed","internal_node_id","subject","subject_id","study_id","session_id","urlvar","current_url","audio_id","view_history","rt","device_id","stimulus","response","estimated_stimulus_onset","seq_name"
"true","false","[]","[]","[]","preload","0","82234","0.0-0.0","22562C21FF554B5B856E3FC2575DECB0","22562C21FF554B5B856E3FC2575DECB0","3b7fd7ef-e8b4-44dc-b972-9658a9377923","ba640c14-69c5-453e-80b2-29051492c0e0","{""num_scrambled_semantic"":""8"",""num_scrambled_causal"":""4"",""num_scrambled_schematic"":""4"",""participantId"":""22562C21FF554B5B856E3FC2575DECB0"",""assignmentId"":""3b7fd7ef-e8b4-44dc-b972-9658a9377923"",""projectId"":""ba640c14-69c5-453e-80b2-29051492c0e0""}","https://test12345.live/?num_scrambled_semantic=8&num_scrambled_causal=4&num_scrambled_schematic=4&participantId=22562C21FF554B5B856E3FC2575DECB0&assignmentId=3b7fd7ef-e8b4-44dc-b972-9658a9377923&projectId=ba640c14-69c5-453e-80b2-29051492c0e0","22562C21FF554B5B856E3FC2575DECB0-2025-05-14-22-20-10","","","","","","",""
"","","","","","instructions","1","130787","0.0-1.0","22562C21FF554B5B856E3FC2575DECB0","22562C21FF554B5B856E3FC2575DECB0","3b7fd7ef-e8b4-44dc-b972-9658a9377923","ba640c14-69c5-453e-80b2-29051492c0e0","{""num_scrambled_semantic"":""8"",""num_scrambled_causal"":""4"",""num_scrambled_schematic"":""4"",""participantId"":""22562C21FF554B5B856E3FC2575DECB0"",""assignmentId"":""3b7fd7ef-e8b4-44dc-b972-9658a9377923"",""projectId"":""ba640c14-69c5-453e-80b2-29051492c0e0""}","https://test12345.live/?num_scrambled_semantic=8&num_scrambled_causal=4&num_scrambled_schematic=4&participantId=22562C21FF554B5B856E3FC2575DECB0&assignmentId=3b7fd7ef-e8b4-44dc-b972-9658a9377923&projectId=ba640c14-69c5-453e-80b2-29051492c0e0","22562C21FF554B5B856E3FC2575DECB0-2025-05-14-22-20-10","[{""page_index"":0,""viewing_time"":48551}]","48552","","","","",""
"","","","","","instructions","2","151000","0.0-2.0","22562C21FF554B5B856E3FC2575DECB0","22562C21FF554B5B856E3FC2575DECB0","3b7fd7ef-e8b4-44dc-b972-9658a9377923","ba640c14-69c5-453e-80b2-29051492c0e0","{""num_scrambled_semantic"":""8"",""num_scrambled_causal"":""4"",""num_scrambled_schematic"":""4"",""participantId"":""22562C21FF554B5B856E3FC2575DECB0"",""assignmentId"":""3b7fd7ef-e8b4-44dc-b972-9658a9377923"",""projectId"":""ba640c14-69c5-453e-80b2-29051492c0e0""}","https://test12345.live/?num_scrambled_semantic=8&num_scrambled_causal=4&num_scrambled_schematic=4&participantId=22562C21FF554B5B856E3FC2575DECB0&assignmentId=3b7fd7ef-e8b4-44dc-b972-9658a9377923&projectId=ba640c14-69c5-453e-80b2-29051492c0e0","22562C21FF554B5B856E3FC2575DECB0-2025-05-14-22-20-10","[{""page_index"":0,""viewing_time"":20212}]","20213","","","","",""
"true","","","","","fullscreen","3","154595","0.0-3.0","22562C21FF554B5B856E3FC2575DECB0","22562C21FF554B5B856E3FC2575DECB0","3b7fd7ef-e8b4-44dc-b972-9658a9377923","ba640c14-69c5-453e-80b2-29051492c0e0","{""num_scrambled_semantic"":""8"",""num_scrambled_causal"":""4"",""num_scrambled_schematic"":""4"",""participantId"":""22562C21FF554B5B856E3FC2575DECB0"",""assignmentId"":""3b7fd7ef-e8b4-44dc-b972-9658a9377923"",""projectId"":""ba640c14-69c5-453e-80b2-29051492c0e0""}","https://test12345.live/?num_scrambled_semantic=8&num_scrambled_causal=4&num_scrambled_schematic=4&participantId=22562C21FF554B5B856E3FC2575DECB0&assignmentId=3b7fd7ef-e8b4-44dc-b972-9658a9377923&projectId=ba640c14-69c5-453e-80b2-29051492c0e0","22562C21FF554B5B856E3FC2575DECB0-2025-05-14-22-20-10","","2581","","","","",""
"","","","","","initialize-microphone","4","190185","0.0-4.0-0.0","22562C21FF554B5B856E3FC2575DECB0","22562C21FF554B5B856E3FC2575DECB0","3b7fd7ef-e8b4-44dc-b972-9658a9377923","ba640c14-69c5-453e-80b2-29051492c0e0","{""num_scrambled_semantic"":""8"",""num_scrambled_causal"":""4"",""num_scrambled_schematic"":""4"",""participantId"":""22562C21FF554B5B856E3FC2575DECB0"",""assignmentId"":""3b7fd7ef-e8b4-44dc-b972-9658a9377923"",""projectId"":""ba640c14-69c5-453e-80b2-29051492c0e0""}","https://test12345.live/?num_scrambled_semantic=8&num_scrambled_causal=4&num_scrambled_schematic=4&participantId=22562C21FF554B5B856E3FC2575DECB0&assignmentId=3b7fd7ef-e8b4-44dc-b972-9658a9377923&projectId=ba640c14-69c5-453e-80b2-29051492c0e0","22562C21FF554B5B856E3FC2575DECB0-2025-05-14-22-20-10","","","8c75b77c63210cef23f3bf1119377be4b931378b52a14d3a4cfb62bb5b175ae7","","","",""
"","","","","","html-audio-response","5","205263","0.0-4.0-1.0","22562C21FF554B5B856E3FC2575DECB0","22562C21FF554B5B856E3FC2575DECB0","3b7fd7ef-e8b4-44dc-b972-9658a9377923","ba640c14-69c5-453e-80b2-29051492c0e0","{""num_scrambled_semantic"":""8"",""num_scrambled_causal"":""4"",""num_scrambled_schematic"":""4"",""participantId"":""22562C21FF554B5B856E3FC2575DECB0"",""assignmentId"":""3b7fd7ef-e8b4-44dc-b972-9658a9377923"",""projectId"":""ba640c14-69c5-453e-80b2-29051492c0e0""}","https://test12345.live/?num_scrambled_semantic=8&num_scrambled_causal=4&num_scrambled_schematic=4&participantId=22562C21FF554B5B856E3FC2575DECB0&assignmentId=3b7fd7ef-e8b4-44dc-b972-9658a9377923&projectId=ba640c14-69c5-453e-80b2-29051492c0e0","22562C21FF554B5B856E3FC2575DECB0-2025-05-14-22-20-10","","6368","","<span style=""color: red; font-size: 24px""> NOW RECORDING</span>
        <p>Please test Microphone</p>","","22",""
"","","","","","html-button-response","6","207545","0.0-4.0-2.0","22562C21FF554B5B856E3FC2575DECB0","22562C21FF554B5B856E3FC2575DECB0","3b7fd7ef-e8b4-44dc-b972-9658a9377923","ba640c14-69c5-453e-80b2-29051492c0e0","{""num_scrambled_semantic"":""8"",""num_scrambled_causal"":""4"",""num_scrambled_schematic"":""4"",""participantId"":""22562C21FF554B5B856E3FC2575DECB0"",""assignmentId"":""3b7fd7ef-e8b4-44dc-b972-9658a9377923"",""projectId"":""ba640c14-69c5-453e-80b2-29051492c0e0""}","https://test12345.live/?num_scrambled_semantic=8&num_scrambled_causal=4&num_scrambled_schematic=4&participantId=22562C21FF554B5B856E3FC2575DECB0&assignmentId=3b7fd7ef-e8b4-44dc-b972-9658a9377923&projectId=ba640c14-69c5-453e-80b2-29051492c0e0","22562C21FF554B5B856E3FC2575DECB0-2025-05-14-22-20-10","","2276","","<p style=""font-size:48px; color:red;"">Is Microphone OK?</p>","1","",""
"","","","","","instructions","7","220822","0.0-5.0","22562C21FF554B5B856E3FC2575DECB0","22562C21FF554B5B856E3FC2575DECB0","3b7fd7ef-e8b4-44dc-b972-9658a9377923","ba640c14-69c5-453e-80b2-29051492c0e0","{""num_scrambled_semantic"":""8"",""num_scrambled_causal"":""4"",""num_scrambled_schematic"":""4"",""participantId"":""22562C21FF554B5B856E3FC2575DECB0"",""assignmentId"":""3b7fd7ef-e8b4-44dc-b972-9658a9377923"",""projectId"":""ba640c14-69c5-453e-80b2-29051492c0e0""}","https://test12345.live/?num_scrambled_semantic=8&num_scrambled_causal=4&num_scrambled_schematic=4&participantId=22562C21FF554B5B856E3FC2575DECB0&assignmentId=3b7fd7ef-e8b4-44dc-b972-9658a9377923&projectId=ba640c14-69c5-453e-80b2-29051492c0e0","22562C21FF554B5B856E3FC2575DECB0-2025-05-14-22-20-10","[{""page_index"":0,""viewing_time"":5303},{""page_index"":1,""viewing_time"":7971}]","13274","","","","",""
"","","","","","image-button-response","8","226842","0.0-6.0-0.0","22562C21FF554B5B856E3FC2575DECB0","22562C21FF554B5B856E3FC2575DECB0","3b7fd7ef-e8b4-44dc-b972-9658a9377923","ba640c14-69c5-453e-80b2-29051492c0e0","{""num_scrambled_semantic"":""8"",""num_scrambled_causal"":""4"",""num_scrambled_schematic"":""4"",""participantId"":""22562C21FF554B5B856E3FC2575DECB0"",""assignmentId"":""3b7fd7ef-e8b4-44dc-b972-9658a9377923"",""projectId"":""ba640c14-69c5-453e-80b2-29051492c0e0""}","https://test12345.live/?num_scrambled_semantic=8&num_scrambled_causal=4&num_scrambled_schematic=4&participantId=22562C21FF554B5B856E3FC2575DECB0&assignmentId=3b7fd7ef-e8b4-44dc-b972-9658a9377923&projectId=ba640c14-69c5-453e-80b2-29051492c0e0","22562C21FF554B5B856E3FC2575DECB0-2025-05-14-22-20-10","","null","","images/instructions/movie_0.png","null","",""
"","","","","","image-button-response","9","231362","0.0-6.0-1.0-0.0","22562C21FF554B5B856E3FC2575DECB0","22562C21FF554B5B856E3FC2575DECB0","3b7fd7ef-e8b4-44dc-b972-9658a9377923","ba640c14-69c5-453e-80b2-29051492c0e0","{""num_scrambled_semantic"":""8"",""num_scrambled_causal"":""4"",""num_scrambled_schematic"":""4"",""participantId"":""22562C21FF554B5B856E3FC2575DECB0"",""assignmentId"":""3b7fd7ef-e8b4-44dc-b972-9658a9377923"",""projectId"":""ba640c14-69c5-453e-80b2-29051492c0e0""}","https://test12345.live/?num_scrambled_semantic=8&num_scrambled_causal=4&num_scrambled_schematic=4&participantId=22562C21FF554B5B856E3FC2575DECB0&assignmentId=3b7fd7ef-e8b4-44dc-b972-9658a9377923&projectId=ba640c14-69c5-453e-80b2-29051492c0e0","22562C21FF554B5B856E3FC2575DECB0-2025-05-14-22-20-10","","null","","images/instructions/movie_1.png","null","",""
"","","","","","image-button-response","10","233108","0.0-6.0-1.0-1.0","22562C21FF554B5B856E3FC2575DECB0","22562C21FF554B5B856E3FC2575DECB0","3b7fd7ef-e8b4-44dc-b972-9658a9377923","ba640c14-69c5-453e-80b2-29051492c0e0","{""num_scrambled_semantic"":""8"",""num_scrambled_causal"":""4"",""num_scrambled_schematic"":""4"",""participantId"":""22562C21FF554B5B856E3FC2575DECB0"",""assignmentId"":""3b7fd7ef-e8b4-44dc-b972-9658a9377923"",""projectId"":""ba640c14-69c5-453e-80b2-29051492c0e0""}","https://test12345.live/?num_scrambled_semantic=8&num_scrambled_causal=4&num_scrambled_schematic=4&participantId=22562C21FF554B5B856E3FC2575DECB0&assignmentId=3b7fd7ef-e8b4-44dc-b972-9658a9377923&projectId=ba640c14-69c5-453e-80b2-29051492c0e0","22562C21FF554B5B856E3FC2575DECB0-2025-05-14-22-20-10","","1743","","images/instructions/movie_1.png","0","",""
"","","","","","image-button-response","11","234927","0.0-6.0-1.0-2.0","22562C21FF554B5B856E3FC2575DECB0","22562C21FF554B5B856E3FC2575DECB0","3b7fd7ef-e8b4-44dc-b972-9658a9377923","ba640c14-69c5-453e-80b2-29051492c0e0","{""num_scrambled_semantic"":""8"",""num_scrambled_causal"":""4"",""num_scrambled_schematic"":""4"",""participantId"":""22562C21FF554B5B856E3FC2575DECB0"",""assignmentId"":""3b7fd7ef-e8b4-44dc-b972-9658a9377923"",""projectId"":""ba640c14-69c5-453e-80b2-29051492c0e0""}","https://test12345.live/?num_scrambled_semantic=8&num_scrambled_causal=4&num_scrambled_schematic=4&participantId=22562C21FF554B5B856E3FC2575DECB0&assignmentId=3b7fd7ef-e8b4-44dc-b972-9658a9377923&projectId=ba640c14-69c5-453e-80b2-29051492c0e0","22562C21FF554B5B856E3FC2575DECB0-2025-05-14-22-20-10","","null","","[]","null","",""
"","","","","","image-button-response","12","239442","0.0-6.0-1.0-0.1","22562C21FF554B5B856E3FC2575DECB0","22562C21FF554B5B856E3FC2575DECB0","3b7fd7ef-e8b4-44dc-b972-9658a9377923","ba640c14-69c5-453e-80b2-29051492c0e0","{""num_scrambled_semantic"":""8"",""num_scrambled_causal"":""4"",""num_scrambled_schematic"":""4"",""participantId"":""22562C21FF554B5B856E3FC2575DECB0"",""assignmentId"":""3b7fd7ef-e8b4-44dc-b972-9658a9377923"",""projectId"":""ba640c14-69c5-453e-80b2-29051492c0e0""}","https://test12345.live/?num_scrambled_semantic=8&num_scrambled_causal=4&num_scrambled_schematic=4&participantId=22562C21FF554B5B856E3FC2575DECB0&assignmentId=3b7fd7ef-e8b4-44dc-b972-9658a9377923&projectId=ba640c14-69c5-453e-80b2-29051492c0e0","22562C21FF554B5B856E3FC2575DECB0-2025-05-14-22-20-10","","null","","images/instructions/movie_2.png","null","",""
"","","","","","image-button-response","13","242107","0.0-6.0-1.0-1.1","22562C21FF554B5B856E3FC2575DECB0","22562C21FF554B5B856E3FC2575DECB0","3b7fd7ef-e8b4-44dc-b972-9658a9377923","ba640c14-69c5-453e-80b2-29051492c0e0","{""num_scrambled_semantic"":""8"",""num_scrambled_causal"":""4"",""num_scrambled_schematic"":""4"",""participantId"":""22562C21FF554B5B856E3FC2575DECB0"",""assignmentId"":""3b7fd7ef-e8b4-44dc-b972-9658a9377923"",""projectId"":""ba640c14-69c5-453e-80b2-29051492c0e0""}","https://test12345.live/?num_scrambled_semantic=8&num_scrambled_causal=4&num_scrambled_schematic=4&participantId=22562C21FF554B5B856E3FC2575DECB0&assignmentId=3b7fd7ef-e8b4-44dc-b972-9658a9377923&projectId=ba640c14-69c5-453e-80b2-29051492c0e0","22562C21FF554B5B856E3FC2575DECB0-2025-05-14-22-20-10","","2661","","images/instructions/movie_2.png","0","",""
"","","","","","image-button-response","14","243914","0.0-6.0-1.0-2.1","22562C21FF554B5B856E3FC2575DECB0","22562C21FF554B5B856E3FC2575DECB0","3b7fd7ef-e8b4-44dc-b972-9658a9377923","ba640c14-69c5-453e-80b2-29051492c0e0","{""num_scrambled_semantic"":""8"",""num_scrambled_causal"":""4"",""num_scrambled_schematic"":""4"",""participantId"":""22562C21FF554B5B856E3FC2575DECB0"",""assignmentId"":""3b7fd7ef-e8b4-44dc-b972-9658a9377923"",""projectId"":""ba640c14-69c5-453e-80b2-29051492c0e0""}","https://test12345.live/?num_scrambled_semantic=8&num_scrambled_causal=4&num_scrambled_schematic=4&participantId=22562C21FF554B5B856E3FC2575DECB0&assignmentId=3b7fd7ef-e8b4-44dc-b972-9658a9377923&projectId=ba640c14-69c5-453e-80b2-29051492c0e0","22562C21FF554B5B856E3FC2575DECB0-2025-05-14-22-20-10","","null","","[]","null","",""
"","","","","","image-button-response","15","248422","0.0-6.0-1.0-0.2","22562C21FF554B5B856E3FC2575DECB0","22562C21FF554B5B856E3FC2575DECB0","3b7fd7ef-e8b4-44dc-b972-9658a9377923","ba640c14-69c5-453e-80b2-29051492c0e0","{""num_scrambled_semantic"":""8"",""num_scrambled_causal"":""4"",""num_scrambled_schematic"":""4"",""participantId"":""22562C21FF554B5B856E3FC2575DECB0"",""assignmentId"":""3b7fd7ef-e8b4-44dc-b972-9658a9377923"",""projectId"":""ba640c14-69c5-453e-80b2-29051492c0e0""}","https://test12345.live/?num_scrambled_semantic=8&num_scrambled_causal=4&num_scrambled_schematic=4&participantId=22562C21FF554B5B856E3FC2575DECB0&assignmentId=3b7fd7ef-e8b4-44dc-b972-9658a9377923&projectId=ba640c14-69c5-453e-80b2-29051492c0e0","22562C21FF554B5B856E3FC2575DECB0-2025-05-14-22-20-10","","null","","images/instructions/movie_3.png","null","",""
"","","","","","image-button-response","16","249931","0.0-6.0-1.0-1.2","22562C21FF554B5B856E3FC2575DECB0","22562C21FF554B5B856E3FC2575DECB0","3b7fd7ef-e8b4-44dc-b972-9658a9377923","ba640c14-69c5-453e-80b2-29051492c0e0","{""num_scrambled_semantic"":""8"",""num_scrambled_causal"":""4"",""num_scrambled_schematic"":""4"",""participantId"":""22562C21FF554B5B856E3FC2575DECB0"",""assignmentId"":""3b7fd7ef-e8b4-44dc-b972-9658a9377923"",""projectId"":""ba640c14-69c5-453e-80b2-29051492c0e0""}","https://test12345.live/?num_scrambled_semantic=8&num_scrambled_causal=4&num_scrambled_schematic=4&participantId=22562C21FF554B5B856E3FC2575DECB0&assignmentId=3b7fd7ef-e8b4-44dc-b972-9658a9377923&projectId=ba640c14-69c5-453e-80b2-29051492c0e0","22562C21FF554B5B856E3FC2575DECB0-2025-05-14-22-20-10","","1492","","images/instructions/movie_3.png","0","",""
"","","","","","image-button-response","17","251752","0.0-6.0-1.0-2.2","22562C21FF554B5B856E3FC2575DECB0","22562C21FF554B5B856E3FC2575DECB0","3b7fd7ef-e8b4-44dc-b972-9658a9377923","ba640c14-69c5-453e-80b2-29051492c0e0","{""num_scrambled_semantic"":""8"",""num_scrambled_causal"":""4"",""num_scrambled_schematic"":""4"",""participantId"":""22562C21FF554B5B856E3FC2575DECB0"",""assignmentId"":""3b7fd7ef-e8b4-44dc-b972-9658a9377923"",""projectId"":""ba640c14-69c5-453e-80b2-29051492c0e0""}","https://test12345.live/?num_scrambled_semantic=8&num_scrambled_causal=4&num_scrambled_schematic=4&participantId=22562C21FF554B5B856E3FC2575DECB0&assignmentId=3b7fd7ef-e8b4-44dc-b972-9658a9377923&projectId=ba640c14-69c5-453e-80b2-29051492c0e0","22562C21FF554B5B856E3FC2575DECB0-2025-05-14-22-20-10","","null","","[]","null","",""
"","","","","","image-button-response","18","256258","0.0-6.0-1.0-0.3","22562C21FF554B5B856E3FC2575DECB0","22562C21FF554B5B856E3FC2575DECB0","3b7fd7ef-e8b4-44dc-b972-9658a9377923","ba640c14-69c5-453e-80b2-29051492c0e0","{""num_scrambled_semantic"":""8"",""num_scrambled_causal"":""4"",""num_scrambled_schematic"":""4"",""participantId"":""22562C21FF554B5B856E3FC2575DECB0"",""assignmentId"":""3b7fd7ef-e8b4-44dc-b972-9658a9377923"",""projectId"":""ba640c14-69c5-453e-80b2-29051492c0e0""}","https://test12345.live/?num_scrambled_semantic=8&num_scrambled_causal=4&num_scrambled_schematic=4&participantId=22562C21FF554B5B856E3FC2575DECB0&assignmentId=3b7fd7ef-e8b4-44dc-b972-9658a9377923&projectId=ba640c14-69c5-453e-80b2-29051492c0e0","22562C21FF554B5B856E3FC2575DECB0-2025-05-14-22-20-10","","null","","images/instructions/movie_4.png","null","",""
"","","","","","image-button-response","19","257447","0.0-6.0-1.0-1.3","22562C21FF554B5B856E3FC2575DECB0","22562C21FF554B5B856E3FC2575DECB0","3b7fd7ef-e8b4-44dc-b972-9658a9377923","ba640c14-69c5-453e-80b2-29051492c0e0","{""num_scrambled_semantic"":""8"",""num_scrambled_causal"":""4"",""num_scrambled_schematic"":""4"",""participantId"":""22562C21FF554B5B856E3FC2575DECB0"",""assignmentId"":""3b7fd7ef-e8b4-44dc-b972-9658a9377923"",""projectId"":""ba640c14-69c5-453e-80b2-29051492c0e0""}","https://test12345.live/?num_scrambled_semantic=8&num_scrambled_causal=4&num_scrambled_schematic=4&participantId=22562C21FF554B5B856E3FC2575DECB0&assignmentId=3b7fd7ef-e8b4-44dc-b972-9658a9377923&projectId=ba640c14-69c5-453e-80b2-29051492c0e0","22562C21FF554B5B856E3FC2575DECB0-2025-05-14-22-20-10","","1184","","images/instructions/movie_4.png","0","",""
"","","","","","image-button-response","20","259260","0.0-6.0-1.0-2.3","22562C21FF554B5B856E3FC2575DECB0","22562C21FF554B5B856E3FC2575DECB0","3b7fd7ef-e8b4-44dc-b972-9658a9377923","ba640c14-69c5-453e-80b2-29051492c0e0","{""num_scrambled_semantic"":""8"",""num_scrambled_causal"":""4"",""num_scrambled_schematic"":""4"",""participantId"":""22562C21FF554B5B856E3FC2575DECB0"",""assignmentId"":""3b7fd7ef-e8b4-44dc-b972-9658a9377923"",""projectId"":""ba640c14-69c5-453e-80b2-29051492c0e0""}","https://test12345.live/?num_scrambled_semantic=8&num_scrambled_causal=4&num_scrambled_schematic=4&participantId=22562C21FF554B5B856E3FC2575DECB0&assignmentId=3b7fd7ef-e8b4-44dc-b972-9658a9377923&projectId=ba640c14-69c5-453e-80b2-29051492c0e0","22562C21FF554B5B856E3FC2575DECB0-2025-05-14-22-20-10","","null","","[]","null","",""
"","","","","","instructions","21","271265","0.0-7.0","22562C21FF554B5B856E3FC2575DECB0","22562C21FF554B5B856E3FC2575DECB0","3b7fd7ef-e8b4-44dc-b972-9658a9377923","ba640c14-69c5-453e-80b2-29051492c0e0","{""num_scrambled_semantic"":""8"",""num_scrambled_causal"":""4"",""num_scrambled_schematic"":""4"",""participantId"":""22562C21FF554B5B856E3FC2575DECB0"",""assignmentId"":""3b7fd7ef-e8b4-44dc-b972-9658a9377923"",""projectId"":""ba640c14-69c5-453e-80b2-29051492c0e0""}","https://test12345.live/?num_scrambled_semantic=8&num_scrambled_causal=4&num_scrambled_schematic=4&participantId=22562C21FF554B5B856E3FC2575DECB0&assignmentId=3b7fd7ef-e8b4-44dc-b972-9658a9377923&projectId=ba640c14-69c5-453e-80b2-29051492c0e0","22562C21FF554B5B856E3FC2575DECB0-2025-05-14-22-20-10","[{""page_index"":0,""viewing_time"":10435},{""page_index"":1,""viewing_time"":1567}]","12002","","","","",""
"","","","","","html-audio-response","22","318681","0.0-8.0","22562C21FF554B5B856E3FC2575DECB0","22562C21FF554B5B856E3FC2575DECB0","3b7fd7ef-e8b4-44dc-b972-9658a9377923","ba640c14-69c5-453e-80b2-29051492c0e0","{""num_scrambled_semantic"":""8"",""num_scrambled_causal"":""4"",""num_scrambled_schematic"":""4"",""participantId"":""22562C21FF554B5B856E3FC2575DECB0"",""assignmentId"":""3b7fd7ef-e8b4-44dc-b972-9658a9377923"",""projectId"":""ba640c14-69c5-453e-80b2-29051492c0e0""}","https://test12345.live/?num_scrambled_semantic=8&num_scrambled_causal=4&num_scrambled_schematic=4&participantId=22562C21FF554B5B856E3FC2575DECB0&assignmentId=3b7fd7ef-e8b4-44dc-b972-9658a9377923&projectId=ba640c14-69c5-453e-80b2-29051492c0e0","22562C21FF554B5B856E3FC2575DECB0-2025-05-14-22-20-10","","18090","","[""<span style=\""color: red; font-size: 24px\""> NOW RECORDING</span><p>Please say out loud all the images you saw, as many as you can remember. The images can be said in any order.</p>""]","","5",""
"","","","","","instructions","23","323245","0.0-9.0","22562C21FF554B5B856E3FC2575DECB0","22562C21FF554B5B856E3FC2575DECB0","3b7fd7ef-e8b4-44dc-b972-9658a9377923","ba640c14-69c5-453e-80b2-29051492c0e0","{""num_scrambled_semantic"":""8"",""num_scrambled_causal"":""4"",""num_scrambled_schematic"":""4"",""participantId"":""22562C21FF554B5B856E3FC2575DECB0"",""assignmentId"":""3b7fd7ef-e8b4-44dc-b972-9658a9377923"",""projectId"":""ba640c14-69c5-453e-80b2-29051492c0e0""}","https://test12345.live/?num_scrambled_semantic=8&num_scrambled_causal=4&num_scrambled_schematic=4&participantId=22562C21FF554B5B856E3FC2575DECB0&assignmentId=3b7fd7ef-e8b4-44dc-b972-9658a9377923&projectId=ba640c14-69c5-453e-80b2-29051492c0e0","22562C21FF554B5B856E3FC2575DECB0-2025-05-14-22-20-10","[{""page_index"":0,""viewing_time"":4543}]","4543","","","","",""
"","","","","","image-button-response","24","329249","0.0-10.0-0.0","22562C21FF554B5B856E3FC2575DECB0","22562C21FF554B5B856E3FC2575DECB0","3b7fd7ef-e8b4-44dc-b972-9658a9377923","ba640c14-69c5-453e-80b2-29051492c0e0","{""num_scrambled_semantic"":""8"",""num_scrambled_causal"":""4"",""num_scrambled_schematic"":""4"",""participantId"":""22562C21FF554B5B856E3FC2575DECB0"",""assignmentId"":""3b7fd7ef-e8b4-44dc-b972-9658a9377923"",""projectId"":""ba640c14-69c5-453e-80b2-29051492c0e0""}","https://test12345.live/?num_scrambled_semantic=8&num_scrambled_causal=4&num_scrambled_schematic=4&participantId=22562C21FF554B5B856E3FC2575DECB0&assignmentId=3b7fd7ef-e8b4-44dc-b972-9658a9377923&projectId=ba640c14-69c5-453e-80b2-29051492c0e0","22562C21FF554B5B856E3FC2575DECB0-2025-05-14-22-20-10","","null","","images/semantic_sequence/self_care_activities_semantic/self_care_activities_semantic_0.png","null","",""
"","","","","","image-button-response","25","333758","0.0-10.0-1.0-0.0","22562C21FF554B5B856E3FC2575DECB0","22562C21FF554B5B856E3FC2575DECB0","3b7fd7ef-e8b4-44dc-b972-9658a9377923","ba640c14-69c5-453e-80b2-29051492c0e0","{""num_scrambled_semantic"":""8"",""num_scrambled_causal"":""4"",""num_scrambled_schematic"":""4"",""participantId"":""22562C21FF554B5B856E3FC2575DECB0"",""assignmentId"":""3b7fd7ef-e8b4-44dc-b972-9658a9377923"",""projectId"":""ba640c14-69c5-453e-80b2-29051492c0e0""}","https://test12345.live/?num_scrambled_semantic=8&num_scrambled_causal=4&num_scrambled_schematic=4&participantId=22562C21FF554B5B856E3FC2575DECB0&assignmentId=3b7fd7ef-e8b4-44dc-b972-9658a9377923&projectId=ba640c14-69c5-453e-80b2-29051492c0e0","22562C21FF554B5B856E3FC2575DECB0-2025-05-14-22-20-10","","null","","images/semantic_sequence/self_care_activities_semantic/self_care_activities_semantic_4.png","null","",""
"","","","","","image-button-response","26","335832","0.0-10.0-1.0-1.0","22562C21FF554B5B856E3FC2575DECB0","22562C21FF554B5B856E3FC2575DECB0","3b7fd7ef-e8b4-44dc-b972-9658a9377923","ba640c14-69c5-453e-80b2-29051492c0e0","{""num_scrambled_semantic"":""8"",""num_scrambled_causal"":""4"",""num_scrambled_schematic"":""4"",""participantId"":""22562C21FF554B5B856E3FC2575DECB0"",""assignmentId"":""3b7fd7ef-e8b4-44dc-b972-9658a9377923"",""projectId"":""ba640c14-69c5-453e-80b2-29051492c0e0""}","https://test12345.live/?num_scrambled_semantic=8&num_scrambled_causal=4&num_scrambled_schematic=4&participantId=22562C21FF554B5B856E3FC2575DECB0&assignmentId=3b7fd7ef-e8b4-44dc-b972-9658a9377923&projectId=ba640c14-69c5-453e-80b2-29051492c0e0","22562C21FF554B5B856E3FC2575DECB0-2025-05-14-22-20-10","","2071","","images/semantic_sequence/self_care_activities_semantic/self_care_activities_semantic_4.png","0","",""
"","","","","","image-button-response","27","337642","0.0-10.0-1.0-2.0","22562C21FF554B5B856E3FC2575DECB0","22562C21FF554B5B856E3FC2575DECB0","3b7fd7ef-e8b4-44dc-b972-9658a9377923","ba640c14-69c5-453e-80b2-29051492c0e0","{""num_scrambled_semantic"":""8"",""num_scrambled_causal"":""4"",""num_scrambled_schematic"":""4"",""participantId"":""22562C21FF554B5B856E3FC2575DECB0"",""assignmentId"":""3b7fd7ef-e8b4-44dc-b972-9658a9377923"",""projectId"":""ba640c14-69c5-453e-80b2-29051492c0e0""}","https://test12345.live/?num_scrambled_semantic=8&num_scrambled_causal=4&num_scrambled_schematic=4&participantId=22562C21FF554B5B856E3FC2575DECB0&assignmentId=3b7fd7ef-e8b4-44dc-b972-9658a9377923&projectId=ba640c14-69c5-453e-80b2-29051492c0e0","22562C21FF554B5B856E3FC2575DECB0-2025-05-14-22-20-10","","null","","[]","null","",""
"","","","","","image-button-response","28","342157","0.0-10.0-1.0-0.1","22562C21FF554B5B856E3FC2575DECB0","22562C21FF554B5B856E3FC2575DECB0","3b7fd7ef-e8b4-44dc-b972-9658a9377923","ba640c14-69c5-453e-80b2-29051492c0e0","{""num_scrambled_semantic"":""8"",""num_scrambled_causal"":""4"",""num_scrambled_schematic"":""4"",""participantId"":""22562C21FF554B5B856E3FC2575DECB0"",""assignmentId"":""3b7fd7ef-e8b4-44dc-b972-9658a9377923"",""projectId"":""ba640c14-69c5-453e-80b2-29051492c0e0""}","https://test12345.live/?num_scrambled_semantic=8&num_scrambled_causal=4&num_scrambled_schematic=4&participantId=22562C21FF554B5B856E3FC2575DECB0&assignmentId=3b7fd7ef-e8b4-44dc-b972-9658a9377923&projectId=ba640c14-69c5-453e-80b2-29051492c0e0","22562C21FF554B5B856E3FC2575DECB0-2025-05-14-22-20-10","","null","","images/semantic_sequence/self_care_activities_semantic/self_care_activities_semantic_3.png","null","",""
"","","","","","image-button-response","29","342993","0.0-10.0-1.0-1.1","22562C21FF554B5B856E3FC2575DECB0","22562C21FF554B5B856E3FC2575DECB0","3b7fd7ef-e8b4-44dc-b972-9658a9377923","ba640c14-69c5-453e-80b2-29051492c0e0","{""num_scrambled_semantic"":""8"",""num_scrambled_causal"":""4"",""num_scrambled_schematic"":""4"",""participantId"":""22562C21FF554B5B856E3FC2575DECB0"",""assignmentId"":""3b7fd7ef-e8b4-44dc-b972-9658a9377923"",""projectId"":""ba640c14-69c5-453e-80b2-29051492c0e0""}","https://test12345.live/?num_scrambled_semantic=8&num_scrambled_causal=4&num_scrambled_schematic=4&participantId=22562C21FF554B5B856E3FC2575DECB0&assignmentId=3b7fd7ef-e8b4-44dc-b972-9658a9377923&projectId=ba640c14-69c5-453e-80b2-29051492c0e0","22562C21FF554B5B856E3FC2575DECB0-2025-05-14-22-20-10","","834","","images/semantic_sequence/self_care_activities_semantic/self_care_activities_semantic_3.png","0","",""
"","","","","","image-button-response","30","344803","0.0-10.0-1.0-2.1","22562C21FF554B5B856E3FC2575DECB0","22562C21FF554B5B856E3FC2575DECB0","3b7fd7ef-e8b4-44dc-b972-9658a9377923","ba640c14-69c5-453e-80b2-29051492c0e0","{""num_scrambled_semantic"":""8"",""num_scrambled_causal"":""4"",""num_scrambled_schematic"":""4"",""participantId"":""22562C21FF554B5B856E3FC2575DECB0"",""assignmentId"":""3b7fd7ef-e8b4-44dc-b972-9658a9377923"",""projectId"":""ba640c14-69c5-453e-80b2-29051492c0e0""}","https://test12345.live/?num_scrambled_semantic=8&num_scrambled_causal=4&num_scrambled_schematic=4&participantId=22562C21FF554B5B856E3FC2575DECB0&assignmentId=3b7fd7ef-e8b4-44dc-b972-9658a9377923&projectId=ba640c14-69c5-453e-80b2-29051492c0e0","22562C21FF554B5B856E3FC2575DECB0-2025-05-14-22-20-10","","null","","[]","null","",""
"","","","","","image-button-response","31","349313","0.0-10.0-1.0-0.2","22562C21FF554B5B856E3FC2575DECB0","22562C21FF554B5B856E3FC2575DECB0","3b7fd7ef-e8b4-44dc-b972-9658a9377923","ba640c14-69c5-453e-80b2-29051492c0e0","{""num_scrambled_semantic"":""8"",""num_scrambled_causal"":""4"",""num_scrambled_schematic"":""4"",""participantId"":""22562C21FF554B5B856E3FC2575DECB0"",""assignmentId"":""3b7fd7ef-e8b4-44dc-b972-9658a9377923"",""projectId"":""ba640c14-69c5-453e-80b2-29051492c0e0""}","https://test12345.live/?num_scrambled_semantic=8&num_scrambled_causal=4&num_scrambled_schematic=4&participantId=22562C21FF554B5B856E3FC2575DECB0&assignmentId=3b7fd7ef-e8b4-44dc-b972-9658a9377923&projectId=ba640c14-69c5-453e-80b2-29051492c0e0","22562C21FF554B5B856E3FC2575DECB0-2025-05-14-22-20-10","","null","","images/semantic_sequence/self_care_activities_semantic/self_care_activities_semantic_ten.png","null","",""
"","","","","","image-button-response","32","350396","0.0-10.0-1.0-1.2","22562C21FF554B5B856E3FC2575DECB0","22562C21FF554B5B856E3FC2575DECB0","3b7fd7ef-e8b4-44dc-b972-9658a9377923","ba640c14-69c5-453e-80b2-29051492c0e0","{""num_scrambled_semantic"":""8"",""num_scrambled_causal"":""4"",""num_scrambled_schematic"":""4"",""participantId"":""22562C21FF554B5B856E3FC2575DECB0"",""assignmentId"":""3b7fd7ef-e8b4-44dc-b972-9658a9377923"",""projectId"":""ba640c14-69c5-453e-80b2-29051492c0e0""}","https://test12345.live/?num_scrambled_semantic=8&num_scrambled_causal=4&num_scrambled_schematic=4&participantId=22562C21FF554B5B856E3FC2575DECB0&assignmentId=3b7fd7ef-e8b4-44dc-b972-9658a9377923&projectId=ba640c14-69c5-453e-80b2-29051492c0e0","22562C21FF554B5B856E3FC2575DECB0-2025-05-14-22-20-10","","1079","","images/semantic_sequence/self_care_activities_semantic/self_care_activities_semantic_ten.png","0","",""
"","","","","","image-button-response","33","352205","0.0-10.0-1.0-2.2","22562C21FF554B5B856E3FC2575DECB0","22562C21FF554B5B856E3FC2575DECB0","3b7fd7ef-e8b4-44dc-b972-9658a9377923","ba640c14-69c5-453e-80b2-29051492c0e0","{""num_scrambled_semantic"":""8"",""num_scrambled_causal"":""4"",""num_scrambled_schematic"":""4"",""participantId"":""22562C21FF554B5B856E3FC2575DECB0"",""assignmentId"":""3b7fd7ef-e8b4-44dc-b972-9658a9377923"",""projectId"":""ba640c14-69c5-453e-80b2-29051492c0e0""}","https://test12345.live/?num_scrambled_semantic=8&num_scrambled_causal=4&num_scrambled_schematic=4&participantId=22562C21FF554B5B856E3FC2575DECB0&assignmentId=3b7fd7ef-e8b4-44dc-b972-9658a9377923&projectId=ba640c14-69c5-453e-80b2-29051492c0e0","22562C21FF554B5B856E3FC2575DECB0-2025-05-14-22-20-10","","null","","[]","null","",""
"","","","","","image-button-response","34","356726","0.0-10.0-1.0-0.3","22562C21FF554B5B856E3FC2575DECB0","22562C21FF554B5B856E3FC2575DECB0","3b7fd7ef-e8b4-44dc-b972-9658a9377923","ba640c14-69c5-453e-80b2-29051492c0e0","{""num_scrambled_semantic"":""8"",""num_scrambled_causal"":""4"",""num_scrambled_schematic"":""4"",""participantId"":""22562C21FF554B5B856E3FC2575DECB0"",""assignmentId"":""3b7fd7ef-e8b4-44dc-b972-9658a9377923"",""projectId"":""ba640c14-69c5-453e-80b2-29051492c0e0""}","https://test12345.live/?num_scrambled_semantic=8&num_scrambled_causal=4&num_scrambled_schematic=4&participantId=22562C21FF554B5B856E3FC2575DECB0&assignmentId=3b7fd7ef-e8b4-44dc-b972-9658a9377923&projectId=ba640c14-69c5-453e-80b2-29051492c0e0","22562C21FF554B5B856E3FC2575DECB0-2025-05-14-22-20-10","","null","","images/semantic_sequence/self_care_activities_semantic/self_care_activities_semantic_7.png","null","",""
"","","","","","image-button-response","35","358433","0.0-10.0-1.0-1.3","22562C21FF554B5B856E3FC2575DECB0","22562C21FF554B5B856E3FC2575DECB0","3b7fd7ef-e8b4-44dc-b972-9658a9377923","ba640c14-69c5-453e-80b2-29051492c0e0","{""num_scrambled_semantic"":""8"",""num_scrambled_causal"":""4"",""num_scrambled_schematic"":""4"",""participantId"":""22562C21FF554B5B856E3FC2575DECB0"",""assignmentId"":""3b7fd7ef-e8b4-44dc-b972-9658a9377923"",""projectId"":""ba640c14-69c5-453e-80b2-29051492c0e0""}","https://test12345.live/?num_scrambled_semantic=8&num_scrambled_causal=4&num_scrambled_schematic=4&participantId=22562C21FF554B5B856E3FC2575DECB0&assignmentId=3b7fd7ef-e8b4-44dc-b972-9658a9377923&projectId=ba640c14-69c5-453e-80b2-29051492c0e0","22562C21FF554B5B856E3FC2575DECB0-2025-05-14-22-20-10","","1706","","images/semantic_sequence/self_care_activities_semantic/self_care_activities_semantic_7.png","0","",""
"","","","","","image-button-response","36","360250","0.0-10.0-1.0-2.3","22562C21FF554B5B856E3FC2575DECB0","22562C21FF554B5B856E3FC2575DECB0","3b7fd7ef-e8b4-44dc-b972-9658a9377923","ba640c14-69c5-453e-80b2-29051492c0e0","{""num_scrambled_semantic"":""8"",""num_scrambled_causal"":""4"",""num_scrambled_schematic"":""4"",""participantId"":""22562C21FF554B5B856E3FC2575DECB0"",""assignmentId"":""3b7fd7ef-e8b4-44dc-b972-9658a9377923"",""projectId"":""ba640c14-69c5-453e-80b2-29051492c0e0""}","https://test12345.live/?num_scrambled_semantic=8&num_scrambled_causal=4&num_scrambled_schematic=4&participantId=22562C21FF554B5B856E3FC2575DECB0&assignmentId=3b7fd7ef-e8b4-44dc-b972-9658a9377923&projectId=ba640c14-69c5-453e-80b2-29051492c0e0","22562C21FF554B5B856E3FC2575DECB0-2025-05-14-22-20-10","","null","","[]","null","",""
"","","","","","image-button-response","37","364757","0.0-10.0-1.0-0.4","22562C21FF554B5B856E3FC2575DECB0","22562C21FF554B5B856E3FC2575DECB0","3b7fd7ef-e8b4-44dc-b972-9658a9377923","ba640c14-69c5-453e-80b2-29051492c0e0","{""num_scrambled_semantic"":""8"",""num_scrambled_causal"":""4"",""num_scrambled_schematic"":""4"",""participantId"":""22562C21FF554B5B856E3FC2575DECB0"",""assignmentId"":""3b7fd7ef-e8b4-44dc-b972-9658a9377923"",""projectId"":""ba640c14-69c5-453e-80b2-29051492c0e0""}","https://test12345.live/?num_scrambled_semantic=8&num_scrambled_causal=4&num_scrambled_schematic=4&participantId=22562C21FF554B5B856E3FC2575DECB0&assignmentId=3b7fd7ef-e8b4-44dc-b972-9658a9377923&projectId=ba640c14-69c5-453e-80b2-29051492c0e0","22562C21FF554B5B856E3FC2575DECB0-2025-05-14-22-20-10","","null","","images/semantic_sequence/self_care_activities_semantic/self_care_activities_semantic_1.png","null","",""
"","","","","","image-button-response","38","366825","0.0-10.0-1.0-1.4","22562C21FF554B5B856E3FC2575DECB0","22562C21FF554B5B856E3FC2575DECB0","3b7fd7ef-e8b4-44dc-b972-9658a9377923","ba640c14-69c5-453e-80b2-29051492c0e0","{""num_scrambled_semantic"":""8"",""num_scrambled_causal"":""4"",""num_scrambled_schematic"":""4"",""participantId"":""22562C21FF554B5B856E3FC2575DECB0"",""assignmentId"":""3b7fd7ef-e8b4-44dc-b972-9658a9377923"",""projectId"":""ba640c14-69c5-453e-80b2-29051492c0e0""}","https://test12345.live/?num_scrambled_semantic=8&num_scrambled_causal=4&num_scrambled_schematic=4&participantId=22562C21FF554B5B856E3FC2575DECB0&assignmentId=3b7fd7ef-e8b4-44dc-b972-9658a9377923&projectId=ba640c14-69c5-453e-80b2-29051492c0e0","22562C21FF554B5B856E3FC2575DECB0-2025-05-14-22-20-10","","2064","","images/semantic_sequence/self_care_activities_semantic/self_care_activities_semantic_1.png","0","",""
"","","","","","image-button-response","39","368636","0.0-10.0-1.0-2.4","22562C21FF554B5B856E3FC2575DECB0","22562C21FF554B5B856E3FC2575DECB0","3b7fd7ef-e8b4-44dc-b972-9658a9377923","ba640c14-69c5-453e-80b2-29051492c0e0","{""num_scrambled_semantic"":""8"",""num_scrambled_causal"":""4"",""num_scrambled_schematic"":""4"",""participantId"":""22562C21FF554B5B856E3FC2575DECB0"",""assignmentId"":""3b7fd7ef-e8b4-44dc-b972-9658a9377923"",""projectId"":""ba640c14-69c5-453e-80b2-29051492c0e0""}","https://test12345.live/?num_scrambled_semantic=8&num_scrambled_causal=4&num_scrambled_schematic=4&participantId=22562C21FF554B5B856E3FC2575DECB0&assignmentId=3b7fd7ef-e8b4-44dc-b972-9658a9377923&projectId=ba640c14-69c5-453e-80b2-29051492c0e0","22562C21FF554B5B856E3FC2575DECB0-2025-05-14-22-20-10","","null","","[]","null","",""
"","","","","","image-button-response","40","373152","0.0-10.0-1.0-0.5","22562C21FF554B5B856E3FC2575DECB0","22562C21FF554B5B856E3FC2575DECB0","3b7fd7ef-e8b4-44dc-b972-9658a9377923","ba640c14-69c5-453e-80b2-29051492c0e0","{""num_scrambled_semantic"":""8"",""num_scrambled_causal"":""4"",""num_scrambled_schematic"":""4"",""participantId"":""22562C21FF554B5B856E3FC2575DECB0"",""assignmentId"":""3b7fd7ef-e8b4-44dc-b972-9658a9377923"",""projectId"":""ba640c14-69c5-453e-80b2-29051492c0e0""}","https://test12345.live/?num_scrambled_semantic=8&num_scrambled_causal=4&num_scrambled_schematic=4&participantId=22562C21FF554B5B856E3FC2575DECB0&assignmentId=3b7fd7ef-e8b4-44dc-b972-9658a9377923&projectId=ba640c14-69c5-453e-80b2-29051492c0e0","22562C21FF554B5B856E3FC2575DECB0-2025-05-14-22-20-10","","null","","images/semantic_sequence/self_care_activities_semantic/self_care_activities_semantic_8.png","null","",""
"","","","","","image-button-response","41","374351","0.0-10.0-1.0-1.5","22562C21FF554B5B856E3FC2575DECB0","22562C21FF554B5B856E3FC2575DECB0","3b7fd7ef-e8b4-44dc-b972-9658a9377923","ba640c14-69c5-453e-80b2-29051492c0e0","{""num_scrambled_semantic"":""8"",""num_scrambled_causal"":""4"",""num_scrambled_schematic"":""4"",""participantId"":""22562C21FF554B5B856E3FC2575DECB0"",""assignmentId"":""3b7fd7ef-e8b4-44dc-b972-9658a9377923"",""projectId"":""ba640c14-69c5-453e-80b2-29051492c0e0""}","https://test12345.live/?num_scrambled_semantic=8&num_scrambled_causal=4&num_scrambled_schematic=4&participantId=22562C21FF554B5B856E3FC2575DECB0&assignmentId=3b7fd7ef-e8b4-44dc-b972-9658a9377923&projectId=ba640c14-69c5-453e-80b2-29051492c0e0","22562C21FF554B5B856E3FC2575DECB0-2025-05-14-22-20-10","","1195","","images/semantic_sequence/self_care_activities_semantic/self_care_activities_semantic_8.png","0","",""
"","","","","","image-button-response","42","376162","0.0-10.0-1.0-2.5","22562C21FF554B5B856E3FC2575DECB0","22562C21FF554B5B856E3FC2575DECB0","3b7fd7ef-e8b4-44dc-b972-9658a9377923","ba640c14-69c5-453e-80b2-29051492c0e0","{""num_scrambled_semantic"":""8"",""num_scrambled_causal"":""4"",""num_scrambled_schematic"":""4"",""participantId"":""22562C21FF554B5B856E3FC2575DECB0"",""assignmentId"":""3b7fd7ef-e8b4-44dc-b972-9658a9377923"",""projectId"":""ba640c14-69c5-453e-80b2-29051492c0e0""}","https://test12345.live/?num_scrambled_semantic=8&num_scrambled_causal=4&num_scrambled_schematic=4&participantId=22562C21FF554B5B856E3FC2575DECB0&assignmentId=3b7fd7ef-e8b4-44dc-b972-9658a9377923&projectId=ba640c14-69c5-453e-80b2-29051492c0e0","22562C21FF554B5B856E3FC2575DECB0-2025-05-14-22-20-10","","null","","[]","null","",""
"","","","","","image-button-response","43","380678","0.0-10.0-1.0-0.6","22562C21FF554B5B856E3FC2575DECB0","22562C21FF554B5B856E3FC2575DECB0","3b7fd7ef-e8b4-44dc-b972-9658a9377923","ba640c14-69c5-453e-80b2-29051492c0e0","{""num_scrambled_semantic"":""8"",""num_scrambled_causal"":""4"",""num_scrambled_schematic"":""4"",""participantId"":""22562C21FF554B5B856E3FC2575DECB0"",""assignmentId"":""3b7fd7ef-e8b4-44dc-b972-9658a9377923"",""projectId"":""ba640c14-69c5-453e-80b2-29051492c0e0""}","https://test12345.live/?num_scrambled_semantic=8&num_scrambled_causal=4&num_scrambled_schematic=4&participantId=22562C21FF554B5B856E3FC2575DECB0&assignmentId=3b7fd7ef-e8b4-44dc-b972-9658a9377923&projectId=ba640c14-69c5-453e-80b2-29051492c0e0","22562C21FF554B5B856E3FC2575DECB0-2025-05-14-22-20-10","","null","","images/semantic_sequence/self_care_activities_semantic/self_care_activities_semantic_9.png","null","",""
"","","","","","image-button-response","44","381838","0.0-10.0-1.0-1.6","22562C21FF554B5B856E3FC2575DECB0","22562C21FF554B5B856E3FC2575DECB0","3b7fd7ef-e8b4-44dc-b972-9658a9377923","ba640c14-69c5-453e-80b2-29051492c0e0","{""num_scrambled_semantic"":""8"",""num_scrambled_causal"":""4"",""num_scrambled_schematic"":""4"",""participantId"":""22562C21FF554B5B856E3FC2575DECB0"",""assignmentId"":""3b7fd7ef-e8b4-44dc-b972-9658a9377923"",""projectId"":""ba640c14-69c5-453e-80b2-29051492c0e0""}","https://test12345.live/?num_scrambled_semantic=8&num_scrambled_causal=4&num_scrambled_schematic=4&participantId=22562C21FF554B5B856E3FC2575DECB0&assignmentId=3b7fd7ef-e8b4-44dc-b972-9658a9377923&projectId=ba640c14-69c5-453e-80b2-29051492c0e0","22562C21FF554B5B856E3FC2575DECB0-2025-05-14-22-20-10","","1156","","images/semantic_sequence/self_care_activities_semantic/self_care_activities_semantic_9.png","0","",""
"","","","","","image-button-response","45","383650","0.0-10.0-1.0-2.6","22562C21FF554B5B856E3FC2575DECB0","22562C21FF554B5B856E3FC2575DECB0","3b7fd7ef-e8b4-44dc-b972-9658a9377923","ba640c14-69c5-453e-80b2-29051492c0e0","{""num_scrambled_semantic"":""8"",""num_scrambled_causal"":""4"",""num_scrambled_schematic"":""4"",""participantId"":""22562C21FF554B5B856E3FC2575DECB0"",""assignmentId"":""3b7fd7ef-e8b4-44dc-b972-9658a9377923"",""projectId"":""ba640c14-69c5-453e-80b2-29051492c0e0""}","https://test12345.live/?num_scrambled_semantic=8&num_scrambled_causal=4&num_scrambled_schematic=4&participantId=22562C21FF554B5B856E3FC2575DECB0&assignmentId=3b7fd7ef-e8b4-44dc-b972-9658a9377923&projectId=ba640c14-69c5-453e-80b2-29051492c0e0","22562C21FF554B5B856E3FC2575DECB0-2025-05-14-22-20-10","","null","","[]","null","",""
"","","","","","image-button-response","46","388168","0.0-10.0-1.0-0.7","22562C21FF554B5B856E3FC2575DECB0","22562C21FF554B5B856E3FC2575DECB0","3b7fd7ef-e8b4-44dc-b972-9658a9377923","ba640c14-69c5-453e-80b2-29051492c0e0","{""num_scrambled_semantic"":""8"",""num_scrambled_causal"":""4"",""num_scrambled_schematic"":""4"",""participantId"":""22562C21FF554B5B856E3FC2575DECB0"",""assignmentId"":""3b7fd7ef-e8b4-44dc-b972-9658a9377923"",""projectId"":""ba640c14-69c5-453e-80b2-29051492c0e0""}","https://test12345.live/?num_scrambled_semantic=8&num_scrambled_causal=4&num_scrambled_schematic=4&participantId=22562C21FF554B5B856E3FC2575DECB0&assignmentId=3b7fd7ef-e8b4-44dc-b972-9658a9377923&projectId=ba640c14-69c5-453e-80b2-29051492c0e0","22562C21FF554B5B856E3FC2575DECB0-2025-05-14-22-20-10","","null","","images/semantic_sequence/self_care_activities_semantic/self_care_activities_semantic_2.png","null","",""
"","","","","","image-button-response","47","389143","0.0-10.0-1.0-1.7","22562C21FF554B5B856E3FC2575DECB0","22562C21FF554B5B856E3FC2575DECB0","3b7fd7ef-e8b4-44dc-b972-9658a9377923","ba640c14-69c5-453e-80b2-29051492c0e0","{""num_scrambled_semantic"":""8"",""num_scrambled_causal"":""4"",""num_scrambled_schematic"":""4"",""participantId"":""22562C21FF554B5B856E3FC2575DECB0"",""assignmentId"":""3b7fd7ef-e8b4-44dc-b972-9658a9377923"",""projectId"":""ba640c14-69c5-453e-80b2-29051492c0e0""}","https://test12345.live/?num_scrambled_semantic=8&num_scrambled_causal=4&num_scrambled_schematic=4&participantId=22562C21FF554B5B856E3FC2575DECB0&assignmentId=3b7fd7ef-e8b4-44dc-b972-9658a9377923&projectId=ba640c14-69c5-453e-80b2-29051492c0e0","22562C21FF554B5B856E3FC2575DECB0-2025-05-14-22-20-10","","973","","images/semantic_sequence/self_care_activities_semantic/self_care_activities_semantic_2.png","0","",""
"","","","","","image-button-response","48","390947","0.0-10.0-1.0-2.7","22562C21FF554B5B856E3FC2575DECB0","22562C21FF554B5B856E3FC2575DECB0","3b7fd7ef-e8b4-44dc-b972-9658a9377923","ba640c14-69c5-453e-80b2-29051492c0e0","{""num_scrambled_semantic"":""8"",""num_scrambled_causal"":""4"",""num_scrambled_schematic"":""4"",""participantId"":""22562C21FF554B5B856E3FC2575DECB0"",""assignmentId"":""3b7fd7ef-e8b4-44dc-b972-9658a9377923"",""projectId"":""ba640c14-69c5-453e-80b2-29051492c0e0""}","https://test12345.live/?num_scrambled_semantic=8&num_scrambled_causal=4&num_scrambled_schematic=4&participantId=22562C21FF554B5B856E3FC2575DECB0&assignmentId=3b7fd7ef-e8b4-44dc-b972-9658a9377923&projectId=ba640c14-69c5-453e-80b2-29051492c0e0","22562C21FF554B5B856E3FC2575DECB0-2025-05-14-22-20-10","","null","","[]","null","",""
"","","","","","image-button-response","49","395466","0.0-10.0-1.0-0.8","22562C21FF554B5B856E3FC2575DECB0","22562C21FF554B5B856E3FC2575DECB0","3b7fd7ef-e8b4-44dc-b972-9658a9377923","ba640c14-69c5-453e-80b2-29051492c0e0","{""num_scrambled_semantic"":""8"",""num_scrambled_causal"":""4"",""num_scrambled_schematic"":""4"",""participantId"":""22562C21FF554B5B856E3FC2575DECB0"",""assignmentId"":""3b7fd7ef-e8b4-44dc-b972-9658a9377923"",""projectId"":""ba640c14-69c5-453e-80b2-29051492c0e0""}","https://test12345.live/?num_scrambled_semantic=8&num_scrambled_causal=4&num_scrambled_schematic=4&participantId=22562C21FF554B5B856E3FC2575DECB0&assignmentId=3b7fd7ef-e8b4-44dc-b972-9658a9377923&projectId=ba640c14-69c5-453e-80b2-29051492c0e0","22562C21FF554B5B856E3FC2575DECB0-2025-05-14-22-20-10","","null","","images/semantic_sequence/self_care_activities_semantic/self_care_activities_semantic_6.png","null","",""
"","","","","","image-button-response","50","396599","0.0-10.0-1.0-1.8","22562C21FF554B5B856E3FC2575DECB0","22562C21FF554B5B856E3FC2575DECB0","3b7fd7ef-e8b4-44dc-b972-9658a9377923","ba640c14-69c5-453e-80b2-29051492c0e0","{""num_scrambled_semantic"":""8"",""num_scrambled_causal"":""4"",""num_scrambled_schematic"":""4"",""participantId"":""22562C21FF554B5B856E3FC2575DECB0"",""assignmentId"":""3b7fd7ef-e8b4-44dc-b972-9658a9377923"",""projectId"":""ba640c14-69c5-453e-80b2-29051492c0e0""}","https://test12345.live/?num_scrambled_semantic=8&num_scrambled_causal=4&num_scrambled_schematic=4&participantId=22562C21FF554B5B856E3FC2575DECB0&assignmentId=3b7fd7ef-e8b4-44dc-b972-9658a9377923&projectId=ba640c14-69c5-453e-80b2-29051492c0e0","22562C21FF554B5B856E3FC2575DECB0-2025-05-14-22-20-10","","1126","","images/semantic_sequence/self_care_activities_semantic/self_care_activities_semantic_6.png","1","",""
"","","","","","image-button-response","51","398412","0.0-10.0-1.0-2.8","22562C21FF554B5B856E3FC2575DECB0","22562C21FF554B5B856E3FC2575DECB0","3b7fd7ef-e8b4-44dc-b972-9658a9377923","ba640c14-69c5-453e-80b2-29051492c0e0","{""num_scrambled_semantic"":""8"",""num_scrambled_causal"":""4"",""num_scrambled_schematic"":""4"",""participantId"":""22562C21FF554B5B856E3FC2575DECB0"",""assignmentId"":""3b7fd7ef-e8b4-44dc-b972-9658a9377923"",""projectId"":""ba640c14-69c5-453e-80b2-29051492c0e0""}","https://test12345.live/?num_scrambled_semantic=8&num_scrambled_causal=4&num_scrambled_schematic=4&participantId=22562C21FF554B5B856E3FC2575DECB0&assignmentId=3b7fd7ef-e8b4-44dc-b972-9658a9377923&projectId=ba640c14-69c5-453e-80b2-29051492c0e0","22562C21FF554B5B856E3FC2575DECB0-2025-05-14-22-20-10","","null","","[]","null","",""
"","","","","","image-button-response","52","402928","0.0-10.0-1.0-0.9","22562C21FF554B5B856E3FC2575DECB0","22562C21FF554B5B856E3FC2575DECB0","3b7fd7ef-e8b4-44dc-b972-9658a9377923","ba640c14-69c5-453e-80b2-29051492c0e0","{""num_scrambled_semantic"":""8"",""num_scrambled_causal"":""4"",""num_scrambled_schematic"":""4"",""participantId"":""22562C21FF554B5B856E3FC2575DECB0"",""assignmentId"":""3b7fd7ef-e8b4-44dc-b972-9658a9377923"",""projectId"":""ba640c14-69c5-453e-80b2-29051492c0e0""}","https://test12345.live/?num_scrambled_semantic=8&num_scrambled_causal=4&num_scrambled_schematic=4&participantId=22562C21FF554B5B856E3FC2575DECB0&assignmentId=3b7fd7ef-e8b4-44dc-b972-9658a9377923&projectId=ba640c14-69c5-453e-80b2-29051492c0e0","22562C21FF554B5B856E3FC2575DECB0-2025-05-14-22-20-10","","null","","images/semantic_sequence/self_care_activities_semantic/self_care_activities_semantic_5.png","null","",""
"","","","","","image-button-response","53","404216","0.0-10.0-1.0-1.9","22562C21FF554B5B856E3FC2575DECB0","22562C21FF554B5B856E3FC2575DECB0","3b7fd7ef-e8b4-44dc-b972-9658a9377923","ba640c14-69c5-453e-80b2-29051492c0e0","{""num_scrambled_semantic"":""8"",""num_scrambled_causal"":""4"",""num_scrambled_schematic"":""4"",""participantId"":""22562C21FF554B5B856E3FC2575DECB0"",""assignmentId"":""3b7fd7ef-e8b4-44dc-b972-9658a9377923"",""projectId"":""ba640c14-69c5-453e-80b2-29051492c0e0""}","https://test12345.live/?num_scrambled_semantic=8&num_scrambled_causal=4&num_scrambled_schematic=4&participantId=22562C21FF554B5B856E3FC2575DECB0&assignmentId=3b7fd7ef-e8b4-44dc-b972-9658a9377923&projectId=ba640c14-69c5-453e-80b2-29051492c0e0","22562C21FF554B5B856E3FC2575DECB0-2025-05-14-22-20-10","","1286","","images/semantic_sequence/self_care_activities_semantic/self_care_activities_semantic_5.png","0","",""
"","","","","","image-button-response","54","406030","0.0-10.0-1.0-2.9","22562C21FF554B5B856E3FC2575DECB0","22562C21FF554B5B856E3FC2575DECB0","3b7fd7ef-e8b4-44dc-b972-9658a9377923","ba640c14-69c5-453e-80b2-29051492c0e0","{""num_scrambled_semantic"":""8"",""num_scrambled_causal"":""4"",""num_scrambled_schematic"":""4"",""participantId"":""22562C21FF554B5B856E3FC2575DECB0"",""assignmentId"":""3b7fd7ef-e8b4-44dc-b972-9658a9377923"",""projectId"":""ba640c14-69c5-453e-80b2-29051492c0e0""}","https://test12345.live/?num_scrambled_semantic=8&num_scrambled_causal=4&num_scrambled_schematic=4&participantId=22562C21FF554B5B856E3FC2575DECB0&assignmentId=3b7fd7ef-e8b4-44dc-b972-9658a9377923&projectId=ba640c14-69c5-453e-80b2-29051492c0e0","22562C21FF554B5B856E3FC2575DECB0-2025-05-14-22-20-10","","null","","[]","null","",""
"","","","","","html-audio-response","55","433516","0.0-11.0","22562C21FF554B5B856E3FC2575DECB0","22562C21FF554B5B856E3FC2575DECB0","3b7fd7ef-e8b4-44dc-b972-9658a9377923","ba640c14-69c5-453e-80b2-29051492c0e0","{""num_scrambled_semantic"":""8"",""num_scrambled_causal"":""4"",""num_scrambled_schematic"":""4"",""participantId"":""22562C21FF554B5B856E3FC2575DECB0"",""assignmentId"":""3b7fd7ef-e8b4-44dc-b972-9658a9377923"",""projectId"":""ba640c14-69c5-453e-80b2-29051492c0e0""}","https://test12345.live/?num_scrambled_semantic=8&num_scrambled_causal=4&num_scrambled_schematic=4&participantId=22562C21FF554B5B856E3FC2575DECB0&assignmentId=3b7fd7ef-e8b4-44dc-b972-9658a9377923&projectId=ba640c14-69c5-453e-80b2-29051492c0e0","22562C21FF554B5B856E3FC2575DECB0-2025-05-14-22-20-10","","18238","","[""<span style=\""color: red; font-size: 24px\""> NOW RECORDING</span><p>Please say out loud all the images you saw, as many as you can remember. The images can be said in any order.</p>""]","","5","self_care_activities_semantic"
"","","","","","image-button-response","56","439526","0.0-12.0-0.0","22562C21FF554B5B856E3FC2575DECB0","22562C21FF554B5B856E3FC2575DECB0","3b7fd7ef-e8b4-44dc-b972-9658a9377923","ba640c14-69c5-453e-80b2-29051492c0e0","{""num_scrambled_semantic"":""8"",""num_scrambled_causal"":""4"",""num_scrambled_schematic"":""4"",""participantId"":""22562C21FF554B5B856E3FC2575DECB0"",""assignmentId"":""3b7fd7ef-e8b4-44dc-b972-9658a9377923"",""projectId"":""ba640c14-69c5-453e-80b2-29051492c0e0""}","https://test12345.live/?num_scrambled_semantic=8&num_scrambled_causal=4&num_scrambled_schematic=4&participantId=22562C21FF554B5B856E3FC2575DECB0&assignmentId=3b7fd7ef-e8b4-44dc-b972-9658a9377923&projectId=ba640c14-69c5-453e-80b2-29051492c0e0","22562C21FF554B5B856E3FC2575DECB0-2025-05-14-22-20-10","","null","","images/causal_sequence/package_causal/package_causal_0.png","null","",""
"","","","","","image-button-response","57","444033","0.0-12.0-1.0-0.0","22562C21FF554B5B856E3FC2575DECB0","22562C21FF554B5B856E3FC2575DECB0","3b7fd7ef-e8b4-44dc-b972-9658a9377923","ba640c14-69c5-453e-80b2-29051492c0e0","{""num_scrambled_semantic"":""8"",""num_scrambled_causal"":""4"",""num_scrambled_schematic"":""4"",""participantId"":""22562C21FF554B5B856E3FC2575DECB0"",""assignmentId"":""3b7fd7ef-e8b4-44dc-b972-9658a9377923"",""projectId"":""ba640c14-69c5-453e-80b2-29051492c0e0""}","https://test12345.live/?num_scrambled_semantic=8&num_scrambled_causal=4&num_scrambled_schematic=4&participantId=22562C21FF554B5B856E3FC2575DECB0&assignmentId=3b7fd7ef-e8b4-44dc-b972-9658a9377923&projectId=ba640c14-69c5-453e-80b2-29051492c0e0","22562C21FF554B5B856E3FC2575DECB0-2025-05-14-22-20-10","","null","","images/causal_sequence/package_causal/package_causal_3.png","null","",""
"","","","","","image-button-response","58","447090","0.0-12.0-1.0-1.0","22562C21FF554B5B856E3FC2575DECB0","22562C21FF554B5B856E3FC2575DECB0","3b7fd7ef-e8b4-44dc-b972-9658a9377923","ba640c14-69c5-453e-80b2-29051492c0e0","{""num_scrambled_semantic"":""8"",""num_scrambled_causal"":""4"",""num_scrambled_schematic"":""4"",""participantId"":""22562C21FF554B5B856E3FC2575DECB0"",""assignmentId"":""3b7fd7ef-e8b4-44dc-b972-9658a9377923"",""projectId"":""ba640c14-69c5-453e-80b2-29051492c0e0""}","https://test12345.live/?num_scrambled_semantic=8&num_scrambled_causal=4&num_scrambled_schematic=4&participantId=22562C21FF554B5B856E3FC2575DECB0&assignmentId=3b7fd7ef-e8b4-44dc-b972-9658a9377923&projectId=ba640c14-69c5-453e-80b2-29051492c0e0","22562C21FF554B5B856E3FC2575DECB0-2025-05-14-22-20-10","","3053","","images/causal_sequence/package_causal/package_causal_3.png","0","",""
"","","","","","image-button-response","59","448900","0.0-12.0-1.0-2.0","22562C21FF554B5B856E3FC2575DECB0","22562C21FF554B5B856E3FC2575DECB0","3b7fd7ef-e8b4-44dc-b972-9658a9377923","ba640c14-69c5-453e-80b2-29051492c0e0","{""num_scrambled_semantic"":""8"",""num_scrambled_causal"":""4"",""num_scrambled_schematic"":""4"",""participantId"":""22562C21FF554B5B856E3FC2575DECB0"",""assignmentId"":""3b7fd7ef-e8b4-44dc-b972-9658a9377923"",""projectId"":""ba640c14-69c5-453e-80b2-29051492c0e0""}","https://test12345.live/?num_scrambled_semantic=8&num_scrambled_causal=4&num_scrambled_schematic=4&participantId=22562C21FF554B5B856E3FC2575DECB0&assignmentId=3b7fd7ef-e8b4-44dc-b972-9658a9377923&projectId=ba640c14-69c5-453e-80b2-29051492c0e0","22562C21FF554B5B856E3FC2575DECB0-2025-05-14-22-20-10","","null","","[]","null","",""
"","","","","","image-button-response","60","453408","0.0-12.0-1.0-0.1","22562C21FF554B5B856E3FC2575DECB0","22562C21FF554B5B856E3FC2575DECB0","3b7fd7ef-e8b4-44dc-b972-9658a9377923","ba640c14-69c5-453e-80b2-29051492c0e0","{""num_scrambled_semantic"":""8"",""num_scrambled_causal"":""4"",""num_scrambled_schematic"":""4"",""participantId"":""22562C21FF554B5B856E3FC2575DECB0"",""assignmentId"":""3b7fd7ef-e8b4-44dc-b972-9658a9377923"",""projectId"":""ba640c14-69c5-453e-80b2-29051492c0e0""}","https://test12345.live/?num_scrambled_semantic=8&num_scrambled_causal=4&num_scrambled_schematic=4&participantId=22562C21FF554B5B856E3FC2575DECB0&assignmentId=3b7fd7ef-e8b4-44dc-b972-9658a9377923&projectId=ba640c14-69c5-453e-80b2-29051492c0e0","22562C21FF554B5B856E3FC2575DECB0-2025-05-14-22-20-10","","null","","images/causal_sequence/package_causal/package_causal_9.png","null","",""
"","","","","","image-button-response","61","456455","0.0-12.0-1.0-1.1","22562C21FF554B5B856E3FC2575DECB0","22562C21FF554B5B856E3FC2575DECB0","3b7fd7ef-e8b4-44dc-b972-9658a9377923","ba640c14-69c5-453e-80b2-29051492c0e0","{""num_scrambled_semantic"":""8"",""num_scrambled_causal"":""4"",""num_scrambled_schematic"":""4"",""participantId"":""22562C21FF554B5B856E3FC2575DECB0"",""assignmentId"":""3b7fd7ef-e8b4-44dc-b972-9658a9377923"",""projectId"":""ba640c14-69c5-453e-80b2-29051492c0e0""}","https://test12345.live/?num_scrambled_semantic=8&num_scrambled_causal=4&num_scrambled_schematic=4&participantId=22562C21FF554B5B856E3FC2575DECB0&assignmentId=3b7fd7ef-e8b4-44dc-b972-9658a9377923&projectId=ba640c14-69c5-453e-80b2-29051492c0e0","22562C21FF554B5B856E3FC2575DECB0-2025-05-14-22-20-10","","3045","","images/causal_sequence/package_causal/package_causal_9.png","0","",""
"","","","","","image-button-response","62","458269","0.0-12.0-1.0-2.1","22562C21FF554B5B856E3FC2575DECB0","22562C21FF554B5B856E3FC2575DECB0","3b7fd7ef-e8b4-44dc-b972-9658a9377923","ba640c14-69c5-453e-80b2-29051492c0e0","{""num_scrambled_semantic"":""8"",""num_scrambled_causal"":""4"",""num_scrambled_schematic"":""4"",""participantId"":""22562C21FF554B5B856E3FC2575DECB0"",""assignmentId"":""3b7fd7ef-e8b4-44dc-b972-9658a9377923"",""projectId"":""ba640c14-69c5-453e-80b2-29051492c0e0""}","https://test12345.live/?num_scrambled_semantic=8&num_scrambled_causal=4&num_scrambled_schematic=4&participantId=22562C21FF554B5B856E3FC2575DECB0&assignmentId=3b7fd7ef-e8b4-44dc-b972-9658a9377923&projectId=ba640c14-69c5-453e-80b2-29051492c0e0","22562C21FF554B5B856E3FC2575DECB0-2025-05-14-22-20-10","","null","","[]","null","",""
"","","","","","image-button-response","63","462784","0.0-12.0-1.0-0.2","22562C21FF554B5B856E3FC2575DECB0","22562C21FF554B5B856E3FC2575DECB0","3b7fd7ef-e8b4-44dc-b972-9658a9377923","ba640c14-69c5-453e-80b2-29051492c0e0","{""num_scrambled_semantic"":""8"",""num_scrambled_causal"":""4"",""num_scrambled_schematic"":""4"",""participantId"":""22562C21FF554B5B856E3FC2575DECB0"",""assignmentId"":""3b7fd7ef-e8b4-44dc-b972-9658a9377923"",""projectId"":""ba640c14-69c5-453e-80b2-29051492c0e0""}","https://test12345.live/?num_scrambled_semantic=8&num_scrambled_causal=4&num_scrambled_schematic=4&participantId=22562C21FF554B5B856E3FC2575DECB0&assignmentId=3b7fd7ef-e8b4-44dc-b972-9658a9377923&projectId=ba640c14-69c5-453e-80b2-29051492c0e0","22562C21FF554B5B856E3FC2575DECB0-2025-05-14-22-20-10","","null","","images/causal_sequence/package_causal/package_causal_5.png","null","",""
"","","","","","image-button-response","64","464186","0.0-12.0-1.0-1.2","22562C21FF554B5B856E3FC2575DECB0","22562C21FF554B5B856E3FC2575DECB0","3b7fd7ef-e8b4-44dc-b972-9658a9377923","ba640c14-69c5-453e-80b2-29051492c0e0","{""num_scrambled_semantic"":""8"",""num_scrambled_causal"":""4"",""num_scrambled_schematic"":""4"",""participantId"":""22562C21FF554B5B856E3FC2575DECB0"",""assignmentId"":""3b7fd7ef-e8b4-44dc-b972-9658a9377923"",""projectId"":""ba640c14-69c5-453e-80b2-29051492c0e0""}","https://test12345.live/?num_scrambled_semantic=8&num_scrambled_causal=4&num_scrambled_schematic=4&participantId=22562C21FF554B5B856E3FC2575DECB0&assignmentId=3b7fd7ef-e8b4-44dc-b972-9658a9377923&projectId=ba640c14-69c5-453e-80b2-29051492c0e0","22562C21FF554B5B856E3FC2575DECB0-2025-05-14-22-20-10","","1397","","images/causal_sequence/package_causal/package_causal_5.png","0","",""
"","","","","","image-button-response","65","465997","0.0-12.0-1.0-2.2","22562C21FF554B5B856E3FC2575DECB0","22562C21FF554B5B856E3FC2575DECB0","3b7fd7ef-e8b4-44dc-b972-9658a9377923","ba640c14-69c5-453e-80b2-29051492c0e0","{""num_scrambled_semantic"":""8"",""num_scrambled_causal"":""4"",""num_scrambled_schematic"":""4"",""participantId"":""22562C21FF554B5B856E3FC2575DECB0"",""assignmentId"":""3b7fd7ef-e8b4-44dc-b972-9658a9377923"",""projectId"":""ba640c14-69c5-453e-80b2-29051492c0e0""}","https://test12345.live/?num_scrambled_semantic=8&num_scrambled_causal=4&num_scrambled_schematic=4&participantId=22562C21FF554B5B856E3FC2575DECB0&assignmentId=3b7fd7ef-e8b4-44dc-b972-9658a9377923&projectId=ba640c14-69c5-453e-80b2-29051492c0e0","22562C21FF554B5B856E3FC2575DECB0-2025-05-14-22-20-10","","null","","[]","null","",""
"","","","","","image-button-response","66","470511","0.0-12.0-1.0-0.3","22562C21FF554B5B856E3FC2575DECB0","22562C21FF554B5B856E3FC2575DECB0","3b7fd7ef-e8b4-44dc-b972-9658a9377923","ba640c14-69c5-453e-80b2-29051492c0e0","{""num_scrambled_semantic"":""8"",""num_scrambled_causal"":""4"",""num_scrambled_schematic"":""4"",""participantId"":""22562C21FF554B5B856E3FC2575DECB0"",""assignmentId"":""3b7fd7ef-e8b4-44dc-b972-9658a9377923"",""projectId"":""ba640c14-69c5-453e-80b2-29051492c0e0""}","https://test12345.live/?num_scrambled_semantic=8&num_scrambled_causal=4&num_scrambled_schematic=4&participantId=22562C21FF554B5B856E3FC2575DECB0&assignmentId=3b7fd7ef-e8b4-44dc-b972-9658a9377923&projectId=ba640c14-69c5-453e-80b2-29051492c0e0","22562C21FF554B5B856E3FC2575DECB0-2025-05-14-22-20-10","","null","","images/causal_sequence/package_causal/package_causal_7.png","null","",""
"","","","","","image-button-response","67","472148","0.0-12.0-1.0-1.3","22562C21FF554B5B856E3FC2575DECB0","22562C21FF554B5B856E3FC2575DECB0","3b7fd7ef-e8b4-44dc-b972-9658a9377923","ba640c14-69c5-453e-80b2-29051492c0e0","{""num_scrambled_semantic"":""8"",""num_scrambled_causal"":""4"",""num_scrambled_schematic"":""4"",""participantId"":""22562C21FF554B5B856E3FC2575DECB0"",""assignmentId"":""3b7fd7ef-e8b4-44dc-b972-9658a9377923"",""projectId"":""ba640c14-69c5-453e-80b2-29051492c0e0""}","https://test12345.live/?num_scrambled_semantic=8&num_scrambled_causal=4&num_scrambled_schematic=4&participantId=22562C21FF554B5B856E3FC2575DECB0&assignmentId=3b7fd7ef-e8b4-44dc-b972-9658a9377923&projectId=ba640c14-69c5-453e-80b2-29051492c0e0","22562C21FF554B5B856E3FC2575DECB0-2025-05-14-22-20-10","","1633","","images/causal_sequence/package_causal/package_causal_7.png","0","",""
"","","","","","image-button-response","68","473965","0.0-12.0-1.0-2.3","22562C21FF554B5B856E3FC2575DECB0","22562C21FF554B5B856E3FC2575DECB0","3b7fd7ef-e8b4-44dc-b972-9658a9377923","ba640c14-69c5-453e-80b2-29051492c0e0","{""num_scrambled_semantic"":""8"",""num_scrambled_causal"":""4"",""num_scrambled_schematic"":""4"",""participantId"":""22562C21FF554B5B856E3FC2575DECB0"",""assignmentId"":""3b7fd7ef-e8b4-44dc-b972-9658a9377923"",""projectId"":""ba640c14-69c5-453e-80b2-29051492c0e0""}","https://test12345.live/?num_scrambled_semantic=8&num_scrambled_causal=4&num_scrambled_schematic=4&participantId=22562C21FF554B5B856E3FC2575DECB0&assignmentId=3b7fd7ef-e8b4-44dc-b972-9658a9377923&projectId=ba640c14-69c5-453e-80b2-29051492c0e0","22562C21FF554B5B856E3FC2575DECB0-2025-05-14-22-20-10","","null","","[]","null","",""
"","","","","","image-button-response","69","478470","0.0-12.0-1.0-0.4","22562C21FF554B5B856E3FC2575DECB0","22562C21FF554B5B856E3FC2575DECB0","3b7fd7ef-e8b4-44dc-b972-9658a9377923","ba640c14-69c5-453e-80b2-29051492c0e0","{""num_scrambled_semantic"":""8"",""num_scrambled_causal"":""4"",""num_scrambled_schematic"":""4"",""participantId"":""22562C21FF554B5B856E3FC2575DECB0"",""assignmentId"":""3b7fd7ef-e8b4-44dc-b972-9658a9377923"",""projectId"":""ba640c14-69c5-453e-80b2-29051492c0e0""}","https://test12345.live/?num_scrambled_semantic=8&num_scrambled_causal=4&num_scrambled_schematic=4&participantId=22562C21FF554B5B856E3FC2575DECB0&assignmentId=3b7fd7ef-e8b4-44dc-b972-9658a9377923&projectId=ba640c14-69c5-453e-80b2-29051492c0e0","22562C21FF554B5B856E3FC2575DECB0-2025-05-14-22-20-10","","null","","images/causal_sequence/package_causal/package_causal_4.png","null","",""
"","","","","","image-button-response","70","479540","0.0-12.0-1.0-1.4","22562C21FF554B5B856E3FC2575DECB0","22562C21FF554B5B856E3FC2575DECB0","3b7fd7ef-e8b4-44dc-b972-9658a9377923","ba640c14-69c5-453e-80b2-29051492c0e0","{""num_scrambled_semantic"":""8"",""num_scrambled_causal"":""4"",""num_scrambled_schematic"":""4"",""participantId"":""22562C21FF554B5B856E3FC2575DECB0"",""assignmentId"":""3b7fd7ef-e8b4-44dc-b972-9658a9377923"",""projectId"":""ba640c14-69c5-453e-80b2-29051492c0e0""}","https://test12345.live/?num_scrambled_semantic=8&num_scrambled_causal=4&num_scrambled_schematic=4&participantId=22562C21FF554B5B856E3FC2575DECB0&assignmentId=3b7fd7ef-e8b4-44dc-b972-9658a9377923&projectId=ba640c14-69c5-453e-80b2-29051492c0e0","22562C21FF554B5B856E3FC2575DECB0-2025-05-14-22-20-10","","1065","","images/causal_sequence/package_causal/package_causal_4.png","0","",""
"","","","","","image-button-response","71","481346","0.0-12.0-1.0-2.4","22562C21FF554B5B856E3FC2575DECB0","22562C21FF554B5B856E3FC2575DECB0","3b7fd7ef-e8b4-44dc-b972-9658a9377923","ba640c14-69c5-453e-80b2-29051492c0e0","{""num_scrambled_semantic"":""8"",""num_scrambled_causal"":""4"",""num_scrambled_schematic"":""4"",""participantId"":""22562C21FF554B5B856E3FC2575DECB0"",""assignmentId"":""3b7fd7ef-e8b4-44dc-b972-9658a9377923"",""projectId"":""ba640c14-69c5-453e-80b2-29051492c0e0""}","https://test12345.live/?num_scrambled_semantic=8&num_scrambled_causal=4&num_scrambled_schematic=4&participantId=22562C21FF554B5B856E3FC2575DECB0&assignmentId=3b7fd7ef-e8b4-44dc-b972-9658a9377923&projectId=ba640c14-69c5-453e-80b2-29051492c0e0","22562C21FF554B5B856E3FC2575DECB0-2025-05-14-22-20-10","","null","","[]","null","",""
"","","","","","image-button-response","72","485852","0.0-12.0-1.0-0.5","22562C21FF554B5B856E3FC2575DECB0","22562C21FF554B5B856E3FC2575DECB0","3b7fd7ef-e8b4-44dc-b972-9658a9377923","ba640c14-69c5-453e-80b2-29051492c0e0","{""num_scrambled_semantic"":""8"",""num_scrambled_causal"":""4"",""num_scrambled_schematic"":""4"",""participantId"":""22562C21FF554B5B856E3FC2575DECB0"",""assignmentId"":""3b7fd7ef-e8b4-44dc-b972-9658a9377923"",""projectId"":""ba640c14-69c5-453e-80b2-29051492c0e0""}","https://test12345.live/?num_scrambled_semantic=8&num_scrambled_causal=4&num_scrambled_schematic=4&participantId=22562C21FF554B5B856E3FC2575DECB0&assignmentId=3b7fd7ef-e8b4-44dc-b972-9658a9377923&projectId=ba640c14-69c5-453e-80b2-29051492c0e0","22562C21FF554B5B856E3FC2575DECB0-2025-05-14-22-20-10","","null","","images/causal_sequence/package_causal/package_causal_2.png","null","",""
"","","","","","image-button-response","73","487537","0.0-12.0-1.0-1.5","22562C21FF554B5B856E3FC2575DECB0","22562C21FF554B5B856E3FC2575DECB0","3b7fd7ef-e8b4-44dc-b972-9658a9377923","ba640c14-69c5-453e-80b2-29051492c0e0","{""num_scrambled_semantic"":""8"",""num_scrambled_causal"":""4"",""num_scrambled_schematic"":""4"",""participantId"":""22562C21FF554B5B856E3FC2575DECB0"",""assignmentId"":""3b7fd7ef-e8b4-44dc-b972-9658a9377923"",""projectId"":""ba640c14-69c5-453e-80b2-29051492c0e0""}","https://test12345.live/?num_scrambled_semantic=8&num_scrambled_causal=4&num_scrambled_schematic=4&participantId=22562C21FF554B5B856E3FC2575DECB0&assignmentId=3b7fd7ef-e8b4-44dc-b972-9658a9377923&projectId=ba640c14-69c5-453e-80b2-29051492c0e0","22562C21FF554B5B856E3FC2575DECB0-2025-05-14-22-20-10","","1682","","images/causal_sequence/package_causal/package_causal_2.png","0","",""
"","","","","","image-button-response","74","489341","0.0-12.0-1.0-2.5","22562C21FF554B5B856E3FC2575DECB0","22562C21FF554B5B856E3FC2575DECB0","3b7fd7ef-e8b4-44dc-b972-9658a9377923","ba640c14-69c5-453e-80b2-29051492c0e0","{""num_scrambled_semantic"":""8"",""num_scrambled_causal"":""4"",""num_scrambled_schematic"":""4"",""participantId"":""22562C21FF554B5B856E3FC2575DECB0"",""assignmentId"":""3b7fd7ef-e8b4-44dc-b972-9658a9377923"",""projectId"":""ba640c14-69c5-453e-80b2-29051492c0e0""}","https://test12345.live/?num_scrambled_semantic=8&num_scrambled_causal=4&num_scrambled_schematic=4&participantId=22562C21FF554B5B856E3FC2575DECB0&assignmentId=3b7fd7ef-e8b4-44dc-b972-9658a9377923&projectId=ba640c14-69c5-453e-80b2-29051492c0e0","22562C21FF554B5B856E3FC2575DECB0-2025-05-14-22-20-10","","null","","[]","null","",""
"","","","","","image-button-response","75","493848","0.0-12.0-1.0-0.6","22562C21FF554B5B856E3FC2575DECB0","22562C21FF554B5B856E3FC2575DECB0","3b7fd7ef-e8b4-44dc-b972-9658a9377923","ba640c14-69c5-453e-80b2-29051492c0e0","{""num_scrambled_semantic"":""8"",""num_scrambled_causal"":""4"",""num_scrambled_schematic"":""4"",""participantId"":""22562C21FF554B5B856E3FC2575DECB0"",""assignmentId"":""3b7fd7ef-e8b4-44dc-b972-9658a9377923"",""projectId"":""ba640c14-69c5-453e-80b2-29051492c0e0""}","https://test12345.live/?num_scrambled_semantic=8&num_scrambled_causal=4&num_scrambled_schematic=4&participantId=22562C21FF554B5B856E3FC2575DECB0&assignmentId=3b7fd7ef-e8b4-44dc-b972-9658a9377923&projectId=ba640c14-69c5-453e-80b2-29051492c0e0","22562C21FF554B5B856E3FC2575DECB0-2025-05-14-22-20-10","","null","","images/causal_sequence/package_causal/package_causal_6.png","null","",""
"","","","","","image-button-response","76","494860","0.0-12.0-1.0-1.6","22562C21FF554B5B856E3FC2575DECB0","22562C21FF554B5B856E3FC2575DECB0","3b7fd7ef-e8b4-44dc-b972-9658a9377923","ba640c14-69c5-453e-80b2-29051492c0e0","{""num_scrambled_semantic"":""8"",""num_scrambled_causal"":""4"",""num_scrambled_schematic"":""4"",""participantId"":""22562C21FF554B5B856E3FC2575DECB0"",""assignmentId"":""3b7fd7ef-e8b4-44dc-b972-9658a9377923"",""projectId"":""ba640c14-69c5-453e-80b2-29051492c0e0""}","https://test12345.live/?num_scrambled_semantic=8&num_scrambled_causal=4&num_scrambled_schematic=4&participantId=22562C21FF554B5B856E3FC2575DECB0&assignmentId=3b7fd7ef-e8b4-44dc-b972-9658a9377923&projectId=ba640c14-69c5-453e-80b2-29051492c0e0","22562C21FF554B5B856E3FC2575DECB0-2025-05-14-22-20-10","","1009","","images/causal_sequence/package_causal/package_causal_6.png","0","",""
"","","","","","image-button-response","77","496663","0.0-12.0-1.0-2.6","22562C21FF554B5B856E3FC2575DECB0","22562C21FF554B5B856E3FC2575DECB0","3b7fd7ef-e8b4-44dc-b972-9658a9377923","ba640c14-69c5-453e-80b2-29051492c0e0","{""num_scrambled_semantic"":""8"",""num_scrambled_causal"":""4"",""num_scrambled_schematic"":""4"",""participantId"":""22562C21FF554B5B856E3FC2575DECB0"",""assignmentId"":""3b7fd7ef-e8b4-44dc-b972-9658a9377923"",""projectId"":""ba640c14-69c5-453e-80b2-29051492c0e0""}","https://test12345.live/?num_scrambled_semantic=8&num_scrambled_causal=4&num_scrambled_schematic=4&participantId=22562C21FF554B5B856E3FC2575DECB0&assignmentId=3b7fd7ef-e8b4-44dc-b972-9658a9377923&projectId=ba640c14-69c5-453e-80b2-29051492c0e0","22562C21FF554B5B856E3FC2575DECB0-2025-05-14-22-20-10","","null","","[]","null","",""
"","","","","","image-button-response","78","501181","0.0-12.0-1.0-0.7","22562C21FF554B5B856E3FC2575DECB0","22562C21FF554B5B856E3FC2575DECB0","3b7fd7ef-e8b4-44dc-b972-9658a9377923","ba640c14-69c5-453e-80b2-29051492c0e0","{""num_scrambled_semantic"":""8"",""num_scrambled_causal"":""4"",""num_scrambled_schematic"":""4"",""participantId"":""22562C21FF554B5B856E3FC2575DECB0"",""assignmentId"":""3b7fd7ef-e8b4-44dc-b972-9658a9377923"",""projectId"":""ba640c14-69c5-453e-80b2-29051492c0e0""}","https://test12345.live/?num_scrambled_semantic=8&num_scrambled_causal=4&num_scrambled_schematic=4&participantId=22562C21FF554B5B856E3FC2575DECB0&assignmentId=3b7fd7ef-e8b4-44dc-b972-9658a9377923&projectId=ba640c14-69c5-453e-80b2-29051492c0e0","22562C21FF554B5B856E3FC2575DECB0-2025-05-14-22-20-10","","null","","images/causal_sequence/package_causal/package_causal_1.png","null","",""
"","","","","","image-button-response","79","503273","0.0-12.0-1.0-1.7","22562C21FF554B5B856E3FC2575DECB0","22562C21FF554B5B856E3FC2575DECB0","3b7fd7ef-e8b4-44dc-b972-9658a9377923","ba640c14-69c5-453e-80b2-29051492c0e0","{""num_scrambled_semantic"":""8"",""num_scrambled_causal"":""4"",""num_scrambled_schematic"":""4"",""participantId"":""22562C21FF554B5B856E3FC2575DECB0"",""assignmentId"":""3b7fd7ef-e8b4-44dc-b972-9658a9377923"",""projectId"":""ba640c14-69c5-453e-80b2-29051492c0e0""}","https://test12345.live/?num_scrambled_semantic=8&num_scrambled_causal=4&num_scrambled_schematic=4&participantId=22562C21FF554B5B856E3FC2575DECB0&assignmentId=3b7fd7ef-e8b4-44dc-b972-9658a9377923&projectId=ba640c14-69c5-453e-80b2-29051492c0e0","22562C21FF554B5B856E3FC2575DECB0-2025-05-14-22-20-10","","2089","","images/causal_sequence/package_causal/package_causal_1.png","0","",""
"","","","","","image-button-response","80","505083","0.0-12.0-1.0-2.7","22562C21FF554B5B856E3FC2575DECB0","22562C21FF554B5B856E3FC2575DECB0","3b7fd7ef-e8b4-44dc-b972-9658a9377923","ba640c14-69c5-453e-80b2-29051492c0e0","{""num_scrambled_semantic"":""8"",""num_scrambled_causal"":""4"",""num_scrambled_schematic"":""4"",""participantId"":""22562C21FF554B5B856E3FC2575DECB0"",""assignmentId"":""3b7fd7ef-e8b4-44dc-b972-9658a9377923"",""projectId"":""ba640c14-69c5-453e-80b2-29051492c0e0""}","https://test12345.live/?num_scrambled_semantic=8&num_scrambled_causal=4&num_scrambled_schematic=4&participantId=22562C21FF554B5B856E3FC2575DECB0&assignmentId=3b7fd7ef-e8b4-44dc-b972-9658a9377923&projectId=ba640c14-69c5-453e-80b2-29051492c0e0","22562C21FF554B5B856E3FC2575DECB0-2025-05-14-22-20-10","","null","","[]","null","",""
"","","","","","image-button-response","81","509586","0.0-12.0-1.0-0.8","22562C21FF554B5B856E3FC2575DECB0","22562C21FF554B5B856E3FC2575DECB0","3b7fd7ef-e8b4-44dc-b972-9658a9377923","ba640c14-69c5-453e-80b2-29051492c0e0","{""num_scrambled_semantic"":""8"",""num_scrambled_causal"":""4"",""num_scrambled_schematic"":""4"",""participantId"":""22562C21FF554B5B856E3FC2575DECB0"",""assignmentId"":""3b7fd7ef-e8b4-44dc-b972-9658a9377923"",""projectId"":""ba640c14-69c5-453e-80b2-29051492c0e0""}","https://test12345.live/?num_scrambled_semantic=8&num_scrambled_causal=4&num_scrambled_schematic=4&participantId=22562C21FF554B5B856E3FC2575DECB0&assignmentId=3b7fd7ef-e8b4-44dc-b972-9658a9377923&projectId=ba640c14-69c5-453e-80b2-29051492c0e0","22562C21FF554B5B856E3FC2575DECB0-2025-05-14-22-20-10","","null","","images/causal_sequence/package_causal/package_causal_8.png","null","",""
"","","","","","image-button-response","82","511212","0.0-12.0-1.0-1.8","22562C21FF554B5B856E3FC2575DECB0","22562C21FF554B5B856E3FC2575DECB0","3b7fd7ef-e8b4-44dc-b972-9658a9377923","ba640c14-69c5-453e-80b2-29051492c0e0","{""num_scrambled_semantic"":""8"",""num_scrambled_causal"":""4"",""num_scrambled_schematic"":""4"",""participantId"":""22562C21FF554B5B856E3FC2575DECB0"",""assignmentId"":""3b7fd7ef-e8b4-44dc-b972-9658a9377923"",""projectId"":""ba640c14-69c5-453e-80b2-29051492c0e0""}","https://test12345.live/?num_scrambled_semantic=8&num_scrambled_causal=4&num_scrambled_schematic=4&participantId=22562C21FF554B5B856E3FC2575DECB0&assignmentId=3b7fd7ef-e8b4-44dc-b972-9658a9377923&projectId=ba640c14-69c5-453e-80b2-29051492c0e0","22562C21FF554B5B856E3FC2575DECB0-2025-05-14-22-20-10","","1622","","images/causal_sequence/package_causal/package_causal_8.png","0","",""
"","","","","","image-button-response","83","513022","0.0-12.0-1.0-2.8","22562C21FF554B5B856E3FC2575DECB0","22562C21FF554B5B856E3FC2575DECB0","3b7fd7ef-e8b4-44dc-b972-9658a9377923","ba640c14-69c5-453e-80b2-29051492c0e0","{""num_scrambled_semantic"":""8"",""num_scrambled_causal"":""4"",""num_scrambled_schematic"":""4"",""participantId"":""22562C21FF554B5B856E3FC2575DECB0"",""assignmentId"":""3b7fd7ef-e8b4-44dc-b972-9658a9377923"",""projectId"":""ba640c14-69c5-453e-80b2-29051492c0e0""}","https://test12345.live/?num_scrambled_semantic=8&num_scrambled_causal=4&num_scrambled_schematic=4&participantId=22562C21FF554B5B856E3FC2575DECB0&assignmentId=3b7fd7ef-e8b4-44dc-b972-9658a9377923&projectId=ba640c14-69c5-453e-80b2-29051492c0e0","22562C21FF554B5B856E3FC2575DECB0-2025-05-14-22-20-10","","null","","[]","null","",""
"","","","","","image-button-response","84","517540","0.0-12.0-1.0-0.9","22562C21FF554B5B856E3FC2575DECB0","22562C21FF554B5B856E3FC2575DECB0","3b7fd7ef-e8b4-44dc-b972-9658a9377923","ba640c14-69c5-453e-80b2-29051492c0e0","{""num_scrambled_semantic"":""8"",""num_scrambled_causal"":""4"",""num_scrambled_schematic"":""4"",""participantId"":""22562C21FF554B5B856E3FC2575DECB0"",""assignmentId"":""3b7fd7ef-e8b4-44dc-b972-9658a9377923"",""projectId"":""ba640c14-69c5-453e-80b2-29051492c0e0""}","https://test12345.live/?num_scrambled_semantic=8&num_scrambled_causal=4&num_scrambled_schematic=4&participantId=22562C21FF554B5B856E3FC2575DECB0&assignmentId=3b7fd7ef-e8b4-44dc-b972-9658a9377923&projectId=ba640c14-69c5-453e-80b2-29051492c0e0","22562C21FF554B5B856E3FC2575DECB0-2025-05-14-22-20-10","","null","","images/causal_sequence/package_causal/package_causal_ten.png","null","",""
"","","","","","image-button-response","85","518666","0.0-12.0-1.0-1.9","22562C21FF554B5B856E3FC2575DECB0","22562C21FF554B5B856E3FC2575DECB0","3b7fd7ef-e8b4-44dc-b972-9658a9377923","ba640c14-69c5-453e-80b2-29051492c0e0","{""num_scrambled_semantic"":""8"",""num_scrambled_causal"":""4"",""num_scrambled_schematic"":""4"",""participantId"":""22562C21FF554B5B856E3FC2575DECB0"",""assignmentId"":""3b7fd7ef-e8b4-44dc-b972-9658a9377923"",""projectId"":""ba640c14-69c5-453e-80b2-29051492c0e0""}","https://test12345.live/?num_scrambled_semantic=8&num_scrambled_causal=4&num_scrambled_schematic=4&participantId=22562C21FF554B5B856E3FC2575DECB0&assignmentId=3b7fd7ef-e8b4-44dc-b972-9658a9377923&projectId=ba640c14-69c5-453e-80b2-29051492c0e0","22562C21FF554B5B856E3FC2575DECB0-2025-05-14-22-20-10","","1124","","images/causal_sequence/package_causal/package_causal_ten.png","0","",""
"","","","","","image-button-response","86","520477","0.0-12.0-1.0-2.9","22562C21FF554B5B856E3FC2575DECB0","22562C21FF554B5B856E3FC2575DECB0","3b7fd7ef-e8b4-44dc-b972-9658a9377923","ba640c14-69c5-453e-80b2-29051492c0e0","{""num_scrambled_semantic"":""8"",""num_scrambled_causal"":""4"",""num_scrambled_schematic"":""4"",""participantId"":""22562C21FF554B5B856E3FC2575DECB0"",""assignmentId"":""3b7fd7ef-e8b4-44dc-b972-9658a9377923"",""projectId"":""ba640c14-69c5-453e-80b2-29051492c0e0""}","https://test12345.live/?num_scrambled_semantic=8&num_scrambled_causal=4&num_scrambled_schematic=4&participantId=22562C21FF554B5B856E3FC2575DECB0&assignmentId=3b7fd7ef-e8b4-44dc-b972-9658a9377923&projectId=ba640c14-69c5-453e-80b2-29051492c0e0","22562C21FF554B5B856E3FC2575DECB0-2025-05-14-22-20-10","","null","","[]","null","",""
"","","","","","html-audio-response","87","541098","0.0-13.0","22562C21FF554B5B856E3FC2575DECB0","22562C21FF554B5B856E3FC2575DECB0","3b7fd7ef-e8b4-44dc-b972-9658a9377923","ba640c14-69c5-453e-80b2-29051492c0e0","{""num_scrambled_semantic"":""8"",""num_scrambled_causal"":""4"",""num_scrambled_schematic"":""4"",""participantId"":""22562C21FF554B5B856E3FC2575DECB0"",""assignmentId"":""3b7fd7ef-e8b4-44dc-b972-9658a9377923"",""projectId"":""ba640c14-69c5-453e-80b2-29051492c0e0""}","https://test12345.live/?num_scrambled_semantic=8&num_scrambled_causal=4&num_scrambled_schematic=4&participantId=22562C21FF554B5B856E3FC2575DECB0&assignmentId=3b7fd7ef-e8b4-44dc-b972-9658a9377923&projectId=ba640c14-69c5-453e-80b2-29051492c0e0","22562C21FF554B5B856E3FC2575DECB0-2025-05-14-22-20-10","","19031","","[""<span style=\""color: red; font-size: 24px\""> NOW RECORDING</span><p>Please say out loud all the images you saw, as many as you can remember. The images can be said in any order.</p>""]","","6","package_causal"
"","","","","","image-button-response","88","547112","0.0-14.0-0.0","22562C21FF554B5B856E3FC2575DECB0","22562C21FF554B5B856E3FC2575DECB0","3b7fd7ef-e8b4-44dc-b972-9658a9377923","ba640c14-69c5-453e-80b2-29051492c0e0","{""num_scrambled_semantic"":""8"",""num_scrambled_causal"":""4"",""num_scrambled_schematic"":""4"",""participantId"":""22562C21FF554B5B856E3FC2575DECB0"",""assignmentId"":""3b7fd7ef-e8b4-44dc-b972-9658a9377923"",""projectId"":""ba640c14-69c5-453e-80b2-29051492c0e0""}","https://test12345.live/?num_scrambled_semantic=8&num_scrambled_causal=4&num_scrambled_schematic=4&participantId=22562C21FF554B5B856E3FC2575DECB0&assignmentId=3b7fd7ef-e8b4-44dc-b972-9658a9377923&projectId=ba640c14-69c5-453e-80b2-29051492c0e0","22562C21FF554B5B856E3FC2575DECB0-2025-05-14-22-20-10","","null","","images/semantic_sequence/visiting_cities_semantic/visiting_cities_semantic_0.png","null","",""
"","","","","","image-button-response","89","551624","0.0-14.0-1.0-0.0","22562C21FF554B5B856E3FC2575DECB0","22562C21FF554B5B856E3FC2575DECB0","3b7fd7ef-e8b4-44dc-b972-9658a9377923","ba640c14-69c5-453e-80b2-29051492c0e0","{""num_scrambled_semantic"":""8"",""num_scrambled_causal"":""4"",""num_scrambled_schematic"":""4"",""participantId"":""22562C21FF554B5B856E3FC2575DECB0"",""assignmentId"":""3b7fd7ef-e8b4-44dc-b972-9658a9377923"",""projectId"":""ba640c14-69c5-453e-80b2-29051492c0e0""}","https://test12345.live/?num_scrambled_semantic=8&num_scrambled_causal=4&num_scrambled_schematic=4&participantId=22562C21FF554B5B856E3FC2575DECB0&assignmentId=3b7fd7ef-e8b4-44dc-b972-9658a9377923&projectId=ba640c14-69c5-453e-80b2-29051492c0e0","22562C21FF554B5B856E3FC2575DECB0-2025-05-14-22-20-10","","null","","images/semantic_sequence/visiting_cities_semantic/visiting_cities_semantic_8.png","null","",""
"","","","","","image-button-response","90","553973","0.0-14.0-1.0-1.0","22562C21FF554B5B856E3FC2575DECB0","22562C21FF554B5B856E3FC2575DECB0","3b7fd7ef-e8b4-44dc-b972-9658a9377923","ba640c14-69c5-453e-80b2-29051492c0e0","{""num_scrambled_semantic"":""8"",""num_scrambled_causal"":""4"",""num_scrambled_schematic"":""4"",""participantId"":""22562C21FF554B5B856E3FC2575DECB0"",""assignmentId"":""3b7fd7ef-e8b4-44dc-b972-9658a9377923"",""projectId"":""ba640c14-69c5-453e-80b2-29051492c0e0""}","https://test12345.live/?num_scrambled_semantic=8&num_scrambled_causal=4&num_scrambled_schematic=4&participantId=22562C21FF554B5B856E3FC2575DECB0&assignmentId=3b7fd7ef-e8b4-44dc-b972-9658a9377923&projectId=ba640c14-69c5-453e-80b2-29051492c0e0","22562C21FF554B5B856E3FC2575DECB0-2025-05-14-22-20-10","","2345","","images/semantic_sequence/visiting_cities_semantic/visiting_cities_semantic_8.png","1","",""
"","","","","","image-button-response","91","555780","0.0-14.0-1.0-2.0","22562C21FF554B5B856E3FC2575DECB0","22562C21FF554B5B856E3FC2575DECB0","3b7fd7ef-e8b4-44dc-b972-9658a9377923","ba640c14-69c5-453e-80b2-29051492c0e0","{""num_scrambled_semantic"":""8"",""num_scrambled_causal"":""4"",""num_scrambled_schematic"":""4"",""participantId"":""22562C21FF554B5B856E3FC2575DECB0"",""assignmentId"":""3b7fd7ef-e8b4-44dc-b972-9658a9377923"",""projectId"":""ba640c14-69c5-453e-80b2-29051492c0e0""}","https://test12345.live/?num_scrambled_semantic=8&num_scrambled_causal=4&num_scrambled_schematic=4&participantId=22562C21FF554B5B856E3FC2575DECB0&assignmentId=3b7fd7ef-e8b4-44dc-b972-9658a9377923&projectId=ba640c14-69c5-453e-80b2-29051492c0e0","22562C21FF554B5B856E3FC2575DECB0-2025-05-14-22-20-10","","null","","[]","null","",""
"","","","","","image-button-response","92","560290","0.0-14.0-1.0-0.1","22562C21FF554B5B856E3FC2575DECB0","22562C21FF554B5B856E3FC2575DECB0","3b7fd7ef-e8b4-44dc-b972-9658a9377923","ba640c14-69c5-453e-80b2-29051492c0e0","{""num_scrambled_semantic"":""8"",""num_scrambled_causal"":""4"",""num_scrambled_schematic"":""4"",""participantId"":""22562C21FF554B5B856E3FC2575DECB0"",""assignmentId"":""3b7fd7ef-e8b4-44dc-b972-9658a9377923"",""projectId"":""ba640c14-69c5-453e-80b2-29051492c0e0""}","https://test12345.live/?num_scrambled_semantic=8&num_scrambled_causal=4&num_scrambled_schematic=4&participantId=22562C21FF554B5B856E3FC2575DECB0&assignmentId=3b7fd7ef-e8b4-44dc-b972-9658a9377923&projectId=ba640c14-69c5-453e-80b2-29051492c0e0","22562C21FF554B5B856E3FC2575DECB0-2025-05-14-22-20-10","","null","","images/semantic_sequence/visiting_cities_semantic/visiting_cities_semantic_2.png","null","",""
"","","","","","image-button-response","93","561426","0.0-14.0-1.0-1.1","22562C21FF554B5B856E3FC2575DECB0","22562C21FF554B5B856E3FC2575DECB0","3b7fd7ef-e8b4-44dc-b972-9658a9377923","ba640c14-69c5-453e-80b2-29051492c0e0","{""num_scrambled_semantic"":""8"",""num_scrambled_causal"":""4"",""num_scrambled_schematic"":""4"",""participantId"":""22562C21FF554B5B856E3FC2575DECB0"",""assignmentId"":""3b7fd7ef-e8b4-44dc-b972-9658a9377923"",""projectId"":""ba640c14-69c5-453e-80b2-29051492c0e0""}","https://test12345.live/?num_scrambled_semantic=8&num_scrambled_causal=4&num_scrambled_schematic=4&participantId=22562C21FF554B5B856E3FC2575DECB0&assignmentId=3b7fd7ef-e8b4-44dc-b972-9658a9377923&projectId=ba640c14-69c5-453e-80b2-29051492c0e0","22562C21FF554B5B856E3FC2575DECB0-2025-05-14-22-20-10","","1135","","images/semantic_sequence/visiting_cities_semantic/visiting_cities_semantic_2.png","1","",""
"","","","","","image-button-response","94","563228","0.0-14.0-1.0-2.1","22562C21FF554B5B856E3FC2575DECB0","22562C21FF554B5B856E3FC2575DECB0","3b7fd7ef-e8b4-44dc-b972-9658a9377923","ba640c14-69c5-453e-80b2-29051492c0e0","{""num_scrambled_semantic"":""8"",""num_scrambled_causal"":""4"",""num_scrambled_schematic"":""4"",""participantId"":""22562C21FF554B5B856E3FC2575DECB0"",""assignmentId"":""3b7fd7ef-e8b4-44dc-b972-9658a9377923"",""projectId"":""ba640c14-69c5-453e-80b2-29051492c0e0""}","https://test12345.live/?num_scrambled_semantic=8&num_scrambled_causal=4&num_scrambled_schematic=4&participantId=22562C21FF554B5B856E3FC2575DECB0&assignmentId=3b7fd7ef-e8b4-44dc-b972-9658a9377923&projectId=ba640c14-69c5-453e-80b2-29051492c0e0","22562C21FF554B5B856E3FC2575DECB0-2025-05-14-22-20-10","","null","","[]","null","",""
"","","","","","image-button-response","95","567741","0.0-14.0-1.0-0.2","22562C21FF554B5B856E3FC2575DECB0","22562C21FF554B5B856E3FC2575DECB0","3b7fd7ef-e8b4-44dc-b972-9658a9377923","ba640c14-69c5-453e-80b2-29051492c0e0","{""num_scrambled_semantic"":""8"",""num_scrambled_causal"":""4"",""num_scrambled_schematic"":""4"",""participantId"":""22562C21FF554B5B856E3FC2575DECB0"",""assignmentId"":""3b7fd7ef-e8b4-44dc-b972-9658a9377923"",""projectId"":""ba640c14-69c5-453e-80b2-29051492c0e0""}","https://test12345.live/?num_scrambled_semantic=8&num_scrambled_causal=4&num_scrambled_schematic=4&participantId=22562C21FF554B5B856E3FC2575DECB0&assignmentId=3b7fd7ef-e8b4-44dc-b972-9658a9377923&projectId=ba640c14-69c5-453e-80b2-29051492c0e0","22562C21FF554B5B856E3FC2575DECB0-2025-05-14-22-20-10","","null","","images/semantic_sequence/visiting_cities_semantic/visiting_cities_semantic_7.png","null","",""
"","","","","","image-button-response","96","569352","0.0-14.0-1.0-1.2","22562C21FF554B5B856E3FC2575DECB0","22562C21FF554B5B856E3FC2575DECB0","3b7fd7ef-e8b4-44dc-b972-9658a9377923","ba640c14-69c5-453e-80b2-29051492c0e0","{""num_scrambled_semantic"":""8"",""num_scrambled_causal"":""4"",""num_scrambled_schematic"":""4"",""participantId"":""22562C21FF554B5B856E3FC2575DECB0"",""assignmentId"":""3b7fd7ef-e8b4-44dc-b972-9658a9377923"",""projectId"":""ba640c14-69c5-453e-80b2-29051492c0e0""}","https://test12345.live/?num_scrambled_semantic=8&num_scrambled_causal=4&num_scrambled_schematic=4&participantId=22562C21FF554B5B856E3FC2575DECB0&assignmentId=3b7fd7ef-e8b4-44dc-b972-9658a9377923&projectId=ba640c14-69c5-453e-80b2-29051492c0e0","22562C21FF554B5B856E3FC2575DECB0-2025-05-14-22-20-10","","1607","","images/semantic_sequence/visiting_cities_semantic/visiting_cities_semantic_7.png","1","",""
"","","","","","image-button-response","97","571162","0.0-14.0-1.0-2.2","22562C21FF554B5B856E3FC2575DECB0","22562C21FF554B5B856E3FC2575DECB0","3b7fd7ef-e8b4-44dc-b972-9658a9377923","ba640c14-69c5-453e-80b2-29051492c0e0","{""num_scrambled_semantic"":""8"",""num_scrambled_causal"":""4"",""num_scrambled_schematic"":""4"",""participantId"":""22562C21FF554B5B856E3FC2575DECB0"",""assignmentId"":""3b7fd7ef-e8b4-44dc-b972-9658a9377923"",""projectId"":""ba640c14-69c5-453e-80b2-29051492c0e0""}","https://test12345.live/?num_scrambled_semantic=8&num_scrambled_causal=4&num_scrambled_schematic=4&participantId=22562C21FF554B5B856E3FC2575DECB0&assignmentId=3b7fd7ef-e8b4-44dc-b972-9658a9377923&projectId=ba640c14-69c5-453e-80b2-29051492c0e0","22562C21FF554B5B856E3FC2575DECB0-2025-05-14-22-20-10","","null","","[]","null","",""
"","","","","","image-button-response","98","575681","0.0-14.0-1.0-0.3","22562C21FF554B5B856E3FC2575DECB0","22562C21FF554B5B856E3FC2575DECB0","3b7fd7ef-e8b4-44dc-b972-9658a9377923","ba640c14-69c5-453e-80b2-29051492c0e0","{""num_scrambled_semantic"":""8"",""num_scrambled_causal"":""4"",""num_scrambled_schematic"":""4"",""participantId"":""22562C21FF554B5B856E3FC2575DECB0"",""assignmentId"":""3b7fd7ef-e8b4-44dc-b972-9658a9377923"",""projectId"":""ba640c14-69c5-453e-80b2-29051492c0e0""}","https://test12345.live/?num_scrambled_semantic=8&num_scrambled_causal=4&num_scrambled_schematic=4&participantId=22562C21FF554B5B856E3FC2575DECB0&assignmentId=3b7fd7ef-e8b4-44dc-b972-9658a9377923&projectId=ba640c14-69c5-453e-80b2-29051492c0e0","22562C21FF554B5B856E3FC2575DECB0-2025-05-14-22-20-10","","null","","images/semantic_sequence/visiting_cities_semantic/visiting_cities_semantic_4.png","null","",""
"","","","","","image-button-response","99","576483","0.0-14.0-1.0-1.3","22562C21FF554B5B856E3FC2575DECB0","22562C21FF554B5B856E3FC2575DECB0","3b7fd7ef-e8b4-44dc-b972-9658a9377923","ba640c14-69c5-453e-80b2-29051492c0e0","{""num_scrambled_semantic"":""8"",""num_scrambled_causal"":""4"",""num_scrambled_schematic"":""4"",""participantId"":""22562C21FF554B5B856E3FC2575DECB0"",""assignmentId"":""3b7fd7ef-e8b4-44dc-b972-9658a9377923"",""projectId"":""ba640c14-69c5-453e-80b2-29051492c0e0""}","https://test12345.live/?num_scrambled_semantic=8&num_scrambled_causal=4&num_scrambled_schematic=4&participantId=22562C21FF554B5B856E3FC2575DECB0&assignmentId=3b7fd7ef-e8b4-44dc-b972-9658a9377923&projectId=ba640c14-69c5-453e-80b2-29051492c0e0","22562C21FF554B5B856E3FC2575DECB0-2025-05-14-22-20-10","","799","","images/semantic_sequence/visiting_cities_semantic/visiting_cities_semantic_4.png","1","",""
"","","","","","image-button-response","100","578288","0.0-14.0-1.0-2.3","22562C21FF554B5B856E3FC2575DECB0","22562C21FF554B5B856E3FC2575DECB0","3b7fd7ef-e8b4-44dc-b972-9658a9377923","ba640c14-69c5-453e-80b2-29051492c0e0","{""num_scrambled_semantic"":""8"",""num_scrambled_causal"":""4"",""num_scrambled_schematic"":""4"",""participantId"":""22562C21FF554B5B856E3FC2575DECB0"",""assignmentId"":""3b7fd7ef-e8b4-44dc-b972-9658a9377923"",""projectId"":""ba640c14-69c5-453e-80b2-29051492c0e0""}","https://test12345.live/?num_scrambled_semantic=8&num_scrambled_causal=4&num_scrambled_schematic=4&participantId=22562C21FF554B5B856E3FC2575DECB0&assignmentId=3b7fd7ef-e8b4-44dc-b972-9658a9377923&projectId=ba640c14-69c5-453e-80b2-29051492c0e0","22562C21FF554B5B856E3FC2575DECB0-2025-05-14-22-20-10","","null","","[]","null","",""
"","","","","","image-button-response","101","582804","0.0-14.0-1.0-0.4","22562C21FF554B5B856E3FC2575DECB0","22562C21FF554B5B856E3FC2575DECB0","3b7fd7ef-e8b4-44dc-b972-9658a9377923","ba640c14-69c5-453e-80b2-29051492c0e0","{""num_scrambled_semantic"":""8"",""num_scrambled_causal"":""4"",""num_scrambled_schematic"":""4"",""participantId"":""22562C21FF554B5B856E3FC2575DECB0"",""assignmentId"":""3b7fd7ef-e8b4-44dc-b972-9658a9377923"",""projectId"":""ba640c14-69c5-453e-80b2-29051492c0e0""}","https://test12345.live/?num_scrambled_semantic=8&num_scrambled_causal=4&num_scrambled_schematic=4&participantId=22562C21FF554B5B856E3FC2575DECB0&assignmentId=3b7fd7ef-e8b4-44dc-b972-9658a9377923&projectId=ba640c14-69c5-453e-80b2-29051492c0e0","22562C21FF554B5B856E3FC2575DECB0-2025-05-14-22-20-10","","null","","images/semantic_sequence/visiting_cities_semantic/visiting_cities_semantic_5.png","null","",""
"","","","","","image-button-response","102","584071","0.0-14.0-1.0-1.4","22562C21FF554B5B856E3FC2575DECB0","22562C21FF554B5B856E3FC2575DECB0","3b7fd7ef-e8b4-44dc-b972-9658a9377923","ba640c14-69c5-453e-80b2-29051492c0e0","{""num_scrambled_semantic"":""8"",""num_scrambled_causal"":""4"",""num_scrambled_schematic"":""4"",""participantId"":""22562C21FF554B5B856E3FC2575DECB0"",""assignmentId"":""3b7fd7ef-e8b4-44dc-b972-9658a9377923"",""projectId"":""ba640c14-69c5-453e-80b2-29051492c0e0""}","https://test12345.live/?num_scrambled_semantic=8&num_scrambled_causal=4&num_scrambled_schematic=4&participantId=22562C21FF554B5B856E3FC2575DECB0&assignmentId=3b7fd7ef-e8b4-44dc-b972-9658a9377923&projectId=ba640c14-69c5-453e-80b2-29051492c0e0","22562C21FF554B5B856E3FC2575DECB0-2025-05-14-22-20-10","","1263","","images/semantic_sequence/visiting_cities_semantic/visiting_cities_semantic_5.png","1","",""
"","","","","","image-button-response","103","585875","0.0-14.0-1.0-2.4","22562C21FF554B5B856E3FC2575DECB0","22562C21FF554B5B856E3FC2575DECB0","3b7fd7ef-e8b4-44dc-b972-9658a9377923","ba640c14-69c5-453e-80b2-29051492c0e0","{""num_scrambled_semantic"":""8"",""num_scrambled_causal"":""4"",""num_scrambled_schematic"":""4"",""participantId"":""22562C21FF554B5B856E3FC2575DECB0"",""assignmentId"":""3b7fd7ef-e8b4-44dc-b972-9658a9377923"",""projectId"":""ba640c14-69c5-453e-80b2-29051492c0e0""}","https://test12345.live/?num_scrambled_semantic=8&num_scrambled_causal=4&num_scrambled_schematic=4&participantId=22562C21FF554B5B856E3FC2575DECB0&assignmentId=3b7fd7ef-e8b4-44dc-b972-9658a9377923&projectId=ba640c14-69c5-453e-80b2-29051492c0e0","22562C21FF554B5B856E3FC2575DECB0-2025-05-14-22-20-10","","null","","[]","null","",""
"","","","","","image-button-response","104","590393","0.0-14.0-1.0-0.5","22562C21FF554B5B856E3FC2575DECB0","22562C21FF554B5B856E3FC2575DECB0","3b7fd7ef-e8b4-44dc-b972-9658a9377923","ba640c14-69c5-453e-80b2-29051492c0e0","{""num_scrambled_semantic"":""8"",""num_scrambled_causal"":""4"",""num_scrambled_schematic"":""4"",""participantId"":""22562C21FF554B5B856E3FC2575DECB0"",""assignmentId"":""3b7fd7ef-e8b4-44dc-b972-9658a9377923"",""projectId"":""ba640c14-69c5-453e-80b2-29051492c0e0""}","https://test12345.live/?num_scrambled_semantic=8&num_scrambled_causal=4&num_scrambled_schematic=4&participantId=22562C21FF554B5B856E3FC2575DECB0&assignmentId=3b7fd7ef-e8b4-44dc-b972-9658a9377923&projectId=ba640c14-69c5-453e-80b2-29051492c0e0","22562C21FF554B5B856E3FC2575DECB0-2025-05-14-22-20-10","","null","","images/semantic_sequence/visiting_cities_semantic/visiting_cities_semantic_ten.png","null","",""
"","","","","","image-button-response","105","591508","0.0-14.0-1.0-1.5","22562C21FF554B5B856E3FC2575DECB0","22562C21FF554B5B856E3FC2575DECB0","3b7fd7ef-e8b4-44dc-b972-9658a9377923","ba640c14-69c5-453e-80b2-29051492c0e0","{""num_scrambled_semantic"":""8"",""num_scrambled_causal"":""4"",""num_scrambled_schematic"":""4"",""participantId"":""22562C21FF554B5B856E3FC2575DECB0"",""assignmentId"":""3b7fd7ef-e8b4-44dc-b972-9658a9377923"",""projectId"":""ba640c14-69c5-453e-80b2-29051492c0e0""}","https://test12345.live/?num_scrambled_semantic=8&num_scrambled_causal=4&num_scrambled_schematic=4&participantId=22562C21FF554B5B856E3FC2575DECB0&assignmentId=3b7fd7ef-e8b4-44dc-b972-9658a9377923&projectId=ba640c14-69c5-453e-80b2-29051492c0e0","22562C21FF554B5B856E3FC2575DECB0-2025-05-14-22-20-10","","1114","","images/semantic_sequence/visiting_cities_semantic/visiting_cities_semantic_ten.png","1","",""
"","","","","","image-button-response","106","593317","0.0-14.0-1.0-2.5","22562C21FF554B5B856E3FC2575DECB0","22562C21FF554B5B856E3FC2575DECB0","3b7fd7ef-e8b4-44dc-b972-9658a9377923","ba640c14-69c5-453e-80b2-29051492c0e0","{""num_scrambled_semantic"":""8"",""num_scrambled_causal"":""4"",""num_scrambled_schematic"":""4"",""participantId"":""22562C21FF554B5B856E3FC2575DECB0"",""assignmentId"":""3b7fd7ef-e8b4-44dc-b972-9658a9377923"",""projectId"":""ba640c14-69c5-453e-80b2-29051492c0e0""}","https://test12345.live/?num_scrambled_semantic=8&num_scrambled_causal=4&num_scrambled_schematic=4&participantId=22562C21FF554B5B856E3FC2575DECB0&assignmentId=3b7fd7ef-e8b4-44dc-b972-9658a9377923&projectId=ba640c14-69c5-453e-80b2-29051492c0e0","22562C21FF554B5B856E3FC2575DECB0-2025-05-14-22-20-10","","null","","[]","null","",""
"","","","","","image-button-response","107","597824","0.0-14.0-1.0-0.6","22562C21FF554B5B856E3FC2575DECB0","22562C21FF554B5B856E3FC2575DECB0","3b7fd7ef-e8b4-44dc-b972-9658a9377923","ba640c14-69c5-453e-80b2-29051492c0e0","{""num_scrambled_semantic"":""8"",""num_scrambled_causal"":""4"",""num_scrambled_schematic"":""4"",""participantId"":""22562C21FF554B5B856E3FC2575DECB0"",""assignmentId"":""3b7fd7ef-e8b4-44dc-b972-9658a9377923"",""projectId"":""ba640c14-69c5-453e-80b2-29051492c0e0""}","https://test12345.live/?num_scrambled_semantic=8&num_scrambled_causal=4&num_scrambled_schematic=4&participantId=22562C21FF554B5B856E3FC2575DECB0&assignmentId=3b7fd7ef-e8b4-44dc-b972-9658a9377923&projectId=ba640c14-69c5-453e-80b2-29051492c0e0","22562C21FF554B5B856E3FC2575DECB0-2025-05-14-22-20-10","","null","","images/semantic_sequence/visiting_cities_semantic/visiting_cities_semantic_1.png","null","",""
"","","","","","image-button-response","108","598648","0.0-14.0-1.0-1.6","22562C21FF554B5B856E3FC2575DECB0","22562C21FF554B5B856E3FC2575DECB0","3b7fd7ef-e8b4-44dc-b972-9658a9377923","ba640c14-69c5-453e-80b2-29051492c0e0","{""num_scrambled_semantic"":""8"",""num_scrambled_causal"":""4"",""num_scrambled_schematic"":""4"",""participantId"":""22562C21FF554B5B856E3FC2575DECB0"",""assignmentId"":""3b7fd7ef-e8b4-44dc-b972-9658a9377923"",""projectId"":""ba640c14-69c5-453e-80b2-29051492c0e0""}","https://test12345.live/?num_scrambled_semantic=8&num_scrambled_causal=4&num_scrambled_schematic=4&participantId=22562C21FF554B5B856E3FC2575DECB0&assignmentId=3b7fd7ef-e8b4-44dc-b972-9658a9377923&projectId=ba640c14-69c5-453e-80b2-29051492c0e0","22562C21FF554B5B856E3FC2575DECB0-2025-05-14-22-20-10","","819","","images/semantic_sequence/visiting_cities_semantic/visiting_cities_semantic_1.png","1","",""
"","","","","","image-button-response","109","600460","0.0-14.0-1.0-2.6","22562C21FF554B5B856E3FC2575DECB0","22562C21FF554B5B856E3FC2575DECB0","3b7fd7ef-e8b4-44dc-b972-9658a9377923","ba640c14-69c5-453e-80b2-29051492c0e0","{""num_scrambled_semantic"":""8"",""num_scrambled_causal"":""4"",""num_scrambled_schematic"":""4"",""participantId"":""22562C21FF554B5B856E3FC2575DECB0"",""assignmentId"":""3b7fd7ef-e8b4-44dc-b972-9658a9377923"",""projectId"":""ba640c14-69c5-453e-80b2-29051492c0e0""}","https://test12345.live/?num_scrambled_semantic=8&num_scrambled_causal=4&num_scrambled_schematic=4&participantId=22562C21FF554B5B856E3FC2575DECB0&assignmentId=3b7fd7ef-e8b4-44dc-b972-9658a9377923&projectId=ba640c14-69c5-453e-80b2-29051492c0e0","22562C21FF554B5B856E3FC2575DECB0-2025-05-14-22-20-10","","null","","[]","null","",""
"","","","","","image-button-response","110","604976","0.0-14.0-1.0-0.7","22562C21FF554B5B856E3FC2575DECB0","22562C21FF554B5B856E3FC2575DECB0","3b7fd7ef-e8b4-44dc-b972-9658a9377923","ba640c14-69c5-453e-80b2-29051492c0e0","{""num_scrambled_semantic"":""8"",""num_scrambled_causal"":""4"",""num_scrambled_schematic"":""4"",""participantId"":""22562C21FF554B5B856E3FC2575DECB0"",""assignmentId"":""3b7fd7ef-e8b4-44dc-b972-9658a9377923"",""projectId"":""ba640c14-69c5-453e-80b2-29051492c0e0""}","https://test12345.live/?num_scrambled_semantic=8&num_scrambled_causal=4&num_scrambled_schematic=4&participantId=22562C21FF554B5B856E3FC2575DECB0&assignmentId=3b7fd7ef-e8b4-44dc-b972-9658a9377923&projectId=ba640c14-69c5-453e-80b2-29051492c0e0","22562C21FF554B5B856E3FC2575DECB0-2025-05-14-22-20-10","","null","","images/semantic_sequence/visiting_cities_semantic/visiting_cities_semantic_9.png","null","",""
"","","","","","image-button-response","111","606012","0.0-14.0-1.0-1.7","22562C21FF554B5B856E3FC2575DECB0","22562C21FF554B5B856E3FC2575DECB0","3b7fd7ef-e8b4-44dc-b972-9658a9377923","ba640c14-69c5-453e-80b2-29051492c0e0","{""num_scrambled_semantic"":""8"",""num_scrambled_causal"":""4"",""num_scrambled_schematic"":""4"",""participantId"":""22562C21FF554B5B856E3FC2575DECB0"",""assignmentId"":""3b7fd7ef-e8b4-44dc-b972-9658a9377923"",""projectId"":""ba640c14-69c5-453e-80b2-29051492c0e0""}","https://test12345.live/?num_scrambled_semantic=8&num_scrambled_causal=4&num_scrambled_schematic=4&participantId=22562C21FF554B5B856E3FC2575DECB0&assignmentId=3b7fd7ef-e8b4-44dc-b972-9658a9377923&projectId=ba640c14-69c5-453e-80b2-29051492c0e0","22562C21FF554B5B856E3FC2575DECB0-2025-05-14-22-20-10","","1033","","images/semantic_sequence/visiting_cities_semantic/visiting_cities_semantic_9.png","1","",""
"","","","","","image-button-response","112","607823","0.0-14.0-1.0-2.7","22562C21FF554B5B856E3FC2575DECB0","22562C21FF554B5B856E3FC2575DECB0","3b7fd7ef-e8b4-44dc-b972-9658a9377923","ba640c14-69c5-453e-80b2-29051492c0e0","{""num_scrambled_semantic"":""8"",""num_scrambled_causal"":""4"",""num_scrambled_schematic"":""4"",""participantId"":""22562C21FF554B5B856E3FC2575DECB0"",""assignmentId"":""3b7fd7ef-e8b4-44dc-b972-9658a9377923"",""projectId"":""ba640c14-69c5-453e-80b2-29051492c0e0""}","https://test12345.live/?num_scrambled_semantic=8&num_scrambled_causal=4&num_scrambled_schematic=4&participantId=22562C21FF554B5B856E3FC2575DECB0&assignmentId=3b7fd7ef-e8b4-44dc-b972-9658a9377923&projectId=ba640c14-69c5-453e-80b2-29051492c0e0","22562C21FF554B5B856E3FC2575DECB0-2025-05-14-22-20-10","","null","","[]","null","",""
"","","","","","image-button-response","113","612327","0.0-14.0-1.0-0.8","22562C21FF554B5B856E3FC2575DECB0","22562C21FF554B5B856E3FC2575DECB0","3b7fd7ef-e8b4-44dc-b972-9658a9377923","ba640c14-69c5-453e-80b2-29051492c0e0","{""num_scrambled_semantic"":""8"",""num_scrambled_causal"":""4"",""num_scrambled_schematic"":""4"",""participantId"":""22562C21FF554B5B856E3FC2575DECB0"",""assignmentId"":""3b7fd7ef-e8b4-44dc-b972-9658a9377923"",""projectId"":""ba640c14-69c5-453e-80b2-29051492c0e0""}","https://test12345.live/?num_scrambled_semantic=8&num_scrambled_causal=4&num_scrambled_schematic=4&participantId=22562C21FF554B5B856E3FC2575DECB0&assignmentId=3b7fd7ef-e8b4-44dc-b972-9658a9377923&projectId=ba640c14-69c5-453e-80b2-29051492c0e0","22562C21FF554B5B856E3FC2575DECB0-2025-05-14-22-20-10","","null","","images/semantic_sequence/visiting_cities_semantic/visiting_cities_semantic_6.png","null","",""
