"success","timeout","failed_images","failed_audio","failed_video","trial_type","trial_index","time_elapsed","internal_node_id","subject","subject_id","study_id","session_id","urlvar","current_url","audio_id","view_history","rt","device_id","stimulus","response","estimated_stimulus_onset","seq_name"
"true","false","[]","[]","[]","preload","0","5","0.0-0.0","23977AABA4A04E488A2F684D7B42F26B","23977AABA4A04E488A2F684D7B42F26B","dd08ae66-3d0a-464a-987c-22843c7ac1b2","a9f3d40c-5730-405c-b25e-1034c4c56f3f","{""num_scrambled_semantic"":""8"",""num_scrambled_causal"":""4"",""num_scrambled_schematic"":""4"",""participantId"":""23977AABA4A04E488A2F684D7B42F26B"",""assignmentId"":""dd08ae66-3d0a-464a-987c-22843c7ac1b2"",""projectId"":""a9f3d40c-5730-405c-b25e-1034c4c56f3f""}","https://test12345.live/?num_scrambled_semantic=8&num_scrambled_causal=4&num_scrambled_schematic=4&participantId=23977AABA4A04E488A2F684D7B42F26B&assignmentId=dd08ae66-3d0a-464a-987c-22843c7ac1b2&projectId=a9f3d40c-5730-405c-b25e-1034c4c56f3f","23977AABA4A04E488A2F684D7B42F26B-2025-08-07-19-11-04","","","","","","",""
"","","","","","instructions","1","3790","0.0-1.0","23977AABA4A04E488A2F684D7B42F26B","23977AABA4A04E488A2F684D7B42F26B","dd08ae66-3d0a-464a-987c-22843c7ac1b2","a9f3d40c-5730-405c-b25e-1034c4c56f3f","{""num_scrambled_semantic"":""8"",""num_scrambled_causal"":""4"",""num_scrambled_schematic"":""4"",""participantId"":""23977AABA4A04E488A2F684D7B42F26B"",""assignmentId"":""dd08ae66-3d0a-464a-987c-22843c7ac1b2"",""projectId"":""a9f3d40c-5730-405c-b25e-1034c4c56f3f""}","https://test12345.live/?num_scrambled_semantic=8&num_scrambled_causal=4&num_scrambled_schematic=4&participantId=23977AABA4A04E488A2F684D7B42F26B&assignmentId=dd08ae66-3d0a-464a-987c-22843c7ac1b2&projectId=a9f3d40c-5730-405c-b25e-1034c4c56f3f","23977AABA4A04E488A2F684D7B42F26B-2025-08-07-19-11-04","[{""page_index"":0,""viewing_time"":3784}]","3785","","","","",""
"","","","","","instructions","2","5499","0.0-2.0","23977AABA4A04E488A2F684D7B42F26B","23977AABA4A04E488A2F684D7B42F26B","dd08ae66-3d0a-464a-987c-22843c7ac1b2","a9f3d40c-5730-405c-b25e-1034c4c56f3f","{""num_scrambled_semantic"":""8"",""num_scrambled_causal"":""4"",""num_scrambled_schematic"":""4"",""participantId"":""23977AABA4A04E488A2F684D7B42F26B"",""assignmentId"":""dd08ae66-3d0a-464a-987c-22843c7ac1b2"",""projectId"":""a9f3d40c-5730-405c-b25e-1034c4c56f3f""}","https://test12345.live/?num_scrambled_semantic=8&num_scrambled_causal=4&num_scrambled_schematic=4&participantId=23977AABA4A04E488A2F684D7B42F26B&assignmentId=dd08ae66-3d0a-464a-987c-22843c7ac1b2&projectId=a9f3d40c-5730-405c-b25e-1034c4c56f3f","23977AABA4A04E488A2F684D7B42F26B-2025-08-07-19-11-04","[{""page_index"":0,""viewing_time"":1710}]","1710","","","","",""
"true","","","","","fullscreen","3","8053","0.0-3.0","23977AABA4A04E488A2F684D7B42F26B","23977AABA4A04E488A2F684D7B42F26B","dd08ae66-3d0a-464a-987c-22843c7ac1b2","a9f3d40c-5730-405c-b25e-1034c4c56f3f","{""num_scrambled_semantic"":""8"",""num_scrambled_causal"":""4"",""num_scrambled_schematic"":""4"",""participantId"":""23977AABA4A04E488A2F684D7B42F26B"",""assignmentId"":""dd08ae66-3d0a-464a-987c-22843c7ac1b2"",""projectId"":""a9f3d40c-5730-405c-b25e-1034c4c56f3f""}","https://test12345.live/?num_scrambled_semantic=8&num_scrambled_causal=4&num_scrambled_schematic=4&participantId=23977AABA4A04E488A2F684D7B42F26B&assignmentId=dd08ae66-3d0a-464a-987c-22843c7ac1b2&projectId=a9f3d40c-5730-405c-b25e-1034c4c56f3f","23977AABA4A04E488A2F684D7B42F26B-2025-08-07-19-11-04","","1553","","","","",""
"","","","","","initialize-microphone","4","10836","0.0-4.0-0.0","23977AABA4A04E488A2F684D7B42F26B","23977AABA4A04E488A2F684D7B42F26B","dd08ae66-3d0a-464a-987c-22843c7ac1b2","a9f3d40c-5730-405c-b25e-1034c4c56f3f","{""num_scrambled_semantic"":""8"",""num_scrambled_causal"":""4"",""num_scrambled_schematic"":""4"",""participantId"":""23977AABA4A04E488A2F684D7B42F26B"",""assignmentId"":""dd08ae66-3d0a-464a-987c-22843c7ac1b2"",""projectId"":""a9f3d40c-5730-405c-b25e-1034c4c56f3f""}","https://test12345.live/?num_scrambled_semantic=8&num_scrambled_causal=4&num_scrambled_schematic=4&participantId=23977AABA4A04E488A2F684D7B42F26B&assignmentId=dd08ae66-3d0a-464a-987c-22843c7ac1b2&projectId=a9f3d40c-5730-405c-b25e-1034c4c56f3f","23977AABA4A04E488A2F684D7B42F26B-2025-08-07-19-11-04","","","98a2814044d6c413152a398e4467c6a22ae734c219289d603bde3ae86dd3ec0b","","","",""
"","","","","","html-audio-response","5","400284","0.0-4.0-1.0","23977AABA4A04E488A2F684D7B42F26B","23977AABA4A04E488A2F684D7B42F26B","dd08ae66-3d0a-464a-987c-22843c7ac1b2","a9f3d40c-5730-405c-b25e-1034c4c56f3f","{""num_scrambled_semantic"":""8"",""num_scrambled_causal"":""4"",""num_scrambled_schematic"":""4"",""participantId"":""23977AABA4A04E488A2F684D7B42F26B"",""assignmentId"":""dd08ae66-3d0a-464a-987c-22843c7ac1b2"",""projectId"":""a9f3d40c-5730-405c-b25e-1034c4c56f3f""}","https://test12345.live/?num_scrambled_semantic=8&num_scrambled_causal=4&num_scrambled_schematic=4&participantId=23977AABA4A04E488A2F684D7B42F26B&assignmentId=dd08ae66-3d0a-464a-987c-22843c7ac1b2&projectId=a9f3d40c-5730-405c-b25e-1034c4c56f3f","23977AABA4A04E488A2F684D7B42F26B-2025-08-07-19-11-04","","1888","","<span style=""color: red; font-size: 24px""> NOW RECORDING</span>
        <p>Please test Microphone</p>","","1",""
"","","","","","html-button-response","6","402242","0.0-4.0-2.0","23977AABA4A04E488A2F684D7B42F26B","23977AABA4A04E488A2F684D7B42F26B","dd08ae66-3d0a-464a-987c-22843c7ac1b2","a9f3d40c-5730-405c-b25e-1034c4c56f3f","{""num_scrambled_semantic"":""8"",""num_scrambled_causal"":""4"",""num_scrambled_schematic"":""4"",""participantId"":""23977AABA4A04E488A2F684D7B42F26B"",""assignmentId"":""dd08ae66-3d0a-464a-987c-22843c7ac1b2"",""projectId"":""a9f3d40c-5730-405c-b25e-1034c4c56f3f""}","https://test12345.live/?num_scrambled_semantic=8&num_scrambled_causal=4&num_scrambled_schematic=4&participantId=23977AABA4A04E488A2F684D7B42F26B&assignmentId=dd08ae66-3d0a-464a-987c-22843c7ac1b2&projectId=a9f3d40c-5730-405c-b25e-1034c4c56f3f","23977AABA4A04E488A2F684D7B42F26B-2025-08-07-19-11-04","","1958","","<p style=""font-size:48px; color:red;"">Is Microphone OK?</p>","1","",""
"","","","","","instructions","7","416346","0.0-5.0","23977AABA4A04E488A2F684D7B42F26B","23977AABA4A04E488A2F684D7B42F26B","dd08ae66-3d0a-464a-987c-22843c7ac1b2","a9f3d40c-5730-405c-b25e-1034c4c56f3f","{""num_scrambled_semantic"":""8"",""num_scrambled_causal"":""4"",""num_scrambled_schematic"":""4"",""participantId"":""23977AABA4A04E488A2F684D7B42F26B"",""assignmentId"":""dd08ae66-3d0a-464a-987c-22843c7ac1b2"",""projectId"":""a9f3d40c-5730-405c-b25e-1034c4c56f3f""}","https://test12345.live/?num_scrambled_semantic=8&num_scrambled_causal=4&num_scrambled_schematic=4&participantId=23977AABA4A04E488A2F684D7B42F26B&assignmentId=dd08ae66-3d0a-464a-987c-22843c7ac1b2&projectId=a9f3d40c-5730-405c-b25e-1034c4c56f3f","23977AABA4A04E488A2F684D7B42F26B-2025-08-07-19-11-04","[{""page_index"":0,""viewing_time"":8462},{""page_index"":1,""viewing_time"":5642}]","14104","","","","",""
"","","","","","image-button-response","8","422355","0.0-6.0-0.0","23977AABA4A04E488A2F684D7B42F26B","23977AABA4A04E488A2F684D7B42F26B","dd08ae66-3d0a-464a-987c-22843c7ac1b2","a9f3d40c-5730-405c-b25e-1034c4c56f3f","{""num_scrambled_semantic"":""8"",""num_scrambled_causal"":""4"",""num_scrambled_schematic"":""4"",""participantId"":""23977AABA4A04E488A2F684D7B42F26B"",""assignmentId"":""dd08ae66-3d0a-464a-987c-22843c7ac1b2"",""projectId"":""a9f3d40c-5730-405c-b25e-1034c4c56f3f""}","https://test12345.live/?num_scrambled_semantic=8&num_scrambled_causal=4&num_scrambled_schematic=4&participantId=23977AABA4A04E488A2F684D7B42F26B&assignmentId=dd08ae66-3d0a-464a-987c-22843c7ac1b2&projectId=a9f3d40c-5730-405c-b25e-1034c4c56f3f","23977AABA4A04E488A2F684D7B42F26B-2025-08-07-19-11-04","","null","","images/instructions/movie_0.png","null","",""
"","","","","","image-button-response","9","426857","0.0-6.0-1.0-0.0","23977AABA4A04E488A2F684D7B42F26B","23977AABA4A04E488A2F684D7B42F26B","dd08ae66-3d0a-464a-987c-22843c7ac1b2","a9f3d40c-5730-405c-b25e-1034c4c56f3f","{""num_scrambled_semantic"":""8"",""num_scrambled_causal"":""4"",""num_scrambled_schematic"":""4"",""participantId"":""23977AABA4A04E488A2F684D7B42F26B"",""assignmentId"":""dd08ae66-3d0a-464a-987c-22843c7ac1b2"",""projectId"":""a9f3d40c-5730-405c-b25e-1034c4c56f3f""}","https://test12345.live/?num_scrambled_semantic=8&num_scrambled_causal=4&num_scrambled_schematic=4&participantId=23977AABA4A04E488A2F684D7B42F26B&assignmentId=dd08ae66-3d0a-464a-987c-22843c7ac1b2&projectId=a9f3d40c-5730-405c-b25e-1034c4c56f3f","23977AABA4A04E488A2F684D7B42F26B-2025-08-07-19-11-04","","null","","images/instructions/movie_1.png","null","",""
"","","","","","image-button-response","10","430289","0.0-6.0-1.0-1.0","23977AABA4A04E488A2F684D7B42F26B","23977AABA4A04E488A2F684D7B42F26B","dd08ae66-3d0a-464a-987c-22843c7ac1b2","a9f3d40c-5730-405c-b25e-1034c4c56f3f","{""num_scrambled_semantic"":""8"",""num_scrambled_causal"":""4"",""num_scrambled_schematic"":""4"",""participantId"":""23977AABA4A04E488A2F684D7B42F26B"",""assignmentId"":""dd08ae66-3d0a-464a-987c-22843c7ac1b2"",""projectId"":""a9f3d40c-5730-405c-b25e-1034c4c56f3f""}","https://test12345.live/?num_scrambled_semantic=8&num_scrambled_causal=4&num_scrambled_schematic=4&participantId=23977AABA4A04E488A2F684D7B42F26B&assignmentId=dd08ae66-3d0a-464a-987c-22843c7ac1b2&projectId=a9f3d40c-5730-405c-b25e-1034c4c56f3f","23977AABA4A04E488A2F684D7B42F26B-2025-08-07-19-11-04","","3432","","images/instructions/movie_1.png","0","",""
"","","","","","image-button-response","11","432094","0.0-6.0-1.0-2.0","23977AABA4A04E488A2F684D7B42F26B","23977AABA4A04E488A2F684D7B42F26B","dd08ae66-3d0a-464a-987c-22843c7ac1b2","a9f3d40c-5730-405c-b25e-1034c4c56f3f","{""num_scrambled_semantic"":""8"",""num_scrambled_causal"":""4"",""num_scrambled_schematic"":""4"",""participantId"":""23977AABA4A04E488A2F684D7B42F26B"",""assignmentId"":""dd08ae66-3d0a-464a-987c-22843c7ac1b2"",""projectId"":""a9f3d40c-5730-405c-b25e-1034c4c56f3f""}","https://test12345.live/?num_scrambled_semantic=8&num_scrambled_causal=4&num_scrambled_schematic=4&participantId=23977AABA4A04E488A2F684D7B42F26B&assignmentId=dd08ae66-3d0a-464a-987c-22843c7ac1b2&projectId=a9f3d40c-5730-405c-b25e-1034c4c56f3f","23977AABA4A04E488A2F684D7B42F26B-2025-08-07-19-11-04","","null","","[]","null","",""
"","","","","","image-button-response","12","436600","0.0-6.0-1.0-0.1","23977AABA4A04E488A2F684D7B42F26B","23977AABA4A04E488A2F684D7B42F26B","dd08ae66-3d0a-464a-987c-22843c7ac1b2","a9f3d40c-5730-405c-b25e-1034c4c56f3f","{""num_scrambled_semantic"":""8"",""num_scrambled_causal"":""4"",""num_scrambled_schematic"":""4"",""participantId"":""23977AABA4A04E488A2F684D7B42F26B"",""assignmentId"":""dd08ae66-3d0a-464a-987c-22843c7ac1b2"",""projectId"":""a9f3d40c-5730-405c-b25e-1034c4c56f3f""}","https://test12345.live/?num_scrambled_semantic=8&num_scrambled_causal=4&num_scrambled_schematic=4&participantId=23977AABA4A04E488A2F684D7B42F26B&assignmentId=dd08ae66-3d0a-464a-987c-22843c7ac1b2&projectId=a9f3d40c-5730-405c-b25e-1034c4c56f3f","23977AABA4A04E488A2F684D7B42F26B-2025-08-07-19-11-04","","null","","images/instructions/movie_2.png","null","",""
"","","","","","image-button-response","13","437858","0.0-6.0-1.0-1.1","23977AABA4A04E488A2F684D7B42F26B","23977AABA4A04E488A2F684D7B42F26B","dd08ae66-3d0a-464a-987c-22843c7ac1b2","a9f3d40c-5730-405c-b25e-1034c4c56f3f","{""num_scrambled_semantic"":""8"",""num_scrambled_causal"":""4"",""num_scrambled_schematic"":""4"",""participantId"":""23977AABA4A04E488A2F684D7B42F26B"",""assignmentId"":""dd08ae66-3d0a-464a-987c-22843c7ac1b2"",""projectId"":""a9f3d40c-5730-405c-b25e-1034c4c56f3f""}","https://test12345.live/?num_scrambled_semantic=8&num_scrambled_causal=4&num_scrambled_schematic=4&participantId=23977AABA4A04E488A2F684D7B42F26B&assignmentId=dd08ae66-3d0a-464a-987c-22843c7ac1b2&projectId=a9f3d40c-5730-405c-b25e-1034c4c56f3f","23977AABA4A04E488A2F684D7B42F26B-2025-08-07-19-11-04","","1258","","images/instructions/movie_2.png","0","",""
"","","","","","image-button-response","14","439673","0.0-6.0-1.0-2.1","23977AABA4A04E488A2F684D7B42F26B","23977AABA4A04E488A2F684D7B42F26B","dd08ae66-3d0a-464a-987c-22843c7ac1b2","a9f3d40c-5730-405c-b25e-1034c4c56f3f","{""num_scrambled_semantic"":""8"",""num_scrambled_causal"":""4"",""num_scrambled_schematic"":""4"",""participantId"":""23977AABA4A04E488A2F684D7B42F26B"",""assignmentId"":""dd08ae66-3d0a-464a-987c-22843c7ac1b2"",""projectId"":""a9f3d40c-5730-405c-b25e-1034c4c56f3f""}","https://test12345.live/?num_scrambled_semantic=8&num_scrambled_causal=4&num_scrambled_schematic=4&participantId=23977AABA4A04E488A2F684D7B42F26B&assignmentId=dd08ae66-3d0a-464a-987c-22843c7ac1b2&projectId=a9f3d40c-5730-405c-b25e-1034c4c56f3f","23977AABA4A04E488A2F684D7B42F26B-2025-08-07-19-11-04","","null","","[]","null","",""
"","","","","","image-button-response","15","444177","0.0-6.0-1.0-0.2","23977AABA4A04E488A2F684D7B42F26B","23977AABA4A04E488A2F684D7B42F26B","dd08ae66-3d0a-464a-987c-22843c7ac1b2","a9f3d40c-5730-405c-b25e-1034c4c56f3f","{""num_scrambled_semantic"":""8"",""num_scrambled_causal"":""4"",""num_scrambled_schematic"":""4"",""participantId"":""23977AABA4A04E488A2F684D7B42F26B"",""assignmentId"":""dd08ae66-3d0a-464a-987c-22843c7ac1b2"",""projectId"":""a9f3d40c-5730-405c-b25e-1034c4c56f3f""}","https://test12345.live/?num_scrambled_semantic=8&num_scrambled_causal=4&num_scrambled_schematic=4&participantId=23977AABA4A04E488A2F684D7B42F26B&assignmentId=dd08ae66-3d0a-464a-987c-22843c7ac1b2&projectId=a9f3d40c-5730-405c-b25e-1034c4c56f3f","23977AABA4A04E488A2F684D7B42F26B-2025-08-07-19-11-04","","null","","images/instructions/movie_3.png","null","",""
"","","","","","image-button-response","16","445443","0.0-6.0-1.0-1.2","23977AABA4A04E488A2F684D7B42F26B","23977AABA4A04E488A2F684D7B42F26B","dd08ae66-3d0a-464a-987c-22843c7ac1b2","a9f3d40c-5730-405c-b25e-1034c4c56f3f","{""num_scrambled_semantic"":""8"",""num_scrambled_causal"":""4"",""num_scrambled_schematic"":""4"",""participantId"":""23977AABA4A04E488A2F684D7B42F26B"",""assignmentId"":""dd08ae66-3d0a-464a-987c-22843c7ac1b2"",""projectId"":""a9f3d40c-5730-405c-b25e-1034c4c56f3f""}","https://test12345.live/?num_scrambled_semantic=8&num_scrambled_causal=4&num_scrambled_schematic=4&participantId=23977AABA4A04E488A2F684D7B42F26B&assignmentId=dd08ae66-3d0a-464a-987c-22843c7ac1b2&projectId=a9f3d40c-5730-405c-b25e-1034c4c56f3f","23977AABA4A04E488A2F684D7B42F26B-2025-08-07-19-11-04","","1266","","images/instructions/movie_3.png","0","",""
"","","","","","image-button-response","17","447245","0.0-6.0-1.0-2.2","23977AABA4A04E488A2F684D7B42F26B","23977AABA4A04E488A2F684D7B42F26B","dd08ae66-3d0a-464a-987c-22843c7ac1b2","a9f3d40c-5730-405c-b25e-1034c4c56f3f","{""num_scrambled_semantic"":""8"",""num_scrambled_causal"":""4"",""num_scrambled_schematic"":""4"",""participantId"":""23977AABA4A04E488A2F684D7B42F26B"",""assignmentId"":""dd08ae66-3d0a-464a-987c-22843c7ac1b2"",""projectId"":""a9f3d40c-5730-405c-b25e-1034c4c56f3f""}","https://test12345.live/?num_scrambled_semantic=8&num_scrambled_causal=4&num_scrambled_schematic=4&participantId=23977AABA4A04E488A2F684D7B42F26B&assignmentId=dd08ae66-3d0a-464a-987c-22843c7ac1b2&projectId=a9f3d40c-5730-405c-b25e-1034c4c56f3f","23977AABA4A04E488A2F684D7B42F26B-2025-08-07-19-11-04","","null","","[]","null","",""
"","","","","","image-button-response","18","451747","0.0-6.0-1.0-0.3","23977AABA4A04E488A2F684D7B42F26B","23977AABA4A04E488A2F684D7B42F26B","dd08ae66-3d0a-464a-987c-22843c7ac1b2","a9f3d40c-5730-405c-b25e-1034c4c56f3f","{""num_scrambled_semantic"":""8"",""num_scrambled_causal"":""4"",""num_scrambled_schematic"":""4"",""participantId"":""23977AABA4A04E488A2F684D7B42F26B"",""assignmentId"":""dd08ae66-3d0a-464a-987c-22843c7ac1b2"",""projectId"":""a9f3d40c-5730-405c-b25e-1034c4c56f3f""}","https://test12345.live/?num_scrambled_semantic=8&num_scrambled_causal=4&num_scrambled_schematic=4&participantId=23977AABA4A04E488A2F684D7B42F26B&assignmentId=dd08ae66-3d0a-464a-987c-22843c7ac1b2&projectId=a9f3d40c-5730-405c-b25e-1034c4c56f3f","23977AABA4A04E488A2F684D7B42F26B-2025-08-07-19-11-04","","null","","images/instructions/movie_4.png","null","",""
"","","","","","image-button-response","19","453456","0.0-6.0-1.0-1.3","23977AABA4A04E488A2F684D7B42F26B","23977AABA4A04E488A2F684D7B42F26B","dd08ae66-3d0a-464a-987c-22843c7ac1b2","a9f3d40c-5730-405c-b25e-1034c4c56f3f","{""num_scrambled_semantic"":""8"",""num_scrambled_causal"":""4"",""num_scrambled_schematic"":""4"",""participantId"":""23977AABA4A04E488A2F684D7B42F26B"",""assignmentId"":""dd08ae66-3d0a-464a-987c-22843c7ac1b2"",""projectId"":""a9f3d40c-5730-405c-b25e-1034c4c56f3f""}","https://test12345.live/?num_scrambled_semantic=8&num_scrambled_causal=4&num_scrambled_schematic=4&participantId=23977AABA4A04E488A2F684D7B42F26B&assignmentId=dd08ae66-3d0a-464a-987c-22843c7ac1b2&projectId=a9f3d40c-5730-405c-b25e-1034c4c56f3f","23977AABA4A04E488A2F684D7B42F26B-2025-08-07-19-11-04","","1709","","images/instructions/movie_4.png","0","",""
"","","","","","image-button-response","20","455272","0.0-6.0-1.0-2.3","23977AABA4A04E488A2F684D7B42F26B","23977AABA4A04E488A2F684D7B42F26B","dd08ae66-3d0a-464a-987c-22843c7ac1b2","a9f3d40c-5730-405c-b25e-1034c4c56f3f","{""num_scrambled_semantic"":""8"",""num_scrambled_causal"":""4"",""num_scrambled_schematic"":""4"",""participantId"":""23977AABA4A04E488A2F684D7B42F26B"",""assignmentId"":""dd08ae66-3d0a-464a-987c-22843c7ac1b2"",""projectId"":""a9f3d40c-5730-405c-b25e-1034c4c56f3f""}","https://test12345.live/?num_scrambled_semantic=8&num_scrambled_causal=4&num_scrambled_schematic=4&participantId=23977AABA4A04E488A2F684D7B42F26B&assignmentId=dd08ae66-3d0a-464a-987c-22843c7ac1b2&projectId=a9f3d40c-5730-405c-b25e-1034c4c56f3f","23977AABA4A04E488A2F684D7B42F26B-2025-08-07-19-11-04","","null","","[]","null","",""
"","","","","","instructions","21","467548","0.0-7.0","23977AABA4A04E488A2F684D7B42F26B","23977AABA4A04E488A2F684D7B42F26B","dd08ae66-3d0a-464a-987c-22843c7ac1b2","a9f3d40c-5730-405c-b25e-1034c4c56f3f","{""num_scrambled_semantic"":""8"",""num_scrambled_causal"":""4"",""num_scrambled_schematic"":""4"",""participantId"":""23977AABA4A04E488A2F684D7B42F26B"",""assignmentId"":""dd08ae66-3d0a-464a-987c-22843c7ac1b2"",""projectId"":""a9f3d40c-5730-405c-b25e-1034c4c56f3f""}","https://test12345.live/?num_scrambled_semantic=8&num_scrambled_causal=4&num_scrambled_schematic=4&participantId=23977AABA4A04E488A2F684D7B42F26B&assignmentId=dd08ae66-3d0a-464a-987c-22843c7ac1b2&projectId=a9f3d40c-5730-405c-b25e-1034c4c56f3f","23977AABA4A04E488A2F684D7B42F26B-2025-08-07-19-11-04","[{""page_index"":0,""viewing_time"":10984},{""page_index"":1,""viewing_time"":1292}]","12276","","","","",""
"","","","","","html-audio-response","22","509844","0.0-8.0","23977AABA4A04E488A2F684D7B42F26B","23977AABA4A04E488A2F684D7B42F26B","dd08ae66-3d0a-464a-987c-22843c7ac1b2","a9f3d40c-5730-405c-b25e-1034c4c56f3f","{""num_scrambled_semantic"":""8"",""num_scrambled_causal"":""4"",""num_scrambled_schematic"":""4"",""participantId"":""23977AABA4A04E488A2F684D7B42F26B"",""assignmentId"":""dd08ae66-3d0a-464a-987c-22843c7ac1b2"",""projectId"":""a9f3d40c-5730-405c-b25e-1034c4c56f3f""}","https://test12345.live/?num_scrambled_semantic=8&num_scrambled_causal=4&num_scrambled_schematic=4&participantId=23977AABA4A04E488A2F684D7B42F26B&assignmentId=dd08ae66-3d0a-464a-987c-22843c7ac1b2&projectId=a9f3d40c-5730-405c-b25e-1034c4c56f3f","23977AABA4A04E488A2F684D7B42F26B-2025-08-07-19-11-04","","30387","","[""<span style=\""color: red; font-size: 24px\""> NOW RECORDING</span><p>Please say out loud all the images you saw, as many as you can remember. The images can be said in any order.</p>""]","","1",""
"","","","","","instructions","23","511348","0.0-9.0","23977AABA4A04E488A2F684D7B42F26B","23977AABA4A04E488A2F684D7B42F26B","dd08ae66-3d0a-464a-987c-22843c7ac1b2","a9f3d40c-5730-405c-b25e-1034c4c56f3f","{""num_scrambled_semantic"":""8"",""num_scrambled_causal"":""4"",""num_scrambled_schematic"":""4"",""participantId"":""23977AABA4A04E488A2F684D7B42F26B"",""assignmentId"":""dd08ae66-3d0a-464a-987c-22843c7ac1b2"",""projectId"":""a9f3d40c-5730-405c-b25e-1034c4c56f3f""}","https://test12345.live/?num_scrambled_semantic=8&num_scrambled_causal=4&num_scrambled_schematic=4&participantId=23977AABA4A04E488A2F684D7B42F26B&assignmentId=dd08ae66-3d0a-464a-987c-22843c7ac1b2&projectId=a9f3d40c-5730-405c-b25e-1034c4c56f3f","23977AABA4A04E488A2F684D7B42F26B-2025-08-07-19-11-04","[{""page_index"":0,""viewing_time"":1501}]","1502","","","","",""
"","","","","","image-button-response","24","517351","0.0-10.0-0.0","23977AABA4A04E488A2F684D7B42F26B","23977AABA4A04E488A2F684D7B42F26B","dd08ae66-3d0a-464a-987c-22843c7ac1b2","a9f3d40c-5730-405c-b25e-1034c4c56f3f","{""num_scrambled_semantic"":""8"",""num_scrambled_causal"":""4"",""num_scrambled_schematic"":""4"",""participantId"":""23977AABA4A04E488A2F684D7B42F26B"",""assignmentId"":""dd08ae66-3d0a-464a-987c-22843c7ac1b2"",""projectId"":""a9f3d40c-5730-405c-b25e-1034c4c56f3f""}","https://test12345.live/?num_scrambled_semantic=8&num_scrambled_causal=4&num_scrambled_schematic=4&participantId=23977AABA4A04E488A2F684D7B42F26B&assignmentId=dd08ae66-3d0a-464a-987c-22843c7ac1b2&projectId=a9f3d40c-5730-405c-b25e-1034c4c56f3f","23977AABA4A04E488A2F684D7B42F26B-2025-08-07-19-11-04","","null","","images/semantic_sequence/maintaining_a_car_semantic/maintaining_a_car_semantic_0.png","null","",""
"","","","","","image-button-response","25","521865","0.0-10.0-1.0-0.0","23977AABA4A04E488A2F684D7B42F26B","23977AABA4A04E488A2F684D7B42F26B","dd08ae66-3d0a-464a-987c-22843c7ac1b2","a9f3d40c-5730-405c-b25e-1034c4c56f3f","{""num_scrambled_semantic"":""8"",""num_scrambled_causal"":""4"",""num_scrambled_schematic"":""4"",""participantId"":""23977AABA4A04E488A2F684D7B42F26B"",""assignmentId"":""dd08ae66-3d0a-464a-987c-22843c7ac1b2"",""projectId"":""a9f3d40c-5730-405c-b25e-1034c4c56f3f""}","https://test12345.live/?num_scrambled_semantic=8&num_scrambled_causal=4&num_scrambled_schematic=4&participantId=23977AABA4A04E488A2F684D7B42F26B&assignmentId=dd08ae66-3d0a-464a-987c-22843c7ac1b2&projectId=a9f3d40c-5730-405c-b25e-1034c4c56f3f","23977AABA4A04E488A2F684D7B42F26B-2025-08-07-19-11-04","","null","","images/semantic_sequence/maintaining_a_car_semantic/maintaining_a_car_semantic_6.png","null","",""
"","","","","","image-button-response","26","522957","0.0-10.0-1.0-1.0","23977AABA4A04E488A2F684D7B42F26B","23977AABA4A04E488A2F684D7B42F26B","dd08ae66-3d0a-464a-987c-22843c7ac1b2","a9f3d40c-5730-405c-b25e-1034c4c56f3f","{""num_scrambled_semantic"":""8"",""num_scrambled_causal"":""4"",""num_scrambled_schematic"":""4"",""participantId"":""23977AABA4A04E488A2F684D7B42F26B"",""assignmentId"":""dd08ae66-3d0a-464a-987c-22843c7ac1b2"",""projectId"":""a9f3d40c-5730-405c-b25e-1034c4c56f3f""}","https://test12345.live/?num_scrambled_semantic=8&num_scrambled_causal=4&num_scrambled_schematic=4&participantId=23977AABA4A04E488A2F684D7B42F26B&assignmentId=dd08ae66-3d0a-464a-987c-22843c7ac1b2&projectId=a9f3d40c-5730-405c-b25e-1034c4c56f3f","23977AABA4A04E488A2F684D7B42F26B-2025-08-07-19-11-04","","1091","","images/semantic_sequence/maintaining_a_car_semantic/maintaining_a_car_semantic_6.png","0","",""
"","","","","","image-button-response","27","524768","0.0-10.0-1.0-2.0","23977AABA4A04E488A2F684D7B42F26B","23977AABA4A04E488A2F684D7B42F26B","dd08ae66-3d0a-464a-987c-22843c7ac1b2","a9f3d40c-5730-405c-b25e-1034c4c56f3f","{""num_scrambled_semantic"":""8"",""num_scrambled_causal"":""4"",""num_scrambled_schematic"":""4"",""participantId"":""23977AABA4A04E488A2F684D7B42F26B"",""assignmentId"":""dd08ae66-3d0a-464a-987c-22843c7ac1b2"",""projectId"":""a9f3d40c-5730-405c-b25e-1034c4c56f3f""}","https://test12345.live/?num_scrambled_semantic=8&num_scrambled_causal=4&num_scrambled_schematic=4&participantId=23977AABA4A04E488A2F684D7B42F26B&assignmentId=dd08ae66-3d0a-464a-987c-22843c7ac1b2&projectId=a9f3d40c-5730-405c-b25e-1034c4c56f3f","23977AABA4A04E488A2F684D7B42F26B-2025-08-07-19-11-04","","null","","[]","null","",""
"","","","","","image-button-response","28","529275","0.0-10.0-1.0-0.1","23977AABA4A04E488A2F684D7B42F26B","23977AABA4A04E488A2F684D7B42F26B","dd08ae66-3d0a-464a-987c-22843c7ac1b2","a9f3d40c-5730-405c-b25e-1034c4c56f3f","{""num_scrambled_semantic"":""8"",""num_scrambled_causal"":""4"",""num_scrambled_schematic"":""4"",""participantId"":""23977AABA4A04E488A2F684D7B42F26B"",""assignmentId"":""dd08ae66-3d0a-464a-987c-22843c7ac1b2"",""projectId"":""a9f3d40c-5730-405c-b25e-1034c4c56f3f""}","https://test12345.live/?num_scrambled_semantic=8&num_scrambled_causal=4&num_scrambled_schematic=4&participantId=23977AABA4A04E488A2F684D7B42F26B&assignmentId=dd08ae66-3d0a-464a-987c-22843c7ac1b2&projectId=a9f3d40c-5730-405c-b25e-1034c4c56f3f","23977AABA4A04E488A2F684D7B42F26B-2025-08-07-19-11-04","","null","","images/semantic_sequence/maintaining_a_car_semantic/maintaining_a_car_semantic_7.png","null","",""
"","","","","","image-button-response","29","533276","0.0-10.0-1.0-1.1","23977AABA4A04E488A2F684D7B42F26B","23977AABA4A04E488A2F684D7B42F26B","dd08ae66-3d0a-464a-987c-22843c7ac1b2","a9f3d40c-5730-405c-b25e-1034c4c56f3f","{""num_scrambled_semantic"":""8"",""num_scrambled_causal"":""4"",""num_scrambled_schematic"":""4"",""participantId"":""23977AABA4A04E488A2F684D7B42F26B"",""assignmentId"":""dd08ae66-3d0a-464a-987c-22843c7ac1b2"",""projectId"":""a9f3d40c-5730-405c-b25e-1034c4c56f3f""}","https://test12345.live/?num_scrambled_semantic=8&num_scrambled_causal=4&num_scrambled_schematic=4&participantId=23977AABA4A04E488A2F684D7B42F26B&assignmentId=dd08ae66-3d0a-464a-987c-22843c7ac1b2&projectId=a9f3d40c-5730-405c-b25e-1034c4c56f3f","23977AABA4A04E488A2F684D7B42F26B-2025-08-07-19-11-04","","null","","images/semantic_sequence/maintaining_a_car_semantic/maintaining_a_car_semantic_7.png","null","",""
"","","","","","image-button-response","30","535081","0.0-10.0-1.0-2.1","23977AABA4A04E488A2F684D7B42F26B","23977AABA4A04E488A2F684D7B42F26B","dd08ae66-3d0a-464a-987c-22843c7ac1b2","a9f3d40c-5730-405c-b25e-1034c4c56f3f","{""num_scrambled_semantic"":""8"",""num_scrambled_causal"":""4"",""num_scrambled_schematic"":""4"",""participantId"":""23977AABA4A04E488A2F684D7B42F26B"",""assignmentId"":""dd08ae66-3d0a-464a-987c-22843c7ac1b2"",""projectId"":""a9f3d40c-5730-405c-b25e-1034c4c56f3f""}","https://test12345.live/?num_scrambled_semantic=8&num_scrambled_causal=4&num_scrambled_schematic=4&participantId=23977AABA4A04E488A2F684D7B42F26B&assignmentId=dd08ae66-3d0a-464a-987c-22843c7ac1b2&projectId=a9f3d40c-5730-405c-b25e-1034c4c56f3f","23977AABA4A04E488A2F684D7B42F26B-2025-08-07-19-11-04","","null","","[]","null","",""
"","","","","","image-button-response","31","539593","0.0-10.0-1.0-0.2","23977AABA4A04E488A2F684D7B42F26B","23977AABA4A04E488A2F684D7B42F26B","dd08ae66-3d0a-464a-987c-22843c7ac1b2","a9f3d40c-5730-405c-b25e-1034c4c56f3f","{""num_scrambled_semantic"":""8"",""num_scrambled_causal"":""4"",""num_scrambled_schematic"":""4"",""participantId"":""23977AABA4A04E488A2F684D7B42F26B"",""assignmentId"":""dd08ae66-3d0a-464a-987c-22843c7ac1b2"",""projectId"":""a9f3d40c-5730-405c-b25e-1034c4c56f3f""}","https://test12345.live/?num_scrambled_semantic=8&num_scrambled_causal=4&num_scrambled_schematic=4&participantId=23977AABA4A04E488A2F684D7B42F26B&assignmentId=dd08ae66-3d0a-464a-987c-22843c7ac1b2&projectId=a9f3d40c-5730-405c-b25e-1034c4c56f3f","23977AABA4A04E488A2F684D7B42F26B-2025-08-07-19-11-04","","null","","images/semantic_sequence/maintaining_a_car_semantic/maintaining_a_car_semantic_5.png","null","",""
"","","","","","image-button-response","32","540586","0.0-10.0-1.0-1.2","23977AABA4A04E488A2F684D7B42F26B","23977AABA4A04E488A2F684D7B42F26B","dd08ae66-3d0a-464a-987c-22843c7ac1b2","a9f3d40c-5730-405c-b25e-1034c4c56f3f","{""num_scrambled_semantic"":""8"",""num_scrambled_causal"":""4"",""num_scrambled_schematic"":""4"",""participantId"":""23977AABA4A04E488A2F684D7B42F26B"",""assignmentId"":""dd08ae66-3d0a-464a-987c-22843c7ac1b2"",""projectId"":""a9f3d40c-5730-405c-b25e-1034c4c56f3f""}","https://test12345.live/?num_scrambled_semantic=8&num_scrambled_causal=4&num_scrambled_schematic=4&participantId=23977AABA4A04E488A2F684D7B42F26B&assignmentId=dd08ae66-3d0a-464a-987c-22843c7ac1b2&projectId=a9f3d40c-5730-405c-b25e-1034c4c56f3f","23977AABA4A04E488A2F684D7B42F26B-2025-08-07-19-11-04","","993","","images/semantic_sequence/maintaining_a_car_semantic/maintaining_a_car_semantic_5.png","0","",""
"","","","","","image-button-response","33","542399","0.0-10.0-1.0-2.2","23977AABA4A04E488A2F684D7B42F26B","23977AABA4A04E488A2F684D7B42F26B","dd08ae66-3d0a-464a-987c-22843c7ac1b2","a9f3d40c-5730-405c-b25e-1034c4c56f3f","{""num_scrambled_semantic"":""8"",""num_scrambled_causal"":""4"",""num_scrambled_schematic"":""4"",""participantId"":""23977AABA4A04E488A2F684D7B42F26B"",""assignmentId"":""dd08ae66-3d0a-464a-987c-22843c7ac1b2"",""projectId"":""a9f3d40c-5730-405c-b25e-1034c4c56f3f""}","https://test12345.live/?num_scrambled_semantic=8&num_scrambled_causal=4&num_scrambled_schematic=4&participantId=23977AABA4A04E488A2F684D7B42F26B&assignmentId=dd08ae66-3d0a-464a-987c-22843c7ac1b2&projectId=a9f3d40c-5730-405c-b25e-1034c4c56f3f","23977AABA4A04E488A2F684D7B42F26B-2025-08-07-19-11-04","","null","","[]","null","",""
"","","","","","image-button-response","34","546903","0.0-10.0-1.0-0.3","23977AABA4A04E488A2F684D7B42F26B","23977AABA4A04E488A2F684D7B42F26B","dd08ae66-3d0a-464a-987c-22843c7ac1b2","a9f3d40c-5730-405c-b25e-1034c4c56f3f","{""num_scrambled_semantic"":""8"",""num_scrambled_causal"":""4"",""num_scrambled_schematic"":""4"",""participantId"":""23977AABA4A04E488A2F684D7B42F26B"",""assignmentId"":""dd08ae66-3d0a-464a-987c-22843c7ac1b2"",""projectId"":""a9f3d40c-5730-405c-b25e-1034c4c56f3f""}","https://test12345.live/?num_scrambled_semantic=8&num_scrambled_causal=4&num_scrambled_schematic=4&participantId=23977AABA4A04E488A2F684D7B42F26B&assignmentId=dd08ae66-3d0a-464a-987c-22843c7ac1b2&projectId=a9f3d40c-5730-405c-b25e-1034c4c56f3f","23977AABA4A04E488A2F684D7B42F26B-2025-08-07-19-11-04","","null","","images/semantic_sequence/maintaining_a_car_semantic/maintaining_a_car_semantic_9.png","null","",""
"","","","","","image-button-response","35","550904","0.0-10.0-1.0-1.3","23977AABA4A04E488A2F684D7B42F26B","23977AABA4A04E488A2F684D7B42F26B","dd08ae66-3d0a-464a-987c-22843c7ac1b2","a9f3d40c-5730-405c-b25e-1034c4c56f3f","{""num_scrambled_semantic"":""8"",""num_scrambled_causal"":""4"",""num_scrambled_schematic"":""4"",""participantId"":""23977AABA4A04E488A2F684D7B42F26B"",""assignmentId"":""dd08ae66-3d0a-464a-987c-22843c7ac1b2"",""projectId"":""a9f3d40c-5730-405c-b25e-1034c4c56f3f""}","https://test12345.live/?num_scrambled_semantic=8&num_scrambled_causal=4&num_scrambled_schematic=4&participantId=23977AABA4A04E488A2F684D7B42F26B&assignmentId=dd08ae66-3d0a-464a-987c-22843c7ac1b2&projectId=a9f3d40c-5730-405c-b25e-1034c4c56f3f","23977AABA4A04E488A2F684D7B42F26B-2025-08-07-19-11-04","","null","","images/semantic_sequence/maintaining_a_car_semantic/maintaining_a_car_semantic_9.png","null","",""
"","","","","","image-button-response","36","552718","0.0-10.0-1.0-2.3","23977AABA4A04E488A2F684D7B42F26B","23977AABA4A04E488A2F684D7B42F26B","dd08ae66-3d0a-464a-987c-22843c7ac1b2","a9f3d40c-5730-405c-b25e-1034c4c56f3f","{""num_scrambled_semantic"":""8"",""num_scrambled_causal"":""4"",""num_scrambled_schematic"":""4"",""participantId"":""23977AABA4A04E488A2F684D7B42F26B"",""assignmentId"":""dd08ae66-3d0a-464a-987c-22843c7ac1b2"",""projectId"":""a9f3d40c-5730-405c-b25e-1034c4c56f3f""}","https://test12345.live/?num_scrambled_semantic=8&num_scrambled_causal=4&num_scrambled_schematic=4&participantId=23977AABA4A04E488A2F684D7B42F26B&assignmentId=dd08ae66-3d0a-464a-987c-22843c7ac1b2&projectId=a9f3d40c-5730-405c-b25e-1034c4c56f3f","23977AABA4A04E488A2F684D7B42F26B-2025-08-07-19-11-04","","null","","[]","null","",""
"","","","","","image-button-response","37","557225","0.0-10.0-1.0-0.4","23977AABA4A04E488A2F684D7B42F26B","23977AABA4A04E488A2F684D7B42F26B","dd08ae66-3d0a-464a-987c-22843c7ac1b2","a9f3d40c-5730-405c-b25e-1034c4c56f3f","{""num_scrambled_semantic"":""8"",""num_scrambled_causal"":""4"",""num_scrambled_schematic"":""4"",""participantId"":""23977AABA4A04E488A2F684D7B42F26B"",""assignmentId"":""dd08ae66-3d0a-464a-987c-22843c7ac1b2"",""projectId"":""a9f3d40c-5730-405c-b25e-1034c4c56f3f""}","https://test12345.live/?num_scrambled_semantic=8&num_scrambled_causal=4&num_scrambled_schematic=4&participantId=23977AABA4A04E488A2F684D7B42F26B&assignmentId=dd08ae66-3d0a-464a-987c-22843c7ac1b2&projectId=a9f3d40c-5730-405c-b25e-1034c4c56f3f","23977AABA4A04E488A2F684D7B42F26B-2025-08-07-19-11-04","","null","","images/semantic_sequence/maintaining_a_car_semantic/maintaining_a_car_semantic_8.png","null","",""
"","","","","","image-button-response","38","558315","0.0-10.0-1.0-1.4","23977AABA4A04E488A2F684D7B42F26B","23977AABA4A04E488A2F684D7B42F26B","dd08ae66-3d0a-464a-987c-22843c7ac1b2","a9f3d40c-5730-405c-b25e-1034c4c56f3f","{""num_scrambled_semantic"":""8"",""num_scrambled_causal"":""4"",""num_scrambled_schematic"":""4"",""participantId"":""23977AABA4A04E488A2F684D7B42F26B"",""assignmentId"":""dd08ae66-3d0a-464a-987c-22843c7ac1b2"",""projectId"":""a9f3d40c-5730-405c-b25e-1034c4c56f3f""}","https://test12345.live/?num_scrambled_semantic=8&num_scrambled_causal=4&num_scrambled_schematic=4&participantId=23977AABA4A04E488A2F684D7B42F26B&assignmentId=dd08ae66-3d0a-464a-987c-22843c7ac1b2&projectId=a9f3d40c-5730-405c-b25e-1034c4c56f3f","23977AABA4A04E488A2F684D7B42F26B-2025-08-07-19-11-04","","1089","","images/semantic_sequence/maintaining_a_car_semantic/maintaining_a_car_semantic_8.png","0","",""
"","","","","","image-button-response","39","560120","0.0-10.0-1.0-2.4","23977AABA4A04E488A2F684D7B42F26B","23977AABA4A04E488A2F684D7B42F26B","dd08ae66-3d0a-464a-987c-22843c7ac1b2","a9f3d40c-5730-405c-b25e-1034c4c56f3f","{""num_scrambled_semantic"":""8"",""num_scrambled_causal"":""4"",""num_scrambled_schematic"":""4"",""participantId"":""23977AABA4A04E488A2F684D7B42F26B"",""assignmentId"":""dd08ae66-3d0a-464a-987c-22843c7ac1b2"",""projectId"":""a9f3d40c-5730-405c-b25e-1034c4c56f3f""}","https://test12345.live/?num_scrambled_semantic=8&num_scrambled_causal=4&num_scrambled_schematic=4&participantId=23977AABA4A04E488A2F684D7B42F26B&assignmentId=dd08ae66-3d0a-464a-987c-22843c7ac1b2&projectId=a9f3d40c-5730-405c-b25e-1034c4c56f3f","23977AABA4A04E488A2F684D7B42F26B-2025-08-07-19-11-04","","null","","[]","null","",""
"","","","","","image-button-response","40","564626","0.0-10.0-1.0-0.5","23977AABA4A04E488A2F684D7B42F26B","23977AABA4A04E488A2F684D7B42F26B","dd08ae66-3d0a-464a-987c-22843c7ac1b2","a9f3d40c-5730-405c-b25e-1034c4c56f3f","{""num_scrambled_semantic"":""8"",""num_scrambled_causal"":""4"",""num_scrambled_schematic"":""4"",""participantId"":""23977AABA4A04E488A2F684D7B42F26B"",""assignmentId"":""dd08ae66-3d0a-464a-987c-22843c7ac1b2"",""projectId"":""a9f3d40c-5730-405c-b25e-1034c4c56f3f""}","https://test12345.live/?num_scrambled_semantic=8&num_scrambled_causal=4&num_scrambled_schematic=4&participantId=23977AABA4A04E488A2F684D7B42F26B&assignmentId=dd08ae66-3d0a-464a-987c-22843c7ac1b2&projectId=a9f3d40c-5730-405c-b25e-1034c4c56f3f","23977AABA4A04E488A2F684D7B42F26B-2025-08-07-19-11-04","","null","","images/semantic_sequence/maintaining_a_car_semantic/maintaining_a_car_semantic_2.png","null","",""
"","","","","","image-button-response","41","565448","0.0-10.0-1.0-1.5","23977AABA4A04E488A2F684D7B42F26B","23977AABA4A04E488A2F684D7B42F26B","dd08ae66-3d0a-464a-987c-22843c7ac1b2","a9f3d40c-5730-405c-b25e-1034c4c56f3f","{""num_scrambled_semantic"":""8"",""num_scrambled_causal"":""4"",""num_scrambled_schematic"":""4"",""participantId"":""23977AABA4A04E488A2F684D7B42F26B"",""assignmentId"":""dd08ae66-3d0a-464a-987c-22843c7ac1b2"",""projectId"":""a9f3d40c-5730-405c-b25e-1034c4c56f3f""}","https://test12345.live/?num_scrambled_semantic=8&num_scrambled_causal=4&num_scrambled_schematic=4&participantId=23977AABA4A04E488A2F684D7B42F26B&assignmentId=dd08ae66-3d0a-464a-987c-22843c7ac1b2&projectId=a9f3d40c-5730-405c-b25e-1034c4c56f3f","23977AABA4A04E488A2F684D7B42F26B-2025-08-07-19-11-04","","822","","images/semantic_sequence/maintaining_a_car_semantic/maintaining_a_car_semantic_2.png","0","",""
"","","","","","image-button-response","42","567254","0.0-10.0-1.0-2.5","23977AABA4A04E488A2F684D7B42F26B","23977AABA4A04E488A2F684D7B42F26B","dd08ae66-3d0a-464a-987c-22843c7ac1b2","a9f3d40c-5730-405c-b25e-1034c4c56f3f","{""num_scrambled_semantic"":""8"",""num_scrambled_causal"":""4"",""num_scrambled_schematic"":""4"",""participantId"":""23977AABA4A04E488A2F684D7B42F26B"",""assignmentId"":""dd08ae66-3d0a-464a-987c-22843c7ac1b2"",""projectId"":""a9f3d40c-5730-405c-b25e-1034c4c56f3f""}","https://test12345.live/?num_scrambled_semantic=8&num_scrambled_causal=4&num_scrambled_schematic=4&participantId=23977AABA4A04E488A2F684D7B42F26B&assignmentId=dd08ae66-3d0a-464a-987c-22843c7ac1b2&projectId=a9f3d40c-5730-405c-b25e-1034c4c56f3f","23977AABA4A04E488A2F684D7B42F26B-2025-08-07-19-11-04","","null","","[]","null","",""
"","","","","","image-button-response","43","571765","0.0-10.0-1.0-0.6","23977AABA4A04E488A2F684D7B42F26B","23977AABA4A04E488A2F684D7B42F26B","dd08ae66-3d0a-464a-987c-22843c7ac1b2","a9f3d40c-5730-405c-b25e-1034c4c56f3f","{""num_scrambled_semantic"":""8"",""num_scrambled_causal"":""4"",""num_scrambled_schematic"":""4"",""participantId"":""23977AABA4A04E488A2F684D7B42F26B"",""assignmentId"":""dd08ae66-3d0a-464a-987c-22843c7ac1b2"",""projectId"":""a9f3d40c-5730-405c-b25e-1034c4c56f3f""}","https://test12345.live/?num_scrambled_semantic=8&num_scrambled_causal=4&num_scrambled_schematic=4&participantId=23977AABA4A04E488A2F684D7B42F26B&assignmentId=dd08ae66-3d0a-464a-987c-22843c7ac1b2&projectId=a9f3d40c-5730-405c-b25e-1034c4c56f3f","23977AABA4A04E488A2F684D7B42F26B-2025-08-07-19-11-04","","null","","images/semantic_sequence/maintaining_a_car_semantic/maintaining_a_car_semantic_4.png","null","",""
"","","","","","image-button-response","44","572661","0.0-10.0-1.0-1.6","23977AABA4A04E488A2F684D7B42F26B","23977AABA4A04E488A2F684D7B42F26B","dd08ae66-3d0a-464a-987c-22843c7ac1b2","a9f3d40c-5730-405c-b25e-1034c4c56f3f","{""num_scrambled_semantic"":""8"",""num_scrambled_causal"":""4"",""num_scrambled_schematic"":""4"",""participantId"":""23977AABA4A04E488A2F684D7B42F26B"",""assignmentId"":""dd08ae66-3d0a-464a-987c-22843c7ac1b2"",""projectId"":""a9f3d40c-5730-405c-b25e-1034c4c56f3f""}","https://test12345.live/?num_scrambled_semantic=8&num_scrambled_causal=4&num_scrambled_schematic=4&participantId=23977AABA4A04E488A2F684D7B42F26B&assignmentId=dd08ae66-3d0a-464a-987c-22843c7ac1b2&projectId=a9f3d40c-5730-405c-b25e-1034c4c56f3f","23977AABA4A04E488A2F684D7B42F26B-2025-08-07-19-11-04","","896","","images/semantic_sequence/maintaining_a_car_semantic/maintaining_a_car_semantic_4.png","0","",""
"","","","","","image-button-response","45","574471","0.0-10.0-1.0-2.6","23977AABA4A04E488A2F684D7B42F26B","23977AABA4A04E488A2F684D7B42F26B","dd08ae66-3d0a-464a-987c-22843c7ac1b2","a9f3d40c-5730-405c-b25e-1034c4c56f3f","{""num_scrambled_semantic"":""8"",""num_scrambled_causal"":""4"",""num_scrambled_schematic"":""4"",""participantId"":""23977AABA4A04E488A2F684D7B42F26B"",""assignmentId"":""dd08ae66-3d0a-464a-987c-22843c7ac1b2"",""projectId"":""a9f3d40c-5730-405c-b25e-1034c4c56f3f""}","https://test12345.live/?num_scrambled_semantic=8&num_scrambled_causal=4&num_scrambled_schematic=4&participantId=23977AABA4A04E488A2F684D7B42F26B&assignmentId=dd08ae66-3d0a-464a-987c-22843c7ac1b2&projectId=a9f3d40c-5730-405c-b25e-1034c4c56f3f","23977AABA4A04E488A2F684D7B42F26B-2025-08-07-19-11-04","","null","","[]","null","",""
"","","","","","image-button-response","46","578980","0.0-10.0-1.0-0.7","23977AABA4A04E488A2F684D7B42F26B","23977AABA4A04E488A2F684D7B42F26B","dd08ae66-3d0a-464a-987c-22843c7ac1b2","a9f3d40c-5730-405c-b25e-1034c4c56f3f","{""num_scrambled_semantic"":""8"",""num_scrambled_causal"":""4"",""num_scrambled_schematic"":""4"",""participantId"":""23977AABA4A04E488A2F684D7B42F26B"",""assignmentId"":""dd08ae66-3d0a-464a-987c-22843c7ac1b2"",""projectId"":""a9f3d40c-5730-405c-b25e-1034c4c56f3f""}","https://test12345.live/?num_scrambled_semantic=8&num_scrambled_causal=4&num_scrambled_schematic=4&participantId=23977AABA4A04E488A2F684D7B42F26B&assignmentId=dd08ae66-3d0a-464a-987c-22843c7ac1b2&projectId=a9f3d40c-5730-405c-b25e-1034c4c56f3f","23977AABA4A04E488A2F684D7B42F26B-2025-08-07-19-11-04","","null","","images/semantic_sequence/maintaining_a_car_semantic/maintaining_a_car_semantic_ten.png","null","",""
"","","","","","image-button-response","47","582557","0.0-10.0-1.0-1.7","23977AABA4A04E488A2F684D7B42F26B","23977AABA4A04E488A2F684D7B42F26B","dd08ae66-3d0a-464a-987c-22843c7ac1b2","a9f3d40c-5730-405c-b25e-1034c4c56f3f","{""num_scrambled_semantic"":""8"",""num_scrambled_causal"":""4"",""num_scrambled_schematic"":""4"",""participantId"":""23977AABA4A04E488A2F684D7B42F26B"",""assignmentId"":""dd08ae66-3d0a-464a-987c-22843c7ac1b2"",""projectId"":""a9f3d40c-5730-405c-b25e-1034c4c56f3f""}","https://test12345.live/?num_scrambled_semantic=8&num_scrambled_causal=4&num_scrambled_schematic=4&participantId=23977AABA4A04E488A2F684D7B42F26B&assignmentId=dd08ae66-3d0a-464a-987c-22843c7ac1b2&projectId=a9f3d40c-5730-405c-b25e-1034c4c56f3f","23977AABA4A04E488A2F684D7B42F26B-2025-08-07-19-11-04","","3577","","images/semantic_sequence/maintaining_a_car_semantic/maintaining_a_car_semantic_ten.png","0","",""
"","","","","","image-button-response","48","584358","0.0-10.0-1.0-2.7","23977AABA4A04E488A2F684D7B42F26B","23977AABA4A04E488A2F684D7B42F26B","dd08ae66-3d0a-464a-987c-22843c7ac1b2","a9f3d40c-5730-405c-b25e-1034c4c56f3f","{""num_scrambled_semantic"":""8"",""num_scrambled_causal"":""4"",""num_scrambled_schematic"":""4"",""participantId"":""23977AABA4A04E488A2F684D7B42F26B"",""assignmentId"":""dd08ae66-3d0a-464a-987c-22843c7ac1b2"",""projectId"":""a9f3d40c-5730-405c-b25e-1034c4c56f3f""}","https://test12345.live/?num_scrambled_semantic=8&num_scrambled_causal=4&num_scrambled_schematic=4&participantId=23977AABA4A04E488A2F684D7B42F26B&assignmentId=dd08ae66-3d0a-464a-987c-22843c7ac1b2&projectId=a9f3d40c-5730-405c-b25e-1034c4c56f3f","23977AABA4A04E488A2F684D7B42F26B-2025-08-07-19-11-04","","null","","[]","null","",""
"","","","","","image-button-response","49","588863","0.0-10.0-1.0-0.8","23977AABA4A04E488A2F684D7B42F26B","23977AABA4A04E488A2F684D7B42F26B","dd08ae66-3d0a-464a-987c-22843c7ac1b2","a9f3d40c-5730-405c-b25e-1034c4c56f3f","{""num_scrambled_semantic"":""8"",""num_scrambled_causal"":""4"",""num_scrambled_schematic"":""4"",""participantId"":""23977AABA4A04E488A2F684D7B42F26B"",""assignmentId"":""dd08ae66-3d0a-464a-987c-22843c7ac1b2"",""projectId"":""a9f3d40c-5730-405c-b25e-1034c4c56f3f""}","https://test12345.live/?num_scrambled_semantic=8&num_scrambled_causal=4&num_scrambled_schematic=4&participantId=23977AABA4A04E488A2F684D7B42F26B&assignmentId=dd08ae66-3d0a-464a-987c-22843c7ac1b2&projectId=a9f3d40c-5730-405c-b25e-1034c4c56f3f","23977AABA4A04E488A2F684D7B42F26B-2025-08-07-19-11-04","","null","","images/semantic_sequence/maintaining_a_car_semantic/maintaining_a_car_semantic_3.png","null","",""
"","","","","","image-button-response","50","589769","0.0-10.0-1.0-1.8","23977AABA4A04E488A2F684D7B42F26B","23977AABA4A04E488A2F684D7B42F26B","dd08ae66-3d0a-464a-987c-22843c7ac1b2","a9f3d40c-5730-405c-b25e-1034c4c56f3f","{""num_scrambled_semantic"":""8"",""num_scrambled_causal"":""4"",""num_scrambled_schematic"":""4"",""participantId"":""23977AABA4A04E488A2F684D7B42F26B"",""assignmentId"":""dd08ae66-3d0a-464a-987c-22843c7ac1b2"",""projectId"":""a9f3d40c-5730-405c-b25e-1034c4c56f3f""}","https://test12345.live/?num_scrambled_semantic=8&num_scrambled_causal=4&num_scrambled_schematic=4&participantId=23977AABA4A04E488A2F684D7B42F26B&assignmentId=dd08ae66-3d0a-464a-987c-22843c7ac1b2&projectId=a9f3d40c-5730-405c-b25e-1034c4c56f3f","23977AABA4A04E488A2F684D7B42F26B-2025-08-07-19-11-04","","905","","images/semantic_sequence/maintaining_a_car_semantic/maintaining_a_car_semantic_3.png","0","",""
"","","","","","image-button-response","51","591581","0.0-10.0-1.0-2.8","23977AABA4A04E488A2F684D7B42F26B","23977AABA4A04E488A2F684D7B42F26B","dd08ae66-3d0a-464a-987c-22843c7ac1b2","a9f3d40c-5730-405c-b25e-1034c4c56f3f","{""num_scrambled_semantic"":""8"",""num_scrambled_causal"":""4"",""num_scrambled_schematic"":""4"",""participantId"":""23977AABA4A04E488A2F684D7B42F26B"",""assignmentId"":""dd08ae66-3d0a-464a-987c-22843c7ac1b2"",""projectId"":""a9f3d40c-5730-405c-b25e-1034c4c56f3f""}","https://test12345.live/?num_scrambled_semantic=8&num_scrambled_causal=4&num_scrambled_schematic=4&participantId=23977AABA4A04E488A2F684D7B42F26B&assignmentId=dd08ae66-3d0a-464a-987c-22843c7ac1b2&projectId=a9f3d40c-5730-405c-b25e-1034c4c56f3f","23977AABA4A04E488A2F684D7B42F26B-2025-08-07-19-11-04","","null","","[]","null","",""
"","","","","","image-button-response","52","596088","0.0-10.0-1.0-0.9","23977AABA4A04E488A2F684D7B42F26B","23977AABA4A04E488A2F684D7B42F26B","dd08ae66-3d0a-464a-987c-22843c7ac1b2","a9f3d40c-5730-405c-b25e-1034c4c56f3f","{""num_scrambled_semantic"":""8"",""num_scrambled_causal"":""4"",""num_scrambled_schematic"":""4"",""participantId"":""23977AABA4A04E488A2F684D7B42F26B"",""assignmentId"":""dd08ae66-3d0a-464a-987c-22843c7ac1b2"",""projectId"":""a9f3d40c-5730-405c-b25e-1034c4c56f3f""}","https://test12345.live/?num_scrambled_semantic=8&num_scrambled_causal=4&num_scrambled_schematic=4&participantId=23977AABA4A04E488A2F684D7B42F26B&assignmentId=dd08ae66-3d0a-464a-987c-22843c7ac1b2&projectId=a9f3d40c-5730-405c-b25e-1034c4c56f3f","23977AABA4A04E488A2F684D7B42F26B-2025-08-07-19-11-04","","null","","images/semantic_sequence/maintaining_a_car_semantic/maintaining_a_car_semantic_1.png","null","",""
"","","","","","image-button-response","53","598343","0.0-10.0-1.0-1.9","23977AABA4A04E488A2F684D7B42F26B","23977AABA4A04E488A2F684D7B42F26B","dd08ae66-3d0a-464a-987c-22843c7ac1b2","a9f3d40c-5730-405c-b25e-1034c4c56f3f","{""num_scrambled_semantic"":""8"",""num_scrambled_causal"":""4"",""num_scrambled_schematic"":""4"",""participantId"":""23977AABA4A04E488A2F684D7B42F26B"",""assignmentId"":""dd08ae66-3d0a-464a-987c-22843c7ac1b2"",""projectId"":""a9f3d40c-5730-405c-b25e-1034c4c56f3f""}","https://test12345.live/?num_scrambled_semantic=8&num_scrambled_causal=4&num_scrambled_schematic=4&participantId=23977AABA4A04E488A2F684D7B42F26B&assignmentId=dd08ae66-3d0a-464a-987c-22843c7ac1b2&projectId=a9f3d40c-5730-405c-b25e-1034c4c56f3f","23977AABA4A04E488A2F684D7B42F26B-2025-08-07-19-11-04","","2255","","images/semantic_sequence/maintaining_a_car_semantic/maintaining_a_car_semantic_1.png","0","",""
"","","","","","image-button-response","54","600148","0.0-10.0-1.0-2.9","23977AABA4A04E488A2F684D7B42F26B","23977AABA4A04E488A2F684D7B42F26B","dd08ae66-3d0a-464a-987c-22843c7ac1b2","a9f3d40c-5730-405c-b25e-1034c4c56f3f","{""num_scrambled_semantic"":""8"",""num_scrambled_causal"":""4"",""num_scrambled_schematic"":""4"",""participantId"":""23977AABA4A04E488A2F684D7B42F26B"",""assignmentId"":""dd08ae66-3d0a-464a-987c-22843c7ac1b2"",""projectId"":""a9f3d40c-5730-405c-b25e-1034c4c56f3f""}","https://test12345.live/?num_scrambled_semantic=8&num_scrambled_causal=4&num_scrambled_schematic=4&participantId=23977AABA4A04E488A2F684D7B42F26B&assignmentId=dd08ae66-3d0a-464a-987c-22843c7ac1b2&projectId=a9f3d40c-5730-405c-b25e-1034c4c56f3f","23977AABA4A04E488A2F684D7B42F26B-2025-08-07-19-11-04","","null","","[]","null","",""
"","","","","","html-audio-response","55","650543","0.0-11.0","23977AABA4A04E488A2F684D7B42F26B","23977AABA4A04E488A2F684D7B42F26B","dd08ae66-3d0a-464a-987c-22843c7ac1b2","a9f3d40c-5730-405c-b25e-1034c4c56f3f","{""num_scrambled_semantic"":""8"",""num_scrambled_causal"":""4"",""num_scrambled_schematic"":""4"",""participantId"":""23977AABA4A04E488A2F684D7B42F26B"",""assignmentId"":""dd08ae66-3d0a-464a-987c-22843c7ac1b2"",""projectId"":""a9f3d40c-5730-405c-b25e-1034c4c56f3f""}","https://test12345.live/?num_scrambled_semantic=8&num_scrambled_causal=4&num_scrambled_schematic=4&participantId=23977AABA4A04E488A2F684D7B42F26B&assignmentId=dd08ae66-3d0a-464a-987c-22843c7ac1b2&projectId=a9f3d40c-5730-405c-b25e-1034c4c56f3f","23977AABA4A04E488A2F684D7B42F26B-2025-08-07-19-11-04","","34630","","[""<span style=\""color: red; font-size: 24px\""> NOW RECORDING</span><p>Please say out loud all the images you saw, as many as you can remember. The images can be said in any order.</p>""]","","1","maintaining_a_car_semantic"
"","","","","","image-button-response","56","656554","0.0-12.0-0.0","23977AABA4A04E488A2F684D7B42F26B","23977AABA4A04E488A2F684D7B42F26B","dd08ae66-3d0a-464a-987c-22843c7ac1b2","a9f3d40c-5730-405c-b25e-1034c4c56f3f","{""num_scrambled_semantic"":""8"",""num_scrambled_causal"":""4"",""num_scrambled_schematic"":""4"",""participantId"":""23977AABA4A04E488A2F684D7B42F26B"",""assignmentId"":""dd08ae66-3d0a-464a-987c-22843c7ac1b2"",""projectId"":""a9f3d40c-5730-405c-b25e-1034c4c56f3f""}","https://test12345.live/?num_scrambled_semantic=8&num_scrambled_causal=4&num_scrambled_schematic=4&participantId=23977AABA4A04E488A2F684D7B42F26B&assignmentId=dd08ae66-3d0a-464a-987c-22843c7ac1b2&projectId=a9f3d40c-5730-405c-b25e-1034c4c56f3f","23977AABA4A04E488A2F684D7B42F26B-2025-08-07-19-11-04","","null","","images/causal_sequence/package_causal/package_causal_0.png","null","",""
"","","","","","image-button-response","57","661058","0.0-12.0-1.0-0.0","23977AABA4A04E488A2F684D7B42F26B","23977AABA4A04E488A2F684D7B42F26B","dd08ae66-3d0a-464a-987c-22843c7ac1b2","a9f3d40c-5730-405c-b25e-1034c4c56f3f","{""num_scrambled_semantic"":""8"",""num_scrambled_causal"":""4"",""num_scrambled_schematic"":""4"",""participantId"":""23977AABA4A04E488A2F684D7B42F26B"",""assignmentId"":""dd08ae66-3d0a-464a-987c-22843c7ac1b2"",""projectId"":""a9f3d40c-5730-405c-b25e-1034c4c56f3f""}","https://test12345.live/?num_scrambled_semantic=8&num_scrambled_causal=4&num_scrambled_schematic=4&participantId=23977AABA4A04E488A2F684D7B42F26B&assignmentId=dd08ae66-3d0a-464a-987c-22843c7ac1b2&projectId=a9f3d40c-5730-405c-b25e-1034c4c56f3f","23977AABA4A04E488A2F684D7B42F26B-2025-08-07-19-11-04","","null","","images/causal_sequence/package_causal/package_causal_5.png","null","",""
"","","","","","image-button-response","58","662048","0.0-12.0-1.0-1.0","23977AABA4A04E488A2F684D7B42F26B","23977AABA4A04E488A2F684D7B42F26B","dd08ae66-3d0a-464a-987c-22843c7ac1b2","a9f3d40c-5730-405c-b25e-1034c4c56f3f","{""num_scrambled_semantic"":""8"",""num_scrambled_causal"":""4"",""num_scrambled_schematic"":""4"",""participantId"":""23977AABA4A04E488A2F684D7B42F26B"",""assignmentId"":""dd08ae66-3d0a-464a-987c-22843c7ac1b2"",""projectId"":""a9f3d40c-5730-405c-b25e-1034c4c56f3f""}","https://test12345.live/?num_scrambled_semantic=8&num_scrambled_causal=4&num_scrambled_schematic=4&participantId=23977AABA4A04E488A2F684D7B42F26B&assignmentId=dd08ae66-3d0a-464a-987c-22843c7ac1b2&projectId=a9f3d40c-5730-405c-b25e-1034c4c56f3f","23977AABA4A04E488A2F684D7B42F26B-2025-08-07-19-11-04","","989","","images/causal_sequence/package_causal/package_causal_5.png","0","",""
"","","","","","image-button-response","59","663852","0.0-12.0-1.0-2.0","23977AABA4A04E488A2F684D7B42F26B","23977AABA4A04E488A2F684D7B42F26B","dd08ae66-3d0a-464a-987c-22843c7ac1b2","a9f3d40c-5730-405c-b25e-1034c4c56f3f","{""num_scrambled_semantic"":""8"",""num_scrambled_causal"":""4"",""num_scrambled_schematic"":""4"",""participantId"":""23977AABA4A04E488A2F684D7B42F26B"",""assignmentId"":""dd08ae66-3d0a-464a-987c-22843c7ac1b2"",""projectId"":""a9f3d40c-5730-405c-b25e-1034c4c56f3f""}","https://test12345.live/?num_scrambled_semantic=8&num_scrambled_causal=4&num_scrambled_schematic=4&participantId=23977AABA4A04E488A2F684D7B42F26B&assignmentId=dd08ae66-3d0a-464a-987c-22843c7ac1b2&projectId=a9f3d40c-5730-405c-b25e-1034c4c56f3f","23977AABA4A04E488A2F684D7B42F26B-2025-08-07-19-11-04","","null","","[]","null","",""
"","","","","","image-button-response","60","668359","0.0-12.0-1.0-0.1","23977AABA4A04E488A2F684D7B42F26B","23977AABA4A04E488A2F684D7B42F26B","dd08ae66-3d0a-464a-987c-22843c7ac1b2","a9f3d40c-5730-405c-b25e-1034c4c56f3f","{""num_scrambled_semantic"":""8"",""num_scrambled_causal"":""4"",""num_scrambled_schematic"":""4"",""participantId"":""23977AABA4A04E488A2F684D7B42F26B"",""assignmentId"":""dd08ae66-3d0a-464a-987c-22843c7ac1b2"",""projectId"":""a9f3d40c-5730-405c-b25e-1034c4c56f3f""}","https://test12345.live/?num_scrambled_semantic=8&num_scrambled_causal=4&num_scrambled_schematic=4&participantId=23977AABA4A04E488A2F684D7B42F26B&assignmentId=dd08ae66-3d0a-464a-987c-22843c7ac1b2&projectId=a9f3d40c-5730-405c-b25e-1034c4c56f3f","23977AABA4A04E488A2F684D7B42F26B-2025-08-07-19-11-04","","null","","images/causal_sequence/package_causal/package_causal_1.png","null","",""
"","","","","","image-button-response","61","670748","0.0-12.0-1.0-1.1","23977AABA4A04E488A2F684D7B42F26B","23977AABA4A04E488A2F684D7B42F26B","dd08ae66-3d0a-464a-987c-22843c7ac1b2","a9f3d40c-5730-405c-b25e-1034c4c56f3f","{""num_scrambled_semantic"":""8"",""num_scrambled_causal"":""4"",""num_scrambled_schematic"":""4"",""participantId"":""23977AABA4A04E488A2F684D7B42F26B"",""assignmentId"":""dd08ae66-3d0a-464a-987c-22843c7ac1b2"",""projectId"":""a9f3d40c-5730-405c-b25e-1034c4c56f3f""}","https://test12345.live/?num_scrambled_semantic=8&num_scrambled_causal=4&num_scrambled_schematic=4&participantId=23977AABA4A04E488A2F684D7B42F26B&assignmentId=dd08ae66-3d0a-464a-987c-22843c7ac1b2&projectId=a9f3d40c-5730-405c-b25e-1034c4c56f3f","23977AABA4A04E488A2F684D7B42F26B-2025-08-07-19-11-04","","2389","","images/causal_sequence/package_causal/package_causal_1.png","0","",""
"","","","","","image-button-response","62","672554","0.0-12.0-1.0-2.1","23977AABA4A04E488A2F684D7B42F26B","23977AABA4A04E488A2F684D7B42F26B","dd08ae66-3d0a-464a-987c-22843c7ac1b2","a9f3d40c-5730-405c-b25e-1034c4c56f3f","{""num_scrambled_semantic"":""8"",""num_scrambled_causal"":""4"",""num_scrambled_schematic"":""4"",""participantId"":""23977AABA4A04E488A2F684D7B42F26B"",""assignmentId"":""dd08ae66-3d0a-464a-987c-22843c7ac1b2"",""projectId"":""a9f3d40c-5730-405c-b25e-1034c4c56f3f""}","https://test12345.live/?num_scrambled_semantic=8&num_scrambled_causal=4&num_scrambled_schematic=4&participantId=23977AABA4A04E488A2F684D7B42F26B&assignmentId=dd08ae66-3d0a-464a-987c-22843c7ac1b2&projectId=a9f3d40c-5730-405c-b25e-1034c4c56f3f","23977AABA4A04E488A2F684D7B42F26B-2025-08-07-19-11-04","","null","","[]","null","",""
"","","","","","image-button-response","63","677056","0.0-12.0-1.0-0.2","23977AABA4A04E488A2F684D7B42F26B","23977AABA4A04E488A2F684D7B42F26B","dd08ae66-3d0a-464a-987c-22843c7ac1b2","a9f3d40c-5730-405c-b25e-1034c4c56f3f","{""num_scrambled_semantic"":""8"",""num_scrambled_causal"":""4"",""num_scrambled_schematic"":""4"",""participantId"":""23977AABA4A04E488A2F684D7B42F26B"",""assignmentId"":""dd08ae66-3d0a-464a-987c-22843c7ac1b2"",""projectId"":""a9f3d40c-5730-405c-b25e-1034c4c56f3f""}","https://test12345.live/?num_scrambled_semantic=8&num_scrambled_causal=4&num_scrambled_schematic=4&participantId=23977AABA4A04E488A2F684D7B42F26B&assignmentId=dd08ae66-3d0a-464a-987c-22843c7ac1b2&projectId=a9f3d40c-5730-405c-b25e-1034c4c56f3f","23977AABA4A04E488A2F684D7B42F26B-2025-08-07-19-11-04","","null","","images/causal_sequence/package_causal/package_causal_ten.png","null","",""
"","","","","","image-button-response","64","677877","0.0-12.0-1.0-1.2","23977AABA4A04E488A2F684D7B42F26B","23977AABA4A04E488A2F684D7B42F26B","dd08ae66-3d0a-464a-987c-22843c7ac1b2","a9f3d40c-5730-405c-b25e-1034c4c56f3f","{""num_scrambled_semantic"":""8"",""num_scrambled_causal"":""4"",""num_scrambled_schematic"":""4"",""participantId"":""23977AABA4A04E488A2F684D7B42F26B"",""assignmentId"":""dd08ae66-3d0a-464a-987c-22843c7ac1b2"",""projectId"":""a9f3d40c-5730-405c-b25e-1034c4c56f3f""}","https://test12345.live/?num_scrambled_semantic=8&num_scrambled_causal=4&num_scrambled_schematic=4&participantId=23977AABA4A04E488A2F684D7B42F26B&assignmentId=dd08ae66-3d0a-464a-987c-22843c7ac1b2&projectId=a9f3d40c-5730-405c-b25e-1034c4c56f3f","23977AABA4A04E488A2F684D7B42F26B-2025-08-07-19-11-04","","820","","images/causal_sequence/package_causal/package_causal_ten.png","0","",""
"","","","","","image-button-response","65","679684","0.0-12.0-1.0-2.2","23977AABA4A04E488A2F684D7B42F26B","23977AABA4A04E488A2F684D7B42F26B","dd08ae66-3d0a-464a-987c-22843c7ac1b2","a9f3d40c-5730-405c-b25e-1034c4c56f3f","{""num_scrambled_semantic"":""8"",""num_scrambled_causal"":""4"",""num_scrambled_schematic"":""4"",""participantId"":""23977AABA4A04E488A2F684D7B42F26B"",""assignmentId"":""dd08ae66-3d0a-464a-987c-22843c7ac1b2"",""projectId"":""a9f3d40c-5730-405c-b25e-1034c4c56f3f""}","https://test12345.live/?num_scrambled_semantic=8&num_scrambled_causal=4&num_scrambled_schematic=4&participantId=23977AABA4A04E488A2F684D7B42F26B&assignmentId=dd08ae66-3d0a-464a-987c-22843c7ac1b2&projectId=a9f3d40c-5730-405c-b25e-1034c4c56f3f","23977AABA4A04E488A2F684D7B42F26B-2025-08-07-19-11-04","","null","","[]","null","",""
"","","","","","image-button-response","66","684190","0.0-12.0-1.0-0.3","23977AABA4A04E488A2F684D7B42F26B","23977AABA4A04E488A2F684D7B42F26B","dd08ae66-3d0a-464a-987c-22843c7ac1b2","a9f3d40c-5730-405c-b25e-1034c4c56f3f","{""num_scrambled_semantic"":""8"",""num_scrambled_causal"":""4"",""num_scrambled_schematic"":""4"",""participantId"":""23977AABA4A04E488A2F684D7B42F26B"",""assignmentId"":""dd08ae66-3d0a-464a-987c-22843c7ac1b2"",""projectId"":""a9f3d40c-5730-405c-b25e-1034c4c56f3f""}","https://test12345.live/?num_scrambled_semantic=8&num_scrambled_causal=4&num_scrambled_schematic=4&participantId=23977AABA4A04E488A2F684D7B42F26B&assignmentId=dd08ae66-3d0a-464a-987c-22843c7ac1b2&projectId=a9f3d40c-5730-405c-b25e-1034c4c56f3f","23977AABA4A04E488A2F684D7B42F26B-2025-08-07-19-11-04","","null","","images/causal_sequence/package_causal/package_causal_3.png","null","",""
"","","","","","image-button-response","67","685220","0.0-12.0-1.0-1.3","23977AABA4A04E488A2F684D7B42F26B","23977AABA4A04E488A2F684D7B42F26B","dd08ae66-3d0a-464a-987c-22843c7ac1b2","a9f3d40c-5730-405c-b25e-1034c4c56f3f","{""num_scrambled_semantic"":""8"",""num_scrambled_causal"":""4"",""num_scrambled_schematic"":""4"",""participantId"":""23977AABA4A04E488A2F684D7B42F26B"",""assignmentId"":""dd08ae66-3d0a-464a-987c-22843c7ac1b2"",""projectId"":""a9f3d40c-5730-405c-b25e-1034c4c56f3f""}","https://test12345.live/?num_scrambled_semantic=8&num_scrambled_causal=4&num_scrambled_schematic=4&participantId=23977AABA4A04E488A2F684D7B42F26B&assignmentId=dd08ae66-3d0a-464a-987c-22843c7ac1b2&projectId=a9f3d40c-5730-405c-b25e-1034c4c56f3f","23977AABA4A04E488A2F684D7B42F26B-2025-08-07-19-11-04","","1029","","images/causal_sequence/package_causal/package_causal_3.png","0","",""
"","","","","","image-button-response","68","687032","0.0-12.0-1.0-2.3","23977AABA4A04E488A2F684D7B42F26B","23977AABA4A04E488A2F684D7B42F26B","dd08ae66-3d0a-464a-987c-22843c7ac1b2","a9f3d40c-5730-405c-b25e-1034c4c56f3f","{""num_scrambled_semantic"":""8"",""num_scrambled_causal"":""4"",""num_scrambled_schematic"":""4"",""participantId"":""23977AABA4A04E488A2F684D7B42F26B"",""assignmentId"":""dd08ae66-3d0a-464a-987c-22843c7ac1b2"",""projectId"":""a9f3d40c-5730-405c-b25e-1034c4c56f3f""}","https://test12345.live/?num_scrambled_semantic=8&num_scrambled_causal=4&num_scrambled_schematic=4&participantId=23977AABA4A04E488A2F684D7B42F26B&assignmentId=dd08ae66-3d0a-464a-987c-22843c7ac1b2&projectId=a9f3d40c-5730-405c-b25e-1034c4c56f3f","23977AABA4A04E488A2F684D7B42F26B-2025-08-07-19-11-04","","null","","[]","null","",""
"","","","","","image-button-response","69","691545","0.0-12.0-1.0-0.4","23977AABA4A04E488A2F684D7B42F26B","23977AABA4A04E488A2F684D7B42F26B","dd08ae66-3d0a-464a-987c-22843c7ac1b2","a9f3d40c-5730-405c-b25e-1034c4c56f3f","{""num_scrambled_semantic"":""8"",""num_scrambled_causal"":""4"",""num_scrambled_schematic"":""4"",""participantId"":""23977AABA4A04E488A2F684D7B42F26B"",""assignmentId"":""dd08ae66-3d0a-464a-987c-22843c7ac1b2"",""projectId"":""a9f3d40c-5730-405c-b25e-1034c4c56f3f""}","https://test12345.live/?num_scrambled_semantic=8&num_scrambled_causal=4&num_scrambled_schematic=4&participantId=23977AABA4A04E488A2F684D7B42F26B&assignmentId=dd08ae66-3d0a-464a-987c-22843c7ac1b2&projectId=a9f3d40c-5730-405c-b25e-1034c4c56f3f","23977AABA4A04E488A2F684D7B42F26B-2025-08-07-19-11-04","","null","","images/causal_sequence/package_causal/package_causal_9.png","null","",""
"","","","","","image-button-response","70","694214","0.0-12.0-1.0-1.4","23977AABA4A04E488A2F684D7B42F26B","23977AABA4A04E488A2F684D7B42F26B","dd08ae66-3d0a-464a-987c-22843c7ac1b2","a9f3d40c-5730-405c-b25e-1034c4c56f3f","{""num_scrambled_semantic"":""8"",""num_scrambled_causal"":""4"",""num_scrambled_schematic"":""4"",""participantId"":""23977AABA4A04E488A2F684D7B42F26B"",""assignmentId"":""dd08ae66-3d0a-464a-987c-22843c7ac1b2"",""projectId"":""a9f3d40c-5730-405c-b25e-1034c4c56f3f""}","https://test12345.live/?num_scrambled_semantic=8&num_scrambled_causal=4&num_scrambled_schematic=4&participantId=23977AABA4A04E488A2F684D7B42F26B&assignmentId=dd08ae66-3d0a-464a-987c-22843c7ac1b2&projectId=a9f3d40c-5730-405c-b25e-1034c4c56f3f","23977AABA4A04E488A2F684D7B42F26B-2025-08-07-19-11-04","","2668","","images/causal_sequence/package_causal/package_causal_9.png","0","",""
"","","","","","image-button-response","71","696017","0.0-12.0-1.0-2.4","23977AABA4A04E488A2F684D7B42F26B","23977AABA4A04E488A2F684D7B42F26B","dd08ae66-3d0a-464a-987c-22843c7ac1b2","a9f3d40c-5730-405c-b25e-1034c4c56f3f","{""num_scrambled_semantic"":""8"",""num_scrambled_causal"":""4"",""num_scrambled_schematic"":""4"",""participantId"":""23977AABA4A04E488A2F684D7B42F26B"",""assignmentId"":""dd08ae66-3d0a-464a-987c-22843c7ac1b2"",""projectId"":""a9f3d40c-5730-405c-b25e-1034c4c56f3f""}","https://test12345.live/?num_scrambled_semantic=8&num_scrambled_causal=4&num_scrambled_schematic=4&participantId=23977AABA4A04E488A2F684D7B42F26B&assignmentId=dd08ae66-3d0a-464a-987c-22843c7ac1b2&projectId=a9f3d40c-5730-405c-b25e-1034c4c56f3f","23977AABA4A04E488A2F684D7B42F26B-2025-08-07-19-11-04","","null","","[]","null","",""
"","","","","","image-button-response","72","700519","0.0-12.0-1.0-0.5","23977AABA4A04E488A2F684D7B42F26B","23977AABA4A04E488A2F684D7B42F26B","dd08ae66-3d0a-464a-987c-22843c7ac1b2","a9f3d40c-5730-405c-b25e-1034c4c56f3f","{""num_scrambled_semantic"":""8"",""num_scrambled_causal"":""4"",""num_scrambled_schematic"":""4"",""participantId"":""23977AABA4A04E488A2F684D7B42F26B"",""assignmentId"":""dd08ae66-3d0a-464a-987c-22843c7ac1b2"",""projectId"":""a9f3d40c-5730-405c-b25e-1034c4c56f3f""}","https://test12345.live/?num_scrambled_semantic=8&num_scrambled_causal=4&num_scrambled_schematic=4&participantId=23977AABA4A04E488A2F684D7B42F26B&assignmentId=dd08ae66-3d0a-464a-987c-22843c7ac1b2&projectId=a9f3d40c-5730-405c-b25e-1034c4c56f3f","23977AABA4A04E488A2F684D7B42F26B-2025-08-07-19-11-04","","null","","images/causal_sequence/package_causal/package_causal_8.png","null","",""
"","","","","","image-button-response","73","701477","0.0-12.0-1.0-1.5","23977AABA4A04E488A2F684D7B42F26B","23977AABA4A04E488A2F684D7B42F26B","dd08ae66-3d0a-464a-987c-22843c7ac1b2","a9f3d40c-5730-405c-b25e-1034c4c56f3f","{""num_scrambled_semantic"":""8"",""num_scrambled_causal"":""4"",""num_scrambled_schematic"":""4"",""participantId"":""23977AABA4A04E488A2F684D7B42F26B"",""assignmentId"":""dd08ae66-3d0a-464a-987c-22843c7ac1b2"",""projectId"":""a9f3d40c-5730-405c-b25e-1034c4c56f3f""}","https://test12345.live/?num_scrambled_semantic=8&num_scrambled_causal=4&num_scrambled_schematic=4&participantId=23977AABA4A04E488A2F684D7B42F26B&assignmentId=dd08ae66-3d0a-464a-987c-22843c7ac1b2&projectId=a9f3d40c-5730-405c-b25e-1034c4c56f3f","23977AABA4A04E488A2F684D7B42F26B-2025-08-07-19-11-04","","957","","images/causal_sequence/package_causal/package_causal_8.png","0","",""
"","","","","","image-button-response","74","703288","0.0-12.0-1.0-2.5","23977AABA4A04E488A2F684D7B42F26B","23977AABA4A04E488A2F684D7B42F26B","dd08ae66-3d0a-464a-987c-22843c7ac1b2","a9f3d40c-5730-405c-b25e-1034c4c56f3f","{""num_scrambled_semantic"":""8"",""num_scrambled_causal"":""4"",""num_scrambled_schematic"":""4"",""participantId"":""23977AABA4A04E488A2F684D7B42F26B"",""assignmentId"":""dd08ae66-3d0a-464a-987c-22843c7ac1b2"",""projectId"":""a9f3d40c-5730-405c-b25e-1034c4c56f3f""}","https://test12345.live/?num_scrambled_semantic=8&num_scrambled_causal=4&num_scrambled_schematic=4&participantId=23977AABA4A04E488A2F684D7B42F26B&assignmentId=dd08ae66-3d0a-464a-987c-22843c7ac1b2&projectId=a9f3d40c-5730-405c-b25e-1034c4c56f3f","23977AABA4A04E488A2F684D7B42F26B-2025-08-07-19-11-04","","null","","[]","null","",""
"","","","","","image-button-response","75","707795","0.0-12.0-1.0-0.6","23977AABA4A04E488A2F684D7B42F26B","23977AABA4A04E488A2F684D7B42F26B","dd08ae66-3d0a-464a-987c-22843c7ac1b2","a9f3d40c-5730-405c-b25e-1034c4c56f3f","{""num_scrambled_semantic"":""8"",""num_scrambled_causal"":""4"",""num_scrambled_schematic"":""4"",""participantId"":""23977AABA4A04E488A2F684D7B42F26B"",""assignmentId"":""dd08ae66-3d0a-464a-987c-22843c7ac1b2"",""projectId"":""a9f3d40c-5730-405c-b25e-1034c4c56f3f""}","https://test12345.live/?num_scrambled_semantic=8&num_scrambled_causal=4&num_scrambled_schematic=4&participantId=23977AABA4A04E488A2F684D7B42F26B&assignmentId=dd08ae66-3d0a-464a-987c-22843c7ac1b2&projectId=a9f3d40c-5730-405c-b25e-1034c4c56f3f","23977AABA4A04E488A2F684D7B42F26B-2025-08-07-19-11-04","","null","","images/causal_sequence/package_causal/package_causal_6.png","null","",""
"","","","","","image-button-response","76","708777","0.0-12.0-1.0-1.6","23977AABA4A04E488A2F684D7B42F26B","23977AABA4A04E488A2F684D7B42F26B","dd08ae66-3d0a-464a-987c-22843c7ac1b2","a9f3d40c-5730-405c-b25e-1034c4c56f3f","{""num_scrambled_semantic"":""8"",""num_scrambled_causal"":""4"",""num_scrambled_schematic"":""4"",""participantId"":""23977AABA4A04E488A2F684D7B42F26B"",""assignmentId"":""dd08ae66-3d0a-464a-987c-22843c7ac1b2"",""projectId"":""a9f3d40c-5730-405c-b25e-1034c4c56f3f""}","https://test12345.live/?num_scrambled_semantic=8&num_scrambled_causal=4&num_scrambled_schematic=4&participantId=23977AABA4A04E488A2F684D7B42F26B&assignmentId=dd08ae66-3d0a-464a-987c-22843c7ac1b2&projectId=a9f3d40c-5730-405c-b25e-1034c4c56f3f","23977AABA4A04E488A2F684D7B42F26B-2025-08-07-19-11-04","","981","","images/causal_sequence/package_causal/package_causal_6.png","0","",""
"","","","","","image-button-response","77","710592","0.0-12.0-1.0-2.6","23977AABA4A04E488A2F684D7B42F26B","23977AABA4A04E488A2F684D7B42F26B","dd08ae66-3d0a-464a-987c-22843c7ac1b2","a9f3d40c-5730-405c-b25e-1034c4c56f3f","{""num_scrambled_semantic"":""8"",""num_scrambled_causal"":""4"",""num_scrambled_schematic"":""4"",""participantId"":""23977AABA4A04E488A2F684D7B42F26B"",""assignmentId"":""dd08ae66-3d0a-464a-987c-22843c7ac1b2"",""projectId"":""a9f3d40c-5730-405c-b25e-1034c4c56f3f""}","https://test12345.live/?num_scrambled_semantic=8&num_scrambled_causal=4&num_scrambled_schematic=4&participantId=23977AABA4A04E488A2F684D7B42F26B&assignmentId=dd08ae66-3d0a-464a-987c-22843c7ac1b2&projectId=a9f3d40c-5730-405c-b25e-1034c4c56f3f","23977AABA4A04E488A2F684D7B42F26B-2025-08-07-19-11-04","","null","","[]","null","",""
"","","","","","image-button-response","78","715102","0.0-12.0-1.0-0.7","23977AABA4A04E488A2F684D7B42F26B","23977AABA4A04E488A2F684D7B42F26B","dd08ae66-3d0a-464a-987c-22843c7ac1b2","a9f3d40c-5730-405c-b25e-1034c4c56f3f","{""num_scrambled_semantic"":""8"",""num_scrambled_causal"":""4"",""num_scrambled_schematic"":""4"",""participantId"":""23977AABA4A04E488A2F684D7B42F26B"",""assignmentId"":""dd08ae66-3d0a-464a-987c-22843c7ac1b2"",""projectId"":""a9f3d40c-5730-405c-b25e-1034c4c56f3f""}","https://test12345.live/?num_scrambled_semantic=8&num_scrambled_causal=4&num_scrambled_schematic=4&participantId=23977AABA4A04E488A2F684D7B42F26B&assignmentId=dd08ae66-3d0a-464a-987c-22843c7ac1b2&projectId=a9f3d40c-5730-405c-b25e-1034c4c56f3f","23977AABA4A04E488A2F684D7B42F26B-2025-08-07-19-11-04","","null","","images/causal_sequence/package_causal/package_causal_2.png","null","",""
"","","","","","image-button-response","79","718456","0.0-12.0-1.0-1.7","23977AABA4A04E488A2F684D7B42F26B","23977AABA4A04E488A2F684D7B42F26B","dd08ae66-3d0a-464a-987c-22843c7ac1b2","a9f3d40c-5730-405c-b25e-1034c4c56f3f","{""num_scrambled_semantic"":""8"",""num_scrambled_causal"":""4"",""num_scrambled_schematic"":""4"",""participantId"":""23977AABA4A04E488A2F684D7B42F26B"",""assignmentId"":""dd08ae66-3d0a-464a-987c-22843c7ac1b2"",""projectId"":""a9f3d40c-5730-405c-b25e-1034c4c56f3f""}","https://test12345.live/?num_scrambled_semantic=8&num_scrambled_causal=4&num_scrambled_schematic=4&participantId=23977AABA4A04E488A2F684D7B42F26B&assignmentId=dd08ae66-3d0a-464a-987c-22843c7ac1b2&projectId=a9f3d40c-5730-405c-b25e-1034c4c56f3f","23977AABA4A04E488A2F684D7B42F26B-2025-08-07-19-11-04","","3353","","images/causal_sequence/package_causal/package_causal_2.png","0","",""
"","","","","","image-button-response","80","720257","0.0-12.0-1.0-2.7","23977AABA4A04E488A2F684D7B42F26B","23977AABA4A04E488A2F684D7B42F26B","dd08ae66-3d0a-464a-987c-22843c7ac1b2","a9f3d40c-5730-405c-b25e-1034c4c56f3f","{""num_scrambled_semantic"":""8"",""num_scrambled_causal"":""4"",""num_scrambled_schematic"":""4"",""participantId"":""23977AABA4A04E488A2F684D7B42F26B"",""assignmentId"":""dd08ae66-3d0a-464a-987c-22843c7ac1b2"",""projectId"":""a9f3d40c-5730-405c-b25e-1034c4c56f3f""}","https://test12345.live/?num_scrambled_semantic=8&num_scrambled_causal=4&num_scrambled_schematic=4&participantId=23977AABA4A04E488A2F684D7B42F26B&assignmentId=dd08ae66-3d0a-464a-987c-22843c7ac1b2&projectId=a9f3d40c-5730-405c-b25e-1034c4c56f3f","23977AABA4A04E488A2F684D7B42F26B-2025-08-07-19-11-04","","null","","[]","null","",""
"","","","","","image-button-response","81","724760","0.0-12.0-1.0-0.8","23977AABA4A04E488A2F684D7B42F26B","23977AABA4A04E488A2F684D7B42F26B","dd08ae66-3d0a-464a-987c-22843c7ac1b2","a9f3d40c-5730-405c-b25e-1034c4c56f3f","{""num_scrambled_semantic"":""8"",""num_scrambled_causal"":""4"",""num_scrambled_schematic"":""4"",""participantId"":""23977AABA4A04E488A2F684D7B42F26B"",""assignmentId"":""dd08ae66-3d0a-464a-987c-22843c7ac1b2"",""projectId"":""a9f3d40c-5730-405c-b25e-1034c4c56f3f""}","https://test12345.live/?num_scrambled_semantic=8&num_scrambled_causal=4&num_scrambled_schematic=4&participantId=23977AABA4A04E488A2F684D7B42F26B&assignmentId=dd08ae66-3d0a-464a-987c-22843c7ac1b2&projectId=a9f3d40c-5730-405c-b25e-1034c4c56f3f","23977AABA4A04E488A2F684D7B42F26B-2025-08-07-19-11-04","","null","","images/causal_sequence/package_causal/package_causal_7.png","null","",""
"","","","","","image-button-response","82","725683","0.0-12.0-1.0-1.8","23977AABA4A04E488A2F684D7B42F26B","23977AABA4A04E488A2F684D7B42F26B","dd08ae66-3d0a-464a-987c-22843c7ac1b2","a9f3d40c-5730-405c-b25e-1034c4c56f3f","{""num_scrambled_semantic"":""8"",""num_scrambled_causal"":""4"",""num_scrambled_schematic"":""4"",""participantId"":""23977AABA4A04E488A2F684D7B42F26B"",""assignmentId"":""dd08ae66-3d0a-464a-987c-22843c7ac1b2"",""projectId"":""a9f3d40c-5730-405c-b25e-1034c4c56f3f""}","https://test12345.live/?num_scrambled_semantic=8&num_scrambled_causal=4&num_scrambled_schematic=4&participantId=23977AABA4A04E488A2F684D7B42F26B&assignmentId=dd08ae66-3d0a-464a-987c-22843c7ac1b2&projectId=a9f3d40c-5730-405c-b25e-1034c4c56f3f","23977AABA4A04E488A2F684D7B42F26B-2025-08-07-19-11-04","","923","","images/causal_sequence/package_causal/package_causal_7.png","0","",""
"","","","","","image-button-response","83","727488","0.0-12.0-1.0-2.8","23977AABA4A04E488A2F684D7B42F26B","23977AABA4A04E488A2F684D7B42F26B","dd08ae66-3d0a-464a-987c-22843c7ac1b2","a9f3d40c-5730-405c-b25e-1034c4c56f3f","{""num_scrambled_semantic"":""8"",""num_scrambled_causal"":""4"",""num_scrambled_schematic"":""4"",""participantId"":""23977AABA4A04E488A2F684D7B42F26B"",""assignmentId"":""dd08ae66-3d0a-464a-987c-22843c7ac1b2"",""projectId"":""a9f3d40c-5730-405c-b25e-1034c4c56f3f""}","https://test12345.live/?num_scrambled_semantic=8&num_scrambled_causal=4&num_scrambled_schematic=4&participantId=23977AABA4A04E488A2F684D7B42F26B&assignmentId=dd08ae66-3d0a-464a-987c-22843c7ac1b2&projectId=a9f3d40c-5730-405c-b25e-1034c4c56f3f","23977AABA4A04E488A2F684D7B42F26B-2025-08-07-19-11-04","","null","","[]","null","",""
"","","","","","image-button-response","84","732001","0.0-12.0-1.0-0.9","23977AABA4A04E488A2F684D7B42F26B","23977AABA4A04E488A2F684D7B42F26B","dd08ae66-3d0a-464a-987c-22843c7ac1b2","a9f3d40c-5730-405c-b25e-1034c4c56f3f","{""num_scrambled_semantic"":""8"",""num_scrambled_causal"":""4"",""num_scrambled_schematic"":""4"",""participantId"":""23977AABA4A04E488A2F684D7B42F26B"",""assignmentId"":""dd08ae66-3d0a-464a-987c-22843c7ac1b2"",""projectId"":""a9f3d40c-5730-405c-b25e-1034c4c56f3f""}","https://test12345.live/?num_scrambled_semantic=8&num_scrambled_causal=4&num_scrambled_schematic=4&participantId=23977AABA4A04E488A2F684D7B42F26B&assignmentId=dd08ae66-3d0a-464a-987c-22843c7ac1b2&projectId=a9f3d40c-5730-405c-b25e-1034c4c56f3f","23977AABA4A04E488A2F684D7B42F26B-2025-08-07-19-11-04","","null","","images/causal_sequence/package_causal/package_causal_4.png","null","",""
"","","","","","image-button-response","85","733627","0.0-12.0-1.0-1.9","23977AABA4A04E488A2F684D7B42F26B","23977AABA4A04E488A2F684D7B42F26B","dd08ae66-3d0a-464a-987c-22843c7ac1b2","a9f3d40c-5730-405c-b25e-1034c4c56f3f","{""num_scrambled_semantic"":""8"",""num_scrambled_causal"":""4"",""num_scrambled_schematic"":""4"",""participantId"":""23977AABA4A04E488A2F684D7B42F26B"",""assignmentId"":""dd08ae66-3d0a-464a-987c-22843c7ac1b2"",""projectId"":""a9f3d40c-5730-405c-b25e-1034c4c56f3f""}","https://test12345.live/?num_scrambled_semantic=8&num_scrambled_causal=4&num_scrambled_schematic=4&participantId=23977AABA4A04E488A2F684D7B42F26B&assignmentId=dd08ae66-3d0a-464a-987c-22843c7ac1b2&projectId=a9f3d40c-5730-405c-b25e-1034c4c56f3f","23977AABA4A04E488A2F684D7B42F26B-2025-08-07-19-11-04","","1625","","images/causal_sequence/package_causal/package_causal_4.png","1","",""
"","","","","","image-button-response","86","735441","0.0-12.0-1.0-2.9","23977AABA4A04E488A2F684D7B42F26B","23977AABA4A04E488A2F684D7B42F26B","dd08ae66-3d0a-464a-987c-22843c7ac1b2","a9f3d40c-5730-405c-b25e-1034c4c56f3f","{""num_scrambled_semantic"":""8"",""num_scrambled_causal"":""4"",""num_scrambled_schematic"":""4"",""participantId"":""23977AABA4A04E488A2F684D7B42F26B"",""assignmentId"":""dd08ae66-3d0a-464a-987c-22843c7ac1b2"",""projectId"":""a9f3d40c-5730-405c-b25e-1034c4c56f3f""}","https://test12345.live/?num_scrambled_semantic=8&num_scrambled_causal=4&num_scrambled_schematic=4&participantId=23977AABA4A04E488A2F684D7B42F26B&assignmentId=dd08ae66-3d0a-464a-987c-22843c7ac1b2&projectId=a9f3d40c-5730-405c-b25e-1034c4c56f3f","23977AABA4A04E488A2F684D7B42F26B-2025-08-07-19-11-04","","null","","[]","null","",""
"","","","","","html-audio-response","87","772322","0.0-13.0","23977AABA4A04E488A2F684D7B42F26B","23977AABA4A04E488A2F684D7B42F26B","dd08ae66-3d0a-464a-987c-22843c7ac1b2","a9f3d40c-5730-405c-b25e-1034c4c56f3f","{""num_scrambled_semantic"":""8"",""num_scrambled_causal"":""4"",""num_scrambled_schematic"":""4"",""participantId"":""23977AABA4A04E488A2F684D7B42F26B"",""assignmentId"":""dd08ae66-3d0a-464a-987c-22843c7ac1b2"",""projectId"":""a9f3d40c-5730-405c-b25e-1034c4c56f3f""}","https://test12345.live/?num_scrambled_semantic=8&num_scrambled_causal=4&num_scrambled_schematic=4&participantId=23977AABA4A04E488A2F684D7B42F26B&assignmentId=dd08ae66-3d0a-464a-987c-22843c7ac1b2&projectId=a9f3d40c-5730-405c-b25e-1034c4c56f3f","23977AABA4A04E488A2F684D7B42F26B-2025-08-07-19-11-04","","26428","","[""<span style=\""color: red; font-size: 24px\""> NOW RECORDING</span><p>Please say out loud all the images you saw, as many as you can remember. The images can be said in any order.</p>""]","","1","package_causal"
"","","","","","image-button-response","88","778328","0.0-14.0-0.0","23977AABA4A04E488A2F684D7B42F26B","23977AABA4A04E488A2F684D7B42F26B","dd08ae66-3d0a-464a-987c-22843c7ac1b2","a9f3d40c-5730-405c-b25e-1034c4c56f3f","{""num_scrambled_semantic"":""8"",""num_scrambled_causal"":""4"",""num_scrambled_schematic"":""4"",""participantId"":""23977AABA4A04E488A2F684D7B42F26B"",""assignmentId"":""dd08ae66-3d0a-464a-987c-22843c7ac1b2"",""projectId"":""a9f3d40c-5730-405c-b25e-1034c4c56f3f""}","https://test12345.live/?num_scrambled_semantic=8&num_scrambled_causal=4&num_scrambled_schematic=4&participantId=23977AABA4A04E488A2F684D7B42F26B&assignmentId=dd08ae66-3d0a-464a-987c-22843c7ac1b2&projectId=a9f3d40c-5730-405c-b25e-1034c4c56f3f","23977AABA4A04E488A2F684D7B42F26B-2025-08-07-19-11-04","","null","","images/semantic_sequence/creative_activities_semantic/creative_activities_semantic_0.png","null","",""
"","","","","","image-button-response","89","782830","0.0-14.0-1.0-0.0","23977AABA4A04E488A2F684D7B42F26B","23977AABA4A04E488A2F684D7B42F26B","dd08ae66-3d0a-464a-987c-22843c7ac1b2","a9f3d40c-5730-405c-b25e-1034c4c56f3f","{""num_scrambled_semantic"":""8"",""num_scrambled_causal"":""4"",""num_scrambled_schematic"":""4"",""participantId"":""23977AABA4A04E488A2F684D7B42F26B"",""assignmentId"":""dd08ae66-3d0a-464a-987c-22843c7ac1b2"",""projectId"":""a9f3d40c-5730-405c-b25e-1034c4c56f3f""}","https://test12345.live/?num_scrambled_semantic=8&num_scrambled_causal=4&num_scrambled_schematic=4&participantId=23977AABA4A04E488A2F684D7B42F26B&assignmentId=dd08ae66-3d0a-464a-987c-22843c7ac1b2&projectId=a9f3d40c-5730-405c-b25e-1034c4c56f3f","23977AABA4A04E488A2F684D7B42F26B-2025-08-07-19-11-04","","null","","images/semantic_sequence/creative_activities_semantic/creative_activities_semantic_6.png","null","",""
"","","","","","image-button-response","90","784535","0.0-14.0-1.0-1.0","23977AABA4A04E488A2F684D7B42F26B","23977AABA4A04E488A2F684D7B42F26B","dd08ae66-3d0a-464a-987c-22843c7ac1b2","a9f3d40c-5730-405c-b25e-1034c4c56f3f","{""num_scrambled_semantic"":""8"",""num_scrambled_causal"":""4"",""num_scrambled_schematic"":""4"",""participantId"":""23977AABA4A04E488A2F684D7B42F26B"",""assignmentId"":""dd08ae66-3d0a-464a-987c-22843c7ac1b2"",""projectId"":""a9f3d40c-5730-405c-b25e-1034c4c56f3f""}","https://test12345.live/?num_scrambled_semantic=8&num_scrambled_causal=4&num_scrambled_schematic=4&participantId=23977AABA4A04E488A2F684D7B42F26B&assignmentId=dd08ae66-3d0a-464a-987c-22843c7ac1b2&projectId=a9f3d40c-5730-405c-b25e-1034c4c56f3f","23977AABA4A04E488A2F684D7B42F26B-2025-08-07-19-11-04","","1704","","images/semantic_sequence/creative_activities_semantic/creative_activities_semantic_6.png","0","",""
"","","","","","image-button-response","91","786338","0.0-14.0-1.0-2.0","23977AABA4A04E488A2F684D7B42F26B","23977AABA4A04E488A2F684D7B42F26B","dd08ae66-3d0a-464a-987c-22843c7ac1b2","a9f3d40c-5730-405c-b25e-1034c4c56f3f","{""num_scrambled_semantic"":""8"",""num_scrambled_causal"":""4"",""num_scrambled_schematic"":""4"",""participantId"":""23977AABA4A04E488A2F684D7B42F26B"",""assignmentId"":""dd08ae66-3d0a-464a-987c-22843c7ac1b2"",""projectId"":""a9f3d40c-5730-405c-b25e-1034c4c56f3f""}","https://test12345.live/?num_scrambled_semantic=8&num_scrambled_causal=4&num_scrambled_schematic=4&participantId=23977AABA4A04E488A2F684D7B42F26B&assignmentId=dd08ae66-3d0a-464a-987c-22843c7ac1b2&projectId=a9f3d40c-5730-405c-b25e-1034c4c56f3f","23977AABA4A04E488A2F684D7B42F26B-2025-08-07-19-11-04","","null","","[]","null","",""
"","","","","","image-button-response","92","790848","0.0-14.0-1.0-0.1","23977AABA4A04E488A2F684D7B42F26B","23977AABA4A04E488A2F684D7B42F26B","dd08ae66-3d0a-464a-987c-22843c7ac1b2","a9f3d40c-5730-405c-b25e-1034c4c56f3f","{""num_scrambled_semantic"":""8"",""num_scrambled_causal"":""4"",""num_scrambled_schematic"":""4"",""participantId"":""23977AABA4A04E488A2F684D7B42F26B"",""assignmentId"":""dd08ae66-3d0a-464a-987c-22843c7ac1b2"",""projectId"":""a9f3d40c-5730-405c-b25e-1034c4c56f3f""}","https://test12345.live/?num_scrambled_semantic=8&num_scrambled_causal=4&num_scrambled_schematic=4&participantId=23977AABA4A04E488A2F684D7B42F26B&assignmentId=dd08ae66-3d0a-464a-987c-22843c7ac1b2&projectId=a9f3d40c-5730-405c-b25e-1034c4c56f3f","23977AABA4A04E488A2F684D7B42F26B-2025-08-07-19-11-04","","null","","images/semantic_sequence/creative_activities_semantic/creative_activities_semantic_7.png","null","",""
"","","","","","image-button-response","93","792027","0.0-14.0-1.0-1.1","23977AABA4A04E488A2F684D7B42F26B","23977AABA4A04E488A2F684D7B42F26B","dd08ae66-3d0a-464a-987c-22843c7ac1b2","a9f3d40c-5730-405c-b25e-1034c4c56f3f","{""num_scrambled_semantic"":""8"",""num_scrambled_causal"":""4"",""num_scrambled_schematic"":""4"",""participantId"":""23977AABA4A04E488A2F684D7B42F26B"",""assignmentId"":""dd08ae66-3d0a-464a-987c-22843c7ac1b2"",""projectId"":""a9f3d40c-5730-405c-b25e-1034c4c56f3f""}","https://test12345.live/?num_scrambled_semantic=8&num_scrambled_causal=4&num_scrambled_schematic=4&participantId=23977AABA4A04E488A2F684D7B42F26B&assignmentId=dd08ae66-3d0a-464a-987c-22843c7ac1b2&projectId=a9f3d40c-5730-405c-b25e-1034c4c56f3f","23977AABA4A04E488A2F684D7B42F26B-2025-08-07-19-11-04","","1179","","images/semantic_sequence/creative_activities_semantic/creative_activities_semantic_7.png","0","",""
"","","","","","image-button-response","94","793844","0.0-14.0-1.0-2.1","23977AABA4A04E488A2F684D7B42F26B","23977AABA4A04E488A2F684D7B42F26B","dd08ae66-3d0a-464a-987c-22843c7ac1b2","a9f3d40c-5730-405c-b25e-1034c4c56f3f","{""num_scrambled_semantic"":""8"",""num_scrambled_causal"":""4"",""num_scrambled_schematic"":""4"",""participantId"":""23977AABA4A04E488A2F684D7B42F26B"",""assignmentId"":""dd08ae66-3d0a-464a-987c-22843c7ac1b2"",""projectId"":""a9f3d40c-5730-405c-b25e-1034c4c56f3f""}","https://test12345.live/?num_scrambled_semantic=8&num_scrambled_causal=4&num_scrambled_schematic=4&participantId=23977AABA4A04E488A2F684D7B42F26B&assignmentId=dd08ae66-3d0a-464a-987c-22843c7ac1b2&projectId=a9f3d40c-5730-405c-b25e-1034c4c56f3f","23977AABA4A04E488A2F684D7B42F26B-2025-08-07-19-11-04","","null","","[]","null","",""
"","","","","","image-button-response","95","798357","0.0-14.0-1.0-0.2","23977AABA4A04E488A2F684D7B42F26B","23977AABA4A04E488A2F684D7B42F26B","dd08ae66-3d0a-464a-987c-22843c7ac1b2","a9f3d40c-5730-405c-b25e-1034c4c56f3f","{""num_scrambled_semantic"":""8"",""num_scrambled_causal"":""4"",""num_scrambled_schematic"":""4"",""participantId"":""23977AABA4A04E488A2F684D7B42F26B"",""assignmentId"":""dd08ae66-3d0a-464a-987c-22843c7ac1b2"",""projectId"":""a9f3d40c-5730-405c-b25e-1034c4c56f3f""}","https://test12345.live/?num_scrambled_semantic=8&num_scrambled_causal=4&num_scrambled_schematic=4&participantId=23977AABA4A04E488A2F684D7B42F26B&assignmentId=dd08ae66-3d0a-464a-987c-22843c7ac1b2&projectId=a9f3d40c-5730-405c-b25e-1034c4c56f3f","23977AABA4A04E488A2F684D7B42F26B-2025-08-07-19-11-04","","null","","images/semantic_sequence/creative_activities_semantic/creative_activities_semantic_4.png","null","",""
"","","","","","image-button-response","96","799469","0.0-14.0-1.0-1.2","23977AABA4A04E488A2F684D7B42F26B","23977AABA4A04E488A2F684D7B42F26B","dd08ae66-3d0a-464a-987c-22843c7ac1b2","a9f3d40c-5730-405c-b25e-1034c4c56f3f","{""num_scrambled_semantic"":""8"",""num_scrambled_causal"":""4"",""num_scrambled_schematic"":""4"",""participantId"":""23977AABA4A04E488A2F684D7B42F26B"",""assignmentId"":""dd08ae66-3d0a-464a-987c-22843c7ac1b2"",""projectId"":""a9f3d40c-5730-405c-b25e-1034c4c56f3f""}","https://test12345.live/?num_scrambled_semantic=8&num_scrambled_causal=4&num_scrambled_schematic=4&participantId=23977AABA4A04E488A2F684D7B42F26B&assignmentId=dd08ae66-3d0a-464a-987c-22843c7ac1b2&projectId=a9f3d40c-5730-405c-b25e-1034c4c56f3f","23977AABA4A04E488A2F684D7B42F26B-2025-08-07-19-11-04","","1112","","images/semantic_sequence/creative_activities_semantic/creative_activities_semantic_4.png","0","",""
"","","","","","image-button-response","97","801274","0.0-14.0-1.0-2.2","23977AABA4A04E488A2F684D7B42F26B","23977AABA4A04E488A2F684D7B42F26B","dd08ae66-3d0a-464a-987c-22843c7ac1b2","a9f3d40c-5730-405c-b25e-1034c4c56f3f","{""num_scrambled_semantic"":""8"",""num_scrambled_causal"":""4"",""num_scrambled_schematic"":""4"",""participantId"":""23977AABA4A04E488A2F684D7B42F26B"",""assignmentId"":""dd08ae66-3d0a-464a-987c-22843c7ac1b2"",""projectId"":""a9f3d40c-5730-405c-b25e-1034c4c56f3f""}","https://test12345.live/?num_scrambled_semantic=8&num_scrambled_causal=4&num_scrambled_schematic=4&participantId=23977AABA4A04E488A2F684D7B42F26B&assignmentId=dd08ae66-3d0a-464a-987c-22843c7ac1b2&projectId=a9f3d40c-5730-405c-b25e-1034c4c56f3f","23977AABA4A04E488A2F684D7B42F26B-2025-08-07-19-11-04","","null","","[]","null","",""
"","","","","","image-button-response","98","805790","0.0-14.0-1.0-0.3","23977AABA4A04E488A2F684D7B42F26B","23977AABA4A04E488A2F684D7B42F26B","dd08ae66-3d0a-464a-987c-22843c7ac1b2","a9f3d40c-5730-405c-b25e-1034c4c56f3f","{""num_scrambled_semantic"":""8"",""num_scrambled_causal"":""4"",""num_scrambled_schematic"":""4"",""participantId"":""23977AABA4A04E488A2F684D7B42F26B"",""assignmentId"":""dd08ae66-3d0a-464a-987c-22843c7ac1b2"",""projectId"":""a9f3d40c-5730-405c-b25e-1034c4c56f3f""}","https://test12345.live/?num_scrambled_semantic=8&num_scrambled_causal=4&num_scrambled_schematic=4&participantId=23977AABA4A04E488A2F684D7B42F26B&assignmentId=dd08ae66-3d0a-464a-987c-22843c7ac1b2&projectId=a9f3d40c-5730-405c-b25e-1034c4c56f3f","23977AABA4A04E488A2F684D7B42F26B-2025-08-07-19-11-04","","null","","images/semantic_sequence/creative_activities_semantic/creative_activities_semantic_5.png","null","",""
"","","","","","image-button-response","99","806509","0.0-14.0-1.0-1.3","23977AABA4A04E488A2F684D7B42F26B","23977AABA4A04E488A2F684D7B42F26B","dd08ae66-3d0a-464a-987c-22843c7ac1b2","a9f3d40c-5730-405c-b25e-1034c4c56f3f","{""num_scrambled_semantic"":""8"",""num_scrambled_causal"":""4"",""num_scrambled_schematic"":""4"",""participantId"":""23977AABA4A04E488A2F684D7B42F26B"",""assignmentId"":""dd08ae66-3d0a-464a-987c-22843c7ac1b2"",""projectId"":""a9f3d40c-5730-405c-b25e-1034c4c56f3f""}","https://test12345.live/?num_scrambled_semantic=8&num_scrambled_causal=4&num_scrambled_schematic=4&participantId=23977AABA4A04E488A2F684D7B42F26B&assignmentId=dd08ae66-3d0a-464a-987c-22843c7ac1b2&projectId=a9f3d40c-5730-405c-b25e-1034c4c56f3f","23977AABA4A04E488A2F684D7B42F26B-2025-08-07-19-11-04","","718","","images/semantic_sequence/creative_activities_semantic/creative_activities_semantic_5.png","0","",""
"","","","","","image-button-response","100","808310","0.0-14.0-1.0-2.3","23977AABA4A04E488A2F684D7B42F26B","23977AABA4A04E488A2F684D7B42F26B","dd08ae66-3d0a-464a-987c-22843c7ac1b2","a9f3d40c-5730-405c-b25e-1034c4c56f3f","{""num_scrambled_semantic"":""8"",""num_scrambled_causal"":""4"",""num_scrambled_schematic"":""4"",""participantId"":""23977AABA4A04E488A2F684D7B42F26B"",""assignmentId"":""dd08ae66-3d0a-464a-987c-22843c7ac1b2"",""projectId"":""a9f3d40c-5730-405c-b25e-1034c4c56f3f""}","https://test12345.live/?num_scrambled_semantic=8&num_scrambled_causal=4&num_scrambled_schematic=4&participantId=23977AABA4A04E488A2F684D7B42F26B&assignmentId=dd08ae66-3d0a-464a-987c-22843c7ac1b2&projectId=a9f3d40c-5730-405c-b25e-1034c4c56f3f","23977AABA4A04E488A2F684D7B42F26B-2025-08-07-19-11-04","","null","","[]","null","",""
"","","","","","image-button-response","101","812814","0.0-14.0-1.0-0.4","23977AABA4A04E488A2F684D7B42F26B","23977AABA4A04E488A2F684D7B42F26B","dd08ae66-3d0a-464a-987c-22843c7ac1b2","a9f3d40c-5730-405c-b25e-1034c4c56f3f","{""num_scrambled_semantic"":""8"",""num_scrambled_causal"":""4"",""num_scrambled_schematic"":""4"",""participantId"":""23977AABA4A04E488A2F684D7B42F26B"",""assignmentId"":""dd08ae66-3d0a-464a-987c-22843c7ac1b2"",""projectId"":""a9f3d40c-5730-405c-b25e-1034c4c56f3f""}","https://test12345.live/?num_scrambled_semantic=8&num_scrambled_causal=4&num_scrambled_schematic=4&participantId=23977AABA4A04E488A2F684D7B42F26B&assignmentId=dd08ae66-3d0a-464a-987c-22843c7ac1b2&projectId=a9f3d40c-5730-405c-b25e-1034c4c56f3f","23977AABA4A04E488A2F684D7B42F26B-2025-08-07-19-11-04","","null","","images/semantic_sequence/creative_activities_semantic/creative_activities_semantic_ten.png","null","",""
"","","","","","image-button-response","102","816630","0.0-14.0-1.0-1.4","23977AABA4A04E488A2F684D7B42F26B","23977AABA4A04E488A2F684D7B42F26B","dd08ae66-3d0a-464a-987c-22843c7ac1b2","a9f3d40c-5730-405c-b25e-1034c4c56f3f","{""num_scrambled_semantic"":""8"",""num_scrambled_causal"":""4"",""num_scrambled_schematic"":""4"",""participantId"":""23977AABA4A04E488A2F684D7B42F26B"",""assignmentId"":""dd08ae66-3d0a-464a-987c-22843c7ac1b2"",""projectId"":""a9f3d40c-5730-405c-b25e-1034c4c56f3f""}","https://test12345.live/?num_scrambled_semantic=8&num_scrambled_causal=4&num_scrambled_schematic=4&participantId=23977AABA4A04E488A2F684D7B42F26B&assignmentId=dd08ae66-3d0a-464a-987c-22843c7ac1b2&projectId=a9f3d40c-5730-405c-b25e-1034c4c56f3f","23977AABA4A04E488A2F684D7B42F26B-2025-08-07-19-11-04","","3816","","images/semantic_sequence/creative_activities_semantic/creative_activities_semantic_ten.png","0","",""
"","","","","","image-button-response","103","818434","0.0-14.0-1.0-2.4","23977AABA4A04E488A2F684D7B42F26B","23977AABA4A04E488A2F684D7B42F26B","dd08ae66-3d0a-464a-987c-22843c7ac1b2","a9f3d40c-5730-405c-b25e-1034c4c56f3f","{""num_scrambled_semantic"":""8"",""num_scrambled_causal"":""4"",""num_scrambled_schematic"":""4"",""participantId"":""23977AABA4A04E488A2F684D7B42F26B"",""assignmentId"":""dd08ae66-3d0a-464a-987c-22843c7ac1b2"",""projectId"":""a9f3d40c-5730-405c-b25e-1034c4c56f3f""}","https://test12345.live/?num_scrambled_semantic=8&num_scrambled_causal=4&num_scrambled_schematic=4&participantId=23977AABA4A04E488A2F684D7B42F26B&assignmentId=dd08ae66-3d0a-464a-987c-22843c7ac1b2&projectId=a9f3d40c-5730-405c-b25e-1034c4c56f3f","23977AABA4A04E488A2F684D7B42F26B-2025-08-07-19-11-04","","null","","[]","null","",""
"","","","","","image-button-response","104","822937","0.0-14.0-1.0-0.5","23977AABA4A04E488A2F684D7B42F26B","23977AABA4A04E488A2F684D7B42F26B","dd08ae66-3d0a-464a-987c-22843c7ac1b2","a9f3d40c-5730-405c-b25e-1034c4c56f3f","{""num_scrambled_semantic"":""8"",""num_scrambled_causal"":""4"",""num_scrambled_schematic"":""4"",""participantId"":""23977AABA4A04E488A2F684D7B42F26B"",""assignmentId"":""dd08ae66-3d0a-464a-987c-22843c7ac1b2"",""projectId"":""a9f3d40c-5730-405c-b25e-1034c4c56f3f""}","https://test12345.live/?num_scrambled_semantic=8&num_scrambled_causal=4&num_scrambled_schematic=4&participantId=23977AABA4A04E488A2F684D7B42F26B&assignmentId=dd08ae66-3d0a-464a-987c-22843c7ac1b2&projectId=a9f3d40c-5730-405c-b25e-1034c4c56f3f","23977AABA4A04E488A2F684D7B42F26B-2025-08-07-19-11-04","","null","","images/semantic_sequence/creative_activities_semantic/creative_activities_semantic_3.png","null","",""
"","","","","","image-button-response","105","823722","0.0-14.0-1.0-1.5","23977AABA4A04E488A2F684D7B42F26B","23977AABA4A04E488A2F684D7B42F26B","dd08ae66-3d0a-464a-987c-22843c7ac1b2","a9f3d40c-5730-405c-b25e-1034c4c56f3f","{""num_scrambled_semantic"":""8"",""num_scrambled_causal"":""4"",""num_scrambled_schematic"":""4"",""participantId"":""23977AABA4A04E488A2F684D7B42F26B"",""assignmentId"":""dd08ae66-3d0a-464a-987c-22843c7ac1b2"",""projectId"":""a9f3d40c-5730-405c-b25e-1034c4c56f3f""}","https://test12345.live/?num_scrambled_semantic=8&num_scrambled_causal=4&num_scrambled_schematic=4&participantId=23977AABA4A04E488A2F684D7B42F26B&assignmentId=dd08ae66-3d0a-464a-987c-22843c7ac1b2&projectId=a9f3d40c-5730-405c-b25e-1034c4c56f3f","23977AABA4A04E488A2F684D7B42F26B-2025-08-07-19-11-04","","785","","images/semantic_sequence/creative_activities_semantic/creative_activities_semantic_3.png","0","",""
"","","","","","image-button-response","106","825538","0.0-14.0-1.0-2.5","23977AABA4A04E488A2F684D7B42F26B","23977AABA4A04E488A2F684D7B42F26B","dd08ae66-3d0a-464a-987c-22843c7ac1b2","a9f3d40c-5730-405c-b25e-1034c4c56f3f","{""num_scrambled_semantic"":""8"",""num_scrambled_causal"":""4"",""num_scrambled_schematic"":""4"",""participantId"":""23977AABA4A04E488A2F684D7B42F26B"",""assignmentId"":""dd08ae66-3d0a-464a-987c-22843c7ac1b2"",""projectId"":""a9f3d40c-5730-405c-b25e-1034c4c56f3f""}","https://test12345.live/?num_scrambled_semantic=8&num_scrambled_causal=4&num_scrambled_schematic=4&participantId=23977AABA4A04E488A2F684D7B42F26B&assignmentId=dd08ae66-3d0a-464a-987c-22843c7ac1b2&projectId=a9f3d40c-5730-405c-b25e-1034c4c56f3f","23977AABA4A04E488A2F684D7B42F26B-2025-08-07-19-11-04","","null","","[]","null","",""
"","","","","","image-button-response","107","830048","0.0-14.0-1.0-0.6","23977AABA4A04E488A2F684D7B42F26B","23977AABA4A04E488A2F684D7B42F26B","dd08ae66-3d0a-464a-987c-22843c7ac1b2","a9f3d40c-5730-405c-b25e-1034c4c56f3f","{""num_scrambled_semantic"":""8"",""num_scrambled_causal"":""4"",""num_scrambled_schematic"":""4"",""participantId"":""23977AABA4A04E488A2F684D7B42F26B"",""assignmentId"":""dd08ae66-3d0a-464a-987c-22843c7ac1b2"",""projectId"":""a9f3d40c-5730-405c-b25e-1034c4c56f3f""}","https://test12345.live/?num_scrambled_semantic=8&num_scrambled_causal=4&num_scrambled_schematic=4&participantId=23977AABA4A04E488A2F684D7B42F26B&assignmentId=dd08ae66-3d0a-464a-987c-22843c7ac1b2&projectId=a9f3d40c-5730-405c-b25e-1034c4c56f3f","23977AABA4A04E488A2F684D7B42F26B-2025-08-07-19-11-04","","null","","images/semantic_sequence/creative_activities_semantic/creative_activities_semantic_8.png","null","",""
"","","","","","image-button-response","108","831071","0.0-14.0-1.0-1.6","23977AABA4A04E488A2F684D7B42F26B","23977AABA4A04E488A2F684D7B42F26B","dd08ae66-3d0a-464a-987c-22843c7ac1b2","a9f3d40c-5730-405c-b25e-1034c4c56f3f","{""num_scrambled_semantic"":""8"",""num_scrambled_causal"":""4"",""num_scrambled_schematic"":""4"",""participantId"":""23977AABA4A04E488A2F684D7B42F26B"",""assignmentId"":""dd08ae66-3d0a-464a-987c-22843c7ac1b2"",""projectId"":""a9f3d40c-5730-405c-b25e-1034c4c56f3f""}","https://test12345.live/?num_scrambled_semantic=8&num_scrambled_causal=4&num_scrambled_schematic=4&participantId=23977AABA4A04E488A2F684D7B42F26B&assignmentId=dd08ae66-3d0a-464a-987c-22843c7ac1b2&projectId=a9f3d40c-5730-405c-b25e-1034c4c56f3f","23977AABA4A04E488A2F684D7B42F26B-2025-08-07-19-11-04","","1023","","images/semantic_sequence/creative_activities_semantic/creative_activities_semantic_8.png","0","",""
"","","","","","image-button-response","109","832872","0.0-14.0-1.0-2.6","23977AABA4A04E488A2F684D7B42F26B","23977AABA4A04E488A2F684D7B42F26B","dd08ae66-3d0a-464a-987c-22843c7ac1b2","a9f3d40c-5730-405c-b25e-1034c4c56f3f","{""num_scrambled_semantic"":""8"",""num_scrambled_causal"":""4"",""num_scrambled_schematic"":""4"",""participantId"":""23977AABA4A04E488A2F684D7B42F26B"",""assignmentId"":""dd08ae66-3d0a-464a-987c-22843c7ac1b2"",""projectId"":""a9f3d40c-5730-405c-b25e-1034c4c56f3f""}","https://test12345.live/?num_scrambled_semantic=8&num_scrambled_causal=4&num_scrambled_schematic=4&participantId=23977AABA4A04E488A2F684D7B42F26B&assignmentId=dd08ae66-3d0a-464a-987c-22843c7ac1b2&projectId=a9f3d40c-5730-405c-b25e-1034c4c56f3f","23977AABA4A04E488A2F684D7B42F26B-2025-08-07-19-11-04","","null","","[]","null","",""
"","","","","","image-button-response","110","837378","0.0-14.0-1.0-0.7","23977AABA4A04E488A2F684D7B42F26B","23977AABA4A04E488A2F684D7B42F26B","dd08ae66-3d0a-464a-987c-22843c7ac1b2","a9f3d40c-5730-405c-b25e-1034c4c56f3f","{""num_scrambled_semantic"":""8"",""num_scrambled_causal"":""4"",""num_scrambled_schematic"":""4"",""participantId"":""23977AABA4A04E488A2F684D7B42F26B"",""assignmentId"":""dd08ae66-3d0a-464a-987c-22843c7ac1b2"",""projectId"":""a9f3d40c-5730-405c-b25e-1034c4c56f3f""}","https://test12345.live/?num_scrambled_semantic=8&num_scrambled_causal=4&num_scrambled_schematic=4&participantId=23977AABA4A04E488A2F684D7B42F26B&assignmentId=dd08ae66-3d0a-464a-987c-22843c7ac1b2&projectId=a9f3d40c-5730-405c-b25e-1034c4c56f3f","23977AABA4A04E488A2F684D7B42F26B-2025-08-07-19-11-04","","null","","images/semantic_sequence/creative_activities_semantic/creative_activities_semantic_1.png","null","",""
"","","","","","image-button-response","111","838220","0.0-14.0-1.0-1.7","23977AABA4A04E488A2F684D7B42F26B","23977AABA4A04E488A2F684D7B42F26B","dd08ae66-3d0a-464a-987c-22843c7ac1b2","a9f3d40c-5730-405c-b25e-1034c4c56f3f","{""num_scrambled_semantic"":""8"",""num_scrambled_causal"":""4"",""num_scrambled_schematic"":""4"",""participantId"":""23977AABA4A04E488A2F684D7B42F26B"",""assignmentId"":""dd08ae66-3d0a-464a-987c-22843c7ac1b2"",""projectId"":""a9f3d40c-5730-405c-b25e-1034c4c56f3f""}","https://test12345.live/?num_scrambled_semantic=8&num_scrambled_causal=4&num_scrambled_schematic=4&participantId=23977AABA4A04E488A2F684D7B42F26B&assignmentId=dd08ae66-3d0a-464a-987c-22843c7ac1b2&projectId=a9f3d40c-5730-405c-b25e-1034c4c56f3f","23977AABA4A04E488A2F684D7B42F26B-2025-08-07-19-11-04","","842","","images/semantic_sequence/creative_activities_semantic/creative_activities_semantic_1.png","0","",""
"","","","","","image-button-response","112","840023","0.0-14.0-1.0-2.7","23977AABA4A04E488A2F684D7B42F26B","23977AABA4A04E488A2F684D7B42F26B","dd08ae66-3d0a-464a-987c-22843c7ac1b2","a9f3d40c-5730-405c-b25e-1034c4c56f3f","{""num_scrambled_semantic"":""8"",""num_scrambled_causal"":""4"",""num_scrambled_schematic"":""4"",""participantId"":""23977AABA4A04E488A2F684D7B42F26B"",""assignmentId"":""dd08ae66-3d0a-464a-987c-22843c7ac1b2"",""projectId"":""a9f3d40c-5730-405c-b25e-1034c4c56f3f""}","https://test12345.live/?num_scrambled_semantic=8&num_scrambled_causal=4&num_scrambled_schematic=4&participantId=23977AABA4A04E488A2F684D7B42F26B&assignmentId=dd08ae66-3d0a-464a-987c-22843c7ac1b2&projectId=a9f3d40c-5730-405c-b25e-1034c4c56f3f","23977AABA4A04E488A2F684D7B42F26B-2025-08-07-19-11-04","","null","","[]","null","",""
"","","","","","image-button-response","113","844524","0.0-14.0-1.0-0.8","23977AABA4A04E488A2F684D7B42F26B","23977AABA4A04E488A2F684D7B42F26B","dd08ae66-3d0a-464a-987c-22843c7ac1b2","a9f3d40c-5730-405c-b25e-1034c4c56f3f","{""num_scrambled_semantic"":""8"",""num_scrambled_causal"":""4"",""num_scrambled_schematic"":""4"",""participantId"":""23977AABA4A04E488A2F684D7B42F26B"",""assignmentId"":""dd08ae66-3d0a-464a-987c-22843c7ac1b2"",""projectId"":""a9f3d40c-5730-405c-b25e-1034c4c56f3f""}","https://test12345.live/?num_scrambled_semantic=8&num_scrambled_causal=4&num_scrambled_schematic=4&participantId=23977AABA4A04E488A2F684D7B42F26B&assignmentId=dd08ae66-3d0a-464a-987c-22843c7ac1b2&projectId=a9f3d40c-5730-405c-b25e-1034c4c56f3f","23977AABA4A04E488A2F684D7B42F26B-2025-08-07-19-11-04","","null","","images/semantic_sequence/creative_activities_semantic/creative_activities_semantic_2.png","null","",""
