"success","timeout","failed_images","failed_audio","failed_video","trial_type","trial_index","time_elapsed","internal_node_id","subject","subject_id","study_id","session_id","urlvar","current_url","audio_id","view_history","rt","device_id","stimulus","response","estimated_stimulus_onset","seq_name"
"true","false","[]","[]","[]","preload","0","43366","0.0-0.0","239D1C9FCB9541B9B379719A2399130A","239D1C9FCB9541B9B379719A2399130A","d4e2a9fd-6bd5-49de-88b7-1eb9c8ab4d91","a0b7c245-2e46-4983-bf8f-29c553c03130","{""participantId"":""239D1C9FCB9541B9B379719A2399130A"",""assignmentId"":""d4e2a9fd-6bd5-49de-88b7-1eb9c8ab4d91"",""projectId"":""a0b7c245-2e46-4983-bf8f-29c553c03130""}","https://test12345.live/?participantId=239D1C9FCB9541B9B379719A2399130A&assignmentId=d4e2a9fd-6bd5-49de-88b7-1eb9c8ab4d91&projectId=a0b7c245-2e46-4983-bf8f-29c553c03130","239D1C9FCB9541B9B379719A2399130A-2024-11-18-20-26-51","","","","","","",""
"","","","","","instructions","1","431535","0.0-1.0","239D1C9FCB9541B9B379719A2399130A","239D1C9FCB9541B9B379719A2399130A","d4e2a9fd-6bd5-49de-88b7-1eb9c8ab4d91","a0b7c245-2e46-4983-bf8f-29c553c03130","{""participantId"":""239D1C9FCB9541B9B379719A2399130A"",""assignmentId"":""d4e2a9fd-6bd5-49de-88b7-1eb9c8ab4d91"",""projectId"":""a0b7c245-2e46-4983-bf8f-29c553c03130""}","https://test12345.live/?participantId=239D1C9FCB9541B9B379719A2399130A&assignmentId=d4e2a9fd-6bd5-49de-88b7-1eb9c8ab4d91&projectId=a0b7c245-2e46-4983-bf8f-29c553c03130","239D1C9FCB9541B9B379719A2399130A-2024-11-18-20-26-51","[{""page_index"":0,""viewing_time"":388165}]","388165","","","","",""
"","","","","","instructions","2","870458","0.0-2.0","239D1C9FCB9541B9B379719A2399130A","239D1C9FCB9541B9B379719A2399130A","d4e2a9fd-6bd5-49de-88b7-1eb9c8ab4d91","a0b7c245-2e46-4983-bf8f-29c553c03130","{""participantId"":""239D1C9FCB9541B9B379719A2399130A"",""assignmentId"":""d4e2a9fd-6bd5-49de-88b7-1eb9c8ab4d91"",""projectId"":""a0b7c245-2e46-4983-bf8f-29c553c03130""}","https://test12345.live/?participantId=239D1C9FCB9541B9B379719A2399130A&assignmentId=d4e2a9fd-6bd5-49de-88b7-1eb9c8ab4d91&projectId=a0b7c245-2e46-4983-bf8f-29c553c03130","239D1C9FCB9541B9B379719A2399130A-2024-11-18-20-26-51","[{""page_index"":0,""viewing_time"":438922}]","438922","","","","",""
"true","","","","","fullscreen","3","874029","0.0-3.0","239D1C9FCB9541B9B379719A2399130A","239D1C9FCB9541B9B379719A2399130A","d4e2a9fd-6bd5-49de-88b7-1eb9c8ab4d91","a0b7c245-2e46-4983-bf8f-29c553c03130","{""participantId"":""239D1C9FCB9541B9B379719A2399130A"",""assignmentId"":""d4e2a9fd-6bd5-49de-88b7-1eb9c8ab4d91"",""projectId"":""a0b7c245-2e46-4983-bf8f-29c553c03130""}","https://test12345.live/?participantId=239D1C9FCB9541B9B379719A2399130A&assignmentId=d4e2a9fd-6bd5-49de-88b7-1eb9c8ab4d91&projectId=a0b7c245-2e46-4983-bf8f-29c553c03130","239D1C9FCB9541B9B379719A2399130A-2024-11-18-20-26-51","","2563","","","","",""
"","","","","","initialize-microphone","4","884819","0.0-4.0-0.0","239D1C9FCB9541B9B379719A2399130A","239D1C9FCB9541B9B379719A2399130A","d4e2a9fd-6bd5-49de-88b7-1eb9c8ab4d91","a0b7c245-2e46-4983-bf8f-29c553c03130","{""participantId"":""239D1C9FCB9541B9B379719A2399130A"",""assignmentId"":""d4e2a9fd-6bd5-49de-88b7-1eb9c8ab4d91"",""projectId"":""a0b7c245-2e46-4983-bf8f-29c553c03130""}","https://test12345.live/?participantId=239D1C9FCB9541B9B379719A2399130A&assignmentId=d4e2a9fd-6bd5-49de-88b7-1eb9c8ab4d91&projectId=a0b7c245-2e46-4983-bf8f-29c553c03130","239D1C9FCB9541B9B379719A2399130A-2024-11-18-20-26-51","","","e7a9b5cde51de3091e43351b8ec3737f0c5661a6324cf3ccda2a918e8753d7d0","","","",""
"","","","","","html-audio-response","5","922833","0.0-4.0-1.0","239D1C9FCB9541B9B379719A2399130A","239D1C9FCB9541B9B379719A2399130A","d4e2a9fd-6bd5-49de-88b7-1eb9c8ab4d91","a0b7c245-2e46-4983-bf8f-29c553c03130","{""participantId"":""239D1C9FCB9541B9B379719A2399130A"",""assignmentId"":""d4e2a9fd-6bd5-49de-88b7-1eb9c8ab4d91"",""projectId"":""a0b7c245-2e46-4983-bf8f-29c553c03130""}","https://test12345.live/?participantId=239D1C9FCB9541B9B379719A2399130A&assignmentId=d4e2a9fd-6bd5-49de-88b7-1eb9c8ab4d91&projectId=a0b7c245-2e46-4983-bf8f-29c553c03130","239D1C9FCB9541B9B379719A2399130A-2024-11-18-20-26-51","","4093","","<span style=""color: red; font-size: 24px""> NOW RECORDING</span>
        <p>Please test Microphone</p>","","3",""
"","","","","","html-button-response","6","924690","0.0-4.0-2.0","239D1C9FCB9541B9B379719A2399130A","239D1C9FCB9541B9B379719A2399130A","d4e2a9fd-6bd5-49de-88b7-1eb9c8ab4d91","a0b7c245-2e46-4983-bf8f-29c553c03130","{""participantId"":""239D1C9FCB9541B9B379719A2399130A"",""assignmentId"":""d4e2a9fd-6bd5-49de-88b7-1eb9c8ab4d91"",""projectId"":""a0b7c245-2e46-4983-bf8f-29c553c03130""}","https://test12345.live/?participantId=239D1C9FCB9541B9B379719A2399130A&assignmentId=d4e2a9fd-6bd5-49de-88b7-1eb9c8ab4d91&projectId=a0b7c245-2e46-4983-bf8f-29c553c03130","239D1C9FCB9541B9B379719A2399130A-2024-11-18-20-26-51","","1855","","<p style=""font-size:48px; color:red;"">Is Microphone OK?</p>","1","",""
"","","","","","instructions","7","931386","0.0-5.0","239D1C9FCB9541B9B379719A2399130A","239D1C9FCB9541B9B379719A2399130A","d4e2a9fd-6bd5-49de-88b7-1eb9c8ab4d91","a0b7c245-2e46-4983-bf8f-29c553c03130","{""participantId"":""239D1C9FCB9541B9B379719A2399130A"",""assignmentId"":""d4e2a9fd-6bd5-49de-88b7-1eb9c8ab4d91"",""projectId"":""a0b7c245-2e46-4983-bf8f-29c553c03130""}","https://test12345.live/?participantId=239D1C9FCB9541B9B379719A2399130A&assignmentId=d4e2a9fd-6bd5-49de-88b7-1eb9c8ab4d91&projectId=a0b7c245-2e46-4983-bf8f-29c553c03130","239D1C9FCB9541B9B379719A2399130A-2024-11-18-20-26-51","[{""page_index"":0,""viewing_time"":4625},{""page_index"":1,""viewing_time"":2070}]","6695","","","","",""
"","","","","","image-button-response","8","937404","0.0-6.0-0.0","239D1C9FCB9541B9B379719A2399130A","239D1C9FCB9541B9B379719A2399130A","d4e2a9fd-6bd5-49de-88b7-1eb9c8ab4d91","a0b7c245-2e46-4983-bf8f-29c553c03130","{""participantId"":""239D1C9FCB9541B9B379719A2399130A"",""assignmentId"":""d4e2a9fd-6bd5-49de-88b7-1eb9c8ab4d91"",""projectId"":""a0b7c245-2e46-4983-bf8f-29c553c03130""}","https://test12345.live/?participantId=239D1C9FCB9541B9B379719A2399130A&assignmentId=d4e2a9fd-6bd5-49de-88b7-1eb9c8ab4d91&projectId=a0b7c245-2e46-4983-bf8f-29c553c03130","239D1C9FCB9541B9B379719A2399130A-2024-11-18-20-26-51","","null","","images/instructions/movie_0.png","null","",""
"","","","","","image-button-response","9","941913","0.0-6.0-1.0-0.0","239D1C9FCB9541B9B379719A2399130A","239D1C9FCB9541B9B379719A2399130A","d4e2a9fd-6bd5-49de-88b7-1eb9c8ab4d91","a0b7c245-2e46-4983-bf8f-29c553c03130","{""participantId"":""239D1C9FCB9541B9B379719A2399130A"",""assignmentId"":""d4e2a9fd-6bd5-49de-88b7-1eb9c8ab4d91"",""projectId"":""a0b7c245-2e46-4983-bf8f-29c553c03130""}","https://test12345.live/?participantId=239D1C9FCB9541B9B379719A2399130A&assignmentId=d4e2a9fd-6bd5-49de-88b7-1eb9c8ab4d91&projectId=a0b7c245-2e46-4983-bf8f-29c553c03130","239D1C9FCB9541B9B379719A2399130A-2024-11-18-20-26-51","","null","","images/instructions/movie_1.png","null","",""
"","","","","","image-button-response","10","945930","0.0-6.0-1.0-1.0","239D1C9FCB9541B9B379719A2399130A","239D1C9FCB9541B9B379719A2399130A","d4e2a9fd-6bd5-49de-88b7-1eb9c8ab4d91","a0b7c245-2e46-4983-bf8f-29c553c03130","{""participantId"":""239D1C9FCB9541B9B379719A2399130A"",""assignmentId"":""d4e2a9fd-6bd5-49de-88b7-1eb9c8ab4d91"",""projectId"":""a0b7c245-2e46-4983-bf8f-29c553c03130""}","https://test12345.live/?participantId=239D1C9FCB9541B9B379719A2399130A&assignmentId=d4e2a9fd-6bd5-49de-88b7-1eb9c8ab4d91&projectId=a0b7c245-2e46-4983-bf8f-29c553c03130","239D1C9FCB9541B9B379719A2399130A-2024-11-18-20-26-51","","null","","images/instructions/movie_1.png","null","",""
"","","","","","image-button-response","11","947740","0.0-6.0-1.0-2.0","239D1C9FCB9541B9B379719A2399130A","239D1C9FCB9541B9B379719A2399130A","d4e2a9fd-6bd5-49de-88b7-1eb9c8ab4d91","a0b7c245-2e46-4983-bf8f-29c553c03130","{""participantId"":""239D1C9FCB9541B9B379719A2399130A"",""assignmentId"":""d4e2a9fd-6bd5-49de-88b7-1eb9c8ab4d91"",""projectId"":""a0b7c245-2e46-4983-bf8f-29c553c03130""}","https://test12345.live/?participantId=239D1C9FCB9541B9B379719A2399130A&assignmentId=d4e2a9fd-6bd5-49de-88b7-1eb9c8ab4d91&projectId=a0b7c245-2e46-4983-bf8f-29c553c03130","239D1C9FCB9541B9B379719A2399130A-2024-11-18-20-26-51","","null","","[]","null","",""
"","","","","","image-button-response","12","952249","0.0-6.0-1.0-0.1","239D1C9FCB9541B9B379719A2399130A","239D1C9FCB9541B9B379719A2399130A","d4e2a9fd-6bd5-49de-88b7-1eb9c8ab4d91","a0b7c245-2e46-4983-bf8f-29c553c03130","{""participantId"":""239D1C9FCB9541B9B379719A2399130A"",""assignmentId"":""d4e2a9fd-6bd5-49de-88b7-1eb9c8ab4d91"",""projectId"":""a0b7c245-2e46-4983-bf8f-29c553c03130""}","https://test12345.live/?participantId=239D1C9FCB9541B9B379719A2399130A&assignmentId=d4e2a9fd-6bd5-49de-88b7-1eb9c8ab4d91&projectId=a0b7c245-2e46-4983-bf8f-29c553c03130","239D1C9FCB9541B9B379719A2399130A-2024-11-18-20-26-51","","null","","images/instructions/movie_2.png","null","",""
"","","","","","image-button-response","13","954166","0.0-6.0-1.0-1.1","239D1C9FCB9541B9B379719A2399130A","239D1C9FCB9541B9B379719A2399130A","d4e2a9fd-6bd5-49de-88b7-1eb9c8ab4d91","a0b7c245-2e46-4983-bf8f-29c553c03130","{""participantId"":""239D1C9FCB9541B9B379719A2399130A"",""assignmentId"":""d4e2a9fd-6bd5-49de-88b7-1eb9c8ab4d91"",""projectId"":""a0b7c245-2e46-4983-bf8f-29c553c03130""}","https://test12345.live/?participantId=239D1C9FCB9541B9B379719A2399130A&assignmentId=d4e2a9fd-6bd5-49de-88b7-1eb9c8ab4d91&projectId=a0b7c245-2e46-4983-bf8f-29c553c03130","239D1C9FCB9541B9B379719A2399130A-2024-11-18-20-26-51","","1914","","images/instructions/movie_2.png","0","",""
"","","","","","image-button-response","14","955967","0.0-6.0-1.0-2.1","239D1C9FCB9541B9B379719A2399130A","239D1C9FCB9541B9B379719A2399130A","d4e2a9fd-6bd5-49de-88b7-1eb9c8ab4d91","a0b7c245-2e46-4983-bf8f-29c553c03130","{""participantId"":""239D1C9FCB9541B9B379719A2399130A"",""assignmentId"":""d4e2a9fd-6bd5-49de-88b7-1eb9c8ab4d91"",""projectId"":""a0b7c245-2e46-4983-bf8f-29c553c03130""}","https://test12345.live/?participantId=239D1C9FCB9541B9B379719A2399130A&assignmentId=d4e2a9fd-6bd5-49de-88b7-1eb9c8ab4d91&projectId=a0b7c245-2e46-4983-bf8f-29c553c03130","239D1C9FCB9541B9B379719A2399130A-2024-11-18-20-26-51","","null","","[]","null","",""
"","","","","","image-button-response","15","960475","0.0-6.0-1.0-0.2","239D1C9FCB9541B9B379719A2399130A","239D1C9FCB9541B9B379719A2399130A","d4e2a9fd-6bd5-49de-88b7-1eb9c8ab4d91","a0b7c245-2e46-4983-bf8f-29c553c03130","{""participantId"":""239D1C9FCB9541B9B379719A2399130A"",""assignmentId"":""d4e2a9fd-6bd5-49de-88b7-1eb9c8ab4d91"",""projectId"":""a0b7c245-2e46-4983-bf8f-29c553c03130""}","https://test12345.live/?participantId=239D1C9FCB9541B9B379719A2399130A&assignmentId=d4e2a9fd-6bd5-49de-88b7-1eb9c8ab4d91&projectId=a0b7c245-2e46-4983-bf8f-29c553c03130","239D1C9FCB9541B9B379719A2399130A-2024-11-18-20-26-51","","null","","images/instructions/movie_3.png","null","",""
"","","","","","image-button-response","16","962992","0.0-6.0-1.0-1.2","239D1C9FCB9541B9B379719A2399130A","239D1C9FCB9541B9B379719A2399130A","d4e2a9fd-6bd5-49de-88b7-1eb9c8ab4d91","a0b7c245-2e46-4983-bf8f-29c553c03130","{""participantId"":""239D1C9FCB9541B9B379719A2399130A"",""assignmentId"":""d4e2a9fd-6bd5-49de-88b7-1eb9c8ab4d91"",""projectId"":""a0b7c245-2e46-4983-bf8f-29c553c03130""}","https://test12345.live/?participantId=239D1C9FCB9541B9B379719A2399130A&assignmentId=d4e2a9fd-6bd5-49de-88b7-1eb9c8ab4d91&projectId=a0b7c245-2e46-4983-bf8f-29c553c03130","239D1C9FCB9541B9B379719A2399130A-2024-11-18-20-26-51","","2515","","images/instructions/movie_3.png","0","",""
"","","","","","image-button-response","17","964803","0.0-6.0-1.0-2.2","239D1C9FCB9541B9B379719A2399130A","239D1C9FCB9541B9B379719A2399130A","d4e2a9fd-6bd5-49de-88b7-1eb9c8ab4d91","a0b7c245-2e46-4983-bf8f-29c553c03130","{""participantId"":""239D1C9FCB9541B9B379719A2399130A"",""assignmentId"":""d4e2a9fd-6bd5-49de-88b7-1eb9c8ab4d91"",""projectId"":""a0b7c245-2e46-4983-bf8f-29c553c03130""}","https://test12345.live/?participantId=239D1C9FCB9541B9B379719A2399130A&assignmentId=d4e2a9fd-6bd5-49de-88b7-1eb9c8ab4d91&projectId=a0b7c245-2e46-4983-bf8f-29c553c03130","239D1C9FCB9541B9B379719A2399130A-2024-11-18-20-26-51","","null","","[]","null","",""
"","","","","","image-button-response","18","969320","0.0-6.0-1.0-0.3","239D1C9FCB9541B9B379719A2399130A","239D1C9FCB9541B9B379719A2399130A","d4e2a9fd-6bd5-49de-88b7-1eb9c8ab4d91","a0b7c245-2e46-4983-bf8f-29c553c03130","{""participantId"":""239D1C9FCB9541B9B379719A2399130A"",""assignmentId"":""d4e2a9fd-6bd5-49de-88b7-1eb9c8ab4d91"",""projectId"":""a0b7c245-2e46-4983-bf8f-29c553c03130""}","https://test12345.live/?participantId=239D1C9FCB9541B9B379719A2399130A&assignmentId=d4e2a9fd-6bd5-49de-88b7-1eb9c8ab4d91&projectId=a0b7c245-2e46-4983-bf8f-29c553c03130","239D1C9FCB9541B9B379719A2399130A-2024-11-18-20-26-51","","null","","images/instructions/movie_4.png","null","",""
"","","","","","image-button-response","19","971125","0.0-6.0-1.0-1.3","239D1C9FCB9541B9B379719A2399130A","239D1C9FCB9541B9B379719A2399130A","d4e2a9fd-6bd5-49de-88b7-1eb9c8ab4d91","a0b7c245-2e46-4983-bf8f-29c553c03130","{""participantId"":""239D1C9FCB9541B9B379719A2399130A"",""assignmentId"":""d4e2a9fd-6bd5-49de-88b7-1eb9c8ab4d91"",""projectId"":""a0b7c245-2e46-4983-bf8f-29c553c03130""}","https://test12345.live/?participantId=239D1C9FCB9541B9B379719A2399130A&assignmentId=d4e2a9fd-6bd5-49de-88b7-1eb9c8ab4d91&projectId=a0b7c245-2e46-4983-bf8f-29c553c03130","239D1C9FCB9541B9B379719A2399130A-2024-11-18-20-26-51","","1804","","images/instructions/movie_4.png","0","",""
"","","","","","image-button-response","20","972926","0.0-6.0-1.0-2.3","239D1C9FCB9541B9B379719A2399130A","239D1C9FCB9541B9B379719A2399130A","d4e2a9fd-6bd5-49de-88b7-1eb9c8ab4d91","a0b7c245-2e46-4983-bf8f-29c553c03130","{""participantId"":""239D1C9FCB9541B9B379719A2399130A"",""assignmentId"":""d4e2a9fd-6bd5-49de-88b7-1eb9c8ab4d91"",""projectId"":""a0b7c245-2e46-4983-bf8f-29c553c03130""}","https://test12345.live/?participantId=239D1C9FCB9541B9B379719A2399130A&assignmentId=d4e2a9fd-6bd5-49de-88b7-1eb9c8ab4d91&projectId=a0b7c245-2e46-4983-bf8f-29c553c03130","239D1C9FCB9541B9B379719A2399130A-2024-11-18-20-26-51","","null","","[]","null","",""
"","","","","","instructions","21","978832","0.0-7.0","239D1C9FCB9541B9B379719A2399130A","239D1C9FCB9541B9B379719A2399130A","d4e2a9fd-6bd5-49de-88b7-1eb9c8ab4d91","a0b7c245-2e46-4983-bf8f-29c553c03130","{""participantId"":""239D1C9FCB9541B9B379719A2399130A"",""assignmentId"":""d4e2a9fd-6bd5-49de-88b7-1eb9c8ab4d91"",""projectId"":""a0b7c245-2e46-4983-bf8f-29c553c03130""}","https://test12345.live/?participantId=239D1C9FCB9541B9B379719A2399130A&assignmentId=d4e2a9fd-6bd5-49de-88b7-1eb9c8ab4d91&projectId=a0b7c245-2e46-4983-bf8f-29c553c03130","239D1C9FCB9541B9B379719A2399130A-2024-11-18-20-26-51","[{""page_index"":0,""viewing_time"":4784},{""page_index"":1,""viewing_time"":1121}]","5905","","","","",""
"","","","","","html-audio-response","22","997056","0.0-8.0","239D1C9FCB9541B9B379719A2399130A","239D1C9FCB9541B9B379719A2399130A","d4e2a9fd-6bd5-49de-88b7-1eb9c8ab4d91","a0b7c245-2e46-4983-bf8f-29c553c03130","{""participantId"":""239D1C9FCB9541B9B379719A2399130A"",""assignmentId"":""d4e2a9fd-6bd5-49de-88b7-1eb9c8ab4d91"",""projectId"":""a0b7c245-2e46-4983-bf8f-29c553c03130""}","https://test12345.live/?participantId=239D1C9FCB9541B9B379719A2399130A&assignmentId=d4e2a9fd-6bd5-49de-88b7-1eb9c8ab4d91&projectId=a0b7c245-2e46-4983-bf8f-29c553c03130","239D1C9FCB9541B9B379719A2399130A-2024-11-18-20-26-51","","16012","","[""<span style=\""color: red; font-size: 24px\""> NOW RECORDING</span><p>Please say out loud all the images you saw, as many as you can remember. The images can be said in any order.</p>""]","","2",""
"","","","","","instructions","23","997845","0.0-9.0","239D1C9FCB9541B9B379719A2399130A","239D1C9FCB9541B9B379719A2399130A","d4e2a9fd-6bd5-49de-88b7-1eb9c8ab4d91","a0b7c245-2e46-4983-bf8f-29c553c03130","{""participantId"":""239D1C9FCB9541B9B379719A2399130A"",""assignmentId"":""d4e2a9fd-6bd5-49de-88b7-1eb9c8ab4d91"",""projectId"":""a0b7c245-2e46-4983-bf8f-29c553c03130""}","https://test12345.live/?participantId=239D1C9FCB9541B9B379719A2399130A&assignmentId=d4e2a9fd-6bd5-49de-88b7-1eb9c8ab4d91&projectId=a0b7c245-2e46-4983-bf8f-29c553c03130","239D1C9FCB9541B9B379719A2399130A-2024-11-18-20-26-51","[{""page_index"":0,""viewing_time"":764}]","764","","","","",""
"","","","","","image-button-response","24","1003848","0.0-10.0-0.0","239D1C9FCB9541B9B379719A2399130A","239D1C9FCB9541B9B379719A2399130A","d4e2a9fd-6bd5-49de-88b7-1eb9c8ab4d91","a0b7c245-2e46-4983-bf8f-29c553c03130","{""participantId"":""239D1C9FCB9541B9B379719A2399130A"",""assignmentId"":""d4e2a9fd-6bd5-49de-88b7-1eb9c8ab4d91"",""projectId"":""a0b7c245-2e46-4983-bf8f-29c553c03130""}","https://test12345.live/?participantId=239D1C9FCB9541B9B379719A2399130A&assignmentId=d4e2a9fd-6bd5-49de-88b7-1eb9c8ab4d91&projectId=a0b7c245-2e46-4983-bf8f-29c553c03130","239D1C9FCB9541B9B379719A2399130A-2024-11-18-20-26-51","","null","","images/causal_sequence/package_causal/package_causal_0.png","null","",""
"","","","","","image-button-response","25","1008365","0.0-10.0-1.0-0.0","239D1C9FCB9541B9B379719A2399130A","239D1C9FCB9541B9B379719A2399130A","d4e2a9fd-6bd5-49de-88b7-1eb9c8ab4d91","a0b7c245-2e46-4983-bf8f-29c553c03130","{""participantId"":""239D1C9FCB9541B9B379719A2399130A"",""assignmentId"":""d4e2a9fd-6bd5-49de-88b7-1eb9c8ab4d91"",""projectId"":""a0b7c245-2e46-4983-bf8f-29c553c03130""}","https://test12345.live/?participantId=239D1C9FCB9541B9B379719A2399130A&assignmentId=d4e2a9fd-6bd5-49de-88b7-1eb9c8ab4d91&projectId=a0b7c245-2e46-4983-bf8f-29c553c03130","239D1C9FCB9541B9B379719A2399130A-2024-11-18-20-26-51","","null","","images/causal_sequence/package_causal/package_causal_1.png","null","",""
"","","","","","image-button-response","26","1010757","0.0-10.0-1.0-1.0","239D1C9FCB9541B9B379719A2399130A","239D1C9FCB9541B9B379719A2399130A","d4e2a9fd-6bd5-49de-88b7-1eb9c8ab4d91","a0b7c245-2e46-4983-bf8f-29c553c03130","{""participantId"":""239D1C9FCB9541B9B379719A2399130A"",""assignmentId"":""d4e2a9fd-6bd5-49de-88b7-1eb9c8ab4d91"",""projectId"":""a0b7c245-2e46-4983-bf8f-29c553c03130""}","https://test12345.live/?participantId=239D1C9FCB9541B9B379719A2399130A&assignmentId=d4e2a9fd-6bd5-49de-88b7-1eb9c8ab4d91&projectId=a0b7c245-2e46-4983-bf8f-29c553c03130","239D1C9FCB9541B9B379719A2399130A-2024-11-18-20-26-51","","2391","","images/causal_sequence/package_causal/package_causal_1.png","0","",""
"","","","","","image-button-response","27","1012573","0.0-10.0-1.0-2.0","239D1C9FCB9541B9B379719A2399130A","239D1C9FCB9541B9B379719A2399130A","d4e2a9fd-6bd5-49de-88b7-1eb9c8ab4d91","a0b7c245-2e46-4983-bf8f-29c553c03130","{""participantId"":""239D1C9FCB9541B9B379719A2399130A"",""assignmentId"":""d4e2a9fd-6bd5-49de-88b7-1eb9c8ab4d91"",""projectId"":""a0b7c245-2e46-4983-bf8f-29c553c03130""}","https://test12345.live/?participantId=239D1C9FCB9541B9B379719A2399130A&assignmentId=d4e2a9fd-6bd5-49de-88b7-1eb9c8ab4d91&projectId=a0b7c245-2e46-4983-bf8f-29c553c03130","239D1C9FCB9541B9B379719A2399130A-2024-11-18-20-26-51","","null","","[]","null","",""
"","","","","","image-button-response","28","1017078","0.0-10.0-1.0-0.1","239D1C9FCB9541B9B379719A2399130A","239D1C9FCB9541B9B379719A2399130A","d4e2a9fd-6bd5-49de-88b7-1eb9c8ab4d91","a0b7c245-2e46-4983-bf8f-29c553c03130","{""participantId"":""239D1C9FCB9541B9B379719A2399130A"",""assignmentId"":""d4e2a9fd-6bd5-49de-88b7-1eb9c8ab4d91"",""projectId"":""a0b7c245-2e46-4983-bf8f-29c553c03130""}","https://test12345.live/?participantId=239D1C9FCB9541B9B379719A2399130A&assignmentId=d4e2a9fd-6bd5-49de-88b7-1eb9c8ab4d91&projectId=a0b7c245-2e46-4983-bf8f-29c553c03130","239D1C9FCB9541B9B379719A2399130A-2024-11-18-20-26-51","","null","","images/causal_sequence/package_causal/package_causal_2.png","null","",""
"","","","","","image-button-response","29","1021083","0.0-10.0-1.0-1.1","239D1C9FCB9541B9B379719A2399130A","239D1C9FCB9541B9B379719A2399130A","d4e2a9fd-6bd5-49de-88b7-1eb9c8ab4d91","a0b7c245-2e46-4983-bf8f-29c553c03130","{""participantId"":""239D1C9FCB9541B9B379719A2399130A"",""assignmentId"":""d4e2a9fd-6bd5-49de-88b7-1eb9c8ab4d91"",""projectId"":""a0b7c245-2e46-4983-bf8f-29c553c03130""}","https://test12345.live/?participantId=239D1C9FCB9541B9B379719A2399130A&assignmentId=d4e2a9fd-6bd5-49de-88b7-1eb9c8ab4d91&projectId=a0b7c245-2e46-4983-bf8f-29c553c03130","239D1C9FCB9541B9B379719A2399130A-2024-11-18-20-26-51","","null","","images/causal_sequence/package_causal/package_causal_2.png","null","",""
"","","","","","image-button-response","30","1022886","0.0-10.0-1.0-2.1","239D1C9FCB9541B9B379719A2399130A","239D1C9FCB9541B9B379719A2399130A","d4e2a9fd-6bd5-49de-88b7-1eb9c8ab4d91","a0b7c245-2e46-4983-bf8f-29c553c03130","{""participantId"":""239D1C9FCB9541B9B379719A2399130A"",""assignmentId"":""d4e2a9fd-6bd5-49de-88b7-1eb9c8ab4d91"",""projectId"":""a0b7c245-2e46-4983-bf8f-29c553c03130""}","https://test12345.live/?participantId=239D1C9FCB9541B9B379719A2399130A&assignmentId=d4e2a9fd-6bd5-49de-88b7-1eb9c8ab4d91&projectId=a0b7c245-2e46-4983-bf8f-29c553c03130","239D1C9FCB9541B9B379719A2399130A-2024-11-18-20-26-51","","null","","[]","null","",""
"","","","","","image-button-response","31","1027399","0.0-10.0-1.0-0.2","239D1C9FCB9541B9B379719A2399130A","239D1C9FCB9541B9B379719A2399130A","d4e2a9fd-6bd5-49de-88b7-1eb9c8ab4d91","a0b7c245-2e46-4983-bf8f-29c553c03130","{""participantId"":""239D1C9FCB9541B9B379719A2399130A"",""assignmentId"":""d4e2a9fd-6bd5-49de-88b7-1eb9c8ab4d91"",""projectId"":""a0b7c245-2e46-4983-bf8f-29c553c03130""}","https://test12345.live/?participantId=239D1C9FCB9541B9B379719A2399130A&assignmentId=d4e2a9fd-6bd5-49de-88b7-1eb9c8ab4d91&projectId=a0b7c245-2e46-4983-bf8f-29c553c03130","239D1C9FCB9541B9B379719A2399130A-2024-11-18-20-26-51","","null","","images/causal_sequence/package_causal/package_causal_3.png","null","",""
"","","","","","image-button-response","32","1029001","0.0-10.0-1.0-1.2","239D1C9FCB9541B9B379719A2399130A","239D1C9FCB9541B9B379719A2399130A","d4e2a9fd-6bd5-49de-88b7-1eb9c8ab4d91","a0b7c245-2e46-4983-bf8f-29c553c03130","{""participantId"":""239D1C9FCB9541B9B379719A2399130A"",""assignmentId"":""d4e2a9fd-6bd5-49de-88b7-1eb9c8ab4d91"",""projectId"":""a0b7c245-2e46-4983-bf8f-29c553c03130""}","https://test12345.live/?participantId=239D1C9FCB9541B9B379719A2399130A&assignmentId=d4e2a9fd-6bd5-49de-88b7-1eb9c8ab4d91&projectId=a0b7c245-2e46-4983-bf8f-29c553c03130","239D1C9FCB9541B9B379719A2399130A-2024-11-18-20-26-51","","1600","","images/causal_sequence/package_causal/package_causal_3.png","0","",""
"","","","","","image-button-response","33","1030809","0.0-10.0-1.0-2.2","239D1C9FCB9541B9B379719A2399130A","239D1C9FCB9541B9B379719A2399130A","d4e2a9fd-6bd5-49de-88b7-1eb9c8ab4d91","a0b7c245-2e46-4983-bf8f-29c553c03130","{""participantId"":""239D1C9FCB9541B9B379719A2399130A"",""assignmentId"":""d4e2a9fd-6bd5-49de-88b7-1eb9c8ab4d91"",""projectId"":""a0b7c245-2e46-4983-bf8f-29c553c03130""}","https://test12345.live/?participantId=239D1C9FCB9541B9B379719A2399130A&assignmentId=d4e2a9fd-6bd5-49de-88b7-1eb9c8ab4d91&projectId=a0b7c245-2e46-4983-bf8f-29c553c03130","239D1C9FCB9541B9B379719A2399130A-2024-11-18-20-26-51","","null","","[]","null","",""
"","","","","","image-button-response","34","1035313","0.0-10.0-1.0-0.3","239D1C9FCB9541B9B379719A2399130A","239D1C9FCB9541B9B379719A2399130A","d4e2a9fd-6bd5-49de-88b7-1eb9c8ab4d91","a0b7c245-2e46-4983-bf8f-29c553c03130","{""participantId"":""239D1C9FCB9541B9B379719A2399130A"",""assignmentId"":""d4e2a9fd-6bd5-49de-88b7-1eb9c8ab4d91"",""projectId"":""a0b7c245-2e46-4983-bf8f-29c553c03130""}","https://test12345.live/?participantId=239D1C9FCB9541B9B379719A2399130A&assignmentId=d4e2a9fd-6bd5-49de-88b7-1eb9c8ab4d91&projectId=a0b7c245-2e46-4983-bf8f-29c553c03130","239D1C9FCB9541B9B379719A2399130A-2024-11-18-20-26-51","","null","","images/causal_sequence/package_causal/package_causal_4.png","null","",""
"","","","","","image-button-response","35","1038620","0.0-10.0-1.0-1.3","239D1C9FCB9541B9B379719A2399130A","239D1C9FCB9541B9B379719A2399130A","d4e2a9fd-6bd5-49de-88b7-1eb9c8ab4d91","a0b7c245-2e46-4983-bf8f-29c553c03130","{""participantId"":""239D1C9FCB9541B9B379719A2399130A"",""assignmentId"":""d4e2a9fd-6bd5-49de-88b7-1eb9c8ab4d91"",""projectId"":""a0b7c245-2e46-4983-bf8f-29c553c03130""}","https://test12345.live/?participantId=239D1C9FCB9541B9B379719A2399130A&assignmentId=d4e2a9fd-6bd5-49de-88b7-1eb9c8ab4d91&projectId=a0b7c245-2e46-4983-bf8f-29c553c03130","239D1C9FCB9541B9B379719A2399130A-2024-11-18-20-26-51","","3304","","images/causal_sequence/package_causal/package_causal_4.png","1","",""
"","","","","","image-button-response","36","1040435","0.0-10.0-1.0-2.3","239D1C9FCB9541B9B379719A2399130A","239D1C9FCB9541B9B379719A2399130A","d4e2a9fd-6bd5-49de-88b7-1eb9c8ab4d91","a0b7c245-2e46-4983-bf8f-29c553c03130","{""participantId"":""239D1C9FCB9541B9B379719A2399130A"",""assignmentId"":""d4e2a9fd-6bd5-49de-88b7-1eb9c8ab4d91"",""projectId"":""a0b7c245-2e46-4983-bf8f-29c553c03130""}","https://test12345.live/?participantId=239D1C9FCB9541B9B379719A2399130A&assignmentId=d4e2a9fd-6bd5-49de-88b7-1eb9c8ab4d91&projectId=a0b7c245-2e46-4983-bf8f-29c553c03130","239D1C9FCB9541B9B379719A2399130A-2024-11-18-20-26-51","","null","","[]","null","",""
"","","","","","image-button-response","37","1044950","0.0-10.0-1.0-0.4","239D1C9FCB9541B9B379719A2399130A","239D1C9FCB9541B9B379719A2399130A","d4e2a9fd-6bd5-49de-88b7-1eb9c8ab4d91","a0b7c245-2e46-4983-bf8f-29c553c03130","{""participantId"":""239D1C9FCB9541B9B379719A2399130A"",""assignmentId"":""d4e2a9fd-6bd5-49de-88b7-1eb9c8ab4d91"",""projectId"":""a0b7c245-2e46-4983-bf8f-29c553c03130""}","https://test12345.live/?participantId=239D1C9FCB9541B9B379719A2399130A&assignmentId=d4e2a9fd-6bd5-49de-88b7-1eb9c8ab4d91&projectId=a0b7c245-2e46-4983-bf8f-29c553c03130","239D1C9FCB9541B9B379719A2399130A-2024-11-18-20-26-51","","null","","images/causal_sequence/package_causal/package_causal_5.png","null","",""
"","","","","","image-button-response","38","1048954","0.0-10.0-1.0-1.4","239D1C9FCB9541B9B379719A2399130A","239D1C9FCB9541B9B379719A2399130A","d4e2a9fd-6bd5-49de-88b7-1eb9c8ab4d91","a0b7c245-2e46-4983-bf8f-29c553c03130","{""participantId"":""239D1C9FCB9541B9B379719A2399130A"",""assignmentId"":""d4e2a9fd-6bd5-49de-88b7-1eb9c8ab4d91"",""projectId"":""a0b7c245-2e46-4983-bf8f-29c553c03130""}","https://test12345.live/?participantId=239D1C9FCB9541B9B379719A2399130A&assignmentId=d4e2a9fd-6bd5-49de-88b7-1eb9c8ab4d91&projectId=a0b7c245-2e46-4983-bf8f-29c553c03130","239D1C9FCB9541B9B379719A2399130A-2024-11-18-20-26-51","","null","","images/causal_sequence/package_causal/package_causal_5.png","null","",""
"","","","","","image-button-response","39","1050766","0.0-10.0-1.0-2.4","239D1C9FCB9541B9B379719A2399130A","239D1C9FCB9541B9B379719A2399130A","d4e2a9fd-6bd5-49de-88b7-1eb9c8ab4d91","a0b7c245-2e46-4983-bf8f-29c553c03130","{""participantId"":""239D1C9FCB9541B9B379719A2399130A"",""assignmentId"":""d4e2a9fd-6bd5-49de-88b7-1eb9c8ab4d91"",""projectId"":""a0b7c245-2e46-4983-bf8f-29c553c03130""}","https://test12345.live/?participantId=239D1C9FCB9541B9B379719A2399130A&assignmentId=d4e2a9fd-6bd5-49de-88b7-1eb9c8ab4d91&projectId=a0b7c245-2e46-4983-bf8f-29c553c03130","239D1C9FCB9541B9B379719A2399130A-2024-11-18-20-26-51","","null","","[]","null","",""
"","","","","","image-button-response","40","1055277","0.0-10.0-1.0-0.5","239D1C9FCB9541B9B379719A2399130A","239D1C9FCB9541B9B379719A2399130A","d4e2a9fd-6bd5-49de-88b7-1eb9c8ab4d91","a0b7c245-2e46-4983-bf8f-29c553c03130","{""participantId"":""239D1C9FCB9541B9B379719A2399130A"",""assignmentId"":""d4e2a9fd-6bd5-49de-88b7-1eb9c8ab4d91"",""projectId"":""a0b7c245-2e46-4983-bf8f-29c553c03130""}","https://test12345.live/?participantId=239D1C9FCB9541B9B379719A2399130A&assignmentId=d4e2a9fd-6bd5-49de-88b7-1eb9c8ab4d91&projectId=a0b7c245-2e46-4983-bf8f-29c553c03130","239D1C9FCB9541B9B379719A2399130A-2024-11-18-20-26-51","","null","","images/causal_sequence/package_causal/package_causal_6.png","null","",""
"","","","","","image-button-response","41","1056304","0.0-10.0-1.0-1.5","239D1C9FCB9541B9B379719A2399130A","239D1C9FCB9541B9B379719A2399130A","d4e2a9fd-6bd5-49de-88b7-1eb9c8ab4d91","a0b7c245-2e46-4983-bf8f-29c553c03130","{""participantId"":""239D1C9FCB9541B9B379719A2399130A"",""assignmentId"":""d4e2a9fd-6bd5-49de-88b7-1eb9c8ab4d91"",""projectId"":""a0b7c245-2e46-4983-bf8f-29c553c03130""}","https://test12345.live/?participantId=239D1C9FCB9541B9B379719A2399130A&assignmentId=d4e2a9fd-6bd5-49de-88b7-1eb9c8ab4d91&projectId=a0b7c245-2e46-4983-bf8f-29c553c03130","239D1C9FCB9541B9B379719A2399130A-2024-11-18-20-26-51","","1017","","images/causal_sequence/package_causal/package_causal_6.png","0","",""
"","","","","","image-button-response","42","1058108","0.0-10.0-1.0-2.5","239D1C9FCB9541B9B379719A2399130A","239D1C9FCB9541B9B379719A2399130A","d4e2a9fd-6bd5-49de-88b7-1eb9c8ab4d91","a0b7c245-2e46-4983-bf8f-29c553c03130","{""participantId"":""239D1C9FCB9541B9B379719A2399130A"",""assignmentId"":""d4e2a9fd-6bd5-49de-88b7-1eb9c8ab4d91"",""projectId"":""a0b7c245-2e46-4983-bf8f-29c553c03130""}","https://test12345.live/?participantId=239D1C9FCB9541B9B379719A2399130A&assignmentId=d4e2a9fd-6bd5-49de-88b7-1eb9c8ab4d91&projectId=a0b7c245-2e46-4983-bf8f-29c553c03130","239D1C9FCB9541B9B379719A2399130A-2024-11-18-20-26-51","","null","","[]","null","",""
"","","","","","image-button-response","43","1062613","0.0-10.0-1.0-0.6","239D1C9FCB9541B9B379719A2399130A","239D1C9FCB9541B9B379719A2399130A","d4e2a9fd-6bd5-49de-88b7-1eb9c8ab4d91","a0b7c245-2e46-4983-bf8f-29c553c03130","{""participantId"":""239D1C9FCB9541B9B379719A2399130A"",""assignmentId"":""d4e2a9fd-6bd5-49de-88b7-1eb9c8ab4d91"",""projectId"":""a0b7c245-2e46-4983-bf8f-29c553c03130""}","https://test12345.live/?participantId=239D1C9FCB9541B9B379719A2399130A&assignmentId=d4e2a9fd-6bd5-49de-88b7-1eb9c8ab4d91&projectId=a0b7c245-2e46-4983-bf8f-29c553c03130","239D1C9FCB9541B9B379719A2399130A-2024-11-18-20-26-51","","null","","images/causal_sequence/package_causal/package_causal_7.png","null","",""
"","","","","","image-button-response","44","1063368","0.0-10.0-1.0-1.6","239D1C9FCB9541B9B379719A2399130A","239D1C9FCB9541B9B379719A2399130A","d4e2a9fd-6bd5-49de-88b7-1eb9c8ab4d91","a0b7c245-2e46-4983-bf8f-29c553c03130","{""participantId"":""239D1C9FCB9541B9B379719A2399130A"",""assignmentId"":""d4e2a9fd-6bd5-49de-88b7-1eb9c8ab4d91"",""projectId"":""a0b7c245-2e46-4983-bf8f-29c553c03130""}","https://test12345.live/?participantId=239D1C9FCB9541B9B379719A2399130A&assignmentId=d4e2a9fd-6bd5-49de-88b7-1eb9c8ab4d91&projectId=a0b7c245-2e46-4983-bf8f-29c553c03130","239D1C9FCB9541B9B379719A2399130A-2024-11-18-20-26-51","","752","","images/causal_sequence/package_causal/package_causal_7.png","0","",""
"","","","","","image-button-response","45","1065180","0.0-10.0-1.0-2.6","239D1C9FCB9541B9B379719A2399130A","239D1C9FCB9541B9B379719A2399130A","d4e2a9fd-6bd5-49de-88b7-1eb9c8ab4d91","a0b7c245-2e46-4983-bf8f-29c553c03130","{""participantId"":""239D1C9FCB9541B9B379719A2399130A"",""assignmentId"":""d4e2a9fd-6bd5-49de-88b7-1eb9c8ab4d91"",""projectId"":""a0b7c245-2e46-4983-bf8f-29c553c03130""}","https://test12345.live/?participantId=239D1C9FCB9541B9B379719A2399130A&assignmentId=d4e2a9fd-6bd5-49de-88b7-1eb9c8ab4d91&projectId=a0b7c245-2e46-4983-bf8f-29c553c03130","239D1C9FCB9541B9B379719A2399130A-2024-11-18-20-26-51","","null","","[]","null","",""
"","","","","","image-button-response","46","1069689","0.0-10.0-1.0-0.7","239D1C9FCB9541B9B379719A2399130A","239D1C9FCB9541B9B379719A2399130A","d4e2a9fd-6bd5-49de-88b7-1eb9c8ab4d91","a0b7c245-2e46-4983-bf8f-29c553c03130","{""participantId"":""239D1C9FCB9541B9B379719A2399130A"",""assignmentId"":""d4e2a9fd-6bd5-49de-88b7-1eb9c8ab4d91"",""projectId"":""a0b7c245-2e46-4983-bf8f-29c553c03130""}","https://test12345.live/?participantId=239D1C9FCB9541B9B379719A2399130A&assignmentId=d4e2a9fd-6bd5-49de-88b7-1eb9c8ab4d91&projectId=a0b7c245-2e46-4983-bf8f-29c553c03130","239D1C9FCB9541B9B379719A2399130A-2024-11-18-20-26-51","","null","","images/causal_sequence/package_causal/package_causal_8.png","null","",""
"","","","","","image-button-response","47","1070559","0.0-10.0-1.0-1.7","239D1C9FCB9541B9B379719A2399130A","239D1C9FCB9541B9B379719A2399130A","d4e2a9fd-6bd5-49de-88b7-1eb9c8ab4d91","a0b7c245-2e46-4983-bf8f-29c553c03130","{""participantId"":""239D1C9FCB9541B9B379719A2399130A"",""assignmentId"":""d4e2a9fd-6bd5-49de-88b7-1eb9c8ab4d91"",""projectId"":""a0b7c245-2e46-4983-bf8f-29c553c03130""}","https://test12345.live/?participantId=239D1C9FCB9541B9B379719A2399130A&assignmentId=d4e2a9fd-6bd5-49de-88b7-1eb9c8ab4d91&projectId=a0b7c245-2e46-4983-bf8f-29c553c03130","239D1C9FCB9541B9B379719A2399130A-2024-11-18-20-26-51","","868","","images/causal_sequence/package_causal/package_causal_8.png","0","",""
"","","","","","image-button-response","48","1072367","0.0-10.0-1.0-2.7","239D1C9FCB9541B9B379719A2399130A","239D1C9FCB9541B9B379719A2399130A","d4e2a9fd-6bd5-49de-88b7-1eb9c8ab4d91","a0b7c245-2e46-4983-bf8f-29c553c03130","{""participantId"":""239D1C9FCB9541B9B379719A2399130A"",""assignmentId"":""d4e2a9fd-6bd5-49de-88b7-1eb9c8ab4d91"",""projectId"":""a0b7c245-2e46-4983-bf8f-29c553c03130""}","https://test12345.live/?participantId=239D1C9FCB9541B9B379719A2399130A&assignmentId=d4e2a9fd-6bd5-49de-88b7-1eb9c8ab4d91&projectId=a0b7c245-2e46-4983-bf8f-29c553c03130","239D1C9FCB9541B9B379719A2399130A-2024-11-18-20-26-51","","null","","[]","null","",""
"","","","","","image-button-response","49","1076870","0.0-10.0-1.0-0.8","239D1C9FCB9541B9B379719A2399130A","239D1C9FCB9541B9B379719A2399130A","d4e2a9fd-6bd5-49de-88b7-1eb9c8ab4d91","a0b7c245-2e46-4983-bf8f-29c553c03130","{""participantId"":""239D1C9FCB9541B9B379719A2399130A"",""assignmentId"":""d4e2a9fd-6bd5-49de-88b7-1eb9c8ab4d91"",""projectId"":""a0b7c245-2e46-4983-bf8f-29c553c03130""}","https://test12345.live/?participantId=239D1C9FCB9541B9B379719A2399130A&assignmentId=d4e2a9fd-6bd5-49de-88b7-1eb9c8ab4d91&projectId=a0b7c245-2e46-4983-bf8f-29c553c03130","239D1C9FCB9541B9B379719A2399130A-2024-11-18-20-26-51","","null","","images/causal_sequence/package_causal/package_causal_9.png","null","",""
"","","","","","image-button-response","50","1077575","0.0-10.0-1.0-1.8","239D1C9FCB9541B9B379719A2399130A","239D1C9FCB9541B9B379719A2399130A","d4e2a9fd-6bd5-49de-88b7-1eb9c8ab4d91","a0b7c245-2e46-4983-bf8f-29c553c03130","{""participantId"":""239D1C9FCB9541B9B379719A2399130A"",""assignmentId"":""d4e2a9fd-6bd5-49de-88b7-1eb9c8ab4d91"",""projectId"":""a0b7c245-2e46-4983-bf8f-29c553c03130""}","https://test12345.live/?participantId=239D1C9FCB9541B9B379719A2399130A&assignmentId=d4e2a9fd-6bd5-49de-88b7-1eb9c8ab4d91&projectId=a0b7c245-2e46-4983-bf8f-29c553c03130","239D1C9FCB9541B9B379719A2399130A-2024-11-18-20-26-51","","702","","images/causal_sequence/package_causal/package_causal_9.png","0","",""
"","","","","","image-button-response","51","1079377","0.0-10.0-1.0-2.8","239D1C9FCB9541B9B379719A2399130A","239D1C9FCB9541B9B379719A2399130A","d4e2a9fd-6bd5-49de-88b7-1eb9c8ab4d91","a0b7c245-2e46-4983-bf8f-29c553c03130","{""participantId"":""239D1C9FCB9541B9B379719A2399130A"",""assignmentId"":""d4e2a9fd-6bd5-49de-88b7-1eb9c8ab4d91"",""projectId"":""a0b7c245-2e46-4983-bf8f-29c553c03130""}","https://test12345.live/?participantId=239D1C9FCB9541B9B379719A2399130A&assignmentId=d4e2a9fd-6bd5-49de-88b7-1eb9c8ab4d91&projectId=a0b7c245-2e46-4983-bf8f-29c553c03130","239D1C9FCB9541B9B379719A2399130A-2024-11-18-20-26-51","","null","","[]","null","",""
"","","","","","image-button-response","52","1083885","0.0-10.0-1.0-0.9","239D1C9FCB9541B9B379719A2399130A","239D1C9FCB9541B9B379719A2399130A","d4e2a9fd-6bd5-49de-88b7-1eb9c8ab4d91","a0b7c245-2e46-4983-bf8f-29c553c03130","{""participantId"":""239D1C9FCB9541B9B379719A2399130A"",""assignmentId"":""d4e2a9fd-6bd5-49de-88b7-1eb9c8ab4d91"",""projectId"":""a0b7c245-2e46-4983-bf8f-29c553c03130""}","https://test12345.live/?participantId=239D1C9FCB9541B9B379719A2399130A&assignmentId=d4e2a9fd-6bd5-49de-88b7-1eb9c8ab4d91&projectId=a0b7c245-2e46-4983-bf8f-29c553c03130","239D1C9FCB9541B9B379719A2399130A-2024-11-18-20-26-51","","null","","images/causal_sequence/package_causal/package_causal_ten.png","null","",""
"","","","","","image-button-response","53","1085330","0.0-10.0-1.0-1.9","239D1C9FCB9541B9B379719A2399130A","239D1C9FCB9541B9B379719A2399130A","d4e2a9fd-6bd5-49de-88b7-1eb9c8ab4d91","a0b7c245-2e46-4983-bf8f-29c553c03130","{""participantId"":""239D1C9FCB9541B9B379719A2399130A"",""assignmentId"":""d4e2a9fd-6bd5-49de-88b7-1eb9c8ab4d91"",""projectId"":""a0b7c245-2e46-4983-bf8f-29c553c03130""}","https://test12345.live/?participantId=239D1C9FCB9541B9B379719A2399130A&assignmentId=d4e2a9fd-6bd5-49de-88b7-1eb9c8ab4d91&projectId=a0b7c245-2e46-4983-bf8f-29c553c03130","239D1C9FCB9541B9B379719A2399130A-2024-11-18-20-26-51","","1443","","images/causal_sequence/package_causal/package_causal_ten.png","0","",""
"","","","","","image-button-response","54","1087141","0.0-10.0-1.0-2.9","239D1C9FCB9541B9B379719A2399130A","239D1C9FCB9541B9B379719A2399130A","d4e2a9fd-6bd5-49de-88b7-1eb9c8ab4d91","a0b7c245-2e46-4983-bf8f-29c553c03130","{""participantId"":""239D1C9FCB9541B9B379719A2399130A"",""assignmentId"":""d4e2a9fd-6bd5-49de-88b7-1eb9c8ab4d91"",""projectId"":""a0b7c245-2e46-4983-bf8f-29c553c03130""}","https://test12345.live/?participantId=239D1C9FCB9541B9B379719A2399130A&assignmentId=d4e2a9fd-6bd5-49de-88b7-1eb9c8ab4d91&projectId=a0b7c245-2e46-4983-bf8f-29c553c03130","239D1C9FCB9541B9B379719A2399130A-2024-11-18-20-26-51","","null","","[]","null","",""
"","","","","","html-audio-response","55","1129775","0.0-11.0","239D1C9FCB9541B9B379719A2399130A","239D1C9FCB9541B9B379719A2399130A","d4e2a9fd-6bd5-49de-88b7-1eb9c8ab4d91","a0b7c245-2e46-4983-bf8f-29c553c03130","{""participantId"":""239D1C9FCB9541B9B379719A2399130A"",""assignmentId"":""d4e2a9fd-6bd5-49de-88b7-1eb9c8ab4d91"",""projectId"":""a0b7c245-2e46-4983-bf8f-29c553c03130""}","https://test12345.live/?participantId=239D1C9FCB9541B9B379719A2399130A&assignmentId=d4e2a9fd-6bd5-49de-88b7-1eb9c8ab4d91&projectId=a0b7c245-2e46-4983-bf8f-29c553c03130","239D1C9FCB9541B9B379719A2399130A-2024-11-18-20-26-51","","41104","","[""<span style=\""color: red; font-size: 24px\""> NOW RECORDING</span><p>Please say out loud all the images you saw, as many as you can remember. The images can be said in any order.</p>""]","","4","package_causal"
"","","","","","image-button-response","56","1135809","0.0-12.0-0.0","239D1C9FCB9541B9B379719A2399130A","239D1C9FCB9541B9B379719A2399130A","d4e2a9fd-6bd5-49de-88b7-1eb9c8ab4d91","a0b7c245-2e46-4983-bf8f-29c553c03130","{""participantId"":""239D1C9FCB9541B9B379719A2399130A"",""assignmentId"":""d4e2a9fd-6bd5-49de-88b7-1eb9c8ab4d91"",""projectId"":""a0b7c245-2e46-4983-bf8f-29c553c03130""}","https://test12345.live/?participantId=239D1C9FCB9541B9B379719A2399130A&assignmentId=d4e2a9fd-6bd5-49de-88b7-1eb9c8ab4d91&projectId=a0b7c245-2e46-4983-bf8f-29c553c03130","239D1C9FCB9541B9B379719A2399130A-2024-11-18-20-26-51","","null","","images/causal_sequence/dog_causal/dog_causal_0.png","null","",""
"","","","","","image-button-response","57","1140312","0.0-12.0-1.0-0.0","239D1C9FCB9541B9B379719A2399130A","239D1C9FCB9541B9B379719A2399130A","d4e2a9fd-6bd5-49de-88b7-1eb9c8ab4d91","a0b7c245-2e46-4983-bf8f-29c553c03130","{""participantId"":""239D1C9FCB9541B9B379719A2399130A"",""assignmentId"":""d4e2a9fd-6bd5-49de-88b7-1eb9c8ab4d91"",""projectId"":""a0b7c245-2e46-4983-bf8f-29c553c03130""}","https://test12345.live/?participantId=239D1C9FCB9541B9B379719A2399130A&assignmentId=d4e2a9fd-6bd5-49de-88b7-1eb9c8ab4d91&projectId=a0b7c245-2e46-4983-bf8f-29c553c03130","239D1C9FCB9541B9B379719A2399130A-2024-11-18-20-26-51","","null","","images/causal_sequence/dog_causal/dog_causal_2.png","null","",""
"","","","","","image-button-response","58","1142246","0.0-12.0-1.0-1.0","239D1C9FCB9541B9B379719A2399130A","239D1C9FCB9541B9B379719A2399130A","d4e2a9fd-6bd5-49de-88b7-1eb9c8ab4d91","a0b7c245-2e46-4983-bf8f-29c553c03130","{""participantId"":""239D1C9FCB9541B9B379719A2399130A"",""assignmentId"":""d4e2a9fd-6bd5-49de-88b7-1eb9c8ab4d91"",""projectId"":""a0b7c245-2e46-4983-bf8f-29c553c03130""}","https://test12345.live/?participantId=239D1C9FCB9541B9B379719A2399130A&assignmentId=d4e2a9fd-6bd5-49de-88b7-1eb9c8ab4d91&projectId=a0b7c245-2e46-4983-bf8f-29c553c03130","239D1C9FCB9541B9B379719A2399130A-2024-11-18-20-26-51","","1932","","images/causal_sequence/dog_causal/dog_causal_2.png","0","",""
"","","","","","image-button-response","59","1144055","0.0-12.0-1.0-2.0","239D1C9FCB9541B9B379719A2399130A","239D1C9FCB9541B9B379719A2399130A","d4e2a9fd-6bd5-49de-88b7-1eb9c8ab4d91","a0b7c245-2e46-4983-bf8f-29c553c03130","{""participantId"":""239D1C9FCB9541B9B379719A2399130A"",""assignmentId"":""d4e2a9fd-6bd5-49de-88b7-1eb9c8ab4d91"",""projectId"":""a0b7c245-2e46-4983-bf8f-29c553c03130""}","https://test12345.live/?participantId=239D1C9FCB9541B9B379719A2399130A&assignmentId=d4e2a9fd-6bd5-49de-88b7-1eb9c8ab4d91&projectId=a0b7c245-2e46-4983-bf8f-29c553c03130","239D1C9FCB9541B9B379719A2399130A-2024-11-18-20-26-51","","null","","[]","null","",""
"","","","","","image-button-response","60","1148564","0.0-12.0-1.0-0.1","239D1C9FCB9541B9B379719A2399130A","239D1C9FCB9541B9B379719A2399130A","d4e2a9fd-6bd5-49de-88b7-1eb9c8ab4d91","a0b7c245-2e46-4983-bf8f-29c553c03130","{""participantId"":""239D1C9FCB9541B9B379719A2399130A"",""assignmentId"":""d4e2a9fd-6bd5-49de-88b7-1eb9c8ab4d91"",""projectId"":""a0b7c245-2e46-4983-bf8f-29c553c03130""}","https://test12345.live/?participantId=239D1C9FCB9541B9B379719A2399130A&assignmentId=d4e2a9fd-6bd5-49de-88b7-1eb9c8ab4d91&projectId=a0b7c245-2e46-4983-bf8f-29c553c03130","239D1C9FCB9541B9B379719A2399130A-2024-11-18-20-26-51","","null","","images/causal_sequence/dog_causal/dog_causal_9.png","null","",""
"","","","","","image-button-response","61","1150078","0.0-12.0-1.0-1.1","239D1C9FCB9541B9B379719A2399130A","239D1C9FCB9541B9B379719A2399130A","d4e2a9fd-6bd5-49de-88b7-1eb9c8ab4d91","a0b7c245-2e46-4983-bf8f-29c553c03130","{""participantId"":""239D1C9FCB9541B9B379719A2399130A"",""assignmentId"":""d4e2a9fd-6bd5-49de-88b7-1eb9c8ab4d91"",""projectId"":""a0b7c245-2e46-4983-bf8f-29c553c03130""}","https://test12345.live/?participantId=239D1C9FCB9541B9B379719A2399130A&assignmentId=d4e2a9fd-6bd5-49de-88b7-1eb9c8ab4d91&projectId=a0b7c245-2e46-4983-bf8f-29c553c03130","239D1C9FCB9541B9B379719A2399130A-2024-11-18-20-26-51","","1512","","images/causal_sequence/dog_causal/dog_causal_9.png","0","",""
"","","","","","image-button-response","62","1151900","0.0-12.0-1.0-2.1","239D1C9FCB9541B9B379719A2399130A","239D1C9FCB9541B9B379719A2399130A","d4e2a9fd-6bd5-49de-88b7-1eb9c8ab4d91","a0b7c245-2e46-4983-bf8f-29c553c03130","{""participantId"":""239D1C9FCB9541B9B379719A2399130A"",""assignmentId"":""d4e2a9fd-6bd5-49de-88b7-1eb9c8ab4d91"",""projectId"":""a0b7c245-2e46-4983-bf8f-29c553c03130""}","https://test12345.live/?participantId=239D1C9FCB9541B9B379719A2399130A&assignmentId=d4e2a9fd-6bd5-49de-88b7-1eb9c8ab4d91&projectId=a0b7c245-2e46-4983-bf8f-29c553c03130","239D1C9FCB9541B9B379719A2399130A-2024-11-18-20-26-51","","null","","[]","null","",""
"","","","","","image-button-response","63","1156404","0.0-12.0-1.0-0.2","239D1C9FCB9541B9B379719A2399130A","239D1C9FCB9541B9B379719A2399130A","d4e2a9fd-6bd5-49de-88b7-1eb9c8ab4d91","a0b7c245-2e46-4983-bf8f-29c553c03130","{""participantId"":""239D1C9FCB9541B9B379719A2399130A"",""assignmentId"":""d4e2a9fd-6bd5-49de-88b7-1eb9c8ab4d91"",""projectId"":""a0b7c245-2e46-4983-bf8f-29c553c03130""}","https://test12345.live/?participantId=239D1C9FCB9541B9B379719A2399130A&assignmentId=d4e2a9fd-6bd5-49de-88b7-1eb9c8ab4d91&projectId=a0b7c245-2e46-4983-bf8f-29c553c03130","239D1C9FCB9541B9B379719A2399130A-2024-11-18-20-26-51","","null","","images/causal_sequence/dog_causal/dog_causal_5.png","null","",""
"","","","","","image-button-response","64","1158007","0.0-12.0-1.0-1.2","239D1C9FCB9541B9B379719A2399130A","239D1C9FCB9541B9B379719A2399130A","d4e2a9fd-6bd5-49de-88b7-1eb9c8ab4d91","a0b7c245-2e46-4983-bf8f-29c553c03130","{""participantId"":""239D1C9FCB9541B9B379719A2399130A"",""assignmentId"":""d4e2a9fd-6bd5-49de-88b7-1eb9c8ab4d91"",""projectId"":""a0b7c245-2e46-4983-bf8f-29c553c03130""}","https://test12345.live/?participantId=239D1C9FCB9541B9B379719A2399130A&assignmentId=d4e2a9fd-6bd5-49de-88b7-1eb9c8ab4d91&projectId=a0b7c245-2e46-4983-bf8f-29c553c03130","239D1C9FCB9541B9B379719A2399130A-2024-11-18-20-26-51","","1601","","images/causal_sequence/dog_causal/dog_causal_5.png","0","",""
"","","","","","image-button-response","65","1159809","0.0-12.0-1.0-2.2","239D1C9FCB9541B9B379719A2399130A","239D1C9FCB9541B9B379719A2399130A","d4e2a9fd-6bd5-49de-88b7-1eb9c8ab4d91","a0b7c245-2e46-4983-bf8f-29c553c03130","{""participantId"":""239D1C9FCB9541B9B379719A2399130A"",""assignmentId"":""d4e2a9fd-6bd5-49de-88b7-1eb9c8ab4d91"",""projectId"":""a0b7c245-2e46-4983-bf8f-29c553c03130""}","https://test12345.live/?participantId=239D1C9FCB9541B9B379719A2399130A&assignmentId=d4e2a9fd-6bd5-49de-88b7-1eb9c8ab4d91&projectId=a0b7c245-2e46-4983-bf8f-29c553c03130","239D1C9FCB9541B9B379719A2399130A-2024-11-18-20-26-51","","null","","[]","null","",""
"","","","","","image-button-response","66","1164321","0.0-12.0-1.0-0.3","239D1C9FCB9541B9B379719A2399130A","239D1C9FCB9541B9B379719A2399130A","d4e2a9fd-6bd5-49de-88b7-1eb9c8ab4d91","a0b7c245-2e46-4983-bf8f-29c553c03130","{""participantId"":""239D1C9FCB9541B9B379719A2399130A"",""assignmentId"":""d4e2a9fd-6bd5-49de-88b7-1eb9c8ab4d91"",""projectId"":""a0b7c245-2e46-4983-bf8f-29c553c03130""}","https://test12345.live/?participantId=239D1C9FCB9541B9B379719A2399130A&assignmentId=d4e2a9fd-6bd5-49de-88b7-1eb9c8ab4d91&projectId=a0b7c245-2e46-4983-bf8f-29c553c03130","239D1C9FCB9541B9B379719A2399130A-2024-11-18-20-26-51","","null","","images/causal_sequence/dog_causal/dog_causal_7.png","null","",""
"","","","","","image-button-response","67","1166733","0.0-12.0-1.0-1.3","239D1C9FCB9541B9B379719A2399130A","239D1C9FCB9541B9B379719A2399130A","d4e2a9fd-6bd5-49de-88b7-1eb9c8ab4d91","a0b7c245-2e46-4983-bf8f-29c553c03130","{""participantId"":""239D1C9FCB9541B9B379719A2399130A"",""assignmentId"":""d4e2a9fd-6bd5-49de-88b7-1eb9c8ab4d91"",""projectId"":""a0b7c245-2e46-4983-bf8f-29c553c03130""}","https://test12345.live/?participantId=239D1C9FCB9541B9B379719A2399130A&assignmentId=d4e2a9fd-6bd5-49de-88b7-1eb9c8ab4d91&projectId=a0b7c245-2e46-4983-bf8f-29c553c03130","239D1C9FCB9541B9B379719A2399130A-2024-11-18-20-26-51","","2410","","images/causal_sequence/dog_causal/dog_causal_7.png","0","",""
"","","","","","image-button-response","68","1168540","0.0-12.0-1.0-2.3","239D1C9FCB9541B9B379719A2399130A","239D1C9FCB9541B9B379719A2399130A","d4e2a9fd-6bd5-49de-88b7-1eb9c8ab4d91","a0b7c245-2e46-4983-bf8f-29c553c03130","{""participantId"":""239D1C9FCB9541B9B379719A2399130A"",""assignmentId"":""d4e2a9fd-6bd5-49de-88b7-1eb9c8ab4d91"",""projectId"":""a0b7c245-2e46-4983-bf8f-29c553c03130""}","https://test12345.live/?participantId=239D1C9FCB9541B9B379719A2399130A&assignmentId=d4e2a9fd-6bd5-49de-88b7-1eb9c8ab4d91&projectId=a0b7c245-2e46-4983-bf8f-29c553c03130","239D1C9FCB9541B9B379719A2399130A-2024-11-18-20-26-51","","null","","[]","null","",""
"","","","","","image-button-response","69","1173056","0.0-12.0-1.0-0.4","239D1C9FCB9541B9B379719A2399130A","239D1C9FCB9541B9B379719A2399130A","d4e2a9fd-6bd5-49de-88b7-1eb9c8ab4d91","a0b7c245-2e46-4983-bf8f-29c553c03130","{""participantId"":""239D1C9FCB9541B9B379719A2399130A"",""assignmentId"":""d4e2a9fd-6bd5-49de-88b7-1eb9c8ab4d91"",""projectId"":""a0b7c245-2e46-4983-bf8f-29c553c03130""}","https://test12345.live/?participantId=239D1C9FCB9541B9B379719A2399130A&assignmentId=d4e2a9fd-6bd5-49de-88b7-1eb9c8ab4d91&projectId=a0b7c245-2e46-4983-bf8f-29c553c03130","239D1C9FCB9541B9B379719A2399130A-2024-11-18-20-26-51","","null","","images/causal_sequence/dog_causal/dog_causal_8.png","null","",""
"","","","","","image-button-response","70","1176988","0.0-12.0-1.0-1.4","239D1C9FCB9541B9B379719A2399130A","239D1C9FCB9541B9B379719A2399130A","d4e2a9fd-6bd5-49de-88b7-1eb9c8ab4d91","a0b7c245-2e46-4983-bf8f-29c553c03130","{""participantId"":""239D1C9FCB9541B9B379719A2399130A"",""assignmentId"":""d4e2a9fd-6bd5-49de-88b7-1eb9c8ab4d91"",""projectId"":""a0b7c245-2e46-4983-bf8f-29c553c03130""}","https://test12345.live/?participantId=239D1C9FCB9541B9B379719A2399130A&assignmentId=d4e2a9fd-6bd5-49de-88b7-1eb9c8ab4d91&projectId=a0b7c245-2e46-4983-bf8f-29c553c03130","239D1C9FCB9541B9B379719A2399130A-2024-11-18-20-26-51","","3930","","images/causal_sequence/dog_causal/dog_causal_8.png","0","",""
"","","","","","image-button-response","71","1178798","0.0-12.0-1.0-2.4","239D1C9FCB9541B9B379719A2399130A","239D1C9FCB9541B9B379719A2399130A","d4e2a9fd-6bd5-49de-88b7-1eb9c8ab4d91","a0b7c245-2e46-4983-bf8f-29c553c03130","{""participantId"":""239D1C9FCB9541B9B379719A2399130A"",""assignmentId"":""d4e2a9fd-6bd5-49de-88b7-1eb9c8ab4d91"",""projectId"":""a0b7c245-2e46-4983-bf8f-29c553c03130""}","https://test12345.live/?participantId=239D1C9FCB9541B9B379719A2399130A&assignmentId=d4e2a9fd-6bd5-49de-88b7-1eb9c8ab4d91&projectId=a0b7c245-2e46-4983-bf8f-29c553c03130","239D1C9FCB9541B9B379719A2399130A-2024-11-18-20-26-51","","null","","[]","null","",""
"","","","","","image-button-response","72","1183301","0.0-12.0-1.0-0.5","239D1C9FCB9541B9B379719A2399130A","239D1C9FCB9541B9B379719A2399130A","d4e2a9fd-6bd5-49de-88b7-1eb9c8ab4d91","a0b7c245-2e46-4983-bf8f-29c553c03130","{""participantId"":""239D1C9FCB9541B9B379719A2399130A"",""assignmentId"":""d4e2a9fd-6bd5-49de-88b7-1eb9c8ab4d91"",""projectId"":""a0b7c245-2e46-4983-bf8f-29c553c03130""}","https://test12345.live/?participantId=239D1C9FCB9541B9B379719A2399130A&assignmentId=d4e2a9fd-6bd5-49de-88b7-1eb9c8ab4d91&projectId=a0b7c245-2e46-4983-bf8f-29c553c03130","239D1C9FCB9541B9B379719A2399130A-2024-11-18-20-26-51","","null","","images/causal_sequence/dog_causal/dog_causal_4.png","null","",""
"","","","","","image-button-response","73","1187316","0.0-12.0-1.0-1.5","239D1C9FCB9541B9B379719A2399130A","239D1C9FCB9541B9B379719A2399130A","d4e2a9fd-6bd5-49de-88b7-1eb9c8ab4d91","a0b7c245-2e46-4983-bf8f-29c553c03130","{""participantId"":""239D1C9FCB9541B9B379719A2399130A"",""assignmentId"":""d4e2a9fd-6bd5-49de-88b7-1eb9c8ab4d91"",""projectId"":""a0b7c245-2e46-4983-bf8f-29c553c03130""}","https://test12345.live/?participantId=239D1C9FCB9541B9B379719A2399130A&assignmentId=d4e2a9fd-6bd5-49de-88b7-1eb9c8ab4d91&projectId=a0b7c245-2e46-4983-bf8f-29c553c03130","239D1C9FCB9541B9B379719A2399130A-2024-11-18-20-26-51","","null","","images/causal_sequence/dog_causal/dog_causal_4.png","null","",""
"","","","","","image-button-response","74","1189124","0.0-12.0-1.0-2.5","239D1C9FCB9541B9B379719A2399130A","239D1C9FCB9541B9B379719A2399130A","d4e2a9fd-6bd5-49de-88b7-1eb9c8ab4d91","a0b7c245-2e46-4983-bf8f-29c553c03130","{""participantId"":""239D1C9FCB9541B9B379719A2399130A"",""assignmentId"":""d4e2a9fd-6bd5-49de-88b7-1eb9c8ab4d91"",""projectId"":""a0b7c245-2e46-4983-bf8f-29c553c03130""}","https://test12345.live/?participantId=239D1C9FCB9541B9B379719A2399130A&assignmentId=d4e2a9fd-6bd5-49de-88b7-1eb9c8ab4d91&projectId=a0b7c245-2e46-4983-bf8f-29c553c03130","239D1C9FCB9541B9B379719A2399130A-2024-11-18-20-26-51","","null","","[]","null","",""
"","","","","","image-button-response","75","1193639","0.0-12.0-1.0-0.6","239D1C9FCB9541B9B379719A2399130A","239D1C9FCB9541B9B379719A2399130A","d4e2a9fd-6bd5-49de-88b7-1eb9c8ab4d91","a0b7c245-2e46-4983-bf8f-29c553c03130","{""participantId"":""239D1C9FCB9541B9B379719A2399130A"",""assignmentId"":""d4e2a9fd-6bd5-49de-88b7-1eb9c8ab4d91"",""projectId"":""a0b7c245-2e46-4983-bf8f-29c553c03130""}","https://test12345.live/?participantId=239D1C9FCB9541B9B379719A2399130A&assignmentId=d4e2a9fd-6bd5-49de-88b7-1eb9c8ab4d91&projectId=a0b7c245-2e46-4983-bf8f-29c553c03130","239D1C9FCB9541B9B379719A2399130A-2024-11-18-20-26-51","","null","","images/causal_sequence/dog_causal/dog_causal_ten.png","null","",""
"","","","","","image-button-response","76","1195268","0.0-12.0-1.0-1.6","239D1C9FCB9541B9B379719A2399130A","239D1C9FCB9541B9B379719A2399130A","d4e2a9fd-6bd5-49de-88b7-1eb9c8ab4d91","a0b7c245-2e46-4983-bf8f-29c553c03130","{""participantId"":""239D1C9FCB9541B9B379719A2399130A"",""assignmentId"":""d4e2a9fd-6bd5-49de-88b7-1eb9c8ab4d91"",""projectId"":""a0b7c245-2e46-4983-bf8f-29c553c03130""}","https://test12345.live/?participantId=239D1C9FCB9541B9B379719A2399130A&assignmentId=d4e2a9fd-6bd5-49de-88b7-1eb9c8ab4d91&projectId=a0b7c245-2e46-4983-bf8f-29c553c03130","239D1C9FCB9541B9B379719A2399130A-2024-11-18-20-26-51","","1626","","images/causal_sequence/dog_causal/dog_causal_ten.png","0","",""
"","","","","","image-button-response","77","1197085","0.0-12.0-1.0-2.6","239D1C9FCB9541B9B379719A2399130A","239D1C9FCB9541B9B379719A2399130A","d4e2a9fd-6bd5-49de-88b7-1eb9c8ab4d91","a0b7c245-2e46-4983-bf8f-29c553c03130","{""participantId"":""239D1C9FCB9541B9B379719A2399130A"",""assignmentId"":""d4e2a9fd-6bd5-49de-88b7-1eb9c8ab4d91"",""projectId"":""a0b7c245-2e46-4983-bf8f-29c553c03130""}","https://test12345.live/?participantId=239D1C9FCB9541B9B379719A2399130A&assignmentId=d4e2a9fd-6bd5-49de-88b7-1eb9c8ab4d91&projectId=a0b7c245-2e46-4983-bf8f-29c553c03130","239D1C9FCB9541B9B379719A2399130A-2024-11-18-20-26-51","","null","","[]","null","",""
"","","","","","image-button-response","78","1201599","0.0-12.0-1.0-0.7","239D1C9FCB9541B9B379719A2399130A","239D1C9FCB9541B9B379719A2399130A","d4e2a9fd-6bd5-49de-88b7-1eb9c8ab4d91","a0b7c245-2e46-4983-bf8f-29c553c03130","{""participantId"":""239D1C9FCB9541B9B379719A2399130A"",""assignmentId"":""d4e2a9fd-6bd5-49de-88b7-1eb9c8ab4d91"",""projectId"":""a0b7c245-2e46-4983-bf8f-29c553c03130""}","https://test12345.live/?participantId=239D1C9FCB9541B9B379719A2399130A&assignmentId=d4e2a9fd-6bd5-49de-88b7-1eb9c8ab4d91&projectId=a0b7c245-2e46-4983-bf8f-29c553c03130","239D1C9FCB9541B9B379719A2399130A-2024-11-18-20-26-51","","null","","images/causal_sequence/dog_causal/dog_causal_1.png","null","",""
"","","","","","image-button-response","79","1202710","0.0-12.0-1.0-1.7","239D1C9FCB9541B9B379719A2399130A","239D1C9FCB9541B9B379719A2399130A","d4e2a9fd-6bd5-49de-88b7-1eb9c8ab4d91","a0b7c245-2e46-4983-bf8f-29c553c03130","{""participantId"":""239D1C9FCB9541B9B379719A2399130A"",""assignmentId"":""d4e2a9fd-6bd5-49de-88b7-1eb9c8ab4d91"",""projectId"":""a0b7c245-2e46-4983-bf8f-29c553c03130""}","https://test12345.live/?participantId=239D1C9FCB9541B9B379719A2399130A&assignmentId=d4e2a9fd-6bd5-49de-88b7-1eb9c8ab4d91&projectId=a0b7c245-2e46-4983-bf8f-29c553c03130","239D1C9FCB9541B9B379719A2399130A-2024-11-18-20-26-51","","1109","","images/causal_sequence/dog_causal/dog_causal_1.png","0","",""
"","","","","","image-button-response","80","1204513","0.0-12.0-1.0-2.7","239D1C9FCB9541B9B379719A2399130A","239D1C9FCB9541B9B379719A2399130A","d4e2a9fd-6bd5-49de-88b7-1eb9c8ab4d91","a0b7c245-2e46-4983-bf8f-29c553c03130","{""participantId"":""239D1C9FCB9541B9B379719A2399130A"",""assignmentId"":""d4e2a9fd-6bd5-49de-88b7-1eb9c8ab4d91"",""projectId"":""a0b7c245-2e46-4983-bf8f-29c553c03130""}","https://test12345.live/?participantId=239D1C9FCB9541B9B379719A2399130A&assignmentId=d4e2a9fd-6bd5-49de-88b7-1eb9c8ab4d91&projectId=a0b7c245-2e46-4983-bf8f-29c553c03130","239D1C9FCB9541B9B379719A2399130A-2024-11-18-20-26-51","","null","","[]","null","",""
"","","","","","image-button-response","81","1209031","0.0-12.0-1.0-0.8","239D1C9FCB9541B9B379719A2399130A","239D1C9FCB9541B9B379719A2399130A","d4e2a9fd-6bd5-49de-88b7-1eb9c8ab4d91","a0b7c245-2e46-4983-bf8f-29c553c03130","{""participantId"":""239D1C9FCB9541B9B379719A2399130A"",""assignmentId"":""d4e2a9fd-6bd5-49de-88b7-1eb9c8ab4d91"",""projectId"":""a0b7c245-2e46-4983-bf8f-29c553c03130""}","https://test12345.live/?participantId=239D1C9FCB9541B9B379719A2399130A&assignmentId=d4e2a9fd-6bd5-49de-88b7-1eb9c8ab4d91&projectId=a0b7c245-2e46-4983-bf8f-29c553c03130","239D1C9FCB9541B9B379719A2399130A-2024-11-18-20-26-51","","null","","images/causal_sequence/dog_causal/dog_causal_6.png","null","",""
"","","","","","image-button-response","82","1210611","0.0-12.0-1.0-1.8","239D1C9FCB9541B9B379719A2399130A","239D1C9FCB9541B9B379719A2399130A","d4e2a9fd-6bd5-49de-88b7-1eb9c8ab4d91","a0b7c245-2e46-4983-bf8f-29c553c03130","{""participantId"":""239D1C9FCB9541B9B379719A2399130A"",""assignmentId"":""d4e2a9fd-6bd5-49de-88b7-1eb9c8ab4d91"",""projectId"":""a0b7c245-2e46-4983-bf8f-29c553c03130""}","https://test12345.live/?participantId=239D1C9FCB9541B9B379719A2399130A&assignmentId=d4e2a9fd-6bd5-49de-88b7-1eb9c8ab4d91&projectId=a0b7c245-2e46-4983-bf8f-29c553c03130","239D1C9FCB9541B9B379719A2399130A-2024-11-18-20-26-51","","1579","","images/causal_sequence/dog_causal/dog_causal_6.png","0","",""
"","","","","","image-button-response","83","1212416","0.0-12.0-1.0-2.8","239D1C9FCB9541B9B379719A2399130A","239D1C9FCB9541B9B379719A2399130A","d4e2a9fd-6bd5-49de-88b7-1eb9c8ab4d91","a0b7c245-2e46-4983-bf8f-29c553c03130","{""participantId"":""239D1C9FCB9541B9B379719A2399130A"",""assignmentId"":""d4e2a9fd-6bd5-49de-88b7-1eb9c8ab4d91"",""projectId"":""a0b7c245-2e46-4983-bf8f-29c553c03130""}","https://test12345.live/?participantId=239D1C9FCB9541B9B379719A2399130A&assignmentId=d4e2a9fd-6bd5-49de-88b7-1eb9c8ab4d91&projectId=a0b7c245-2e46-4983-bf8f-29c553c03130","239D1C9FCB9541B9B379719A2399130A-2024-11-18-20-26-51","","null","","[]","null","",""
"","","","","","image-button-response","84","1216920","0.0-12.0-1.0-0.9","239D1C9FCB9541B9B379719A2399130A","239D1C9FCB9541B9B379719A2399130A","d4e2a9fd-6bd5-49de-88b7-1eb9c8ab4d91","a0b7c245-2e46-4983-bf8f-29c553c03130","{""participantId"":""239D1C9FCB9541B9B379719A2399130A"",""assignmentId"":""d4e2a9fd-6bd5-49de-88b7-1eb9c8ab4d91"",""projectId"":""a0b7c245-2e46-4983-bf8f-29c553c03130""}","https://test12345.live/?participantId=239D1C9FCB9541B9B379719A2399130A&assignmentId=d4e2a9fd-6bd5-49de-88b7-1eb9c8ab4d91&projectId=a0b7c245-2e46-4983-bf8f-29c553c03130","239D1C9FCB9541B9B379719A2399130A-2024-11-18-20-26-51","","null","","images/causal_sequence/dog_causal/dog_causal_3.png","null","",""
"","","","","","image-button-response","85","1217434","0.0-12.0-1.0-1.9","239D1C9FCB9541B9B379719A2399130A","239D1C9FCB9541B9B379719A2399130A","d4e2a9fd-6bd5-49de-88b7-1eb9c8ab4d91","a0b7c245-2e46-4983-bf8f-29c553c03130","{""participantId"":""239D1C9FCB9541B9B379719A2399130A"",""assignmentId"":""d4e2a9fd-6bd5-49de-88b7-1eb9c8ab4d91"",""projectId"":""a0b7c245-2e46-4983-bf8f-29c553c03130""}","https://test12345.live/?participantId=239D1C9FCB9541B9B379719A2399130A&assignmentId=d4e2a9fd-6bd5-49de-88b7-1eb9c8ab4d91&projectId=a0b7c245-2e46-4983-bf8f-29c553c03130","239D1C9FCB9541B9B379719A2399130A-2024-11-18-20-26-51","","511","","images/causal_sequence/dog_causal/dog_causal_3.png","0","",""
"","","","","","image-button-response","86","1219239","0.0-12.0-1.0-2.9","239D1C9FCB9541B9B379719A2399130A","239D1C9FCB9541B9B379719A2399130A","d4e2a9fd-6bd5-49de-88b7-1eb9c8ab4d91","a0b7c245-2e46-4983-bf8f-29c553c03130","{""participantId"":""239D1C9FCB9541B9B379719A2399130A"",""assignmentId"":""d4e2a9fd-6bd5-49de-88b7-1eb9c8ab4d91"",""projectId"":""a0b7c245-2e46-4983-bf8f-29c553c03130""}","https://test12345.live/?participantId=239D1C9FCB9541B9B379719A2399130A&assignmentId=d4e2a9fd-6bd5-49de-88b7-1eb9c8ab4d91&projectId=a0b7c245-2e46-4983-bf8f-29c553c03130","239D1C9FCB9541B9B379719A2399130A-2024-11-18-20-26-51","","null","","[]","null","",""
"","","","","","html-audio-response","87","1259147","0.0-13.0","239D1C9FCB9541B9B379719A2399130A","239D1C9FCB9541B9B379719A2399130A","d4e2a9fd-6bd5-49de-88b7-1eb9c8ab4d91","a0b7c245-2e46-4983-bf8f-29c553c03130","{""participantId"":""239D1C9FCB9541B9B379719A2399130A"",""assignmentId"":""d4e2a9fd-6bd5-49de-88b7-1eb9c8ab4d91"",""projectId"":""a0b7c245-2e46-4983-bf8f-29c553c03130""}","https://test12345.live/?participantId=239D1C9FCB9541B9B379719A2399130A&assignmentId=d4e2a9fd-6bd5-49de-88b7-1eb9c8ab4d91&projectId=a0b7c245-2e46-4983-bf8f-29c553c03130","239D1C9FCB9541B9B379719A2399130A-2024-11-18-20-26-51","","38476","","[""<span style=\""color: red; font-size: 24px\""> NOW RECORDING</span><p>Please say out loud all the images you saw, as many as you can remember. The images can be said in any order.</p>""]","","3","dog_causal"
"","","","","","image-button-response","88","1265166","0.0-14.0-0.0","239D1C9FCB9541B9B379719A2399130A","239D1C9FCB9541B9B379719A2399130A","d4e2a9fd-6bd5-49de-88b7-1eb9c8ab4d91","a0b7c245-2e46-4983-bf8f-29c553c03130","{""participantId"":""239D1C9FCB9541B9B379719A2399130A"",""assignmentId"":""d4e2a9fd-6bd5-49de-88b7-1eb9c8ab4d91"",""projectId"":""a0b7c245-2e46-4983-bf8f-29c553c03130""}","https://test12345.live/?participantId=239D1C9FCB9541B9B379719A2399130A&assignmentId=d4e2a9fd-6bd5-49de-88b7-1eb9c8ab4d91&projectId=a0b7c245-2e46-4983-bf8f-29c553c03130","239D1C9FCB9541B9B379719A2399130A-2024-11-18-20-26-51","","null","","images/schematic_sequence/flight_scheme/flight_scheme_0.png","null","",""
"","","","","","image-button-response","89","1269678","0.0-14.0-1.0-0.0","239D1C9FCB9541B9B379719A2399130A","239D1C9FCB9541B9B379719A2399130A","d4e2a9fd-6bd5-49de-88b7-1eb9c8ab4d91","a0b7c245-2e46-4983-bf8f-29c553c03130","{""participantId"":""239D1C9FCB9541B9B379719A2399130A"",""assignmentId"":""d4e2a9fd-6bd5-49de-88b7-1eb9c8ab4d91"",""projectId"":""a0b7c245-2e46-4983-bf8f-29c553c03130""}","https://test12345.live/?participantId=239D1C9FCB9541B9B379719A2399130A&assignmentId=d4e2a9fd-6bd5-49de-88b7-1eb9c8ab4d91&projectId=a0b7c245-2e46-4983-bf8f-29c553c03130","239D1C9FCB9541B9B379719A2399130A-2024-11-18-20-26-51","","null","","images/schematic_sequence/flight_scheme/flight_scheme_6.png","null","",""
"","","","","","image-button-response","90","1273691","0.0-14.0-1.0-1.0","239D1C9FCB9541B9B379719A2399130A","239D1C9FCB9541B9B379719A2399130A","d4e2a9fd-6bd5-49de-88b7-1eb9c8ab4d91","a0b7c245-2e46-4983-bf8f-29c553c03130","{""participantId"":""239D1C9FCB9541B9B379719A2399130A"",""assignmentId"":""d4e2a9fd-6bd5-49de-88b7-1eb9c8ab4d91"",""projectId"":""a0b7c245-2e46-4983-bf8f-29c553c03130""}","https://test12345.live/?participantId=239D1C9FCB9541B9B379719A2399130A&assignmentId=d4e2a9fd-6bd5-49de-88b7-1eb9c8ab4d91&projectId=a0b7c245-2e46-4983-bf8f-29c553c03130","239D1C9FCB9541B9B379719A2399130A-2024-11-18-20-26-51","","null","","images/schematic_sequence/flight_scheme/flight_scheme_6.png","null","",""
"","","","","","image-button-response","91","1275501","0.0-14.0-1.0-2.0","239D1C9FCB9541B9B379719A2399130A","239D1C9FCB9541B9B379719A2399130A","d4e2a9fd-6bd5-49de-88b7-1eb9c8ab4d91","a0b7c245-2e46-4983-bf8f-29c553c03130","{""participantId"":""239D1C9FCB9541B9B379719A2399130A"",""assignmentId"":""d4e2a9fd-6bd5-49de-88b7-1eb9c8ab4d91"",""projectId"":""a0b7c245-2e46-4983-bf8f-29c553c03130""}","https://test12345.live/?participantId=239D1C9FCB9541B9B379719A2399130A&assignmentId=d4e2a9fd-6bd5-49de-88b7-1eb9c8ab4d91&projectId=a0b7c245-2e46-4983-bf8f-29c553c03130","239D1C9FCB9541B9B379719A2399130A-2024-11-18-20-26-51","","null","","[]","null","",""
"","","","","","image-button-response","92","1280007","0.0-14.0-1.0-0.1","239D1C9FCB9541B9B379719A2399130A","239D1C9FCB9541B9B379719A2399130A","d4e2a9fd-6bd5-49de-88b7-1eb9c8ab4d91","a0b7c245-2e46-4983-bf8f-29c553c03130","{""participantId"":""239D1C9FCB9541B9B379719A2399130A"",""assignmentId"":""d4e2a9fd-6bd5-49de-88b7-1eb9c8ab4d91"",""projectId"":""a0b7c245-2e46-4983-bf8f-29c553c03130""}","https://test12345.live/?participantId=239D1C9FCB9541B9B379719A2399130A&assignmentId=d4e2a9fd-6bd5-49de-88b7-1eb9c8ab4d91&projectId=a0b7c245-2e46-4983-bf8f-29c553c03130","239D1C9FCB9541B9B379719A2399130A-2024-11-18-20-26-51","","null","","images/schematic_sequence/flight_scheme/flight_scheme_ten.png","null","",""
"","","","","","image-button-response","93","1281871","0.0-14.0-1.0-1.1","239D1C9FCB9541B9B379719A2399130A","239D1C9FCB9541B9B379719A2399130A","d4e2a9fd-6bd5-49de-88b7-1eb9c8ab4d91","a0b7c245-2e46-4983-bf8f-29c553c03130","{""participantId"":""239D1C9FCB9541B9B379719A2399130A"",""assignmentId"":""d4e2a9fd-6bd5-49de-88b7-1eb9c8ab4d91"",""projectId"":""a0b7c245-2e46-4983-bf8f-29c553c03130""}","https://test12345.live/?participantId=239D1C9FCB9541B9B379719A2399130A&assignmentId=d4e2a9fd-6bd5-49de-88b7-1eb9c8ab4d91&projectId=a0b7c245-2e46-4983-bf8f-29c553c03130","239D1C9FCB9541B9B379719A2399130A-2024-11-18-20-26-51","","1862","","images/schematic_sequence/flight_scheme/flight_scheme_ten.png","0","",""
"","","","","","image-button-response","94","1283677","0.0-14.0-1.0-2.1","239D1C9FCB9541B9B379719A2399130A","239D1C9FCB9541B9B379719A2399130A","d4e2a9fd-6bd5-49de-88b7-1eb9c8ab4d91","a0b7c245-2e46-4983-bf8f-29c553c03130","{""participantId"":""239D1C9FCB9541B9B379719A2399130A"",""assignmentId"":""d4e2a9fd-6bd5-49de-88b7-1eb9c8ab4d91"",""projectId"":""a0b7c245-2e46-4983-bf8f-29c553c03130""}","https://test12345.live/?participantId=239D1C9FCB9541B9B379719A2399130A&assignmentId=d4e2a9fd-6bd5-49de-88b7-1eb9c8ab4d91&projectId=a0b7c245-2e46-4983-bf8f-29c553c03130","239D1C9FCB9541B9B379719A2399130A-2024-11-18-20-26-51","","null","","[]","null","",""
"","","","","","image-button-response","95","1288183","0.0-14.0-1.0-0.2","239D1C9FCB9541B9B379719A2399130A","239D1C9FCB9541B9B379719A2399130A","d4e2a9fd-6bd5-49de-88b7-1eb9c8ab4d91","a0b7c245-2e46-4983-bf8f-29c553c03130","{""participantId"":""239D1C9FCB9541B9B379719A2399130A"",""assignmentId"":""d4e2a9fd-6bd5-49de-88b7-1eb9c8ab4d91"",""projectId"":""a0b7c245-2e46-4983-bf8f-29c553c03130""}","https://test12345.live/?participantId=239D1C9FCB9541B9B379719A2399130A&assignmentId=d4e2a9fd-6bd5-49de-88b7-1eb9c8ab4d91&projectId=a0b7c245-2e46-4983-bf8f-29c553c03130","239D1C9FCB9541B9B379719A2399130A-2024-11-18-20-26-51","","null","","images/schematic_sequence/flight_scheme/flight_scheme_4.png","null","",""
"","","","","","image-button-response","96","1291309","0.0-14.0-1.0-1.2","239D1C9FCB9541B9B379719A2399130A","239D1C9FCB9541B9B379719A2399130A","d4e2a9fd-6bd5-49de-88b7-1eb9c8ab4d91","a0b7c245-2e46-4983-bf8f-29c553c03130","{""participantId"":""239D1C9FCB9541B9B379719A2399130A"",""assignmentId"":""d4e2a9fd-6bd5-49de-88b7-1eb9c8ab4d91"",""projectId"":""a0b7c245-2e46-4983-bf8f-29c553c03130""}","https://test12345.live/?participantId=239D1C9FCB9541B9B379719A2399130A&assignmentId=d4e2a9fd-6bd5-49de-88b7-1eb9c8ab4d91&projectId=a0b7c245-2e46-4983-bf8f-29c553c03130","239D1C9FCB9541B9B379719A2399130A-2024-11-18-20-26-51","","3124","","images/schematic_sequence/flight_scheme/flight_scheme_4.png","0","",""
"","","","","","image-button-response","97","1293123","0.0-14.0-1.0-2.2","239D1C9FCB9541B9B379719A2399130A","239D1C9FCB9541B9B379719A2399130A","d4e2a9fd-6bd5-49de-88b7-1eb9c8ab4d91","a0b7c245-2e46-4983-bf8f-29c553c03130","{""participantId"":""239D1C9FCB9541B9B379719A2399130A"",""assignmentId"":""d4e2a9fd-6bd5-49de-88b7-1eb9c8ab4d91"",""projectId"":""a0b7c245-2e46-4983-bf8f-29c553c03130""}","https://test12345.live/?participantId=239D1C9FCB9541B9B379719A2399130A&assignmentId=d4e2a9fd-6bd5-49de-88b7-1eb9c8ab4d91&projectId=a0b7c245-2e46-4983-bf8f-29c553c03130","239D1C9FCB9541B9B379719A2399130A-2024-11-18-20-26-51","","null","","[]","null","",""
"","","","","","image-button-response","98","1297632","0.0-14.0-1.0-0.3","239D1C9FCB9541B9B379719A2399130A","239D1C9FCB9541B9B379719A2399130A","d4e2a9fd-6bd5-49de-88b7-1eb9c8ab4d91","a0b7c245-2e46-4983-bf8f-29c553c03130","{""participantId"":""239D1C9FCB9541B9B379719A2399130A"",""assignmentId"":""d4e2a9fd-6bd5-49de-88b7-1eb9c8ab4d91"",""projectId"":""a0b7c245-2e46-4983-bf8f-29c553c03130""}","https://test12345.live/?participantId=239D1C9FCB9541B9B379719A2399130A&assignmentId=d4e2a9fd-6bd5-49de-88b7-1eb9c8ab4d91&projectId=a0b7c245-2e46-4983-bf8f-29c553c03130","239D1C9FCB9541B9B379719A2399130A-2024-11-18-20-26-51","","null","","images/schematic_sequence/flight_scheme/flight_scheme_3.png","null","",""
"","","","","","image-button-response","99","1300240","0.0-14.0-1.0-1.3","239D1C9FCB9541B9B379719A2399130A","239D1C9FCB9541B9B379719A2399130A","d4e2a9fd-6bd5-49de-88b7-1eb9c8ab4d91","a0b7c245-2e46-4983-bf8f-29c553c03130","{""participantId"":""239D1C9FCB9541B9B379719A2399130A"",""assignmentId"":""d4e2a9fd-6bd5-49de-88b7-1eb9c8ab4d91"",""projectId"":""a0b7c245-2e46-4983-bf8f-29c553c03130""}","https://test12345.live/?participantId=239D1C9FCB9541B9B379719A2399130A&assignmentId=d4e2a9fd-6bd5-49de-88b7-1eb9c8ab4d91&projectId=a0b7c245-2e46-4983-bf8f-29c553c03130","239D1C9FCB9541B9B379719A2399130A-2024-11-18-20-26-51","","2606","","images/schematic_sequence/flight_scheme/flight_scheme_3.png","0","",""
"","","","","","image-button-response","100","1302055","0.0-14.0-1.0-2.3","239D1C9FCB9541B9B379719A2399130A","239D1C9FCB9541B9B379719A2399130A","d4e2a9fd-6bd5-49de-88b7-1eb9c8ab4d91","a0b7c245-2e46-4983-bf8f-29c553c03130","{""participantId"":""239D1C9FCB9541B9B379719A2399130A"",""assignmentId"":""d4e2a9fd-6bd5-49de-88b7-1eb9c8ab4d91"",""projectId"":""a0b7c245-2e46-4983-bf8f-29c553c03130""}","https://test12345.live/?participantId=239D1C9FCB9541B9B379719A2399130A&assignmentId=d4e2a9fd-6bd5-49de-88b7-1eb9c8ab4d91&projectId=a0b7c245-2e46-4983-bf8f-29c553c03130","239D1C9FCB9541B9B379719A2399130A-2024-11-18-20-26-51","","null","","[]","null","",""
"","","","","","image-button-response","101","1306563","0.0-14.0-1.0-0.4","239D1C9FCB9541B9B379719A2399130A","239D1C9FCB9541B9B379719A2399130A","d4e2a9fd-6bd5-49de-88b7-1eb9c8ab4d91","a0b7c245-2e46-4983-bf8f-29c553c03130","{""participantId"":""239D1C9FCB9541B9B379719A2399130A"",""assignmentId"":""d4e2a9fd-6bd5-49de-88b7-1eb9c8ab4d91"",""projectId"":""a0b7c245-2e46-4983-bf8f-29c553c03130""}","https://test12345.live/?participantId=239D1C9FCB9541B9B379719A2399130A&assignmentId=d4e2a9fd-6bd5-49de-88b7-1eb9c8ab4d91&projectId=a0b7c245-2e46-4983-bf8f-29c553c03130","239D1C9FCB9541B9B379719A2399130A-2024-11-18-20-26-51","","null","","images/schematic_sequence/flight_scheme/flight_scheme_1.png","null","",""
"","","","","","image-button-response","102","1308450","0.0-14.0-1.0-1.4","239D1C9FCB9541B9B379719A2399130A","239D1C9FCB9541B9B379719A2399130A","d4e2a9fd-6bd5-49de-88b7-1eb9c8ab4d91","a0b7c245-2e46-4983-bf8f-29c553c03130","{""participantId"":""239D1C9FCB9541B9B379719A2399130A"",""assignmentId"":""d4e2a9fd-6bd5-49de-88b7-1eb9c8ab4d91"",""projectId"":""a0b7c245-2e46-4983-bf8f-29c553c03130""}","https://test12345.live/?participantId=239D1C9FCB9541B9B379719A2399130A&assignmentId=d4e2a9fd-6bd5-49de-88b7-1eb9c8ab4d91&projectId=a0b7c245-2e46-4983-bf8f-29c553c03130","239D1C9FCB9541B9B379719A2399130A-2024-11-18-20-26-51","","1885","","images/schematic_sequence/flight_scheme/flight_scheme_1.png","0","",""
"","","","","","image-button-response","103","1310257","0.0-14.0-1.0-2.4","239D1C9FCB9541B9B379719A2399130A","239D1C9FCB9541B9B379719A2399130A","d4e2a9fd-6bd5-49de-88b7-1eb9c8ab4d91","a0b7c245-2e46-4983-bf8f-29c553c03130","{""participantId"":""239D1C9FCB9541B9B379719A2399130A"",""assignmentId"":""d4e2a9fd-6bd5-49de-88b7-1eb9c8ab4d91"",""projectId"":""a0b7c245-2e46-4983-bf8f-29c553c03130""}","https://test12345.live/?participantId=239D1C9FCB9541B9B379719A2399130A&assignmentId=d4e2a9fd-6bd5-49de-88b7-1eb9c8ab4d91&projectId=a0b7c245-2e46-4983-bf8f-29c553c03130","239D1C9FCB9541B9B379719A2399130A-2024-11-18-20-26-51","","null","","[]","null","",""
"","","","","","image-button-response","104","1314767","0.0-14.0-1.0-0.5","239D1C9FCB9541B9B379719A2399130A","239D1C9FCB9541B9B379719A2399130A","d4e2a9fd-6bd5-49de-88b7-1eb9c8ab4d91","a0b7c245-2e46-4983-bf8f-29c553c03130","{""participantId"":""239D1C9FCB9541B9B379719A2399130A"",""assignmentId"":""d4e2a9fd-6bd5-49de-88b7-1eb9c8ab4d91"",""projectId"":""a0b7c245-2e46-4983-bf8f-29c553c03130""}","https://test12345.live/?participantId=239D1C9FCB9541B9B379719A2399130A&assignmentId=d4e2a9fd-6bd5-49de-88b7-1eb9c8ab4d91&projectId=a0b7c245-2e46-4983-bf8f-29c553c03130","239D1C9FCB9541B9B379719A2399130A-2024-11-18-20-26-51","","null","","images/schematic_sequence/flight_scheme/flight_scheme_5.png","null","",""
"","","","","","image-button-response","105","1318600","0.0-14.0-1.0-1.5","239D1C9FCB9541B9B379719A2399130A","239D1C9FCB9541B9B379719A2399130A","d4e2a9fd-6bd5-49de-88b7-1eb9c8ab4d91","a0b7c245-2e46-4983-bf8f-29c553c03130","{""participantId"":""239D1C9FCB9541B9B379719A2399130A"",""assignmentId"":""d4e2a9fd-6bd5-49de-88b7-1eb9c8ab4d91"",""projectId"":""a0b7c245-2e46-4983-bf8f-29c553c03130""}","https://test12345.live/?participantId=239D1C9FCB9541B9B379719A2399130A&assignmentId=d4e2a9fd-6bd5-49de-88b7-1eb9c8ab4d91&projectId=a0b7c245-2e46-4983-bf8f-29c553c03130","239D1C9FCB9541B9B379719A2399130A-2024-11-18-20-26-51","","3831","","images/schematic_sequence/flight_scheme/flight_scheme_5.png","0","",""
"","","","","","image-button-response","106","1320409","0.0-14.0-1.0-2.5","239D1C9FCB9541B9B379719A2399130A","239D1C9FCB9541B9B379719A2399130A","d4e2a9fd-6bd5-49de-88b7-1eb9c8ab4d91","a0b7c245-2e46-4983-bf8f-29c553c03130","{""participantId"":""239D1C9FCB9541B9B379719A2399130A"",""assignmentId"":""d4e2a9fd-6bd5-49de-88b7-1eb9c8ab4d91"",""projectId"":""a0b7c245-2e46-4983-bf8f-29c553c03130""}","https://test12345.live/?participantId=239D1C9FCB9541B9B379719A2399130A&assignmentId=d4e2a9fd-6bd5-49de-88b7-1eb9c8ab4d91&projectId=a0b7c245-2e46-4983-bf8f-29c553c03130","239D1C9FCB9541B9B379719A2399130A-2024-11-18-20-26-51","","null","","[]","null","",""
"","","","","","image-button-response","107","1324912","0.0-14.0-1.0-0.6","239D1C9FCB9541B9B379719A2399130A","239D1C9FCB9541B9B379719A2399130A","d4e2a9fd-6bd5-49de-88b7-1eb9c8ab4d91","a0b7c245-2e46-4983-bf8f-29c553c03130","{""participantId"":""239D1C9FCB9541B9B379719A2399130A"",""assignmentId"":""d4e2a9fd-6bd5-49de-88b7-1eb9c8ab4d91"",""projectId"":""a0b7c245-2e46-4983-bf8f-29c553c03130""}","https://test12345.live/?participantId=239D1C9FCB9541B9B379719A2399130A&assignmentId=d4e2a9fd-6bd5-49de-88b7-1eb9c8ab4d91&projectId=a0b7c245-2e46-4983-bf8f-29c553c03130","239D1C9FCB9541B9B379719A2399130A-2024-11-18-20-26-51","","null","","images/schematic_sequence/flight_scheme/flight_scheme_9.png","null","",""
"","","","","","image-button-response","108","1328929","0.0-14.0-1.0-1.6","239D1C9FCB9541B9B379719A2399130A","239D1C9FCB9541B9B379719A2399130A","d4e2a9fd-6bd5-49de-88b7-1eb9c8ab4d91","a0b7c245-2e46-4983-bf8f-29c553c03130","{""participantId"":""239D1C9FCB9541B9B379719A2399130A"",""assignmentId"":""d4e2a9fd-6bd5-49de-88b7-1eb9c8ab4d91"",""projectId"":""a0b7c245-2e46-4983-bf8f-29c553c03130""}","https://test12345.live/?participantId=239D1C9FCB9541B9B379719A2399130A&assignmentId=d4e2a9fd-6bd5-49de-88b7-1eb9c8ab4d91&projectId=a0b7c245-2e46-4983-bf8f-29c553c03130","239D1C9FCB9541B9B379719A2399130A-2024-11-18-20-26-51","","null","","images/schematic_sequence/flight_scheme/flight_scheme_9.png","null","",""
"","","","","","image-button-response","109","1330736","0.0-14.0-1.0-2.6","239D1C9FCB9541B9B379719A2399130A","239D1C9FCB9541B9B379719A2399130A","d4e2a9fd-6bd5-49de-88b7-1eb9c8ab4d91","a0b7c245-2e46-4983-bf8f-29c553c03130","{""participantId"":""239D1C9FCB9541B9B379719A2399130A"",""assignmentId"":""d4e2a9fd-6bd5-49de-88b7-1eb9c8ab4d91"",""projectId"":""a0b7c245-2e46-4983-bf8f-29c553c03130""}","https://test12345.live/?participantId=239D1C9FCB9541B9B379719A2399130A&assignmentId=d4e2a9fd-6bd5-49de-88b7-1eb9c8ab4d91&projectId=a0b7c245-2e46-4983-bf8f-29c553c03130","239D1C9FCB9541B9B379719A2399130A-2024-11-18-20-26-51","","null","","[]","null","",""
"","","","","","image-button-response","110","1335252","0.0-14.0-1.0-0.7","239D1C9FCB9541B9B379719A2399130A","239D1C9FCB9541B9B379719A2399130A","d4e2a9fd-6bd5-49de-88b7-1eb9c8ab4d91","a0b7c245-2e46-4983-bf8f-29c553c03130","{""participantId"":""239D1C9FCB9541B9B379719A2399130A"",""assignmentId"":""d4e2a9fd-6bd5-49de-88b7-1eb9c8ab4d91"",""projectId"":""a0b7c245-2e46-4983-bf8f-29c553c03130""}","https://test12345.live/?participantId=239D1C9FCB9541B9B379719A2399130A&assignmentId=d4e2a9fd-6bd5-49de-88b7-1eb9c8ab4d91&projectId=a0b7c245-2e46-4983-bf8f-29c553c03130","239D1C9FCB9541B9B379719A2399130A-2024-11-18-20-26-51","","null","","images/schematic_sequence/flight_scheme/flight_scheme_8.png","null","",""
"","","","","","image-button-response","111","1336539","0.0-14.0-1.0-1.7","239D1C9FCB9541B9B379719A2399130A","239D1C9FCB9541B9B379719A2399130A","d4e2a9fd-6bd5-49de-88b7-1eb9c8ab4d91","a0b7c245-2e46-4983-bf8f-29c553c03130","{""participantId"":""239D1C9FCB9541B9B379719A2399130A"",""assignmentId"":""d4e2a9fd-6bd5-49de-88b7-1eb9c8ab4d91"",""projectId"":""a0b7c245-2e46-4983-bf8f-29c553c03130""}","https://test12345.live/?participantId=239D1C9FCB9541B9B379719A2399130A&assignmentId=d4e2a9fd-6bd5-49de-88b7-1eb9c8ab4d91&projectId=a0b7c245-2e46-4983-bf8f-29c553c03130","239D1C9FCB9541B9B379719A2399130A-2024-11-18-20-26-51","","1284","","images/schematic_sequence/flight_scheme/flight_scheme_8.png","0","",""
"","","","","","image-button-response","112","1338353","0.0-14.0-1.0-2.7","239D1C9FCB9541B9B379719A2399130A","239D1C9FCB9541B9B379719A2399130A","d4e2a9fd-6bd5-49de-88b7-1eb9c8ab4d91","a0b7c245-2e46-4983-bf8f-29c553c03130","{""participantId"":""239D1C9FCB9541B9B379719A2399130A"",""assignmentId"":""d4e2a9fd-6bd5-49de-88b7-1eb9c8ab4d91"",""projectId"":""a0b7c245-2e46-4983-bf8f-29c553c03130""}","https://test12345.live/?participantId=239D1C9FCB9541B9B379719A2399130A&assignmentId=d4e2a9fd-6bd5-49de-88b7-1eb9c8ab4d91&projectId=a0b7c245-2e46-4983-bf8f-29c553c03130","239D1C9FCB9541B9B379719A2399130A-2024-11-18-20-26-51","","null","","[]","null","",""
"","","","","","image-button-response","113","1342866","0.0-14.0-1.0-0.8","239D1C9FCB9541B9B379719A2399130A","239D1C9FCB9541B9B379719A2399130A","d4e2a9fd-6bd5-49de-88b7-1eb9c8ab4d91","a0b7c245-2e46-4983-bf8f-29c553c03130","{""participantId"":""239D1C9FCB9541B9B379719A2399130A"",""assignmentId"":""d4e2a9fd-6bd5-49de-88b7-1eb9c8ab4d91"",""projectId"":""a0b7c245-2e46-4983-bf8f-29c553c03130""}","https://test12345.live/?participantId=239D1C9FCB9541B9B379719A2399130A&assignmentId=d4e2a9fd-6bd5-49de-88b7-1eb9c8ab4d91&projectId=a0b7c245-2e46-4983-bf8f-29c553c03130","239D1C9FCB9541B9B379719A2399130A-2024-11-18-20-26-51","","null","","images/schematic_sequence/flight_scheme/flight_scheme_7.png","null","",""
"","","","","","image-button-response","114","1344864","0.0-14.0-1.0-1.8","239D1C9FCB9541B9B379719A2399130A","239D1C9FCB9541B9B379719A2399130A","d4e2a9fd-6bd5-49de-88b7-1eb9c8ab4d91","a0b7c245-2e46-4983-bf8f-29c553c03130","{""participantId"":""239D1C9FCB9541B9B379719A2399130A"",""assignmentId"":""d4e2a9fd-6bd5-49de-88b7-1eb9c8ab4d91"",""projectId"":""a0b7c245-2e46-4983-bf8f-29c553c03130""}","https://test12345.live/?participantId=239D1C9FCB9541B9B379719A2399130A&assignmentId=d4e2a9fd-6bd5-49de-88b7-1eb9c8ab4d91&projectId=a0b7c245-2e46-4983-bf8f-29c553c03130","239D1C9FCB9541B9B379719A2399130A-2024-11-18-20-26-51","","1996","","images/schematic_sequence/flight_scheme/flight_scheme_7.png","0","",""
"","","","","","image-button-response","115","1346677","0.0-14.0-1.0-2.8","239D1C9FCB9541B9B379719A2399130A","239D1C9FCB9541B9B379719A2399130A","d4e2a9fd-6bd5-49de-88b7-1eb9c8ab4d91","a0b7c245-2e46-4983-bf8f-29c553c03130","{""participantId"":""239D1C9FCB9541B9B379719A2399130A"",""assignmentId"":""d4e2a9fd-6bd5-49de-88b7-1eb9c8ab4d91"",""projectId"":""a0b7c245-2e46-4983-bf8f-29c553c03130""}","https://test12345.live/?participantId=239D1C9FCB9541B9B379719A2399130A&assignmentId=d4e2a9fd-6bd5-49de-88b7-1eb9c8ab4d91&projectId=a0b7c245-2e46-4983-bf8f-29c553c03130","239D1C9FCB9541B9B379719A2399130A-2024-11-18-20-26-51","","null","","[]","null","",""
"","","","","","image-button-response","116","1351186","0.0-14.0-1.0-0.9","239D1C9FCB9541B9B379719A2399130A","239D1C9FCB9541B9B379719A2399130A","d4e2a9fd-6bd5-49de-88b7-1eb9c8ab4d91","a0b7c245-2e46-4983-bf8f-29c553c03130","{""participantId"":""239D1C9FCB9541B9B379719A2399130A"",""assignmentId"":""d4e2a9fd-6bd5-49de-88b7-1eb9c8ab4d91"",""projectId"":""a0b7c245-2e46-4983-bf8f-29c553c03130""}","https://test12345.live/?participantId=239D1C9FCB9541B9B379719A2399130A&assignmentId=d4e2a9fd-6bd5-49de-88b7-1eb9c8ab4d91&projectId=a0b7c245-2e46-4983-bf8f-29c553c03130","239D1C9FCB9541B9B379719A2399130A-2024-11-18-20-26-51","","null","","images/schematic_sequence/flight_scheme/flight_scheme_2.png","null","",""
"","","","","","image-button-response","117","1353259","0.0-14.0-1.0-1.9","239D1C9FCB9541B9B379719A2399130A","239D1C9FCB9541B9B379719A2399130A","d4e2a9fd-6bd5-49de-88b7-1eb9c8ab4d91","a0b7c245-2e46-4983-bf8f-29c553c03130","{""participantId"":""239D1C9FCB9541B9B379719A2399130A"",""assignmentId"":""d4e2a9fd-6bd5-49de-88b7-1eb9c8ab4d91"",""projectId"":""a0b7c245-2e46-4983-bf8f-29c553c03130""}","https://test12345.live/?participantId=239D1C9FCB9541B9B379719A2399130A&assignmentId=d4e2a9fd-6bd5-49de-88b7-1eb9c8ab4d91&projectId=a0b7c245-2e46-4983-bf8f-29c553c03130","239D1C9FCB9541B9B379719A2399130A-2024-11-18-20-26-51","","2070","","images/schematic_sequence/flight_scheme/flight_scheme_2.png","0","",""
"","","","","","image-button-response","118","1355066","0.0-14.0-1.0-2.9","239D1C9FCB9541B9B379719A2399130A","239D1C9FCB9541B9B379719A2399130A","d4e2a9fd-6bd5-49de-88b7-1eb9c8ab4d91","a0b7c245-2e46-4983-bf8f-29c553c03130","{""participantId"":""239D1C9FCB9541B9B379719A2399130A"",""assignmentId"":""d4e2a9fd-6bd5-49de-88b7-1eb9c8ab4d91"",""projectId"":""a0b7c245-2e46-4983-bf8f-29c553c03130""}","https://test12345.live/?participantId=239D1C9FCB9541B9B379719A2399130A&assignmentId=d4e2a9fd-6bd5-49de-88b7-1eb9c8ab4d91&projectId=a0b7c245-2e46-4983-bf8f-29c553c03130","239D1C9FCB9541B9B379719A2399130A-2024-11-18-20-26-51","","null","","[]","null","",""
"","","","","","html-audio-response","119","1377900","0.0-15.0","239D1C9FCB9541B9B379719A2399130A","239D1C9FCB9541B9B379719A2399130A","d4e2a9fd-6bd5-49de-88b7-1eb9c8ab4d91","a0b7c245-2e46-4983-bf8f-29c553c03130","{""participantId"":""239D1C9FCB9541B9B379719A2399130A"",""assignmentId"":""d4e2a9fd-6bd5-49de-88b7-1eb9c8ab4d91"",""projectId"":""a0b7c245-2e46-4983-bf8f-29c553c03130""}","https://test12345.live/?participantId=239D1C9FCB9541B9B379719A2399130A&assignmentId=d4e2a9fd-6bd5-49de-88b7-1eb9c8ab4d91&projectId=a0b7c245-2e46-4983-bf8f-29c553c03130","239D1C9FCB9541B9B379719A2399130A-2024-11-18-20-26-51","","21993","","[""<span style=\""color: red; font-size: 24px\""> NOW RECORDING</span><p>Please say out loud all the images you saw, as many as you can remember. The images can be said in any order.</p>""]","","3","flight_scheme"
"","","","","","image-button-response","120","1383920","0.0-16.0-0.0","239D1C9FCB9541B9B379719A2399130A","239D1C9FCB9541B9B379719A2399130A","d4e2a9fd-6bd5-49de-88b7-1eb9c8ab4d91","a0b7c245-2e46-4983-bf8f-29c553c03130","{""participantId"":""239D1C9FCB9541B9B379719A2399130A"",""assignmentId"":""d4e2a9fd-6bd5-49de-88b7-1eb9c8ab4d91"",""projectId"":""a0b7c245-2e46-4983-bf8f-29c553c03130""}","https://test12345.live/?participantId=239D1C9FCB9541B9B379719A2399130A&assignmentId=d4e2a9fd-6bd5-49de-88b7-1eb9c8ab4d91&projectId=a0b7c245-2e46-4983-bf8f-29c553c03130","239D1C9FCB9541B9B379719A2399130A-2024-11-18-20-26-51","","null","","images/schematic_sequence/dinner_party_scheme/dinner_party_scheme_0.png","null","",""
"","","","","","image-button-response","121","1388438","0.0-16.0-1.0-0.0","239D1C9FCB9541B9B379719A2399130A","239D1C9FCB9541B9B379719A2399130A","d4e2a9fd-6bd5-49de-88b7-1eb9c8ab4d91","a0b7c245-2e46-4983-bf8f-29c553c03130","{""participantId"":""239D1C9FCB9541B9B379719A2399130A"",""assignmentId"":""d4e2a9fd-6bd5-49de-88b7-1eb9c8ab4d91"",""projectId"":""a0b7c245-2e46-4983-bf8f-29c553c03130""}","https://test12345.live/?participantId=239D1C9FCB9541B9B379719A2399130A&assignmentId=d4e2a9fd-6bd5-49de-88b7-1eb9c8ab4d91&projectId=a0b7c245-2e46-4983-bf8f-29c553c03130","239D1C9FCB9541B9B379719A2399130A-2024-11-18-20-26-51","","null","","images/schematic_sequence/dinner_party_scheme/dinner_party_scheme_1.png","null","",""
"","","","","","image-button-response","122","1391737","0.0-16.0-1.0-1.0","239D1C9FCB9541B9B379719A2399130A","239D1C9FCB9541B9B379719A2399130A","d4e2a9fd-6bd5-49de-88b7-1eb9c8ab4d91","a0b7c245-2e46-4983-bf8f-29c553c03130","{""participantId"":""239D1C9FCB9541B9B379719A2399130A"",""assignmentId"":""d4e2a9fd-6bd5-49de-88b7-1eb9c8ab4d91"",""projectId"":""a0b7c245-2e46-4983-bf8f-29c553c03130""}","https://test12345.live/?participantId=239D1C9FCB9541B9B379719A2399130A&assignmentId=d4e2a9fd-6bd5-49de-88b7-1eb9c8ab4d91&projectId=a0b7c245-2e46-4983-bf8f-29c553c03130","239D1C9FCB9541B9B379719A2399130A-2024-11-18-20-26-51","","3297","","images/schematic_sequence/dinner_party_scheme/dinner_party_scheme_1.png","0","",""
"","","","","","image-button-response","123","1393549","0.0-16.0-1.0-2.0","239D1C9FCB9541B9B379719A2399130A","239D1C9FCB9541B9B379719A2399130A","d4e2a9fd-6bd5-49de-88b7-1eb9c8ab4d91","a0b7c245-2e46-4983-bf8f-29c553c03130","{""participantId"":""239D1C9FCB9541B9B379719A2399130A"",""assignmentId"":""d4e2a9fd-6bd5-49de-88b7-1eb9c8ab4d91"",""projectId"":""a0b7c245-2e46-4983-bf8f-29c553c03130""}","https://test12345.live/?participantId=239D1C9FCB9541B9B379719A2399130A&assignmentId=d4e2a9fd-6bd5-49de-88b7-1eb9c8ab4d91&projectId=a0b7c245-2e46-4983-bf8f-29c553c03130","239D1C9FCB9541B9B379719A2399130A-2024-11-18-20-26-51","","null","","[]","null","",""
"","","","","","image-button-response","124","1398062","0.0-16.0-1.0-0.1","239D1C9FCB9541B9B379719A2399130A","239D1C9FCB9541B9B379719A2399130A","d4e2a9fd-6bd5-49de-88b7-1eb9c8ab4d91","a0b7c245-2e46-4983-bf8f-29c553c03130","{""participantId"":""239D1C9FCB9541B9B379719A2399130A"",""assignmentId"":""d4e2a9fd-6bd5-49de-88b7-1eb9c8ab4d91"",""projectId"":""a0b7c245-2e46-4983-bf8f-29c553c03130""}","https://test12345.live/?participantId=239D1C9FCB9541B9B379719A2399130A&assignmentId=d4e2a9fd-6bd5-49de-88b7-1eb9c8ab4d91&projectId=a0b7c245-2e46-4983-bf8f-29c553c03130","239D1C9FCB9541B9B379719A2399130A-2024-11-18-20-26-51","","null","","images/schematic_sequence/dinner_party_scheme/dinner_party_scheme_2.png","null","",""
"","","","","","image-button-response","125","1399746","0.0-16.0-1.0-1.1","239D1C9FCB9541B9B379719A2399130A","239D1C9FCB9541B9B379719A2399130A","d4e2a9fd-6bd5-49de-88b7-1eb9c8ab4d91","a0b7c245-2e46-4983-bf8f-29c553c03130","{""participantId"":""239D1C9FCB9541B9B379719A2399130A"",""assignmentId"":""d4e2a9fd-6bd5-49de-88b7-1eb9c8ab4d91"",""projectId"":""a0b7c245-2e46-4983-bf8f-29c553c03130""}","https://test12345.live/?participantId=239D1C9FCB9541B9B379719A2399130A&assignmentId=d4e2a9fd-6bd5-49de-88b7-1eb9c8ab4d91&projectId=a0b7c245-2e46-4983-bf8f-29c553c03130","239D1C9FCB9541B9B379719A2399130A-2024-11-18-20-26-51","","1682","","images/schematic_sequence/dinner_party_scheme/dinner_party_scheme_2.png","0","",""
"","","","","","image-button-response","126","1401555","0.0-16.0-1.0-2.1","239D1C9FCB9541B9B379719A2399130A","239D1C9FCB9541B9B379719A2399130A","d4e2a9fd-6bd5-49de-88b7-1eb9c8ab4d91","a0b7c245-2e46-4983-bf8f-29c553c03130","{""participantId"":""239D1C9FCB9541B9B379719A2399130A"",""assignmentId"":""d4e2a9fd-6bd5-49de-88b7-1eb9c8ab4d91"",""projectId"":""a0b7c245-2e46-4983-bf8f-29c553c03130""}","https://test12345.live/?participantId=239D1C9FCB9541B9B379719A2399130A&assignmentId=d4e2a9fd-6bd5-49de-88b7-1eb9c8ab4d91&projectId=a0b7c245-2e46-4983-bf8f-29c553c03130","239D1C9FCB9541B9B379719A2399130A-2024-11-18-20-26-51","","null","","[]","null","",""
"","","","","","image-button-response","127","1406063","0.0-16.0-1.0-0.2","239D1C9FCB9541B9B379719A2399130A","239D1C9FCB9541B9B379719A2399130A","d4e2a9fd-6bd5-49de-88b7-1eb9c8ab4d91","a0b7c245-2e46-4983-bf8f-29c553c03130","{""participantId"":""239D1C9FCB9541B9B379719A2399130A"",""assignmentId"":""d4e2a9fd-6bd5-49de-88b7-1eb9c8ab4d91"",""projectId"":""a0b7c245-2e46-4983-bf8f-29c553c03130""}","https://test12345.live/?participantId=239D1C9FCB9541B9B379719A2399130A&assignmentId=d4e2a9fd-6bd5-49de-88b7-1eb9c8ab4d91&projectId=a0b7c245-2e46-4983-bf8f-29c553c03130","239D1C9FCB9541B9B379719A2399130A-2024-11-18-20-26-51","","null","","images/schematic_sequence/dinner_party_scheme/dinner_party_scheme_3.png","null","",""
"","","","","","image-button-response","128","1407957","0.0-16.0-1.0-1.2","239D1C9FCB9541B9B379719A2399130A","239D1C9FCB9541B9B379719A2399130A","d4e2a9fd-6bd5-49de-88b7-1eb9c8ab4d91","a0b7c245-2e46-4983-bf8f-29c553c03130","{""participantId"":""239D1C9FCB9541B9B379719A2399130A"",""assignmentId"":""d4e2a9fd-6bd5-49de-88b7-1eb9c8ab4d91"",""projectId"":""a0b7c245-2e46-4983-bf8f-29c553c03130""}","https://test12345.live/?participantId=239D1C9FCB9541B9B379719A2399130A&assignmentId=d4e2a9fd-6bd5-49de-88b7-1eb9c8ab4d91&projectId=a0b7c245-2e46-4983-bf8f-29c553c03130","239D1C9FCB9541B9B379719A2399130A-2024-11-18-20-26-51","","1891","","images/schematic_sequence/dinner_party_scheme/dinner_party_scheme_3.png","0","",""
"","","","","","image-button-response","129","1409769","0.0-16.0-1.0-2.2","239D1C9FCB9541B9B379719A2399130A","239D1C9FCB9541B9B379719A2399130A","d4e2a9fd-6bd5-49de-88b7-1eb9c8ab4d91","a0b7c245-2e46-4983-bf8f-29c553c03130","{""participantId"":""239D1C9FCB9541B9B379719A2399130A"",""assignmentId"":""d4e2a9fd-6bd5-49de-88b7-1eb9c8ab4d91"",""projectId"":""a0b7c245-2e46-4983-bf8f-29c553c03130""}","https://test12345.live/?participantId=239D1C9FCB9541B9B379719A2399130A&assignmentId=d4e2a9fd-6bd5-49de-88b7-1eb9c8ab4d91&projectId=a0b7c245-2e46-4983-bf8f-29c553c03130","239D1C9FCB9541B9B379719A2399130A-2024-11-18-20-26-51","","null","","[]","null","",""
"","","","","","image-button-response","130","1414281","0.0-16.0-1.0-0.3","239D1C9FCB9541B9B379719A2399130A","239D1C9FCB9541B9B379719A2399130A","d4e2a9fd-6bd5-49de-88b7-1eb9c8ab4d91","a0b7c245-2e46-4983-bf8f-29c553c03130","{""participantId"":""239D1C9FCB9541B9B379719A2399130A"",""assignmentId"":""d4e2a9fd-6bd5-49de-88b7-1eb9c8ab4d91"",""projectId"":""a0b7c245-2e46-4983-bf8f-29c553c03130""}","https://test12345.live/?participantId=239D1C9FCB9541B9B379719A2399130A&assignmentId=d4e2a9fd-6bd5-49de-88b7-1eb9c8ab4d91&projectId=a0b7c245-2e46-4983-bf8f-29c553c03130","239D1C9FCB9541B9B379719A2399130A-2024-11-18-20-26-51","","null","","images/schematic_sequence/dinner_party_scheme/dinner_party_scheme_4.png","null","",""
"","","","","","image-button-response","131","1416061","0.0-16.0-1.0-1.3","239D1C9FCB9541B9B379719A2399130A","239D1C9FCB9541B9B379719A2399130A","d4e2a9fd-6bd5-49de-88b7-1eb9c8ab4d91","a0b7c245-2e46-4983-bf8f-29c553c03130","{""participantId"":""239D1C9FCB9541B9B379719A2399130A"",""assignmentId"":""d4e2a9fd-6bd5-49de-88b7-1eb9c8ab4d91"",""projectId"":""a0b7c245-2e46-4983-bf8f-29c553c03130""}","https://test12345.live/?participantId=239D1C9FCB9541B9B379719A2399130A&assignmentId=d4e2a9fd-6bd5-49de-88b7-1eb9c8ab4d91&projectId=a0b7c245-2e46-4983-bf8f-29c553c03130","239D1C9FCB9541B9B379719A2399130A-2024-11-18-20-26-51","","1779","","images/schematic_sequence/dinner_party_scheme/dinner_party_scheme_4.png","0","",""
"","","","","","image-button-response","132","1417868","0.0-16.0-1.0-2.3","239D1C9FCB9541B9B379719A2399130A","239D1C9FCB9541B9B379719A2399130A","d4e2a9fd-6bd5-49de-88b7-1eb9c8ab4d91","a0b7c245-2e46-4983-bf8f-29c553c03130","{""participantId"":""239D1C9FCB9541B9B379719A2399130A"",""assignmentId"":""d4e2a9fd-6bd5-49de-88b7-1eb9c8ab4d91"",""projectId"":""a0b7c245-2e46-4983-bf8f-29c553c03130""}","https://test12345.live/?participantId=239D1C9FCB9541B9B379719A2399130A&assignmentId=d4e2a9fd-6bd5-49de-88b7-1eb9c8ab4d91&projectId=a0b7c245-2e46-4983-bf8f-29c553c03130","239D1C9FCB9541B9B379719A2399130A-2024-11-18-20-26-51","","null","","[]","null","",""
"","","","","","image-button-response","133","1422375","0.0-16.0-1.0-0.4","239D1C9FCB9541B9B379719A2399130A","239D1C9FCB9541B9B379719A2399130A","d4e2a9fd-6bd5-49de-88b7-1eb9c8ab4d91","a0b7c245-2e46-4983-bf8f-29c553c03130","{""participantId"":""239D1C9FCB9541B9B379719A2399130A"",""assignmentId"":""d4e2a9fd-6bd5-49de-88b7-1eb9c8ab4d91"",""projectId"":""a0b7c245-2e46-4983-bf8f-29c553c03130""}","https://test12345.live/?participantId=239D1C9FCB9541B9B379719A2399130A&assignmentId=d4e2a9fd-6bd5-49de-88b7-1eb9c8ab4d91&projectId=a0b7c245-2e46-4983-bf8f-29c553c03130","239D1C9FCB9541B9B379719A2399130A-2024-11-18-20-26-51","","null","","images/schematic_sequence/dinner_party_scheme/dinner_party_scheme_5.png","null","",""
"","","","","","image-button-response","134","1426059","0.0-16.0-1.0-1.4","239D1C9FCB9541B9B379719A2399130A","239D1C9FCB9541B9B379719A2399130A","d4e2a9fd-6bd5-49de-88b7-1eb9c8ab4d91","a0b7c245-2e46-4983-bf8f-29c553c03130","{""participantId"":""239D1C9FCB9541B9B379719A2399130A"",""assignmentId"":""d4e2a9fd-6bd5-49de-88b7-1eb9c8ab4d91"",""projectId"":""a0b7c245-2e46-4983-bf8f-29c553c03130""}","https://test12345.live/?participantId=239D1C9FCB9541B9B379719A2399130A&assignmentId=d4e2a9fd-6bd5-49de-88b7-1eb9c8ab4d91&projectId=a0b7c245-2e46-4983-bf8f-29c553c03130","239D1C9FCB9541B9B379719A2399130A-2024-11-18-20-26-51","","3682","","images/schematic_sequence/dinner_party_scheme/dinner_party_scheme_5.png","0","",""
"","","","","","image-button-response","135","1427872","0.0-16.0-1.0-2.4","239D1C9FCB9541B9B379719A2399130A","239D1C9FCB9541B9B379719A2399130A","d4e2a9fd-6bd5-49de-88b7-1eb9c8ab4d91","a0b7c245-2e46-4983-bf8f-29c553c03130","{""participantId"":""239D1C9FCB9541B9B379719A2399130A"",""assignmentId"":""d4e2a9fd-6bd5-49de-88b7-1eb9c8ab4d91"",""projectId"":""a0b7c245-2e46-4983-bf8f-29c553c03130""}","https://test12345.live/?participantId=239D1C9FCB9541B9B379719A2399130A&assignmentId=d4e2a9fd-6bd5-49de-88b7-1eb9c8ab4d91&projectId=a0b7c245-2e46-4983-bf8f-29c553c03130","239D1C9FCB9541B9B379719A2399130A-2024-11-18-20-26-51","","null","","[]","null","",""
"","","","","","image-button-response","136","1432378","0.0-16.0-1.0-0.5","239D1C9FCB9541B9B379719A2399130A","239D1C9FCB9541B9B379719A2399130A","d4e2a9fd-6bd5-49de-88b7-1eb9c8ab4d91","a0b7c245-2e46-4983-bf8f-29c553c03130","{""participantId"":""239D1C9FCB9541B9B379719A2399130A"",""assignmentId"":""d4e2a9fd-6bd5-49de-88b7-1eb9c8ab4d91"",""projectId"":""a0b7c245-2e46-4983-bf8f-29c553c03130""}","https://test12345.live/?participantId=239D1C9FCB9541B9B379719A2399130A&assignmentId=d4e2a9fd-6bd5-49de-88b7-1eb9c8ab4d91&projectId=a0b7c245-2e46-4983-bf8f-29c553c03130","239D1C9FCB9541B9B379719A2399130A-2024-11-18-20-26-51","","null","","images/schematic_sequence/dinner_party_scheme/dinner_party_scheme_6.png","null","",""
"","","","","","image-button-response","137","1434014","0.0-16.0-1.0-1.5","239D1C9FCB9541B9B379719A2399130A","239D1C9FCB9541B9B379719A2399130A","d4e2a9fd-6bd5-49de-88b7-1eb9c8ab4d91","a0b7c245-2e46-4983-bf8f-29c553c03130","{""participantId"":""239D1C9FCB9541B9B379719A2399130A"",""assignmentId"":""d4e2a9fd-6bd5-49de-88b7-1eb9c8ab4d91"",""projectId"":""a0b7c245-2e46-4983-bf8f-29c553c03130""}","https://test12345.live/?participantId=239D1C9FCB9541B9B379719A2399130A&assignmentId=d4e2a9fd-6bd5-49de-88b7-1eb9c8ab4d91&projectId=a0b7c245-2e46-4983-bf8f-29c553c03130","239D1C9FCB9541B9B379719A2399130A-2024-11-18-20-26-51","","1634","","images/schematic_sequence/dinner_party_scheme/dinner_party_scheme_6.png","0","",""
"","","","","","image-button-response","138","1435825","0.0-16.0-1.0-2.5","239D1C9FCB9541B9B379719A2399130A","239D1C9FCB9541B9B379719A2399130A","d4e2a9fd-6bd5-49de-88b7-1eb9c8ab4d91","a0b7c245-2e46-4983-bf8f-29c553c03130","{""participantId"":""239D1C9FCB9541B9B379719A2399130A"",""assignmentId"":""d4e2a9fd-6bd5-49de-88b7-1eb9c8ab4d91"",""projectId"":""a0b7c245-2e46-4983-bf8f-29c553c03130""}","https://test12345.live/?participantId=239D1C9FCB9541B9B379719A2399130A&assignmentId=d4e2a9fd-6bd5-49de-88b7-1eb9c8ab4d91&projectId=a0b7c245-2e46-4983-bf8f-29c553c03130","239D1C9FCB9541B9B379719A2399130A-2024-11-18-20-26-51","","null","","[]","null","",""
"","","","","","image-button-response","139","1440329","0.0-16.0-1.0-0.6","239D1C9FCB9541B9B379719A2399130A","239D1C9FCB9541B9B379719A2399130A","d4e2a9fd-6bd5-49de-88b7-1eb9c8ab4d91","a0b7c245-2e46-4983-bf8f-29c553c03130","{""participantId"":""239D1C9FCB9541B9B379719A2399130A"",""assignmentId"":""d4e2a9fd-6bd5-49de-88b7-1eb9c8ab4d91"",""projectId"":""a0b7c245-2e46-4983-bf8f-29c553c03130""}","https://test12345.live/?participantId=239D1C9FCB9541B9B379719A2399130A&assignmentId=d4e2a9fd-6bd5-49de-88b7-1eb9c8ab4d91&projectId=a0b7c245-2e46-4983-bf8f-29c553c03130","239D1C9FCB9541B9B379719A2399130A-2024-11-18-20-26-51","","null","","images/schematic_sequence/dinner_party_scheme/dinner_party_scheme_7.png","null","",""
"","","","","","image-button-response","140","1441352","0.0-16.0-1.0-1.6","239D1C9FCB9541B9B379719A2399130A","239D1C9FCB9541B9B379719A2399130A","d4e2a9fd-6bd5-49de-88b7-1eb9c8ab4d91","a0b7c245-2e46-4983-bf8f-29c553c03130","{""participantId"":""239D1C9FCB9541B9B379719A2399130A"",""assignmentId"":""d4e2a9fd-6bd5-49de-88b7-1eb9c8ab4d91"",""projectId"":""a0b7c245-2e46-4983-bf8f-29c553c03130""}","https://test12345.live/?participantId=239D1C9FCB9541B9B379719A2399130A&assignmentId=d4e2a9fd-6bd5-49de-88b7-1eb9c8ab4d91&projectId=a0b7c245-2e46-4983-bf8f-29c553c03130","239D1C9FCB9541B9B379719A2399130A-2024-11-18-20-26-51","","1021","","images/schematic_sequence/dinner_party_scheme/dinner_party_scheme_7.png","0","",""
"","","","","","image-button-response","141","1443155","0.0-16.0-1.0-2.6","239D1C9FCB9541B9B379719A2399130A","239D1C9FCB9541B9B379719A2399130A","d4e2a9fd-6bd5-49de-88b7-1eb9c8ab4d91","a0b7c245-2e46-4983-bf8f-29c553c03130","{""participantId"":""239D1C9FCB9541B9B379719A2399130A"",""assignmentId"":""d4e2a9fd-6bd5-49de-88b7-1eb9c8ab4d91"",""projectId"":""a0b7c245-2e46-4983-bf8f-29c553c03130""}","https://test12345.live/?participantId=239D1C9FCB9541B9B379719A2399130A&assignmentId=d4e2a9fd-6bd5-49de-88b7-1eb9c8ab4d91&projectId=a0b7c245-2e46-4983-bf8f-29c553c03130","239D1C9FCB9541B9B379719A2399130A-2024-11-18-20-26-51","","null","","[]","null","",""
"","","","","","image-button-response","142","1447672","0.0-16.0-1.0-0.7","239D1C9FCB9541B9B379719A2399130A","239D1C9FCB9541B9B379719A2399130A","d4e2a9fd-6bd5-49de-88b7-1eb9c8ab4d91","a0b7c245-2e46-4983-bf8f-29c553c03130","{""participantId"":""239D1C9FCB9541B9B379719A2399130A"",""assignmentId"":""d4e2a9fd-6bd5-49de-88b7-1eb9c8ab4d91"",""projectId"":""a0b7c245-2e46-4983-bf8f-29c553c03130""}","https://test12345.live/?participantId=239D1C9FCB9541B9B379719A2399130A&assignmentId=d4e2a9fd-6bd5-49de-88b7-1eb9c8ab4d91&projectId=a0b7c245-2e46-4983-bf8f-29c553c03130","239D1C9FCB9541B9B379719A2399130A-2024-11-18-20-26-51","","null","","images/schematic_sequence/dinner_party_scheme/dinner_party_scheme_8.png","null","",""
"","","","","","image-button-response","143","1448854","0.0-16.0-1.0-1.7","239D1C9FCB9541B9B379719A2399130A","239D1C9FCB9541B9B379719A2399130A","d4e2a9fd-6bd5-49de-88b7-1eb9c8ab4d91","a0b7c245-2e46-4983-bf8f-29c553c03130","{""participantId"":""239D1C9FCB9541B9B379719A2399130A"",""assignmentId"":""d4e2a9fd-6bd5-49de-88b7-1eb9c8ab4d91"",""projectId"":""a0b7c245-2e46-4983-bf8f-29c553c03130""}","https://test12345.live/?participantId=239D1C9FCB9541B9B379719A2399130A&assignmentId=d4e2a9fd-6bd5-49de-88b7-1eb9c8ab4d91&projectId=a0b7c245-2e46-4983-bf8f-29c553c03130","239D1C9FCB9541B9B379719A2399130A-2024-11-18-20-26-51","","1180","","images/schematic_sequence/dinner_party_scheme/dinner_party_scheme_8.png","0","",""
