"success","timeout","failed_images","failed_audio","failed_video","trial_type","trial_index","time_elapsed","internal_node_id","subject","subject_id","study_id","session_id","urlvar","current_url","audio_id","view_history","rt","device_id","stimulus","response","estimated_stimulus_onset","seq_name"
"true","false","[]","[]","[]","preload","0","23457","0.0-0.0","23E67C9D42D94C8C9EFE0C5C4F68E25E","23E67C9D42D94C8C9EFE0C5C4F68E25E","8975c1a8-2cb9-4878-9a42-aaf02e9fe0be","ba640c14-69c5-453e-80b2-29051492c0e0","{""num_scrambled_semantic"":""8"",""num_scrambled_causal"":""4"",""num_scrambled_schematic"":""4"",""participantId"":""23E67C9D42D94C8C9EFE0C5C4F68E25E"",""assignmentId"":""8975c1a8-2cb9-4878-9a42-aaf02e9fe0be"",""projectId"":""ba640c14-69c5-453e-80b2-29051492c0e0""}","https://test12345.live/?num_scrambled_semantic=8&num_scrambled_causal=4&num_scrambled_schematic=4&participantId=23E67C9D42D94C8C9EFE0C5C4F68E25E&assignmentId=8975c1a8-2cb9-4878-9a42-aaf02e9fe0be&projectId=ba640c14-69c5-453e-80b2-29051492c0e0","23E67C9D42D94C8C9EFE0C5C4F68E25E-2025-05-14-21-05-31","","","","","","",""
"","","","","","instructions","1","80832","0.0-1.0","23E67C9D42D94C8C9EFE0C5C4F68E25E","23E67C9D42D94C8C9EFE0C5C4F68E25E","8975c1a8-2cb9-4878-9a42-aaf02e9fe0be","ba640c14-69c5-453e-80b2-29051492c0e0","{""num_scrambled_semantic"":""8"",""num_scrambled_causal"":""4"",""num_scrambled_schematic"":""4"",""participantId"":""23E67C9D42D94C8C9EFE0C5C4F68E25E"",""assignmentId"":""8975c1a8-2cb9-4878-9a42-aaf02e9fe0be"",""projectId"":""ba640c14-69c5-453e-80b2-29051492c0e0""}","https://test12345.live/?num_scrambled_semantic=8&num_scrambled_causal=4&num_scrambled_schematic=4&participantId=23E67C9D42D94C8C9EFE0C5C4F68E25E&assignmentId=8975c1a8-2cb9-4878-9a42-aaf02e9fe0be&projectId=ba640c14-69c5-453e-80b2-29051492c0e0","23E67C9D42D94C8C9EFE0C5C4F68E25E-2025-05-14-21-05-31","[{""page_index"":0,""viewing_time"":57373}]","57373","","","","",""
"","","","","","instructions","2","129710","0.0-2.0","23E67C9D42D94C8C9EFE0C5C4F68E25E","23E67C9D42D94C8C9EFE0C5C4F68E25E","8975c1a8-2cb9-4878-9a42-aaf02e9fe0be","ba640c14-69c5-453e-80b2-29051492c0e0","{""num_scrambled_semantic"":""8"",""num_scrambled_causal"":""4"",""num_scrambled_schematic"":""4"",""participantId"":""23E67C9D42D94C8C9EFE0C5C4F68E25E"",""assignmentId"":""8975c1a8-2cb9-4878-9a42-aaf02e9fe0be"",""projectId"":""ba640c14-69c5-453e-80b2-29051492c0e0""}","https://test12345.live/?num_scrambled_semantic=8&num_scrambled_causal=4&num_scrambled_schematic=4&participantId=23E67C9D42D94C8C9EFE0C5C4F68E25E&assignmentId=8975c1a8-2cb9-4878-9a42-aaf02e9fe0be&projectId=ba640c14-69c5-453e-80b2-29051492c0e0","23E67C9D42D94C8C9EFE0C5C4F68E25E-2025-05-14-21-05-31","[{""page_index"":0,""viewing_time"":48877}]","48877","","","","",""
"true","","","","","fullscreen","3","133830","0.0-3.0","23E67C9D42D94C8C9EFE0C5C4F68E25E","23E67C9D42D94C8C9EFE0C5C4F68E25E","8975c1a8-2cb9-4878-9a42-aaf02e9fe0be","ba640c14-69c5-453e-80b2-29051492c0e0","{""num_scrambled_semantic"":""8"",""num_scrambled_causal"":""4"",""num_scrambled_schematic"":""4"",""participantId"":""23E67C9D42D94C8C9EFE0C5C4F68E25E"",""assignmentId"":""8975c1a8-2cb9-4878-9a42-aaf02e9fe0be"",""projectId"":""ba640c14-69c5-453e-80b2-29051492c0e0""}","https://test12345.live/?num_scrambled_semantic=8&num_scrambled_causal=4&num_scrambled_schematic=4&participantId=23E67C9D42D94C8C9EFE0C5C4F68E25E&assignmentId=8975c1a8-2cb9-4878-9a42-aaf02e9fe0be&projectId=ba640c14-69c5-453e-80b2-29051492c0e0","23E67C9D42D94C8C9EFE0C5C4F68E25E-2025-05-14-21-05-31","","3110","","","","",""
"","","","","","initialize-microphone","4","146581","0.0-4.0-0.0","23E67C9D42D94C8C9EFE0C5C4F68E25E","23E67C9D42D94C8C9EFE0C5C4F68E25E","8975c1a8-2cb9-4878-9a42-aaf02e9fe0be","ba640c14-69c5-453e-80b2-29051492c0e0","{""num_scrambled_semantic"":""8"",""num_scrambled_causal"":""4"",""num_scrambled_schematic"":""4"",""participantId"":""23E67C9D42D94C8C9EFE0C5C4F68E25E"",""assignmentId"":""8975c1a8-2cb9-4878-9a42-aaf02e9fe0be"",""projectId"":""ba640c14-69c5-453e-80b2-29051492c0e0""}","https://test12345.live/?num_scrambled_semantic=8&num_scrambled_causal=4&num_scrambled_schematic=4&participantId=23E67C9D42D94C8C9EFE0C5C4F68E25E&assignmentId=8975c1a8-2cb9-4878-9a42-aaf02e9fe0be&projectId=ba640c14-69c5-453e-80b2-29051492c0e0","23E67C9D42D94C8C9EFE0C5C4F68E25E-2025-05-14-21-05-31","","","pFFyUxRJ776N6DIb1dp2J6Y0N7VdcW9OS7epJNYhCas=","","","",""
"","","","","","html-audio-response","5","212744","0.0-4.0-1.0","23E67C9D42D94C8C9EFE0C5C4F68E25E","23E67C9D42D94C8C9EFE0C5C4F68E25E","8975c1a8-2cb9-4878-9a42-aaf02e9fe0be","ba640c14-69c5-453e-80b2-29051492c0e0","{""num_scrambled_semantic"":""8"",""num_scrambled_causal"":""4"",""num_scrambled_schematic"":""4"",""participantId"":""23E67C9D42D94C8C9EFE0C5C4F68E25E"",""assignmentId"":""8975c1a8-2cb9-4878-9a42-aaf02e9fe0be"",""projectId"":""ba640c14-69c5-453e-80b2-29051492c0e0""}","https://test12345.live/?num_scrambled_semantic=8&num_scrambled_causal=4&num_scrambled_schematic=4&participantId=23E67C9D42D94C8C9EFE0C5C4F68E25E&assignmentId=8975c1a8-2cb9-4878-9a42-aaf02e9fe0be&projectId=ba640c14-69c5-453e-80b2-29051492c0e0","23E67C9D42D94C8C9EFE0C5C4F68E25E-2025-05-14-21-05-31","","2422","","<span style=""color: red; font-size: 24px""> NOW RECORDING</span>
        <p>Please test Microphone</p>","","2",""
"","","","","","html-button-response","6","215173","0.0-4.0-2.0","23E67C9D42D94C8C9EFE0C5C4F68E25E","23E67C9D42D94C8C9EFE0C5C4F68E25E","8975c1a8-2cb9-4878-9a42-aaf02e9fe0be","ba640c14-69c5-453e-80b2-29051492c0e0","{""num_scrambled_semantic"":""8"",""num_scrambled_causal"":""4"",""num_scrambled_schematic"":""4"",""participantId"":""23E67C9D42D94C8C9EFE0C5C4F68E25E"",""assignmentId"":""8975c1a8-2cb9-4878-9a42-aaf02e9fe0be"",""projectId"":""ba640c14-69c5-453e-80b2-29051492c0e0""}","https://test12345.live/?num_scrambled_semantic=8&num_scrambled_causal=4&num_scrambled_schematic=4&participantId=23E67C9D42D94C8C9EFE0C5C4F68E25E&assignmentId=8975c1a8-2cb9-4878-9a42-aaf02e9fe0be&projectId=ba640c14-69c5-453e-80b2-29051492c0e0","23E67C9D42D94C8C9EFE0C5C4F68E25E-2025-05-14-21-05-31","","2428","","<p style=""font-size:48px; color:red;"">Is Microphone OK?</p>","1","",""
"","","","","","instructions","7","246050","0.0-5.0","23E67C9D42D94C8C9EFE0C5C4F68E25E","23E67C9D42D94C8C9EFE0C5C4F68E25E","8975c1a8-2cb9-4878-9a42-aaf02e9fe0be","ba640c14-69c5-453e-80b2-29051492c0e0","{""num_scrambled_semantic"":""8"",""num_scrambled_causal"":""4"",""num_scrambled_schematic"":""4"",""participantId"":""23E67C9D42D94C8C9EFE0C5C4F68E25E"",""assignmentId"":""8975c1a8-2cb9-4878-9a42-aaf02e9fe0be"",""projectId"":""ba640c14-69c5-453e-80b2-29051492c0e0""}","https://test12345.live/?num_scrambled_semantic=8&num_scrambled_causal=4&num_scrambled_schematic=4&participantId=23E67C9D42D94C8C9EFE0C5C4F68E25E&assignmentId=8975c1a8-2cb9-4878-9a42-aaf02e9fe0be&projectId=ba640c14-69c5-453e-80b2-29051492c0e0","23E67C9D42D94C8C9EFE0C5C4F68E25E-2025-05-14-21-05-31","[{""page_index"":0,""viewing_time"":10629},{""page_index"":1,""viewing_time"":20246}]","30875","","","","",""
"","","","","","image-button-response","8","252051","0.0-6.0-0.0","23E67C9D42D94C8C9EFE0C5C4F68E25E","23E67C9D42D94C8C9EFE0C5C4F68E25E","8975c1a8-2cb9-4878-9a42-aaf02e9fe0be","ba640c14-69c5-453e-80b2-29051492c0e0","{""num_scrambled_semantic"":""8"",""num_scrambled_causal"":""4"",""num_scrambled_schematic"":""4"",""participantId"":""23E67C9D42D94C8C9EFE0C5C4F68E25E"",""assignmentId"":""8975c1a8-2cb9-4878-9a42-aaf02e9fe0be"",""projectId"":""ba640c14-69c5-453e-80b2-29051492c0e0""}","https://test12345.live/?num_scrambled_semantic=8&num_scrambled_causal=4&num_scrambled_schematic=4&participantId=23E67C9D42D94C8C9EFE0C5C4F68E25E&assignmentId=8975c1a8-2cb9-4878-9a42-aaf02e9fe0be&projectId=ba640c14-69c5-453e-80b2-29051492c0e0","23E67C9D42D94C8C9EFE0C5C4F68E25E-2025-05-14-21-05-31","","null","","images/instructions/movie_0.png","null","",""
"","","","","","image-button-response","9","256553","0.0-6.0-1.0-0.0","23E67C9D42D94C8C9EFE0C5C4F68E25E","23E67C9D42D94C8C9EFE0C5C4F68E25E","8975c1a8-2cb9-4878-9a42-aaf02e9fe0be","ba640c14-69c5-453e-80b2-29051492c0e0","{""num_scrambled_semantic"":""8"",""num_scrambled_causal"":""4"",""num_scrambled_schematic"":""4"",""participantId"":""23E67C9D42D94C8C9EFE0C5C4F68E25E"",""assignmentId"":""8975c1a8-2cb9-4878-9a42-aaf02e9fe0be"",""projectId"":""ba640c14-69c5-453e-80b2-29051492c0e0""}","https://test12345.live/?num_scrambled_semantic=8&num_scrambled_causal=4&num_scrambled_schematic=4&participantId=23E67C9D42D94C8C9EFE0C5C4F68E25E&assignmentId=8975c1a8-2cb9-4878-9a42-aaf02e9fe0be&projectId=ba640c14-69c5-453e-80b2-29051492c0e0","23E67C9D42D94C8C9EFE0C5C4F68E25E-2025-05-14-21-05-31","","null","","images/instructions/movie_1.png","null","",""
"","","","","","image-button-response","10","259134","0.0-6.0-1.0-1.0","23E67C9D42D94C8C9EFE0C5C4F68E25E","23E67C9D42D94C8C9EFE0C5C4F68E25E","8975c1a8-2cb9-4878-9a42-aaf02e9fe0be","ba640c14-69c5-453e-80b2-29051492c0e0","{""num_scrambled_semantic"":""8"",""num_scrambled_causal"":""4"",""num_scrambled_schematic"":""4"",""participantId"":""23E67C9D42D94C8C9EFE0C5C4F68E25E"",""assignmentId"":""8975c1a8-2cb9-4878-9a42-aaf02e9fe0be"",""projectId"":""ba640c14-69c5-453e-80b2-29051492c0e0""}","https://test12345.live/?num_scrambled_semantic=8&num_scrambled_causal=4&num_scrambled_schematic=4&participantId=23E67C9D42D94C8C9EFE0C5C4F68E25E&assignmentId=8975c1a8-2cb9-4878-9a42-aaf02e9fe0be&projectId=ba640c14-69c5-453e-80b2-29051492c0e0","23E67C9D42D94C8C9EFE0C5C4F68E25E-2025-05-14-21-05-31","","2579","","images/instructions/movie_1.png","0","",""
"","","","","","image-button-response","11","260935","0.0-6.0-1.0-2.0","23E67C9D42D94C8C9EFE0C5C4F68E25E","23E67C9D42D94C8C9EFE0C5C4F68E25E","8975c1a8-2cb9-4878-9a42-aaf02e9fe0be","ba640c14-69c5-453e-80b2-29051492c0e0","{""num_scrambled_semantic"":""8"",""num_scrambled_causal"":""4"",""num_scrambled_schematic"":""4"",""participantId"":""23E67C9D42D94C8C9EFE0C5C4F68E25E"",""assignmentId"":""8975c1a8-2cb9-4878-9a42-aaf02e9fe0be"",""projectId"":""ba640c14-69c5-453e-80b2-29051492c0e0""}","https://test12345.live/?num_scrambled_semantic=8&num_scrambled_causal=4&num_scrambled_schematic=4&participantId=23E67C9D42D94C8C9EFE0C5C4F68E25E&assignmentId=8975c1a8-2cb9-4878-9a42-aaf02e9fe0be&projectId=ba640c14-69c5-453e-80b2-29051492c0e0","23E67C9D42D94C8C9EFE0C5C4F68E25E-2025-05-14-21-05-31","","null","","[]","null","",""
"","","","","","image-button-response","12","265437","0.0-6.0-1.0-0.1","23E67C9D42D94C8C9EFE0C5C4F68E25E","23E67C9D42D94C8C9EFE0C5C4F68E25E","8975c1a8-2cb9-4878-9a42-aaf02e9fe0be","ba640c14-69c5-453e-80b2-29051492c0e0","{""num_scrambled_semantic"":""8"",""num_scrambled_causal"":""4"",""num_scrambled_schematic"":""4"",""participantId"":""23E67C9D42D94C8C9EFE0C5C4F68E25E"",""assignmentId"":""8975c1a8-2cb9-4878-9a42-aaf02e9fe0be"",""projectId"":""ba640c14-69c5-453e-80b2-29051492c0e0""}","https://test12345.live/?num_scrambled_semantic=8&num_scrambled_causal=4&num_scrambled_schematic=4&participantId=23E67C9D42D94C8C9EFE0C5C4F68E25E&assignmentId=8975c1a8-2cb9-4878-9a42-aaf02e9fe0be&projectId=ba640c14-69c5-453e-80b2-29051492c0e0","23E67C9D42D94C8C9EFE0C5C4F68E25E-2025-05-14-21-05-31","","null","","images/instructions/movie_2.png","null","",""
"","","","","","image-button-response","13","269360","0.0-6.0-1.0-1.1","23E67C9D42D94C8C9EFE0C5C4F68E25E","23E67C9D42D94C8C9EFE0C5C4F68E25E","8975c1a8-2cb9-4878-9a42-aaf02e9fe0be","ba640c14-69c5-453e-80b2-29051492c0e0","{""num_scrambled_semantic"":""8"",""num_scrambled_causal"":""4"",""num_scrambled_schematic"":""4"",""participantId"":""23E67C9D42D94C8C9EFE0C5C4F68E25E"",""assignmentId"":""8975c1a8-2cb9-4878-9a42-aaf02e9fe0be"",""projectId"":""ba640c14-69c5-453e-80b2-29051492c0e0""}","https://test12345.live/?num_scrambled_semantic=8&num_scrambled_causal=4&num_scrambled_schematic=4&participantId=23E67C9D42D94C8C9EFE0C5C4F68E25E&assignmentId=8975c1a8-2cb9-4878-9a42-aaf02e9fe0be&projectId=ba640c14-69c5-453e-80b2-29051492c0e0","23E67C9D42D94C8C9EFE0C5C4F68E25E-2025-05-14-21-05-31","","3922","","images/instructions/movie_2.png","0","",""
"","","","","","image-button-response","14","271161","0.0-6.0-1.0-2.1","23E67C9D42D94C8C9EFE0C5C4F68E25E","23E67C9D42D94C8C9EFE0C5C4F68E25E","8975c1a8-2cb9-4878-9a42-aaf02e9fe0be","ba640c14-69c5-453e-80b2-29051492c0e0","{""num_scrambled_semantic"":""8"",""num_scrambled_causal"":""4"",""num_scrambled_schematic"":""4"",""participantId"":""23E67C9D42D94C8C9EFE0C5C4F68E25E"",""assignmentId"":""8975c1a8-2cb9-4878-9a42-aaf02e9fe0be"",""projectId"":""ba640c14-69c5-453e-80b2-29051492c0e0""}","https://test12345.live/?num_scrambled_semantic=8&num_scrambled_causal=4&num_scrambled_schematic=4&participantId=23E67C9D42D94C8C9EFE0C5C4F68E25E&assignmentId=8975c1a8-2cb9-4878-9a42-aaf02e9fe0be&projectId=ba640c14-69c5-453e-80b2-29051492c0e0","23E67C9D42D94C8C9EFE0C5C4F68E25E-2025-05-14-21-05-31","","null","","[]","null","",""
"","","","","","image-button-response","15","275664","0.0-6.0-1.0-0.2","23E67C9D42D94C8C9EFE0C5C4F68E25E","23E67C9D42D94C8C9EFE0C5C4F68E25E","8975c1a8-2cb9-4878-9a42-aaf02e9fe0be","ba640c14-69c5-453e-80b2-29051492c0e0","{""num_scrambled_semantic"":""8"",""num_scrambled_causal"":""4"",""num_scrambled_schematic"":""4"",""participantId"":""23E67C9D42D94C8C9EFE0C5C4F68E25E"",""assignmentId"":""8975c1a8-2cb9-4878-9a42-aaf02e9fe0be"",""projectId"":""ba640c14-69c5-453e-80b2-29051492c0e0""}","https://test12345.live/?num_scrambled_semantic=8&num_scrambled_causal=4&num_scrambled_schematic=4&participantId=23E67C9D42D94C8C9EFE0C5C4F68E25E&assignmentId=8975c1a8-2cb9-4878-9a42-aaf02e9fe0be&projectId=ba640c14-69c5-453e-80b2-29051492c0e0","23E67C9D42D94C8C9EFE0C5C4F68E25E-2025-05-14-21-05-31","","null","","images/instructions/movie_3.png","null","",""
"","","","","","image-button-response","16","277432","0.0-6.0-1.0-1.2","23E67C9D42D94C8C9EFE0C5C4F68E25E","23E67C9D42D94C8C9EFE0C5C4F68E25E","8975c1a8-2cb9-4878-9a42-aaf02e9fe0be","ba640c14-69c5-453e-80b2-29051492c0e0","{""num_scrambled_semantic"":""8"",""num_scrambled_causal"":""4"",""num_scrambled_schematic"":""4"",""participantId"":""23E67C9D42D94C8C9EFE0C5C4F68E25E"",""assignmentId"":""8975c1a8-2cb9-4878-9a42-aaf02e9fe0be"",""projectId"":""ba640c14-69c5-453e-80b2-29051492c0e0""}","https://test12345.live/?num_scrambled_semantic=8&num_scrambled_causal=4&num_scrambled_schematic=4&participantId=23E67C9D42D94C8C9EFE0C5C4F68E25E&assignmentId=8975c1a8-2cb9-4878-9a42-aaf02e9fe0be&projectId=ba640c14-69c5-453e-80b2-29051492c0e0","23E67C9D42D94C8C9EFE0C5C4F68E25E-2025-05-14-21-05-31","","1768","","images/instructions/movie_3.png","0","",""
"","","","","","image-button-response","17","279234","0.0-6.0-1.0-2.2","23E67C9D42D94C8C9EFE0C5C4F68E25E","23E67C9D42D94C8C9EFE0C5C4F68E25E","8975c1a8-2cb9-4878-9a42-aaf02e9fe0be","ba640c14-69c5-453e-80b2-29051492c0e0","{""num_scrambled_semantic"":""8"",""num_scrambled_causal"":""4"",""num_scrambled_schematic"":""4"",""participantId"":""23E67C9D42D94C8C9EFE0C5C4F68E25E"",""assignmentId"":""8975c1a8-2cb9-4878-9a42-aaf02e9fe0be"",""projectId"":""ba640c14-69c5-453e-80b2-29051492c0e0""}","https://test12345.live/?num_scrambled_semantic=8&num_scrambled_causal=4&num_scrambled_schematic=4&participantId=23E67C9D42D94C8C9EFE0C5C4F68E25E&assignmentId=8975c1a8-2cb9-4878-9a42-aaf02e9fe0be&projectId=ba640c14-69c5-453e-80b2-29051492c0e0","23E67C9D42D94C8C9EFE0C5C4F68E25E-2025-05-14-21-05-31","","null","","[]","null","",""
"","","","","","image-button-response","18","283734","0.0-6.0-1.0-0.3","23E67C9D42D94C8C9EFE0C5C4F68E25E","23E67C9D42D94C8C9EFE0C5C4F68E25E","8975c1a8-2cb9-4878-9a42-aaf02e9fe0be","ba640c14-69c5-453e-80b2-29051492c0e0","{""num_scrambled_semantic"":""8"",""num_scrambled_causal"":""4"",""num_scrambled_schematic"":""4"",""participantId"":""23E67C9D42D94C8C9EFE0C5C4F68E25E"",""assignmentId"":""8975c1a8-2cb9-4878-9a42-aaf02e9fe0be"",""projectId"":""ba640c14-69c5-453e-80b2-29051492c0e0""}","https://test12345.live/?num_scrambled_semantic=8&num_scrambled_causal=4&num_scrambled_schematic=4&participantId=23E67C9D42D94C8C9EFE0C5C4F68E25E&assignmentId=8975c1a8-2cb9-4878-9a42-aaf02e9fe0be&projectId=ba640c14-69c5-453e-80b2-29051492c0e0","23E67C9D42D94C8C9EFE0C5C4F68E25E-2025-05-14-21-05-31","","null","","images/instructions/movie_4.png","null","",""
"","","","","","image-button-response","19","285595","0.0-6.0-1.0-1.3","23E67C9D42D94C8C9EFE0C5C4F68E25E","23E67C9D42D94C8C9EFE0C5C4F68E25E","8975c1a8-2cb9-4878-9a42-aaf02e9fe0be","ba640c14-69c5-453e-80b2-29051492c0e0","{""num_scrambled_semantic"":""8"",""num_scrambled_causal"":""4"",""num_scrambled_schematic"":""4"",""participantId"":""23E67C9D42D94C8C9EFE0C5C4F68E25E"",""assignmentId"":""8975c1a8-2cb9-4878-9a42-aaf02e9fe0be"",""projectId"":""ba640c14-69c5-453e-80b2-29051492c0e0""}","https://test12345.live/?num_scrambled_semantic=8&num_scrambled_causal=4&num_scrambled_schematic=4&participantId=23E67C9D42D94C8C9EFE0C5C4F68E25E&assignmentId=8975c1a8-2cb9-4878-9a42-aaf02e9fe0be&projectId=ba640c14-69c5-453e-80b2-29051492c0e0","23E67C9D42D94C8C9EFE0C5C4F68E25E-2025-05-14-21-05-31","","1859","","images/instructions/movie_4.png","0","",""
"","","","","","image-button-response","20","287396","0.0-6.0-1.0-2.3","23E67C9D42D94C8C9EFE0C5C4F68E25E","23E67C9D42D94C8C9EFE0C5C4F68E25E","8975c1a8-2cb9-4878-9a42-aaf02e9fe0be","ba640c14-69c5-453e-80b2-29051492c0e0","{""num_scrambled_semantic"":""8"",""num_scrambled_causal"":""4"",""num_scrambled_schematic"":""4"",""participantId"":""23E67C9D42D94C8C9EFE0C5C4F68E25E"",""assignmentId"":""8975c1a8-2cb9-4878-9a42-aaf02e9fe0be"",""projectId"":""ba640c14-69c5-453e-80b2-29051492c0e0""}","https://test12345.live/?num_scrambled_semantic=8&num_scrambled_causal=4&num_scrambled_schematic=4&participantId=23E67C9D42D94C8C9EFE0C5C4F68E25E&assignmentId=8975c1a8-2cb9-4878-9a42-aaf02e9fe0be&projectId=ba640c14-69c5-453e-80b2-29051492c0e0","23E67C9D42D94C8C9EFE0C5C4F68E25E-2025-05-14-21-05-31","","null","","[]","null","",""
"","","","","","instructions","21","301095","0.0-7.0","23E67C9D42D94C8C9EFE0C5C4F68E25E","23E67C9D42D94C8C9EFE0C5C4F68E25E","8975c1a8-2cb9-4878-9a42-aaf02e9fe0be","ba640c14-69c5-453e-80b2-29051492c0e0","{""num_scrambled_semantic"":""8"",""num_scrambled_causal"":""4"",""num_scrambled_schematic"":""4"",""participantId"":""23E67C9D42D94C8C9EFE0C5C4F68E25E"",""assignmentId"":""8975c1a8-2cb9-4878-9a42-aaf02e9fe0be"",""projectId"":""ba640c14-69c5-453e-80b2-29051492c0e0""}","https://test12345.live/?num_scrambled_semantic=8&num_scrambled_causal=4&num_scrambled_schematic=4&participantId=23E67C9D42D94C8C9EFE0C5C4F68E25E&assignmentId=8975c1a8-2cb9-4878-9a42-aaf02e9fe0be&projectId=ba640c14-69c5-453e-80b2-29051492c0e0","23E67C9D42D94C8C9EFE0C5C4F68E25E-2025-05-14-21-05-31","[{""page_index"":0,""viewing_time"":12452},{""page_index"":1,""viewing_time"":1247}]","13700","","","","",""
"","","","","","html-audio-response","22","396586","0.0-8.0","23E67C9D42D94C8C9EFE0C5C4F68E25E","23E67C9D42D94C8C9EFE0C5C4F68E25E","8975c1a8-2cb9-4878-9a42-aaf02e9fe0be","ba640c14-69c5-453e-80b2-29051492c0e0","{""num_scrambled_semantic"":""8"",""num_scrambled_causal"":""4"",""num_scrambled_schematic"":""4"",""participantId"":""23E67C9D42D94C8C9EFE0C5C4F68E25E"",""assignmentId"":""8975c1a8-2cb9-4878-9a42-aaf02e9fe0be"",""projectId"":""ba640c14-69c5-453e-80b2-29051492c0e0""}","https://test12345.live/?num_scrambled_semantic=8&num_scrambled_causal=4&num_scrambled_schematic=4&participantId=23E67C9D42D94C8C9EFE0C5C4F68E25E&assignmentId=8975c1a8-2cb9-4878-9a42-aaf02e9fe0be&projectId=ba640c14-69c5-453e-80b2-29051492c0e0","23E67C9D42D94C8C9EFE0C5C4F68E25E-2025-05-14-21-05-31","","7097","","[""<span style=\""color: red; font-size: 24px\""> NOW RECORDING</span><p>Please say out loud all the images you saw, as many as you can remember. The images can be said in any order.</p>""]","","1",""
"","","","","","instructions","23","398219","0.0-9.0","23E67C9D42D94C8C9EFE0C5C4F68E25E","23E67C9D42D94C8C9EFE0C5C4F68E25E","8975c1a8-2cb9-4878-9a42-aaf02e9fe0be","ba640c14-69c5-453e-80b2-29051492c0e0","{""num_scrambled_semantic"":""8"",""num_scrambled_causal"":""4"",""num_scrambled_schematic"":""4"",""participantId"":""23E67C9D42D94C8C9EFE0C5C4F68E25E"",""assignmentId"":""8975c1a8-2cb9-4878-9a42-aaf02e9fe0be"",""projectId"":""ba640c14-69c5-453e-80b2-29051492c0e0""}","https://test12345.live/?num_scrambled_semantic=8&num_scrambled_causal=4&num_scrambled_schematic=4&participantId=23E67C9D42D94C8C9EFE0C5C4F68E25E&assignmentId=8975c1a8-2cb9-4878-9a42-aaf02e9fe0be&projectId=ba640c14-69c5-453e-80b2-29051492c0e0","23E67C9D42D94C8C9EFE0C5C4F68E25E-2025-05-14-21-05-31","[{""page_index"":0,""viewing_time"":1629}]","1629","","","","",""
"","","","","","image-button-response","24","404221","0.0-10.0-0.0","23E67C9D42D94C8C9EFE0C5C4F68E25E","23E67C9D42D94C8C9EFE0C5C4F68E25E","8975c1a8-2cb9-4878-9a42-aaf02e9fe0be","ba640c14-69c5-453e-80b2-29051492c0e0","{""num_scrambled_semantic"":""8"",""num_scrambled_causal"":""4"",""num_scrambled_schematic"":""4"",""participantId"":""23E67C9D42D94C8C9EFE0C5C4F68E25E"",""assignmentId"":""8975c1a8-2cb9-4878-9a42-aaf02e9fe0be"",""projectId"":""ba640c14-69c5-453e-80b2-29051492c0e0""}","https://test12345.live/?num_scrambled_semantic=8&num_scrambled_causal=4&num_scrambled_schematic=4&participantId=23E67C9D42D94C8C9EFE0C5C4F68E25E&assignmentId=8975c1a8-2cb9-4878-9a42-aaf02e9fe0be&projectId=ba640c14-69c5-453e-80b2-29051492c0e0","23E67C9D42D94C8C9EFE0C5C4F68E25E-2025-05-14-21-05-31","","null","","images/semantic_sequence/physical_activity_semantic/physical_activity_semantic_0.png","null","",""
"","","","","","image-button-response","25","408722","0.0-10.0-1.0-0.0","23E67C9D42D94C8C9EFE0C5C4F68E25E","23E67C9D42D94C8C9EFE0C5C4F68E25E","8975c1a8-2cb9-4878-9a42-aaf02e9fe0be","ba640c14-69c5-453e-80b2-29051492c0e0","{""num_scrambled_semantic"":""8"",""num_scrambled_causal"":""4"",""num_scrambled_schematic"":""4"",""participantId"":""23E67C9D42D94C8C9EFE0C5C4F68E25E"",""assignmentId"":""8975c1a8-2cb9-4878-9a42-aaf02e9fe0be"",""projectId"":""ba640c14-69c5-453e-80b2-29051492c0e0""}","https://test12345.live/?num_scrambled_semantic=8&num_scrambled_causal=4&num_scrambled_schematic=4&participantId=23E67C9D42D94C8C9EFE0C5C4F68E25E&assignmentId=8975c1a8-2cb9-4878-9a42-aaf02e9fe0be&projectId=ba640c14-69c5-453e-80b2-29051492c0e0","23E67C9D42D94C8C9EFE0C5C4F68E25E-2025-05-14-21-05-31","","null","","images/semantic_sequence/physical_activity_semantic/physical_activity_semantic_9.png","null","",""
"","","","","","image-button-response","26","410710","0.0-10.0-1.0-1.0","23E67C9D42D94C8C9EFE0C5C4F68E25E","23E67C9D42D94C8C9EFE0C5C4F68E25E","8975c1a8-2cb9-4878-9a42-aaf02e9fe0be","ba640c14-69c5-453e-80b2-29051492c0e0","{""num_scrambled_semantic"":""8"",""num_scrambled_causal"":""4"",""num_scrambled_schematic"":""4"",""participantId"":""23E67C9D42D94C8C9EFE0C5C4F68E25E"",""assignmentId"":""8975c1a8-2cb9-4878-9a42-aaf02e9fe0be"",""projectId"":""ba640c14-69c5-453e-80b2-29051492c0e0""}","https://test12345.live/?num_scrambled_semantic=8&num_scrambled_causal=4&num_scrambled_schematic=4&participantId=23E67C9D42D94C8C9EFE0C5C4F68E25E&assignmentId=8975c1a8-2cb9-4878-9a42-aaf02e9fe0be&projectId=ba640c14-69c5-453e-80b2-29051492c0e0","23E67C9D42D94C8C9EFE0C5C4F68E25E-2025-05-14-21-05-31","","1987","","images/semantic_sequence/physical_activity_semantic/physical_activity_semantic_9.png","0","",""
"","","","","","image-button-response","27","412511","0.0-10.0-1.0-2.0","23E67C9D42D94C8C9EFE0C5C4F68E25E","23E67C9D42D94C8C9EFE0C5C4F68E25E","8975c1a8-2cb9-4878-9a42-aaf02e9fe0be","ba640c14-69c5-453e-80b2-29051492c0e0","{""num_scrambled_semantic"":""8"",""num_scrambled_causal"":""4"",""num_scrambled_schematic"":""4"",""participantId"":""23E67C9D42D94C8C9EFE0C5C4F68E25E"",""assignmentId"":""8975c1a8-2cb9-4878-9a42-aaf02e9fe0be"",""projectId"":""ba640c14-69c5-453e-80b2-29051492c0e0""}","https://test12345.live/?num_scrambled_semantic=8&num_scrambled_causal=4&num_scrambled_schematic=4&participantId=23E67C9D42D94C8C9EFE0C5C4F68E25E&assignmentId=8975c1a8-2cb9-4878-9a42-aaf02e9fe0be&projectId=ba640c14-69c5-453e-80b2-29051492c0e0","23E67C9D42D94C8C9EFE0C5C4F68E25E-2025-05-14-21-05-31","","null","","[]","null","",""
"","","","","","image-button-response","28","417013","0.0-10.0-1.0-0.1","23E67C9D42D94C8C9EFE0C5C4F68E25E","23E67C9D42D94C8C9EFE0C5C4F68E25E","8975c1a8-2cb9-4878-9a42-aaf02e9fe0be","ba640c14-69c5-453e-80b2-29051492c0e0","{""num_scrambled_semantic"":""8"",""num_scrambled_causal"":""4"",""num_scrambled_schematic"":""4"",""participantId"":""23E67C9D42D94C8C9EFE0C5C4F68E25E"",""assignmentId"":""8975c1a8-2cb9-4878-9a42-aaf02e9fe0be"",""projectId"":""ba640c14-69c5-453e-80b2-29051492c0e0""}","https://test12345.live/?num_scrambled_semantic=8&num_scrambled_causal=4&num_scrambled_schematic=4&participantId=23E67C9D42D94C8C9EFE0C5C4F68E25E&assignmentId=8975c1a8-2cb9-4878-9a42-aaf02e9fe0be&projectId=ba640c14-69c5-453e-80b2-29051492c0e0","23E67C9D42D94C8C9EFE0C5C4F68E25E-2025-05-14-21-05-31","","null","","images/semantic_sequence/physical_activity_semantic/physical_activity_semantic_6.png","null","",""
"","","","","","image-button-response","29","418163","0.0-10.0-1.0-1.1","23E67C9D42D94C8C9EFE0C5C4F68E25E","23E67C9D42D94C8C9EFE0C5C4F68E25E","8975c1a8-2cb9-4878-9a42-aaf02e9fe0be","ba640c14-69c5-453e-80b2-29051492c0e0","{""num_scrambled_semantic"":""8"",""num_scrambled_causal"":""4"",""num_scrambled_schematic"":""4"",""participantId"":""23E67C9D42D94C8C9EFE0C5C4F68E25E"",""assignmentId"":""8975c1a8-2cb9-4878-9a42-aaf02e9fe0be"",""projectId"":""ba640c14-69c5-453e-80b2-29051492c0e0""}","https://test12345.live/?num_scrambled_semantic=8&num_scrambled_causal=4&num_scrambled_schematic=4&participantId=23E67C9D42D94C8C9EFE0C5C4F68E25E&assignmentId=8975c1a8-2cb9-4878-9a42-aaf02e9fe0be&projectId=ba640c14-69c5-453e-80b2-29051492c0e0","23E67C9D42D94C8C9EFE0C5C4F68E25E-2025-05-14-21-05-31","","1150","","images/semantic_sequence/physical_activity_semantic/physical_activity_semantic_6.png","0","",""
"","","","","","image-button-response","30","419965","0.0-10.0-1.0-2.1","23E67C9D42D94C8C9EFE0C5C4F68E25E","23E67C9D42D94C8C9EFE0C5C4F68E25E","8975c1a8-2cb9-4878-9a42-aaf02e9fe0be","ba640c14-69c5-453e-80b2-29051492c0e0","{""num_scrambled_semantic"":""8"",""num_scrambled_causal"":""4"",""num_scrambled_schematic"":""4"",""participantId"":""23E67C9D42D94C8C9EFE0C5C4F68E25E"",""assignmentId"":""8975c1a8-2cb9-4878-9a42-aaf02e9fe0be"",""projectId"":""ba640c14-69c5-453e-80b2-29051492c0e0""}","https://test12345.live/?num_scrambled_semantic=8&num_scrambled_causal=4&num_scrambled_schematic=4&participantId=23E67C9D42D94C8C9EFE0C5C4F68E25E&assignmentId=8975c1a8-2cb9-4878-9a42-aaf02e9fe0be&projectId=ba640c14-69c5-453e-80b2-29051492c0e0","23E67C9D42D94C8C9EFE0C5C4F68E25E-2025-05-14-21-05-31","","null","","[]","null","",""
"","","","","","image-button-response","31","424467","0.0-10.0-1.0-0.2","23E67C9D42D94C8C9EFE0C5C4F68E25E","23E67C9D42D94C8C9EFE0C5C4F68E25E","8975c1a8-2cb9-4878-9a42-aaf02e9fe0be","ba640c14-69c5-453e-80b2-29051492c0e0","{""num_scrambled_semantic"":""8"",""num_scrambled_causal"":""4"",""num_scrambled_schematic"":""4"",""participantId"":""23E67C9D42D94C8C9EFE0C5C4F68E25E"",""assignmentId"":""8975c1a8-2cb9-4878-9a42-aaf02e9fe0be"",""projectId"":""ba640c14-69c5-453e-80b2-29051492c0e0""}","https://test12345.live/?num_scrambled_semantic=8&num_scrambled_causal=4&num_scrambled_schematic=4&participantId=23E67C9D42D94C8C9EFE0C5C4F68E25E&assignmentId=8975c1a8-2cb9-4878-9a42-aaf02e9fe0be&projectId=ba640c14-69c5-453e-80b2-29051492c0e0","23E67C9D42D94C8C9EFE0C5C4F68E25E-2025-05-14-21-05-31","","null","","images/semantic_sequence/physical_activity_semantic/physical_activity_semantic_3.png","null","",""
"","","","","","image-button-response","32","425785","0.0-10.0-1.0-1.2","23E67C9D42D94C8C9EFE0C5C4F68E25E","23E67C9D42D94C8C9EFE0C5C4F68E25E","8975c1a8-2cb9-4878-9a42-aaf02e9fe0be","ba640c14-69c5-453e-80b2-29051492c0e0","{""num_scrambled_semantic"":""8"",""num_scrambled_causal"":""4"",""num_scrambled_schematic"":""4"",""participantId"":""23E67C9D42D94C8C9EFE0C5C4F68E25E"",""assignmentId"":""8975c1a8-2cb9-4878-9a42-aaf02e9fe0be"",""projectId"":""ba640c14-69c5-453e-80b2-29051492c0e0""}","https://test12345.live/?num_scrambled_semantic=8&num_scrambled_causal=4&num_scrambled_schematic=4&participantId=23E67C9D42D94C8C9EFE0C5C4F68E25E&assignmentId=8975c1a8-2cb9-4878-9a42-aaf02e9fe0be&projectId=ba640c14-69c5-453e-80b2-29051492c0e0","23E67C9D42D94C8C9EFE0C5C4F68E25E-2025-05-14-21-05-31","","1318","","images/semantic_sequence/physical_activity_semantic/physical_activity_semantic_3.png","0","",""
"","","","","","image-button-response","33","427587","0.0-10.0-1.0-2.2","23E67C9D42D94C8C9EFE0C5C4F68E25E","23E67C9D42D94C8C9EFE0C5C4F68E25E","8975c1a8-2cb9-4878-9a42-aaf02e9fe0be","ba640c14-69c5-453e-80b2-29051492c0e0","{""num_scrambled_semantic"":""8"",""num_scrambled_causal"":""4"",""num_scrambled_schematic"":""4"",""participantId"":""23E67C9D42D94C8C9EFE0C5C4F68E25E"",""assignmentId"":""8975c1a8-2cb9-4878-9a42-aaf02e9fe0be"",""projectId"":""ba640c14-69c5-453e-80b2-29051492c0e0""}","https://test12345.live/?num_scrambled_semantic=8&num_scrambled_causal=4&num_scrambled_schematic=4&participantId=23E67C9D42D94C8C9EFE0C5C4F68E25E&assignmentId=8975c1a8-2cb9-4878-9a42-aaf02e9fe0be&projectId=ba640c14-69c5-453e-80b2-29051492c0e0","23E67C9D42D94C8C9EFE0C5C4F68E25E-2025-05-14-21-05-31","","null","","[]","null","",""
"","","","","","image-button-response","34","432087","0.0-10.0-1.0-0.3","23E67C9D42D94C8C9EFE0C5C4F68E25E","23E67C9D42D94C8C9EFE0C5C4F68E25E","8975c1a8-2cb9-4878-9a42-aaf02e9fe0be","ba640c14-69c5-453e-80b2-29051492c0e0","{""num_scrambled_semantic"":""8"",""num_scrambled_causal"":""4"",""num_scrambled_schematic"":""4"",""participantId"":""23E67C9D42D94C8C9EFE0C5C4F68E25E"",""assignmentId"":""8975c1a8-2cb9-4878-9a42-aaf02e9fe0be"",""projectId"":""ba640c14-69c5-453e-80b2-29051492c0e0""}","https://test12345.live/?num_scrambled_semantic=8&num_scrambled_causal=4&num_scrambled_schematic=4&participantId=23E67C9D42D94C8C9EFE0C5C4F68E25E&assignmentId=8975c1a8-2cb9-4878-9a42-aaf02e9fe0be&projectId=ba640c14-69c5-453e-80b2-29051492c0e0","23E67C9D42D94C8C9EFE0C5C4F68E25E-2025-05-14-21-05-31","","null","","images/semantic_sequence/physical_activity_semantic/physical_activity_semantic_8.png","null","",""
"","","","","","image-button-response","35","436088","0.0-10.0-1.0-1.3","23E67C9D42D94C8C9EFE0C5C4F68E25E","23E67C9D42D94C8C9EFE0C5C4F68E25E","8975c1a8-2cb9-4878-9a42-aaf02e9fe0be","ba640c14-69c5-453e-80b2-29051492c0e0","{""num_scrambled_semantic"":""8"",""num_scrambled_causal"":""4"",""num_scrambled_schematic"":""4"",""participantId"":""23E67C9D42D94C8C9EFE0C5C4F68E25E"",""assignmentId"":""8975c1a8-2cb9-4878-9a42-aaf02e9fe0be"",""projectId"":""ba640c14-69c5-453e-80b2-29051492c0e0""}","https://test12345.live/?num_scrambled_semantic=8&num_scrambled_causal=4&num_scrambled_schematic=4&participantId=23E67C9D42D94C8C9EFE0C5C4F68E25E&assignmentId=8975c1a8-2cb9-4878-9a42-aaf02e9fe0be&projectId=ba640c14-69c5-453e-80b2-29051492c0e0","23E67C9D42D94C8C9EFE0C5C4F68E25E-2025-05-14-21-05-31","","null","","images/semantic_sequence/physical_activity_semantic/physical_activity_semantic_8.png","null","",""
"","","","","","image-button-response","36","437895","0.0-10.0-1.0-2.3","23E67C9D42D94C8C9EFE0C5C4F68E25E","23E67C9D42D94C8C9EFE0C5C4F68E25E","8975c1a8-2cb9-4878-9a42-aaf02e9fe0be","ba640c14-69c5-453e-80b2-29051492c0e0","{""num_scrambled_semantic"":""8"",""num_scrambled_causal"":""4"",""num_scrambled_schematic"":""4"",""participantId"":""23E67C9D42D94C8C9EFE0C5C4F68E25E"",""assignmentId"":""8975c1a8-2cb9-4878-9a42-aaf02e9fe0be"",""projectId"":""ba640c14-69c5-453e-80b2-29051492c0e0""}","https://test12345.live/?num_scrambled_semantic=8&num_scrambled_causal=4&num_scrambled_schematic=4&participantId=23E67C9D42D94C8C9EFE0C5C4F68E25E&assignmentId=8975c1a8-2cb9-4878-9a42-aaf02e9fe0be&projectId=ba640c14-69c5-453e-80b2-29051492c0e0","23E67C9D42D94C8C9EFE0C5C4F68E25E-2025-05-14-21-05-31","","null","","[]","null","",""
"","","","","","image-button-response","37","442396","0.0-10.0-1.0-0.4","23E67C9D42D94C8C9EFE0C5C4F68E25E","23E67C9D42D94C8C9EFE0C5C4F68E25E","8975c1a8-2cb9-4878-9a42-aaf02e9fe0be","ba640c14-69c5-453e-80b2-29051492c0e0","{""num_scrambled_semantic"":""8"",""num_scrambled_causal"":""4"",""num_scrambled_schematic"":""4"",""participantId"":""23E67C9D42D94C8C9EFE0C5C4F68E25E"",""assignmentId"":""8975c1a8-2cb9-4878-9a42-aaf02e9fe0be"",""projectId"":""ba640c14-69c5-453e-80b2-29051492c0e0""}","https://test12345.live/?num_scrambled_semantic=8&num_scrambled_causal=4&num_scrambled_schematic=4&participantId=23E67C9D42D94C8C9EFE0C5C4F68E25E&assignmentId=8975c1a8-2cb9-4878-9a42-aaf02e9fe0be&projectId=ba640c14-69c5-453e-80b2-29051492c0e0","23E67C9D42D94C8C9EFE0C5C4F68E25E-2025-05-14-21-05-31","","null","","images/semantic_sequence/physical_activity_semantic/physical_activity_semantic_2.png","null","",""
"","","","","","image-button-response","38","443188","0.0-10.0-1.0-1.4","23E67C9D42D94C8C9EFE0C5C4F68E25E","23E67C9D42D94C8C9EFE0C5C4F68E25E","8975c1a8-2cb9-4878-9a42-aaf02e9fe0be","ba640c14-69c5-453e-80b2-29051492c0e0","{""num_scrambled_semantic"":""8"",""num_scrambled_causal"":""4"",""num_scrambled_schematic"":""4"",""participantId"":""23E67C9D42D94C8C9EFE0C5C4F68E25E"",""assignmentId"":""8975c1a8-2cb9-4878-9a42-aaf02e9fe0be"",""projectId"":""ba640c14-69c5-453e-80b2-29051492c0e0""}","https://test12345.live/?num_scrambled_semantic=8&num_scrambled_causal=4&num_scrambled_schematic=4&participantId=23E67C9D42D94C8C9EFE0C5C4F68E25E&assignmentId=8975c1a8-2cb9-4878-9a42-aaf02e9fe0be&projectId=ba640c14-69c5-453e-80b2-29051492c0e0","23E67C9D42D94C8C9EFE0C5C4F68E25E-2025-05-14-21-05-31","","792","","images/semantic_sequence/physical_activity_semantic/physical_activity_semantic_2.png","0","",""
"","","","","","image-button-response","39","444990","0.0-10.0-1.0-2.4","23E67C9D42D94C8C9EFE0C5C4F68E25E","23E67C9D42D94C8C9EFE0C5C4F68E25E","8975c1a8-2cb9-4878-9a42-aaf02e9fe0be","ba640c14-69c5-453e-80b2-29051492c0e0","{""num_scrambled_semantic"":""8"",""num_scrambled_causal"":""4"",""num_scrambled_schematic"":""4"",""participantId"":""23E67C9D42D94C8C9EFE0C5C4F68E25E"",""assignmentId"":""8975c1a8-2cb9-4878-9a42-aaf02e9fe0be"",""projectId"":""ba640c14-69c5-453e-80b2-29051492c0e0""}","https://test12345.live/?num_scrambled_semantic=8&num_scrambled_causal=4&num_scrambled_schematic=4&participantId=23E67C9D42D94C8C9EFE0C5C4F68E25E&assignmentId=8975c1a8-2cb9-4878-9a42-aaf02e9fe0be&projectId=ba640c14-69c5-453e-80b2-29051492c0e0","23E67C9D42D94C8C9EFE0C5C4F68E25E-2025-05-14-21-05-31","","null","","[]","null","",""
"","","","","","image-button-response","40","449491","0.0-10.0-1.0-0.5","23E67C9D42D94C8C9EFE0C5C4F68E25E","23E67C9D42D94C8C9EFE0C5C4F68E25E","8975c1a8-2cb9-4878-9a42-aaf02e9fe0be","ba640c14-69c5-453e-80b2-29051492c0e0","{""num_scrambled_semantic"":""8"",""num_scrambled_causal"":""4"",""num_scrambled_schematic"":""4"",""participantId"":""23E67C9D42D94C8C9EFE0C5C4F68E25E"",""assignmentId"":""8975c1a8-2cb9-4878-9a42-aaf02e9fe0be"",""projectId"":""ba640c14-69c5-453e-80b2-29051492c0e0""}","https://test12345.live/?num_scrambled_semantic=8&num_scrambled_causal=4&num_scrambled_schematic=4&participantId=23E67C9D42D94C8C9EFE0C5C4F68E25E&assignmentId=8975c1a8-2cb9-4878-9a42-aaf02e9fe0be&projectId=ba640c14-69c5-453e-80b2-29051492c0e0","23E67C9D42D94C8C9EFE0C5C4F68E25E-2025-05-14-21-05-31","","null","","images/semantic_sequence/physical_activity_semantic/physical_activity_semantic_1.png","null","",""
"","","","","","image-button-response","41","451038","0.0-10.0-1.0-1.5","23E67C9D42D94C8C9EFE0C5C4F68E25E","23E67C9D42D94C8C9EFE0C5C4F68E25E","8975c1a8-2cb9-4878-9a42-aaf02e9fe0be","ba640c14-69c5-453e-80b2-29051492c0e0","{""num_scrambled_semantic"":""8"",""num_scrambled_causal"":""4"",""num_scrambled_schematic"":""4"",""participantId"":""23E67C9D42D94C8C9EFE0C5C4F68E25E"",""assignmentId"":""8975c1a8-2cb9-4878-9a42-aaf02e9fe0be"",""projectId"":""ba640c14-69c5-453e-80b2-29051492c0e0""}","https://test12345.live/?num_scrambled_semantic=8&num_scrambled_causal=4&num_scrambled_schematic=4&participantId=23E67C9D42D94C8C9EFE0C5C4F68E25E&assignmentId=8975c1a8-2cb9-4878-9a42-aaf02e9fe0be&projectId=ba640c14-69c5-453e-80b2-29051492c0e0","23E67C9D42D94C8C9EFE0C5C4F68E25E-2025-05-14-21-05-31","","1547","","images/semantic_sequence/physical_activity_semantic/physical_activity_semantic_1.png","0","",""
"","","","","","image-button-response","42","452873","0.0-10.0-1.0-2.5","23E67C9D42D94C8C9EFE0C5C4F68E25E","23E67C9D42D94C8C9EFE0C5C4F68E25E","8975c1a8-2cb9-4878-9a42-aaf02e9fe0be","ba640c14-69c5-453e-80b2-29051492c0e0","{""num_scrambled_semantic"":""8"",""num_scrambled_causal"":""4"",""num_scrambled_schematic"":""4"",""participantId"":""23E67C9D42D94C8C9EFE0C5C4F68E25E"",""assignmentId"":""8975c1a8-2cb9-4878-9a42-aaf02e9fe0be"",""projectId"":""ba640c14-69c5-453e-80b2-29051492c0e0""}","https://test12345.live/?num_scrambled_semantic=8&num_scrambled_causal=4&num_scrambled_schematic=4&participantId=23E67C9D42D94C8C9EFE0C5C4F68E25E&assignmentId=8975c1a8-2cb9-4878-9a42-aaf02e9fe0be&projectId=ba640c14-69c5-453e-80b2-29051492c0e0","23E67C9D42D94C8C9EFE0C5C4F68E25E-2025-05-14-21-05-31","","null","","[]","null","",""
"","","","","","image-button-response","43","457373","0.0-10.0-1.0-0.6","23E67C9D42D94C8C9EFE0C5C4F68E25E","23E67C9D42D94C8C9EFE0C5C4F68E25E","8975c1a8-2cb9-4878-9a42-aaf02e9fe0be","ba640c14-69c5-453e-80b2-29051492c0e0","{""num_scrambled_semantic"":""8"",""num_scrambled_causal"":""4"",""num_scrambled_schematic"":""4"",""participantId"":""23E67C9D42D94C8C9EFE0C5C4F68E25E"",""assignmentId"":""8975c1a8-2cb9-4878-9a42-aaf02e9fe0be"",""projectId"":""ba640c14-69c5-453e-80b2-29051492c0e0""}","https://test12345.live/?num_scrambled_semantic=8&num_scrambled_causal=4&num_scrambled_schematic=4&participantId=23E67C9D42D94C8C9EFE0C5C4F68E25E&assignmentId=8975c1a8-2cb9-4878-9a42-aaf02e9fe0be&projectId=ba640c14-69c5-453e-80b2-29051492c0e0","23E67C9D42D94C8C9EFE0C5C4F68E25E-2025-05-14-21-05-31","","null","","images/semantic_sequence/physical_activity_semantic/physical_activity_semantic_7.png","null","",""
"","","","","","image-button-response","44","458246","0.0-10.0-1.0-1.6","23E67C9D42D94C8C9EFE0C5C4F68E25E","23E67C9D42D94C8C9EFE0C5C4F68E25E","8975c1a8-2cb9-4878-9a42-aaf02e9fe0be","ba640c14-69c5-453e-80b2-29051492c0e0","{""num_scrambled_semantic"":""8"",""num_scrambled_causal"":""4"",""num_scrambled_schematic"":""4"",""participantId"":""23E67C9D42D94C8C9EFE0C5C4F68E25E"",""assignmentId"":""8975c1a8-2cb9-4878-9a42-aaf02e9fe0be"",""projectId"":""ba640c14-69c5-453e-80b2-29051492c0e0""}","https://test12345.live/?num_scrambled_semantic=8&num_scrambled_causal=4&num_scrambled_schematic=4&participantId=23E67C9D42D94C8C9EFE0C5C4F68E25E&assignmentId=8975c1a8-2cb9-4878-9a42-aaf02e9fe0be&projectId=ba640c14-69c5-453e-80b2-29051492c0e0","23E67C9D42D94C8C9EFE0C5C4F68E25E-2025-05-14-21-05-31","","873","","images/semantic_sequence/physical_activity_semantic/physical_activity_semantic_7.png","0","",""
"","","","","","image-button-response","45","460048","0.0-10.0-1.0-2.6","23E67C9D42D94C8C9EFE0C5C4F68E25E","23E67C9D42D94C8C9EFE0C5C4F68E25E","8975c1a8-2cb9-4878-9a42-aaf02e9fe0be","ba640c14-69c5-453e-80b2-29051492c0e0","{""num_scrambled_semantic"":""8"",""num_scrambled_causal"":""4"",""num_scrambled_schematic"":""4"",""participantId"":""23E67C9D42D94C8C9EFE0C5C4F68E25E"",""assignmentId"":""8975c1a8-2cb9-4878-9a42-aaf02e9fe0be"",""projectId"":""ba640c14-69c5-453e-80b2-29051492c0e0""}","https://test12345.live/?num_scrambled_semantic=8&num_scrambled_causal=4&num_scrambled_schematic=4&participantId=23E67C9D42D94C8C9EFE0C5C4F68E25E&assignmentId=8975c1a8-2cb9-4878-9a42-aaf02e9fe0be&projectId=ba640c14-69c5-453e-80b2-29051492c0e0","23E67C9D42D94C8C9EFE0C5C4F68E25E-2025-05-14-21-05-31","","null","","[]","null","",""
"","","","","","image-button-response","46","464549","0.0-10.0-1.0-0.7","23E67C9D42D94C8C9EFE0C5C4F68E25E","23E67C9D42D94C8C9EFE0C5C4F68E25E","8975c1a8-2cb9-4878-9a42-aaf02e9fe0be","ba640c14-69c5-453e-80b2-29051492c0e0","{""num_scrambled_semantic"":""8"",""num_scrambled_causal"":""4"",""num_scrambled_schematic"":""4"",""participantId"":""23E67C9D42D94C8C9EFE0C5C4F68E25E"",""assignmentId"":""8975c1a8-2cb9-4878-9a42-aaf02e9fe0be"",""projectId"":""ba640c14-69c5-453e-80b2-29051492c0e0""}","https://test12345.live/?num_scrambled_semantic=8&num_scrambled_causal=4&num_scrambled_schematic=4&participantId=23E67C9D42D94C8C9EFE0C5C4F68E25E&assignmentId=8975c1a8-2cb9-4878-9a42-aaf02e9fe0be&projectId=ba640c14-69c5-453e-80b2-29051492c0e0","23E67C9D42D94C8C9EFE0C5C4F68E25E-2025-05-14-21-05-31","","null","","images/semantic_sequence/physical_activity_semantic/physical_activity_semantic_5.png","null","",""
"","","","","","image-button-response","47","465560","0.0-10.0-1.0-1.7","23E67C9D42D94C8C9EFE0C5C4F68E25E","23E67C9D42D94C8C9EFE0C5C4F68E25E","8975c1a8-2cb9-4878-9a42-aaf02e9fe0be","ba640c14-69c5-453e-80b2-29051492c0e0","{""num_scrambled_semantic"":""8"",""num_scrambled_causal"":""4"",""num_scrambled_schematic"":""4"",""participantId"":""23E67C9D42D94C8C9EFE0C5C4F68E25E"",""assignmentId"":""8975c1a8-2cb9-4878-9a42-aaf02e9fe0be"",""projectId"":""ba640c14-69c5-453e-80b2-29051492c0e0""}","https://test12345.live/?num_scrambled_semantic=8&num_scrambled_causal=4&num_scrambled_schematic=4&participantId=23E67C9D42D94C8C9EFE0C5C4F68E25E&assignmentId=8975c1a8-2cb9-4878-9a42-aaf02e9fe0be&projectId=ba640c14-69c5-453e-80b2-29051492c0e0","23E67C9D42D94C8C9EFE0C5C4F68E25E-2025-05-14-21-05-31","","1012","","images/semantic_sequence/physical_activity_semantic/physical_activity_semantic_5.png","0","",""
"","","","","","image-button-response","48","467362","0.0-10.0-1.0-2.7","23E67C9D42D94C8C9EFE0C5C4F68E25E","23E67C9D42D94C8C9EFE0C5C4F68E25E","8975c1a8-2cb9-4878-9a42-aaf02e9fe0be","ba640c14-69c5-453e-80b2-29051492c0e0","{""num_scrambled_semantic"":""8"",""num_scrambled_causal"":""4"",""num_scrambled_schematic"":""4"",""participantId"":""23E67C9D42D94C8C9EFE0C5C4F68E25E"",""assignmentId"":""8975c1a8-2cb9-4878-9a42-aaf02e9fe0be"",""projectId"":""ba640c14-69c5-453e-80b2-29051492c0e0""}","https://test12345.live/?num_scrambled_semantic=8&num_scrambled_causal=4&num_scrambled_schematic=4&participantId=23E67C9D42D94C8C9EFE0C5C4F68E25E&assignmentId=8975c1a8-2cb9-4878-9a42-aaf02e9fe0be&projectId=ba640c14-69c5-453e-80b2-29051492c0e0","23E67C9D42D94C8C9EFE0C5C4F68E25E-2025-05-14-21-05-31","","null","","[]","null","",""
"","","","","","image-button-response","49","471863","0.0-10.0-1.0-0.8","23E67C9D42D94C8C9EFE0C5C4F68E25E","23E67C9D42D94C8C9EFE0C5C4F68E25E","8975c1a8-2cb9-4878-9a42-aaf02e9fe0be","ba640c14-69c5-453e-80b2-29051492c0e0","{""num_scrambled_semantic"":""8"",""num_scrambled_causal"":""4"",""num_scrambled_schematic"":""4"",""participantId"":""23E67C9D42D94C8C9EFE0C5C4F68E25E"",""assignmentId"":""8975c1a8-2cb9-4878-9a42-aaf02e9fe0be"",""projectId"":""ba640c14-69c5-453e-80b2-29051492c0e0""}","https://test12345.live/?num_scrambled_semantic=8&num_scrambled_causal=4&num_scrambled_schematic=4&participantId=23E67C9D42D94C8C9EFE0C5C4F68E25E&assignmentId=8975c1a8-2cb9-4878-9a42-aaf02e9fe0be&projectId=ba640c14-69c5-453e-80b2-29051492c0e0","23E67C9D42D94C8C9EFE0C5C4F68E25E-2025-05-14-21-05-31","","null","","images/semantic_sequence/physical_activity_semantic/physical_activity_semantic_ten.png","null","",""
"","","","","","image-button-response","50","472590","0.0-10.0-1.0-1.8","23E67C9D42D94C8C9EFE0C5C4F68E25E","23E67C9D42D94C8C9EFE0C5C4F68E25E","8975c1a8-2cb9-4878-9a42-aaf02e9fe0be","ba640c14-69c5-453e-80b2-29051492c0e0","{""num_scrambled_semantic"":""8"",""num_scrambled_causal"":""4"",""num_scrambled_schematic"":""4"",""participantId"":""23E67C9D42D94C8C9EFE0C5C4F68E25E"",""assignmentId"":""8975c1a8-2cb9-4878-9a42-aaf02e9fe0be"",""projectId"":""ba640c14-69c5-453e-80b2-29051492c0e0""}","https://test12345.live/?num_scrambled_semantic=8&num_scrambled_causal=4&num_scrambled_schematic=4&participantId=23E67C9D42D94C8C9EFE0C5C4F68E25E&assignmentId=8975c1a8-2cb9-4878-9a42-aaf02e9fe0be&projectId=ba640c14-69c5-453e-80b2-29051492c0e0","23E67C9D42D94C8C9EFE0C5C4F68E25E-2025-05-14-21-05-31","","727","","images/semantic_sequence/physical_activity_semantic/physical_activity_semantic_ten.png","0","",""
"","","","","","image-button-response","51","474393","0.0-10.0-1.0-2.8","23E67C9D42D94C8C9EFE0C5C4F68E25E","23E67C9D42D94C8C9EFE0C5C4F68E25E","8975c1a8-2cb9-4878-9a42-aaf02e9fe0be","ba640c14-69c5-453e-80b2-29051492c0e0","{""num_scrambled_semantic"":""8"",""num_scrambled_causal"":""4"",""num_scrambled_schematic"":""4"",""participantId"":""23E67C9D42D94C8C9EFE0C5C4F68E25E"",""assignmentId"":""8975c1a8-2cb9-4878-9a42-aaf02e9fe0be"",""projectId"":""ba640c14-69c5-453e-80b2-29051492c0e0""}","https://test12345.live/?num_scrambled_semantic=8&num_scrambled_causal=4&num_scrambled_schematic=4&participantId=23E67C9D42D94C8C9EFE0C5C4F68E25E&assignmentId=8975c1a8-2cb9-4878-9a42-aaf02e9fe0be&projectId=ba640c14-69c5-453e-80b2-29051492c0e0","23E67C9D42D94C8C9EFE0C5C4F68E25E-2025-05-14-21-05-31","","null","","[]","null","",""
"","","","","","image-button-response","52","478893","0.0-10.0-1.0-0.9","23E67C9D42D94C8C9EFE0C5C4F68E25E","23E67C9D42D94C8C9EFE0C5C4F68E25E","8975c1a8-2cb9-4878-9a42-aaf02e9fe0be","ba640c14-69c5-453e-80b2-29051492c0e0","{""num_scrambled_semantic"":""8"",""num_scrambled_causal"":""4"",""num_scrambled_schematic"":""4"",""participantId"":""23E67C9D42D94C8C9EFE0C5C4F68E25E"",""assignmentId"":""8975c1a8-2cb9-4878-9a42-aaf02e9fe0be"",""projectId"":""ba640c14-69c5-453e-80b2-29051492c0e0""}","https://test12345.live/?num_scrambled_semantic=8&num_scrambled_causal=4&num_scrambled_schematic=4&participantId=23E67C9D42D94C8C9EFE0C5C4F68E25E&assignmentId=8975c1a8-2cb9-4878-9a42-aaf02e9fe0be&projectId=ba640c14-69c5-453e-80b2-29051492c0e0","23E67C9D42D94C8C9EFE0C5C4F68E25E-2025-05-14-21-05-31","","null","","images/semantic_sequence/physical_activity_semantic/physical_activity_semantic_4.png","null","",""
"","","","","","image-button-response","53","480766","0.0-10.0-1.0-1.9","23E67C9D42D94C8C9EFE0C5C4F68E25E","23E67C9D42D94C8C9EFE0C5C4F68E25E","8975c1a8-2cb9-4878-9a42-aaf02e9fe0be","ba640c14-69c5-453e-80b2-29051492c0e0","{""num_scrambled_semantic"":""8"",""num_scrambled_causal"":""4"",""num_scrambled_schematic"":""4"",""participantId"":""23E67C9D42D94C8C9EFE0C5C4F68E25E"",""assignmentId"":""8975c1a8-2cb9-4878-9a42-aaf02e9fe0be"",""projectId"":""ba640c14-69c5-453e-80b2-29051492c0e0""}","https://test12345.live/?num_scrambled_semantic=8&num_scrambled_causal=4&num_scrambled_schematic=4&participantId=23E67C9D42D94C8C9EFE0C5C4F68E25E&assignmentId=8975c1a8-2cb9-4878-9a42-aaf02e9fe0be&projectId=ba640c14-69c5-453e-80b2-29051492c0e0","23E67C9D42D94C8C9EFE0C5C4F68E25E-2025-05-14-21-05-31","","1871","","images/semantic_sequence/physical_activity_semantic/physical_activity_semantic_4.png","0","",""
"","","","","","image-button-response","54","482568","0.0-10.0-1.0-2.9","23E67C9D42D94C8C9EFE0C5C4F68E25E","23E67C9D42D94C8C9EFE0C5C4F68E25E","8975c1a8-2cb9-4878-9a42-aaf02e9fe0be","ba640c14-69c5-453e-80b2-29051492c0e0","{""num_scrambled_semantic"":""8"",""num_scrambled_causal"":""4"",""num_scrambled_schematic"":""4"",""participantId"":""23E67C9D42D94C8C9EFE0C5C4F68E25E"",""assignmentId"":""8975c1a8-2cb9-4878-9a42-aaf02e9fe0be"",""projectId"":""ba640c14-69c5-453e-80b2-29051492c0e0""}","https://test12345.live/?num_scrambled_semantic=8&num_scrambled_causal=4&num_scrambled_schematic=4&participantId=23E67C9D42D94C8C9EFE0C5C4F68E25E&assignmentId=8975c1a8-2cb9-4878-9a42-aaf02e9fe0be&projectId=ba640c14-69c5-453e-80b2-29051492c0e0","23E67C9D42D94C8C9EFE0C5C4F68E25E-2025-05-14-21-05-31","","null","","[]","null","",""
"","","","","","html-audio-response","55","562830","0.0-11.0","23E67C9D42D94C8C9EFE0C5C4F68E25E","23E67C9D42D94C8C9EFE0C5C4F68E25E","8975c1a8-2cb9-4878-9a42-aaf02e9fe0be","ba640c14-69c5-453e-80b2-29051492c0e0","{""num_scrambled_semantic"":""8"",""num_scrambled_causal"":""4"",""num_scrambled_schematic"":""4"",""participantId"":""23E67C9D42D94C8C9EFE0C5C4F68E25E"",""assignmentId"":""8975c1a8-2cb9-4878-9a42-aaf02e9fe0be"",""projectId"":""ba640c14-69c5-453e-80b2-29051492c0e0""}","https://test12345.live/?num_scrambled_semantic=8&num_scrambled_causal=4&num_scrambled_schematic=4&participantId=23E67C9D42D94C8C9EFE0C5C4F68E25E&assignmentId=8975c1a8-2cb9-4878-9a42-aaf02e9fe0be&projectId=ba640c14-69c5-453e-80b2-29051492c0e0","23E67C9D42D94C8C9EFE0C5C4F68E25E-2025-05-14-21-05-31","","10702","","[""<span style=\""color: red; font-size: 24px\""> NOW RECORDING</span><p>Please say out loud all the images you saw, as many as you can remember. The images can be said in any order.</p>""]","","2","physical_activity_semantic"
"","","","","","image-button-response","56","568833","0.0-12.0-0.0","23E67C9D42D94C8C9EFE0C5C4F68E25E","23E67C9D42D94C8C9EFE0C5C4F68E25E","8975c1a8-2cb9-4878-9a42-aaf02e9fe0be","ba640c14-69c5-453e-80b2-29051492c0e0","{""num_scrambled_semantic"":""8"",""num_scrambled_causal"":""4"",""num_scrambled_schematic"":""4"",""participantId"":""23E67C9D42D94C8C9EFE0C5C4F68E25E"",""assignmentId"":""8975c1a8-2cb9-4878-9a42-aaf02e9fe0be"",""projectId"":""ba640c14-69c5-453e-80b2-29051492c0e0""}","https://test12345.live/?num_scrambled_semantic=8&num_scrambled_causal=4&num_scrambled_schematic=4&participantId=23E67C9D42D94C8C9EFE0C5C4F68E25E&assignmentId=8975c1a8-2cb9-4878-9a42-aaf02e9fe0be&projectId=ba640c14-69c5-453e-80b2-29051492c0e0","23E67C9D42D94C8C9EFE0C5C4F68E25E-2025-05-14-21-05-31","","null","","images/semantic_sequence/kitchen_operations_semantic/kitchen_operations_semantic_0.png","null","",""
"","","","","","image-button-response","57","573333","0.0-12.0-1.0-0.0","23E67C9D42D94C8C9EFE0C5C4F68E25E","23E67C9D42D94C8C9EFE0C5C4F68E25E","8975c1a8-2cb9-4878-9a42-aaf02e9fe0be","ba640c14-69c5-453e-80b2-29051492c0e0","{""num_scrambled_semantic"":""8"",""num_scrambled_causal"":""4"",""num_scrambled_schematic"":""4"",""participantId"":""23E67C9D42D94C8C9EFE0C5C4F68E25E"",""assignmentId"":""8975c1a8-2cb9-4878-9a42-aaf02e9fe0be"",""projectId"":""ba640c14-69c5-453e-80b2-29051492c0e0""}","https://test12345.live/?num_scrambled_semantic=8&num_scrambled_causal=4&num_scrambled_schematic=4&participantId=23E67C9D42D94C8C9EFE0C5C4F68E25E&assignmentId=8975c1a8-2cb9-4878-9a42-aaf02e9fe0be&projectId=ba640c14-69c5-453e-80b2-29051492c0e0","23E67C9D42D94C8C9EFE0C5C4F68E25E-2025-05-14-21-05-31","","null","","images/semantic_sequence/kitchen_operations_semantic/kitchen_operations_semantic_7.png","null","",""
"","","","","","image-button-response","58","575307","0.0-12.0-1.0-1.0","23E67C9D42D94C8C9EFE0C5C4F68E25E","23E67C9D42D94C8C9EFE0C5C4F68E25E","8975c1a8-2cb9-4878-9a42-aaf02e9fe0be","ba640c14-69c5-453e-80b2-29051492c0e0","{""num_scrambled_semantic"":""8"",""num_scrambled_causal"":""4"",""num_scrambled_schematic"":""4"",""participantId"":""23E67C9D42D94C8C9EFE0C5C4F68E25E"",""assignmentId"":""8975c1a8-2cb9-4878-9a42-aaf02e9fe0be"",""projectId"":""ba640c14-69c5-453e-80b2-29051492c0e0""}","https://test12345.live/?num_scrambled_semantic=8&num_scrambled_causal=4&num_scrambled_schematic=4&participantId=23E67C9D42D94C8C9EFE0C5C4F68E25E&assignmentId=8975c1a8-2cb9-4878-9a42-aaf02e9fe0be&projectId=ba640c14-69c5-453e-80b2-29051492c0e0","23E67C9D42D94C8C9EFE0C5C4F68E25E-2025-05-14-21-05-31","","1975","","images/semantic_sequence/kitchen_operations_semantic/kitchen_operations_semantic_7.png","0","",""
"","","","","","image-button-response","59","577109","0.0-12.0-1.0-2.0","23E67C9D42D94C8C9EFE0C5C4F68E25E","23E67C9D42D94C8C9EFE0C5C4F68E25E","8975c1a8-2cb9-4878-9a42-aaf02e9fe0be","ba640c14-69c5-453e-80b2-29051492c0e0","{""num_scrambled_semantic"":""8"",""num_scrambled_causal"":""4"",""num_scrambled_schematic"":""4"",""participantId"":""23E67C9D42D94C8C9EFE0C5C4F68E25E"",""assignmentId"":""8975c1a8-2cb9-4878-9a42-aaf02e9fe0be"",""projectId"":""ba640c14-69c5-453e-80b2-29051492c0e0""}","https://test12345.live/?num_scrambled_semantic=8&num_scrambled_causal=4&num_scrambled_schematic=4&participantId=23E67C9D42D94C8C9EFE0C5C4F68E25E&assignmentId=8975c1a8-2cb9-4878-9a42-aaf02e9fe0be&projectId=ba640c14-69c5-453e-80b2-29051492c0e0","23E67C9D42D94C8C9EFE0C5C4F68E25E-2025-05-14-21-05-31","","null","","[]","null","",""
"","","","","","image-button-response","60","581609","0.0-12.0-1.0-0.1","23E67C9D42D94C8C9EFE0C5C4F68E25E","23E67C9D42D94C8C9EFE0C5C4F68E25E","8975c1a8-2cb9-4878-9a42-aaf02e9fe0be","ba640c14-69c5-453e-80b2-29051492c0e0","{""num_scrambled_semantic"":""8"",""num_scrambled_causal"":""4"",""num_scrambled_schematic"":""4"",""participantId"":""23E67C9D42D94C8C9EFE0C5C4F68E25E"",""assignmentId"":""8975c1a8-2cb9-4878-9a42-aaf02e9fe0be"",""projectId"":""ba640c14-69c5-453e-80b2-29051492c0e0""}","https://test12345.live/?num_scrambled_semantic=8&num_scrambled_causal=4&num_scrambled_schematic=4&participantId=23E67C9D42D94C8C9EFE0C5C4F68E25E&assignmentId=8975c1a8-2cb9-4878-9a42-aaf02e9fe0be&projectId=ba640c14-69c5-453e-80b2-29051492c0e0","23E67C9D42D94C8C9EFE0C5C4F68E25E-2025-05-14-21-05-31","","null","","images/semantic_sequence/kitchen_operations_semantic/kitchen_operations_semantic_6.png","null","",""
"","","","","","image-button-response","61","583421","0.0-12.0-1.0-1.1","23E67C9D42D94C8C9EFE0C5C4F68E25E","23E67C9D42D94C8C9EFE0C5C4F68E25E","8975c1a8-2cb9-4878-9a42-aaf02e9fe0be","ba640c14-69c5-453e-80b2-29051492c0e0","{""num_scrambled_semantic"":""8"",""num_scrambled_causal"":""4"",""num_scrambled_schematic"":""4"",""participantId"":""23E67C9D42D94C8C9EFE0C5C4F68E25E"",""assignmentId"":""8975c1a8-2cb9-4878-9a42-aaf02e9fe0be"",""projectId"":""ba640c14-69c5-453e-80b2-29051492c0e0""}","https://test12345.live/?num_scrambled_semantic=8&num_scrambled_causal=4&num_scrambled_schematic=4&participantId=23E67C9D42D94C8C9EFE0C5C4F68E25E&assignmentId=8975c1a8-2cb9-4878-9a42-aaf02e9fe0be&projectId=ba640c14-69c5-453e-80b2-29051492c0e0","23E67C9D42D94C8C9EFE0C5C4F68E25E-2025-05-14-21-05-31","","1810","","images/semantic_sequence/kitchen_operations_semantic/kitchen_operations_semantic_6.png","0","",""
"","","","","","image-button-response","62","585222","0.0-12.0-1.0-2.1","23E67C9D42D94C8C9EFE0C5C4F68E25E","23E67C9D42D94C8C9EFE0C5C4F68E25E","8975c1a8-2cb9-4878-9a42-aaf02e9fe0be","ba640c14-69c5-453e-80b2-29051492c0e0","{""num_scrambled_semantic"":""8"",""num_scrambled_causal"":""4"",""num_scrambled_schematic"":""4"",""participantId"":""23E67C9D42D94C8C9EFE0C5C4F68E25E"",""assignmentId"":""8975c1a8-2cb9-4878-9a42-aaf02e9fe0be"",""projectId"":""ba640c14-69c5-453e-80b2-29051492c0e0""}","https://test12345.live/?num_scrambled_semantic=8&num_scrambled_causal=4&num_scrambled_schematic=4&participantId=23E67C9D42D94C8C9EFE0C5C4F68E25E&assignmentId=8975c1a8-2cb9-4878-9a42-aaf02e9fe0be&projectId=ba640c14-69c5-453e-80b2-29051492c0e0","23E67C9D42D94C8C9EFE0C5C4F68E25E-2025-05-14-21-05-31","","null","","[]","null","",""
"","","","","","image-button-response","63","589723","0.0-12.0-1.0-0.2","23E67C9D42D94C8C9EFE0C5C4F68E25E","23E67C9D42D94C8C9EFE0C5C4F68E25E","8975c1a8-2cb9-4878-9a42-aaf02e9fe0be","ba640c14-69c5-453e-80b2-29051492c0e0","{""num_scrambled_semantic"":""8"",""num_scrambled_causal"":""4"",""num_scrambled_schematic"":""4"",""participantId"":""23E67C9D42D94C8C9EFE0C5C4F68E25E"",""assignmentId"":""8975c1a8-2cb9-4878-9a42-aaf02e9fe0be"",""projectId"":""ba640c14-69c5-453e-80b2-29051492c0e0""}","https://test12345.live/?num_scrambled_semantic=8&num_scrambled_causal=4&num_scrambled_schematic=4&participantId=23E67C9D42D94C8C9EFE0C5C4F68E25E&assignmentId=8975c1a8-2cb9-4878-9a42-aaf02e9fe0be&projectId=ba640c14-69c5-453e-80b2-29051492c0e0","23E67C9D42D94C8C9EFE0C5C4F68E25E-2025-05-14-21-05-31","","null","","images/semantic_sequence/kitchen_operations_semantic/kitchen_operations_semantic_1.png","null","",""
"","","","","","image-button-response","64","591451","0.0-12.0-1.0-1.2","23E67C9D42D94C8C9EFE0C5C4F68E25E","23E67C9D42D94C8C9EFE0C5C4F68E25E","8975c1a8-2cb9-4878-9a42-aaf02e9fe0be","ba640c14-69c5-453e-80b2-29051492c0e0","{""num_scrambled_semantic"":""8"",""num_scrambled_causal"":""4"",""num_scrambled_schematic"":""4"",""participantId"":""23E67C9D42D94C8C9EFE0C5C4F68E25E"",""assignmentId"":""8975c1a8-2cb9-4878-9a42-aaf02e9fe0be"",""projectId"":""ba640c14-69c5-453e-80b2-29051492c0e0""}","https://test12345.live/?num_scrambled_semantic=8&num_scrambled_causal=4&num_scrambled_schematic=4&participantId=23E67C9D42D94C8C9EFE0C5C4F68E25E&assignmentId=8975c1a8-2cb9-4878-9a42-aaf02e9fe0be&projectId=ba640c14-69c5-453e-80b2-29051492c0e0","23E67C9D42D94C8C9EFE0C5C4F68E25E-2025-05-14-21-05-31","","1726","","images/semantic_sequence/kitchen_operations_semantic/kitchen_operations_semantic_1.png","0","",""
"","","","","","image-button-response","65","593252","0.0-12.0-1.0-2.2","23E67C9D42D94C8C9EFE0C5C4F68E25E","23E67C9D42D94C8C9EFE0C5C4F68E25E","8975c1a8-2cb9-4878-9a42-aaf02e9fe0be","ba640c14-69c5-453e-80b2-29051492c0e0","{""num_scrambled_semantic"":""8"",""num_scrambled_causal"":""4"",""num_scrambled_schematic"":""4"",""participantId"":""23E67C9D42D94C8C9EFE0C5C4F68E25E"",""assignmentId"":""8975c1a8-2cb9-4878-9a42-aaf02e9fe0be"",""projectId"":""ba640c14-69c5-453e-80b2-29051492c0e0""}","https://test12345.live/?num_scrambled_semantic=8&num_scrambled_causal=4&num_scrambled_schematic=4&participantId=23E67C9D42D94C8C9EFE0C5C4F68E25E&assignmentId=8975c1a8-2cb9-4878-9a42-aaf02e9fe0be&projectId=ba640c14-69c5-453e-80b2-29051492c0e0","23E67C9D42D94C8C9EFE0C5C4F68E25E-2025-05-14-21-05-31","","null","","[]","null","",""
"","","","","","image-button-response","66","597753","0.0-12.0-1.0-0.3","23E67C9D42D94C8C9EFE0C5C4F68E25E","23E67C9D42D94C8C9EFE0C5C4F68E25E","8975c1a8-2cb9-4878-9a42-aaf02e9fe0be","ba640c14-69c5-453e-80b2-29051492c0e0","{""num_scrambled_semantic"":""8"",""num_scrambled_causal"":""4"",""num_scrambled_schematic"":""4"",""participantId"":""23E67C9D42D94C8C9EFE0C5C4F68E25E"",""assignmentId"":""8975c1a8-2cb9-4878-9a42-aaf02e9fe0be"",""projectId"":""ba640c14-69c5-453e-80b2-29051492c0e0""}","https://test12345.live/?num_scrambled_semantic=8&num_scrambled_causal=4&num_scrambled_schematic=4&participantId=23E67C9D42D94C8C9EFE0C5C4F68E25E&assignmentId=8975c1a8-2cb9-4878-9a42-aaf02e9fe0be&projectId=ba640c14-69c5-453e-80b2-29051492c0e0","23E67C9D42D94C8C9EFE0C5C4F68E25E-2025-05-14-21-05-31","","null","","images/semantic_sequence/kitchen_operations_semantic/kitchen_operations_semantic_4.png","null","",""
"","","","","","image-button-response","67","601754","0.0-12.0-1.0-1.3","23E67C9D42D94C8C9EFE0C5C4F68E25E","23E67C9D42D94C8C9EFE0C5C4F68E25E","8975c1a8-2cb9-4878-9a42-aaf02e9fe0be","ba640c14-69c5-453e-80b2-29051492c0e0","{""num_scrambled_semantic"":""8"",""num_scrambled_causal"":""4"",""num_scrambled_schematic"":""4"",""participantId"":""23E67C9D42D94C8C9EFE0C5C4F68E25E"",""assignmentId"":""8975c1a8-2cb9-4878-9a42-aaf02e9fe0be"",""projectId"":""ba640c14-69c5-453e-80b2-29051492c0e0""}","https://test12345.live/?num_scrambled_semantic=8&num_scrambled_causal=4&num_scrambled_schematic=4&participantId=23E67C9D42D94C8C9EFE0C5C4F68E25E&assignmentId=8975c1a8-2cb9-4878-9a42-aaf02e9fe0be&projectId=ba640c14-69c5-453e-80b2-29051492c0e0","23E67C9D42D94C8C9EFE0C5C4F68E25E-2025-05-14-21-05-31","","null","","images/semantic_sequence/kitchen_operations_semantic/kitchen_operations_semantic_4.png","null","",""
"","","","","","image-button-response","68","603554","0.0-12.0-1.0-2.3","23E67C9D42D94C8C9EFE0C5C4F68E25E","23E67C9D42D94C8C9EFE0C5C4F68E25E","8975c1a8-2cb9-4878-9a42-aaf02e9fe0be","ba640c14-69c5-453e-80b2-29051492c0e0","{""num_scrambled_semantic"":""8"",""num_scrambled_causal"":""4"",""num_scrambled_schematic"":""4"",""participantId"":""23E67C9D42D94C8C9EFE0C5C4F68E25E"",""assignmentId"":""8975c1a8-2cb9-4878-9a42-aaf02e9fe0be"",""projectId"":""ba640c14-69c5-453e-80b2-29051492c0e0""}","https://test12345.live/?num_scrambled_semantic=8&num_scrambled_causal=4&num_scrambled_schematic=4&participantId=23E67C9D42D94C8C9EFE0C5C4F68E25E&assignmentId=8975c1a8-2cb9-4878-9a42-aaf02e9fe0be&projectId=ba640c14-69c5-453e-80b2-29051492c0e0","23E67C9D42D94C8C9EFE0C5C4F68E25E-2025-05-14-21-05-31","","null","","[]","null","",""
"","","","","","image-button-response","69","608056","0.0-12.0-1.0-0.4","23E67C9D42D94C8C9EFE0C5C4F68E25E","23E67C9D42D94C8C9EFE0C5C4F68E25E","8975c1a8-2cb9-4878-9a42-aaf02e9fe0be","ba640c14-69c5-453e-80b2-29051492c0e0","{""num_scrambled_semantic"":""8"",""num_scrambled_causal"":""4"",""num_scrambled_schematic"":""4"",""participantId"":""23E67C9D42D94C8C9EFE0C5C4F68E25E"",""assignmentId"":""8975c1a8-2cb9-4878-9a42-aaf02e9fe0be"",""projectId"":""ba640c14-69c5-453e-80b2-29051492c0e0""}","https://test12345.live/?num_scrambled_semantic=8&num_scrambled_causal=4&num_scrambled_schematic=4&participantId=23E67C9D42D94C8C9EFE0C5C4F68E25E&assignmentId=8975c1a8-2cb9-4878-9a42-aaf02e9fe0be&projectId=ba640c14-69c5-453e-80b2-29051492c0e0","23E67C9D42D94C8C9EFE0C5C4F68E25E-2025-05-14-21-05-31","","null","","images/semantic_sequence/kitchen_operations_semantic/kitchen_operations_semantic_5.png","null","",""
"","","","","","image-button-response","70","608757","0.0-12.0-1.0-1.4","23E67C9D42D94C8C9EFE0C5C4F68E25E","23E67C9D42D94C8C9EFE0C5C4F68E25E","8975c1a8-2cb9-4878-9a42-aaf02e9fe0be","ba640c14-69c5-453e-80b2-29051492c0e0","{""num_scrambled_semantic"":""8"",""num_scrambled_causal"":""4"",""num_scrambled_schematic"":""4"",""participantId"":""23E67C9D42D94C8C9EFE0C5C4F68E25E"",""assignmentId"":""8975c1a8-2cb9-4878-9a42-aaf02e9fe0be"",""projectId"":""ba640c14-69c5-453e-80b2-29051492c0e0""}","https://test12345.live/?num_scrambled_semantic=8&num_scrambled_causal=4&num_scrambled_schematic=4&participantId=23E67C9D42D94C8C9EFE0C5C4F68E25E&assignmentId=8975c1a8-2cb9-4878-9a42-aaf02e9fe0be&projectId=ba640c14-69c5-453e-80b2-29051492c0e0","23E67C9D42D94C8C9EFE0C5C4F68E25E-2025-05-14-21-05-31","","701","","images/semantic_sequence/kitchen_operations_semantic/kitchen_operations_semantic_5.png","0","",""
"","","","","","image-button-response","71","610558","0.0-12.0-1.0-2.4","23E67C9D42D94C8C9EFE0C5C4F68E25E","23E67C9D42D94C8C9EFE0C5C4F68E25E","8975c1a8-2cb9-4878-9a42-aaf02e9fe0be","ba640c14-69c5-453e-80b2-29051492c0e0","{""num_scrambled_semantic"":""8"",""num_scrambled_causal"":""4"",""num_scrambled_schematic"":""4"",""participantId"":""23E67C9D42D94C8C9EFE0C5C4F68E25E"",""assignmentId"":""8975c1a8-2cb9-4878-9a42-aaf02e9fe0be"",""projectId"":""ba640c14-69c5-453e-80b2-29051492c0e0""}","https://test12345.live/?num_scrambled_semantic=8&num_scrambled_causal=4&num_scrambled_schematic=4&participantId=23E67C9D42D94C8C9EFE0C5C4F68E25E&assignmentId=8975c1a8-2cb9-4878-9a42-aaf02e9fe0be&projectId=ba640c14-69c5-453e-80b2-29051492c0e0","23E67C9D42D94C8C9EFE0C5C4F68E25E-2025-05-14-21-05-31","","null","","[]","null","",""
"","","","","","image-button-response","72","615060","0.0-12.0-1.0-0.5","23E67C9D42D94C8C9EFE0C5C4F68E25E","23E67C9D42D94C8C9EFE0C5C4F68E25E","8975c1a8-2cb9-4878-9a42-aaf02e9fe0be","ba640c14-69c5-453e-80b2-29051492c0e0","{""num_scrambled_semantic"":""8"",""num_scrambled_causal"":""4"",""num_scrambled_schematic"":""4"",""participantId"":""23E67C9D42D94C8C9EFE0C5C4F68E25E"",""assignmentId"":""8975c1a8-2cb9-4878-9a42-aaf02e9fe0be"",""projectId"":""ba640c14-69c5-453e-80b2-29051492c0e0""}","https://test12345.live/?num_scrambled_semantic=8&num_scrambled_causal=4&num_scrambled_schematic=4&participantId=23E67C9D42D94C8C9EFE0C5C4F68E25E&assignmentId=8975c1a8-2cb9-4878-9a42-aaf02e9fe0be&projectId=ba640c14-69c5-453e-80b2-29051492c0e0","23E67C9D42D94C8C9EFE0C5C4F68E25E-2025-05-14-21-05-31","","null","","images/semantic_sequence/kitchen_operations_semantic/kitchen_operations_semantic_3.png","null","",""
"","","","","","image-button-response","73","615985","0.0-12.0-1.0-1.5","23E67C9D42D94C8C9EFE0C5C4F68E25E","23E67C9D42D94C8C9EFE0C5C4F68E25E","8975c1a8-2cb9-4878-9a42-aaf02e9fe0be","ba640c14-69c5-453e-80b2-29051492c0e0","{""num_scrambled_semantic"":""8"",""num_scrambled_causal"":""4"",""num_scrambled_schematic"":""4"",""participantId"":""23E67C9D42D94C8C9EFE0C5C4F68E25E"",""assignmentId"":""8975c1a8-2cb9-4878-9a42-aaf02e9fe0be"",""projectId"":""ba640c14-69c5-453e-80b2-29051492c0e0""}","https://test12345.live/?num_scrambled_semantic=8&num_scrambled_causal=4&num_scrambled_schematic=4&participantId=23E67C9D42D94C8C9EFE0C5C4F68E25E&assignmentId=8975c1a8-2cb9-4878-9a42-aaf02e9fe0be&projectId=ba640c14-69c5-453e-80b2-29051492c0e0","23E67C9D42D94C8C9EFE0C5C4F68E25E-2025-05-14-21-05-31","","924","","images/semantic_sequence/kitchen_operations_semantic/kitchen_operations_semantic_3.png","0","",""
"","","","","","image-button-response","74","617787","0.0-12.0-1.0-2.5","23E67C9D42D94C8C9EFE0C5C4F68E25E","23E67C9D42D94C8C9EFE0C5C4F68E25E","8975c1a8-2cb9-4878-9a42-aaf02e9fe0be","ba640c14-69c5-453e-80b2-29051492c0e0","{""num_scrambled_semantic"":""8"",""num_scrambled_causal"":""4"",""num_scrambled_schematic"":""4"",""participantId"":""23E67C9D42D94C8C9EFE0C5C4F68E25E"",""assignmentId"":""8975c1a8-2cb9-4878-9a42-aaf02e9fe0be"",""projectId"":""ba640c14-69c5-453e-80b2-29051492c0e0""}","https://test12345.live/?num_scrambled_semantic=8&num_scrambled_causal=4&num_scrambled_schematic=4&participantId=23E67C9D42D94C8C9EFE0C5C4F68E25E&assignmentId=8975c1a8-2cb9-4878-9a42-aaf02e9fe0be&projectId=ba640c14-69c5-453e-80b2-29051492c0e0","23E67C9D42D94C8C9EFE0C5C4F68E25E-2025-05-14-21-05-31","","null","","[]","null","",""
"","","","","","image-button-response","75","622289","0.0-12.0-1.0-0.6","23E67C9D42D94C8C9EFE0C5C4F68E25E","23E67C9D42D94C8C9EFE0C5C4F68E25E","8975c1a8-2cb9-4878-9a42-aaf02e9fe0be","ba640c14-69c5-453e-80b2-29051492c0e0","{""num_scrambled_semantic"":""8"",""num_scrambled_causal"":""4"",""num_scrambled_schematic"":""4"",""participantId"":""23E67C9D42D94C8C9EFE0C5C4F68E25E"",""assignmentId"":""8975c1a8-2cb9-4878-9a42-aaf02e9fe0be"",""projectId"":""ba640c14-69c5-453e-80b2-29051492c0e0""}","https://test12345.live/?num_scrambled_semantic=8&num_scrambled_causal=4&num_scrambled_schematic=4&participantId=23E67C9D42D94C8C9EFE0C5C4F68E25E&assignmentId=8975c1a8-2cb9-4878-9a42-aaf02e9fe0be&projectId=ba640c14-69c5-453e-80b2-29051492c0e0","23E67C9D42D94C8C9EFE0C5C4F68E25E-2025-05-14-21-05-31","","null","","images/semantic_sequence/kitchen_operations_semantic/kitchen_operations_semantic_9.png","null","",""
"","","","","","image-button-response","76","623975","0.0-12.0-1.0-1.6","23E67C9D42D94C8C9EFE0C5C4F68E25E","23E67C9D42D94C8C9EFE0C5C4F68E25E","8975c1a8-2cb9-4878-9a42-aaf02e9fe0be","ba640c14-69c5-453e-80b2-29051492c0e0","{""num_scrambled_semantic"":""8"",""num_scrambled_causal"":""4"",""num_scrambled_schematic"":""4"",""participantId"":""23E67C9D42D94C8C9EFE0C5C4F68E25E"",""assignmentId"":""8975c1a8-2cb9-4878-9a42-aaf02e9fe0be"",""projectId"":""ba640c14-69c5-453e-80b2-29051492c0e0""}","https://test12345.live/?num_scrambled_semantic=8&num_scrambled_causal=4&num_scrambled_schematic=4&participantId=23E67C9D42D94C8C9EFE0C5C4F68E25E&assignmentId=8975c1a8-2cb9-4878-9a42-aaf02e9fe0be&projectId=ba640c14-69c5-453e-80b2-29051492c0e0","23E67C9D42D94C8C9EFE0C5C4F68E25E-2025-05-14-21-05-31","","1685","","images/semantic_sequence/kitchen_operations_semantic/kitchen_operations_semantic_9.png","0","",""
"","","","","","image-button-response","77","625776","0.0-12.0-1.0-2.6","23E67C9D42D94C8C9EFE0C5C4F68E25E","23E67C9D42D94C8C9EFE0C5C4F68E25E","8975c1a8-2cb9-4878-9a42-aaf02e9fe0be","ba640c14-69c5-453e-80b2-29051492c0e0","{""num_scrambled_semantic"":""8"",""num_scrambled_causal"":""4"",""num_scrambled_schematic"":""4"",""participantId"":""23E67C9D42D94C8C9EFE0C5C4F68E25E"",""assignmentId"":""8975c1a8-2cb9-4878-9a42-aaf02e9fe0be"",""projectId"":""ba640c14-69c5-453e-80b2-29051492c0e0""}","https://test12345.live/?num_scrambled_semantic=8&num_scrambled_causal=4&num_scrambled_schematic=4&participantId=23E67C9D42D94C8C9EFE0C5C4F68E25E&assignmentId=8975c1a8-2cb9-4878-9a42-aaf02e9fe0be&projectId=ba640c14-69c5-453e-80b2-29051492c0e0","23E67C9D42D94C8C9EFE0C5C4F68E25E-2025-05-14-21-05-31","","null","","[]","null","",""
"","","","","","image-button-response","78","630277","0.0-12.0-1.0-0.7","23E67C9D42D94C8C9EFE0C5C4F68E25E","23E67C9D42D94C8C9EFE0C5C4F68E25E","8975c1a8-2cb9-4878-9a42-aaf02e9fe0be","ba640c14-69c5-453e-80b2-29051492c0e0","{""num_scrambled_semantic"":""8"",""num_scrambled_causal"":""4"",""num_scrambled_schematic"":""4"",""participantId"":""23E67C9D42D94C8C9EFE0C5C4F68E25E"",""assignmentId"":""8975c1a8-2cb9-4878-9a42-aaf02e9fe0be"",""projectId"":""ba640c14-69c5-453e-80b2-29051492c0e0""}","https://test12345.live/?num_scrambled_semantic=8&num_scrambled_causal=4&num_scrambled_schematic=4&participantId=23E67C9D42D94C8C9EFE0C5C4F68E25E&assignmentId=8975c1a8-2cb9-4878-9a42-aaf02e9fe0be&projectId=ba640c14-69c5-453e-80b2-29051492c0e0","23E67C9D42D94C8C9EFE0C5C4F68E25E-2025-05-14-21-05-31","","null","","images/semantic_sequence/kitchen_operations_semantic/kitchen_operations_semantic_ten.png","null","",""
"","","","","","image-button-response","79","631342","0.0-12.0-1.0-1.7","23E67C9D42D94C8C9EFE0C5C4F68E25E","23E67C9D42D94C8C9EFE0C5C4F68E25E","8975c1a8-2cb9-4878-9a42-aaf02e9fe0be","ba640c14-69c5-453e-80b2-29051492c0e0","{""num_scrambled_semantic"":""8"",""num_scrambled_causal"":""4"",""num_scrambled_schematic"":""4"",""participantId"":""23E67C9D42D94C8C9EFE0C5C4F68E25E"",""assignmentId"":""8975c1a8-2cb9-4878-9a42-aaf02e9fe0be"",""projectId"":""ba640c14-69c5-453e-80b2-29051492c0e0""}","https://test12345.live/?num_scrambled_semantic=8&num_scrambled_causal=4&num_scrambled_schematic=4&participantId=23E67C9D42D94C8C9EFE0C5C4F68E25E&assignmentId=8975c1a8-2cb9-4878-9a42-aaf02e9fe0be&projectId=ba640c14-69c5-453e-80b2-29051492c0e0","23E67C9D42D94C8C9EFE0C5C4F68E25E-2025-05-14-21-05-31","","1064","","images/semantic_sequence/kitchen_operations_semantic/kitchen_operations_semantic_ten.png","0","",""
"","","","","","image-button-response","80","633145","0.0-12.0-1.0-2.7","23E67C9D42D94C8C9EFE0C5C4F68E25E","23E67C9D42D94C8C9EFE0C5C4F68E25E","8975c1a8-2cb9-4878-9a42-aaf02e9fe0be","ba640c14-69c5-453e-80b2-29051492c0e0","{""num_scrambled_semantic"":""8"",""num_scrambled_causal"":""4"",""num_scrambled_schematic"":""4"",""participantId"":""23E67C9D42D94C8C9EFE0C5C4F68E25E"",""assignmentId"":""8975c1a8-2cb9-4878-9a42-aaf02e9fe0be"",""projectId"":""ba640c14-69c5-453e-80b2-29051492c0e0""}","https://test12345.live/?num_scrambled_semantic=8&num_scrambled_causal=4&num_scrambled_schematic=4&participantId=23E67C9D42D94C8C9EFE0C5C4F68E25E&assignmentId=8975c1a8-2cb9-4878-9a42-aaf02e9fe0be&projectId=ba640c14-69c5-453e-80b2-29051492c0e0","23E67C9D42D94C8C9EFE0C5C4F68E25E-2025-05-14-21-05-31","","null","","[]","null","",""
"","","","","","image-button-response","81","637645","0.0-12.0-1.0-0.8","23E67C9D42D94C8C9EFE0C5C4F68E25E","23E67C9D42D94C8C9EFE0C5C4F68E25E","8975c1a8-2cb9-4878-9a42-aaf02e9fe0be","ba640c14-69c5-453e-80b2-29051492c0e0","{""num_scrambled_semantic"":""8"",""num_scrambled_causal"":""4"",""num_scrambled_schematic"":""4"",""participantId"":""23E67C9D42D94C8C9EFE0C5C4F68E25E"",""assignmentId"":""8975c1a8-2cb9-4878-9a42-aaf02e9fe0be"",""projectId"":""ba640c14-69c5-453e-80b2-29051492c0e0""}","https://test12345.live/?num_scrambled_semantic=8&num_scrambled_causal=4&num_scrambled_schematic=4&participantId=23E67C9D42D94C8C9EFE0C5C4F68E25E&assignmentId=8975c1a8-2cb9-4878-9a42-aaf02e9fe0be&projectId=ba640c14-69c5-453e-80b2-29051492c0e0","23E67C9D42D94C8C9EFE0C5C4F68E25E-2025-05-14-21-05-31","","null","","images/semantic_sequence/kitchen_operations_semantic/kitchen_operations_semantic_2.png","null","",""
"","","","","","image-button-response","82","638692","0.0-12.0-1.0-1.8","23E67C9D42D94C8C9EFE0C5C4F68E25E","23E67C9D42D94C8C9EFE0C5C4F68E25E","8975c1a8-2cb9-4878-9a42-aaf02e9fe0be","ba640c14-69c5-453e-80b2-29051492c0e0","{""num_scrambled_semantic"":""8"",""num_scrambled_causal"":""4"",""num_scrambled_schematic"":""4"",""participantId"":""23E67C9D42D94C8C9EFE0C5C4F68E25E"",""assignmentId"":""8975c1a8-2cb9-4878-9a42-aaf02e9fe0be"",""projectId"":""ba640c14-69c5-453e-80b2-29051492c0e0""}","https://test12345.live/?num_scrambled_semantic=8&num_scrambled_causal=4&num_scrambled_schematic=4&participantId=23E67C9D42D94C8C9EFE0C5C4F68E25E&assignmentId=8975c1a8-2cb9-4878-9a42-aaf02e9fe0be&projectId=ba640c14-69c5-453e-80b2-29051492c0e0","23E67C9D42D94C8C9EFE0C5C4F68E25E-2025-05-14-21-05-31","","1046","","images/semantic_sequence/kitchen_operations_semantic/kitchen_operations_semantic_2.png","0","",""
"","","","","","image-button-response","83","640493","0.0-12.0-1.0-2.8","23E67C9D42D94C8C9EFE0C5C4F68E25E","23E67C9D42D94C8C9EFE0C5C4F68E25E","8975c1a8-2cb9-4878-9a42-aaf02e9fe0be","ba640c14-69c5-453e-80b2-29051492c0e0","{""num_scrambled_semantic"":""8"",""num_scrambled_causal"":""4"",""num_scrambled_schematic"":""4"",""participantId"":""23E67C9D42D94C8C9EFE0C5C4F68E25E"",""assignmentId"":""8975c1a8-2cb9-4878-9a42-aaf02e9fe0be"",""projectId"":""ba640c14-69c5-453e-80b2-29051492c0e0""}","https://test12345.live/?num_scrambled_semantic=8&num_scrambled_causal=4&num_scrambled_schematic=4&participantId=23E67C9D42D94C8C9EFE0C5C4F68E25E&assignmentId=8975c1a8-2cb9-4878-9a42-aaf02e9fe0be&projectId=ba640c14-69c5-453e-80b2-29051492c0e0","23E67C9D42D94C8C9EFE0C5C4F68E25E-2025-05-14-21-05-31","","null","","[]","null","",""
"","","","","","image-button-response","84","644994","0.0-12.0-1.0-0.9","23E67C9D42D94C8C9EFE0C5C4F68E25E","23E67C9D42D94C8C9EFE0C5C4F68E25E","8975c1a8-2cb9-4878-9a42-aaf02e9fe0be","ba640c14-69c5-453e-80b2-29051492c0e0","{""num_scrambled_semantic"":""8"",""num_scrambled_causal"":""4"",""num_scrambled_schematic"":""4"",""participantId"":""23E67C9D42D94C8C9EFE0C5C4F68E25E"",""assignmentId"":""8975c1a8-2cb9-4878-9a42-aaf02e9fe0be"",""projectId"":""ba640c14-69c5-453e-80b2-29051492c0e0""}","https://test12345.live/?num_scrambled_semantic=8&num_scrambled_causal=4&num_scrambled_schematic=4&participantId=23E67C9D42D94C8C9EFE0C5C4F68E25E&assignmentId=8975c1a8-2cb9-4878-9a42-aaf02e9fe0be&projectId=ba640c14-69c5-453e-80b2-29051492c0e0","23E67C9D42D94C8C9EFE0C5C4F68E25E-2025-05-14-21-05-31","","null","","images/semantic_sequence/kitchen_operations_semantic/kitchen_operations_semantic_8.png","null","",""
"","","","","","image-button-response","85","645965","0.0-12.0-1.0-1.9","23E67C9D42D94C8C9EFE0C5C4F68E25E","23E67C9D42D94C8C9EFE0C5C4F68E25E","8975c1a8-2cb9-4878-9a42-aaf02e9fe0be","ba640c14-69c5-453e-80b2-29051492c0e0","{""num_scrambled_semantic"":""8"",""num_scrambled_causal"":""4"",""num_scrambled_schematic"":""4"",""participantId"":""23E67C9D42D94C8C9EFE0C5C4F68E25E"",""assignmentId"":""8975c1a8-2cb9-4878-9a42-aaf02e9fe0be"",""projectId"":""ba640c14-69c5-453e-80b2-29051492c0e0""}","https://test12345.live/?num_scrambled_semantic=8&num_scrambled_causal=4&num_scrambled_schematic=4&participantId=23E67C9D42D94C8C9EFE0C5C4F68E25E&assignmentId=8975c1a8-2cb9-4878-9a42-aaf02e9fe0be&projectId=ba640c14-69c5-453e-80b2-29051492c0e0","23E67C9D42D94C8C9EFE0C5C4F68E25E-2025-05-14-21-05-31","","971","","images/semantic_sequence/kitchen_operations_semantic/kitchen_operations_semantic_8.png","0","",""
"","","","","","image-button-response","86","647768","0.0-12.0-1.0-2.9","23E67C9D42D94C8C9EFE0C5C4F68E25E","23E67C9D42D94C8C9EFE0C5C4F68E25E","8975c1a8-2cb9-4878-9a42-aaf02e9fe0be","ba640c14-69c5-453e-80b2-29051492c0e0","{""num_scrambled_semantic"":""8"",""num_scrambled_causal"":""4"",""num_scrambled_schematic"":""4"",""participantId"":""23E67C9D42D94C8C9EFE0C5C4F68E25E"",""assignmentId"":""8975c1a8-2cb9-4878-9a42-aaf02e9fe0be"",""projectId"":""ba640c14-69c5-453e-80b2-29051492c0e0""}","https://test12345.live/?num_scrambled_semantic=8&num_scrambled_causal=4&num_scrambled_schematic=4&participantId=23E67C9D42D94C8C9EFE0C5C4F68E25E&assignmentId=8975c1a8-2cb9-4878-9a42-aaf02e9fe0be&projectId=ba640c14-69c5-453e-80b2-29051492c0e0","23E67C9D42D94C8C9EFE0C5C4F68E25E-2025-05-14-21-05-31","","null","","[]","null","",""
"","","","","","html-audio-response","87","729319","0.0-13.0","23E67C9D42D94C8C9EFE0C5C4F68E25E","23E67C9D42D94C8C9EFE0C5C4F68E25E","8975c1a8-2cb9-4878-9a42-aaf02e9fe0be","ba640c14-69c5-453e-80b2-29051492c0e0","{""num_scrambled_semantic"":""8"",""num_scrambled_causal"":""4"",""num_scrambled_schematic"":""4"",""participantId"":""23E67C9D42D94C8C9EFE0C5C4F68E25E"",""assignmentId"":""8975c1a8-2cb9-4878-9a42-aaf02e9fe0be"",""projectId"":""ba640c14-69c5-453e-80b2-29051492c0e0""}","https://test12345.live/?num_scrambled_semantic=8&num_scrambled_causal=4&num_scrambled_schematic=4&participantId=23E67C9D42D94C8C9EFE0C5C4F68E25E&assignmentId=8975c1a8-2cb9-4878-9a42-aaf02e9fe0be&projectId=ba640c14-69c5-453e-80b2-29051492c0e0","23E67C9D42D94C8C9EFE0C5C4F68E25E-2025-05-14-21-05-31","","11646","","[""<span style=\""color: red; font-size: 24px\""> NOW RECORDING</span><p>Please say out loud all the images you saw, as many as you can remember. The images can be said in any order.</p>""]","","1","kitchen_operations_semantic"
"","","","","","image-button-response","88","735320","0.0-14.0-0.0","23E67C9D42D94C8C9EFE0C5C4F68E25E","23E67C9D42D94C8C9EFE0C5C4F68E25E","8975c1a8-2cb9-4878-9a42-aaf02e9fe0be","ba640c14-69c5-453e-80b2-29051492c0e0","{""num_scrambled_semantic"":""8"",""num_scrambled_causal"":""4"",""num_scrambled_schematic"":""4"",""participantId"":""23E67C9D42D94C8C9EFE0C5C4F68E25E"",""assignmentId"":""8975c1a8-2cb9-4878-9a42-aaf02e9fe0be"",""projectId"":""ba640c14-69c5-453e-80b2-29051492c0e0""}","https://test12345.live/?num_scrambled_semantic=8&num_scrambled_causal=4&num_scrambled_schematic=4&participantId=23E67C9D42D94C8C9EFE0C5C4F68E25E&assignmentId=8975c1a8-2cb9-4878-9a42-aaf02e9fe0be&projectId=ba640c14-69c5-453e-80b2-29051492c0e0","23E67C9D42D94C8C9EFE0C5C4F68E25E-2025-05-14-21-05-31","","null","","images/semantic_sequence/visiting_cities_semantic/visiting_cities_semantic_0.png","null","",""
"","","","","","image-button-response","89","739822","0.0-14.0-1.0-0.0","23E67C9D42D94C8C9EFE0C5C4F68E25E","23E67C9D42D94C8C9EFE0C5C4F68E25E","8975c1a8-2cb9-4878-9a42-aaf02e9fe0be","ba640c14-69c5-453e-80b2-29051492c0e0","{""num_scrambled_semantic"":""8"",""num_scrambled_causal"":""4"",""num_scrambled_schematic"":""4"",""participantId"":""23E67C9D42D94C8C9EFE0C5C4F68E25E"",""assignmentId"":""8975c1a8-2cb9-4878-9a42-aaf02e9fe0be"",""projectId"":""ba640c14-69c5-453e-80b2-29051492c0e0""}","https://test12345.live/?num_scrambled_semantic=8&num_scrambled_causal=4&num_scrambled_schematic=4&participantId=23E67C9D42D94C8C9EFE0C5C4F68E25E&assignmentId=8975c1a8-2cb9-4878-9a42-aaf02e9fe0be&projectId=ba640c14-69c5-453e-80b2-29051492c0e0","23E67C9D42D94C8C9EFE0C5C4F68E25E-2025-05-14-21-05-31","","null","","images/semantic_sequence/visiting_cities_semantic/visiting_cities_semantic_4.png","null","",""
"","","","","","image-button-response","90","741803","0.0-14.0-1.0-1.0","23E67C9D42D94C8C9EFE0C5C4F68E25E","23E67C9D42D94C8C9EFE0C5C4F68E25E","8975c1a8-2cb9-4878-9a42-aaf02e9fe0be","ba640c14-69c5-453e-80b2-29051492c0e0","{""num_scrambled_semantic"":""8"",""num_scrambled_causal"":""4"",""num_scrambled_schematic"":""4"",""participantId"":""23E67C9D42D94C8C9EFE0C5C4F68E25E"",""assignmentId"":""8975c1a8-2cb9-4878-9a42-aaf02e9fe0be"",""projectId"":""ba640c14-69c5-453e-80b2-29051492c0e0""}","https://test12345.live/?num_scrambled_semantic=8&num_scrambled_causal=4&num_scrambled_schematic=4&participantId=23E67C9D42D94C8C9EFE0C5C4F68E25E&assignmentId=8975c1a8-2cb9-4878-9a42-aaf02e9fe0be&projectId=ba640c14-69c5-453e-80b2-29051492c0e0","23E67C9D42D94C8C9EFE0C5C4F68E25E-2025-05-14-21-05-31","","1980","","images/semantic_sequence/visiting_cities_semantic/visiting_cities_semantic_4.png","1","",""
"","","","","","image-button-response","91","743604","0.0-14.0-1.0-2.0","23E67C9D42D94C8C9EFE0C5C4F68E25E","23E67C9D42D94C8C9EFE0C5C4F68E25E","8975c1a8-2cb9-4878-9a42-aaf02e9fe0be","ba640c14-69c5-453e-80b2-29051492c0e0","{""num_scrambled_semantic"":""8"",""num_scrambled_causal"":""4"",""num_scrambled_schematic"":""4"",""participantId"":""23E67C9D42D94C8C9EFE0C5C4F68E25E"",""assignmentId"":""8975c1a8-2cb9-4878-9a42-aaf02e9fe0be"",""projectId"":""ba640c14-69c5-453e-80b2-29051492c0e0""}","https://test12345.live/?num_scrambled_semantic=8&num_scrambled_causal=4&num_scrambled_schematic=4&participantId=23E67C9D42D94C8C9EFE0C5C4F68E25E&assignmentId=8975c1a8-2cb9-4878-9a42-aaf02e9fe0be&projectId=ba640c14-69c5-453e-80b2-29051492c0e0","23E67C9D42D94C8C9EFE0C5C4F68E25E-2025-05-14-21-05-31","","null","","[]","null","",""
"","","","","","image-button-response","92","748106","0.0-14.0-1.0-0.1","23E67C9D42D94C8C9EFE0C5C4F68E25E","23E67C9D42D94C8C9EFE0C5C4F68E25E","8975c1a8-2cb9-4878-9a42-aaf02e9fe0be","ba640c14-69c5-453e-80b2-29051492c0e0","{""num_scrambled_semantic"":""8"",""num_scrambled_causal"":""4"",""num_scrambled_schematic"":""4"",""participantId"":""23E67C9D42D94C8C9EFE0C5C4F68E25E"",""assignmentId"":""8975c1a8-2cb9-4878-9a42-aaf02e9fe0be"",""projectId"":""ba640c14-69c5-453e-80b2-29051492c0e0""}","https://test12345.live/?num_scrambled_semantic=8&num_scrambled_causal=4&num_scrambled_schematic=4&participantId=23E67C9D42D94C8C9EFE0C5C4F68E25E&assignmentId=8975c1a8-2cb9-4878-9a42-aaf02e9fe0be&projectId=ba640c14-69c5-453e-80b2-29051492c0e0","23E67C9D42D94C8C9EFE0C5C4F68E25E-2025-05-14-21-05-31","","null","","images/semantic_sequence/visiting_cities_semantic/visiting_cities_semantic_2.png","null","",""
"","","","","","image-button-response","93","748900","0.0-14.0-1.0-1.1","23E67C9D42D94C8C9EFE0C5C4F68E25E","23E67C9D42D94C8C9EFE0C5C4F68E25E","8975c1a8-2cb9-4878-9a42-aaf02e9fe0be","ba640c14-69c5-453e-80b2-29051492c0e0","{""num_scrambled_semantic"":""8"",""num_scrambled_causal"":""4"",""num_scrambled_schematic"":""4"",""participantId"":""23E67C9D42D94C8C9EFE0C5C4F68E25E"",""assignmentId"":""8975c1a8-2cb9-4878-9a42-aaf02e9fe0be"",""projectId"":""ba640c14-69c5-453e-80b2-29051492c0e0""}","https://test12345.live/?num_scrambled_semantic=8&num_scrambled_causal=4&num_scrambled_schematic=4&participantId=23E67C9D42D94C8C9EFE0C5C4F68E25E&assignmentId=8975c1a8-2cb9-4878-9a42-aaf02e9fe0be&projectId=ba640c14-69c5-453e-80b2-29051492c0e0","23E67C9D42D94C8C9EFE0C5C4F68E25E-2025-05-14-21-05-31","","793","","images/semantic_sequence/visiting_cities_semantic/visiting_cities_semantic_2.png","1","",""
"","","","","","image-button-response","94","750702","0.0-14.0-1.0-2.1","23E67C9D42D94C8C9EFE0C5C4F68E25E","23E67C9D42D94C8C9EFE0C5C4F68E25E","8975c1a8-2cb9-4878-9a42-aaf02e9fe0be","ba640c14-69c5-453e-80b2-29051492c0e0","{""num_scrambled_semantic"":""8"",""num_scrambled_causal"":""4"",""num_scrambled_schematic"":""4"",""participantId"":""23E67C9D42D94C8C9EFE0C5C4F68E25E"",""assignmentId"":""8975c1a8-2cb9-4878-9a42-aaf02e9fe0be"",""projectId"":""ba640c14-69c5-453e-80b2-29051492c0e0""}","https://test12345.live/?num_scrambled_semantic=8&num_scrambled_causal=4&num_scrambled_schematic=4&participantId=23E67C9D42D94C8C9EFE0C5C4F68E25E&assignmentId=8975c1a8-2cb9-4878-9a42-aaf02e9fe0be&projectId=ba640c14-69c5-453e-80b2-29051492c0e0","23E67C9D42D94C8C9EFE0C5C4F68E25E-2025-05-14-21-05-31","","null","","[]","null","",""
"","","","","","image-button-response","95","755203","0.0-14.0-1.0-0.2","23E67C9D42D94C8C9EFE0C5C4F68E25E","23E67C9D42D94C8C9EFE0C5C4F68E25E","8975c1a8-2cb9-4878-9a42-aaf02e9fe0be","ba640c14-69c5-453e-80b2-29051492c0e0","{""num_scrambled_semantic"":""8"",""num_scrambled_causal"":""4"",""num_scrambled_schematic"":""4"",""participantId"":""23E67C9D42D94C8C9EFE0C5C4F68E25E"",""assignmentId"":""8975c1a8-2cb9-4878-9a42-aaf02e9fe0be"",""projectId"":""ba640c14-69c5-453e-80b2-29051492c0e0""}","https://test12345.live/?num_scrambled_semantic=8&num_scrambled_causal=4&num_scrambled_schematic=4&participantId=23E67C9D42D94C8C9EFE0C5C4F68E25E&assignmentId=8975c1a8-2cb9-4878-9a42-aaf02e9fe0be&projectId=ba640c14-69c5-453e-80b2-29051492c0e0","23E67C9D42D94C8C9EFE0C5C4F68E25E-2025-05-14-21-05-31","","null","","images/semantic_sequence/visiting_cities_semantic/visiting_cities_semantic_1.png","null","",""
"","","","","","image-button-response","96","756225","0.0-14.0-1.0-1.2","23E67C9D42D94C8C9EFE0C5C4F68E25E","23E67C9D42D94C8C9EFE0C5C4F68E25E","8975c1a8-2cb9-4878-9a42-aaf02e9fe0be","ba640c14-69c5-453e-80b2-29051492c0e0","{""num_scrambled_semantic"":""8"",""num_scrambled_causal"":""4"",""num_scrambled_schematic"":""4"",""participantId"":""23E67C9D42D94C8C9EFE0C5C4F68E25E"",""assignmentId"":""8975c1a8-2cb9-4878-9a42-aaf02e9fe0be"",""projectId"":""ba640c14-69c5-453e-80b2-29051492c0e0""}","https://test12345.live/?num_scrambled_semantic=8&num_scrambled_causal=4&num_scrambled_schematic=4&participantId=23E67C9D42D94C8C9EFE0C5C4F68E25E&assignmentId=8975c1a8-2cb9-4878-9a42-aaf02e9fe0be&projectId=ba640c14-69c5-453e-80b2-29051492c0e0","23E67C9D42D94C8C9EFE0C5C4F68E25E-2025-05-14-21-05-31","","1022","","images/semantic_sequence/visiting_cities_semantic/visiting_cities_semantic_1.png","1","",""
"","","","","","image-button-response","97","758027","0.0-14.0-1.0-2.2","23E67C9D42D94C8C9EFE0C5C4F68E25E","23E67C9D42D94C8C9EFE0C5C4F68E25E","8975c1a8-2cb9-4878-9a42-aaf02e9fe0be","ba640c14-69c5-453e-80b2-29051492c0e0","{""num_scrambled_semantic"":""8"",""num_scrambled_causal"":""4"",""num_scrambled_schematic"":""4"",""participantId"":""23E67C9D42D94C8C9EFE0C5C4F68E25E"",""assignmentId"":""8975c1a8-2cb9-4878-9a42-aaf02e9fe0be"",""projectId"":""ba640c14-69c5-453e-80b2-29051492c0e0""}","https://test12345.live/?num_scrambled_semantic=8&num_scrambled_causal=4&num_scrambled_schematic=4&participantId=23E67C9D42D94C8C9EFE0C5C4F68E25E&assignmentId=8975c1a8-2cb9-4878-9a42-aaf02e9fe0be&projectId=ba640c14-69c5-453e-80b2-29051492c0e0","23E67C9D42D94C8C9EFE0C5C4F68E25E-2025-05-14-21-05-31","","null","","[]","null","",""
"","","","","","image-button-response","98","762528","0.0-14.0-1.0-0.3","23E67C9D42D94C8C9EFE0C5C4F68E25E","23E67C9D42D94C8C9EFE0C5C4F68E25E","8975c1a8-2cb9-4878-9a42-aaf02e9fe0be","ba640c14-69c5-453e-80b2-29051492c0e0","{""num_scrambled_semantic"":""8"",""num_scrambled_causal"":""4"",""num_scrambled_schematic"":""4"",""participantId"":""23E67C9D42D94C8C9EFE0C5C4F68E25E"",""assignmentId"":""8975c1a8-2cb9-4878-9a42-aaf02e9fe0be"",""projectId"":""ba640c14-69c5-453e-80b2-29051492c0e0""}","https://test12345.live/?num_scrambled_semantic=8&num_scrambled_causal=4&num_scrambled_schematic=4&participantId=23E67C9D42D94C8C9EFE0C5C4F68E25E&assignmentId=8975c1a8-2cb9-4878-9a42-aaf02e9fe0be&projectId=ba640c14-69c5-453e-80b2-29051492c0e0","23E67C9D42D94C8C9EFE0C5C4F68E25E-2025-05-14-21-05-31","","null","","images/semantic_sequence/visiting_cities_semantic/visiting_cities_semantic_5.png","null","",""
"","","","","","image-button-response","99","763770","0.0-14.0-1.0-1.3","23E67C9D42D94C8C9EFE0C5C4F68E25E","23E67C9D42D94C8C9EFE0C5C4F68E25E","8975c1a8-2cb9-4878-9a42-aaf02e9fe0be","ba640c14-69c5-453e-80b2-29051492c0e0","{""num_scrambled_semantic"":""8"",""num_scrambled_causal"":""4"",""num_scrambled_schematic"":""4"",""participantId"":""23E67C9D42D94C8C9EFE0C5C4F68E25E"",""assignmentId"":""8975c1a8-2cb9-4878-9a42-aaf02e9fe0be"",""projectId"":""ba640c14-69c5-453e-80b2-29051492c0e0""}","https://test12345.live/?num_scrambled_semantic=8&num_scrambled_causal=4&num_scrambled_schematic=4&participantId=23E67C9D42D94C8C9EFE0C5C4F68E25E&assignmentId=8975c1a8-2cb9-4878-9a42-aaf02e9fe0be&projectId=ba640c14-69c5-453e-80b2-29051492c0e0","23E67C9D42D94C8C9EFE0C5C4F68E25E-2025-05-14-21-05-31","","1241","","images/semantic_sequence/visiting_cities_semantic/visiting_cities_semantic_5.png","1","",""
"","","","","","image-button-response","100","765571","0.0-14.0-1.0-2.3","23E67C9D42D94C8C9EFE0C5C4F68E25E","23E67C9D42D94C8C9EFE0C5C4F68E25E","8975c1a8-2cb9-4878-9a42-aaf02e9fe0be","ba640c14-69c5-453e-80b2-29051492c0e0","{""num_scrambled_semantic"":""8"",""num_scrambled_causal"":""4"",""num_scrambled_schematic"":""4"",""participantId"":""23E67C9D42D94C8C9EFE0C5C4F68E25E"",""assignmentId"":""8975c1a8-2cb9-4878-9a42-aaf02e9fe0be"",""projectId"":""ba640c14-69c5-453e-80b2-29051492c0e0""}","https://test12345.live/?num_scrambled_semantic=8&num_scrambled_causal=4&num_scrambled_schematic=4&participantId=23E67C9D42D94C8C9EFE0C5C4F68E25E&assignmentId=8975c1a8-2cb9-4878-9a42-aaf02e9fe0be&projectId=ba640c14-69c5-453e-80b2-29051492c0e0","23E67C9D42D94C8C9EFE0C5C4F68E25E-2025-05-14-21-05-31","","null","","[]","null","",""
"","","","","","image-button-response","101","770073","0.0-14.0-1.0-0.4","23E67C9D42D94C8C9EFE0C5C4F68E25E","23E67C9D42D94C8C9EFE0C5C4F68E25E","8975c1a8-2cb9-4878-9a42-aaf02e9fe0be","ba640c14-69c5-453e-80b2-29051492c0e0","{""num_scrambled_semantic"":""8"",""num_scrambled_causal"":""4"",""num_scrambled_schematic"":""4"",""participantId"":""23E67C9D42D94C8C9EFE0C5C4F68E25E"",""assignmentId"":""8975c1a8-2cb9-4878-9a42-aaf02e9fe0be"",""projectId"":""ba640c14-69c5-453e-80b2-29051492c0e0""}","https://test12345.live/?num_scrambled_semantic=8&num_scrambled_causal=4&num_scrambled_schematic=4&participantId=23E67C9D42D94C8C9EFE0C5C4F68E25E&assignmentId=8975c1a8-2cb9-4878-9a42-aaf02e9fe0be&projectId=ba640c14-69c5-453e-80b2-29051492c0e0","23E67C9D42D94C8C9EFE0C5C4F68E25E-2025-05-14-21-05-31","","null","","images/semantic_sequence/visiting_cities_semantic/visiting_cities_semantic_8.png","null","",""
"","","","","","image-button-response","102","771202","0.0-14.0-1.0-1.4","23E67C9D42D94C8C9EFE0C5C4F68E25E","23E67C9D42D94C8C9EFE0C5C4F68E25E","8975c1a8-2cb9-4878-9a42-aaf02e9fe0be","ba640c14-69c5-453e-80b2-29051492c0e0","{""num_scrambled_semantic"":""8"",""num_scrambled_causal"":""4"",""num_scrambled_schematic"":""4"",""participantId"":""23E67C9D42D94C8C9EFE0C5C4F68E25E"",""assignmentId"":""8975c1a8-2cb9-4878-9a42-aaf02e9fe0be"",""projectId"":""ba640c14-69c5-453e-80b2-29051492c0e0""}","https://test12345.live/?num_scrambled_semantic=8&num_scrambled_causal=4&num_scrambled_schematic=4&participantId=23E67C9D42D94C8C9EFE0C5C4F68E25E&assignmentId=8975c1a8-2cb9-4878-9a42-aaf02e9fe0be&projectId=ba640c14-69c5-453e-80b2-29051492c0e0","23E67C9D42D94C8C9EFE0C5C4F68E25E-2025-05-14-21-05-31","","1128","","images/semantic_sequence/visiting_cities_semantic/visiting_cities_semantic_8.png","1","",""
"","","","","","image-button-response","103","773004","0.0-14.0-1.0-2.4","23E67C9D42D94C8C9EFE0C5C4F68E25E","23E67C9D42D94C8C9EFE0C5C4F68E25E","8975c1a8-2cb9-4878-9a42-aaf02e9fe0be","ba640c14-69c5-453e-80b2-29051492c0e0","{""num_scrambled_semantic"":""8"",""num_scrambled_causal"":""4"",""num_scrambled_schematic"":""4"",""participantId"":""23E67C9D42D94C8C9EFE0C5C4F68E25E"",""assignmentId"":""8975c1a8-2cb9-4878-9a42-aaf02e9fe0be"",""projectId"":""ba640c14-69c5-453e-80b2-29051492c0e0""}","https://test12345.live/?num_scrambled_semantic=8&num_scrambled_causal=4&num_scrambled_schematic=4&participantId=23E67C9D42D94C8C9EFE0C5C4F68E25E&assignmentId=8975c1a8-2cb9-4878-9a42-aaf02e9fe0be&projectId=ba640c14-69c5-453e-80b2-29051492c0e0","23E67C9D42D94C8C9EFE0C5C4F68E25E-2025-05-14-21-05-31","","null","","[]","null","",""
"","","","","","image-button-response","104","777504","0.0-14.0-1.0-0.5","23E67C9D42D94C8C9EFE0C5C4F68E25E","23E67C9D42D94C8C9EFE0C5C4F68E25E","8975c1a8-2cb9-4878-9a42-aaf02e9fe0be","ba640c14-69c5-453e-80b2-29051492c0e0","{""num_scrambled_semantic"":""8"",""num_scrambled_causal"":""4"",""num_scrambled_schematic"":""4"",""participantId"":""23E67C9D42D94C8C9EFE0C5C4F68E25E"",""assignmentId"":""8975c1a8-2cb9-4878-9a42-aaf02e9fe0be"",""projectId"":""ba640c14-69c5-453e-80b2-29051492c0e0""}","https://test12345.live/?num_scrambled_semantic=8&num_scrambled_causal=4&num_scrambled_schematic=4&participantId=23E67C9D42D94C8C9EFE0C5C4F68E25E&assignmentId=8975c1a8-2cb9-4878-9a42-aaf02e9fe0be&projectId=ba640c14-69c5-453e-80b2-29051492c0e0","23E67C9D42D94C8C9EFE0C5C4F68E25E-2025-05-14-21-05-31","","null","","images/semantic_sequence/visiting_cities_semantic/visiting_cities_semantic_ten.png","null","",""
"","","","","","image-button-response","105","778360","0.0-14.0-1.0-1.5","23E67C9D42D94C8C9EFE0C5C4F68E25E","23E67C9D42D94C8C9EFE0C5C4F68E25E","8975c1a8-2cb9-4878-9a42-aaf02e9fe0be","ba640c14-69c5-453e-80b2-29051492c0e0","{""num_scrambled_semantic"":""8"",""num_scrambled_causal"":""4"",""num_scrambled_schematic"":""4"",""participantId"":""23E67C9D42D94C8C9EFE0C5C4F68E25E"",""assignmentId"":""8975c1a8-2cb9-4878-9a42-aaf02e9fe0be"",""projectId"":""ba640c14-69c5-453e-80b2-29051492c0e0""}","https://test12345.live/?num_scrambled_semantic=8&num_scrambled_causal=4&num_scrambled_schematic=4&participantId=23E67C9D42D94C8C9EFE0C5C4F68E25E&assignmentId=8975c1a8-2cb9-4878-9a42-aaf02e9fe0be&projectId=ba640c14-69c5-453e-80b2-29051492c0e0","23E67C9D42D94C8C9EFE0C5C4F68E25E-2025-05-14-21-05-31","","855","","images/semantic_sequence/visiting_cities_semantic/visiting_cities_semantic_ten.png","1","",""
"","","","","","image-button-response","106","780163","0.0-14.0-1.0-2.5","23E67C9D42D94C8C9EFE0C5C4F68E25E","23E67C9D42D94C8C9EFE0C5C4F68E25E","8975c1a8-2cb9-4878-9a42-aaf02e9fe0be","ba640c14-69c5-453e-80b2-29051492c0e0","{""num_scrambled_semantic"":""8"",""num_scrambled_causal"":""4"",""num_scrambled_schematic"":""4"",""participantId"":""23E67C9D42D94C8C9EFE0C5C4F68E25E"",""assignmentId"":""8975c1a8-2cb9-4878-9a42-aaf02e9fe0be"",""projectId"":""ba640c14-69c5-453e-80b2-29051492c0e0""}","https://test12345.live/?num_scrambled_semantic=8&num_scrambled_causal=4&num_scrambled_schematic=4&participantId=23E67C9D42D94C8C9EFE0C5C4F68E25E&assignmentId=8975c1a8-2cb9-4878-9a42-aaf02e9fe0be&projectId=ba640c14-69c5-453e-80b2-29051492c0e0","23E67C9D42D94C8C9EFE0C5C4F68E25E-2025-05-14-21-05-31","","null","","[]","null","",""
"","","","","","image-button-response","107","784664","0.0-14.0-1.0-0.6","23E67C9D42D94C8C9EFE0C5C4F68E25E","23E67C9D42D94C8C9EFE0C5C4F68E25E","8975c1a8-2cb9-4878-9a42-aaf02e9fe0be","ba640c14-69c5-453e-80b2-29051492c0e0","{""num_scrambled_semantic"":""8"",""num_scrambled_causal"":""4"",""num_scrambled_schematic"":""4"",""participantId"":""23E67C9D42D94C8C9EFE0C5C4F68E25E"",""assignmentId"":""8975c1a8-2cb9-4878-9a42-aaf02e9fe0be"",""projectId"":""ba640c14-69c5-453e-80b2-29051492c0e0""}","https://test12345.live/?num_scrambled_semantic=8&num_scrambled_causal=4&num_scrambled_schematic=4&participantId=23E67C9D42D94C8C9EFE0C5C4F68E25E&assignmentId=8975c1a8-2cb9-4878-9a42-aaf02e9fe0be&projectId=ba640c14-69c5-453e-80b2-29051492c0e0","23E67C9D42D94C8C9EFE0C5C4F68E25E-2025-05-14-21-05-31","","null","","images/semantic_sequence/visiting_cities_semantic/visiting_cities_semantic_9.png","null","",""
"","","","","","image-button-response","108","785968","0.0-14.0-1.0-1.6","23E67C9D42D94C8C9EFE0C5C4F68E25E","23E67C9D42D94C8C9EFE0C5C4F68E25E","8975c1a8-2cb9-4878-9a42-aaf02e9fe0be","ba640c14-69c5-453e-80b2-29051492c0e0","{""num_scrambled_semantic"":""8"",""num_scrambled_causal"":""4"",""num_scrambled_schematic"":""4"",""participantId"":""23E67C9D42D94C8C9EFE0C5C4F68E25E"",""assignmentId"":""8975c1a8-2cb9-4878-9a42-aaf02e9fe0be"",""projectId"":""ba640c14-69c5-453e-80b2-29051492c0e0""}","https://test12345.live/?num_scrambled_semantic=8&num_scrambled_causal=4&num_scrambled_schematic=4&participantId=23E67C9D42D94C8C9EFE0C5C4F68E25E&assignmentId=8975c1a8-2cb9-4878-9a42-aaf02e9fe0be&projectId=ba640c14-69c5-453e-80b2-29051492c0e0","23E67C9D42D94C8C9EFE0C5C4F68E25E-2025-05-14-21-05-31","","1304","","images/semantic_sequence/visiting_cities_semantic/visiting_cities_semantic_9.png","1","",""
"","","","","","image-button-response","109","787770","0.0-14.0-1.0-2.6","23E67C9D42D94C8C9EFE0C5C4F68E25E","23E67C9D42D94C8C9EFE0C5C4F68E25E","8975c1a8-2cb9-4878-9a42-aaf02e9fe0be","ba640c14-69c5-453e-80b2-29051492c0e0","{""num_scrambled_semantic"":""8"",""num_scrambled_causal"":""4"",""num_scrambled_schematic"":""4"",""participantId"":""23E67C9D42D94C8C9EFE0C5C4F68E25E"",""assignmentId"":""8975c1a8-2cb9-4878-9a42-aaf02e9fe0be"",""projectId"":""ba640c14-69c5-453e-80b2-29051492c0e0""}","https://test12345.live/?num_scrambled_semantic=8&num_scrambled_causal=4&num_scrambled_schematic=4&participantId=23E67C9D42D94C8C9EFE0C5C4F68E25E&assignmentId=8975c1a8-2cb9-4878-9a42-aaf02e9fe0be&projectId=ba640c14-69c5-453e-80b2-29051492c0e0","23E67C9D42D94C8C9EFE0C5C4F68E25E-2025-05-14-21-05-31","","null","","[]","null","",""
"","","","","","image-button-response","110","792272","0.0-14.0-1.0-0.7","23E67C9D42D94C8C9EFE0C5C4F68E25E","23E67C9D42D94C8C9EFE0C5C4F68E25E","8975c1a8-2cb9-4878-9a42-aaf02e9fe0be","ba640c14-69c5-453e-80b2-29051492c0e0","{""num_scrambled_semantic"":""8"",""num_scrambled_causal"":""4"",""num_scrambled_schematic"":""4"",""participantId"":""23E67C9D42D94C8C9EFE0C5C4F68E25E"",""assignmentId"":""8975c1a8-2cb9-4878-9a42-aaf02e9fe0be"",""projectId"":""ba640c14-69c5-453e-80b2-29051492c0e0""}","https://test12345.live/?num_scrambled_semantic=8&num_scrambled_causal=4&num_scrambled_schematic=4&participantId=23E67C9D42D94C8C9EFE0C5C4F68E25E&assignmentId=8975c1a8-2cb9-4878-9a42-aaf02e9fe0be&projectId=ba640c14-69c5-453e-80b2-29051492c0e0","23E67C9D42D94C8C9EFE0C5C4F68E25E-2025-05-14-21-05-31","","null","","images/semantic_sequence/visiting_cities_semantic/visiting_cities_semantic_3.png","null","",""
"","","","","","image-button-response","111","793624","0.0-14.0-1.0-1.7","23E67C9D42D94C8C9EFE0C5C4F68E25E","23E67C9D42D94C8C9EFE0C5C4F68E25E","8975c1a8-2cb9-4878-9a42-aaf02e9fe0be","ba640c14-69c5-453e-80b2-29051492c0e0","{""num_scrambled_semantic"":""8"",""num_scrambled_causal"":""4"",""num_scrambled_schematic"":""4"",""participantId"":""23E67C9D42D94C8C9EFE0C5C4F68E25E"",""assignmentId"":""8975c1a8-2cb9-4878-9a42-aaf02e9fe0be"",""projectId"":""ba640c14-69c5-453e-80b2-29051492c0e0""}","https://test12345.live/?num_scrambled_semantic=8&num_scrambled_causal=4&num_scrambled_schematic=4&participantId=23E67C9D42D94C8C9EFE0C5C4F68E25E&assignmentId=8975c1a8-2cb9-4878-9a42-aaf02e9fe0be&projectId=ba640c14-69c5-453e-80b2-29051492c0e0","23E67C9D42D94C8C9EFE0C5C4F68E25E-2025-05-14-21-05-31","","1352","","images/semantic_sequence/visiting_cities_semantic/visiting_cities_semantic_3.png","1","",""
"","","","","","image-button-response","112","795426","0.0-14.0-1.0-2.7","23E67C9D42D94C8C9EFE0C5C4F68E25E","23E67C9D42D94C8C9EFE0C5C4F68E25E","8975c1a8-2cb9-4878-9a42-aaf02e9fe0be","ba640c14-69c5-453e-80b2-29051492c0e0","{""num_scrambled_semantic"":""8"",""num_scrambled_causal"":""4"",""num_scrambled_schematic"":""4"",""participantId"":""23E67C9D42D94C8C9EFE0C5C4F68E25E"",""assignmentId"":""8975c1a8-2cb9-4878-9a42-aaf02e9fe0be"",""projectId"":""ba640c14-69c5-453e-80b2-29051492c0e0""}","https://test12345.live/?num_scrambled_semantic=8&num_scrambled_causal=4&num_scrambled_schematic=4&participantId=23E67C9D42D94C8C9EFE0C5C4F68E25E&assignmentId=8975c1a8-2cb9-4878-9a42-aaf02e9fe0be&projectId=ba640c14-69c5-453e-80b2-29051492c0e0","23E67C9D42D94C8C9EFE0C5C4F68E25E-2025-05-14-21-05-31","","null","","[]","null","",""
"","","","","","image-button-response","113","799928","0.0-14.0-1.0-0.8","23E67C9D42D94C8C9EFE0C5C4F68E25E","23E67C9D42D94C8C9EFE0C5C4F68E25E","8975c1a8-2cb9-4878-9a42-aaf02e9fe0be","ba640c14-69c5-453e-80b2-29051492c0e0","{""num_scrambled_semantic"":""8"",""num_scrambled_causal"":""4"",""num_scrambled_schematic"":""4"",""participantId"":""23E67C9D42D94C8C9EFE0C5C4F68E25E"",""assignmentId"":""8975c1a8-2cb9-4878-9a42-aaf02e9fe0be"",""projectId"":""ba640c14-69c5-453e-80b2-29051492c0e0""}","https://test12345.live/?num_scrambled_semantic=8&num_scrambled_causal=4&num_scrambled_schematic=4&participantId=23E67C9D42D94C8C9EFE0C5C4F68E25E&assignmentId=8975c1a8-2cb9-4878-9a42-aaf02e9fe0be&projectId=ba640c14-69c5-453e-80b2-29051492c0e0","23E67C9D42D94C8C9EFE0C5C4F68E25E-2025-05-14-21-05-31","","null","","images/semantic_sequence/visiting_cities_semantic/visiting_cities_semantic_6.png","null","",""
