"success","timeout","failed_images","failed_audio","failed_video","trial_type","trial_index","time_elapsed","internal_node_id","subject","subject_id","study_id","session_id","urlvar","current_url","audio_id","view_history","rt","device_id","stimulus","response","estimated_stimulus_onset","seq_name"
"true","false","[]","[]","[]","preload","0","41452","0.0-0.0","25932BD4FF4B44E9A0CDA99DEDBB233D","25932BD4FF4B44E9A0CDA99DEDBB233D","e4cffebd-3d97-4ae0-ac72-56646db8c62e","9076ac92-be42-43a2-9634-8b67c7fe93a7","{""num_scrambled_semantic"":""8"",""num_scrambled_causal"":""4"",""num_scrambled_schematic"":""4"",""participantId"":""25932BD4FF4B44E9A0CDA99DEDBB233D"",""assignmentId"":""e4cffebd-3d97-4ae0-ac72-56646db8c62e"",""projectId"":""9076ac92-be42-43a2-9634-8b67c7fe93a7""}","https://test12345.live/?num_scrambled_semantic=8&num_scrambled_causal=4&num_scrambled_schematic=4&participantId=25932BD4FF4B44E9A0CDA99DEDBB233D&assignmentId=e4cffebd-3d97-4ae0-ac72-56646db8c62e&projectId=9076ac92-be42-43a2-9634-8b67c7fe93a7","25932BD4FF4B44E9A0CDA99DEDBB233D-2025-05-22-19-41-27","","","","","","",""
"","","","","","instructions","1","87163","0.0-1.0","25932BD4FF4B44E9A0CDA99DEDBB233D","25932BD4FF4B44E9A0CDA99DEDBB233D","e4cffebd-3d97-4ae0-ac72-56646db8c62e","9076ac92-be42-43a2-9634-8b67c7fe93a7","{""num_scrambled_semantic"":""8"",""num_scrambled_causal"":""4"",""num_scrambled_schematic"":""4"",""participantId"":""25932BD4FF4B44E9A0CDA99DEDBB233D"",""assignmentId"":""e4cffebd-3d97-4ae0-ac72-56646db8c62e"",""projectId"":""9076ac92-be42-43a2-9634-8b67c7fe93a7""}","https://test12345.live/?num_scrambled_semantic=8&num_scrambled_causal=4&num_scrambled_schematic=4&participantId=25932BD4FF4B44E9A0CDA99DEDBB233D&assignmentId=e4cffebd-3d97-4ae0-ac72-56646db8c62e&projectId=9076ac92-be42-43a2-9634-8b67c7fe93a7","25932BD4FF4B44E9A0CDA99DEDBB233D-2025-05-22-19-41-27","[{""page_index"":0,""viewing_time"":45710}]","45711","","","","",""
"","","","","","instructions","2","103564","0.0-2.0","25932BD4FF4B44E9A0CDA99DEDBB233D","25932BD4FF4B44E9A0CDA99DEDBB233D","e4cffebd-3d97-4ae0-ac72-56646db8c62e","9076ac92-be42-43a2-9634-8b67c7fe93a7","{""num_scrambled_semantic"":""8"",""num_scrambled_causal"":""4"",""num_scrambled_schematic"":""4"",""participantId"":""25932BD4FF4B44E9A0CDA99DEDBB233D"",""assignmentId"":""e4cffebd-3d97-4ae0-ac72-56646db8c62e"",""projectId"":""9076ac92-be42-43a2-9634-8b67c7fe93a7""}","https://test12345.live/?num_scrambled_semantic=8&num_scrambled_causal=4&num_scrambled_schematic=4&participantId=25932BD4FF4B44E9A0CDA99DEDBB233D&assignmentId=e4cffebd-3d97-4ae0-ac72-56646db8c62e&projectId=9076ac92-be42-43a2-9634-8b67c7fe93a7","25932BD4FF4B44E9A0CDA99DEDBB233D-2025-05-22-19-41-27","[{""page_index"":0,""viewing_time"":16400}]","16400","","","","",""
"true","","","","","fullscreen","3","106845","0.0-3.0","25932BD4FF4B44E9A0CDA99DEDBB233D","25932BD4FF4B44E9A0CDA99DEDBB233D","e4cffebd-3d97-4ae0-ac72-56646db8c62e","9076ac92-be42-43a2-9634-8b67c7fe93a7","{""num_scrambled_semantic"":""8"",""num_scrambled_causal"":""4"",""num_scrambled_schematic"":""4"",""participantId"":""25932BD4FF4B44E9A0CDA99DEDBB233D"",""assignmentId"":""e4cffebd-3d97-4ae0-ac72-56646db8c62e"",""projectId"":""9076ac92-be42-43a2-9634-8b67c7fe93a7""}","https://test12345.live/?num_scrambled_semantic=8&num_scrambled_causal=4&num_scrambled_schematic=4&participantId=25932BD4FF4B44E9A0CDA99DEDBB233D&assignmentId=e4cffebd-3d97-4ae0-ac72-56646db8c62e&projectId=9076ac92-be42-43a2-9634-8b67c7fe93a7","25932BD4FF4B44E9A0CDA99DEDBB233D-2025-05-22-19-41-27","","2274","","","","",""
"","","","","","initialize-microphone","4","113302","0.0-4.0-0.0","25932BD4FF4B44E9A0CDA99DEDBB233D","25932BD4FF4B44E9A0CDA99DEDBB233D","e4cffebd-3d97-4ae0-ac72-56646db8c62e","9076ac92-be42-43a2-9634-8b67c7fe93a7","{""num_scrambled_semantic"":""8"",""num_scrambled_causal"":""4"",""num_scrambled_schematic"":""4"",""participantId"":""25932BD4FF4B44E9A0CDA99DEDBB233D"",""assignmentId"":""e4cffebd-3d97-4ae0-ac72-56646db8c62e"",""projectId"":""9076ac92-be42-43a2-9634-8b67c7fe93a7""}","https://test12345.live/?num_scrambled_semantic=8&num_scrambled_causal=4&num_scrambled_schematic=4&participantId=25932BD4FF4B44E9A0CDA99DEDBB233D&assignmentId=e4cffebd-3d97-4ae0-ac72-56646db8c62e&projectId=9076ac92-be42-43a2-9634-8b67c7fe93a7","25932BD4FF4B44E9A0CDA99DEDBB233D-2025-05-22-19-41-27","","","c8a7f3aaae944779c036a0265289831148bdafd47e109e943b11f48ca02272fa","","","",""
"","","","","","html-audio-response","5","124673","0.0-4.0-1.0","25932BD4FF4B44E9A0CDA99DEDBB233D","25932BD4FF4B44E9A0CDA99DEDBB233D","e4cffebd-3d97-4ae0-ac72-56646db8c62e","9076ac92-be42-43a2-9634-8b67c7fe93a7","{""num_scrambled_semantic"":""8"",""num_scrambled_causal"":""4"",""num_scrambled_schematic"":""4"",""participantId"":""25932BD4FF4B44E9A0CDA99DEDBB233D"",""assignmentId"":""e4cffebd-3d97-4ae0-ac72-56646db8c62e"",""projectId"":""9076ac92-be42-43a2-9634-8b67c7fe93a7""}","https://test12345.live/?num_scrambled_semantic=8&num_scrambled_causal=4&num_scrambled_schematic=4&participantId=25932BD4FF4B44E9A0CDA99DEDBB233D&assignmentId=e4cffebd-3d97-4ae0-ac72-56646db8c62e&projectId=9076ac92-be42-43a2-9634-8b67c7fe93a7","25932BD4FF4B44E9A0CDA99DEDBB233D-2025-05-22-19-41-27","","3530","","<span style=""color: red; font-size: 24px""> NOW RECORDING</span>
        <p>Please test Microphone</p>","","2",""
"","","","","","html-button-response","6","126823","0.0-4.0-2.0","25932BD4FF4B44E9A0CDA99DEDBB233D","25932BD4FF4B44E9A0CDA99DEDBB233D","e4cffebd-3d97-4ae0-ac72-56646db8c62e","9076ac92-be42-43a2-9634-8b67c7fe93a7","{""num_scrambled_semantic"":""8"",""num_scrambled_causal"":""4"",""num_scrambled_schematic"":""4"",""participantId"":""25932BD4FF4B44E9A0CDA99DEDBB233D"",""assignmentId"":""e4cffebd-3d97-4ae0-ac72-56646db8c62e"",""projectId"":""9076ac92-be42-43a2-9634-8b67c7fe93a7""}","https://test12345.live/?num_scrambled_semantic=8&num_scrambled_causal=4&num_scrambled_schematic=4&participantId=25932BD4FF4B44E9A0CDA99DEDBB233D&assignmentId=e4cffebd-3d97-4ae0-ac72-56646db8c62e&projectId=9076ac92-be42-43a2-9634-8b67c7fe93a7","25932BD4FF4B44E9A0CDA99DEDBB233D-2025-05-22-19-41-27","","2149","","<p style=""font-size:48px; color:red;"">Is Microphone OK?</p>","1","",""
"","","","","","instructions","7","143012","0.0-5.0","25932BD4FF4B44E9A0CDA99DEDBB233D","25932BD4FF4B44E9A0CDA99DEDBB233D","e4cffebd-3d97-4ae0-ac72-56646db8c62e","9076ac92-be42-43a2-9634-8b67c7fe93a7","{""num_scrambled_semantic"":""8"",""num_scrambled_causal"":""4"",""num_scrambled_schematic"":""4"",""participantId"":""25932BD4FF4B44E9A0CDA99DEDBB233D"",""assignmentId"":""e4cffebd-3d97-4ae0-ac72-56646db8c62e"",""projectId"":""9076ac92-be42-43a2-9634-8b67c7fe93a7""}","https://test12345.live/?num_scrambled_semantic=8&num_scrambled_causal=4&num_scrambled_schematic=4&participantId=25932BD4FF4B44E9A0CDA99DEDBB233D&assignmentId=e4cffebd-3d97-4ae0-ac72-56646db8c62e&projectId=9076ac92-be42-43a2-9634-8b67c7fe93a7","25932BD4FF4B44E9A0CDA99DEDBB233D-2025-05-22-19-41-27","[{""page_index"":0,""viewing_time"":11366},{""page_index"":1,""viewing_time"":4822}]","16189","","","","",""
"","","","","","image-button-response","8","149025","0.0-6.0-0.0","25932BD4FF4B44E9A0CDA99DEDBB233D","25932BD4FF4B44E9A0CDA99DEDBB233D","e4cffebd-3d97-4ae0-ac72-56646db8c62e","9076ac92-be42-43a2-9634-8b67c7fe93a7","{""num_scrambled_semantic"":""8"",""num_scrambled_causal"":""4"",""num_scrambled_schematic"":""4"",""participantId"":""25932BD4FF4B44E9A0CDA99DEDBB233D"",""assignmentId"":""e4cffebd-3d97-4ae0-ac72-56646db8c62e"",""projectId"":""9076ac92-be42-43a2-9634-8b67c7fe93a7""}","https://test12345.live/?num_scrambled_semantic=8&num_scrambled_causal=4&num_scrambled_schematic=4&participantId=25932BD4FF4B44E9A0CDA99DEDBB233D&assignmentId=e4cffebd-3d97-4ae0-ac72-56646db8c62e&projectId=9076ac92-be42-43a2-9634-8b67c7fe93a7","25932BD4FF4B44E9A0CDA99DEDBB233D-2025-05-22-19-41-27","","null","","images/instructions/movie_0.png","null","",""
"","","","","","image-button-response","9","153537","0.0-6.0-1.0-0.0","25932BD4FF4B44E9A0CDA99DEDBB233D","25932BD4FF4B44E9A0CDA99DEDBB233D","e4cffebd-3d97-4ae0-ac72-56646db8c62e","9076ac92-be42-43a2-9634-8b67c7fe93a7","{""num_scrambled_semantic"":""8"",""num_scrambled_causal"":""4"",""num_scrambled_schematic"":""4"",""participantId"":""25932BD4FF4B44E9A0CDA99DEDBB233D"",""assignmentId"":""e4cffebd-3d97-4ae0-ac72-56646db8c62e"",""projectId"":""9076ac92-be42-43a2-9634-8b67c7fe93a7""}","https://test12345.live/?num_scrambled_semantic=8&num_scrambled_causal=4&num_scrambled_schematic=4&participantId=25932BD4FF4B44E9A0CDA99DEDBB233D&assignmentId=e4cffebd-3d97-4ae0-ac72-56646db8c62e&projectId=9076ac92-be42-43a2-9634-8b67c7fe93a7","25932BD4FF4B44E9A0CDA99DEDBB233D-2025-05-22-19-41-27","","null","","images/instructions/movie_1.png","null","",""
"","","","","","image-button-response","10","156966","0.0-6.0-1.0-1.0","25932BD4FF4B44E9A0CDA99DEDBB233D","25932BD4FF4B44E9A0CDA99DEDBB233D","e4cffebd-3d97-4ae0-ac72-56646db8c62e","9076ac92-be42-43a2-9634-8b67c7fe93a7","{""num_scrambled_semantic"":""8"",""num_scrambled_causal"":""4"",""num_scrambled_schematic"":""4"",""participantId"":""25932BD4FF4B44E9A0CDA99DEDBB233D"",""assignmentId"":""e4cffebd-3d97-4ae0-ac72-56646db8c62e"",""projectId"":""9076ac92-be42-43a2-9634-8b67c7fe93a7""}","https://test12345.live/?num_scrambled_semantic=8&num_scrambled_causal=4&num_scrambled_schematic=4&participantId=25932BD4FF4B44E9A0CDA99DEDBB233D&assignmentId=e4cffebd-3d97-4ae0-ac72-56646db8c62e&projectId=9076ac92-be42-43a2-9634-8b67c7fe93a7","25932BD4FF4B44E9A0CDA99DEDBB233D-2025-05-22-19-41-27","","3428","","images/instructions/movie_1.png","0","",""
"","","","","","image-button-response","11","158771","0.0-6.0-1.0-2.0","25932BD4FF4B44E9A0CDA99DEDBB233D","25932BD4FF4B44E9A0CDA99DEDBB233D","e4cffebd-3d97-4ae0-ac72-56646db8c62e","9076ac92-be42-43a2-9634-8b67c7fe93a7","{""num_scrambled_semantic"":""8"",""num_scrambled_causal"":""4"",""num_scrambled_schematic"":""4"",""participantId"":""25932BD4FF4B44E9A0CDA99DEDBB233D"",""assignmentId"":""e4cffebd-3d97-4ae0-ac72-56646db8c62e"",""projectId"":""9076ac92-be42-43a2-9634-8b67c7fe93a7""}","https://test12345.live/?num_scrambled_semantic=8&num_scrambled_causal=4&num_scrambled_schematic=4&participantId=25932BD4FF4B44E9A0CDA99DEDBB233D&assignmentId=e4cffebd-3d97-4ae0-ac72-56646db8c62e&projectId=9076ac92-be42-43a2-9634-8b67c7fe93a7","25932BD4FF4B44E9A0CDA99DEDBB233D-2025-05-22-19-41-27","","null","","[]","null","",""
"","","","","","image-button-response","12","163278","0.0-6.0-1.0-0.1","25932BD4FF4B44E9A0CDA99DEDBB233D","25932BD4FF4B44E9A0CDA99DEDBB233D","e4cffebd-3d97-4ae0-ac72-56646db8c62e","9076ac92-be42-43a2-9634-8b67c7fe93a7","{""num_scrambled_semantic"":""8"",""num_scrambled_causal"":""4"",""num_scrambled_schematic"":""4"",""participantId"":""25932BD4FF4B44E9A0CDA99DEDBB233D"",""assignmentId"":""e4cffebd-3d97-4ae0-ac72-56646db8c62e"",""projectId"":""9076ac92-be42-43a2-9634-8b67c7fe93a7""}","https://test12345.live/?num_scrambled_semantic=8&num_scrambled_causal=4&num_scrambled_schematic=4&participantId=25932BD4FF4B44E9A0CDA99DEDBB233D&assignmentId=e4cffebd-3d97-4ae0-ac72-56646db8c62e&projectId=9076ac92-be42-43a2-9634-8b67c7fe93a7","25932BD4FF4B44E9A0CDA99DEDBB233D-2025-05-22-19-41-27","","null","","images/instructions/movie_2.png","null","",""
"","","","","","image-button-response","13","167287","0.0-6.0-1.0-1.1","25932BD4FF4B44E9A0CDA99DEDBB233D","25932BD4FF4B44E9A0CDA99DEDBB233D","e4cffebd-3d97-4ae0-ac72-56646db8c62e","9076ac92-be42-43a2-9634-8b67c7fe93a7","{""num_scrambled_semantic"":""8"",""num_scrambled_causal"":""4"",""num_scrambled_schematic"":""4"",""participantId"":""25932BD4FF4B44E9A0CDA99DEDBB233D"",""assignmentId"":""e4cffebd-3d97-4ae0-ac72-56646db8c62e"",""projectId"":""9076ac92-be42-43a2-9634-8b67c7fe93a7""}","https://test12345.live/?num_scrambled_semantic=8&num_scrambled_causal=4&num_scrambled_schematic=4&participantId=25932BD4FF4B44E9A0CDA99DEDBB233D&assignmentId=e4cffebd-3d97-4ae0-ac72-56646db8c62e&projectId=9076ac92-be42-43a2-9634-8b67c7fe93a7","25932BD4FF4B44E9A0CDA99DEDBB233D-2025-05-22-19-41-27","","null","","images/instructions/movie_2.png","null","",""
"","","","","","image-button-response","14","169096","0.0-6.0-1.0-2.1","25932BD4FF4B44E9A0CDA99DEDBB233D","25932BD4FF4B44E9A0CDA99DEDBB233D","e4cffebd-3d97-4ae0-ac72-56646db8c62e","9076ac92-be42-43a2-9634-8b67c7fe93a7","{""num_scrambled_semantic"":""8"",""num_scrambled_causal"":""4"",""num_scrambled_schematic"":""4"",""participantId"":""25932BD4FF4B44E9A0CDA99DEDBB233D"",""assignmentId"":""e4cffebd-3d97-4ae0-ac72-56646db8c62e"",""projectId"":""9076ac92-be42-43a2-9634-8b67c7fe93a7""}","https://test12345.live/?num_scrambled_semantic=8&num_scrambled_causal=4&num_scrambled_schematic=4&participantId=25932BD4FF4B44E9A0CDA99DEDBB233D&assignmentId=e4cffebd-3d97-4ae0-ac72-56646db8c62e&projectId=9076ac92-be42-43a2-9634-8b67c7fe93a7","25932BD4FF4B44E9A0CDA99DEDBB233D-2025-05-22-19-41-27","","null","","[]","null","",""
"","","","","","image-button-response","15","173608","0.0-6.0-1.0-0.2","25932BD4FF4B44E9A0CDA99DEDBB233D","25932BD4FF4B44E9A0CDA99DEDBB233D","e4cffebd-3d97-4ae0-ac72-56646db8c62e","9076ac92-be42-43a2-9634-8b67c7fe93a7","{""num_scrambled_semantic"":""8"",""num_scrambled_causal"":""4"",""num_scrambled_schematic"":""4"",""participantId"":""25932BD4FF4B44E9A0CDA99DEDBB233D"",""assignmentId"":""e4cffebd-3d97-4ae0-ac72-56646db8c62e"",""projectId"":""9076ac92-be42-43a2-9634-8b67c7fe93a7""}","https://test12345.live/?num_scrambled_semantic=8&num_scrambled_causal=4&num_scrambled_schematic=4&participantId=25932BD4FF4B44E9A0CDA99DEDBB233D&assignmentId=e4cffebd-3d97-4ae0-ac72-56646db8c62e&projectId=9076ac92-be42-43a2-9634-8b67c7fe93a7","25932BD4FF4B44E9A0CDA99DEDBB233D-2025-05-22-19-41-27","","null","","images/instructions/movie_3.png","null","",""
"","","","","","image-button-response","16","174437","0.0-6.0-1.0-1.2","25932BD4FF4B44E9A0CDA99DEDBB233D","25932BD4FF4B44E9A0CDA99DEDBB233D","e4cffebd-3d97-4ae0-ac72-56646db8c62e","9076ac92-be42-43a2-9634-8b67c7fe93a7","{""num_scrambled_semantic"":""8"",""num_scrambled_causal"":""4"",""num_scrambled_schematic"":""4"",""participantId"":""25932BD4FF4B44E9A0CDA99DEDBB233D"",""assignmentId"":""e4cffebd-3d97-4ae0-ac72-56646db8c62e"",""projectId"":""9076ac92-be42-43a2-9634-8b67c7fe93a7""}","https://test12345.live/?num_scrambled_semantic=8&num_scrambled_causal=4&num_scrambled_schematic=4&participantId=25932BD4FF4B44E9A0CDA99DEDBB233D&assignmentId=e4cffebd-3d97-4ae0-ac72-56646db8c62e&projectId=9076ac92-be42-43a2-9634-8b67c7fe93a7","25932BD4FF4B44E9A0CDA99DEDBB233D-2025-05-22-19-41-27","","828","","images/instructions/movie_3.png","0","",""
"","","","","","image-button-response","17","176240","0.0-6.0-1.0-2.2","25932BD4FF4B44E9A0CDA99DEDBB233D","25932BD4FF4B44E9A0CDA99DEDBB233D","e4cffebd-3d97-4ae0-ac72-56646db8c62e","9076ac92-be42-43a2-9634-8b67c7fe93a7","{""num_scrambled_semantic"":""8"",""num_scrambled_causal"":""4"",""num_scrambled_schematic"":""4"",""participantId"":""25932BD4FF4B44E9A0CDA99DEDBB233D"",""assignmentId"":""e4cffebd-3d97-4ae0-ac72-56646db8c62e"",""projectId"":""9076ac92-be42-43a2-9634-8b67c7fe93a7""}","https://test12345.live/?num_scrambled_semantic=8&num_scrambled_causal=4&num_scrambled_schematic=4&participantId=25932BD4FF4B44E9A0CDA99DEDBB233D&assignmentId=e4cffebd-3d97-4ae0-ac72-56646db8c62e&projectId=9076ac92-be42-43a2-9634-8b67c7fe93a7","25932BD4FF4B44E9A0CDA99DEDBB233D-2025-05-22-19-41-27","","null","","[]","null","",""
"","","","","","image-button-response","18","180744","0.0-6.0-1.0-0.3","25932BD4FF4B44E9A0CDA99DEDBB233D","25932BD4FF4B44E9A0CDA99DEDBB233D","e4cffebd-3d97-4ae0-ac72-56646db8c62e","9076ac92-be42-43a2-9634-8b67c7fe93a7","{""num_scrambled_semantic"":""8"",""num_scrambled_causal"":""4"",""num_scrambled_schematic"":""4"",""participantId"":""25932BD4FF4B44E9A0CDA99DEDBB233D"",""assignmentId"":""e4cffebd-3d97-4ae0-ac72-56646db8c62e"",""projectId"":""9076ac92-be42-43a2-9634-8b67c7fe93a7""}","https://test12345.live/?num_scrambled_semantic=8&num_scrambled_causal=4&num_scrambled_schematic=4&participantId=25932BD4FF4B44E9A0CDA99DEDBB233D&assignmentId=e4cffebd-3d97-4ae0-ac72-56646db8c62e&projectId=9076ac92-be42-43a2-9634-8b67c7fe93a7","25932BD4FF4B44E9A0CDA99DEDBB233D-2025-05-22-19-41-27","","null","","images/instructions/movie_4.png","null","",""
"","","","","","image-button-response","19","181705","0.0-6.0-1.0-1.3","25932BD4FF4B44E9A0CDA99DEDBB233D","25932BD4FF4B44E9A0CDA99DEDBB233D","e4cffebd-3d97-4ae0-ac72-56646db8c62e","9076ac92-be42-43a2-9634-8b67c7fe93a7","{""num_scrambled_semantic"":""8"",""num_scrambled_causal"":""4"",""num_scrambled_schematic"":""4"",""participantId"":""25932BD4FF4B44E9A0CDA99DEDBB233D"",""assignmentId"":""e4cffebd-3d97-4ae0-ac72-56646db8c62e"",""projectId"":""9076ac92-be42-43a2-9634-8b67c7fe93a7""}","https://test12345.live/?num_scrambled_semantic=8&num_scrambled_causal=4&num_scrambled_schematic=4&participantId=25932BD4FF4B44E9A0CDA99DEDBB233D&assignmentId=e4cffebd-3d97-4ae0-ac72-56646db8c62e&projectId=9076ac92-be42-43a2-9634-8b67c7fe93a7","25932BD4FF4B44E9A0CDA99DEDBB233D-2025-05-22-19-41-27","","961","","images/instructions/movie_4.png","0","",""
"","","","","","image-button-response","20","183513","0.0-6.0-1.0-2.3","25932BD4FF4B44E9A0CDA99DEDBB233D","25932BD4FF4B44E9A0CDA99DEDBB233D","e4cffebd-3d97-4ae0-ac72-56646db8c62e","9076ac92-be42-43a2-9634-8b67c7fe93a7","{""num_scrambled_semantic"":""8"",""num_scrambled_causal"":""4"",""num_scrambled_schematic"":""4"",""participantId"":""25932BD4FF4B44E9A0CDA99DEDBB233D"",""assignmentId"":""e4cffebd-3d97-4ae0-ac72-56646db8c62e"",""projectId"":""9076ac92-be42-43a2-9634-8b67c7fe93a7""}","https://test12345.live/?num_scrambled_semantic=8&num_scrambled_causal=4&num_scrambled_schematic=4&participantId=25932BD4FF4B44E9A0CDA99DEDBB233D&assignmentId=e4cffebd-3d97-4ae0-ac72-56646db8c62e&projectId=9076ac92-be42-43a2-9634-8b67c7fe93a7","25932BD4FF4B44E9A0CDA99DEDBB233D-2025-05-22-19-41-27","","null","","[]","null","",""
"","","","","","instructions","21","197427","0.0-7.0","25932BD4FF4B44E9A0CDA99DEDBB233D","25932BD4FF4B44E9A0CDA99DEDBB233D","e4cffebd-3d97-4ae0-ac72-56646db8c62e","9076ac92-be42-43a2-9634-8b67c7fe93a7","{""num_scrambled_semantic"":""8"",""num_scrambled_causal"":""4"",""num_scrambled_schematic"":""4"",""participantId"":""25932BD4FF4B44E9A0CDA99DEDBB233D"",""assignmentId"":""e4cffebd-3d97-4ae0-ac72-56646db8c62e"",""projectId"":""9076ac92-be42-43a2-9634-8b67c7fe93a7""}","https://test12345.live/?num_scrambled_semantic=8&num_scrambled_causal=4&num_scrambled_schematic=4&participantId=25932BD4FF4B44E9A0CDA99DEDBB233D&assignmentId=e4cffebd-3d97-4ae0-ac72-56646db8c62e&projectId=9076ac92-be42-43a2-9634-8b67c7fe93a7","25932BD4FF4B44E9A0CDA99DEDBB233D-2025-05-22-19-41-27","[{""page_index"":0,""viewing_time"":12593},{""page_index"":1,""viewing_time"":1320}]","13913","","","","",""
"","","","","","html-audio-response","22","237039","0.0-8.0","25932BD4FF4B44E9A0CDA99DEDBB233D","25932BD4FF4B44E9A0CDA99DEDBB233D","e4cffebd-3d97-4ae0-ac72-56646db8c62e","9076ac92-be42-43a2-9634-8b67c7fe93a7","{""num_scrambled_semantic"":""8"",""num_scrambled_causal"":""4"",""num_scrambled_schematic"":""4"",""participantId"":""25932BD4FF4B44E9A0CDA99DEDBB233D"",""assignmentId"":""e4cffebd-3d97-4ae0-ac72-56646db8c62e"",""projectId"":""9076ac92-be42-43a2-9634-8b67c7fe93a7""}","https://test12345.live/?num_scrambled_semantic=8&num_scrambled_causal=4&num_scrambled_schematic=4&participantId=25932BD4FF4B44E9A0CDA99DEDBB233D&assignmentId=e4cffebd-3d97-4ae0-ac72-56646db8c62e&projectId=9076ac92-be42-43a2-9634-8b67c7fe93a7","25932BD4FF4B44E9A0CDA99DEDBB233D-2025-05-22-19-41-27","","24294","","[""<span style=\""color: red; font-size: 24px\""> NOW RECORDING</span><p>Please say out loud all the images you saw in the exact order you saw them. Try to recall as many images as you can, but remember: getting the order right is more important than the number of images you recall.</p>""]","","1",""
"","","","","","instructions","23","238968","0.0-9.0","25932BD4FF4B44E9A0CDA99DEDBB233D","25932BD4FF4B44E9A0CDA99DEDBB233D","e4cffebd-3d97-4ae0-ac72-56646db8c62e","9076ac92-be42-43a2-9634-8b67c7fe93a7","{""num_scrambled_semantic"":""8"",""num_scrambled_causal"":""4"",""num_scrambled_schematic"":""4"",""participantId"":""25932BD4FF4B44E9A0CDA99DEDBB233D"",""assignmentId"":""e4cffebd-3d97-4ae0-ac72-56646db8c62e"",""projectId"":""9076ac92-be42-43a2-9634-8b67c7fe93a7""}","https://test12345.live/?num_scrambled_semantic=8&num_scrambled_causal=4&num_scrambled_schematic=4&participantId=25932BD4FF4B44E9A0CDA99DEDBB233D&assignmentId=e4cffebd-3d97-4ae0-ac72-56646db8c62e&projectId=9076ac92-be42-43a2-9634-8b67c7fe93a7","25932BD4FF4B44E9A0CDA99DEDBB233D-2025-05-22-19-41-27","[{""page_index"":0,""viewing_time"":1926}]","1926","","","","",""
"","","","","","image-button-response","24","244971","0.0-10.0-0.0","25932BD4FF4B44E9A0CDA99DEDBB233D","25932BD4FF4B44E9A0CDA99DEDBB233D","e4cffebd-3d97-4ae0-ac72-56646db8c62e","9076ac92-be42-43a2-9634-8b67c7fe93a7","{""num_scrambled_semantic"":""8"",""num_scrambled_causal"":""4"",""num_scrambled_schematic"":""4"",""participantId"":""25932BD4FF4B44E9A0CDA99DEDBB233D"",""assignmentId"":""e4cffebd-3d97-4ae0-ac72-56646db8c62e"",""projectId"":""9076ac92-be42-43a2-9634-8b67c7fe93a7""}","https://test12345.live/?num_scrambled_semantic=8&num_scrambled_causal=4&num_scrambled_schematic=4&participantId=25932BD4FF4B44E9A0CDA99DEDBB233D&assignmentId=e4cffebd-3d97-4ae0-ac72-56646db8c62e&projectId=9076ac92-be42-43a2-9634-8b67c7fe93a7","25932BD4FF4B44E9A0CDA99DEDBB233D-2025-05-22-19-41-27","","null","","images/semantic_sequence/creative_activities_semantic/creative_activities_semantic_0.png","null","",""
"","","","","","image-button-response","25","249473","0.0-10.0-1.0-0.0","25932BD4FF4B44E9A0CDA99DEDBB233D","25932BD4FF4B44E9A0CDA99DEDBB233D","e4cffebd-3d97-4ae0-ac72-56646db8c62e","9076ac92-be42-43a2-9634-8b67c7fe93a7","{""num_scrambled_semantic"":""8"",""num_scrambled_causal"":""4"",""num_scrambled_schematic"":""4"",""participantId"":""25932BD4FF4B44E9A0CDA99DEDBB233D"",""assignmentId"":""e4cffebd-3d97-4ae0-ac72-56646db8c62e"",""projectId"":""9076ac92-be42-43a2-9634-8b67c7fe93a7""}","https://test12345.live/?num_scrambled_semantic=8&num_scrambled_causal=4&num_scrambled_schematic=4&participantId=25932BD4FF4B44E9A0CDA99DEDBB233D&assignmentId=e4cffebd-3d97-4ae0-ac72-56646db8c62e&projectId=9076ac92-be42-43a2-9634-8b67c7fe93a7","25932BD4FF4B44E9A0CDA99DEDBB233D-2025-05-22-19-41-27","","null","","images/semantic_sequence/creative_activities_semantic/creative_activities_semantic_6.png","null","",""
"","","","","","image-button-response","26","250531","0.0-10.0-1.0-1.0","25932BD4FF4B44E9A0CDA99DEDBB233D","25932BD4FF4B44E9A0CDA99DEDBB233D","e4cffebd-3d97-4ae0-ac72-56646db8c62e","9076ac92-be42-43a2-9634-8b67c7fe93a7","{""num_scrambled_semantic"":""8"",""num_scrambled_causal"":""4"",""num_scrambled_schematic"":""4"",""participantId"":""25932BD4FF4B44E9A0CDA99DEDBB233D"",""assignmentId"":""e4cffebd-3d97-4ae0-ac72-56646db8c62e"",""projectId"":""9076ac92-be42-43a2-9634-8b67c7fe93a7""}","https://test12345.live/?num_scrambled_semantic=8&num_scrambled_causal=4&num_scrambled_schematic=4&participantId=25932BD4FF4B44E9A0CDA99DEDBB233D&assignmentId=e4cffebd-3d97-4ae0-ac72-56646db8c62e&projectId=9076ac92-be42-43a2-9634-8b67c7fe93a7","25932BD4FF4B44E9A0CDA99DEDBB233D-2025-05-22-19-41-27","","1057","","images/semantic_sequence/creative_activities_semantic/creative_activities_semantic_6.png","0","",""
"","","","","","image-button-response","27","252344","0.0-10.0-1.0-2.0","25932BD4FF4B44E9A0CDA99DEDBB233D","25932BD4FF4B44E9A0CDA99DEDBB233D","e4cffebd-3d97-4ae0-ac72-56646db8c62e","9076ac92-be42-43a2-9634-8b67c7fe93a7","{""num_scrambled_semantic"":""8"",""num_scrambled_causal"":""4"",""num_scrambled_schematic"":""4"",""participantId"":""25932BD4FF4B44E9A0CDA99DEDBB233D"",""assignmentId"":""e4cffebd-3d97-4ae0-ac72-56646db8c62e"",""projectId"":""9076ac92-be42-43a2-9634-8b67c7fe93a7""}","https://test12345.live/?num_scrambled_semantic=8&num_scrambled_causal=4&num_scrambled_schematic=4&participantId=25932BD4FF4B44E9A0CDA99DEDBB233D&assignmentId=e4cffebd-3d97-4ae0-ac72-56646db8c62e&projectId=9076ac92-be42-43a2-9634-8b67c7fe93a7","25932BD4FF4B44E9A0CDA99DEDBB233D-2025-05-22-19-41-27","","null","","[]","null","",""
"","","","","","image-button-response","28","256851","0.0-10.0-1.0-0.1","25932BD4FF4B44E9A0CDA99DEDBB233D","25932BD4FF4B44E9A0CDA99DEDBB233D","e4cffebd-3d97-4ae0-ac72-56646db8c62e","9076ac92-be42-43a2-9634-8b67c7fe93a7","{""num_scrambled_semantic"":""8"",""num_scrambled_causal"":""4"",""num_scrambled_schematic"":""4"",""participantId"":""25932BD4FF4B44E9A0CDA99DEDBB233D"",""assignmentId"":""e4cffebd-3d97-4ae0-ac72-56646db8c62e"",""projectId"":""9076ac92-be42-43a2-9634-8b67c7fe93a7""}","https://test12345.live/?num_scrambled_semantic=8&num_scrambled_causal=4&num_scrambled_schematic=4&participantId=25932BD4FF4B44E9A0CDA99DEDBB233D&assignmentId=e4cffebd-3d97-4ae0-ac72-56646db8c62e&projectId=9076ac92-be42-43a2-9634-8b67c7fe93a7","25932BD4FF4B44E9A0CDA99DEDBB233D-2025-05-22-19-41-27","","null","","images/semantic_sequence/creative_activities_semantic/creative_activities_semantic_ten.png","null","",""
"","","","","","image-button-response","29","258147","0.0-10.0-1.0-1.1","25932BD4FF4B44E9A0CDA99DEDBB233D","25932BD4FF4B44E9A0CDA99DEDBB233D","e4cffebd-3d97-4ae0-ac72-56646db8c62e","9076ac92-be42-43a2-9634-8b67c7fe93a7","{""num_scrambled_semantic"":""8"",""num_scrambled_causal"":""4"",""num_scrambled_schematic"":""4"",""participantId"":""25932BD4FF4B44E9A0CDA99DEDBB233D"",""assignmentId"":""e4cffebd-3d97-4ae0-ac72-56646db8c62e"",""projectId"":""9076ac92-be42-43a2-9634-8b67c7fe93a7""}","https://test12345.live/?num_scrambled_semantic=8&num_scrambled_causal=4&num_scrambled_schematic=4&participantId=25932BD4FF4B44E9A0CDA99DEDBB233D&assignmentId=e4cffebd-3d97-4ae0-ac72-56646db8c62e&projectId=9076ac92-be42-43a2-9634-8b67c7fe93a7","25932BD4FF4B44E9A0CDA99DEDBB233D-2025-05-22-19-41-27","","1296","","images/semantic_sequence/creative_activities_semantic/creative_activities_semantic_ten.png","0","",""
"","","","","","image-button-response","30","259956","0.0-10.0-1.0-2.1","25932BD4FF4B44E9A0CDA99DEDBB233D","25932BD4FF4B44E9A0CDA99DEDBB233D","e4cffebd-3d97-4ae0-ac72-56646db8c62e","9076ac92-be42-43a2-9634-8b67c7fe93a7","{""num_scrambled_semantic"":""8"",""num_scrambled_causal"":""4"",""num_scrambled_schematic"":""4"",""participantId"":""25932BD4FF4B44E9A0CDA99DEDBB233D"",""assignmentId"":""e4cffebd-3d97-4ae0-ac72-56646db8c62e"",""projectId"":""9076ac92-be42-43a2-9634-8b67c7fe93a7""}","https://test12345.live/?num_scrambled_semantic=8&num_scrambled_causal=4&num_scrambled_schematic=4&participantId=25932BD4FF4B44E9A0CDA99DEDBB233D&assignmentId=e4cffebd-3d97-4ae0-ac72-56646db8c62e&projectId=9076ac92-be42-43a2-9634-8b67c7fe93a7","25932BD4FF4B44E9A0CDA99DEDBB233D-2025-05-22-19-41-27","","null","","[]","null","",""
"","","","","","image-button-response","31","264457","0.0-10.0-1.0-0.2","25932BD4FF4B44E9A0CDA99DEDBB233D","25932BD4FF4B44E9A0CDA99DEDBB233D","e4cffebd-3d97-4ae0-ac72-56646db8c62e","9076ac92-be42-43a2-9634-8b67c7fe93a7","{""num_scrambled_semantic"":""8"",""num_scrambled_causal"":""4"",""num_scrambled_schematic"":""4"",""participantId"":""25932BD4FF4B44E9A0CDA99DEDBB233D"",""assignmentId"":""e4cffebd-3d97-4ae0-ac72-56646db8c62e"",""projectId"":""9076ac92-be42-43a2-9634-8b67c7fe93a7""}","https://test12345.live/?num_scrambled_semantic=8&num_scrambled_causal=4&num_scrambled_schematic=4&participantId=25932BD4FF4B44E9A0CDA99DEDBB233D&assignmentId=e4cffebd-3d97-4ae0-ac72-56646db8c62e&projectId=9076ac92-be42-43a2-9634-8b67c7fe93a7","25932BD4FF4B44E9A0CDA99DEDBB233D-2025-05-22-19-41-27","","null","","images/semantic_sequence/creative_activities_semantic/creative_activities_semantic_1.png","null","",""
"","","","","","image-button-response","32","265759","0.0-10.0-1.0-1.2","25932BD4FF4B44E9A0CDA99DEDBB233D","25932BD4FF4B44E9A0CDA99DEDBB233D","e4cffebd-3d97-4ae0-ac72-56646db8c62e","9076ac92-be42-43a2-9634-8b67c7fe93a7","{""num_scrambled_semantic"":""8"",""num_scrambled_causal"":""4"",""num_scrambled_schematic"":""4"",""participantId"":""25932BD4FF4B44E9A0CDA99DEDBB233D"",""assignmentId"":""e4cffebd-3d97-4ae0-ac72-56646db8c62e"",""projectId"":""9076ac92-be42-43a2-9634-8b67c7fe93a7""}","https://test12345.live/?num_scrambled_semantic=8&num_scrambled_causal=4&num_scrambled_schematic=4&participantId=25932BD4FF4B44E9A0CDA99DEDBB233D&assignmentId=e4cffebd-3d97-4ae0-ac72-56646db8c62e&projectId=9076ac92-be42-43a2-9634-8b67c7fe93a7","25932BD4FF4B44E9A0CDA99DEDBB233D-2025-05-22-19-41-27","","1301","","images/semantic_sequence/creative_activities_semantic/creative_activities_semantic_1.png","0","",""
"","","","","","image-button-response","33","267561","0.0-10.0-1.0-2.2","25932BD4FF4B44E9A0CDA99DEDBB233D","25932BD4FF4B44E9A0CDA99DEDBB233D","e4cffebd-3d97-4ae0-ac72-56646db8c62e","9076ac92-be42-43a2-9634-8b67c7fe93a7","{""num_scrambled_semantic"":""8"",""num_scrambled_causal"":""4"",""num_scrambled_schematic"":""4"",""participantId"":""25932BD4FF4B44E9A0CDA99DEDBB233D"",""assignmentId"":""e4cffebd-3d97-4ae0-ac72-56646db8c62e"",""projectId"":""9076ac92-be42-43a2-9634-8b67c7fe93a7""}","https://test12345.live/?num_scrambled_semantic=8&num_scrambled_causal=4&num_scrambled_schematic=4&participantId=25932BD4FF4B44E9A0CDA99DEDBB233D&assignmentId=e4cffebd-3d97-4ae0-ac72-56646db8c62e&projectId=9076ac92-be42-43a2-9634-8b67c7fe93a7","25932BD4FF4B44E9A0CDA99DEDBB233D-2025-05-22-19-41-27","","null","","[]","null","",""
"","","","","","image-button-response","34","272072","0.0-10.0-1.0-0.3","25932BD4FF4B44E9A0CDA99DEDBB233D","25932BD4FF4B44E9A0CDA99DEDBB233D","e4cffebd-3d97-4ae0-ac72-56646db8c62e","9076ac92-be42-43a2-9634-8b67c7fe93a7","{""num_scrambled_semantic"":""8"",""num_scrambled_causal"":""4"",""num_scrambled_schematic"":""4"",""participantId"":""25932BD4FF4B44E9A0CDA99DEDBB233D"",""assignmentId"":""e4cffebd-3d97-4ae0-ac72-56646db8c62e"",""projectId"":""9076ac92-be42-43a2-9634-8b67c7fe93a7""}","https://test12345.live/?num_scrambled_semantic=8&num_scrambled_causal=4&num_scrambled_schematic=4&participantId=25932BD4FF4B44E9A0CDA99DEDBB233D&assignmentId=e4cffebd-3d97-4ae0-ac72-56646db8c62e&projectId=9076ac92-be42-43a2-9634-8b67c7fe93a7","25932BD4FF4B44E9A0CDA99DEDBB233D-2025-05-22-19-41-27","","null","","images/semantic_sequence/creative_activities_semantic/creative_activities_semantic_5.png","null","",""
"","","","","","image-button-response","35","272962","0.0-10.0-1.0-1.3","25932BD4FF4B44E9A0CDA99DEDBB233D","25932BD4FF4B44E9A0CDA99DEDBB233D","e4cffebd-3d97-4ae0-ac72-56646db8c62e","9076ac92-be42-43a2-9634-8b67c7fe93a7","{""num_scrambled_semantic"":""8"",""num_scrambled_causal"":""4"",""num_scrambled_schematic"":""4"",""participantId"":""25932BD4FF4B44E9A0CDA99DEDBB233D"",""assignmentId"":""e4cffebd-3d97-4ae0-ac72-56646db8c62e"",""projectId"":""9076ac92-be42-43a2-9634-8b67c7fe93a7""}","https://test12345.live/?num_scrambled_semantic=8&num_scrambled_causal=4&num_scrambled_schematic=4&participantId=25932BD4FF4B44E9A0CDA99DEDBB233D&assignmentId=e4cffebd-3d97-4ae0-ac72-56646db8c62e&projectId=9076ac92-be42-43a2-9634-8b67c7fe93a7","25932BD4FF4B44E9A0CDA99DEDBB233D-2025-05-22-19-41-27","","889","","images/semantic_sequence/creative_activities_semantic/creative_activities_semantic_5.png","0","",""
"","","","","","image-button-response","36","274768","0.0-10.0-1.0-2.3","25932BD4FF4B44E9A0CDA99DEDBB233D","25932BD4FF4B44E9A0CDA99DEDBB233D","e4cffebd-3d97-4ae0-ac72-56646db8c62e","9076ac92-be42-43a2-9634-8b67c7fe93a7","{""num_scrambled_semantic"":""8"",""num_scrambled_causal"":""4"",""num_scrambled_schematic"":""4"",""participantId"":""25932BD4FF4B44E9A0CDA99DEDBB233D"",""assignmentId"":""e4cffebd-3d97-4ae0-ac72-56646db8c62e"",""projectId"":""9076ac92-be42-43a2-9634-8b67c7fe93a7""}","https://test12345.live/?num_scrambled_semantic=8&num_scrambled_causal=4&num_scrambled_schematic=4&participantId=25932BD4FF4B44E9A0CDA99DEDBB233D&assignmentId=e4cffebd-3d97-4ae0-ac72-56646db8c62e&projectId=9076ac92-be42-43a2-9634-8b67c7fe93a7","25932BD4FF4B44E9A0CDA99DEDBB233D-2025-05-22-19-41-27","","null","","[]","null","",""
"","","","","","image-button-response","37","279268","0.0-10.0-1.0-0.4","25932BD4FF4B44E9A0CDA99DEDBB233D","25932BD4FF4B44E9A0CDA99DEDBB233D","e4cffebd-3d97-4ae0-ac72-56646db8c62e","9076ac92-be42-43a2-9634-8b67c7fe93a7","{""num_scrambled_semantic"":""8"",""num_scrambled_causal"":""4"",""num_scrambled_schematic"":""4"",""participantId"":""25932BD4FF4B44E9A0CDA99DEDBB233D"",""assignmentId"":""e4cffebd-3d97-4ae0-ac72-56646db8c62e"",""projectId"":""9076ac92-be42-43a2-9634-8b67c7fe93a7""}","https://test12345.live/?num_scrambled_semantic=8&num_scrambled_causal=4&num_scrambled_schematic=4&participantId=25932BD4FF4B44E9A0CDA99DEDBB233D&assignmentId=e4cffebd-3d97-4ae0-ac72-56646db8c62e&projectId=9076ac92-be42-43a2-9634-8b67c7fe93a7","25932BD4FF4B44E9A0CDA99DEDBB233D-2025-05-22-19-41-27","","null","","images/semantic_sequence/creative_activities_semantic/creative_activities_semantic_3.png","null","",""
"","","","","","image-button-response","38","280332","0.0-10.0-1.0-1.4","25932BD4FF4B44E9A0CDA99DEDBB233D","25932BD4FF4B44E9A0CDA99DEDBB233D","e4cffebd-3d97-4ae0-ac72-56646db8c62e","9076ac92-be42-43a2-9634-8b67c7fe93a7","{""num_scrambled_semantic"":""8"",""num_scrambled_causal"":""4"",""num_scrambled_schematic"":""4"",""participantId"":""25932BD4FF4B44E9A0CDA99DEDBB233D"",""assignmentId"":""e4cffebd-3d97-4ae0-ac72-56646db8c62e"",""projectId"":""9076ac92-be42-43a2-9634-8b67c7fe93a7""}","https://test12345.live/?num_scrambled_semantic=8&num_scrambled_causal=4&num_scrambled_schematic=4&participantId=25932BD4FF4B44E9A0CDA99DEDBB233D&assignmentId=e4cffebd-3d97-4ae0-ac72-56646db8c62e&projectId=9076ac92-be42-43a2-9634-8b67c7fe93a7","25932BD4FF4B44E9A0CDA99DEDBB233D-2025-05-22-19-41-27","","1063","","images/semantic_sequence/creative_activities_semantic/creative_activities_semantic_3.png","0","",""
"","","","","","image-button-response","39","282144","0.0-10.0-1.0-2.4","25932BD4FF4B44E9A0CDA99DEDBB233D","25932BD4FF4B44E9A0CDA99DEDBB233D","e4cffebd-3d97-4ae0-ac72-56646db8c62e","9076ac92-be42-43a2-9634-8b67c7fe93a7","{""num_scrambled_semantic"":""8"",""num_scrambled_causal"":""4"",""num_scrambled_schematic"":""4"",""participantId"":""25932BD4FF4B44E9A0CDA99DEDBB233D"",""assignmentId"":""e4cffebd-3d97-4ae0-ac72-56646db8c62e"",""projectId"":""9076ac92-be42-43a2-9634-8b67c7fe93a7""}","https://test12345.live/?num_scrambled_semantic=8&num_scrambled_causal=4&num_scrambled_schematic=4&participantId=25932BD4FF4B44E9A0CDA99DEDBB233D&assignmentId=e4cffebd-3d97-4ae0-ac72-56646db8c62e&projectId=9076ac92-be42-43a2-9634-8b67c7fe93a7","25932BD4FF4B44E9A0CDA99DEDBB233D-2025-05-22-19-41-27","","null","","[]","null","",""
"","","","","","image-button-response","40","286645","0.0-10.0-1.0-0.5","25932BD4FF4B44E9A0CDA99DEDBB233D","25932BD4FF4B44E9A0CDA99DEDBB233D","e4cffebd-3d97-4ae0-ac72-56646db8c62e","9076ac92-be42-43a2-9634-8b67c7fe93a7","{""num_scrambled_semantic"":""8"",""num_scrambled_causal"":""4"",""num_scrambled_schematic"":""4"",""participantId"":""25932BD4FF4B44E9A0CDA99DEDBB233D"",""assignmentId"":""e4cffebd-3d97-4ae0-ac72-56646db8c62e"",""projectId"":""9076ac92-be42-43a2-9634-8b67c7fe93a7""}","https://test12345.live/?num_scrambled_semantic=8&num_scrambled_causal=4&num_scrambled_schematic=4&participantId=25932BD4FF4B44E9A0CDA99DEDBB233D&assignmentId=e4cffebd-3d97-4ae0-ac72-56646db8c62e&projectId=9076ac92-be42-43a2-9634-8b67c7fe93a7","25932BD4FF4B44E9A0CDA99DEDBB233D-2025-05-22-19-41-27","","null","","images/semantic_sequence/creative_activities_semantic/creative_activities_semantic_8.png","null","",""
"","","","","","image-button-response","41","287624","0.0-10.0-1.0-1.5","25932BD4FF4B44E9A0CDA99DEDBB233D","25932BD4FF4B44E9A0CDA99DEDBB233D","e4cffebd-3d97-4ae0-ac72-56646db8c62e","9076ac92-be42-43a2-9634-8b67c7fe93a7","{""num_scrambled_semantic"":""8"",""num_scrambled_causal"":""4"",""num_scrambled_schematic"":""4"",""participantId"":""25932BD4FF4B44E9A0CDA99DEDBB233D"",""assignmentId"":""e4cffebd-3d97-4ae0-ac72-56646db8c62e"",""projectId"":""9076ac92-be42-43a2-9634-8b67c7fe93a7""}","https://test12345.live/?num_scrambled_semantic=8&num_scrambled_causal=4&num_scrambled_schematic=4&participantId=25932BD4FF4B44E9A0CDA99DEDBB233D&assignmentId=e4cffebd-3d97-4ae0-ac72-56646db8c62e&projectId=9076ac92-be42-43a2-9634-8b67c7fe93a7","25932BD4FF4B44E9A0CDA99DEDBB233D-2025-05-22-19-41-27","","978","","images/semantic_sequence/creative_activities_semantic/creative_activities_semantic_8.png","0","",""
"","","","","","image-button-response","42","289431","0.0-10.0-1.0-2.5","25932BD4FF4B44E9A0CDA99DEDBB233D","25932BD4FF4B44E9A0CDA99DEDBB233D","e4cffebd-3d97-4ae0-ac72-56646db8c62e","9076ac92-be42-43a2-9634-8b67c7fe93a7","{""num_scrambled_semantic"":""8"",""num_scrambled_causal"":""4"",""num_scrambled_schematic"":""4"",""participantId"":""25932BD4FF4B44E9A0CDA99DEDBB233D"",""assignmentId"":""e4cffebd-3d97-4ae0-ac72-56646db8c62e"",""projectId"":""9076ac92-be42-43a2-9634-8b67c7fe93a7""}","https://test12345.live/?num_scrambled_semantic=8&num_scrambled_causal=4&num_scrambled_schematic=4&participantId=25932BD4FF4B44E9A0CDA99DEDBB233D&assignmentId=e4cffebd-3d97-4ae0-ac72-56646db8c62e&projectId=9076ac92-be42-43a2-9634-8b67c7fe93a7","25932BD4FF4B44E9A0CDA99DEDBB233D-2025-05-22-19-41-27","","null","","[]","null","",""
"","","","","","image-button-response","43","293934","0.0-10.0-1.0-0.6","25932BD4FF4B44E9A0CDA99DEDBB233D","25932BD4FF4B44E9A0CDA99DEDBB233D","e4cffebd-3d97-4ae0-ac72-56646db8c62e","9076ac92-be42-43a2-9634-8b67c7fe93a7","{""num_scrambled_semantic"":""8"",""num_scrambled_causal"":""4"",""num_scrambled_schematic"":""4"",""participantId"":""25932BD4FF4B44E9A0CDA99DEDBB233D"",""assignmentId"":""e4cffebd-3d97-4ae0-ac72-56646db8c62e"",""projectId"":""9076ac92-be42-43a2-9634-8b67c7fe93a7""}","https://test12345.live/?num_scrambled_semantic=8&num_scrambled_causal=4&num_scrambled_schematic=4&participantId=25932BD4FF4B44E9A0CDA99DEDBB233D&assignmentId=e4cffebd-3d97-4ae0-ac72-56646db8c62e&projectId=9076ac92-be42-43a2-9634-8b67c7fe93a7","25932BD4FF4B44E9A0CDA99DEDBB233D-2025-05-22-19-41-27","","null","","images/semantic_sequence/creative_activities_semantic/creative_activities_semantic_2.png","null","",""
"","","","","","image-button-response","44","294958","0.0-10.0-1.0-1.6","25932BD4FF4B44E9A0CDA99DEDBB233D","25932BD4FF4B44E9A0CDA99DEDBB233D","e4cffebd-3d97-4ae0-ac72-56646db8c62e","9076ac92-be42-43a2-9634-8b67c7fe93a7","{""num_scrambled_semantic"":""8"",""num_scrambled_causal"":""4"",""num_scrambled_schematic"":""4"",""participantId"":""25932BD4FF4B44E9A0CDA99DEDBB233D"",""assignmentId"":""e4cffebd-3d97-4ae0-ac72-56646db8c62e"",""projectId"":""9076ac92-be42-43a2-9634-8b67c7fe93a7""}","https://test12345.live/?num_scrambled_semantic=8&num_scrambled_causal=4&num_scrambled_schematic=4&participantId=25932BD4FF4B44E9A0CDA99DEDBB233D&assignmentId=e4cffebd-3d97-4ae0-ac72-56646db8c62e&projectId=9076ac92-be42-43a2-9634-8b67c7fe93a7","25932BD4FF4B44E9A0CDA99DEDBB233D-2025-05-22-19-41-27","","1023","","images/semantic_sequence/creative_activities_semantic/creative_activities_semantic_2.png","0","",""
"","","","","","image-button-response","45","296769","0.0-10.0-1.0-2.6","25932BD4FF4B44E9A0CDA99DEDBB233D","25932BD4FF4B44E9A0CDA99DEDBB233D","e4cffebd-3d97-4ae0-ac72-56646db8c62e","9076ac92-be42-43a2-9634-8b67c7fe93a7","{""num_scrambled_semantic"":""8"",""num_scrambled_causal"":""4"",""num_scrambled_schematic"":""4"",""participantId"":""25932BD4FF4B44E9A0CDA99DEDBB233D"",""assignmentId"":""e4cffebd-3d97-4ae0-ac72-56646db8c62e"",""projectId"":""9076ac92-be42-43a2-9634-8b67c7fe93a7""}","https://test12345.live/?num_scrambled_semantic=8&num_scrambled_causal=4&num_scrambled_schematic=4&participantId=25932BD4FF4B44E9A0CDA99DEDBB233D&assignmentId=e4cffebd-3d97-4ae0-ac72-56646db8c62e&projectId=9076ac92-be42-43a2-9634-8b67c7fe93a7","25932BD4FF4B44E9A0CDA99DEDBB233D-2025-05-22-19-41-27","","null","","[]","null","",""
"","","","","","image-button-response","46","301275","0.0-10.0-1.0-0.7","25932BD4FF4B44E9A0CDA99DEDBB233D","25932BD4FF4B44E9A0CDA99DEDBB233D","e4cffebd-3d97-4ae0-ac72-56646db8c62e","9076ac92-be42-43a2-9634-8b67c7fe93a7","{""num_scrambled_semantic"":""8"",""num_scrambled_causal"":""4"",""num_scrambled_schematic"":""4"",""participantId"":""25932BD4FF4B44E9A0CDA99DEDBB233D"",""assignmentId"":""e4cffebd-3d97-4ae0-ac72-56646db8c62e"",""projectId"":""9076ac92-be42-43a2-9634-8b67c7fe93a7""}","https://test12345.live/?num_scrambled_semantic=8&num_scrambled_causal=4&num_scrambled_schematic=4&participantId=25932BD4FF4B44E9A0CDA99DEDBB233D&assignmentId=e4cffebd-3d97-4ae0-ac72-56646db8c62e&projectId=9076ac92-be42-43a2-9634-8b67c7fe93a7","25932BD4FF4B44E9A0CDA99DEDBB233D-2025-05-22-19-41-27","","null","","images/semantic_sequence/creative_activities_semantic/creative_activities_semantic_7.png","null","",""
"","","","","","image-button-response","47","302585","0.0-10.0-1.0-1.7","25932BD4FF4B44E9A0CDA99DEDBB233D","25932BD4FF4B44E9A0CDA99DEDBB233D","e4cffebd-3d97-4ae0-ac72-56646db8c62e","9076ac92-be42-43a2-9634-8b67c7fe93a7","{""num_scrambled_semantic"":""8"",""num_scrambled_causal"":""4"",""num_scrambled_schematic"":""4"",""participantId"":""25932BD4FF4B44E9A0CDA99DEDBB233D"",""assignmentId"":""e4cffebd-3d97-4ae0-ac72-56646db8c62e"",""projectId"":""9076ac92-be42-43a2-9634-8b67c7fe93a7""}","https://test12345.live/?num_scrambled_semantic=8&num_scrambled_causal=4&num_scrambled_schematic=4&participantId=25932BD4FF4B44E9A0CDA99DEDBB233D&assignmentId=e4cffebd-3d97-4ae0-ac72-56646db8c62e&projectId=9076ac92-be42-43a2-9634-8b67c7fe93a7","25932BD4FF4B44E9A0CDA99DEDBB233D-2025-05-22-19-41-27","","1310","","images/semantic_sequence/creative_activities_semantic/creative_activities_semantic_7.png","0","",""
"","","","","","image-button-response","48","304394","0.0-10.0-1.0-2.7","25932BD4FF4B44E9A0CDA99DEDBB233D","25932BD4FF4B44E9A0CDA99DEDBB233D","e4cffebd-3d97-4ae0-ac72-56646db8c62e","9076ac92-be42-43a2-9634-8b67c7fe93a7","{""num_scrambled_semantic"":""8"",""num_scrambled_causal"":""4"",""num_scrambled_schematic"":""4"",""participantId"":""25932BD4FF4B44E9A0CDA99DEDBB233D"",""assignmentId"":""e4cffebd-3d97-4ae0-ac72-56646db8c62e"",""projectId"":""9076ac92-be42-43a2-9634-8b67c7fe93a7""}","https://test12345.live/?num_scrambled_semantic=8&num_scrambled_causal=4&num_scrambled_schematic=4&participantId=25932BD4FF4B44E9A0CDA99DEDBB233D&assignmentId=e4cffebd-3d97-4ae0-ac72-56646db8c62e&projectId=9076ac92-be42-43a2-9634-8b67c7fe93a7","25932BD4FF4B44E9A0CDA99DEDBB233D-2025-05-22-19-41-27","","null","","[]","null","",""
"","","","","","image-button-response","49","308895","0.0-10.0-1.0-0.8","25932BD4FF4B44E9A0CDA99DEDBB233D","25932BD4FF4B44E9A0CDA99DEDBB233D","e4cffebd-3d97-4ae0-ac72-56646db8c62e","9076ac92-be42-43a2-9634-8b67c7fe93a7","{""num_scrambled_semantic"":""8"",""num_scrambled_causal"":""4"",""num_scrambled_schematic"":""4"",""participantId"":""25932BD4FF4B44E9A0CDA99DEDBB233D"",""assignmentId"":""e4cffebd-3d97-4ae0-ac72-56646db8c62e"",""projectId"":""9076ac92-be42-43a2-9634-8b67c7fe93a7""}","https://test12345.live/?num_scrambled_semantic=8&num_scrambled_causal=4&num_scrambled_schematic=4&participantId=25932BD4FF4B44E9A0CDA99DEDBB233D&assignmentId=e4cffebd-3d97-4ae0-ac72-56646db8c62e&projectId=9076ac92-be42-43a2-9634-8b67c7fe93a7","25932BD4FF4B44E9A0CDA99DEDBB233D-2025-05-22-19-41-27","","null","","images/semantic_sequence/creative_activities_semantic/creative_activities_semantic_4.png","null","",""
"","","","","","image-button-response","50","309780","0.0-10.0-1.0-1.8","25932BD4FF4B44E9A0CDA99DEDBB233D","25932BD4FF4B44E9A0CDA99DEDBB233D","e4cffebd-3d97-4ae0-ac72-56646db8c62e","9076ac92-be42-43a2-9634-8b67c7fe93a7","{""num_scrambled_semantic"":""8"",""num_scrambled_causal"":""4"",""num_scrambled_schematic"":""4"",""participantId"":""25932BD4FF4B44E9A0CDA99DEDBB233D"",""assignmentId"":""e4cffebd-3d97-4ae0-ac72-56646db8c62e"",""projectId"":""9076ac92-be42-43a2-9634-8b67c7fe93a7""}","https://test12345.live/?num_scrambled_semantic=8&num_scrambled_causal=4&num_scrambled_schematic=4&participantId=25932BD4FF4B44E9A0CDA99DEDBB233D&assignmentId=e4cffebd-3d97-4ae0-ac72-56646db8c62e&projectId=9076ac92-be42-43a2-9634-8b67c7fe93a7","25932BD4FF4B44E9A0CDA99DEDBB233D-2025-05-22-19-41-27","","884","","images/semantic_sequence/creative_activities_semantic/creative_activities_semantic_4.png","0","",""
"","","","","","image-button-response","51","311582","0.0-10.0-1.0-2.8","25932BD4FF4B44E9A0CDA99DEDBB233D","25932BD4FF4B44E9A0CDA99DEDBB233D","e4cffebd-3d97-4ae0-ac72-56646db8c62e","9076ac92-be42-43a2-9634-8b67c7fe93a7","{""num_scrambled_semantic"":""8"",""num_scrambled_causal"":""4"",""num_scrambled_schematic"":""4"",""participantId"":""25932BD4FF4B44E9A0CDA99DEDBB233D"",""assignmentId"":""e4cffebd-3d97-4ae0-ac72-56646db8c62e"",""projectId"":""9076ac92-be42-43a2-9634-8b67c7fe93a7""}","https://test12345.live/?num_scrambled_semantic=8&num_scrambled_causal=4&num_scrambled_schematic=4&participantId=25932BD4FF4B44E9A0CDA99DEDBB233D&assignmentId=e4cffebd-3d97-4ae0-ac72-56646db8c62e&projectId=9076ac92-be42-43a2-9634-8b67c7fe93a7","25932BD4FF4B44E9A0CDA99DEDBB233D-2025-05-22-19-41-27","","null","","[]","null","",""
"","","","","","image-button-response","52","316082","0.0-10.0-1.0-0.9","25932BD4FF4B44E9A0CDA99DEDBB233D","25932BD4FF4B44E9A0CDA99DEDBB233D","e4cffebd-3d97-4ae0-ac72-56646db8c62e","9076ac92-be42-43a2-9634-8b67c7fe93a7","{""num_scrambled_semantic"":""8"",""num_scrambled_causal"":""4"",""num_scrambled_schematic"":""4"",""participantId"":""25932BD4FF4B44E9A0CDA99DEDBB233D"",""assignmentId"":""e4cffebd-3d97-4ae0-ac72-56646db8c62e"",""projectId"":""9076ac92-be42-43a2-9634-8b67c7fe93a7""}","https://test12345.live/?num_scrambled_semantic=8&num_scrambled_causal=4&num_scrambled_schematic=4&participantId=25932BD4FF4B44E9A0CDA99DEDBB233D&assignmentId=e4cffebd-3d97-4ae0-ac72-56646db8c62e&projectId=9076ac92-be42-43a2-9634-8b67c7fe93a7","25932BD4FF4B44E9A0CDA99DEDBB233D-2025-05-22-19-41-27","","null","","images/semantic_sequence/creative_activities_semantic/creative_activities_semantic_9.png","null","",""
"","","","","","image-button-response","53","318723","0.0-10.0-1.0-1.9","25932BD4FF4B44E9A0CDA99DEDBB233D","25932BD4FF4B44E9A0CDA99DEDBB233D","e4cffebd-3d97-4ae0-ac72-56646db8c62e","9076ac92-be42-43a2-9634-8b67c7fe93a7","{""num_scrambled_semantic"":""8"",""num_scrambled_causal"":""4"",""num_scrambled_schematic"":""4"",""participantId"":""25932BD4FF4B44E9A0CDA99DEDBB233D"",""assignmentId"":""e4cffebd-3d97-4ae0-ac72-56646db8c62e"",""projectId"":""9076ac92-be42-43a2-9634-8b67c7fe93a7""}","https://test12345.live/?num_scrambled_semantic=8&num_scrambled_causal=4&num_scrambled_schematic=4&participantId=25932BD4FF4B44E9A0CDA99DEDBB233D&assignmentId=e4cffebd-3d97-4ae0-ac72-56646db8c62e&projectId=9076ac92-be42-43a2-9634-8b67c7fe93a7","25932BD4FF4B44E9A0CDA99DEDBB233D-2025-05-22-19-41-27","","2640","","images/semantic_sequence/creative_activities_semantic/creative_activities_semantic_9.png","1","",""
"","","","","","image-button-response","54","320535","0.0-10.0-1.0-2.9","25932BD4FF4B44E9A0CDA99DEDBB233D","25932BD4FF4B44E9A0CDA99DEDBB233D","e4cffebd-3d97-4ae0-ac72-56646db8c62e","9076ac92-be42-43a2-9634-8b67c7fe93a7","{""num_scrambled_semantic"":""8"",""num_scrambled_causal"":""4"",""num_scrambled_schematic"":""4"",""participantId"":""25932BD4FF4B44E9A0CDA99DEDBB233D"",""assignmentId"":""e4cffebd-3d97-4ae0-ac72-56646db8c62e"",""projectId"":""9076ac92-be42-43a2-9634-8b67c7fe93a7""}","https://test12345.live/?num_scrambled_semantic=8&num_scrambled_causal=4&num_scrambled_schematic=4&participantId=25932BD4FF4B44E9A0CDA99DEDBB233D&assignmentId=e4cffebd-3d97-4ae0-ac72-56646db8c62e&projectId=9076ac92-be42-43a2-9634-8b67c7fe93a7","25932BD4FF4B44E9A0CDA99DEDBB233D-2025-05-22-19-41-27","","null","","[]","null","",""
"","","","","","html-audio-response","55","373494","0.0-11.0","25932BD4FF4B44E9A0CDA99DEDBB233D","25932BD4FF4B44E9A0CDA99DEDBB233D","e4cffebd-3d97-4ae0-ac72-56646db8c62e","9076ac92-be42-43a2-9634-8b67c7fe93a7","{""num_scrambled_semantic"":""8"",""num_scrambled_causal"":""4"",""num_scrambled_schematic"":""4"",""participantId"":""25932BD4FF4B44E9A0CDA99DEDBB233D"",""assignmentId"":""e4cffebd-3d97-4ae0-ac72-56646db8c62e"",""projectId"":""9076ac92-be42-43a2-9634-8b67c7fe93a7""}","https://test12345.live/?num_scrambled_semantic=8&num_scrambled_causal=4&num_scrambled_schematic=4&participantId=25932BD4FF4B44E9A0CDA99DEDBB233D&assignmentId=e4cffebd-3d97-4ae0-ac72-56646db8c62e&projectId=9076ac92-be42-43a2-9634-8b67c7fe93a7","25932BD4FF4B44E9A0CDA99DEDBB233D-2025-05-22-19-41-27","","51343","","[""<span style=\""color: red; font-size: 24px\""> NOW RECORDING</span><p>Please say out loud all the images you saw, in the exact order you saw them. Try to recall as many images as you can, but remember: getting the order right is more important than the number of images you recall.</p>""]","","1","creative_activities_semantic"
"","","","","","image-button-response","56","379501","0.0-12.0-0.0","25932BD4FF4B44E9A0CDA99DEDBB233D","25932BD4FF4B44E9A0CDA99DEDBB233D","e4cffebd-3d97-4ae0-ac72-56646db8c62e","9076ac92-be42-43a2-9634-8b67c7fe93a7","{""num_scrambled_semantic"":""8"",""num_scrambled_causal"":""4"",""num_scrambled_schematic"":""4"",""participantId"":""25932BD4FF4B44E9A0CDA99DEDBB233D"",""assignmentId"":""e4cffebd-3d97-4ae0-ac72-56646db8c62e"",""projectId"":""9076ac92-be42-43a2-9634-8b67c7fe93a7""}","https://test12345.live/?num_scrambled_semantic=8&num_scrambled_causal=4&num_scrambled_schematic=4&participantId=25932BD4FF4B44E9A0CDA99DEDBB233D&assignmentId=e4cffebd-3d97-4ae0-ac72-56646db8c62e&projectId=9076ac92-be42-43a2-9634-8b67c7fe93a7","25932BD4FF4B44E9A0CDA99DEDBB233D-2025-05-22-19-41-27","","null","","images/semantic_sequence/market_semantic/market_semantic_0.png","null","",""
"","","","","","image-button-response","57","384006","0.0-12.0-1.0-0.0","25932BD4FF4B44E9A0CDA99DEDBB233D","25932BD4FF4B44E9A0CDA99DEDBB233D","e4cffebd-3d97-4ae0-ac72-56646db8c62e","9076ac92-be42-43a2-9634-8b67c7fe93a7","{""num_scrambled_semantic"":""8"",""num_scrambled_causal"":""4"",""num_scrambled_schematic"":""4"",""participantId"":""25932BD4FF4B44E9A0CDA99DEDBB233D"",""assignmentId"":""e4cffebd-3d97-4ae0-ac72-56646db8c62e"",""projectId"":""9076ac92-be42-43a2-9634-8b67c7fe93a7""}","https://test12345.live/?num_scrambled_semantic=8&num_scrambled_causal=4&num_scrambled_schematic=4&participantId=25932BD4FF4B44E9A0CDA99DEDBB233D&assignmentId=e4cffebd-3d97-4ae0-ac72-56646db8c62e&projectId=9076ac92-be42-43a2-9634-8b67c7fe93a7","25932BD4FF4B44E9A0CDA99DEDBB233D-2025-05-22-19-41-27","","null","","images/semantic_sequence/market_semantic/market_semantic_5.png","null","",""
"","","","","","image-button-response","58","385590","0.0-12.0-1.0-1.0","25932BD4FF4B44E9A0CDA99DEDBB233D","25932BD4FF4B44E9A0CDA99DEDBB233D","e4cffebd-3d97-4ae0-ac72-56646db8c62e","9076ac92-be42-43a2-9634-8b67c7fe93a7","{""num_scrambled_semantic"":""8"",""num_scrambled_causal"":""4"",""num_scrambled_schematic"":""4"",""participantId"":""25932BD4FF4B44E9A0CDA99DEDBB233D"",""assignmentId"":""e4cffebd-3d97-4ae0-ac72-56646db8c62e"",""projectId"":""9076ac92-be42-43a2-9634-8b67c7fe93a7""}","https://test12345.live/?num_scrambled_semantic=8&num_scrambled_causal=4&num_scrambled_schematic=4&participantId=25932BD4FF4B44E9A0CDA99DEDBB233D&assignmentId=e4cffebd-3d97-4ae0-ac72-56646db8c62e&projectId=9076ac92-be42-43a2-9634-8b67c7fe93a7","25932BD4FF4B44E9A0CDA99DEDBB233D-2025-05-22-19-41-27","","1583","","images/semantic_sequence/market_semantic/market_semantic_5.png","1","",""
"","","","","","image-button-response","59","387405","0.0-12.0-1.0-2.0","25932BD4FF4B44E9A0CDA99DEDBB233D","25932BD4FF4B44E9A0CDA99DEDBB233D","e4cffebd-3d97-4ae0-ac72-56646db8c62e","9076ac92-be42-43a2-9634-8b67c7fe93a7","{""num_scrambled_semantic"":""8"",""num_scrambled_causal"":""4"",""num_scrambled_schematic"":""4"",""participantId"":""25932BD4FF4B44E9A0CDA99DEDBB233D"",""assignmentId"":""e4cffebd-3d97-4ae0-ac72-56646db8c62e"",""projectId"":""9076ac92-be42-43a2-9634-8b67c7fe93a7""}","https://test12345.live/?num_scrambled_semantic=8&num_scrambled_causal=4&num_scrambled_schematic=4&participantId=25932BD4FF4B44E9A0CDA99DEDBB233D&assignmentId=e4cffebd-3d97-4ae0-ac72-56646db8c62e&projectId=9076ac92-be42-43a2-9634-8b67c7fe93a7","25932BD4FF4B44E9A0CDA99DEDBB233D-2025-05-22-19-41-27","","null","","[]","null","",""
"","","","","","image-button-response","60","391911","0.0-12.0-1.0-0.1","25932BD4FF4B44E9A0CDA99DEDBB233D","25932BD4FF4B44E9A0CDA99DEDBB233D","e4cffebd-3d97-4ae0-ac72-56646db8c62e","9076ac92-be42-43a2-9634-8b67c7fe93a7","{""num_scrambled_semantic"":""8"",""num_scrambled_causal"":""4"",""num_scrambled_schematic"":""4"",""participantId"":""25932BD4FF4B44E9A0CDA99DEDBB233D"",""assignmentId"":""e4cffebd-3d97-4ae0-ac72-56646db8c62e"",""projectId"":""9076ac92-be42-43a2-9634-8b67c7fe93a7""}","https://test12345.live/?num_scrambled_semantic=8&num_scrambled_causal=4&num_scrambled_schematic=4&participantId=25932BD4FF4B44E9A0CDA99DEDBB233D&assignmentId=e4cffebd-3d97-4ae0-ac72-56646db8c62e&projectId=9076ac92-be42-43a2-9634-8b67c7fe93a7","25932BD4FF4B44E9A0CDA99DEDBB233D-2025-05-22-19-41-27","","null","","images/semantic_sequence/market_semantic/market_semantic_9.png","null","",""
"","","","","","image-button-response","61","395025","0.0-12.0-1.0-1.1","25932BD4FF4B44E9A0CDA99DEDBB233D","25932BD4FF4B44E9A0CDA99DEDBB233D","e4cffebd-3d97-4ae0-ac72-56646db8c62e","9076ac92-be42-43a2-9634-8b67c7fe93a7","{""num_scrambled_semantic"":""8"",""num_scrambled_causal"":""4"",""num_scrambled_schematic"":""4"",""participantId"":""25932BD4FF4B44E9A0CDA99DEDBB233D"",""assignmentId"":""e4cffebd-3d97-4ae0-ac72-56646db8c62e"",""projectId"":""9076ac92-be42-43a2-9634-8b67c7fe93a7""}","https://test12345.live/?num_scrambled_semantic=8&num_scrambled_causal=4&num_scrambled_schematic=4&participantId=25932BD4FF4B44E9A0CDA99DEDBB233D&assignmentId=e4cffebd-3d97-4ae0-ac72-56646db8c62e&projectId=9076ac92-be42-43a2-9634-8b67c7fe93a7","25932BD4FF4B44E9A0CDA99DEDBB233D-2025-05-22-19-41-27","","3113","","images/semantic_sequence/market_semantic/market_semantic_9.png","0","",""
"","","","","","image-button-response","62","396826","0.0-12.0-1.0-2.1","25932BD4FF4B44E9A0CDA99DEDBB233D","25932BD4FF4B44E9A0CDA99DEDBB233D","e4cffebd-3d97-4ae0-ac72-56646db8c62e","9076ac92-be42-43a2-9634-8b67c7fe93a7","{""num_scrambled_semantic"":""8"",""num_scrambled_causal"":""4"",""num_scrambled_schematic"":""4"",""participantId"":""25932BD4FF4B44E9A0CDA99DEDBB233D"",""assignmentId"":""e4cffebd-3d97-4ae0-ac72-56646db8c62e"",""projectId"":""9076ac92-be42-43a2-9634-8b67c7fe93a7""}","https://test12345.live/?num_scrambled_semantic=8&num_scrambled_causal=4&num_scrambled_schematic=4&participantId=25932BD4FF4B44E9A0CDA99DEDBB233D&assignmentId=e4cffebd-3d97-4ae0-ac72-56646db8c62e&projectId=9076ac92-be42-43a2-9634-8b67c7fe93a7","25932BD4FF4B44E9A0CDA99DEDBB233D-2025-05-22-19-41-27","","null","","[]","null","",""
"","","","","","image-button-response","63","401331","0.0-12.0-1.0-0.2","25932BD4FF4B44E9A0CDA99DEDBB233D","25932BD4FF4B44E9A0CDA99DEDBB233D","e4cffebd-3d97-4ae0-ac72-56646db8c62e","9076ac92-be42-43a2-9634-8b67c7fe93a7","{""num_scrambled_semantic"":""8"",""num_scrambled_causal"":""4"",""num_scrambled_schematic"":""4"",""participantId"":""25932BD4FF4B44E9A0CDA99DEDBB233D"",""assignmentId"":""e4cffebd-3d97-4ae0-ac72-56646db8c62e"",""projectId"":""9076ac92-be42-43a2-9634-8b67c7fe93a7""}","https://test12345.live/?num_scrambled_semantic=8&num_scrambled_causal=4&num_scrambled_schematic=4&participantId=25932BD4FF4B44E9A0CDA99DEDBB233D&assignmentId=e4cffebd-3d97-4ae0-ac72-56646db8c62e&projectId=9076ac92-be42-43a2-9634-8b67c7fe93a7","25932BD4FF4B44E9A0CDA99DEDBB233D-2025-05-22-19-41-27","","null","","images/semantic_sequence/market_semantic/market_semantic_2.png","null","",""
"","","","","","image-button-response","64","404320","0.0-12.0-1.0-1.2","25932BD4FF4B44E9A0CDA99DEDBB233D","25932BD4FF4B44E9A0CDA99DEDBB233D","e4cffebd-3d97-4ae0-ac72-56646db8c62e","9076ac92-be42-43a2-9634-8b67c7fe93a7","{""num_scrambled_semantic"":""8"",""num_scrambled_causal"":""4"",""num_scrambled_schematic"":""4"",""participantId"":""25932BD4FF4B44E9A0CDA99DEDBB233D"",""assignmentId"":""e4cffebd-3d97-4ae0-ac72-56646db8c62e"",""projectId"":""9076ac92-be42-43a2-9634-8b67c7fe93a7""}","https://test12345.live/?num_scrambled_semantic=8&num_scrambled_causal=4&num_scrambled_schematic=4&participantId=25932BD4FF4B44E9A0CDA99DEDBB233D&assignmentId=e4cffebd-3d97-4ae0-ac72-56646db8c62e&projectId=9076ac92-be42-43a2-9634-8b67c7fe93a7","25932BD4FF4B44E9A0CDA99DEDBB233D-2025-05-22-19-41-27","","2988","","images/semantic_sequence/market_semantic/market_semantic_2.png","1","",""
"","","","","","image-button-response","65","406135","0.0-12.0-1.0-2.2","25932BD4FF4B44E9A0CDA99DEDBB233D","25932BD4FF4B44E9A0CDA99DEDBB233D","e4cffebd-3d97-4ae0-ac72-56646db8c62e","9076ac92-be42-43a2-9634-8b67c7fe93a7","{""num_scrambled_semantic"":""8"",""num_scrambled_causal"":""4"",""num_scrambled_schematic"":""4"",""participantId"":""25932BD4FF4B44E9A0CDA99DEDBB233D"",""assignmentId"":""e4cffebd-3d97-4ae0-ac72-56646db8c62e"",""projectId"":""9076ac92-be42-43a2-9634-8b67c7fe93a7""}","https://test12345.live/?num_scrambled_semantic=8&num_scrambled_causal=4&num_scrambled_schematic=4&participantId=25932BD4FF4B44E9A0CDA99DEDBB233D&assignmentId=e4cffebd-3d97-4ae0-ac72-56646db8c62e&projectId=9076ac92-be42-43a2-9634-8b67c7fe93a7","25932BD4FF4B44E9A0CDA99DEDBB233D-2025-05-22-19-41-27","","null","","[]","null","",""
"","","","","","image-button-response","66","410638","0.0-12.0-1.0-0.3","25932BD4FF4B44E9A0CDA99DEDBB233D","25932BD4FF4B44E9A0CDA99DEDBB233D","e4cffebd-3d97-4ae0-ac72-56646db8c62e","9076ac92-be42-43a2-9634-8b67c7fe93a7","{""num_scrambled_semantic"":""8"",""num_scrambled_causal"":""4"",""num_scrambled_schematic"":""4"",""participantId"":""25932BD4FF4B44E9A0CDA99DEDBB233D"",""assignmentId"":""e4cffebd-3d97-4ae0-ac72-56646db8c62e"",""projectId"":""9076ac92-be42-43a2-9634-8b67c7fe93a7""}","https://test12345.live/?num_scrambled_semantic=8&num_scrambled_causal=4&num_scrambled_schematic=4&participantId=25932BD4FF4B44E9A0CDA99DEDBB233D&assignmentId=e4cffebd-3d97-4ae0-ac72-56646db8c62e&projectId=9076ac92-be42-43a2-9634-8b67c7fe93a7","25932BD4FF4B44E9A0CDA99DEDBB233D-2025-05-22-19-41-27","","null","","images/semantic_sequence/market_semantic/market_semantic_7.png","null","",""
"","","","","","image-button-response","67","411943","0.0-12.0-1.0-1.3","25932BD4FF4B44E9A0CDA99DEDBB233D","25932BD4FF4B44E9A0CDA99DEDBB233D","e4cffebd-3d97-4ae0-ac72-56646db8c62e","9076ac92-be42-43a2-9634-8b67c7fe93a7","{""num_scrambled_semantic"":""8"",""num_scrambled_causal"":""4"",""num_scrambled_schematic"":""4"",""participantId"":""25932BD4FF4B44E9A0CDA99DEDBB233D"",""assignmentId"":""e4cffebd-3d97-4ae0-ac72-56646db8c62e"",""projectId"":""9076ac92-be42-43a2-9634-8b67c7fe93a7""}","https://test12345.live/?num_scrambled_semantic=8&num_scrambled_causal=4&num_scrambled_schematic=4&participantId=25932BD4FF4B44E9A0CDA99DEDBB233D&assignmentId=e4cffebd-3d97-4ae0-ac72-56646db8c62e&projectId=9076ac92-be42-43a2-9634-8b67c7fe93a7","25932BD4FF4B44E9A0CDA99DEDBB233D-2025-05-22-19-41-27","","1305","","images/semantic_sequence/market_semantic/market_semantic_7.png","0","",""
"","","","","","image-button-response","68","413750","0.0-12.0-1.0-2.3","25932BD4FF4B44E9A0CDA99DEDBB233D","25932BD4FF4B44E9A0CDA99DEDBB233D","e4cffebd-3d97-4ae0-ac72-56646db8c62e","9076ac92-be42-43a2-9634-8b67c7fe93a7","{""num_scrambled_semantic"":""8"",""num_scrambled_causal"":""4"",""num_scrambled_schematic"":""4"",""participantId"":""25932BD4FF4B44E9A0CDA99DEDBB233D"",""assignmentId"":""e4cffebd-3d97-4ae0-ac72-56646db8c62e"",""projectId"":""9076ac92-be42-43a2-9634-8b67c7fe93a7""}","https://test12345.live/?num_scrambled_semantic=8&num_scrambled_causal=4&num_scrambled_schematic=4&participantId=25932BD4FF4B44E9A0CDA99DEDBB233D&assignmentId=e4cffebd-3d97-4ae0-ac72-56646db8c62e&projectId=9076ac92-be42-43a2-9634-8b67c7fe93a7","25932BD4FF4B44E9A0CDA99DEDBB233D-2025-05-22-19-41-27","","null","","[]","null","",""
"","","","","","image-button-response","69","418252","0.0-12.0-1.0-0.4","25932BD4FF4B44E9A0CDA99DEDBB233D","25932BD4FF4B44E9A0CDA99DEDBB233D","e4cffebd-3d97-4ae0-ac72-56646db8c62e","9076ac92-be42-43a2-9634-8b67c7fe93a7","{""num_scrambled_semantic"":""8"",""num_scrambled_causal"":""4"",""num_scrambled_schematic"":""4"",""participantId"":""25932BD4FF4B44E9A0CDA99DEDBB233D"",""assignmentId"":""e4cffebd-3d97-4ae0-ac72-56646db8c62e"",""projectId"":""9076ac92-be42-43a2-9634-8b67c7fe93a7""}","https://test12345.live/?num_scrambled_semantic=8&num_scrambled_causal=4&num_scrambled_schematic=4&participantId=25932BD4FF4B44E9A0CDA99DEDBB233D&assignmentId=e4cffebd-3d97-4ae0-ac72-56646db8c62e&projectId=9076ac92-be42-43a2-9634-8b67c7fe93a7","25932BD4FF4B44E9A0CDA99DEDBB233D-2025-05-22-19-41-27","","null","","images/semantic_sequence/market_semantic/market_semantic_3.png","null","",""
"","","","","","image-button-response","70","419403","0.0-12.0-1.0-1.4","25932BD4FF4B44E9A0CDA99DEDBB233D","25932BD4FF4B44E9A0CDA99DEDBB233D","e4cffebd-3d97-4ae0-ac72-56646db8c62e","9076ac92-be42-43a2-9634-8b67c7fe93a7","{""num_scrambled_semantic"":""8"",""num_scrambled_causal"":""4"",""num_scrambled_schematic"":""4"",""participantId"":""25932BD4FF4B44E9A0CDA99DEDBB233D"",""assignmentId"":""e4cffebd-3d97-4ae0-ac72-56646db8c62e"",""projectId"":""9076ac92-be42-43a2-9634-8b67c7fe93a7""}","https://test12345.live/?num_scrambled_semantic=8&num_scrambled_causal=4&num_scrambled_schematic=4&participantId=25932BD4FF4B44E9A0CDA99DEDBB233D&assignmentId=e4cffebd-3d97-4ae0-ac72-56646db8c62e&projectId=9076ac92-be42-43a2-9634-8b67c7fe93a7","25932BD4FF4B44E9A0CDA99DEDBB233D-2025-05-22-19-41-27","","1150","","images/semantic_sequence/market_semantic/market_semantic_3.png","1","",""
"","","","","","image-button-response","71","421218","0.0-12.0-1.0-2.4","25932BD4FF4B44E9A0CDA99DEDBB233D","25932BD4FF4B44E9A0CDA99DEDBB233D","e4cffebd-3d97-4ae0-ac72-56646db8c62e","9076ac92-be42-43a2-9634-8b67c7fe93a7","{""num_scrambled_semantic"":""8"",""num_scrambled_causal"":""4"",""num_scrambled_schematic"":""4"",""participantId"":""25932BD4FF4B44E9A0CDA99DEDBB233D"",""assignmentId"":""e4cffebd-3d97-4ae0-ac72-56646db8c62e"",""projectId"":""9076ac92-be42-43a2-9634-8b67c7fe93a7""}","https://test12345.live/?num_scrambled_semantic=8&num_scrambled_causal=4&num_scrambled_schematic=4&participantId=25932BD4FF4B44E9A0CDA99DEDBB233D&assignmentId=e4cffebd-3d97-4ae0-ac72-56646db8c62e&projectId=9076ac92-be42-43a2-9634-8b67c7fe93a7","25932BD4FF4B44E9A0CDA99DEDBB233D-2025-05-22-19-41-27","","null","","[]","null","",""
"","","","","","image-button-response","72","425729","0.0-12.0-1.0-0.5","25932BD4FF4B44E9A0CDA99DEDBB233D","25932BD4FF4B44E9A0CDA99DEDBB233D","e4cffebd-3d97-4ae0-ac72-56646db8c62e","9076ac92-be42-43a2-9634-8b67c7fe93a7","{""num_scrambled_semantic"":""8"",""num_scrambled_causal"":""4"",""num_scrambled_schematic"":""4"",""participantId"":""25932BD4FF4B44E9A0CDA99DEDBB233D"",""assignmentId"":""e4cffebd-3d97-4ae0-ac72-56646db8c62e"",""projectId"":""9076ac92-be42-43a2-9634-8b67c7fe93a7""}","https://test12345.live/?num_scrambled_semantic=8&num_scrambled_causal=4&num_scrambled_schematic=4&participantId=25932BD4FF4B44E9A0CDA99DEDBB233D&assignmentId=e4cffebd-3d97-4ae0-ac72-56646db8c62e&projectId=9076ac92-be42-43a2-9634-8b67c7fe93a7","25932BD4FF4B44E9A0CDA99DEDBB233D-2025-05-22-19-41-27","","null","","images/semantic_sequence/market_semantic/market_semantic_8.png","null","",""
"","","","","","image-button-response","73","427739","0.0-12.0-1.0-1.5","25932BD4FF4B44E9A0CDA99DEDBB233D","25932BD4FF4B44E9A0CDA99DEDBB233D","e4cffebd-3d97-4ae0-ac72-56646db8c62e","9076ac92-be42-43a2-9634-8b67c7fe93a7","{""num_scrambled_semantic"":""8"",""num_scrambled_causal"":""4"",""num_scrambled_schematic"":""4"",""participantId"":""25932BD4FF4B44E9A0CDA99DEDBB233D"",""assignmentId"":""e4cffebd-3d97-4ae0-ac72-56646db8c62e"",""projectId"":""9076ac92-be42-43a2-9634-8b67c7fe93a7""}","https://test12345.live/?num_scrambled_semantic=8&num_scrambled_causal=4&num_scrambled_schematic=4&participantId=25932BD4FF4B44E9A0CDA99DEDBB233D&assignmentId=e4cffebd-3d97-4ae0-ac72-56646db8c62e&projectId=9076ac92-be42-43a2-9634-8b67c7fe93a7","25932BD4FF4B44E9A0CDA99DEDBB233D-2025-05-22-19-41-27","","2010","","images/semantic_sequence/market_semantic/market_semantic_8.png","1","",""
"","","","","","image-button-response","74","429550","0.0-12.0-1.0-2.5","25932BD4FF4B44E9A0CDA99DEDBB233D","25932BD4FF4B44E9A0CDA99DEDBB233D","e4cffebd-3d97-4ae0-ac72-56646db8c62e","9076ac92-be42-43a2-9634-8b67c7fe93a7","{""num_scrambled_semantic"":""8"",""num_scrambled_causal"":""4"",""num_scrambled_schematic"":""4"",""participantId"":""25932BD4FF4B44E9A0CDA99DEDBB233D"",""assignmentId"":""e4cffebd-3d97-4ae0-ac72-56646db8c62e"",""projectId"":""9076ac92-be42-43a2-9634-8b67c7fe93a7""}","https://test12345.live/?num_scrambled_semantic=8&num_scrambled_causal=4&num_scrambled_schematic=4&participantId=25932BD4FF4B44E9A0CDA99DEDBB233D&assignmentId=e4cffebd-3d97-4ae0-ac72-56646db8c62e&projectId=9076ac92-be42-43a2-9634-8b67c7fe93a7","25932BD4FF4B44E9A0CDA99DEDBB233D-2025-05-22-19-41-27","","null","","[]","null","",""
"","","","","","image-button-response","75","434053","0.0-12.0-1.0-0.6","25932BD4FF4B44E9A0CDA99DEDBB233D","25932BD4FF4B44E9A0CDA99DEDBB233D","e4cffebd-3d97-4ae0-ac72-56646db8c62e","9076ac92-be42-43a2-9634-8b67c7fe93a7","{""num_scrambled_semantic"":""8"",""num_scrambled_causal"":""4"",""num_scrambled_schematic"":""4"",""participantId"":""25932BD4FF4B44E9A0CDA99DEDBB233D"",""assignmentId"":""e4cffebd-3d97-4ae0-ac72-56646db8c62e"",""projectId"":""9076ac92-be42-43a2-9634-8b67c7fe93a7""}","https://test12345.live/?num_scrambled_semantic=8&num_scrambled_causal=4&num_scrambled_schematic=4&participantId=25932BD4FF4B44E9A0CDA99DEDBB233D&assignmentId=e4cffebd-3d97-4ae0-ac72-56646db8c62e&projectId=9076ac92-be42-43a2-9634-8b67c7fe93a7","25932BD4FF4B44E9A0CDA99DEDBB233D-2025-05-22-19-41-27","","null","","images/semantic_sequence/market_semantic/market_semantic_6.png","null","",""
"","","","","","image-button-response","76","436597","0.0-12.0-1.0-1.6","25932BD4FF4B44E9A0CDA99DEDBB233D","25932BD4FF4B44E9A0CDA99DEDBB233D","e4cffebd-3d97-4ae0-ac72-56646db8c62e","9076ac92-be42-43a2-9634-8b67c7fe93a7","{""num_scrambled_semantic"":""8"",""num_scrambled_causal"":""4"",""num_scrambled_schematic"":""4"",""participantId"":""25932BD4FF4B44E9A0CDA99DEDBB233D"",""assignmentId"":""e4cffebd-3d97-4ae0-ac72-56646db8c62e"",""projectId"":""9076ac92-be42-43a2-9634-8b67c7fe93a7""}","https://test12345.live/?num_scrambled_semantic=8&num_scrambled_causal=4&num_scrambled_schematic=4&participantId=25932BD4FF4B44E9A0CDA99DEDBB233D&assignmentId=e4cffebd-3d97-4ae0-ac72-56646db8c62e&projectId=9076ac92-be42-43a2-9634-8b67c7fe93a7","25932BD4FF4B44E9A0CDA99DEDBB233D-2025-05-22-19-41-27","","2544","","images/semantic_sequence/market_semantic/market_semantic_6.png","0","",""
"","","","","","image-button-response","77","438401","0.0-12.0-1.0-2.6","25932BD4FF4B44E9A0CDA99DEDBB233D","25932BD4FF4B44E9A0CDA99DEDBB233D","e4cffebd-3d97-4ae0-ac72-56646db8c62e","9076ac92-be42-43a2-9634-8b67c7fe93a7","{""num_scrambled_semantic"":""8"",""num_scrambled_causal"":""4"",""num_scrambled_schematic"":""4"",""participantId"":""25932BD4FF4B44E9A0CDA99DEDBB233D"",""assignmentId"":""e4cffebd-3d97-4ae0-ac72-56646db8c62e"",""projectId"":""9076ac92-be42-43a2-9634-8b67c7fe93a7""}","https://test12345.live/?num_scrambled_semantic=8&num_scrambled_causal=4&num_scrambled_schematic=4&participantId=25932BD4FF4B44E9A0CDA99DEDBB233D&assignmentId=e4cffebd-3d97-4ae0-ac72-56646db8c62e&projectId=9076ac92-be42-43a2-9634-8b67c7fe93a7","25932BD4FF4B44E9A0CDA99DEDBB233D-2025-05-22-19-41-27","","null","","[]","null","",""
"","","","","","image-button-response","78","442904","0.0-12.0-1.0-0.7","25932BD4FF4B44E9A0CDA99DEDBB233D","25932BD4FF4B44E9A0CDA99DEDBB233D","e4cffebd-3d97-4ae0-ac72-56646db8c62e","9076ac92-be42-43a2-9634-8b67c7fe93a7","{""num_scrambled_semantic"":""8"",""num_scrambled_causal"":""4"",""num_scrambled_schematic"":""4"",""participantId"":""25932BD4FF4B44E9A0CDA99DEDBB233D"",""assignmentId"":""e4cffebd-3d97-4ae0-ac72-56646db8c62e"",""projectId"":""9076ac92-be42-43a2-9634-8b67c7fe93a7""}","https://test12345.live/?num_scrambled_semantic=8&num_scrambled_causal=4&num_scrambled_schematic=4&participantId=25932BD4FF4B44E9A0CDA99DEDBB233D&assignmentId=e4cffebd-3d97-4ae0-ac72-56646db8c62e&projectId=9076ac92-be42-43a2-9634-8b67c7fe93a7","25932BD4FF4B44E9A0CDA99DEDBB233D-2025-05-22-19-41-27","","null","","images/semantic_sequence/market_semantic/market_semantic_1.png","null","",""
"","","","","","image-button-response","79","444290","0.0-12.0-1.0-1.7","25932BD4FF4B44E9A0CDA99DEDBB233D","25932BD4FF4B44E9A0CDA99DEDBB233D","e4cffebd-3d97-4ae0-ac72-56646db8c62e","9076ac92-be42-43a2-9634-8b67c7fe93a7","{""num_scrambled_semantic"":""8"",""num_scrambled_causal"":""4"",""num_scrambled_schematic"":""4"",""participantId"":""25932BD4FF4B44E9A0CDA99DEDBB233D"",""assignmentId"":""e4cffebd-3d97-4ae0-ac72-56646db8c62e"",""projectId"":""9076ac92-be42-43a2-9634-8b67c7fe93a7""}","https://test12345.live/?num_scrambled_semantic=8&num_scrambled_causal=4&num_scrambled_schematic=4&participantId=25932BD4FF4B44E9A0CDA99DEDBB233D&assignmentId=e4cffebd-3d97-4ae0-ac72-56646db8c62e&projectId=9076ac92-be42-43a2-9634-8b67c7fe93a7","25932BD4FF4B44E9A0CDA99DEDBB233D-2025-05-22-19-41-27","","1385","","images/semantic_sequence/market_semantic/market_semantic_1.png","1","",""
"","","","","","image-button-response","80","446101","0.0-12.0-1.0-2.7","25932BD4FF4B44E9A0CDA99DEDBB233D","25932BD4FF4B44E9A0CDA99DEDBB233D","e4cffebd-3d97-4ae0-ac72-56646db8c62e","9076ac92-be42-43a2-9634-8b67c7fe93a7","{""num_scrambled_semantic"":""8"",""num_scrambled_causal"":""4"",""num_scrambled_schematic"":""4"",""participantId"":""25932BD4FF4B44E9A0CDA99DEDBB233D"",""assignmentId"":""e4cffebd-3d97-4ae0-ac72-56646db8c62e"",""projectId"":""9076ac92-be42-43a2-9634-8b67c7fe93a7""}","https://test12345.live/?num_scrambled_semantic=8&num_scrambled_causal=4&num_scrambled_schematic=4&participantId=25932BD4FF4B44E9A0CDA99DEDBB233D&assignmentId=e4cffebd-3d97-4ae0-ac72-56646db8c62e&projectId=9076ac92-be42-43a2-9634-8b67c7fe93a7","25932BD4FF4B44E9A0CDA99DEDBB233D-2025-05-22-19-41-27","","null","","[]","null","",""
"","","","","","image-button-response","81","450606","0.0-12.0-1.0-0.8","25932BD4FF4B44E9A0CDA99DEDBB233D","25932BD4FF4B44E9A0CDA99DEDBB233D","e4cffebd-3d97-4ae0-ac72-56646db8c62e","9076ac92-be42-43a2-9634-8b67c7fe93a7","{""num_scrambled_semantic"":""8"",""num_scrambled_causal"":""4"",""num_scrambled_schematic"":""4"",""participantId"":""25932BD4FF4B44E9A0CDA99DEDBB233D"",""assignmentId"":""e4cffebd-3d97-4ae0-ac72-56646db8c62e"",""projectId"":""9076ac92-be42-43a2-9634-8b67c7fe93a7""}","https://test12345.live/?num_scrambled_semantic=8&num_scrambled_causal=4&num_scrambled_schematic=4&participantId=25932BD4FF4B44E9A0CDA99DEDBB233D&assignmentId=e4cffebd-3d97-4ae0-ac72-56646db8c62e&projectId=9076ac92-be42-43a2-9634-8b67c7fe93a7","25932BD4FF4B44E9A0CDA99DEDBB233D-2025-05-22-19-41-27","","null","","images/semantic_sequence/market_semantic/market_semantic_4.png","null","",""
"","","","","","image-button-response","82","451828","0.0-12.0-1.0-1.8","25932BD4FF4B44E9A0CDA99DEDBB233D","25932BD4FF4B44E9A0CDA99DEDBB233D","e4cffebd-3d97-4ae0-ac72-56646db8c62e","9076ac92-be42-43a2-9634-8b67c7fe93a7","{""num_scrambled_semantic"":""8"",""num_scrambled_causal"":""4"",""num_scrambled_schematic"":""4"",""participantId"":""25932BD4FF4B44E9A0CDA99DEDBB233D"",""assignmentId"":""e4cffebd-3d97-4ae0-ac72-56646db8c62e"",""projectId"":""9076ac92-be42-43a2-9634-8b67c7fe93a7""}","https://test12345.live/?num_scrambled_semantic=8&num_scrambled_causal=4&num_scrambled_schematic=4&participantId=25932BD4FF4B44E9A0CDA99DEDBB233D&assignmentId=e4cffebd-3d97-4ae0-ac72-56646db8c62e&projectId=9076ac92-be42-43a2-9634-8b67c7fe93a7","25932BD4FF4B44E9A0CDA99DEDBB233D-2025-05-22-19-41-27","","1221","","images/semantic_sequence/market_semantic/market_semantic_4.png","0","",""
"","","","","","image-button-response","83","453643","0.0-12.0-1.0-2.8","25932BD4FF4B44E9A0CDA99DEDBB233D","25932BD4FF4B44E9A0CDA99DEDBB233D","e4cffebd-3d97-4ae0-ac72-56646db8c62e","9076ac92-be42-43a2-9634-8b67c7fe93a7","{""num_scrambled_semantic"":""8"",""num_scrambled_causal"":""4"",""num_scrambled_schematic"":""4"",""participantId"":""25932BD4FF4B44E9A0CDA99DEDBB233D"",""assignmentId"":""e4cffebd-3d97-4ae0-ac72-56646db8c62e"",""projectId"":""9076ac92-be42-43a2-9634-8b67c7fe93a7""}","https://test12345.live/?num_scrambled_semantic=8&num_scrambled_causal=4&num_scrambled_schematic=4&participantId=25932BD4FF4B44E9A0CDA99DEDBB233D&assignmentId=e4cffebd-3d97-4ae0-ac72-56646db8c62e&projectId=9076ac92-be42-43a2-9634-8b67c7fe93a7","25932BD4FF4B44E9A0CDA99DEDBB233D-2025-05-22-19-41-27","","null","","[]","null","",""
"","","","","","image-button-response","84","458147","0.0-12.0-1.0-0.9","25932BD4FF4B44E9A0CDA99DEDBB233D","25932BD4FF4B44E9A0CDA99DEDBB233D","e4cffebd-3d97-4ae0-ac72-56646db8c62e","9076ac92-be42-43a2-9634-8b67c7fe93a7","{""num_scrambled_semantic"":""8"",""num_scrambled_causal"":""4"",""num_scrambled_schematic"":""4"",""participantId"":""25932BD4FF4B44E9A0CDA99DEDBB233D"",""assignmentId"":""e4cffebd-3d97-4ae0-ac72-56646db8c62e"",""projectId"":""9076ac92-be42-43a2-9634-8b67c7fe93a7""}","https://test12345.live/?num_scrambled_semantic=8&num_scrambled_causal=4&num_scrambled_schematic=4&participantId=25932BD4FF4B44E9A0CDA99DEDBB233D&assignmentId=e4cffebd-3d97-4ae0-ac72-56646db8c62e&projectId=9076ac92-be42-43a2-9634-8b67c7fe93a7","25932BD4FF4B44E9A0CDA99DEDBB233D-2025-05-22-19-41-27","","null","","images/semantic_sequence/market_semantic/market_semantic_ten.png","null","",""
"","","","","","image-button-response","85","461215","0.0-12.0-1.0-1.9","25932BD4FF4B44E9A0CDA99DEDBB233D","25932BD4FF4B44E9A0CDA99DEDBB233D","e4cffebd-3d97-4ae0-ac72-56646db8c62e","9076ac92-be42-43a2-9634-8b67c7fe93a7","{""num_scrambled_semantic"":""8"",""num_scrambled_causal"":""4"",""num_scrambled_schematic"":""4"",""participantId"":""25932BD4FF4B44E9A0CDA99DEDBB233D"",""assignmentId"":""e4cffebd-3d97-4ae0-ac72-56646db8c62e"",""projectId"":""9076ac92-be42-43a2-9634-8b67c7fe93a7""}","https://test12345.live/?num_scrambled_semantic=8&num_scrambled_causal=4&num_scrambled_schematic=4&participantId=25932BD4FF4B44E9A0CDA99DEDBB233D&assignmentId=e4cffebd-3d97-4ae0-ac72-56646db8c62e&projectId=9076ac92-be42-43a2-9634-8b67c7fe93a7","25932BD4FF4B44E9A0CDA99DEDBB233D-2025-05-22-19-41-27","","3068","","images/semantic_sequence/market_semantic/market_semantic_ten.png","1","",""
"","","","","","image-button-response","86","463025","0.0-12.0-1.0-2.9","25932BD4FF4B44E9A0CDA99DEDBB233D","25932BD4FF4B44E9A0CDA99DEDBB233D","e4cffebd-3d97-4ae0-ac72-56646db8c62e","9076ac92-be42-43a2-9634-8b67c7fe93a7","{""num_scrambled_semantic"":""8"",""num_scrambled_causal"":""4"",""num_scrambled_schematic"":""4"",""participantId"":""25932BD4FF4B44E9A0CDA99DEDBB233D"",""assignmentId"":""e4cffebd-3d97-4ae0-ac72-56646db8c62e"",""projectId"":""9076ac92-be42-43a2-9634-8b67c7fe93a7""}","https://test12345.live/?num_scrambled_semantic=8&num_scrambled_causal=4&num_scrambled_schematic=4&participantId=25932BD4FF4B44E9A0CDA99DEDBB233D&assignmentId=e4cffebd-3d97-4ae0-ac72-56646db8c62e&projectId=9076ac92-be42-43a2-9634-8b67c7fe93a7","25932BD4FF4B44E9A0CDA99DEDBB233D-2025-05-22-19-41-27","","null","","[]","null","",""
"","","","","","html-audio-response","87","504046","0.0-13.0","25932BD4FF4B44E9A0CDA99DEDBB233D","25932BD4FF4B44E9A0CDA99DEDBB233D","e4cffebd-3d97-4ae0-ac72-56646db8c62e","9076ac92-be42-43a2-9634-8b67c7fe93a7","{""num_scrambled_semantic"":""8"",""num_scrambled_causal"":""4"",""num_scrambled_schematic"":""4"",""participantId"":""25932BD4FF4B44E9A0CDA99DEDBB233D"",""assignmentId"":""e4cffebd-3d97-4ae0-ac72-56646db8c62e"",""projectId"":""9076ac92-be42-43a2-9634-8b67c7fe93a7""}","https://test12345.live/?num_scrambled_semantic=8&num_scrambled_causal=4&num_scrambled_schematic=4&participantId=25932BD4FF4B44E9A0CDA99DEDBB233D&assignmentId=e4cffebd-3d97-4ae0-ac72-56646db8c62e&projectId=9076ac92-be42-43a2-9634-8b67c7fe93a7","25932BD4FF4B44E9A0CDA99DEDBB233D-2025-05-22-19-41-27","","39771","","[""<span style=\""color: red; font-size: 24px\""> NOW RECORDING</span><p>Please say out loud all the images you saw, in the exact order you saw them. Try to recall as many images as you can, but remember: getting the order right is more important than the number of images you recall.</p>""]","","1","market_semantic"
"","","","","","image-button-response","88","510054","0.0-14.0-0.0","25932BD4FF4B44E9A0CDA99DEDBB233D","25932BD4FF4B44E9A0CDA99DEDBB233D","e4cffebd-3d97-4ae0-ac72-56646db8c62e","9076ac92-be42-43a2-9634-8b67c7fe93a7","{""num_scrambled_semantic"":""8"",""num_scrambled_causal"":""4"",""num_scrambled_schematic"":""4"",""participantId"":""25932BD4FF4B44E9A0CDA99DEDBB233D"",""assignmentId"":""e4cffebd-3d97-4ae0-ac72-56646db8c62e"",""projectId"":""9076ac92-be42-43a2-9634-8b67c7fe93a7""}","https://test12345.live/?num_scrambled_semantic=8&num_scrambled_causal=4&num_scrambled_schematic=4&participantId=25932BD4FF4B44E9A0CDA99DEDBB233D&assignmentId=e4cffebd-3d97-4ae0-ac72-56646db8c62e&projectId=9076ac92-be42-43a2-9634-8b67c7fe93a7","25932BD4FF4B44E9A0CDA99DEDBB233D-2025-05-22-19-41-27","","null","","images/semantic_sequence/exploring_nature_semantic/exploring_nature_semantic_0.png","null","",""
"","","","","","image-button-response","89","514559","0.0-14.0-1.0-0.0","25932BD4FF4B44E9A0CDA99DEDBB233D","25932BD4FF4B44E9A0CDA99DEDBB233D","e4cffebd-3d97-4ae0-ac72-56646db8c62e","9076ac92-be42-43a2-9634-8b67c7fe93a7","{""num_scrambled_semantic"":""8"",""num_scrambled_causal"":""4"",""num_scrambled_schematic"":""4"",""participantId"":""25932BD4FF4B44E9A0CDA99DEDBB233D"",""assignmentId"":""e4cffebd-3d97-4ae0-ac72-56646db8c62e"",""projectId"":""9076ac92-be42-43a2-9634-8b67c7fe93a7""}","https://test12345.live/?num_scrambled_semantic=8&num_scrambled_causal=4&num_scrambled_schematic=4&participantId=25932BD4FF4B44E9A0CDA99DEDBB233D&assignmentId=e4cffebd-3d97-4ae0-ac72-56646db8c62e&projectId=9076ac92-be42-43a2-9634-8b67c7fe93a7","25932BD4FF4B44E9A0CDA99DEDBB233D-2025-05-22-19-41-27","","null","","images/semantic_sequence/exploring_nature_semantic/exploring_nature_semantic_6.png","null","",""
"","","","","","image-button-response","90","516512","0.0-14.0-1.0-1.0","25932BD4FF4B44E9A0CDA99DEDBB233D","25932BD4FF4B44E9A0CDA99DEDBB233D","e4cffebd-3d97-4ae0-ac72-56646db8c62e","9076ac92-be42-43a2-9634-8b67c7fe93a7","{""num_scrambled_semantic"":""8"",""num_scrambled_causal"":""4"",""num_scrambled_schematic"":""4"",""participantId"":""25932BD4FF4B44E9A0CDA99DEDBB233D"",""assignmentId"":""e4cffebd-3d97-4ae0-ac72-56646db8c62e"",""projectId"":""9076ac92-be42-43a2-9634-8b67c7fe93a7""}","https://test12345.live/?num_scrambled_semantic=8&num_scrambled_causal=4&num_scrambled_schematic=4&participantId=25932BD4FF4B44E9A0CDA99DEDBB233D&assignmentId=e4cffebd-3d97-4ae0-ac72-56646db8c62e&projectId=9076ac92-be42-43a2-9634-8b67c7fe93a7","25932BD4FF4B44E9A0CDA99DEDBB233D-2025-05-22-19-41-27","","1953","","images/semantic_sequence/exploring_nature_semantic/exploring_nature_semantic_6.png","0","",""
"","","","","","image-button-response","91","518322","0.0-14.0-1.0-2.0","25932BD4FF4B44E9A0CDA99DEDBB233D","25932BD4FF4B44E9A0CDA99DEDBB233D","e4cffebd-3d97-4ae0-ac72-56646db8c62e","9076ac92-be42-43a2-9634-8b67c7fe93a7","{""num_scrambled_semantic"":""8"",""num_scrambled_causal"":""4"",""num_scrambled_schematic"":""4"",""participantId"":""25932BD4FF4B44E9A0CDA99DEDBB233D"",""assignmentId"":""e4cffebd-3d97-4ae0-ac72-56646db8c62e"",""projectId"":""9076ac92-be42-43a2-9634-8b67c7fe93a7""}","https://test12345.live/?num_scrambled_semantic=8&num_scrambled_causal=4&num_scrambled_schematic=4&participantId=25932BD4FF4B44E9A0CDA99DEDBB233D&assignmentId=e4cffebd-3d97-4ae0-ac72-56646db8c62e&projectId=9076ac92-be42-43a2-9634-8b67c7fe93a7","25932BD4FF4B44E9A0CDA99DEDBB233D-2025-05-22-19-41-27","","null","","[]","null","",""
"","","","","","image-button-response","92","522830","0.0-14.0-1.0-0.1","25932BD4FF4B44E9A0CDA99DEDBB233D","25932BD4FF4B44E9A0CDA99DEDBB233D","e4cffebd-3d97-4ae0-ac72-56646db8c62e","9076ac92-be42-43a2-9634-8b67c7fe93a7","{""num_scrambled_semantic"":""8"",""num_scrambled_causal"":""4"",""num_scrambled_schematic"":""4"",""participantId"":""25932BD4FF4B44E9A0CDA99DEDBB233D"",""assignmentId"":""e4cffebd-3d97-4ae0-ac72-56646db8c62e"",""projectId"":""9076ac92-be42-43a2-9634-8b67c7fe93a7""}","https://test12345.live/?num_scrambled_semantic=8&num_scrambled_causal=4&num_scrambled_schematic=4&participantId=25932BD4FF4B44E9A0CDA99DEDBB233D&assignmentId=e4cffebd-3d97-4ae0-ac72-56646db8c62e&projectId=9076ac92-be42-43a2-9634-8b67c7fe93a7","25932BD4FF4B44E9A0CDA99DEDBB233D-2025-05-22-19-41-27","","null","","images/semantic_sequence/exploring_nature_semantic/exploring_nature_semantic_4.png","null","",""
"","","","","","image-button-response","93","524151","0.0-14.0-1.0-1.1","25932BD4FF4B44E9A0CDA99DEDBB233D","25932BD4FF4B44E9A0CDA99DEDBB233D","e4cffebd-3d97-4ae0-ac72-56646db8c62e","9076ac92-be42-43a2-9634-8b67c7fe93a7","{""num_scrambled_semantic"":""8"",""num_scrambled_causal"":""4"",""num_scrambled_schematic"":""4"",""participantId"":""25932BD4FF4B44E9A0CDA99DEDBB233D"",""assignmentId"":""e4cffebd-3d97-4ae0-ac72-56646db8c62e"",""projectId"":""9076ac92-be42-43a2-9634-8b67c7fe93a7""}","https://test12345.live/?num_scrambled_semantic=8&num_scrambled_causal=4&num_scrambled_schematic=4&participantId=25932BD4FF4B44E9A0CDA99DEDBB233D&assignmentId=e4cffebd-3d97-4ae0-ac72-56646db8c62e&projectId=9076ac92-be42-43a2-9634-8b67c7fe93a7","25932BD4FF4B44E9A0CDA99DEDBB233D-2025-05-22-19-41-27","","1321","","images/semantic_sequence/exploring_nature_semantic/exploring_nature_semantic_4.png","0","",""
"","","","","","image-button-response","94","525965","0.0-14.0-1.0-2.1","25932BD4FF4B44E9A0CDA99DEDBB233D","25932BD4FF4B44E9A0CDA99DEDBB233D","e4cffebd-3d97-4ae0-ac72-56646db8c62e","9076ac92-be42-43a2-9634-8b67c7fe93a7","{""num_scrambled_semantic"":""8"",""num_scrambled_causal"":""4"",""num_scrambled_schematic"":""4"",""participantId"":""25932BD4FF4B44E9A0CDA99DEDBB233D"",""assignmentId"":""e4cffebd-3d97-4ae0-ac72-56646db8c62e"",""projectId"":""9076ac92-be42-43a2-9634-8b67c7fe93a7""}","https://test12345.live/?num_scrambled_semantic=8&num_scrambled_causal=4&num_scrambled_schematic=4&participantId=25932BD4FF4B44E9A0CDA99DEDBB233D&assignmentId=e4cffebd-3d97-4ae0-ac72-56646db8c62e&projectId=9076ac92-be42-43a2-9634-8b67c7fe93a7","25932BD4FF4B44E9A0CDA99DEDBB233D-2025-05-22-19-41-27","","null","","[]","null","",""
"","","","","","image-button-response","95","530469","0.0-14.0-1.0-0.2","25932BD4FF4B44E9A0CDA99DEDBB233D","25932BD4FF4B44E9A0CDA99DEDBB233D","e4cffebd-3d97-4ae0-ac72-56646db8c62e","9076ac92-be42-43a2-9634-8b67c7fe93a7","{""num_scrambled_semantic"":""8"",""num_scrambled_causal"":""4"",""num_scrambled_schematic"":""4"",""participantId"":""25932BD4FF4B44E9A0CDA99DEDBB233D"",""assignmentId"":""e4cffebd-3d97-4ae0-ac72-56646db8c62e"",""projectId"":""9076ac92-be42-43a2-9634-8b67c7fe93a7""}","https://test12345.live/?num_scrambled_semantic=8&num_scrambled_causal=4&num_scrambled_schematic=4&participantId=25932BD4FF4B44E9A0CDA99DEDBB233D&assignmentId=e4cffebd-3d97-4ae0-ac72-56646db8c62e&projectId=9076ac92-be42-43a2-9634-8b67c7fe93a7","25932BD4FF4B44E9A0CDA99DEDBB233D-2025-05-22-19-41-27","","null","","images/semantic_sequence/exploring_nature_semantic/exploring_nature_semantic_7.png","null","",""
"","","","","","image-button-response","96","533262","0.0-14.0-1.0-1.2","25932BD4FF4B44E9A0CDA99DEDBB233D","25932BD4FF4B44E9A0CDA99DEDBB233D","e4cffebd-3d97-4ae0-ac72-56646db8c62e","9076ac92-be42-43a2-9634-8b67c7fe93a7","{""num_scrambled_semantic"":""8"",""num_scrambled_causal"":""4"",""num_scrambled_schematic"":""4"",""participantId"":""25932BD4FF4B44E9A0CDA99DEDBB233D"",""assignmentId"":""e4cffebd-3d97-4ae0-ac72-56646db8c62e"",""projectId"":""9076ac92-be42-43a2-9634-8b67c7fe93a7""}","https://test12345.live/?num_scrambled_semantic=8&num_scrambled_causal=4&num_scrambled_schematic=4&participantId=25932BD4FF4B44E9A0CDA99DEDBB233D&assignmentId=e4cffebd-3d97-4ae0-ac72-56646db8c62e&projectId=9076ac92-be42-43a2-9634-8b67c7fe93a7","25932BD4FF4B44E9A0CDA99DEDBB233D-2025-05-22-19-41-27","","2792","","images/semantic_sequence/exploring_nature_semantic/exploring_nature_semantic_7.png","0","",""
"","","","","","image-button-response","97","535072","0.0-14.0-1.0-2.2","25932BD4FF4B44E9A0CDA99DEDBB233D","25932BD4FF4B44E9A0CDA99DEDBB233D","e4cffebd-3d97-4ae0-ac72-56646db8c62e","9076ac92-be42-43a2-9634-8b67c7fe93a7","{""num_scrambled_semantic"":""8"",""num_scrambled_causal"":""4"",""num_scrambled_schematic"":""4"",""participantId"":""25932BD4FF4B44E9A0CDA99DEDBB233D"",""assignmentId"":""e4cffebd-3d97-4ae0-ac72-56646db8c62e"",""projectId"":""9076ac92-be42-43a2-9634-8b67c7fe93a7""}","https://test12345.live/?num_scrambled_semantic=8&num_scrambled_causal=4&num_scrambled_schematic=4&participantId=25932BD4FF4B44E9A0CDA99DEDBB233D&assignmentId=e4cffebd-3d97-4ae0-ac72-56646db8c62e&projectId=9076ac92-be42-43a2-9634-8b67c7fe93a7","25932BD4FF4B44E9A0CDA99DEDBB233D-2025-05-22-19-41-27","","null","","[]","null","",""
"","","","","","image-button-response","98","539577","0.0-14.0-1.0-0.3","25932BD4FF4B44E9A0CDA99DEDBB233D","25932BD4FF4B44E9A0CDA99DEDBB233D","e4cffebd-3d97-4ae0-ac72-56646db8c62e","9076ac92-be42-43a2-9634-8b67c7fe93a7","{""num_scrambled_semantic"":""8"",""num_scrambled_causal"":""4"",""num_scrambled_schematic"":""4"",""participantId"":""25932BD4FF4B44E9A0CDA99DEDBB233D"",""assignmentId"":""e4cffebd-3d97-4ae0-ac72-56646db8c62e"",""projectId"":""9076ac92-be42-43a2-9634-8b67c7fe93a7""}","https://test12345.live/?num_scrambled_semantic=8&num_scrambled_causal=4&num_scrambled_schematic=4&participantId=25932BD4FF4B44E9A0CDA99DEDBB233D&assignmentId=e4cffebd-3d97-4ae0-ac72-56646db8c62e&projectId=9076ac92-be42-43a2-9634-8b67c7fe93a7","25932BD4FF4B44E9A0CDA99DEDBB233D-2025-05-22-19-41-27","","null","","images/semantic_sequence/exploring_nature_semantic/exploring_nature_semantic_2.png","null","",""
"","","","","","image-button-response","99","540948","0.0-14.0-1.0-1.3","25932BD4FF4B44E9A0CDA99DEDBB233D","25932BD4FF4B44E9A0CDA99DEDBB233D","e4cffebd-3d97-4ae0-ac72-56646db8c62e","9076ac92-be42-43a2-9634-8b67c7fe93a7","{""num_scrambled_semantic"":""8"",""num_scrambled_causal"":""4"",""num_scrambled_schematic"":""4"",""participantId"":""25932BD4FF4B44E9A0CDA99DEDBB233D"",""assignmentId"":""e4cffebd-3d97-4ae0-ac72-56646db8c62e"",""projectId"":""9076ac92-be42-43a2-9634-8b67c7fe93a7""}","https://test12345.live/?num_scrambled_semantic=8&num_scrambled_causal=4&num_scrambled_schematic=4&participantId=25932BD4FF4B44E9A0CDA99DEDBB233D&assignmentId=e4cffebd-3d97-4ae0-ac72-56646db8c62e&projectId=9076ac92-be42-43a2-9634-8b67c7fe93a7","25932BD4FF4B44E9A0CDA99DEDBB233D-2025-05-22-19-41-27","","1371","","images/semantic_sequence/exploring_nature_semantic/exploring_nature_semantic_2.png","0","",""
"","","","","","image-button-response","100","542753","0.0-14.0-1.0-2.3","25932BD4FF4B44E9A0CDA99DEDBB233D","25932BD4FF4B44E9A0CDA99DEDBB233D","e4cffebd-3d97-4ae0-ac72-56646db8c62e","9076ac92-be42-43a2-9634-8b67c7fe93a7","{""num_scrambled_semantic"":""8"",""num_scrambled_causal"":""4"",""num_scrambled_schematic"":""4"",""participantId"":""25932BD4FF4B44E9A0CDA99DEDBB233D"",""assignmentId"":""e4cffebd-3d97-4ae0-ac72-56646db8c62e"",""projectId"":""9076ac92-be42-43a2-9634-8b67c7fe93a7""}","https://test12345.live/?num_scrambled_semantic=8&num_scrambled_causal=4&num_scrambled_schematic=4&participantId=25932BD4FF4B44E9A0CDA99DEDBB233D&assignmentId=e4cffebd-3d97-4ae0-ac72-56646db8c62e&projectId=9076ac92-be42-43a2-9634-8b67c7fe93a7","25932BD4FF4B44E9A0CDA99DEDBB233D-2025-05-22-19-41-27","","null","","[]","null","",""
"","","","","","image-button-response","101","547263","0.0-14.0-1.0-0.4","25932BD4FF4B44E9A0CDA99DEDBB233D","25932BD4FF4B44E9A0CDA99DEDBB233D","e4cffebd-3d97-4ae0-ac72-56646db8c62e","9076ac92-be42-43a2-9634-8b67c7fe93a7","{""num_scrambled_semantic"":""8"",""num_scrambled_causal"":""4"",""num_scrambled_schematic"":""4"",""participantId"":""25932BD4FF4B44E9A0CDA99DEDBB233D"",""assignmentId"":""e4cffebd-3d97-4ae0-ac72-56646db8c62e"",""projectId"":""9076ac92-be42-43a2-9634-8b67c7fe93a7""}","https://test12345.live/?num_scrambled_semantic=8&num_scrambled_causal=4&num_scrambled_schematic=4&participantId=25932BD4FF4B44E9A0CDA99DEDBB233D&assignmentId=e4cffebd-3d97-4ae0-ac72-56646db8c62e&projectId=9076ac92-be42-43a2-9634-8b67c7fe93a7","25932BD4FF4B44E9A0CDA99DEDBB233D-2025-05-22-19-41-27","","null","","images/semantic_sequence/exploring_nature_semantic/exploring_nature_semantic_5.png","null","",""
"","","","","","image-button-response","102","548582","0.0-14.0-1.0-1.4","25932BD4FF4B44E9A0CDA99DEDBB233D","25932BD4FF4B44E9A0CDA99DEDBB233D","e4cffebd-3d97-4ae0-ac72-56646db8c62e","9076ac92-be42-43a2-9634-8b67c7fe93a7","{""num_scrambled_semantic"":""8"",""num_scrambled_causal"":""4"",""num_scrambled_schematic"":""4"",""participantId"":""25932BD4FF4B44E9A0CDA99DEDBB233D"",""assignmentId"":""e4cffebd-3d97-4ae0-ac72-56646db8c62e"",""projectId"":""9076ac92-be42-43a2-9634-8b67c7fe93a7""}","https://test12345.live/?num_scrambled_semantic=8&num_scrambled_causal=4&num_scrambled_schematic=4&participantId=25932BD4FF4B44E9A0CDA99DEDBB233D&assignmentId=e4cffebd-3d97-4ae0-ac72-56646db8c62e&projectId=9076ac92-be42-43a2-9634-8b67c7fe93a7","25932BD4FF4B44E9A0CDA99DEDBB233D-2025-05-22-19-41-27","","1318","","images/semantic_sequence/exploring_nature_semantic/exploring_nature_semantic_5.png","0","",""
"","","","","","image-button-response","103","550387","0.0-14.0-1.0-2.4","25932BD4FF4B44E9A0CDA99DEDBB233D","25932BD4FF4B44E9A0CDA99DEDBB233D","e4cffebd-3d97-4ae0-ac72-56646db8c62e","9076ac92-be42-43a2-9634-8b67c7fe93a7","{""num_scrambled_semantic"":""8"",""num_scrambled_causal"":""4"",""num_scrambled_schematic"":""4"",""participantId"":""25932BD4FF4B44E9A0CDA99DEDBB233D"",""assignmentId"":""e4cffebd-3d97-4ae0-ac72-56646db8c62e"",""projectId"":""9076ac92-be42-43a2-9634-8b67c7fe93a7""}","https://test12345.live/?num_scrambled_semantic=8&num_scrambled_causal=4&num_scrambled_schematic=4&participantId=25932BD4FF4B44E9A0CDA99DEDBB233D&assignmentId=e4cffebd-3d97-4ae0-ac72-56646db8c62e&projectId=9076ac92-be42-43a2-9634-8b67c7fe93a7","25932BD4FF4B44E9A0CDA99DEDBB233D-2025-05-22-19-41-27","","null","","[]","null","",""
"","","","","","image-button-response","104","554889","0.0-14.0-1.0-0.5","25932BD4FF4B44E9A0CDA99DEDBB233D","25932BD4FF4B44E9A0CDA99DEDBB233D","e4cffebd-3d97-4ae0-ac72-56646db8c62e","9076ac92-be42-43a2-9634-8b67c7fe93a7","{""num_scrambled_semantic"":""8"",""num_scrambled_causal"":""4"",""num_scrambled_schematic"":""4"",""participantId"":""25932BD4FF4B44E9A0CDA99DEDBB233D"",""assignmentId"":""e4cffebd-3d97-4ae0-ac72-56646db8c62e"",""projectId"":""9076ac92-be42-43a2-9634-8b67c7fe93a7""}","https://test12345.live/?num_scrambled_semantic=8&num_scrambled_causal=4&num_scrambled_schematic=4&participantId=25932BD4FF4B44E9A0CDA99DEDBB233D&assignmentId=e4cffebd-3d97-4ae0-ac72-56646db8c62e&projectId=9076ac92-be42-43a2-9634-8b67c7fe93a7","25932BD4FF4B44E9A0CDA99DEDBB233D-2025-05-22-19-41-27","","null","","images/semantic_sequence/exploring_nature_semantic/exploring_nature_semantic_9.png","null","",""
"","","","","","image-button-response","105","555811","0.0-14.0-1.0-1.5","25932BD4FF4B44E9A0CDA99DEDBB233D","25932BD4FF4B44E9A0CDA99DEDBB233D","e4cffebd-3d97-4ae0-ac72-56646db8c62e","9076ac92-be42-43a2-9634-8b67c7fe93a7","{""num_scrambled_semantic"":""8"",""num_scrambled_causal"":""4"",""num_scrambled_schematic"":""4"",""participantId"":""25932BD4FF4B44E9A0CDA99DEDBB233D"",""assignmentId"":""e4cffebd-3d97-4ae0-ac72-56646db8c62e"",""projectId"":""9076ac92-be42-43a2-9634-8b67c7fe93a7""}","https://test12345.live/?num_scrambled_semantic=8&num_scrambled_causal=4&num_scrambled_schematic=4&participantId=25932BD4FF4B44E9A0CDA99DEDBB233D&assignmentId=e4cffebd-3d97-4ae0-ac72-56646db8c62e&projectId=9076ac92-be42-43a2-9634-8b67c7fe93a7","25932BD4FF4B44E9A0CDA99DEDBB233D-2025-05-22-19-41-27","","922","","images/semantic_sequence/exploring_nature_semantic/exploring_nature_semantic_9.png","0","",""
"","","","","","image-button-response","106","557622","0.0-14.0-1.0-2.5","25932BD4FF4B44E9A0CDA99DEDBB233D","25932BD4FF4B44E9A0CDA99DEDBB233D","e4cffebd-3d97-4ae0-ac72-56646db8c62e","9076ac92-be42-43a2-9634-8b67c7fe93a7","{""num_scrambled_semantic"":""8"",""num_scrambled_causal"":""4"",""num_scrambled_schematic"":""4"",""participantId"":""25932BD4FF4B44E9A0CDA99DEDBB233D"",""assignmentId"":""e4cffebd-3d97-4ae0-ac72-56646db8c62e"",""projectId"":""9076ac92-be42-43a2-9634-8b67c7fe93a7""}","https://test12345.live/?num_scrambled_semantic=8&num_scrambled_causal=4&num_scrambled_schematic=4&participantId=25932BD4FF4B44E9A0CDA99DEDBB233D&assignmentId=e4cffebd-3d97-4ae0-ac72-56646db8c62e&projectId=9076ac92-be42-43a2-9634-8b67c7fe93a7","25932BD4FF4B44E9A0CDA99DEDBB233D-2025-05-22-19-41-27","","null","","[]","null","",""
"","","","","","image-button-response","107","562133","0.0-14.0-1.0-0.6","25932BD4FF4B44E9A0CDA99DEDBB233D","25932BD4FF4B44E9A0CDA99DEDBB233D","e4cffebd-3d97-4ae0-ac72-56646db8c62e","9076ac92-be42-43a2-9634-8b67c7fe93a7","{""num_scrambled_semantic"":""8"",""num_scrambled_causal"":""4"",""num_scrambled_schematic"":""4"",""participantId"":""25932BD4FF4B44E9A0CDA99DEDBB233D"",""assignmentId"":""e4cffebd-3d97-4ae0-ac72-56646db8c62e"",""projectId"":""9076ac92-be42-43a2-9634-8b67c7fe93a7""}","https://test12345.live/?num_scrambled_semantic=8&num_scrambled_causal=4&num_scrambled_schematic=4&participantId=25932BD4FF4B44E9A0CDA99DEDBB233D&assignmentId=e4cffebd-3d97-4ae0-ac72-56646db8c62e&projectId=9076ac92-be42-43a2-9634-8b67c7fe93a7","25932BD4FF4B44E9A0CDA99DEDBB233D-2025-05-22-19-41-27","","null","","images/semantic_sequence/exploring_nature_semantic/exploring_nature_semantic_ten.png","null","",""
"","","","","","image-button-response","108","563785","0.0-14.0-1.0-1.6","25932BD4FF4B44E9A0CDA99DEDBB233D","25932BD4FF4B44E9A0CDA99DEDBB233D","e4cffebd-3d97-4ae0-ac72-56646db8c62e","9076ac92-be42-43a2-9634-8b67c7fe93a7","{""num_scrambled_semantic"":""8"",""num_scrambled_causal"":""4"",""num_scrambled_schematic"":""4"",""participantId"":""25932BD4FF4B44E9A0CDA99DEDBB233D"",""assignmentId"":""e4cffebd-3d97-4ae0-ac72-56646db8c62e"",""projectId"":""9076ac92-be42-43a2-9634-8b67c7fe93a7""}","https://test12345.live/?num_scrambled_semantic=8&num_scrambled_causal=4&num_scrambled_schematic=4&participantId=25932BD4FF4B44E9A0CDA99DEDBB233D&assignmentId=e4cffebd-3d97-4ae0-ac72-56646db8c62e&projectId=9076ac92-be42-43a2-9634-8b67c7fe93a7","25932BD4FF4B44E9A0CDA99DEDBB233D-2025-05-22-19-41-27","","1652","","images/semantic_sequence/exploring_nature_semantic/exploring_nature_semantic_ten.png","0","",""
"","","","","","image-button-response","109","565602","0.0-14.0-1.0-2.6","25932BD4FF4B44E9A0CDA99DEDBB233D","25932BD4FF4B44E9A0CDA99DEDBB233D","e4cffebd-3d97-4ae0-ac72-56646db8c62e","9076ac92-be42-43a2-9634-8b67c7fe93a7","{""num_scrambled_semantic"":""8"",""num_scrambled_causal"":""4"",""num_scrambled_schematic"":""4"",""participantId"":""25932BD4FF4B44E9A0CDA99DEDBB233D"",""assignmentId"":""e4cffebd-3d97-4ae0-ac72-56646db8c62e"",""projectId"":""9076ac92-be42-43a2-9634-8b67c7fe93a7""}","https://test12345.live/?num_scrambled_semantic=8&num_scrambled_causal=4&num_scrambled_schematic=4&participantId=25932BD4FF4B44E9A0CDA99DEDBB233D&assignmentId=e4cffebd-3d97-4ae0-ac72-56646db8c62e&projectId=9076ac92-be42-43a2-9634-8b67c7fe93a7","25932BD4FF4B44E9A0CDA99DEDBB233D-2025-05-22-19-41-27","","null","","[]","null","",""
"","","","","","image-button-response","110","570117","0.0-14.0-1.0-0.7","25932BD4FF4B44E9A0CDA99DEDBB233D","25932BD4FF4B44E9A0CDA99DEDBB233D","e4cffebd-3d97-4ae0-ac72-56646db8c62e","9076ac92-be42-43a2-9634-8b67c7fe93a7","{""num_scrambled_semantic"":""8"",""num_scrambled_causal"":""4"",""num_scrambled_schematic"":""4"",""participantId"":""25932BD4FF4B44E9A0CDA99DEDBB233D"",""assignmentId"":""e4cffebd-3d97-4ae0-ac72-56646db8c62e"",""projectId"":""9076ac92-be42-43a2-9634-8b67c7fe93a7""}","https://test12345.live/?num_scrambled_semantic=8&num_scrambled_causal=4&num_scrambled_schematic=4&participantId=25932BD4FF4B44E9A0CDA99DEDBB233D&assignmentId=e4cffebd-3d97-4ae0-ac72-56646db8c62e&projectId=9076ac92-be42-43a2-9634-8b67c7fe93a7","25932BD4FF4B44E9A0CDA99DEDBB233D-2025-05-22-19-41-27","","null","","images/semantic_sequence/exploring_nature_semantic/exploring_nature_semantic_1.png","null","",""
"","","","","","image-button-response","111","571022","0.0-14.0-1.0-1.7","25932BD4FF4B44E9A0CDA99DEDBB233D","25932BD4FF4B44E9A0CDA99DEDBB233D","e4cffebd-3d97-4ae0-ac72-56646db8c62e","9076ac92-be42-43a2-9634-8b67c7fe93a7","{""num_scrambled_semantic"":""8"",""num_scrambled_causal"":""4"",""num_scrambled_schematic"":""4"",""participantId"":""25932BD4FF4B44E9A0CDA99DEDBB233D"",""assignmentId"":""e4cffebd-3d97-4ae0-ac72-56646db8c62e"",""projectId"":""9076ac92-be42-43a2-9634-8b67c7fe93a7""}","https://test12345.live/?num_scrambled_semantic=8&num_scrambled_causal=4&num_scrambled_schematic=4&participantId=25932BD4FF4B44E9A0CDA99DEDBB233D&assignmentId=e4cffebd-3d97-4ae0-ac72-56646db8c62e&projectId=9076ac92-be42-43a2-9634-8b67c7fe93a7","25932BD4FF4B44E9A0CDA99DEDBB233D-2025-05-22-19-41-27","","904","","images/semantic_sequence/exploring_nature_semantic/exploring_nature_semantic_1.png","0","",""
"","","","","","image-button-response","112","572830","0.0-14.0-1.0-2.7","25932BD4FF4B44E9A0CDA99DEDBB233D","25932BD4FF4B44E9A0CDA99DEDBB233D","e4cffebd-3d97-4ae0-ac72-56646db8c62e","9076ac92-be42-43a2-9634-8b67c7fe93a7","{""num_scrambled_semantic"":""8"",""num_scrambled_causal"":""4"",""num_scrambled_schematic"":""4"",""participantId"":""25932BD4FF4B44E9A0CDA99DEDBB233D"",""assignmentId"":""e4cffebd-3d97-4ae0-ac72-56646db8c62e"",""projectId"":""9076ac92-be42-43a2-9634-8b67c7fe93a7""}","https://test12345.live/?num_scrambled_semantic=8&num_scrambled_causal=4&num_scrambled_schematic=4&participantId=25932BD4FF4B44E9A0CDA99DEDBB233D&assignmentId=e4cffebd-3d97-4ae0-ac72-56646db8c62e&projectId=9076ac92-be42-43a2-9634-8b67c7fe93a7","25932BD4FF4B44E9A0CDA99DEDBB233D-2025-05-22-19-41-27","","null","","[]","null","",""
"","","","","","image-button-response","113","577333","0.0-14.0-1.0-0.8","25932BD4FF4B44E9A0CDA99DEDBB233D","25932BD4FF4B44E9A0CDA99DEDBB233D","e4cffebd-3d97-4ae0-ac72-56646db8c62e","9076ac92-be42-43a2-9634-8b67c7fe93a7","{""num_scrambled_semantic"":""8"",""num_scrambled_causal"":""4"",""num_scrambled_schematic"":""4"",""participantId"":""25932BD4FF4B44E9A0CDA99DEDBB233D"",""assignmentId"":""e4cffebd-3d97-4ae0-ac72-56646db8c62e"",""projectId"":""9076ac92-be42-43a2-9634-8b67c7fe93a7""}","https://test12345.live/?num_scrambled_semantic=8&num_scrambled_causal=4&num_scrambled_schematic=4&participantId=25932BD4FF4B44E9A0CDA99DEDBB233D&assignmentId=e4cffebd-3d97-4ae0-ac72-56646db8c62e&projectId=9076ac92-be42-43a2-9634-8b67c7fe93a7","25932BD4FF4B44E9A0CDA99DEDBB233D-2025-05-22-19-41-27","","null","","images/semantic_sequence/exploring_nature_semantic/exploring_nature_semantic_8.png","null","",""
