"success","timeout","failed_images","failed_audio","failed_video","trial_type","trial_index","time_elapsed","internal_node_id","subject","subject_id","study_id","session_id","urlvar","current_url","audio_id","view_history","rt","device_id","stimulus","response","estimated_stimulus_onset","seq_name"
"true","false","[]","[]","[]","preload","0","12","0.0-0.0","2597CCC9287641888D6FB24F3442BE7F","2597CCC9287641888D6FB24F3442BE7F","0198be94-1c70-7766-81a1-5d400c9abe8e","0198be8b-78cf-72d2-ba2b-1e62c78022e0","{""num_scrambled_semantic"":""8"",""num_scrambled_causal"":""4"",""num_scrambled_schematic"":""4"",""participantId"":""2597CCC9287641888D6FB24F3442BE7F"",""assignmentId"":""0198be94-1c70-7766-81a1-5d400c9abe8e"",""projectId"":""0198be8b-78cf-72d2-ba2b-1e62c78022e0""}","https://test12345.live/?num_scrambled_semantic=8&num_scrambled_causal=4&num_scrambled_schematic=4&participantId=2597CCC9287641888D6FB24F3442BE7F&assignmentId=0198be94-1c70-7766-81a1-5d400c9abe8e&projectId=0198be8b-78cf-72d2-ba2b-1e62c78022e0","2597CCC9287641888D6FB24F3442BE7F-2025-08-18-19-38-45","","","","","","",""
"","","","","","instructions","1","8735","0.0-1.0","2597CCC9287641888D6FB24F3442BE7F","2597CCC9287641888D6FB24F3442BE7F","0198be94-1c70-7766-81a1-5d400c9abe8e","0198be8b-78cf-72d2-ba2b-1e62c78022e0","{""num_scrambled_semantic"":""8"",""num_scrambled_causal"":""4"",""num_scrambled_schematic"":""4"",""participantId"":""2597CCC9287641888D6FB24F3442BE7F"",""assignmentId"":""0198be94-1c70-7766-81a1-5d400c9abe8e"",""projectId"":""0198be8b-78cf-72d2-ba2b-1e62c78022e0""}","https://test12345.live/?num_scrambled_semantic=8&num_scrambled_causal=4&num_scrambled_schematic=4&participantId=2597CCC9287641888D6FB24F3442BE7F&assignmentId=0198be94-1c70-7766-81a1-5d400c9abe8e&projectId=0198be8b-78cf-72d2-ba2b-1e62c78022e0","2597CCC9287641888D6FB24F3442BE7F-2025-08-18-19-38-45","[{""page_index"":0,""viewing_time"":8723}]","8723","","","","",""
"","","","","","instructions","2","12612","0.0-2.0","2597CCC9287641888D6FB24F3442BE7F","2597CCC9287641888D6FB24F3442BE7F","0198be94-1c70-7766-81a1-5d400c9abe8e","0198be8b-78cf-72d2-ba2b-1e62c78022e0","{""num_scrambled_semantic"":""8"",""num_scrambled_causal"":""4"",""num_scrambled_schematic"":""4"",""participantId"":""2597CCC9287641888D6FB24F3442BE7F"",""assignmentId"":""0198be94-1c70-7766-81a1-5d400c9abe8e"",""projectId"":""0198be8b-78cf-72d2-ba2b-1e62c78022e0""}","https://test12345.live/?num_scrambled_semantic=8&num_scrambled_causal=4&num_scrambled_schematic=4&participantId=2597CCC9287641888D6FB24F3442BE7F&assignmentId=0198be94-1c70-7766-81a1-5d400c9abe8e&projectId=0198be8b-78cf-72d2-ba2b-1e62c78022e0","2597CCC9287641888D6FB24F3442BE7F-2025-08-18-19-38-45","[{""page_index"":0,""viewing_time"":3876}]","3876","","","","",""
"true","","","","","fullscreen","3","15624","0.0-3.0","2597CCC9287641888D6FB24F3442BE7F","2597CCC9287641888D6FB24F3442BE7F","0198be94-1c70-7766-81a1-5d400c9abe8e","0198be8b-78cf-72d2-ba2b-1e62c78022e0","{""num_scrambled_semantic"":""8"",""num_scrambled_causal"":""4"",""num_scrambled_schematic"":""4"",""participantId"":""2597CCC9287641888D6FB24F3442BE7F"",""assignmentId"":""0198be94-1c70-7766-81a1-5d400c9abe8e"",""projectId"":""0198be8b-78cf-72d2-ba2b-1e62c78022e0""}","https://test12345.live/?num_scrambled_semantic=8&num_scrambled_causal=4&num_scrambled_schematic=4&participantId=2597CCC9287641888D6FB24F3442BE7F&assignmentId=0198be94-1c70-7766-81a1-5d400c9abe8e&projectId=0198be8b-78cf-72d2-ba2b-1e62c78022e0","2597CCC9287641888D6FB24F3442BE7F-2025-08-18-19-38-45","","1996","","","","",""
"","","","","","initialize-microphone","4","25549","0.0-4.0-0.0","2597CCC9287641888D6FB24F3442BE7F","2597CCC9287641888D6FB24F3442BE7F","0198be94-1c70-7766-81a1-5d400c9abe8e","0198be8b-78cf-72d2-ba2b-1e62c78022e0","{""num_scrambled_semantic"":""8"",""num_scrambled_causal"":""4"",""num_scrambled_schematic"":""4"",""participantId"":""2597CCC9287641888D6FB24F3442BE7F"",""assignmentId"":""0198be94-1c70-7766-81a1-5d400c9abe8e"",""projectId"":""0198be8b-78cf-72d2-ba2b-1e62c78022e0""}","https://test12345.live/?num_scrambled_semantic=8&num_scrambled_causal=4&num_scrambled_schematic=4&participantId=2597CCC9287641888D6FB24F3442BE7F&assignmentId=0198be94-1c70-7766-81a1-5d400c9abe8e&projectId=0198be8b-78cf-72d2-ba2b-1e62c78022e0","2597CCC9287641888D6FB24F3442BE7F-2025-08-18-19-38-45","","","383b9dcd0a90dbee2f5635dc44f38b086a35a45cca21681a48f8b3f6b159b1a8","","","",""
"","","","","","html-audio-response","5","38798","0.0-4.0-1.0","2597CCC9287641888D6FB24F3442BE7F","2597CCC9287641888D6FB24F3442BE7F","0198be94-1c70-7766-81a1-5d400c9abe8e","0198be8b-78cf-72d2-ba2b-1e62c78022e0","{""num_scrambled_semantic"":""8"",""num_scrambled_causal"":""4"",""num_scrambled_schematic"":""4"",""participantId"":""2597CCC9287641888D6FB24F3442BE7F"",""assignmentId"":""0198be94-1c70-7766-81a1-5d400c9abe8e"",""projectId"":""0198be8b-78cf-72d2-ba2b-1e62c78022e0""}","https://test12345.live/?num_scrambled_semantic=8&num_scrambled_causal=4&num_scrambled_schematic=4&participantId=2597CCC9287641888D6FB24F3442BE7F&assignmentId=0198be94-1c70-7766-81a1-5d400c9abe8e&projectId=0198be8b-78cf-72d2-ba2b-1e62c78022e0","2597CCC9287641888D6FB24F3442BE7F-2025-08-18-19-38-45","","3889","","<span style=""color: red; font-size: 24px""> NOW RECORDING</span>
        <p>Please test Microphone</p>","","6",""
"","","","","","html-button-response","6","41971","0.0-4.0-2.0","2597CCC9287641888D6FB24F3442BE7F","2597CCC9287641888D6FB24F3442BE7F","0198be94-1c70-7766-81a1-5d400c9abe8e","0198be8b-78cf-72d2-ba2b-1e62c78022e0","{""num_scrambled_semantic"":""8"",""num_scrambled_causal"":""4"",""num_scrambled_schematic"":""4"",""participantId"":""2597CCC9287641888D6FB24F3442BE7F"",""assignmentId"":""0198be94-1c70-7766-81a1-5d400c9abe8e"",""projectId"":""0198be8b-78cf-72d2-ba2b-1e62c78022e0""}","https://test12345.live/?num_scrambled_semantic=8&num_scrambled_causal=4&num_scrambled_schematic=4&participantId=2597CCC9287641888D6FB24F3442BE7F&assignmentId=0198be94-1c70-7766-81a1-5d400c9abe8e&projectId=0198be8b-78cf-72d2-ba2b-1e62c78022e0","2597CCC9287641888D6FB24F3442BE7F-2025-08-18-19-38-45","","3172","","<p style=""font-size:48px; color:red;"">Is Microphone OK?</p>","1","",""
"","","","","","instructions","7","53212","0.0-5.0","2597CCC9287641888D6FB24F3442BE7F","2597CCC9287641888D6FB24F3442BE7F","0198be94-1c70-7766-81a1-5d400c9abe8e","0198be8b-78cf-72d2-ba2b-1e62c78022e0","{""num_scrambled_semantic"":""8"",""num_scrambled_causal"":""4"",""num_scrambled_schematic"":""4"",""participantId"":""2597CCC9287641888D6FB24F3442BE7F"",""assignmentId"":""0198be94-1c70-7766-81a1-5d400c9abe8e"",""projectId"":""0198be8b-78cf-72d2-ba2b-1e62c78022e0""}","https://test12345.live/?num_scrambled_semantic=8&num_scrambled_causal=4&num_scrambled_schematic=4&participantId=2597CCC9287641888D6FB24F3442BE7F&assignmentId=0198be94-1c70-7766-81a1-5d400c9abe8e&projectId=0198be8b-78cf-72d2-ba2b-1e62c78022e0","2597CCC9287641888D6FB24F3442BE7F-2025-08-18-19-38-45","[{""page_index"":0,""viewing_time"":6779},{""page_index"":1,""viewing_time"":4462}]","11241","","","","",""
"","","","","","image-button-response","8","59219","0.0-6.0-0.0","2597CCC9287641888D6FB24F3442BE7F","2597CCC9287641888D6FB24F3442BE7F","0198be94-1c70-7766-81a1-5d400c9abe8e","0198be8b-78cf-72d2-ba2b-1e62c78022e0","{""num_scrambled_semantic"":""8"",""num_scrambled_causal"":""4"",""num_scrambled_schematic"":""4"",""participantId"":""2597CCC9287641888D6FB24F3442BE7F"",""assignmentId"":""0198be94-1c70-7766-81a1-5d400c9abe8e"",""projectId"":""0198be8b-78cf-72d2-ba2b-1e62c78022e0""}","https://test12345.live/?num_scrambled_semantic=8&num_scrambled_causal=4&num_scrambled_schematic=4&participantId=2597CCC9287641888D6FB24F3442BE7F&assignmentId=0198be94-1c70-7766-81a1-5d400c9abe8e&projectId=0198be8b-78cf-72d2-ba2b-1e62c78022e0","2597CCC9287641888D6FB24F3442BE7F-2025-08-18-19-38-45","","null","","images/instructions/movie_0.png","null","",""
"","","","","","image-button-response","9","63726","0.0-6.0-1.0-0.0","2597CCC9287641888D6FB24F3442BE7F","2597CCC9287641888D6FB24F3442BE7F","0198be94-1c70-7766-81a1-5d400c9abe8e","0198be8b-78cf-72d2-ba2b-1e62c78022e0","{""num_scrambled_semantic"":""8"",""num_scrambled_causal"":""4"",""num_scrambled_schematic"":""4"",""participantId"":""2597CCC9287641888D6FB24F3442BE7F"",""assignmentId"":""0198be94-1c70-7766-81a1-5d400c9abe8e"",""projectId"":""0198be8b-78cf-72d2-ba2b-1e62c78022e0""}","https://test12345.live/?num_scrambled_semantic=8&num_scrambled_causal=4&num_scrambled_schematic=4&participantId=2597CCC9287641888D6FB24F3442BE7F&assignmentId=0198be94-1c70-7766-81a1-5d400c9abe8e&projectId=0198be8b-78cf-72d2-ba2b-1e62c78022e0","2597CCC9287641888D6FB24F3442BE7F-2025-08-18-19-38-45","","null","","images/instructions/movie_1.png","null","",""
"","","","","","image-button-response","10","66315","0.0-6.0-1.0-1.0","2597CCC9287641888D6FB24F3442BE7F","2597CCC9287641888D6FB24F3442BE7F","0198be94-1c70-7766-81a1-5d400c9abe8e","0198be8b-78cf-72d2-ba2b-1e62c78022e0","{""num_scrambled_semantic"":""8"",""num_scrambled_causal"":""4"",""num_scrambled_schematic"":""4"",""participantId"":""2597CCC9287641888D6FB24F3442BE7F"",""assignmentId"":""0198be94-1c70-7766-81a1-5d400c9abe8e"",""projectId"":""0198be8b-78cf-72d2-ba2b-1e62c78022e0""}","https://test12345.live/?num_scrambled_semantic=8&num_scrambled_causal=4&num_scrambled_schematic=4&participantId=2597CCC9287641888D6FB24F3442BE7F&assignmentId=0198be94-1c70-7766-81a1-5d400c9abe8e&projectId=0198be8b-78cf-72d2-ba2b-1e62c78022e0","2597CCC9287641888D6FB24F3442BE7F-2025-08-18-19-38-45","","2588","","images/instructions/movie_1.png","0","",""
"","","","","","image-button-response","11","68128","0.0-6.0-1.0-2.0","2597CCC9287641888D6FB24F3442BE7F","2597CCC9287641888D6FB24F3442BE7F","0198be94-1c70-7766-81a1-5d400c9abe8e","0198be8b-78cf-72d2-ba2b-1e62c78022e0","{""num_scrambled_semantic"":""8"",""num_scrambled_causal"":""4"",""num_scrambled_schematic"":""4"",""participantId"":""2597CCC9287641888D6FB24F3442BE7F"",""assignmentId"":""0198be94-1c70-7766-81a1-5d400c9abe8e"",""projectId"":""0198be8b-78cf-72d2-ba2b-1e62c78022e0""}","https://test12345.live/?num_scrambled_semantic=8&num_scrambled_causal=4&num_scrambled_schematic=4&participantId=2597CCC9287641888D6FB24F3442BE7F&assignmentId=0198be94-1c70-7766-81a1-5d400c9abe8e&projectId=0198be8b-78cf-72d2-ba2b-1e62c78022e0","2597CCC9287641888D6FB24F3442BE7F-2025-08-18-19-38-45","","null","","[]","null","",""
"","","","","","image-button-response","12","72640","0.0-6.0-1.0-0.1","2597CCC9287641888D6FB24F3442BE7F","2597CCC9287641888D6FB24F3442BE7F","0198be94-1c70-7766-81a1-5d400c9abe8e","0198be8b-78cf-72d2-ba2b-1e62c78022e0","{""num_scrambled_semantic"":""8"",""num_scrambled_causal"":""4"",""num_scrambled_schematic"":""4"",""participantId"":""2597CCC9287641888D6FB24F3442BE7F"",""assignmentId"":""0198be94-1c70-7766-81a1-5d400c9abe8e"",""projectId"":""0198be8b-78cf-72d2-ba2b-1e62c78022e0""}","https://test12345.live/?num_scrambled_semantic=8&num_scrambled_causal=4&num_scrambled_schematic=4&participantId=2597CCC9287641888D6FB24F3442BE7F&assignmentId=0198be94-1c70-7766-81a1-5d400c9abe8e&projectId=0198be8b-78cf-72d2-ba2b-1e62c78022e0","2597CCC9287641888D6FB24F3442BE7F-2025-08-18-19-38-45","","null","","images/instructions/movie_2.png","null","",""
"","","","","","image-button-response","13","76641","0.0-6.0-1.0-1.1","2597CCC9287641888D6FB24F3442BE7F","2597CCC9287641888D6FB24F3442BE7F","0198be94-1c70-7766-81a1-5d400c9abe8e","0198be8b-78cf-72d2-ba2b-1e62c78022e0","{""num_scrambled_semantic"":""8"",""num_scrambled_causal"":""4"",""num_scrambled_schematic"":""4"",""participantId"":""2597CCC9287641888D6FB24F3442BE7F"",""assignmentId"":""0198be94-1c70-7766-81a1-5d400c9abe8e"",""projectId"":""0198be8b-78cf-72d2-ba2b-1e62c78022e0""}","https://test12345.live/?num_scrambled_semantic=8&num_scrambled_causal=4&num_scrambled_schematic=4&participantId=2597CCC9287641888D6FB24F3442BE7F&assignmentId=0198be94-1c70-7766-81a1-5d400c9abe8e&projectId=0198be8b-78cf-72d2-ba2b-1e62c78022e0","2597CCC9287641888D6FB24F3442BE7F-2025-08-18-19-38-45","","null","","images/instructions/movie_2.png","null","",""
"","","","","","image-button-response","14","78448","0.0-6.0-1.0-2.1","2597CCC9287641888D6FB24F3442BE7F","2597CCC9287641888D6FB24F3442BE7F","0198be94-1c70-7766-81a1-5d400c9abe8e","0198be8b-78cf-72d2-ba2b-1e62c78022e0","{""num_scrambled_semantic"":""8"",""num_scrambled_causal"":""4"",""num_scrambled_schematic"":""4"",""participantId"":""2597CCC9287641888D6FB24F3442BE7F"",""assignmentId"":""0198be94-1c70-7766-81a1-5d400c9abe8e"",""projectId"":""0198be8b-78cf-72d2-ba2b-1e62c78022e0""}","https://test12345.live/?num_scrambled_semantic=8&num_scrambled_causal=4&num_scrambled_schematic=4&participantId=2597CCC9287641888D6FB24F3442BE7F&assignmentId=0198be94-1c70-7766-81a1-5d400c9abe8e&projectId=0198be8b-78cf-72d2-ba2b-1e62c78022e0","2597CCC9287641888D6FB24F3442BE7F-2025-08-18-19-38-45","","null","","[]","null","",""
"","","","","","image-button-response","15","82950","0.0-6.0-1.0-0.2","2597CCC9287641888D6FB24F3442BE7F","2597CCC9287641888D6FB24F3442BE7F","0198be94-1c70-7766-81a1-5d400c9abe8e","0198be8b-78cf-72d2-ba2b-1e62c78022e0","{""num_scrambled_semantic"":""8"",""num_scrambled_causal"":""4"",""num_scrambled_schematic"":""4"",""participantId"":""2597CCC9287641888D6FB24F3442BE7F"",""assignmentId"":""0198be94-1c70-7766-81a1-5d400c9abe8e"",""projectId"":""0198be8b-78cf-72d2-ba2b-1e62c78022e0""}","https://test12345.live/?num_scrambled_semantic=8&num_scrambled_causal=4&num_scrambled_schematic=4&participantId=2597CCC9287641888D6FB24F3442BE7F&assignmentId=0198be94-1c70-7766-81a1-5d400c9abe8e&projectId=0198be8b-78cf-72d2-ba2b-1e62c78022e0","2597CCC9287641888D6FB24F3442BE7F-2025-08-18-19-38-45","","null","","images/instructions/movie_3.png","null","",""
"","","","","","image-button-response","16","84280","0.0-6.0-1.0-1.2","2597CCC9287641888D6FB24F3442BE7F","2597CCC9287641888D6FB24F3442BE7F","0198be94-1c70-7766-81a1-5d400c9abe8e","0198be8b-78cf-72d2-ba2b-1e62c78022e0","{""num_scrambled_semantic"":""8"",""num_scrambled_causal"":""4"",""num_scrambled_schematic"":""4"",""participantId"":""2597CCC9287641888D6FB24F3442BE7F"",""assignmentId"":""0198be94-1c70-7766-81a1-5d400c9abe8e"",""projectId"":""0198be8b-78cf-72d2-ba2b-1e62c78022e0""}","https://test12345.live/?num_scrambled_semantic=8&num_scrambled_causal=4&num_scrambled_schematic=4&participantId=2597CCC9287641888D6FB24F3442BE7F&assignmentId=0198be94-1c70-7766-81a1-5d400c9abe8e&projectId=0198be8b-78cf-72d2-ba2b-1e62c78022e0","2597CCC9287641888D6FB24F3442BE7F-2025-08-18-19-38-45","","1329","","images/instructions/movie_3.png","0","",""
"","","","","","image-button-response","17","86088","0.0-6.0-1.0-2.2","2597CCC9287641888D6FB24F3442BE7F","2597CCC9287641888D6FB24F3442BE7F","0198be94-1c70-7766-81a1-5d400c9abe8e","0198be8b-78cf-72d2-ba2b-1e62c78022e0","{""num_scrambled_semantic"":""8"",""num_scrambled_causal"":""4"",""num_scrambled_schematic"":""4"",""participantId"":""2597CCC9287641888D6FB24F3442BE7F"",""assignmentId"":""0198be94-1c70-7766-81a1-5d400c9abe8e"",""projectId"":""0198be8b-78cf-72d2-ba2b-1e62c78022e0""}","https://test12345.live/?num_scrambled_semantic=8&num_scrambled_causal=4&num_scrambled_schematic=4&participantId=2597CCC9287641888D6FB24F3442BE7F&assignmentId=0198be94-1c70-7766-81a1-5d400c9abe8e&projectId=0198be8b-78cf-72d2-ba2b-1e62c78022e0","2597CCC9287641888D6FB24F3442BE7F-2025-08-18-19-38-45","","null","","[]","null","",""
"","","","","","image-button-response","18","90593","0.0-6.0-1.0-0.3","2597CCC9287641888D6FB24F3442BE7F","2597CCC9287641888D6FB24F3442BE7F","0198be94-1c70-7766-81a1-5d400c9abe8e","0198be8b-78cf-72d2-ba2b-1e62c78022e0","{""num_scrambled_semantic"":""8"",""num_scrambled_causal"":""4"",""num_scrambled_schematic"":""4"",""participantId"":""2597CCC9287641888D6FB24F3442BE7F"",""assignmentId"":""0198be94-1c70-7766-81a1-5d400c9abe8e"",""projectId"":""0198be8b-78cf-72d2-ba2b-1e62c78022e0""}","https://test12345.live/?num_scrambled_semantic=8&num_scrambled_causal=4&num_scrambled_schematic=4&participantId=2597CCC9287641888D6FB24F3442BE7F&assignmentId=0198be94-1c70-7766-81a1-5d400c9abe8e&projectId=0198be8b-78cf-72d2-ba2b-1e62c78022e0","2597CCC9287641888D6FB24F3442BE7F-2025-08-18-19-38-45","","null","","images/instructions/movie_4.png","null","",""
"","","","","","image-button-response","19","91808","0.0-6.0-1.0-1.3","2597CCC9287641888D6FB24F3442BE7F","2597CCC9287641888D6FB24F3442BE7F","0198be94-1c70-7766-81a1-5d400c9abe8e","0198be8b-78cf-72d2-ba2b-1e62c78022e0","{""num_scrambled_semantic"":""8"",""num_scrambled_causal"":""4"",""num_scrambled_schematic"":""4"",""participantId"":""2597CCC9287641888D6FB24F3442BE7F"",""assignmentId"":""0198be94-1c70-7766-81a1-5d400c9abe8e"",""projectId"":""0198be8b-78cf-72d2-ba2b-1e62c78022e0""}","https://test12345.live/?num_scrambled_semantic=8&num_scrambled_causal=4&num_scrambled_schematic=4&participantId=2597CCC9287641888D6FB24F3442BE7F&assignmentId=0198be94-1c70-7766-81a1-5d400c9abe8e&projectId=0198be8b-78cf-72d2-ba2b-1e62c78022e0","2597CCC9287641888D6FB24F3442BE7F-2025-08-18-19-38-45","","1214","","images/instructions/movie_4.png","0","",""
"","","","","","image-button-response","20","93626","0.0-6.0-1.0-2.3","2597CCC9287641888D6FB24F3442BE7F","2597CCC9287641888D6FB24F3442BE7F","0198be94-1c70-7766-81a1-5d400c9abe8e","0198be8b-78cf-72d2-ba2b-1e62c78022e0","{""num_scrambled_semantic"":""8"",""num_scrambled_causal"":""4"",""num_scrambled_schematic"":""4"",""participantId"":""2597CCC9287641888D6FB24F3442BE7F"",""assignmentId"":""0198be94-1c70-7766-81a1-5d400c9abe8e"",""projectId"":""0198be8b-78cf-72d2-ba2b-1e62c78022e0""}","https://test12345.live/?num_scrambled_semantic=8&num_scrambled_causal=4&num_scrambled_schematic=4&participantId=2597CCC9287641888D6FB24F3442BE7F&assignmentId=0198be94-1c70-7766-81a1-5d400c9abe8e&projectId=0198be8b-78cf-72d2-ba2b-1e62c78022e0","2597CCC9287641888D6FB24F3442BE7F-2025-08-18-19-38-45","","null","","[]","null","",""
"","","","","","instructions","21","103248","0.0-7.0","2597CCC9287641888D6FB24F3442BE7F","2597CCC9287641888D6FB24F3442BE7F","0198be94-1c70-7766-81a1-5d400c9abe8e","0198be8b-78cf-72d2-ba2b-1e62c78022e0","{""num_scrambled_semantic"":""8"",""num_scrambled_causal"":""4"",""num_scrambled_schematic"":""4"",""participantId"":""2597CCC9287641888D6FB24F3442BE7F"",""assignmentId"":""0198be94-1c70-7766-81a1-5d400c9abe8e"",""projectId"":""0198be8b-78cf-72d2-ba2b-1e62c78022e0""}","https://test12345.live/?num_scrambled_semantic=8&num_scrambled_causal=4&num_scrambled_schematic=4&participantId=2597CCC9287641888D6FB24F3442BE7F&assignmentId=0198be94-1c70-7766-81a1-5d400c9abe8e&projectId=0198be8b-78cf-72d2-ba2b-1e62c78022e0","2597CCC9287641888D6FB24F3442BE7F-2025-08-18-19-38-45","[{""page_index"":0,""viewing_time"":9621}]","9621","","","","",""
"","","","","","html-audio-response","22","136556","0.0-8.0","2597CCC9287641888D6FB24F3442BE7F","2597CCC9287641888D6FB24F3442BE7F","0198be94-1c70-7766-81a1-5d400c9abe8e","0198be8b-78cf-72d2-ba2b-1e62c78022e0","{""num_scrambled_semantic"":""8"",""num_scrambled_causal"":""4"",""num_scrambled_schematic"":""4"",""participantId"":""2597CCC9287641888D6FB24F3442BE7F"",""assignmentId"":""0198be94-1c70-7766-81a1-5d400c9abe8e"",""projectId"":""0198be8b-78cf-72d2-ba2b-1e62c78022e0""}","https://test12345.live/?num_scrambled_semantic=8&num_scrambled_causal=4&num_scrambled_schematic=4&participantId=2597CCC9287641888D6FB24F3442BE7F&assignmentId=0198be94-1c70-7766-81a1-5d400c9abe8e&projectId=0198be8b-78cf-72d2-ba2b-1e62c78022e0","2597CCC9287641888D6FB24F3442BE7F-2025-08-18-19-38-45","","15812","","[""<span style=\""color: red; font-size: 24px\""> NOW RECORDING</span><p>Please say out loud all the images you saw, in the order of the story they create. Try to recall the sequence of events as they appeared in the story, not necessarily the order they were presented on the screen.</p>""]","","1",""
"","","","","","instructions","23","138450","0.0-9.0","2597CCC9287641888D6FB24F3442BE7F","2597CCC9287641888D6FB24F3442BE7F","0198be94-1c70-7766-81a1-5d400c9abe8e","0198be8b-78cf-72d2-ba2b-1e62c78022e0","{""num_scrambled_semantic"":""8"",""num_scrambled_causal"":""4"",""num_scrambled_schematic"":""4"",""participantId"":""2597CCC9287641888D6FB24F3442BE7F"",""assignmentId"":""0198be94-1c70-7766-81a1-5d400c9abe8e"",""projectId"":""0198be8b-78cf-72d2-ba2b-1e62c78022e0""}","https://test12345.live/?num_scrambled_semantic=8&num_scrambled_causal=4&num_scrambled_schematic=4&participantId=2597CCC9287641888D6FB24F3442BE7F&assignmentId=0198be94-1c70-7766-81a1-5d400c9abe8e&projectId=0198be8b-78cf-72d2-ba2b-1e62c78022e0","2597CCC9287641888D6FB24F3442BE7F-2025-08-18-19-38-45","[{""page_index"":0,""viewing_time"":1890}]","1890","","","","",""
"","","","","","image-button-response","24","144466","0.0-10.0-0.0","2597CCC9287641888D6FB24F3442BE7F","2597CCC9287641888D6FB24F3442BE7F","0198be94-1c70-7766-81a1-5d400c9abe8e","0198be8b-78cf-72d2-ba2b-1e62c78022e0","{""num_scrambled_semantic"":""8"",""num_scrambled_causal"":""4"",""num_scrambled_schematic"":""4"",""participantId"":""2597CCC9287641888D6FB24F3442BE7F"",""assignmentId"":""0198be94-1c70-7766-81a1-5d400c9abe8e"",""projectId"":""0198be8b-78cf-72d2-ba2b-1e62c78022e0""}","https://test12345.live/?num_scrambled_semantic=8&num_scrambled_causal=4&num_scrambled_schematic=4&participantId=2597CCC9287641888D6FB24F3442BE7F&assignmentId=0198be94-1c70-7766-81a1-5d400c9abe8e&projectId=0198be8b-78cf-72d2-ba2b-1e62c78022e0","2597CCC9287641888D6FB24F3442BE7F-2025-08-18-19-38-45","","null","","images/causal_sequence/package_causal/package_causal_0.png","null","",""
"","","","","","image-button-response","25","148968","0.0-10.0-1.0-0.0","2597CCC9287641888D6FB24F3442BE7F","2597CCC9287641888D6FB24F3442BE7F","0198be94-1c70-7766-81a1-5d400c9abe8e","0198be8b-78cf-72d2-ba2b-1e62c78022e0","{""num_scrambled_semantic"":""8"",""num_scrambled_causal"":""4"",""num_scrambled_schematic"":""4"",""participantId"":""2597CCC9287641888D6FB24F3442BE7F"",""assignmentId"":""0198be94-1c70-7766-81a1-5d400c9abe8e"",""projectId"":""0198be8b-78cf-72d2-ba2b-1e62c78022e0""}","https://test12345.live/?num_scrambled_semantic=8&num_scrambled_causal=4&num_scrambled_schematic=4&participantId=2597CCC9287641888D6FB24F3442BE7F&assignmentId=0198be94-1c70-7766-81a1-5d400c9abe8e&projectId=0198be8b-78cf-72d2-ba2b-1e62c78022e0","2597CCC9287641888D6FB24F3442BE7F-2025-08-18-19-38-45","","null","","images/causal_sequence/package_causal/package_causal_1.png","null","",""
"","","","","","image-button-response","26","151252","0.0-10.0-1.0-1.0","2597CCC9287641888D6FB24F3442BE7F","2597CCC9287641888D6FB24F3442BE7F","0198be94-1c70-7766-81a1-5d400c9abe8e","0198be8b-78cf-72d2-ba2b-1e62c78022e0","{""num_scrambled_semantic"":""8"",""num_scrambled_causal"":""4"",""num_scrambled_schematic"":""4"",""participantId"":""2597CCC9287641888D6FB24F3442BE7F"",""assignmentId"":""0198be94-1c70-7766-81a1-5d400c9abe8e"",""projectId"":""0198be8b-78cf-72d2-ba2b-1e62c78022e0""}","https://test12345.live/?num_scrambled_semantic=8&num_scrambled_causal=4&num_scrambled_schematic=4&participantId=2597CCC9287641888D6FB24F3442BE7F&assignmentId=0198be94-1c70-7766-81a1-5d400c9abe8e&projectId=0198be8b-78cf-72d2-ba2b-1e62c78022e0","2597CCC9287641888D6FB24F3442BE7F-2025-08-18-19-38-45","","2284","","images/causal_sequence/package_causal/package_causal_1.png","0","",""
"","","","","","image-button-response","27","153061","0.0-10.0-1.0-2.0","2597CCC9287641888D6FB24F3442BE7F","2597CCC9287641888D6FB24F3442BE7F","0198be94-1c70-7766-81a1-5d400c9abe8e","0198be8b-78cf-72d2-ba2b-1e62c78022e0","{""num_scrambled_semantic"":""8"",""num_scrambled_causal"":""4"",""num_scrambled_schematic"":""4"",""participantId"":""2597CCC9287641888D6FB24F3442BE7F"",""assignmentId"":""0198be94-1c70-7766-81a1-5d400c9abe8e"",""projectId"":""0198be8b-78cf-72d2-ba2b-1e62c78022e0""}","https://test12345.live/?num_scrambled_semantic=8&num_scrambled_causal=4&num_scrambled_schematic=4&participantId=2597CCC9287641888D6FB24F3442BE7F&assignmentId=0198be94-1c70-7766-81a1-5d400c9abe8e&projectId=0198be8b-78cf-72d2-ba2b-1e62c78022e0","2597CCC9287641888D6FB24F3442BE7F-2025-08-18-19-38-45","","null","","[]","null","",""
"","","","","","image-button-response","28","157571","0.0-10.0-1.0-0.1","2597CCC9287641888D6FB24F3442BE7F","2597CCC9287641888D6FB24F3442BE7F","0198be94-1c70-7766-81a1-5d400c9abe8e","0198be8b-78cf-72d2-ba2b-1e62c78022e0","{""num_scrambled_semantic"":""8"",""num_scrambled_causal"":""4"",""num_scrambled_schematic"":""4"",""participantId"":""2597CCC9287641888D6FB24F3442BE7F"",""assignmentId"":""0198be94-1c70-7766-81a1-5d400c9abe8e"",""projectId"":""0198be8b-78cf-72d2-ba2b-1e62c78022e0""}","https://test12345.live/?num_scrambled_semantic=8&num_scrambled_causal=4&num_scrambled_schematic=4&participantId=2597CCC9287641888D6FB24F3442BE7F&assignmentId=0198be94-1c70-7766-81a1-5d400c9abe8e&projectId=0198be8b-78cf-72d2-ba2b-1e62c78022e0","2597CCC9287641888D6FB24F3442BE7F-2025-08-18-19-38-45","","null","","images/causal_sequence/package_causal/package_causal_2.png","null","",""
"","","","","","image-button-response","29","160192","0.0-10.0-1.0-1.1","2597CCC9287641888D6FB24F3442BE7F","2597CCC9287641888D6FB24F3442BE7F","0198be94-1c70-7766-81a1-5d400c9abe8e","0198be8b-78cf-72d2-ba2b-1e62c78022e0","{""num_scrambled_semantic"":""8"",""num_scrambled_causal"":""4"",""num_scrambled_schematic"":""4"",""participantId"":""2597CCC9287641888D6FB24F3442BE7F"",""assignmentId"":""0198be94-1c70-7766-81a1-5d400c9abe8e"",""projectId"":""0198be8b-78cf-72d2-ba2b-1e62c78022e0""}","https://test12345.live/?num_scrambled_semantic=8&num_scrambled_causal=4&num_scrambled_schematic=4&participantId=2597CCC9287641888D6FB24F3442BE7F&assignmentId=0198be94-1c70-7766-81a1-5d400c9abe8e&projectId=0198be8b-78cf-72d2-ba2b-1e62c78022e0","2597CCC9287641888D6FB24F3442BE7F-2025-08-18-19-38-45","","2620","","images/causal_sequence/package_causal/package_causal_2.png","0","",""
"","","","","","image-button-response","30","161997","0.0-10.0-1.0-2.1","2597CCC9287641888D6FB24F3442BE7F","2597CCC9287641888D6FB24F3442BE7F","0198be94-1c70-7766-81a1-5d400c9abe8e","0198be8b-78cf-72d2-ba2b-1e62c78022e0","{""num_scrambled_semantic"":""8"",""num_scrambled_causal"":""4"",""num_scrambled_schematic"":""4"",""participantId"":""2597CCC9287641888D6FB24F3442BE7F"",""assignmentId"":""0198be94-1c70-7766-81a1-5d400c9abe8e"",""projectId"":""0198be8b-78cf-72d2-ba2b-1e62c78022e0""}","https://test12345.live/?num_scrambled_semantic=8&num_scrambled_causal=4&num_scrambled_schematic=4&participantId=2597CCC9287641888D6FB24F3442BE7F&assignmentId=0198be94-1c70-7766-81a1-5d400c9abe8e&projectId=0198be8b-78cf-72d2-ba2b-1e62c78022e0","2597CCC9287641888D6FB24F3442BE7F-2025-08-18-19-38-45","","null","","[]","null","",""
"","","","","","image-button-response","31","166507","0.0-10.0-1.0-0.2","2597CCC9287641888D6FB24F3442BE7F","2597CCC9287641888D6FB24F3442BE7F","0198be94-1c70-7766-81a1-5d400c9abe8e","0198be8b-78cf-72d2-ba2b-1e62c78022e0","{""num_scrambled_semantic"":""8"",""num_scrambled_causal"":""4"",""num_scrambled_schematic"":""4"",""participantId"":""2597CCC9287641888D6FB24F3442BE7F"",""assignmentId"":""0198be94-1c70-7766-81a1-5d400c9abe8e"",""projectId"":""0198be8b-78cf-72d2-ba2b-1e62c78022e0""}","https://test12345.live/?num_scrambled_semantic=8&num_scrambled_causal=4&num_scrambled_schematic=4&participantId=2597CCC9287641888D6FB24F3442BE7F&assignmentId=0198be94-1c70-7766-81a1-5d400c9abe8e&projectId=0198be8b-78cf-72d2-ba2b-1e62c78022e0","2597CCC9287641888D6FB24F3442BE7F-2025-08-18-19-38-45","","null","","images/causal_sequence/package_causal/package_causal_3.png","null","",""
"","","","","","image-button-response","32","168154","0.0-10.0-1.0-1.2","2597CCC9287641888D6FB24F3442BE7F","2597CCC9287641888D6FB24F3442BE7F","0198be94-1c70-7766-81a1-5d400c9abe8e","0198be8b-78cf-72d2-ba2b-1e62c78022e0","{""num_scrambled_semantic"":""8"",""num_scrambled_causal"":""4"",""num_scrambled_schematic"":""4"",""participantId"":""2597CCC9287641888D6FB24F3442BE7F"",""assignmentId"":""0198be94-1c70-7766-81a1-5d400c9abe8e"",""projectId"":""0198be8b-78cf-72d2-ba2b-1e62c78022e0""}","https://test12345.live/?num_scrambled_semantic=8&num_scrambled_causal=4&num_scrambled_schematic=4&participantId=2597CCC9287641888D6FB24F3442BE7F&assignmentId=0198be94-1c70-7766-81a1-5d400c9abe8e&projectId=0198be8b-78cf-72d2-ba2b-1e62c78022e0","2597CCC9287641888D6FB24F3442BE7F-2025-08-18-19-38-45","","1646","","images/causal_sequence/package_causal/package_causal_3.png","0","",""
"","","","","","image-button-response","33","169968","0.0-10.0-1.0-2.2","2597CCC9287641888D6FB24F3442BE7F","2597CCC9287641888D6FB24F3442BE7F","0198be94-1c70-7766-81a1-5d400c9abe8e","0198be8b-78cf-72d2-ba2b-1e62c78022e0","{""num_scrambled_semantic"":""8"",""num_scrambled_causal"":""4"",""num_scrambled_schematic"":""4"",""participantId"":""2597CCC9287641888D6FB24F3442BE7F"",""assignmentId"":""0198be94-1c70-7766-81a1-5d400c9abe8e"",""projectId"":""0198be8b-78cf-72d2-ba2b-1e62c78022e0""}","https://test12345.live/?num_scrambled_semantic=8&num_scrambled_causal=4&num_scrambled_schematic=4&participantId=2597CCC9287641888D6FB24F3442BE7F&assignmentId=0198be94-1c70-7766-81a1-5d400c9abe8e&projectId=0198be8b-78cf-72d2-ba2b-1e62c78022e0","2597CCC9287641888D6FB24F3442BE7F-2025-08-18-19-38-45","","null","","[]","null","",""
"","","","","","image-button-response","34","174484","0.0-10.0-1.0-0.3","2597CCC9287641888D6FB24F3442BE7F","2597CCC9287641888D6FB24F3442BE7F","0198be94-1c70-7766-81a1-5d400c9abe8e","0198be8b-78cf-72d2-ba2b-1e62c78022e0","{""num_scrambled_semantic"":""8"",""num_scrambled_causal"":""4"",""num_scrambled_schematic"":""4"",""participantId"":""2597CCC9287641888D6FB24F3442BE7F"",""assignmentId"":""0198be94-1c70-7766-81a1-5d400c9abe8e"",""projectId"":""0198be8b-78cf-72d2-ba2b-1e62c78022e0""}","https://test12345.live/?num_scrambled_semantic=8&num_scrambled_causal=4&num_scrambled_schematic=4&participantId=2597CCC9287641888D6FB24F3442BE7F&assignmentId=0198be94-1c70-7766-81a1-5d400c9abe8e&projectId=0198be8b-78cf-72d2-ba2b-1e62c78022e0","2597CCC9287641888D6FB24F3442BE7F-2025-08-18-19-38-45","","null","","images/causal_sequence/package_causal/package_causal_4.png","null","",""
"","","","","","image-button-response","35","176331","0.0-10.0-1.0-1.3","2597CCC9287641888D6FB24F3442BE7F","2597CCC9287641888D6FB24F3442BE7F","0198be94-1c70-7766-81a1-5d400c9abe8e","0198be8b-78cf-72d2-ba2b-1e62c78022e0","{""num_scrambled_semantic"":""8"",""num_scrambled_causal"":""4"",""num_scrambled_schematic"":""4"",""participantId"":""2597CCC9287641888D6FB24F3442BE7F"",""assignmentId"":""0198be94-1c70-7766-81a1-5d400c9abe8e"",""projectId"":""0198be8b-78cf-72d2-ba2b-1e62c78022e0""}","https://test12345.live/?num_scrambled_semantic=8&num_scrambled_causal=4&num_scrambled_schematic=4&participantId=2597CCC9287641888D6FB24F3442BE7F&assignmentId=0198be94-1c70-7766-81a1-5d400c9abe8e&projectId=0198be8b-78cf-72d2-ba2b-1e62c78022e0","2597CCC9287641888D6FB24F3442BE7F-2025-08-18-19-38-45","","1846","","images/causal_sequence/package_causal/package_causal_4.png","1","",""
"","","","","","image-button-response","36","178132","0.0-10.0-1.0-2.3","2597CCC9287641888D6FB24F3442BE7F","2597CCC9287641888D6FB24F3442BE7F","0198be94-1c70-7766-81a1-5d400c9abe8e","0198be8b-78cf-72d2-ba2b-1e62c78022e0","{""num_scrambled_semantic"":""8"",""num_scrambled_causal"":""4"",""num_scrambled_schematic"":""4"",""participantId"":""2597CCC9287641888D6FB24F3442BE7F"",""assignmentId"":""0198be94-1c70-7766-81a1-5d400c9abe8e"",""projectId"":""0198be8b-78cf-72d2-ba2b-1e62c78022e0""}","https://test12345.live/?num_scrambled_semantic=8&num_scrambled_causal=4&num_scrambled_schematic=4&participantId=2597CCC9287641888D6FB24F3442BE7F&assignmentId=0198be94-1c70-7766-81a1-5d400c9abe8e&projectId=0198be8b-78cf-72d2-ba2b-1e62c78022e0","2597CCC9287641888D6FB24F3442BE7F-2025-08-18-19-38-45","","null","","[]","null","",""
"","","","","","image-button-response","37","182635","0.0-10.0-1.0-0.4","2597CCC9287641888D6FB24F3442BE7F","2597CCC9287641888D6FB24F3442BE7F","0198be94-1c70-7766-81a1-5d400c9abe8e","0198be8b-78cf-72d2-ba2b-1e62c78022e0","{""num_scrambled_semantic"":""8"",""num_scrambled_causal"":""4"",""num_scrambled_schematic"":""4"",""participantId"":""2597CCC9287641888D6FB24F3442BE7F"",""assignmentId"":""0198be94-1c70-7766-81a1-5d400c9abe8e"",""projectId"":""0198be8b-78cf-72d2-ba2b-1e62c78022e0""}","https://test12345.live/?num_scrambled_semantic=8&num_scrambled_causal=4&num_scrambled_schematic=4&participantId=2597CCC9287641888D6FB24F3442BE7F&assignmentId=0198be94-1c70-7766-81a1-5d400c9abe8e&projectId=0198be8b-78cf-72d2-ba2b-1e62c78022e0","2597CCC9287641888D6FB24F3442BE7F-2025-08-18-19-38-45","","null","","images/causal_sequence/package_causal/package_causal_5.png","null","",""
"","","","","","image-button-response","38","184438","0.0-10.0-1.0-1.4","2597CCC9287641888D6FB24F3442BE7F","2597CCC9287641888D6FB24F3442BE7F","0198be94-1c70-7766-81a1-5d400c9abe8e","0198be8b-78cf-72d2-ba2b-1e62c78022e0","{""num_scrambled_semantic"":""8"",""num_scrambled_causal"":""4"",""num_scrambled_schematic"":""4"",""participantId"":""2597CCC9287641888D6FB24F3442BE7F"",""assignmentId"":""0198be94-1c70-7766-81a1-5d400c9abe8e"",""projectId"":""0198be8b-78cf-72d2-ba2b-1e62c78022e0""}","https://test12345.live/?num_scrambled_semantic=8&num_scrambled_causal=4&num_scrambled_schematic=4&participantId=2597CCC9287641888D6FB24F3442BE7F&assignmentId=0198be94-1c70-7766-81a1-5d400c9abe8e&projectId=0198be8b-78cf-72d2-ba2b-1e62c78022e0","2597CCC9287641888D6FB24F3442BE7F-2025-08-18-19-38-45","","1802","","images/causal_sequence/package_causal/package_causal_5.png","0","",""
"","","","","","image-button-response","39","186249","0.0-10.0-1.0-2.4","2597CCC9287641888D6FB24F3442BE7F","2597CCC9287641888D6FB24F3442BE7F","0198be94-1c70-7766-81a1-5d400c9abe8e","0198be8b-78cf-72d2-ba2b-1e62c78022e0","{""num_scrambled_semantic"":""8"",""num_scrambled_causal"":""4"",""num_scrambled_schematic"":""4"",""participantId"":""2597CCC9287641888D6FB24F3442BE7F"",""assignmentId"":""0198be94-1c70-7766-81a1-5d400c9abe8e"",""projectId"":""0198be8b-78cf-72d2-ba2b-1e62c78022e0""}","https://test12345.live/?num_scrambled_semantic=8&num_scrambled_causal=4&num_scrambled_schematic=4&participantId=2597CCC9287641888D6FB24F3442BE7F&assignmentId=0198be94-1c70-7766-81a1-5d400c9abe8e&projectId=0198be8b-78cf-72d2-ba2b-1e62c78022e0","2597CCC9287641888D6FB24F3442BE7F-2025-08-18-19-38-45","","null","","[]","null","",""
"","","","","","image-button-response","40","190766","0.0-10.0-1.0-0.5","2597CCC9287641888D6FB24F3442BE7F","2597CCC9287641888D6FB24F3442BE7F","0198be94-1c70-7766-81a1-5d400c9abe8e","0198be8b-78cf-72d2-ba2b-1e62c78022e0","{""num_scrambled_semantic"":""8"",""num_scrambled_causal"":""4"",""num_scrambled_schematic"":""4"",""participantId"":""2597CCC9287641888D6FB24F3442BE7F"",""assignmentId"":""0198be94-1c70-7766-81a1-5d400c9abe8e"",""projectId"":""0198be8b-78cf-72d2-ba2b-1e62c78022e0""}","https://test12345.live/?num_scrambled_semantic=8&num_scrambled_causal=4&num_scrambled_schematic=4&participantId=2597CCC9287641888D6FB24F3442BE7F&assignmentId=0198be94-1c70-7766-81a1-5d400c9abe8e&projectId=0198be8b-78cf-72d2-ba2b-1e62c78022e0","2597CCC9287641888D6FB24F3442BE7F-2025-08-18-19-38-45","","null","","images/causal_sequence/package_causal/package_causal_6.png","null","",""
"","","","","","image-button-response","41","192030","0.0-10.0-1.0-1.5","2597CCC9287641888D6FB24F3442BE7F","2597CCC9287641888D6FB24F3442BE7F","0198be94-1c70-7766-81a1-5d400c9abe8e","0198be8b-78cf-72d2-ba2b-1e62c78022e0","{""num_scrambled_semantic"":""8"",""num_scrambled_causal"":""4"",""num_scrambled_schematic"":""4"",""participantId"":""2597CCC9287641888D6FB24F3442BE7F"",""assignmentId"":""0198be94-1c70-7766-81a1-5d400c9abe8e"",""projectId"":""0198be8b-78cf-72d2-ba2b-1e62c78022e0""}","https://test12345.live/?num_scrambled_semantic=8&num_scrambled_causal=4&num_scrambled_schematic=4&participantId=2597CCC9287641888D6FB24F3442BE7F&assignmentId=0198be94-1c70-7766-81a1-5d400c9abe8e&projectId=0198be8b-78cf-72d2-ba2b-1e62c78022e0","2597CCC9287641888D6FB24F3442BE7F-2025-08-18-19-38-45","","1263","","images/causal_sequence/package_causal/package_causal_6.png","0","",""
"","","","","","image-button-response","42","193844","0.0-10.0-1.0-2.5","2597CCC9287641888D6FB24F3442BE7F","2597CCC9287641888D6FB24F3442BE7F","0198be94-1c70-7766-81a1-5d400c9abe8e","0198be8b-78cf-72d2-ba2b-1e62c78022e0","{""num_scrambled_semantic"":""8"",""num_scrambled_causal"":""4"",""num_scrambled_schematic"":""4"",""participantId"":""2597CCC9287641888D6FB24F3442BE7F"",""assignmentId"":""0198be94-1c70-7766-81a1-5d400c9abe8e"",""projectId"":""0198be8b-78cf-72d2-ba2b-1e62c78022e0""}","https://test12345.live/?num_scrambled_semantic=8&num_scrambled_causal=4&num_scrambled_schematic=4&participantId=2597CCC9287641888D6FB24F3442BE7F&assignmentId=0198be94-1c70-7766-81a1-5d400c9abe8e&projectId=0198be8b-78cf-72d2-ba2b-1e62c78022e0","2597CCC9287641888D6FB24F3442BE7F-2025-08-18-19-38-45","","null","","[]","null","",""
"","","","","","image-button-response","43","198347","0.0-10.0-1.0-0.6","2597CCC9287641888D6FB24F3442BE7F","2597CCC9287641888D6FB24F3442BE7F","0198be94-1c70-7766-81a1-5d400c9abe8e","0198be8b-78cf-72d2-ba2b-1e62c78022e0","{""num_scrambled_semantic"":""8"",""num_scrambled_causal"":""4"",""num_scrambled_schematic"":""4"",""participantId"":""2597CCC9287641888D6FB24F3442BE7F"",""assignmentId"":""0198be94-1c70-7766-81a1-5d400c9abe8e"",""projectId"":""0198be8b-78cf-72d2-ba2b-1e62c78022e0""}","https://test12345.live/?num_scrambled_semantic=8&num_scrambled_causal=4&num_scrambled_schematic=4&participantId=2597CCC9287641888D6FB24F3442BE7F&assignmentId=0198be94-1c70-7766-81a1-5d400c9abe8e&projectId=0198be8b-78cf-72d2-ba2b-1e62c78022e0","2597CCC9287641888D6FB24F3442BE7F-2025-08-18-19-38-45","","null","","images/causal_sequence/package_causal/package_causal_7.png","null","",""
"","","","","","image-button-response","44","199406","0.0-10.0-1.0-1.6","2597CCC9287641888D6FB24F3442BE7F","2597CCC9287641888D6FB24F3442BE7F","0198be94-1c70-7766-81a1-5d400c9abe8e","0198be8b-78cf-72d2-ba2b-1e62c78022e0","{""num_scrambled_semantic"":""8"",""num_scrambled_causal"":""4"",""num_scrambled_schematic"":""4"",""participantId"":""2597CCC9287641888D6FB24F3442BE7F"",""assignmentId"":""0198be94-1c70-7766-81a1-5d400c9abe8e"",""projectId"":""0198be8b-78cf-72d2-ba2b-1e62c78022e0""}","https://test12345.live/?num_scrambled_semantic=8&num_scrambled_causal=4&num_scrambled_schematic=4&participantId=2597CCC9287641888D6FB24F3442BE7F&assignmentId=0198be94-1c70-7766-81a1-5d400c9abe8e&projectId=0198be8b-78cf-72d2-ba2b-1e62c78022e0","2597CCC9287641888D6FB24F3442BE7F-2025-08-18-19-38-45","","1059","","images/causal_sequence/package_causal/package_causal_7.png","0","",""
"","","","","","image-button-response","45","201220","0.0-10.0-1.0-2.6","2597CCC9287641888D6FB24F3442BE7F","2597CCC9287641888D6FB24F3442BE7F","0198be94-1c70-7766-81a1-5d400c9abe8e","0198be8b-78cf-72d2-ba2b-1e62c78022e0","{""num_scrambled_semantic"":""8"",""num_scrambled_causal"":""4"",""num_scrambled_schematic"":""4"",""participantId"":""2597CCC9287641888D6FB24F3442BE7F"",""assignmentId"":""0198be94-1c70-7766-81a1-5d400c9abe8e"",""projectId"":""0198be8b-78cf-72d2-ba2b-1e62c78022e0""}","https://test12345.live/?num_scrambled_semantic=8&num_scrambled_causal=4&num_scrambled_schematic=4&participantId=2597CCC9287641888D6FB24F3442BE7F&assignmentId=0198be94-1c70-7766-81a1-5d400c9abe8e&projectId=0198be8b-78cf-72d2-ba2b-1e62c78022e0","2597CCC9287641888D6FB24F3442BE7F-2025-08-18-19-38-45","","null","","[]","null","",""
"","","","","","image-button-response","46","205722","0.0-10.0-1.0-0.7","2597CCC9287641888D6FB24F3442BE7F","2597CCC9287641888D6FB24F3442BE7F","0198be94-1c70-7766-81a1-5d400c9abe8e","0198be8b-78cf-72d2-ba2b-1e62c78022e0","{""num_scrambled_semantic"":""8"",""num_scrambled_causal"":""4"",""num_scrambled_schematic"":""4"",""participantId"":""2597CCC9287641888D6FB24F3442BE7F"",""assignmentId"":""0198be94-1c70-7766-81a1-5d400c9abe8e"",""projectId"":""0198be8b-78cf-72d2-ba2b-1e62c78022e0""}","https://test12345.live/?num_scrambled_semantic=8&num_scrambled_causal=4&num_scrambled_schematic=4&participantId=2597CCC9287641888D6FB24F3442BE7F&assignmentId=0198be94-1c70-7766-81a1-5d400c9abe8e&projectId=0198be8b-78cf-72d2-ba2b-1e62c78022e0","2597CCC9287641888D6FB24F3442BE7F-2025-08-18-19-38-45","","null","","images/causal_sequence/package_causal/package_causal_8.png","null","",""
"","","","","","image-button-response","47","207230","0.0-10.0-1.0-1.7","2597CCC9287641888D6FB24F3442BE7F","2597CCC9287641888D6FB24F3442BE7F","0198be94-1c70-7766-81a1-5d400c9abe8e","0198be8b-78cf-72d2-ba2b-1e62c78022e0","{""num_scrambled_semantic"":""8"",""num_scrambled_causal"":""4"",""num_scrambled_schematic"":""4"",""participantId"":""2597CCC9287641888D6FB24F3442BE7F"",""assignmentId"":""0198be94-1c70-7766-81a1-5d400c9abe8e"",""projectId"":""0198be8b-78cf-72d2-ba2b-1e62c78022e0""}","https://test12345.live/?num_scrambled_semantic=8&num_scrambled_causal=4&num_scrambled_schematic=4&participantId=2597CCC9287641888D6FB24F3442BE7F&assignmentId=0198be94-1c70-7766-81a1-5d400c9abe8e&projectId=0198be8b-78cf-72d2-ba2b-1e62c78022e0","2597CCC9287641888D6FB24F3442BE7F-2025-08-18-19-38-45","","1507","","images/causal_sequence/package_causal/package_causal_8.png","0","",""
"","","","","","image-button-response","48","209041","0.0-10.0-1.0-2.7","2597CCC9287641888D6FB24F3442BE7F","2597CCC9287641888D6FB24F3442BE7F","0198be94-1c70-7766-81a1-5d400c9abe8e","0198be8b-78cf-72d2-ba2b-1e62c78022e0","{""num_scrambled_semantic"":""8"",""num_scrambled_causal"":""4"",""num_scrambled_schematic"":""4"",""participantId"":""2597CCC9287641888D6FB24F3442BE7F"",""assignmentId"":""0198be94-1c70-7766-81a1-5d400c9abe8e"",""projectId"":""0198be8b-78cf-72d2-ba2b-1e62c78022e0""}","https://test12345.live/?num_scrambled_semantic=8&num_scrambled_causal=4&num_scrambled_schematic=4&participantId=2597CCC9287641888D6FB24F3442BE7F&assignmentId=0198be94-1c70-7766-81a1-5d400c9abe8e&projectId=0198be8b-78cf-72d2-ba2b-1e62c78022e0","2597CCC9287641888D6FB24F3442BE7F-2025-08-18-19-38-45","","null","","[]","null","",""
"","","","","","image-button-response","49","213542","0.0-10.0-1.0-0.8","2597CCC9287641888D6FB24F3442BE7F","2597CCC9287641888D6FB24F3442BE7F","0198be94-1c70-7766-81a1-5d400c9abe8e","0198be8b-78cf-72d2-ba2b-1e62c78022e0","{""num_scrambled_semantic"":""8"",""num_scrambled_causal"":""4"",""num_scrambled_schematic"":""4"",""participantId"":""2597CCC9287641888D6FB24F3442BE7F"",""assignmentId"":""0198be94-1c70-7766-81a1-5d400c9abe8e"",""projectId"":""0198be8b-78cf-72d2-ba2b-1e62c78022e0""}","https://test12345.live/?num_scrambled_semantic=8&num_scrambled_causal=4&num_scrambled_schematic=4&participantId=2597CCC9287641888D6FB24F3442BE7F&assignmentId=0198be94-1c70-7766-81a1-5d400c9abe8e&projectId=0198be8b-78cf-72d2-ba2b-1e62c78022e0","2597CCC9287641888D6FB24F3442BE7F-2025-08-18-19-38-45","","null","","images/causal_sequence/package_causal/package_causal_9.png","null","",""
"","","","","","image-button-response","50","215525","0.0-10.0-1.0-1.8","2597CCC9287641888D6FB24F3442BE7F","2597CCC9287641888D6FB24F3442BE7F","0198be94-1c70-7766-81a1-5d400c9abe8e","0198be8b-78cf-72d2-ba2b-1e62c78022e0","{""num_scrambled_semantic"":""8"",""num_scrambled_causal"":""4"",""num_scrambled_schematic"":""4"",""participantId"":""2597CCC9287641888D6FB24F3442BE7F"",""assignmentId"":""0198be94-1c70-7766-81a1-5d400c9abe8e"",""projectId"":""0198be8b-78cf-72d2-ba2b-1e62c78022e0""}","https://test12345.live/?num_scrambled_semantic=8&num_scrambled_causal=4&num_scrambled_schematic=4&participantId=2597CCC9287641888D6FB24F3442BE7F&assignmentId=0198be94-1c70-7766-81a1-5d400c9abe8e&projectId=0198be8b-78cf-72d2-ba2b-1e62c78022e0","2597CCC9287641888D6FB24F3442BE7F-2025-08-18-19-38-45","","1983","","images/causal_sequence/package_causal/package_causal_9.png","0","",""
"","","","","","image-button-response","51","217339","0.0-10.0-1.0-2.8","2597CCC9287641888D6FB24F3442BE7F","2597CCC9287641888D6FB24F3442BE7F","0198be94-1c70-7766-81a1-5d400c9abe8e","0198be8b-78cf-72d2-ba2b-1e62c78022e0","{""num_scrambled_semantic"":""8"",""num_scrambled_causal"":""4"",""num_scrambled_schematic"":""4"",""participantId"":""2597CCC9287641888D6FB24F3442BE7F"",""assignmentId"":""0198be94-1c70-7766-81a1-5d400c9abe8e"",""projectId"":""0198be8b-78cf-72d2-ba2b-1e62c78022e0""}","https://test12345.live/?num_scrambled_semantic=8&num_scrambled_causal=4&num_scrambled_schematic=4&participantId=2597CCC9287641888D6FB24F3442BE7F&assignmentId=0198be94-1c70-7766-81a1-5d400c9abe8e&projectId=0198be8b-78cf-72d2-ba2b-1e62c78022e0","2597CCC9287641888D6FB24F3442BE7F-2025-08-18-19-38-45","","null","","[]","null","",""
"","","","","","image-button-response","52","221854","0.0-10.0-1.0-0.9","2597CCC9287641888D6FB24F3442BE7F","2597CCC9287641888D6FB24F3442BE7F","0198be94-1c70-7766-81a1-5d400c9abe8e","0198be8b-78cf-72d2-ba2b-1e62c78022e0","{""num_scrambled_semantic"":""8"",""num_scrambled_causal"":""4"",""num_scrambled_schematic"":""4"",""participantId"":""2597CCC9287641888D6FB24F3442BE7F"",""assignmentId"":""0198be94-1c70-7766-81a1-5d400c9abe8e"",""projectId"":""0198be8b-78cf-72d2-ba2b-1e62c78022e0""}","https://test12345.live/?num_scrambled_semantic=8&num_scrambled_causal=4&num_scrambled_schematic=4&participantId=2597CCC9287641888D6FB24F3442BE7F&assignmentId=0198be94-1c70-7766-81a1-5d400c9abe8e&projectId=0198be8b-78cf-72d2-ba2b-1e62c78022e0","2597CCC9287641888D6FB24F3442BE7F-2025-08-18-19-38-45","","null","","images/causal_sequence/package_causal/package_causal_ten.png","null","",""
"","","","","","image-button-response","53","223102","0.0-10.0-1.0-1.9","2597CCC9287641888D6FB24F3442BE7F","2597CCC9287641888D6FB24F3442BE7F","0198be94-1c70-7766-81a1-5d400c9abe8e","0198be8b-78cf-72d2-ba2b-1e62c78022e0","{""num_scrambled_semantic"":""8"",""num_scrambled_causal"":""4"",""num_scrambled_schematic"":""4"",""participantId"":""2597CCC9287641888D6FB24F3442BE7F"",""assignmentId"":""0198be94-1c70-7766-81a1-5d400c9abe8e"",""projectId"":""0198be8b-78cf-72d2-ba2b-1e62c78022e0""}","https://test12345.live/?num_scrambled_semantic=8&num_scrambled_causal=4&num_scrambled_schematic=4&participantId=2597CCC9287641888D6FB24F3442BE7F&assignmentId=0198be94-1c70-7766-81a1-5d400c9abe8e&projectId=0198be8b-78cf-72d2-ba2b-1e62c78022e0","2597CCC9287641888D6FB24F3442BE7F-2025-08-18-19-38-45","","1247","","images/causal_sequence/package_causal/package_causal_ten.png","0","",""
"","","","","","image-button-response","54","224913","0.0-10.0-1.0-2.9","2597CCC9287641888D6FB24F3442BE7F","2597CCC9287641888D6FB24F3442BE7F","0198be94-1c70-7766-81a1-5d400c9abe8e","0198be8b-78cf-72d2-ba2b-1e62c78022e0","{""num_scrambled_semantic"":""8"",""num_scrambled_causal"":""4"",""num_scrambled_schematic"":""4"",""participantId"":""2597CCC9287641888D6FB24F3442BE7F"",""assignmentId"":""0198be94-1c70-7766-81a1-5d400c9abe8e"",""projectId"":""0198be8b-78cf-72d2-ba2b-1e62c78022e0""}","https://test12345.live/?num_scrambled_semantic=8&num_scrambled_causal=4&num_scrambled_schematic=4&participantId=2597CCC9287641888D6FB24F3442BE7F&assignmentId=0198be94-1c70-7766-81a1-5d400c9abe8e&projectId=0198be8b-78cf-72d2-ba2b-1e62c78022e0","2597CCC9287641888D6FB24F3442BE7F-2025-08-18-19-38-45","","null","","[]","null","",""
"","","","","","html-audio-response","55","269232","0.0-11.0","2597CCC9287641888D6FB24F3442BE7F","2597CCC9287641888D6FB24F3442BE7F","0198be94-1c70-7766-81a1-5d400c9abe8e","0198be8b-78cf-72d2-ba2b-1e62c78022e0","{""num_scrambled_semantic"":""8"",""num_scrambled_causal"":""4"",""num_scrambled_schematic"":""4"",""participantId"":""2597CCC9287641888D6FB24F3442BE7F"",""assignmentId"":""0198be94-1c70-7766-81a1-5d400c9abe8e"",""projectId"":""0198be8b-78cf-72d2-ba2b-1e62c78022e0""}","https://test12345.live/?num_scrambled_semantic=8&num_scrambled_causal=4&num_scrambled_schematic=4&participantId=2597CCC9287641888D6FB24F3442BE7F&assignmentId=0198be94-1c70-7766-81a1-5d400c9abe8e&projectId=0198be8b-78cf-72d2-ba2b-1e62c78022e0","2597CCC9287641888D6FB24F3442BE7F-2025-08-18-19-38-45","","35277","","[""<span style=\""color: red; font-size: 24px\""> NOW RECORDING</span><p>Please say out loud all the images you saw, in the order of the story they create. Try to recall the sequence of events as they appeared in the story, not necessarily the order they were presented on the screen.</p>""]","","1","package_causal"
"","","","","","image-button-response","56","275249","0.0-12.0-0.0","2597CCC9287641888D6FB24F3442BE7F","2597CCC9287641888D6FB24F3442BE7F","0198be94-1c70-7766-81a1-5d400c9abe8e","0198be8b-78cf-72d2-ba2b-1e62c78022e0","{""num_scrambled_semantic"":""8"",""num_scrambled_causal"":""4"",""num_scrambled_schematic"":""4"",""participantId"":""2597CCC9287641888D6FB24F3442BE7F"",""assignmentId"":""0198be94-1c70-7766-81a1-5d400c9abe8e"",""projectId"":""0198be8b-78cf-72d2-ba2b-1e62c78022e0""}","https://test12345.live/?num_scrambled_semantic=8&num_scrambled_causal=4&num_scrambled_schematic=4&participantId=2597CCC9287641888D6FB24F3442BE7F&assignmentId=0198be94-1c70-7766-81a1-5d400c9abe8e&projectId=0198be8b-78cf-72d2-ba2b-1e62c78022e0","2597CCC9287641888D6FB24F3442BE7F-2025-08-18-19-38-45","","null","","images/semantic_sequence/redecorating_semantic/redecorating_semantic_0.png","null","",""
"","","","","","image-button-response","57","279763","0.0-12.0-1.0-0.0","2597CCC9287641888D6FB24F3442BE7F","2597CCC9287641888D6FB24F3442BE7F","0198be94-1c70-7766-81a1-5d400c9abe8e","0198be8b-78cf-72d2-ba2b-1e62c78022e0","{""num_scrambled_semantic"":""8"",""num_scrambled_causal"":""4"",""num_scrambled_schematic"":""4"",""participantId"":""2597CCC9287641888D6FB24F3442BE7F"",""assignmentId"":""0198be94-1c70-7766-81a1-5d400c9abe8e"",""projectId"":""0198be8b-78cf-72d2-ba2b-1e62c78022e0""}","https://test12345.live/?num_scrambled_semantic=8&num_scrambled_causal=4&num_scrambled_schematic=4&participantId=2597CCC9287641888D6FB24F3442BE7F&assignmentId=0198be94-1c70-7766-81a1-5d400c9abe8e&projectId=0198be8b-78cf-72d2-ba2b-1e62c78022e0","2597CCC9287641888D6FB24F3442BE7F-2025-08-18-19-38-45","","null","","images/semantic_sequence/redecorating_semantic/redecorating_semantic_8.png","null","",""
"","","","","","image-button-response","58","282529","0.0-12.0-1.0-1.0","2597CCC9287641888D6FB24F3442BE7F","2597CCC9287641888D6FB24F3442BE7F","0198be94-1c70-7766-81a1-5d400c9abe8e","0198be8b-78cf-72d2-ba2b-1e62c78022e0","{""num_scrambled_semantic"":""8"",""num_scrambled_causal"":""4"",""num_scrambled_schematic"":""4"",""participantId"":""2597CCC9287641888D6FB24F3442BE7F"",""assignmentId"":""0198be94-1c70-7766-81a1-5d400c9abe8e"",""projectId"":""0198be8b-78cf-72d2-ba2b-1e62c78022e0""}","https://test12345.live/?num_scrambled_semantic=8&num_scrambled_causal=4&num_scrambled_schematic=4&participantId=2597CCC9287641888D6FB24F3442BE7F&assignmentId=0198be94-1c70-7766-81a1-5d400c9abe8e&projectId=0198be8b-78cf-72d2-ba2b-1e62c78022e0","2597CCC9287641888D6FB24F3442BE7F-2025-08-18-19-38-45","","2766","","images/semantic_sequence/redecorating_semantic/redecorating_semantic_8.png","0","",""
"","","","","","image-button-response","59","284343","0.0-12.0-1.0-2.0","2597CCC9287641888D6FB24F3442BE7F","2597CCC9287641888D6FB24F3442BE7F","0198be94-1c70-7766-81a1-5d400c9abe8e","0198be8b-78cf-72d2-ba2b-1e62c78022e0","{""num_scrambled_semantic"":""8"",""num_scrambled_causal"":""4"",""num_scrambled_schematic"":""4"",""participantId"":""2597CCC9287641888D6FB24F3442BE7F"",""assignmentId"":""0198be94-1c70-7766-81a1-5d400c9abe8e"",""projectId"":""0198be8b-78cf-72d2-ba2b-1e62c78022e0""}","https://test12345.live/?num_scrambled_semantic=8&num_scrambled_causal=4&num_scrambled_schematic=4&participantId=2597CCC9287641888D6FB24F3442BE7F&assignmentId=0198be94-1c70-7766-81a1-5d400c9abe8e&projectId=0198be8b-78cf-72d2-ba2b-1e62c78022e0","2597CCC9287641888D6FB24F3442BE7F-2025-08-18-19-38-45","","null","","[]","null","",""
"","","","","","image-button-response","60","288849","0.0-12.0-1.0-0.1","2597CCC9287641888D6FB24F3442BE7F","2597CCC9287641888D6FB24F3442BE7F","0198be94-1c70-7766-81a1-5d400c9abe8e","0198be8b-78cf-72d2-ba2b-1e62c78022e0","{""num_scrambled_semantic"":""8"",""num_scrambled_causal"":""4"",""num_scrambled_schematic"":""4"",""participantId"":""2597CCC9287641888D6FB24F3442BE7F"",""assignmentId"":""0198be94-1c70-7766-81a1-5d400c9abe8e"",""projectId"":""0198be8b-78cf-72d2-ba2b-1e62c78022e0""}","https://test12345.live/?num_scrambled_semantic=8&num_scrambled_causal=4&num_scrambled_schematic=4&participantId=2597CCC9287641888D6FB24F3442BE7F&assignmentId=0198be94-1c70-7766-81a1-5d400c9abe8e&projectId=0198be8b-78cf-72d2-ba2b-1e62c78022e0","2597CCC9287641888D6FB24F3442BE7F-2025-08-18-19-38-45","","null","","images/semantic_sequence/redecorating_semantic/redecorating_semantic_7.png","null","",""
"","","","","","image-button-response","61","290106","0.0-12.0-1.0-1.1","2597CCC9287641888D6FB24F3442BE7F","2597CCC9287641888D6FB24F3442BE7F","0198be94-1c70-7766-81a1-5d400c9abe8e","0198be8b-78cf-72d2-ba2b-1e62c78022e0","{""num_scrambled_semantic"":""8"",""num_scrambled_causal"":""4"",""num_scrambled_schematic"":""4"",""participantId"":""2597CCC9287641888D6FB24F3442BE7F"",""assignmentId"":""0198be94-1c70-7766-81a1-5d400c9abe8e"",""projectId"":""0198be8b-78cf-72d2-ba2b-1e62c78022e0""}","https://test12345.live/?num_scrambled_semantic=8&num_scrambled_causal=4&num_scrambled_schematic=4&participantId=2597CCC9287641888D6FB24F3442BE7F&assignmentId=0198be94-1c70-7766-81a1-5d400c9abe8e&projectId=0198be8b-78cf-72d2-ba2b-1e62c78022e0","2597CCC9287641888D6FB24F3442BE7F-2025-08-18-19-38-45","","1256","","images/semantic_sequence/redecorating_semantic/redecorating_semantic_7.png","0","",""
"","","","","","image-button-response","62","291916","0.0-12.0-1.0-2.1","2597CCC9287641888D6FB24F3442BE7F","2597CCC9287641888D6FB24F3442BE7F","0198be94-1c70-7766-81a1-5d400c9abe8e","0198be8b-78cf-72d2-ba2b-1e62c78022e0","{""num_scrambled_semantic"":""8"",""num_scrambled_causal"":""4"",""num_scrambled_schematic"":""4"",""participantId"":""2597CCC9287641888D6FB24F3442BE7F"",""assignmentId"":""0198be94-1c70-7766-81a1-5d400c9abe8e"",""projectId"":""0198be8b-78cf-72d2-ba2b-1e62c78022e0""}","https://test12345.live/?num_scrambled_semantic=8&num_scrambled_causal=4&num_scrambled_schematic=4&participantId=2597CCC9287641888D6FB24F3442BE7F&assignmentId=0198be94-1c70-7766-81a1-5d400c9abe8e&projectId=0198be8b-78cf-72d2-ba2b-1e62c78022e0","2597CCC9287641888D6FB24F3442BE7F-2025-08-18-19-38-45","","null","","[]","null","",""
"","","","","","image-button-response","63","296423","0.0-12.0-1.0-0.2","2597CCC9287641888D6FB24F3442BE7F","2597CCC9287641888D6FB24F3442BE7F","0198be94-1c70-7766-81a1-5d400c9abe8e","0198be8b-78cf-72d2-ba2b-1e62c78022e0","{""num_scrambled_semantic"":""8"",""num_scrambled_causal"":""4"",""num_scrambled_schematic"":""4"",""participantId"":""2597CCC9287641888D6FB24F3442BE7F"",""assignmentId"":""0198be94-1c70-7766-81a1-5d400c9abe8e"",""projectId"":""0198be8b-78cf-72d2-ba2b-1e62c78022e0""}","https://test12345.live/?num_scrambled_semantic=8&num_scrambled_causal=4&num_scrambled_schematic=4&participantId=2597CCC9287641888D6FB24F3442BE7F&assignmentId=0198be94-1c70-7766-81a1-5d400c9abe8e&projectId=0198be8b-78cf-72d2-ba2b-1e62c78022e0","2597CCC9287641888D6FB24F3442BE7F-2025-08-18-19-38-45","","null","","images/semantic_sequence/redecorating_semantic/redecorating_semantic_2.png","null","",""
"","","","","","image-button-response","64","297651","0.0-12.0-1.0-1.2","2597CCC9287641888D6FB24F3442BE7F","2597CCC9287641888D6FB24F3442BE7F","0198be94-1c70-7766-81a1-5d400c9abe8e","0198be8b-78cf-72d2-ba2b-1e62c78022e0","{""num_scrambled_semantic"":""8"",""num_scrambled_causal"":""4"",""num_scrambled_schematic"":""4"",""participantId"":""2597CCC9287641888D6FB24F3442BE7F"",""assignmentId"":""0198be94-1c70-7766-81a1-5d400c9abe8e"",""projectId"":""0198be8b-78cf-72d2-ba2b-1e62c78022e0""}","https://test12345.live/?num_scrambled_semantic=8&num_scrambled_causal=4&num_scrambled_schematic=4&participantId=2597CCC9287641888D6FB24F3442BE7F&assignmentId=0198be94-1c70-7766-81a1-5d400c9abe8e&projectId=0198be8b-78cf-72d2-ba2b-1e62c78022e0","2597CCC9287641888D6FB24F3442BE7F-2025-08-18-19-38-45","","1228","","images/semantic_sequence/redecorating_semantic/redecorating_semantic_2.png","0","",""
"","","","","","image-button-response","65","299461","0.0-12.0-1.0-2.2","2597CCC9287641888D6FB24F3442BE7F","2597CCC9287641888D6FB24F3442BE7F","0198be94-1c70-7766-81a1-5d400c9abe8e","0198be8b-78cf-72d2-ba2b-1e62c78022e0","{""num_scrambled_semantic"":""8"",""num_scrambled_causal"":""4"",""num_scrambled_schematic"":""4"",""participantId"":""2597CCC9287641888D6FB24F3442BE7F"",""assignmentId"":""0198be94-1c70-7766-81a1-5d400c9abe8e"",""projectId"":""0198be8b-78cf-72d2-ba2b-1e62c78022e0""}","https://test12345.live/?num_scrambled_semantic=8&num_scrambled_causal=4&num_scrambled_schematic=4&participantId=2597CCC9287641888D6FB24F3442BE7F&assignmentId=0198be94-1c70-7766-81a1-5d400c9abe8e&projectId=0198be8b-78cf-72d2-ba2b-1e62c78022e0","2597CCC9287641888D6FB24F3442BE7F-2025-08-18-19-38-45","","null","","[]","null","",""
"","","","","","image-button-response","66","303973","0.0-12.0-1.0-0.3","2597CCC9287641888D6FB24F3442BE7F","2597CCC9287641888D6FB24F3442BE7F","0198be94-1c70-7766-81a1-5d400c9abe8e","0198be8b-78cf-72d2-ba2b-1e62c78022e0","{""num_scrambled_semantic"":""8"",""num_scrambled_causal"":""4"",""num_scrambled_schematic"":""4"",""participantId"":""2597CCC9287641888D6FB24F3442BE7F"",""assignmentId"":""0198be94-1c70-7766-81a1-5d400c9abe8e"",""projectId"":""0198be8b-78cf-72d2-ba2b-1e62c78022e0""}","https://test12345.live/?num_scrambled_semantic=8&num_scrambled_causal=4&num_scrambled_schematic=4&participantId=2597CCC9287641888D6FB24F3442BE7F&assignmentId=0198be94-1c70-7766-81a1-5d400c9abe8e&projectId=0198be8b-78cf-72d2-ba2b-1e62c78022e0","2597CCC9287641888D6FB24F3442BE7F-2025-08-18-19-38-45","","null","","images/semantic_sequence/redecorating_semantic/redecorating_semantic_4.png","null","",""
"","","","","","image-button-response","67","305026","0.0-12.0-1.0-1.3","2597CCC9287641888D6FB24F3442BE7F","2597CCC9287641888D6FB24F3442BE7F","0198be94-1c70-7766-81a1-5d400c9abe8e","0198be8b-78cf-72d2-ba2b-1e62c78022e0","{""num_scrambled_semantic"":""8"",""num_scrambled_causal"":""4"",""num_scrambled_schematic"":""4"",""participantId"":""2597CCC9287641888D6FB24F3442BE7F"",""assignmentId"":""0198be94-1c70-7766-81a1-5d400c9abe8e"",""projectId"":""0198be8b-78cf-72d2-ba2b-1e62c78022e0""}","https://test12345.live/?num_scrambled_semantic=8&num_scrambled_causal=4&num_scrambled_schematic=4&participantId=2597CCC9287641888D6FB24F3442BE7F&assignmentId=0198be94-1c70-7766-81a1-5d400c9abe8e&projectId=0198be8b-78cf-72d2-ba2b-1e62c78022e0","2597CCC9287641888D6FB24F3442BE7F-2025-08-18-19-38-45","","1052","","images/semantic_sequence/redecorating_semantic/redecorating_semantic_4.png","0","",""
"","","","","","image-button-response","68","306839","0.0-12.0-1.0-2.3","2597CCC9287641888D6FB24F3442BE7F","2597CCC9287641888D6FB24F3442BE7F","0198be94-1c70-7766-81a1-5d400c9abe8e","0198be8b-78cf-72d2-ba2b-1e62c78022e0","{""num_scrambled_semantic"":""8"",""num_scrambled_causal"":""4"",""num_scrambled_schematic"":""4"",""participantId"":""2597CCC9287641888D6FB24F3442BE7F"",""assignmentId"":""0198be94-1c70-7766-81a1-5d400c9abe8e"",""projectId"":""0198be8b-78cf-72d2-ba2b-1e62c78022e0""}","https://test12345.live/?num_scrambled_semantic=8&num_scrambled_causal=4&num_scrambled_schematic=4&participantId=2597CCC9287641888D6FB24F3442BE7F&assignmentId=0198be94-1c70-7766-81a1-5d400c9abe8e&projectId=0198be8b-78cf-72d2-ba2b-1e62c78022e0","2597CCC9287641888D6FB24F3442BE7F-2025-08-18-19-38-45","","null","","[]","null","",""
"","","","","","image-button-response","69","311353","0.0-12.0-1.0-0.4","2597CCC9287641888D6FB24F3442BE7F","2597CCC9287641888D6FB24F3442BE7F","0198be94-1c70-7766-81a1-5d400c9abe8e","0198be8b-78cf-72d2-ba2b-1e62c78022e0","{""num_scrambled_semantic"":""8"",""num_scrambled_causal"":""4"",""num_scrambled_schematic"":""4"",""participantId"":""2597CCC9287641888D6FB24F3442BE7F"",""assignmentId"":""0198be94-1c70-7766-81a1-5d400c9abe8e"",""projectId"":""0198be8b-78cf-72d2-ba2b-1e62c78022e0""}","https://test12345.live/?num_scrambled_semantic=8&num_scrambled_causal=4&num_scrambled_schematic=4&participantId=2597CCC9287641888D6FB24F3442BE7F&assignmentId=0198be94-1c70-7766-81a1-5d400c9abe8e&projectId=0198be8b-78cf-72d2-ba2b-1e62c78022e0","2597CCC9287641888D6FB24F3442BE7F-2025-08-18-19-38-45","","null","","images/semantic_sequence/redecorating_semantic/redecorating_semantic_5.png","null","",""
"","","","","","image-button-response","70","312417","0.0-12.0-1.0-1.4","2597CCC9287641888D6FB24F3442BE7F","2597CCC9287641888D6FB24F3442BE7F","0198be94-1c70-7766-81a1-5d400c9abe8e","0198be8b-78cf-72d2-ba2b-1e62c78022e0","{""num_scrambled_semantic"":""8"",""num_scrambled_causal"":""4"",""num_scrambled_schematic"":""4"",""participantId"":""2597CCC9287641888D6FB24F3442BE7F"",""assignmentId"":""0198be94-1c70-7766-81a1-5d400c9abe8e"",""projectId"":""0198be8b-78cf-72d2-ba2b-1e62c78022e0""}","https://test12345.live/?num_scrambled_semantic=8&num_scrambled_causal=4&num_scrambled_schematic=4&participantId=2597CCC9287641888D6FB24F3442BE7F&assignmentId=0198be94-1c70-7766-81a1-5d400c9abe8e&projectId=0198be8b-78cf-72d2-ba2b-1e62c78022e0","2597CCC9287641888D6FB24F3442BE7F-2025-08-18-19-38-45","","1064","","images/semantic_sequence/redecorating_semantic/redecorating_semantic_5.png","0","",""
"","","","","","image-button-response","71","314232","0.0-12.0-1.0-2.4","2597CCC9287641888D6FB24F3442BE7F","2597CCC9287641888D6FB24F3442BE7F","0198be94-1c70-7766-81a1-5d400c9abe8e","0198be8b-78cf-72d2-ba2b-1e62c78022e0","{""num_scrambled_semantic"":""8"",""num_scrambled_causal"":""4"",""num_scrambled_schematic"":""4"",""participantId"":""2597CCC9287641888D6FB24F3442BE7F"",""assignmentId"":""0198be94-1c70-7766-81a1-5d400c9abe8e"",""projectId"":""0198be8b-78cf-72d2-ba2b-1e62c78022e0""}","https://test12345.live/?num_scrambled_semantic=8&num_scrambled_causal=4&num_scrambled_schematic=4&participantId=2597CCC9287641888D6FB24F3442BE7F&assignmentId=0198be94-1c70-7766-81a1-5d400c9abe8e&projectId=0198be8b-78cf-72d2-ba2b-1e62c78022e0","2597CCC9287641888D6FB24F3442BE7F-2025-08-18-19-38-45","","null","","[]","null","",""
"","","","","","image-button-response","72","318739","0.0-12.0-1.0-0.5","2597CCC9287641888D6FB24F3442BE7F","2597CCC9287641888D6FB24F3442BE7F","0198be94-1c70-7766-81a1-5d400c9abe8e","0198be8b-78cf-72d2-ba2b-1e62c78022e0","{""num_scrambled_semantic"":""8"",""num_scrambled_causal"":""4"",""num_scrambled_schematic"":""4"",""participantId"":""2597CCC9287641888D6FB24F3442BE7F"",""assignmentId"":""0198be94-1c70-7766-81a1-5d400c9abe8e"",""projectId"":""0198be8b-78cf-72d2-ba2b-1e62c78022e0""}","https://test12345.live/?num_scrambled_semantic=8&num_scrambled_causal=4&num_scrambled_schematic=4&participantId=2597CCC9287641888D6FB24F3442BE7F&assignmentId=0198be94-1c70-7766-81a1-5d400c9abe8e&projectId=0198be8b-78cf-72d2-ba2b-1e62c78022e0","2597CCC9287641888D6FB24F3442BE7F-2025-08-18-19-38-45","","null","","images/semantic_sequence/redecorating_semantic/redecorating_semantic_9.png","null","",""
"","","","","","image-button-response","73","320358","0.0-12.0-1.0-1.5","2597CCC9287641888D6FB24F3442BE7F","2597CCC9287641888D6FB24F3442BE7F","0198be94-1c70-7766-81a1-5d400c9abe8e","0198be8b-78cf-72d2-ba2b-1e62c78022e0","{""num_scrambled_semantic"":""8"",""num_scrambled_causal"":""4"",""num_scrambled_schematic"":""4"",""participantId"":""2597CCC9287641888D6FB24F3442BE7F"",""assignmentId"":""0198be94-1c70-7766-81a1-5d400c9abe8e"",""projectId"":""0198be8b-78cf-72d2-ba2b-1e62c78022e0""}","https://test12345.live/?num_scrambled_semantic=8&num_scrambled_causal=4&num_scrambled_schematic=4&participantId=2597CCC9287641888D6FB24F3442BE7F&assignmentId=0198be94-1c70-7766-81a1-5d400c9abe8e&projectId=0198be8b-78cf-72d2-ba2b-1e62c78022e0","2597CCC9287641888D6FB24F3442BE7F-2025-08-18-19-38-45","","1618","","images/semantic_sequence/redecorating_semantic/redecorating_semantic_9.png","0","",""
"","","","","","image-button-response","74","322167","0.0-12.0-1.0-2.5","2597CCC9287641888D6FB24F3442BE7F","2597CCC9287641888D6FB24F3442BE7F","0198be94-1c70-7766-81a1-5d400c9abe8e","0198be8b-78cf-72d2-ba2b-1e62c78022e0","{""num_scrambled_semantic"":""8"",""num_scrambled_causal"":""4"",""num_scrambled_schematic"":""4"",""participantId"":""2597CCC9287641888D6FB24F3442BE7F"",""assignmentId"":""0198be94-1c70-7766-81a1-5d400c9abe8e"",""projectId"":""0198be8b-78cf-72d2-ba2b-1e62c78022e0""}","https://test12345.live/?num_scrambled_semantic=8&num_scrambled_causal=4&num_scrambled_schematic=4&participantId=2597CCC9287641888D6FB24F3442BE7F&assignmentId=0198be94-1c70-7766-81a1-5d400c9abe8e&projectId=0198be8b-78cf-72d2-ba2b-1e62c78022e0","2597CCC9287641888D6FB24F3442BE7F-2025-08-18-19-38-45","","null","","[]","null","",""
"","","","","","image-button-response","75","326681","0.0-12.0-1.0-0.6","2597CCC9287641888D6FB24F3442BE7F","2597CCC9287641888D6FB24F3442BE7F","0198be94-1c70-7766-81a1-5d400c9abe8e","0198be8b-78cf-72d2-ba2b-1e62c78022e0","{""num_scrambled_semantic"":""8"",""num_scrambled_causal"":""4"",""num_scrambled_schematic"":""4"",""participantId"":""2597CCC9287641888D6FB24F3442BE7F"",""assignmentId"":""0198be94-1c70-7766-81a1-5d400c9abe8e"",""projectId"":""0198be8b-78cf-72d2-ba2b-1e62c78022e0""}","https://test12345.live/?num_scrambled_semantic=8&num_scrambled_causal=4&num_scrambled_schematic=4&participantId=2597CCC9287641888D6FB24F3442BE7F&assignmentId=0198be94-1c70-7766-81a1-5d400c9abe8e&projectId=0198be8b-78cf-72d2-ba2b-1e62c78022e0","2597CCC9287641888D6FB24F3442BE7F-2025-08-18-19-38-45","","null","","images/semantic_sequence/redecorating_semantic/redecorating_semantic_ten.png","null","",""
"","","","","","image-button-response","76","327704","0.0-12.0-1.0-1.6","2597CCC9287641888D6FB24F3442BE7F","2597CCC9287641888D6FB24F3442BE7F","0198be94-1c70-7766-81a1-5d400c9abe8e","0198be8b-78cf-72d2-ba2b-1e62c78022e0","{""num_scrambled_semantic"":""8"",""num_scrambled_causal"":""4"",""num_scrambled_schematic"":""4"",""participantId"":""2597CCC9287641888D6FB24F3442BE7F"",""assignmentId"":""0198be94-1c70-7766-81a1-5d400c9abe8e"",""projectId"":""0198be8b-78cf-72d2-ba2b-1e62c78022e0""}","https://test12345.live/?num_scrambled_semantic=8&num_scrambled_causal=4&num_scrambled_schematic=4&participantId=2597CCC9287641888D6FB24F3442BE7F&assignmentId=0198be94-1c70-7766-81a1-5d400c9abe8e&projectId=0198be8b-78cf-72d2-ba2b-1e62c78022e0","2597CCC9287641888D6FB24F3442BE7F-2025-08-18-19-38-45","","1023","","images/semantic_sequence/redecorating_semantic/redecorating_semantic_ten.png","0","",""
"","","","","","image-button-response","77","329517","0.0-12.0-1.0-2.6","2597CCC9287641888D6FB24F3442BE7F","2597CCC9287641888D6FB24F3442BE7F","0198be94-1c70-7766-81a1-5d400c9abe8e","0198be8b-78cf-72d2-ba2b-1e62c78022e0","{""num_scrambled_semantic"":""8"",""num_scrambled_causal"":""4"",""num_scrambled_schematic"":""4"",""participantId"":""2597CCC9287641888D6FB24F3442BE7F"",""assignmentId"":""0198be94-1c70-7766-81a1-5d400c9abe8e"",""projectId"":""0198be8b-78cf-72d2-ba2b-1e62c78022e0""}","https://test12345.live/?num_scrambled_semantic=8&num_scrambled_causal=4&num_scrambled_schematic=4&participantId=2597CCC9287641888D6FB24F3442BE7F&assignmentId=0198be94-1c70-7766-81a1-5d400c9abe8e&projectId=0198be8b-78cf-72d2-ba2b-1e62c78022e0","2597CCC9287641888D6FB24F3442BE7F-2025-08-18-19-38-45","","null","","[]","null","",""
"","","","","","image-button-response","78","334020","0.0-12.0-1.0-0.7","2597CCC9287641888D6FB24F3442BE7F","2597CCC9287641888D6FB24F3442BE7F","0198be94-1c70-7766-81a1-5d400c9abe8e","0198be8b-78cf-72d2-ba2b-1e62c78022e0","{""num_scrambled_semantic"":""8"",""num_scrambled_causal"":""4"",""num_scrambled_schematic"":""4"",""participantId"":""2597CCC9287641888D6FB24F3442BE7F"",""assignmentId"":""0198be94-1c70-7766-81a1-5d400c9abe8e"",""projectId"":""0198be8b-78cf-72d2-ba2b-1e62c78022e0""}","https://test12345.live/?num_scrambled_semantic=8&num_scrambled_causal=4&num_scrambled_schematic=4&participantId=2597CCC9287641888D6FB24F3442BE7F&assignmentId=0198be94-1c70-7766-81a1-5d400c9abe8e&projectId=0198be8b-78cf-72d2-ba2b-1e62c78022e0","2597CCC9287641888D6FB24F3442BE7F-2025-08-18-19-38-45","","null","","images/semantic_sequence/redecorating_semantic/redecorating_semantic_6.png","null","",""
"","","","","","image-button-response","79","335080","0.0-12.0-1.0-1.7","2597CCC9287641888D6FB24F3442BE7F","2597CCC9287641888D6FB24F3442BE7F","0198be94-1c70-7766-81a1-5d400c9abe8e","0198be8b-78cf-72d2-ba2b-1e62c78022e0","{""num_scrambled_semantic"":""8"",""num_scrambled_causal"":""4"",""num_scrambled_schematic"":""4"",""participantId"":""2597CCC9287641888D6FB24F3442BE7F"",""assignmentId"":""0198be94-1c70-7766-81a1-5d400c9abe8e"",""projectId"":""0198be8b-78cf-72d2-ba2b-1e62c78022e0""}","https://test12345.live/?num_scrambled_semantic=8&num_scrambled_causal=4&num_scrambled_schematic=4&participantId=2597CCC9287641888D6FB24F3442BE7F&assignmentId=0198be94-1c70-7766-81a1-5d400c9abe8e&projectId=0198be8b-78cf-72d2-ba2b-1e62c78022e0","2597CCC9287641888D6FB24F3442BE7F-2025-08-18-19-38-45","","1059","","images/semantic_sequence/redecorating_semantic/redecorating_semantic_6.png","0","",""
"","","","","","image-button-response","80","336882","0.0-12.0-1.0-2.7","2597CCC9287641888D6FB24F3442BE7F","2597CCC9287641888D6FB24F3442BE7F","0198be94-1c70-7766-81a1-5d400c9abe8e","0198be8b-78cf-72d2-ba2b-1e62c78022e0","{""num_scrambled_semantic"":""8"",""num_scrambled_causal"":""4"",""num_scrambled_schematic"":""4"",""participantId"":""2597CCC9287641888D6FB24F3442BE7F"",""assignmentId"":""0198be94-1c70-7766-81a1-5d400c9abe8e"",""projectId"":""0198be8b-78cf-72d2-ba2b-1e62c78022e0""}","https://test12345.live/?num_scrambled_semantic=8&num_scrambled_causal=4&num_scrambled_schematic=4&participantId=2597CCC9287641888D6FB24F3442BE7F&assignmentId=0198be94-1c70-7766-81a1-5d400c9abe8e&projectId=0198be8b-78cf-72d2-ba2b-1e62c78022e0","2597CCC9287641888D6FB24F3442BE7F-2025-08-18-19-38-45","","null","","[]","null","",""
"","","","","","image-button-response","81","341391","0.0-12.0-1.0-0.8","2597CCC9287641888D6FB24F3442BE7F","2597CCC9287641888D6FB24F3442BE7F","0198be94-1c70-7766-81a1-5d400c9abe8e","0198be8b-78cf-72d2-ba2b-1e62c78022e0","{""num_scrambled_semantic"":""8"",""num_scrambled_causal"":""4"",""num_scrambled_schematic"":""4"",""participantId"":""2597CCC9287641888D6FB24F3442BE7F"",""assignmentId"":""0198be94-1c70-7766-81a1-5d400c9abe8e"",""projectId"":""0198be8b-78cf-72d2-ba2b-1e62c78022e0""}","https://test12345.live/?num_scrambled_semantic=8&num_scrambled_causal=4&num_scrambled_schematic=4&participantId=2597CCC9287641888D6FB24F3442BE7F&assignmentId=0198be94-1c70-7766-81a1-5d400c9abe8e&projectId=0198be8b-78cf-72d2-ba2b-1e62c78022e0","2597CCC9287641888D6FB24F3442BE7F-2025-08-18-19-38-45","","null","","images/semantic_sequence/redecorating_semantic/redecorating_semantic_3.png","null","",""
"","","","","","image-button-response","82","342459","0.0-12.0-1.0-1.8","2597CCC9287641888D6FB24F3442BE7F","2597CCC9287641888D6FB24F3442BE7F","0198be94-1c70-7766-81a1-5d400c9abe8e","0198be8b-78cf-72d2-ba2b-1e62c78022e0","{""num_scrambled_semantic"":""8"",""num_scrambled_causal"":""4"",""num_scrambled_schematic"":""4"",""participantId"":""2597CCC9287641888D6FB24F3442BE7F"",""assignmentId"":""0198be94-1c70-7766-81a1-5d400c9abe8e"",""projectId"":""0198be8b-78cf-72d2-ba2b-1e62c78022e0""}","https://test12345.live/?num_scrambled_semantic=8&num_scrambled_causal=4&num_scrambled_schematic=4&participantId=2597CCC9287641888D6FB24F3442BE7F&assignmentId=0198be94-1c70-7766-81a1-5d400c9abe8e&projectId=0198be8b-78cf-72d2-ba2b-1e62c78022e0","2597CCC9287641888D6FB24F3442BE7F-2025-08-18-19-38-45","","1068","","images/semantic_sequence/redecorating_semantic/redecorating_semantic_3.png","0","",""
"","","","","","image-button-response","83","344276","0.0-12.0-1.0-2.8","2597CCC9287641888D6FB24F3442BE7F","2597CCC9287641888D6FB24F3442BE7F","0198be94-1c70-7766-81a1-5d400c9abe8e","0198be8b-78cf-72d2-ba2b-1e62c78022e0","{""num_scrambled_semantic"":""8"",""num_scrambled_causal"":""4"",""num_scrambled_schematic"":""4"",""participantId"":""2597CCC9287641888D6FB24F3442BE7F"",""assignmentId"":""0198be94-1c70-7766-81a1-5d400c9abe8e"",""projectId"":""0198be8b-78cf-72d2-ba2b-1e62c78022e0""}","https://test12345.live/?num_scrambled_semantic=8&num_scrambled_causal=4&num_scrambled_schematic=4&participantId=2597CCC9287641888D6FB24F3442BE7F&assignmentId=0198be94-1c70-7766-81a1-5d400c9abe8e&projectId=0198be8b-78cf-72d2-ba2b-1e62c78022e0","2597CCC9287641888D6FB24F3442BE7F-2025-08-18-19-38-45","","null","","[]","null","",""
"","","","","","image-button-response","84","348779","0.0-12.0-1.0-0.9","2597CCC9287641888D6FB24F3442BE7F","2597CCC9287641888D6FB24F3442BE7F","0198be94-1c70-7766-81a1-5d400c9abe8e","0198be8b-78cf-72d2-ba2b-1e62c78022e0","{""num_scrambled_semantic"":""8"",""num_scrambled_causal"":""4"",""num_scrambled_schematic"":""4"",""participantId"":""2597CCC9287641888D6FB24F3442BE7F"",""assignmentId"":""0198be94-1c70-7766-81a1-5d400c9abe8e"",""projectId"":""0198be8b-78cf-72d2-ba2b-1e62c78022e0""}","https://test12345.live/?num_scrambled_semantic=8&num_scrambled_causal=4&num_scrambled_schematic=4&participantId=2597CCC9287641888D6FB24F3442BE7F&assignmentId=0198be94-1c70-7766-81a1-5d400c9abe8e&projectId=0198be8b-78cf-72d2-ba2b-1e62c78022e0","2597CCC9287641888D6FB24F3442BE7F-2025-08-18-19-38-45","","null","","images/semantic_sequence/redecorating_semantic/redecorating_semantic_1.png","null","",""
"","","","","","image-button-response","85","349715","0.0-12.0-1.0-1.9","2597CCC9287641888D6FB24F3442BE7F","2597CCC9287641888D6FB24F3442BE7F","0198be94-1c70-7766-81a1-5d400c9abe8e","0198be8b-78cf-72d2-ba2b-1e62c78022e0","{""num_scrambled_semantic"":""8"",""num_scrambled_causal"":""4"",""num_scrambled_schematic"":""4"",""participantId"":""2597CCC9287641888D6FB24F3442BE7F"",""assignmentId"":""0198be94-1c70-7766-81a1-5d400c9abe8e"",""projectId"":""0198be8b-78cf-72d2-ba2b-1e62c78022e0""}","https://test12345.live/?num_scrambled_semantic=8&num_scrambled_causal=4&num_scrambled_schematic=4&participantId=2597CCC9287641888D6FB24F3442BE7F&assignmentId=0198be94-1c70-7766-81a1-5d400c9abe8e&projectId=0198be8b-78cf-72d2-ba2b-1e62c78022e0","2597CCC9287641888D6FB24F3442BE7F-2025-08-18-19-38-45","","935","","images/semantic_sequence/redecorating_semantic/redecorating_semantic_1.png","0","",""
"","","","","","image-button-response","86","351531","0.0-12.0-1.0-2.9","2597CCC9287641888D6FB24F3442BE7F","2597CCC9287641888D6FB24F3442BE7F","0198be94-1c70-7766-81a1-5d400c9abe8e","0198be8b-78cf-72d2-ba2b-1e62c78022e0","{""num_scrambled_semantic"":""8"",""num_scrambled_causal"":""4"",""num_scrambled_schematic"":""4"",""participantId"":""2597CCC9287641888D6FB24F3442BE7F"",""assignmentId"":""0198be94-1c70-7766-81a1-5d400c9abe8e"",""projectId"":""0198be8b-78cf-72d2-ba2b-1e62c78022e0""}","https://test12345.live/?num_scrambled_semantic=8&num_scrambled_causal=4&num_scrambled_schematic=4&participantId=2597CCC9287641888D6FB24F3442BE7F&assignmentId=0198be94-1c70-7766-81a1-5d400c9abe8e&projectId=0198be8b-78cf-72d2-ba2b-1e62c78022e0","2597CCC9287641888D6FB24F3442BE7F-2025-08-18-19-38-45","","null","","[]","null","",""
"","","","","","html-audio-response","87","388730","0.0-13.0","2597CCC9287641888D6FB24F3442BE7F","2597CCC9287641888D6FB24F3442BE7F","0198be94-1c70-7766-81a1-5d400c9abe8e","0198be8b-78cf-72d2-ba2b-1e62c78022e0","{""num_scrambled_semantic"":""8"",""num_scrambled_causal"":""4"",""num_scrambled_schematic"":""4"",""participantId"":""2597CCC9287641888D6FB24F3442BE7F"",""assignmentId"":""0198be94-1c70-7766-81a1-5d400c9abe8e"",""projectId"":""0198be8b-78cf-72d2-ba2b-1e62c78022e0""}","https://test12345.live/?num_scrambled_semantic=8&num_scrambled_causal=4&num_scrambled_schematic=4&participantId=2597CCC9287641888D6FB24F3442BE7F&assignmentId=0198be94-1c70-7766-81a1-5d400c9abe8e&projectId=0198be8b-78cf-72d2-ba2b-1e62c78022e0","2597CCC9287641888D6FB24F3442BE7F-2025-08-18-19-38-45","","32903","","[""<span style=\""color: red; font-size: 24px\""> NOW RECORDING</span><p>Please say out loud all the images you saw, in the order of the story they create. Try to recall the sequence of events as they appeared in the story, not necessarily the order they were presented on the screen.</p>""]","","1","redecorating_semantic"
"","","","","","image-button-response","88","394734","0.0-14.0-0.0","2597CCC9287641888D6FB24F3442BE7F","2597CCC9287641888D6FB24F3442BE7F","0198be94-1c70-7766-81a1-5d400c9abe8e","0198be8b-78cf-72d2-ba2b-1e62c78022e0","{""num_scrambled_semantic"":""8"",""num_scrambled_causal"":""4"",""num_scrambled_schematic"":""4"",""participantId"":""2597CCC9287641888D6FB24F3442BE7F"",""assignmentId"":""0198be94-1c70-7766-81a1-5d400c9abe8e"",""projectId"":""0198be8b-78cf-72d2-ba2b-1e62c78022e0""}","https://test12345.live/?num_scrambled_semantic=8&num_scrambled_causal=4&num_scrambled_schematic=4&participantId=2597CCC9287641888D6FB24F3442BE7F&assignmentId=0198be94-1c70-7766-81a1-5d400c9abe8e&projectId=0198be8b-78cf-72d2-ba2b-1e62c78022e0","2597CCC9287641888D6FB24F3442BE7F-2025-08-18-19-38-45","","null","","images/causal_sequence/saving_a_cat_causal/saving_a_cat_causal_0.png","null","",""
"","","","","","image-button-response","89","399247","0.0-14.0-1.0-0.0","2597CCC9287641888D6FB24F3442BE7F","2597CCC9287641888D6FB24F3442BE7F","0198be94-1c70-7766-81a1-5d400c9abe8e","0198be8b-78cf-72d2-ba2b-1e62c78022e0","{""num_scrambled_semantic"":""8"",""num_scrambled_causal"":""4"",""num_scrambled_schematic"":""4"",""participantId"":""2597CCC9287641888D6FB24F3442BE7F"",""assignmentId"":""0198be94-1c70-7766-81a1-5d400c9abe8e"",""projectId"":""0198be8b-78cf-72d2-ba2b-1e62c78022e0""}","https://test12345.live/?num_scrambled_semantic=8&num_scrambled_causal=4&num_scrambled_schematic=4&participantId=2597CCC9287641888D6FB24F3442BE7F&assignmentId=0198be94-1c70-7766-81a1-5d400c9abe8e&projectId=0198be8b-78cf-72d2-ba2b-1e62c78022e0","2597CCC9287641888D6FB24F3442BE7F-2025-08-18-19-38-45","","null","","images/causal_sequence/saving_a_cat_causal/saving_a_cat_causal_8.png","null","",""
"","","","","","image-button-response","90","401416","0.0-14.0-1.0-1.0","2597CCC9287641888D6FB24F3442BE7F","2597CCC9287641888D6FB24F3442BE7F","0198be94-1c70-7766-81a1-5d400c9abe8e","0198be8b-78cf-72d2-ba2b-1e62c78022e0","{""num_scrambled_semantic"":""8"",""num_scrambled_causal"":""4"",""num_scrambled_schematic"":""4"",""participantId"":""2597CCC9287641888D6FB24F3442BE7F"",""assignmentId"":""0198be94-1c70-7766-81a1-5d400c9abe8e"",""projectId"":""0198be8b-78cf-72d2-ba2b-1e62c78022e0""}","https://test12345.live/?num_scrambled_semantic=8&num_scrambled_causal=4&num_scrambled_schematic=4&participantId=2597CCC9287641888D6FB24F3442BE7F&assignmentId=0198be94-1c70-7766-81a1-5d400c9abe8e&projectId=0198be8b-78cf-72d2-ba2b-1e62c78022e0","2597CCC9287641888D6FB24F3442BE7F-2025-08-18-19-38-45","","2168","","images/causal_sequence/saving_a_cat_causal/saving_a_cat_causal_8.png","0","",""
"","","","","","image-button-response","91","403227","0.0-14.0-1.0-2.0","2597CCC9287641888D6FB24F3442BE7F","2597CCC9287641888D6FB24F3442BE7F","0198be94-1c70-7766-81a1-5d400c9abe8e","0198be8b-78cf-72d2-ba2b-1e62c78022e0","{""num_scrambled_semantic"":""8"",""num_scrambled_causal"":""4"",""num_scrambled_schematic"":""4"",""participantId"":""2597CCC9287641888D6FB24F3442BE7F"",""assignmentId"":""0198be94-1c70-7766-81a1-5d400c9abe8e"",""projectId"":""0198be8b-78cf-72d2-ba2b-1e62c78022e0""}","https://test12345.live/?num_scrambled_semantic=8&num_scrambled_causal=4&num_scrambled_schematic=4&participantId=2597CCC9287641888D6FB24F3442BE7F&assignmentId=0198be94-1c70-7766-81a1-5d400c9abe8e&projectId=0198be8b-78cf-72d2-ba2b-1e62c78022e0","2597CCC9287641888D6FB24F3442BE7F-2025-08-18-19-38-45","","null","","[]","null","",""
"","","","","","image-button-response","92","407733","0.0-14.0-1.0-0.1","2597CCC9287641888D6FB24F3442BE7F","2597CCC9287641888D6FB24F3442BE7F","0198be94-1c70-7766-81a1-5d400c9abe8e","0198be8b-78cf-72d2-ba2b-1e62c78022e0","{""num_scrambled_semantic"":""8"",""num_scrambled_causal"":""4"",""num_scrambled_schematic"":""4"",""participantId"":""2597CCC9287641888D6FB24F3442BE7F"",""assignmentId"":""0198be94-1c70-7766-81a1-5d400c9abe8e"",""projectId"":""0198be8b-78cf-72d2-ba2b-1e62c78022e0""}","https://test12345.live/?num_scrambled_semantic=8&num_scrambled_causal=4&num_scrambled_schematic=4&participantId=2597CCC9287641888D6FB24F3442BE7F&assignmentId=0198be94-1c70-7766-81a1-5d400c9abe8e&projectId=0198be8b-78cf-72d2-ba2b-1e62c78022e0","2597CCC9287641888D6FB24F3442BE7F-2025-08-18-19-38-45","","null","","images/causal_sequence/saving_a_cat_causal/saving_a_cat_causal_5.png","null","",""
"","","","","","image-button-response","93","410511","0.0-14.0-1.0-1.1","2597CCC9287641888D6FB24F3442BE7F","2597CCC9287641888D6FB24F3442BE7F","0198be94-1c70-7766-81a1-5d400c9abe8e","0198be8b-78cf-72d2-ba2b-1e62c78022e0","{""num_scrambled_semantic"":""8"",""num_scrambled_causal"":""4"",""num_scrambled_schematic"":""4"",""participantId"":""2597CCC9287641888D6FB24F3442BE7F"",""assignmentId"":""0198be94-1c70-7766-81a1-5d400c9abe8e"",""projectId"":""0198be8b-78cf-72d2-ba2b-1e62c78022e0""}","https://test12345.live/?num_scrambled_semantic=8&num_scrambled_causal=4&num_scrambled_schematic=4&participantId=2597CCC9287641888D6FB24F3442BE7F&assignmentId=0198be94-1c70-7766-81a1-5d400c9abe8e&projectId=0198be8b-78cf-72d2-ba2b-1e62c78022e0","2597CCC9287641888D6FB24F3442BE7F-2025-08-18-19-38-45","","2778","","images/causal_sequence/saving_a_cat_causal/saving_a_cat_causal_5.png","0","",""
"","","","","","image-button-response","94","412323","0.0-14.0-1.0-2.1","2597CCC9287641888D6FB24F3442BE7F","2597CCC9287641888D6FB24F3442BE7F","0198be94-1c70-7766-81a1-5d400c9abe8e","0198be8b-78cf-72d2-ba2b-1e62c78022e0","{""num_scrambled_semantic"":""8"",""num_scrambled_causal"":""4"",""num_scrambled_schematic"":""4"",""participantId"":""2597CCC9287641888D6FB24F3442BE7F"",""assignmentId"":""0198be94-1c70-7766-81a1-5d400c9abe8e"",""projectId"":""0198be8b-78cf-72d2-ba2b-1e62c78022e0""}","https://test12345.live/?num_scrambled_semantic=8&num_scrambled_causal=4&num_scrambled_schematic=4&participantId=2597CCC9287641888D6FB24F3442BE7F&assignmentId=0198be94-1c70-7766-81a1-5d400c9abe8e&projectId=0198be8b-78cf-72d2-ba2b-1e62c78022e0","2597CCC9287641888D6FB24F3442BE7F-2025-08-18-19-38-45","","null","","[]","null","",""
"","","","","","image-button-response","95","416823","0.0-14.0-1.0-0.2","2597CCC9287641888D6FB24F3442BE7F","2597CCC9287641888D6FB24F3442BE7F","0198be94-1c70-7766-81a1-5d400c9abe8e","0198be8b-78cf-72d2-ba2b-1e62c78022e0","{""num_scrambled_semantic"":""8"",""num_scrambled_causal"":""4"",""num_scrambled_schematic"":""4"",""participantId"":""2597CCC9287641888D6FB24F3442BE7F"",""assignmentId"":""0198be94-1c70-7766-81a1-5d400c9abe8e"",""projectId"":""0198be8b-78cf-72d2-ba2b-1e62c78022e0""}","https://test12345.live/?num_scrambled_semantic=8&num_scrambled_causal=4&num_scrambled_schematic=4&participantId=2597CCC9287641888D6FB24F3442BE7F&assignmentId=0198be94-1c70-7766-81a1-5d400c9abe8e&projectId=0198be8b-78cf-72d2-ba2b-1e62c78022e0","2597CCC9287641888D6FB24F3442BE7F-2025-08-18-19-38-45","","null","","images/causal_sequence/saving_a_cat_causal/saving_a_cat_causal_1.png","null","",""
"","","","","","image-button-response","96","418004","0.0-14.0-1.0-1.2","2597CCC9287641888D6FB24F3442BE7F","2597CCC9287641888D6FB24F3442BE7F","0198be94-1c70-7766-81a1-5d400c9abe8e","0198be8b-78cf-72d2-ba2b-1e62c78022e0","{""num_scrambled_semantic"":""8"",""num_scrambled_causal"":""4"",""num_scrambled_schematic"":""4"",""participantId"":""2597CCC9287641888D6FB24F3442BE7F"",""assignmentId"":""0198be94-1c70-7766-81a1-5d400c9abe8e"",""projectId"":""0198be8b-78cf-72d2-ba2b-1e62c78022e0""}","https://test12345.live/?num_scrambled_semantic=8&num_scrambled_causal=4&num_scrambled_schematic=4&participantId=2597CCC9287641888D6FB24F3442BE7F&assignmentId=0198be94-1c70-7766-81a1-5d400c9abe8e&projectId=0198be8b-78cf-72d2-ba2b-1e62c78022e0","2597CCC9287641888D6FB24F3442BE7F-2025-08-18-19-38-45","","1180","","images/causal_sequence/saving_a_cat_causal/saving_a_cat_causal_1.png","0","",""
"","","","","","image-button-response","97","419815","0.0-14.0-1.0-2.2","2597CCC9287641888D6FB24F3442BE7F","2597CCC9287641888D6FB24F3442BE7F","0198be94-1c70-7766-81a1-5d400c9abe8e","0198be8b-78cf-72d2-ba2b-1e62c78022e0","{""num_scrambled_semantic"":""8"",""num_scrambled_causal"":""4"",""num_scrambled_schematic"":""4"",""participantId"":""2597CCC9287641888D6FB24F3442BE7F"",""assignmentId"":""0198be94-1c70-7766-81a1-5d400c9abe8e"",""projectId"":""0198be8b-78cf-72d2-ba2b-1e62c78022e0""}","https://test12345.live/?num_scrambled_semantic=8&num_scrambled_causal=4&num_scrambled_schematic=4&participantId=2597CCC9287641888D6FB24F3442BE7F&assignmentId=0198be94-1c70-7766-81a1-5d400c9abe8e&projectId=0198be8b-78cf-72d2-ba2b-1e62c78022e0","2597CCC9287641888D6FB24F3442BE7F-2025-08-18-19-38-45","","null","","[]","null","",""
"","","","","","image-button-response","98","424317","0.0-14.0-1.0-0.3","2597CCC9287641888D6FB24F3442BE7F","2597CCC9287641888D6FB24F3442BE7F","0198be94-1c70-7766-81a1-5d400c9abe8e","0198be8b-78cf-72d2-ba2b-1e62c78022e0","{""num_scrambled_semantic"":""8"",""num_scrambled_causal"":""4"",""num_scrambled_schematic"":""4"",""participantId"":""2597CCC9287641888D6FB24F3442BE7F"",""assignmentId"":""0198be94-1c70-7766-81a1-5d400c9abe8e"",""projectId"":""0198be8b-78cf-72d2-ba2b-1e62c78022e0""}","https://test12345.live/?num_scrambled_semantic=8&num_scrambled_causal=4&num_scrambled_schematic=4&participantId=2597CCC9287641888D6FB24F3442BE7F&assignmentId=0198be94-1c70-7766-81a1-5d400c9abe8e&projectId=0198be8b-78cf-72d2-ba2b-1e62c78022e0","2597CCC9287641888D6FB24F3442BE7F-2025-08-18-19-38-45","","null","","images/causal_sequence/saving_a_cat_causal/saving_a_cat_causal_2.png","null","",""
"","","","","","image-button-response","99","426362","0.0-14.0-1.0-1.3","2597CCC9287641888D6FB24F3442BE7F","2597CCC9287641888D6FB24F3442BE7F","0198be94-1c70-7766-81a1-5d400c9abe8e","0198be8b-78cf-72d2-ba2b-1e62c78022e0","{""num_scrambled_semantic"":""8"",""num_scrambled_causal"":""4"",""num_scrambled_schematic"":""4"",""participantId"":""2597CCC9287641888D6FB24F3442BE7F"",""assignmentId"":""0198be94-1c70-7766-81a1-5d400c9abe8e"",""projectId"":""0198be8b-78cf-72d2-ba2b-1e62c78022e0""}","https://test12345.live/?num_scrambled_semantic=8&num_scrambled_causal=4&num_scrambled_schematic=4&participantId=2597CCC9287641888D6FB24F3442BE7F&assignmentId=0198be94-1c70-7766-81a1-5d400c9abe8e&projectId=0198be8b-78cf-72d2-ba2b-1e62c78022e0","2597CCC9287641888D6FB24F3442BE7F-2025-08-18-19-38-45","","2044","","images/causal_sequence/saving_a_cat_causal/saving_a_cat_causal_2.png","0","",""
"","","","","","image-button-response","100","428173","0.0-14.0-1.0-2.3","2597CCC9287641888D6FB24F3442BE7F","2597CCC9287641888D6FB24F3442BE7F","0198be94-1c70-7766-81a1-5d400c9abe8e","0198be8b-78cf-72d2-ba2b-1e62c78022e0","{""num_scrambled_semantic"":""8"",""num_scrambled_causal"":""4"",""num_scrambled_schematic"":""4"",""participantId"":""2597CCC9287641888D6FB24F3442BE7F"",""assignmentId"":""0198be94-1c70-7766-81a1-5d400c9abe8e"",""projectId"":""0198be8b-78cf-72d2-ba2b-1e62c78022e0""}","https://test12345.live/?num_scrambled_semantic=8&num_scrambled_causal=4&num_scrambled_schematic=4&participantId=2597CCC9287641888D6FB24F3442BE7F&assignmentId=0198be94-1c70-7766-81a1-5d400c9abe8e&projectId=0198be8b-78cf-72d2-ba2b-1e62c78022e0","2597CCC9287641888D6FB24F3442BE7F-2025-08-18-19-38-45","","null","","[]","null","",""
"","","","","","image-button-response","101","432681","0.0-14.0-1.0-0.4","2597CCC9287641888D6FB24F3442BE7F","2597CCC9287641888D6FB24F3442BE7F","0198be94-1c70-7766-81a1-5d400c9abe8e","0198be8b-78cf-72d2-ba2b-1e62c78022e0","{""num_scrambled_semantic"":""8"",""num_scrambled_causal"":""4"",""num_scrambled_schematic"":""4"",""participantId"":""2597CCC9287641888D6FB24F3442BE7F"",""assignmentId"":""0198be94-1c70-7766-81a1-5d400c9abe8e"",""projectId"":""0198be8b-78cf-72d2-ba2b-1e62c78022e0""}","https://test12345.live/?num_scrambled_semantic=8&num_scrambled_causal=4&num_scrambled_schematic=4&participantId=2597CCC9287641888D6FB24F3442BE7F&assignmentId=0198be94-1c70-7766-81a1-5d400c9abe8e&projectId=0198be8b-78cf-72d2-ba2b-1e62c78022e0","2597CCC9287641888D6FB24F3442BE7F-2025-08-18-19-38-45","","null","","images/causal_sequence/saving_a_cat_causal/saving_a_cat_causal_7.png","null","",""
"","","","","","image-button-response","102","434801","0.0-14.0-1.0-1.4","2597CCC9287641888D6FB24F3442BE7F","2597CCC9287641888D6FB24F3442BE7F","0198be94-1c70-7766-81a1-5d400c9abe8e","0198be8b-78cf-72d2-ba2b-1e62c78022e0","{""num_scrambled_semantic"":""8"",""num_scrambled_causal"":""4"",""num_scrambled_schematic"":""4"",""participantId"":""2597CCC9287641888D6FB24F3442BE7F"",""assignmentId"":""0198be94-1c70-7766-81a1-5d400c9abe8e"",""projectId"":""0198be8b-78cf-72d2-ba2b-1e62c78022e0""}","https://test12345.live/?num_scrambled_semantic=8&num_scrambled_causal=4&num_scrambled_schematic=4&participantId=2597CCC9287641888D6FB24F3442BE7F&assignmentId=0198be94-1c70-7766-81a1-5d400c9abe8e&projectId=0198be8b-78cf-72d2-ba2b-1e62c78022e0","2597CCC9287641888D6FB24F3442BE7F-2025-08-18-19-38-45","","2120","","images/causal_sequence/saving_a_cat_causal/saving_a_cat_causal_7.png","0","",""
"","","","","","image-button-response","103","436616","0.0-14.0-1.0-2.4","2597CCC9287641888D6FB24F3442BE7F","2597CCC9287641888D6FB24F3442BE7F","0198be94-1c70-7766-81a1-5d400c9abe8e","0198be8b-78cf-72d2-ba2b-1e62c78022e0","{""num_scrambled_semantic"":""8"",""num_scrambled_causal"":""4"",""num_scrambled_schematic"":""4"",""participantId"":""2597CCC9287641888D6FB24F3442BE7F"",""assignmentId"":""0198be94-1c70-7766-81a1-5d400c9abe8e"",""projectId"":""0198be8b-78cf-72d2-ba2b-1e62c78022e0""}","https://test12345.live/?num_scrambled_semantic=8&num_scrambled_causal=4&num_scrambled_schematic=4&participantId=2597CCC9287641888D6FB24F3442BE7F&assignmentId=0198be94-1c70-7766-81a1-5d400c9abe8e&projectId=0198be8b-78cf-72d2-ba2b-1e62c78022e0","2597CCC9287641888D6FB24F3442BE7F-2025-08-18-19-38-45","","null","","[]","null","",""
"","","","","","image-button-response","104","441127","0.0-14.0-1.0-0.5","2597CCC9287641888D6FB24F3442BE7F","2597CCC9287641888D6FB24F3442BE7F","0198be94-1c70-7766-81a1-5d400c9abe8e","0198be8b-78cf-72d2-ba2b-1e62c78022e0","{""num_scrambled_semantic"":""8"",""num_scrambled_causal"":""4"",""num_scrambled_schematic"":""4"",""participantId"":""2597CCC9287641888D6FB24F3442BE7F"",""assignmentId"":""0198be94-1c70-7766-81a1-5d400c9abe8e"",""projectId"":""0198be8b-78cf-72d2-ba2b-1e62c78022e0""}","https://test12345.live/?num_scrambled_semantic=8&num_scrambled_causal=4&num_scrambled_schematic=4&participantId=2597CCC9287641888D6FB24F3442BE7F&assignmentId=0198be94-1c70-7766-81a1-5d400c9abe8e&projectId=0198be8b-78cf-72d2-ba2b-1e62c78022e0","2597CCC9287641888D6FB24F3442BE7F-2025-08-18-19-38-45","","null","","images/causal_sequence/saving_a_cat_causal/saving_a_cat_causal_6.png","null","",""
"","","","","","image-button-response","105","444562","0.0-14.0-1.0-1.5","2597CCC9287641888D6FB24F3442BE7F","2597CCC9287641888D6FB24F3442BE7F","0198be94-1c70-7766-81a1-5d400c9abe8e","0198be8b-78cf-72d2-ba2b-1e62c78022e0","{""num_scrambled_semantic"":""8"",""num_scrambled_causal"":""4"",""num_scrambled_schematic"":""4"",""participantId"":""2597CCC9287641888D6FB24F3442BE7F"",""assignmentId"":""0198be94-1c70-7766-81a1-5d400c9abe8e"",""projectId"":""0198be8b-78cf-72d2-ba2b-1e62c78022e0""}","https://test12345.live/?num_scrambled_semantic=8&num_scrambled_causal=4&num_scrambled_schematic=4&participantId=2597CCC9287641888D6FB24F3442BE7F&assignmentId=0198be94-1c70-7766-81a1-5d400c9abe8e&projectId=0198be8b-78cf-72d2-ba2b-1e62c78022e0","2597CCC9287641888D6FB24F3442BE7F-2025-08-18-19-38-45","","3434","","images/causal_sequence/saving_a_cat_causal/saving_a_cat_causal_6.png","0","",""
"","","","","","image-button-response","106","446379","0.0-14.0-1.0-2.5","2597CCC9287641888D6FB24F3442BE7F","2597CCC9287641888D6FB24F3442BE7F","0198be94-1c70-7766-81a1-5d400c9abe8e","0198be8b-78cf-72d2-ba2b-1e62c78022e0","{""num_scrambled_semantic"":""8"",""num_scrambled_causal"":""4"",""num_scrambled_schematic"":""4"",""participantId"":""2597CCC9287641888D6FB24F3442BE7F"",""assignmentId"":""0198be94-1c70-7766-81a1-5d400c9abe8e"",""projectId"":""0198be8b-78cf-72d2-ba2b-1e62c78022e0""}","https://test12345.live/?num_scrambled_semantic=8&num_scrambled_causal=4&num_scrambled_schematic=4&participantId=2597CCC9287641888D6FB24F3442BE7F&assignmentId=0198be94-1c70-7766-81a1-5d400c9abe8e&projectId=0198be8b-78cf-72d2-ba2b-1e62c78022e0","2597CCC9287641888D6FB24F3442BE7F-2025-08-18-19-38-45","","null","","[]","null","",""
"","","","","","image-button-response","107","450879","0.0-14.0-1.0-0.6","2597CCC9287641888D6FB24F3442BE7F","2597CCC9287641888D6FB24F3442BE7F","0198be94-1c70-7766-81a1-5d400c9abe8e","0198be8b-78cf-72d2-ba2b-1e62c78022e0","{""num_scrambled_semantic"":""8"",""num_scrambled_causal"":""4"",""num_scrambled_schematic"":""4"",""participantId"":""2597CCC9287641888D6FB24F3442BE7F"",""assignmentId"":""0198be94-1c70-7766-81a1-5d400c9abe8e"",""projectId"":""0198be8b-78cf-72d2-ba2b-1e62c78022e0""}","https://test12345.live/?num_scrambled_semantic=8&num_scrambled_causal=4&num_scrambled_schematic=4&participantId=2597CCC9287641888D6FB24F3442BE7F&assignmentId=0198be94-1c70-7766-81a1-5d400c9abe8e&projectId=0198be8b-78cf-72d2-ba2b-1e62c78022e0","2597CCC9287641888D6FB24F3442BE7F-2025-08-18-19-38-45","","null","","images/causal_sequence/saving_a_cat_causal/saving_a_cat_causal_3.png","null","",""
"","","","","","image-button-response","108","452818","0.0-14.0-1.0-1.6","2597CCC9287641888D6FB24F3442BE7F","2597CCC9287641888D6FB24F3442BE7F","0198be94-1c70-7766-81a1-5d400c9abe8e","0198be8b-78cf-72d2-ba2b-1e62c78022e0","{""num_scrambled_semantic"":""8"",""num_scrambled_causal"":""4"",""num_scrambled_schematic"":""4"",""participantId"":""2597CCC9287641888D6FB24F3442BE7F"",""assignmentId"":""0198be94-1c70-7766-81a1-5d400c9abe8e"",""projectId"":""0198be8b-78cf-72d2-ba2b-1e62c78022e0""}","https://test12345.live/?num_scrambled_semantic=8&num_scrambled_causal=4&num_scrambled_schematic=4&participantId=2597CCC9287641888D6FB24F3442BE7F&assignmentId=0198be94-1c70-7766-81a1-5d400c9abe8e&projectId=0198be8b-78cf-72d2-ba2b-1e62c78022e0","2597CCC9287641888D6FB24F3442BE7F-2025-08-18-19-38-45","","1938","","images/causal_sequence/saving_a_cat_causal/saving_a_cat_causal_3.png","1","",""
"","","","","","image-button-response","109","454620","0.0-14.0-1.0-2.6","2597CCC9287641888D6FB24F3442BE7F","2597CCC9287641888D6FB24F3442BE7F","0198be94-1c70-7766-81a1-5d400c9abe8e","0198be8b-78cf-72d2-ba2b-1e62c78022e0","{""num_scrambled_semantic"":""8"",""num_scrambled_causal"":""4"",""num_scrambled_schematic"":""4"",""participantId"":""2597CCC9287641888D6FB24F3442BE7F"",""assignmentId"":""0198be94-1c70-7766-81a1-5d400c9abe8e"",""projectId"":""0198be8b-78cf-72d2-ba2b-1e62c78022e0""}","https://test12345.live/?num_scrambled_semantic=8&num_scrambled_causal=4&num_scrambled_schematic=4&participantId=2597CCC9287641888D6FB24F3442BE7F&assignmentId=0198be94-1c70-7766-81a1-5d400c9abe8e&projectId=0198be8b-78cf-72d2-ba2b-1e62c78022e0","2597CCC9287641888D6FB24F3442BE7F-2025-08-18-19-38-45","","null","","[]","null","",""
"","","","","","image-button-response","110","459135","0.0-14.0-1.0-0.7","2597CCC9287641888D6FB24F3442BE7F","2597CCC9287641888D6FB24F3442BE7F","0198be94-1c70-7766-81a1-5d400c9abe8e","0198be8b-78cf-72d2-ba2b-1e62c78022e0","{""num_scrambled_semantic"":""8"",""num_scrambled_causal"":""4"",""num_scrambled_schematic"":""4"",""participantId"":""2597CCC9287641888D6FB24F3442BE7F"",""assignmentId"":""0198be94-1c70-7766-81a1-5d400c9abe8e"",""projectId"":""0198be8b-78cf-72d2-ba2b-1e62c78022e0""}","https://test12345.live/?num_scrambled_semantic=8&num_scrambled_causal=4&num_scrambled_schematic=4&participantId=2597CCC9287641888D6FB24F3442BE7F&assignmentId=0198be94-1c70-7766-81a1-5d400c9abe8e&projectId=0198be8b-78cf-72d2-ba2b-1e62c78022e0","2597CCC9287641888D6FB24F3442BE7F-2025-08-18-19-38-45","","null","","images/causal_sequence/saving_a_cat_causal/saving_a_cat_causal_9.png","null","",""
"","","","","","image-button-response","111","460861","0.0-14.0-1.0-1.7","2597CCC9287641888D6FB24F3442BE7F","2597CCC9287641888D6FB24F3442BE7F","0198be94-1c70-7766-81a1-5d400c9abe8e","0198be8b-78cf-72d2-ba2b-1e62c78022e0","{""num_scrambled_semantic"":""8"",""num_scrambled_causal"":""4"",""num_scrambled_schematic"":""4"",""participantId"":""2597CCC9287641888D6FB24F3442BE7F"",""assignmentId"":""0198be94-1c70-7766-81a1-5d400c9abe8e"",""projectId"":""0198be8b-78cf-72d2-ba2b-1e62c78022e0""}","https://test12345.live/?num_scrambled_semantic=8&num_scrambled_causal=4&num_scrambled_schematic=4&participantId=2597CCC9287641888D6FB24F3442BE7F&assignmentId=0198be94-1c70-7766-81a1-5d400c9abe8e&projectId=0198be8b-78cf-72d2-ba2b-1e62c78022e0","2597CCC9287641888D6FB24F3442BE7F-2025-08-18-19-38-45","","1726","","images/causal_sequence/saving_a_cat_causal/saving_a_cat_causal_9.png","0","",""
"","","","","","image-button-response","112","462663","0.0-14.0-1.0-2.7","2597CCC9287641888D6FB24F3442BE7F","2597CCC9287641888D6FB24F3442BE7F","0198be94-1c70-7766-81a1-5d400c9abe8e","0198be8b-78cf-72d2-ba2b-1e62c78022e0","{""num_scrambled_semantic"":""8"",""num_scrambled_causal"":""4"",""num_scrambled_schematic"":""4"",""participantId"":""2597CCC9287641888D6FB24F3442BE7F"",""assignmentId"":""0198be94-1c70-7766-81a1-5d400c9abe8e"",""projectId"":""0198be8b-78cf-72d2-ba2b-1e62c78022e0""}","https://test12345.live/?num_scrambled_semantic=8&num_scrambled_causal=4&num_scrambled_schematic=4&participantId=2597CCC9287641888D6FB24F3442BE7F&assignmentId=0198be94-1c70-7766-81a1-5d400c9abe8e&projectId=0198be8b-78cf-72d2-ba2b-1e62c78022e0","2597CCC9287641888D6FB24F3442BE7F-2025-08-18-19-38-45","","null","","[]","null","",""
"","","","","","image-button-response","113","467173","0.0-14.0-1.0-0.8","2597CCC9287641888D6FB24F3442BE7F","2597CCC9287641888D6FB24F3442BE7F","0198be94-1c70-7766-81a1-5d400c9abe8e","0198be8b-78cf-72d2-ba2b-1e62c78022e0","{""num_scrambled_semantic"":""8"",""num_scrambled_causal"":""4"",""num_scrambled_schematic"":""4"",""participantId"":""2597CCC9287641888D6FB24F3442BE7F"",""assignmentId"":""0198be94-1c70-7766-81a1-5d400c9abe8e"",""projectId"":""0198be8b-78cf-72d2-ba2b-1e62c78022e0""}","https://test12345.live/?num_scrambled_semantic=8&num_scrambled_causal=4&num_scrambled_schematic=4&participantId=2597CCC9287641888D6FB24F3442BE7F&assignmentId=0198be94-1c70-7766-81a1-5d400c9abe8e&projectId=0198be8b-78cf-72d2-ba2b-1e62c78022e0","2597CCC9287641888D6FB24F3442BE7F-2025-08-18-19-38-45","","null","","images/causal_sequence/saving_a_cat_causal/saving_a_cat_causal_4.png","null","",""
"","","","","","image-button-response","114","469054","0.0-14.0-1.0-1.8","2597CCC9287641888D6FB24F3442BE7F","2597CCC9287641888D6FB24F3442BE7F","0198be94-1c70-7766-81a1-5d400c9abe8e","0198be8b-78cf-72d2-ba2b-1e62c78022e0","{""num_scrambled_semantic"":""8"",""num_scrambled_causal"":""4"",""num_scrambled_schematic"":""4"",""participantId"":""2597CCC9287641888D6FB24F3442BE7F"",""assignmentId"":""0198be94-1c70-7766-81a1-5d400c9abe8e"",""projectId"":""0198be8b-78cf-72d2-ba2b-1e62c78022e0""}","https://test12345.live/?num_scrambled_semantic=8&num_scrambled_causal=4&num_scrambled_schematic=4&participantId=2597CCC9287641888D6FB24F3442BE7F&assignmentId=0198be94-1c70-7766-81a1-5d400c9abe8e&projectId=0198be8b-78cf-72d2-ba2b-1e62c78022e0","2597CCC9287641888D6FB24F3442BE7F-2025-08-18-19-38-45","","1880","","images/causal_sequence/saving_a_cat_causal/saving_a_cat_causal_4.png","0","",""
