"success","timeout","failed_images","failed_audio","failed_video","trial_type","trial_index","time_elapsed","internal_node_id","subject","subject_id","study_id","session_id","urlvar","current_url","audio_id","view_history","rt","device_id","stimulus","response","estimated_stimulus_onset","seq_name"
"true","false","[]","[]","[]","preload","0","37943","0.0-0.0","267E6DD1BEE049BE916CC50C2F755ED2","267E6DD1BEE049BE916CC50C2F755ED2","1fa982a2-6285-41e2-b4f3-f0e5c73224db","a9f3d40c-5730-405c-b25e-1034c4c56f3f","{""num_scrambled_semantic"":""8"",""num_scrambled_causal"":""4"",""num_scrambled_schematic"":""4"",""participantId"":""267E6DD1BEE049BE916CC50C2F755ED2"",""assignmentId"":""1fa982a2-6285-41e2-b4f3-f0e5c73224db"",""projectId"":""a9f3d40c-5730-405c-b25e-1034c4c56f3f""}","https://test12345.live/?num_scrambled_semantic=8&num_scrambled_causal=4&num_scrambled_schematic=4&participantId=267E6DD1BEE049BE916CC50C2F755ED2&assignmentId=1fa982a2-6285-41e2-b4f3-f0e5c73224db&projectId=a9f3d40c-5730-405c-b25e-1034c4c56f3f","267E6DD1BEE049BE916CC50C2F755ED2-2025-08-07-19-05-22","","","","","","",""
"","","","","","instructions","1","81146","0.0-1.0","267E6DD1BEE049BE916CC50C2F755ED2","267E6DD1BEE049BE916CC50C2F755ED2","1fa982a2-6285-41e2-b4f3-f0e5c73224db","a9f3d40c-5730-405c-b25e-1034c4c56f3f","{""num_scrambled_semantic"":""8"",""num_scrambled_causal"":""4"",""num_scrambled_schematic"":""4"",""participantId"":""267E6DD1BEE049BE916CC50C2F755ED2"",""assignmentId"":""1fa982a2-6285-41e2-b4f3-f0e5c73224db"",""projectId"":""a9f3d40c-5730-405c-b25e-1034c4c56f3f""}","https://test12345.live/?num_scrambled_semantic=8&num_scrambled_causal=4&num_scrambled_schematic=4&participantId=267E6DD1BEE049BE916CC50C2F755ED2&assignmentId=1fa982a2-6285-41e2-b4f3-f0e5c73224db&projectId=a9f3d40c-5730-405c-b25e-1034c4c56f3f","267E6DD1BEE049BE916CC50C2F755ED2-2025-08-07-19-05-22","[{""page_index"":0,""viewing_time"":43202}]","43202","","","","",""
"","","","","","instructions","2","84377","0.0-2.0","267E6DD1BEE049BE916CC50C2F755ED2","267E6DD1BEE049BE916CC50C2F755ED2","1fa982a2-6285-41e2-b4f3-f0e5c73224db","a9f3d40c-5730-405c-b25e-1034c4c56f3f","{""num_scrambled_semantic"":""8"",""num_scrambled_causal"":""4"",""num_scrambled_schematic"":""4"",""participantId"":""267E6DD1BEE049BE916CC50C2F755ED2"",""assignmentId"":""1fa982a2-6285-41e2-b4f3-f0e5c73224db"",""projectId"":""a9f3d40c-5730-405c-b25e-1034c4c56f3f""}","https://test12345.live/?num_scrambled_semantic=8&num_scrambled_causal=4&num_scrambled_schematic=4&participantId=267E6DD1BEE049BE916CC50C2F755ED2&assignmentId=1fa982a2-6285-41e2-b4f3-f0e5c73224db&projectId=a9f3d40c-5730-405c-b25e-1034c4c56f3f","267E6DD1BEE049BE916CC50C2F755ED2-2025-08-07-19-05-22","[{""page_index"":0,""viewing_time"":3231}]","3231","","","","",""
"true","","","","","fullscreen","3","90840","0.0-3.0","267E6DD1BEE049BE916CC50C2F755ED2","267E6DD1BEE049BE916CC50C2F755ED2","1fa982a2-6285-41e2-b4f3-f0e5c73224db","a9f3d40c-5730-405c-b25e-1034c4c56f3f","{""num_scrambled_semantic"":""8"",""num_scrambled_causal"":""4"",""num_scrambled_schematic"":""4"",""participantId"":""267E6DD1BEE049BE916CC50C2F755ED2"",""assignmentId"":""1fa982a2-6285-41e2-b4f3-f0e5c73224db"",""projectId"":""a9f3d40c-5730-405c-b25e-1034c4c56f3f""}","https://test12345.live/?num_scrambled_semantic=8&num_scrambled_causal=4&num_scrambled_schematic=4&participantId=267E6DD1BEE049BE916CC50C2F755ED2&assignmentId=1fa982a2-6285-41e2-b4f3-f0e5c73224db&projectId=a9f3d40c-5730-405c-b25e-1034c4c56f3f","267E6DD1BEE049BE916CC50C2F755ED2-2025-08-07-19-05-22","","5456","","","","",""
"","","","","","initialize-microphone","4","99477","0.0-4.0-0.0","267E6DD1BEE049BE916CC50C2F755ED2","267E6DD1BEE049BE916CC50C2F755ED2","1fa982a2-6285-41e2-b4f3-f0e5c73224db","a9f3d40c-5730-405c-b25e-1034c4c56f3f","{""num_scrambled_semantic"":""8"",""num_scrambled_causal"":""4"",""num_scrambled_schematic"":""4"",""participantId"":""267E6DD1BEE049BE916CC50C2F755ED2"",""assignmentId"":""1fa982a2-6285-41e2-b4f3-f0e5c73224db"",""projectId"":""a9f3d40c-5730-405c-b25e-1034c4c56f3f""}","https://test12345.live/?num_scrambled_semantic=8&num_scrambled_causal=4&num_scrambled_schematic=4&participantId=267E6DD1BEE049BE916CC50C2F755ED2&assignmentId=1fa982a2-6285-41e2-b4f3-f0e5c73224db&projectId=a9f3d40c-5730-405c-b25e-1034c4c56f3f","267E6DD1BEE049BE916CC50C2F755ED2-2025-08-07-19-05-22","","","704c77384f5c27ef8d01815ef5fb3a745786c357a1bfc74f7056475ee12b8aeb","","","",""
"","","","","","html-audio-response","5","108714","0.0-4.0-1.0","267E6DD1BEE049BE916CC50C2F755ED2","267E6DD1BEE049BE916CC50C2F755ED2","1fa982a2-6285-41e2-b4f3-f0e5c73224db","a9f3d40c-5730-405c-b25e-1034c4c56f3f","{""num_scrambled_semantic"":""8"",""num_scrambled_causal"":""4"",""num_scrambled_schematic"":""4"",""participantId"":""267E6DD1BEE049BE916CC50C2F755ED2"",""assignmentId"":""1fa982a2-6285-41e2-b4f3-f0e5c73224db"",""projectId"":""a9f3d40c-5730-405c-b25e-1034c4c56f3f""}","https://test12345.live/?num_scrambled_semantic=8&num_scrambled_causal=4&num_scrambled_schematic=4&participantId=267E6DD1BEE049BE916CC50C2F755ED2&assignmentId=1fa982a2-6285-41e2-b4f3-f0e5c73224db&projectId=a9f3d40c-5730-405c-b25e-1034c4c56f3f","267E6DD1BEE049BE916CC50C2F755ED2-2025-08-07-19-05-22","","4734","","<span style=""color: red; font-size: 24px""> NOW RECORDING</span>
        <p>Please test Microphone</p>","","3",""
"","","","","","html-button-response","6","110656","0.0-4.0-2.0","267E6DD1BEE049BE916CC50C2F755ED2","267E6DD1BEE049BE916CC50C2F755ED2","1fa982a2-6285-41e2-b4f3-f0e5c73224db","a9f3d40c-5730-405c-b25e-1034c4c56f3f","{""num_scrambled_semantic"":""8"",""num_scrambled_causal"":""4"",""num_scrambled_schematic"":""4"",""participantId"":""267E6DD1BEE049BE916CC50C2F755ED2"",""assignmentId"":""1fa982a2-6285-41e2-b4f3-f0e5c73224db"",""projectId"":""a9f3d40c-5730-405c-b25e-1034c4c56f3f""}","https://test12345.live/?num_scrambled_semantic=8&num_scrambled_causal=4&num_scrambled_schematic=4&participantId=267E6DD1BEE049BE916CC50C2F755ED2&assignmentId=1fa982a2-6285-41e2-b4f3-f0e5c73224db&projectId=a9f3d40c-5730-405c-b25e-1034c4c56f3f","267E6DD1BEE049BE916CC50C2F755ED2-2025-08-07-19-05-22","","1942","","<p style=""font-size:48px; color:red;"">Is Microphone OK?</p>","1","",""
"","","","","","instructions","7","118870","0.0-5.0","267E6DD1BEE049BE916CC50C2F755ED2","267E6DD1BEE049BE916CC50C2F755ED2","1fa982a2-6285-41e2-b4f3-f0e5c73224db","a9f3d40c-5730-405c-b25e-1034c4c56f3f","{""num_scrambled_semantic"":""8"",""num_scrambled_causal"":""4"",""num_scrambled_schematic"":""4"",""participantId"":""267E6DD1BEE049BE916CC50C2F755ED2"",""assignmentId"":""1fa982a2-6285-41e2-b4f3-f0e5c73224db"",""projectId"":""a9f3d40c-5730-405c-b25e-1034c4c56f3f""}","https://test12345.live/?num_scrambled_semantic=8&num_scrambled_causal=4&num_scrambled_schematic=4&participantId=267E6DD1BEE049BE916CC50C2F755ED2&assignmentId=1fa982a2-6285-41e2-b4f3-f0e5c73224db&projectId=a9f3d40c-5730-405c-b25e-1034c4c56f3f","267E6DD1BEE049BE916CC50C2F755ED2-2025-08-07-19-05-22","[{""page_index"":0,""viewing_time"":3221},{""page_index"":1,""viewing_time"":4992}]","8213","","","","",""
"","","","","","image-button-response","8","124871","0.0-6.0-0.0","267E6DD1BEE049BE916CC50C2F755ED2","267E6DD1BEE049BE916CC50C2F755ED2","1fa982a2-6285-41e2-b4f3-f0e5c73224db","a9f3d40c-5730-405c-b25e-1034c4c56f3f","{""num_scrambled_semantic"":""8"",""num_scrambled_causal"":""4"",""num_scrambled_schematic"":""4"",""participantId"":""267E6DD1BEE049BE916CC50C2F755ED2"",""assignmentId"":""1fa982a2-6285-41e2-b4f3-f0e5c73224db"",""projectId"":""a9f3d40c-5730-405c-b25e-1034c4c56f3f""}","https://test12345.live/?num_scrambled_semantic=8&num_scrambled_causal=4&num_scrambled_schematic=4&participantId=267E6DD1BEE049BE916CC50C2F755ED2&assignmentId=1fa982a2-6285-41e2-b4f3-f0e5c73224db&projectId=a9f3d40c-5730-405c-b25e-1034c4c56f3f","267E6DD1BEE049BE916CC50C2F755ED2-2025-08-07-19-05-22","","null","","images/instructions/movie_0.png","null","",""
"","","","","","image-button-response","9","129371","0.0-6.0-1.0-0.0","267E6DD1BEE049BE916CC50C2F755ED2","267E6DD1BEE049BE916CC50C2F755ED2","1fa982a2-6285-41e2-b4f3-f0e5c73224db","a9f3d40c-5730-405c-b25e-1034c4c56f3f","{""num_scrambled_semantic"":""8"",""num_scrambled_causal"":""4"",""num_scrambled_schematic"":""4"",""participantId"":""267E6DD1BEE049BE916CC50C2F755ED2"",""assignmentId"":""1fa982a2-6285-41e2-b4f3-f0e5c73224db"",""projectId"":""a9f3d40c-5730-405c-b25e-1034c4c56f3f""}","https://test12345.live/?num_scrambled_semantic=8&num_scrambled_causal=4&num_scrambled_schematic=4&participantId=267E6DD1BEE049BE916CC50C2F755ED2&assignmentId=1fa982a2-6285-41e2-b4f3-f0e5c73224db&projectId=a9f3d40c-5730-405c-b25e-1034c4c56f3f","267E6DD1BEE049BE916CC50C2F755ED2-2025-08-07-19-05-22","","null","","images/instructions/movie_1.png","null","",""
"","","","","","image-button-response","10","131462","0.0-6.0-1.0-1.0","267E6DD1BEE049BE916CC50C2F755ED2","267E6DD1BEE049BE916CC50C2F755ED2","1fa982a2-6285-41e2-b4f3-f0e5c73224db","a9f3d40c-5730-405c-b25e-1034c4c56f3f","{""num_scrambled_semantic"":""8"",""num_scrambled_causal"":""4"",""num_scrambled_schematic"":""4"",""participantId"":""267E6DD1BEE049BE916CC50C2F755ED2"",""assignmentId"":""1fa982a2-6285-41e2-b4f3-f0e5c73224db"",""projectId"":""a9f3d40c-5730-405c-b25e-1034c4c56f3f""}","https://test12345.live/?num_scrambled_semantic=8&num_scrambled_causal=4&num_scrambled_schematic=4&participantId=267E6DD1BEE049BE916CC50C2F755ED2&assignmentId=1fa982a2-6285-41e2-b4f3-f0e5c73224db&projectId=a9f3d40c-5730-405c-b25e-1034c4c56f3f","267E6DD1BEE049BE916CC50C2F755ED2-2025-08-07-19-05-22","","2090","","images/instructions/movie_1.png","0","",""
"","","","","","image-button-response","11","133263","0.0-6.0-1.0-2.0","267E6DD1BEE049BE916CC50C2F755ED2","267E6DD1BEE049BE916CC50C2F755ED2","1fa982a2-6285-41e2-b4f3-f0e5c73224db","a9f3d40c-5730-405c-b25e-1034c4c56f3f","{""num_scrambled_semantic"":""8"",""num_scrambled_causal"":""4"",""num_scrambled_schematic"":""4"",""participantId"":""267E6DD1BEE049BE916CC50C2F755ED2"",""assignmentId"":""1fa982a2-6285-41e2-b4f3-f0e5c73224db"",""projectId"":""a9f3d40c-5730-405c-b25e-1034c4c56f3f""}","https://test12345.live/?num_scrambled_semantic=8&num_scrambled_causal=4&num_scrambled_schematic=4&participantId=267E6DD1BEE049BE916CC50C2F755ED2&assignmentId=1fa982a2-6285-41e2-b4f3-f0e5c73224db&projectId=a9f3d40c-5730-405c-b25e-1034c4c56f3f","267E6DD1BEE049BE916CC50C2F755ED2-2025-08-07-19-05-22","","null","","[]","null","",""
"","","","","","image-button-response","12","137768","0.0-6.0-1.0-0.1","267E6DD1BEE049BE916CC50C2F755ED2","267E6DD1BEE049BE916CC50C2F755ED2","1fa982a2-6285-41e2-b4f3-f0e5c73224db","a9f3d40c-5730-405c-b25e-1034c4c56f3f","{""num_scrambled_semantic"":""8"",""num_scrambled_causal"":""4"",""num_scrambled_schematic"":""4"",""participantId"":""267E6DD1BEE049BE916CC50C2F755ED2"",""assignmentId"":""1fa982a2-6285-41e2-b4f3-f0e5c73224db"",""projectId"":""a9f3d40c-5730-405c-b25e-1034c4c56f3f""}","https://test12345.live/?num_scrambled_semantic=8&num_scrambled_causal=4&num_scrambled_schematic=4&participantId=267E6DD1BEE049BE916CC50C2F755ED2&assignmentId=1fa982a2-6285-41e2-b4f3-f0e5c73224db&projectId=a9f3d40c-5730-405c-b25e-1034c4c56f3f","267E6DD1BEE049BE916CC50C2F755ED2-2025-08-07-19-05-22","","null","","images/instructions/movie_2.png","null","",""
"","","","","","image-button-response","13","140594","0.0-6.0-1.0-1.1","267E6DD1BEE049BE916CC50C2F755ED2","267E6DD1BEE049BE916CC50C2F755ED2","1fa982a2-6285-41e2-b4f3-f0e5c73224db","a9f3d40c-5730-405c-b25e-1034c4c56f3f","{""num_scrambled_semantic"":""8"",""num_scrambled_causal"":""4"",""num_scrambled_schematic"":""4"",""participantId"":""267E6DD1BEE049BE916CC50C2F755ED2"",""assignmentId"":""1fa982a2-6285-41e2-b4f3-f0e5c73224db"",""projectId"":""a9f3d40c-5730-405c-b25e-1034c4c56f3f""}","https://test12345.live/?num_scrambled_semantic=8&num_scrambled_causal=4&num_scrambled_schematic=4&participantId=267E6DD1BEE049BE916CC50C2F755ED2&assignmentId=1fa982a2-6285-41e2-b4f3-f0e5c73224db&projectId=a9f3d40c-5730-405c-b25e-1034c4c56f3f","267E6DD1BEE049BE916CC50C2F755ED2-2025-08-07-19-05-22","","2824","","images/instructions/movie_2.png","0","",""
"","","","","","image-button-response","14","142396","0.0-6.0-1.0-2.1","267E6DD1BEE049BE916CC50C2F755ED2","267E6DD1BEE049BE916CC50C2F755ED2","1fa982a2-6285-41e2-b4f3-f0e5c73224db","a9f3d40c-5730-405c-b25e-1034c4c56f3f","{""num_scrambled_semantic"":""8"",""num_scrambled_causal"":""4"",""num_scrambled_schematic"":""4"",""participantId"":""267E6DD1BEE049BE916CC50C2F755ED2"",""assignmentId"":""1fa982a2-6285-41e2-b4f3-f0e5c73224db"",""projectId"":""a9f3d40c-5730-405c-b25e-1034c4c56f3f""}","https://test12345.live/?num_scrambled_semantic=8&num_scrambled_causal=4&num_scrambled_schematic=4&participantId=267E6DD1BEE049BE916CC50C2F755ED2&assignmentId=1fa982a2-6285-41e2-b4f3-f0e5c73224db&projectId=a9f3d40c-5730-405c-b25e-1034c4c56f3f","267E6DD1BEE049BE916CC50C2F755ED2-2025-08-07-19-05-22","","null","","[]","null","",""
"","","","","","image-button-response","15","146898","0.0-6.0-1.0-0.2","267E6DD1BEE049BE916CC50C2F755ED2","267E6DD1BEE049BE916CC50C2F755ED2","1fa982a2-6285-41e2-b4f3-f0e5c73224db","a9f3d40c-5730-405c-b25e-1034c4c56f3f","{""num_scrambled_semantic"":""8"",""num_scrambled_causal"":""4"",""num_scrambled_schematic"":""4"",""participantId"":""267E6DD1BEE049BE916CC50C2F755ED2"",""assignmentId"":""1fa982a2-6285-41e2-b4f3-f0e5c73224db"",""projectId"":""a9f3d40c-5730-405c-b25e-1034c4c56f3f""}","https://test12345.live/?num_scrambled_semantic=8&num_scrambled_causal=4&num_scrambled_schematic=4&participantId=267E6DD1BEE049BE916CC50C2F755ED2&assignmentId=1fa982a2-6285-41e2-b4f3-f0e5c73224db&projectId=a9f3d40c-5730-405c-b25e-1034c4c56f3f","267E6DD1BEE049BE916CC50C2F755ED2-2025-08-07-19-05-22","","null","","images/instructions/movie_3.png","null","",""
"","","","","","image-button-response","16","147966","0.0-6.0-1.0-1.2","267E6DD1BEE049BE916CC50C2F755ED2","267E6DD1BEE049BE916CC50C2F755ED2","1fa982a2-6285-41e2-b4f3-f0e5c73224db","a9f3d40c-5730-405c-b25e-1034c4c56f3f","{""num_scrambled_semantic"":""8"",""num_scrambled_causal"":""4"",""num_scrambled_schematic"":""4"",""participantId"":""267E6DD1BEE049BE916CC50C2F755ED2"",""assignmentId"":""1fa982a2-6285-41e2-b4f3-f0e5c73224db"",""projectId"":""a9f3d40c-5730-405c-b25e-1034c4c56f3f""}","https://test12345.live/?num_scrambled_semantic=8&num_scrambled_causal=4&num_scrambled_schematic=4&participantId=267E6DD1BEE049BE916CC50C2F755ED2&assignmentId=1fa982a2-6285-41e2-b4f3-f0e5c73224db&projectId=a9f3d40c-5730-405c-b25e-1034c4c56f3f","267E6DD1BEE049BE916CC50C2F755ED2-2025-08-07-19-05-22","","1068","","images/instructions/movie_3.png","0","",""
"","","","","","image-button-response","17","149771","0.0-6.0-1.0-2.2","267E6DD1BEE049BE916CC50C2F755ED2","267E6DD1BEE049BE916CC50C2F755ED2","1fa982a2-6285-41e2-b4f3-f0e5c73224db","a9f3d40c-5730-405c-b25e-1034c4c56f3f","{""num_scrambled_semantic"":""8"",""num_scrambled_causal"":""4"",""num_scrambled_schematic"":""4"",""participantId"":""267E6DD1BEE049BE916CC50C2F755ED2"",""assignmentId"":""1fa982a2-6285-41e2-b4f3-f0e5c73224db"",""projectId"":""a9f3d40c-5730-405c-b25e-1034c4c56f3f""}","https://test12345.live/?num_scrambled_semantic=8&num_scrambled_causal=4&num_scrambled_schematic=4&participantId=267E6DD1BEE049BE916CC50C2F755ED2&assignmentId=1fa982a2-6285-41e2-b4f3-f0e5c73224db&projectId=a9f3d40c-5730-405c-b25e-1034c4c56f3f","267E6DD1BEE049BE916CC50C2F755ED2-2025-08-07-19-05-22","","null","","[]","null","",""
"","","","","","image-button-response","18","154274","0.0-6.0-1.0-0.3","267E6DD1BEE049BE916CC50C2F755ED2","267E6DD1BEE049BE916CC50C2F755ED2","1fa982a2-6285-41e2-b4f3-f0e5c73224db","a9f3d40c-5730-405c-b25e-1034c4c56f3f","{""num_scrambled_semantic"":""8"",""num_scrambled_causal"":""4"",""num_scrambled_schematic"":""4"",""participantId"":""267E6DD1BEE049BE916CC50C2F755ED2"",""assignmentId"":""1fa982a2-6285-41e2-b4f3-f0e5c73224db"",""projectId"":""a9f3d40c-5730-405c-b25e-1034c4c56f3f""}","https://test12345.live/?num_scrambled_semantic=8&num_scrambled_causal=4&num_scrambled_schematic=4&participantId=267E6DD1BEE049BE916CC50C2F755ED2&assignmentId=1fa982a2-6285-41e2-b4f3-f0e5c73224db&projectId=a9f3d40c-5730-405c-b25e-1034c4c56f3f","267E6DD1BEE049BE916CC50C2F755ED2-2025-08-07-19-05-22","","null","","images/instructions/movie_4.png","null","",""
"","","","","","image-button-response","19","155508","0.0-6.0-1.0-1.3","267E6DD1BEE049BE916CC50C2F755ED2","267E6DD1BEE049BE916CC50C2F755ED2","1fa982a2-6285-41e2-b4f3-f0e5c73224db","a9f3d40c-5730-405c-b25e-1034c4c56f3f","{""num_scrambled_semantic"":""8"",""num_scrambled_causal"":""4"",""num_scrambled_schematic"":""4"",""participantId"":""267E6DD1BEE049BE916CC50C2F755ED2"",""assignmentId"":""1fa982a2-6285-41e2-b4f3-f0e5c73224db"",""projectId"":""a9f3d40c-5730-405c-b25e-1034c4c56f3f""}","https://test12345.live/?num_scrambled_semantic=8&num_scrambled_causal=4&num_scrambled_schematic=4&participantId=267E6DD1BEE049BE916CC50C2F755ED2&assignmentId=1fa982a2-6285-41e2-b4f3-f0e5c73224db&projectId=a9f3d40c-5730-405c-b25e-1034c4c56f3f","267E6DD1BEE049BE916CC50C2F755ED2-2025-08-07-19-05-22","","1234","","images/instructions/movie_4.png","0","",""
"","","","","","image-button-response","20","157320","0.0-6.0-1.0-2.3","267E6DD1BEE049BE916CC50C2F755ED2","267E6DD1BEE049BE916CC50C2F755ED2","1fa982a2-6285-41e2-b4f3-f0e5c73224db","a9f3d40c-5730-405c-b25e-1034c4c56f3f","{""num_scrambled_semantic"":""8"",""num_scrambled_causal"":""4"",""num_scrambled_schematic"":""4"",""participantId"":""267E6DD1BEE049BE916CC50C2F755ED2"",""assignmentId"":""1fa982a2-6285-41e2-b4f3-f0e5c73224db"",""projectId"":""a9f3d40c-5730-405c-b25e-1034c4c56f3f""}","https://test12345.live/?num_scrambled_semantic=8&num_scrambled_causal=4&num_scrambled_schematic=4&participantId=267E6DD1BEE049BE916CC50C2F755ED2&assignmentId=1fa982a2-6285-41e2-b4f3-f0e5c73224db&projectId=a9f3d40c-5730-405c-b25e-1034c4c56f3f","267E6DD1BEE049BE916CC50C2F755ED2-2025-08-07-19-05-22","","null","","[]","null","",""
"","","","","","instructions","21","162682","0.0-7.0","267E6DD1BEE049BE916CC50C2F755ED2","267E6DD1BEE049BE916CC50C2F755ED2","1fa982a2-6285-41e2-b4f3-f0e5c73224db","a9f3d40c-5730-405c-b25e-1034c4c56f3f","{""num_scrambled_semantic"":""8"",""num_scrambled_causal"":""4"",""num_scrambled_schematic"":""4"",""participantId"":""267E6DD1BEE049BE916CC50C2F755ED2"",""assignmentId"":""1fa982a2-6285-41e2-b4f3-f0e5c73224db"",""projectId"":""a9f3d40c-5730-405c-b25e-1034c4c56f3f""}","https://test12345.live/?num_scrambled_semantic=8&num_scrambled_causal=4&num_scrambled_schematic=4&participantId=267E6DD1BEE049BE916CC50C2F755ED2&assignmentId=1fa982a2-6285-41e2-b4f3-f0e5c73224db&projectId=a9f3d40c-5730-405c-b25e-1034c4c56f3f","267E6DD1BEE049BE916CC50C2F755ED2-2025-08-07-19-05-22","[{""page_index"":0,""viewing_time"":4629},{""page_index"":1,""viewing_time"":733}]","5362","","","","",""
"","","","","","html-audio-response","22","193218","0.0-8.0","267E6DD1BEE049BE916CC50C2F755ED2","267E6DD1BEE049BE916CC50C2F755ED2","1fa982a2-6285-41e2-b4f3-f0e5c73224db","a9f3d40c-5730-405c-b25e-1034c4c56f3f","{""num_scrambled_semantic"":""8"",""num_scrambled_causal"":""4"",""num_scrambled_schematic"":""4"",""participantId"":""267E6DD1BEE049BE916CC50C2F755ED2"",""assignmentId"":""1fa982a2-6285-41e2-b4f3-f0e5c73224db"",""projectId"":""a9f3d40c-5730-405c-b25e-1034c4c56f3f""}","https://test12345.live/?num_scrambled_semantic=8&num_scrambled_causal=4&num_scrambled_schematic=4&participantId=267E6DD1BEE049BE916CC50C2F755ED2&assignmentId=1fa982a2-6285-41e2-b4f3-f0e5c73224db&projectId=a9f3d40c-5730-405c-b25e-1034c4c56f3f","267E6DD1BEE049BE916CC50C2F755ED2-2025-08-07-19-05-22","","13831","","[""<span style=\""color: red; font-size: 24px\""> NOW RECORDING</span><p>Please say out loud all the images you saw, as many as you can remember. The images can be said in any order.</p>""]","","1",""
"","","","","","instructions","23","195070","0.0-9.0","267E6DD1BEE049BE916CC50C2F755ED2","267E6DD1BEE049BE916CC50C2F755ED2","1fa982a2-6285-41e2-b4f3-f0e5c73224db","a9f3d40c-5730-405c-b25e-1034c4c56f3f","{""num_scrambled_semantic"":""8"",""num_scrambled_causal"":""4"",""num_scrambled_schematic"":""4"",""participantId"":""267E6DD1BEE049BE916CC50C2F755ED2"",""assignmentId"":""1fa982a2-6285-41e2-b4f3-f0e5c73224db"",""projectId"":""a9f3d40c-5730-405c-b25e-1034c4c56f3f""}","https://test12345.live/?num_scrambled_semantic=8&num_scrambled_causal=4&num_scrambled_schematic=4&participantId=267E6DD1BEE049BE916CC50C2F755ED2&assignmentId=1fa982a2-6285-41e2-b4f3-f0e5c73224db&projectId=a9f3d40c-5730-405c-b25e-1034c4c56f3f","267E6DD1BEE049BE916CC50C2F755ED2-2025-08-07-19-05-22","[{""page_index"":0,""viewing_time"":1849}]","1849","","","","",""
"","","","","","image-button-response","24","201085","0.0-10.0-0.0","267E6DD1BEE049BE916CC50C2F755ED2","267E6DD1BEE049BE916CC50C2F755ED2","1fa982a2-6285-41e2-b4f3-f0e5c73224db","a9f3d40c-5730-405c-b25e-1034c4c56f3f","{""num_scrambled_semantic"":""8"",""num_scrambled_causal"":""4"",""num_scrambled_schematic"":""4"",""participantId"":""267E6DD1BEE049BE916CC50C2F755ED2"",""assignmentId"":""1fa982a2-6285-41e2-b4f3-f0e5c73224db"",""projectId"":""a9f3d40c-5730-405c-b25e-1034c4c56f3f""}","https://test12345.live/?num_scrambled_semantic=8&num_scrambled_causal=4&num_scrambled_schematic=4&participantId=267E6DD1BEE049BE916CC50C2F755ED2&assignmentId=1fa982a2-6285-41e2-b4f3-f0e5c73224db&projectId=a9f3d40c-5730-405c-b25e-1034c4c56f3f","267E6DD1BEE049BE916CC50C2F755ED2-2025-08-07-19-05-22","","null","","images/causal_sequence/package_causal/package_causal_0.png","null","",""
"","","","","","image-button-response","25","205595","0.0-10.0-1.0-0.0","267E6DD1BEE049BE916CC50C2F755ED2","267E6DD1BEE049BE916CC50C2F755ED2","1fa982a2-6285-41e2-b4f3-f0e5c73224db","a9f3d40c-5730-405c-b25e-1034c4c56f3f","{""num_scrambled_semantic"":""8"",""num_scrambled_causal"":""4"",""num_scrambled_schematic"":""4"",""participantId"":""267E6DD1BEE049BE916CC50C2F755ED2"",""assignmentId"":""1fa982a2-6285-41e2-b4f3-f0e5c73224db"",""projectId"":""a9f3d40c-5730-405c-b25e-1034c4c56f3f""}","https://test12345.live/?num_scrambled_semantic=8&num_scrambled_causal=4&num_scrambled_schematic=4&participantId=267E6DD1BEE049BE916CC50C2F755ED2&assignmentId=1fa982a2-6285-41e2-b4f3-f0e5c73224db&projectId=a9f3d40c-5730-405c-b25e-1034c4c56f3f","267E6DD1BEE049BE916CC50C2F755ED2-2025-08-07-19-05-22","","null","","images/causal_sequence/package_causal/package_causal_1.png","null","",""
"","","","","","image-button-response","26","207132","0.0-10.0-1.0-1.0","267E6DD1BEE049BE916CC50C2F755ED2","267E6DD1BEE049BE916CC50C2F755ED2","1fa982a2-6285-41e2-b4f3-f0e5c73224db","a9f3d40c-5730-405c-b25e-1034c4c56f3f","{""num_scrambled_semantic"":""8"",""num_scrambled_causal"":""4"",""num_scrambled_schematic"":""4"",""participantId"":""267E6DD1BEE049BE916CC50C2F755ED2"",""assignmentId"":""1fa982a2-6285-41e2-b4f3-f0e5c73224db"",""projectId"":""a9f3d40c-5730-405c-b25e-1034c4c56f3f""}","https://test12345.live/?num_scrambled_semantic=8&num_scrambled_causal=4&num_scrambled_schematic=4&participantId=267E6DD1BEE049BE916CC50C2F755ED2&assignmentId=1fa982a2-6285-41e2-b4f3-f0e5c73224db&projectId=a9f3d40c-5730-405c-b25e-1034c4c56f3f","267E6DD1BEE049BE916CC50C2F755ED2-2025-08-07-19-05-22","","1536","","images/causal_sequence/package_causal/package_causal_1.png","0","",""
"","","","","","image-button-response","27","208945","0.0-10.0-1.0-2.0","267E6DD1BEE049BE916CC50C2F755ED2","267E6DD1BEE049BE916CC50C2F755ED2","1fa982a2-6285-41e2-b4f3-f0e5c73224db","a9f3d40c-5730-405c-b25e-1034c4c56f3f","{""num_scrambled_semantic"":""8"",""num_scrambled_causal"":""4"",""num_scrambled_schematic"":""4"",""participantId"":""267E6DD1BEE049BE916CC50C2F755ED2"",""assignmentId"":""1fa982a2-6285-41e2-b4f3-f0e5c73224db"",""projectId"":""a9f3d40c-5730-405c-b25e-1034c4c56f3f""}","https://test12345.live/?num_scrambled_semantic=8&num_scrambled_causal=4&num_scrambled_schematic=4&participantId=267E6DD1BEE049BE916CC50C2F755ED2&assignmentId=1fa982a2-6285-41e2-b4f3-f0e5c73224db&projectId=a9f3d40c-5730-405c-b25e-1034c4c56f3f","267E6DD1BEE049BE916CC50C2F755ED2-2025-08-07-19-05-22","","null","","[]","null","",""
"","","","","","image-button-response","28","213459","0.0-10.0-1.0-0.1","267E6DD1BEE049BE916CC50C2F755ED2","267E6DD1BEE049BE916CC50C2F755ED2","1fa982a2-6285-41e2-b4f3-f0e5c73224db","a9f3d40c-5730-405c-b25e-1034c4c56f3f","{""num_scrambled_semantic"":""8"",""num_scrambled_causal"":""4"",""num_scrambled_schematic"":""4"",""participantId"":""267E6DD1BEE049BE916CC50C2F755ED2"",""assignmentId"":""1fa982a2-6285-41e2-b4f3-f0e5c73224db"",""projectId"":""a9f3d40c-5730-405c-b25e-1034c4c56f3f""}","https://test12345.live/?num_scrambled_semantic=8&num_scrambled_causal=4&num_scrambled_schematic=4&participantId=267E6DD1BEE049BE916CC50C2F755ED2&assignmentId=1fa982a2-6285-41e2-b4f3-f0e5c73224db&projectId=a9f3d40c-5730-405c-b25e-1034c4c56f3f","267E6DD1BEE049BE916CC50C2F755ED2-2025-08-07-19-05-22","","null","","images/causal_sequence/package_causal/package_causal_2.png","null","",""
"","","","","","image-button-response","29","215724","0.0-10.0-1.0-1.1","267E6DD1BEE049BE916CC50C2F755ED2","267E6DD1BEE049BE916CC50C2F755ED2","1fa982a2-6285-41e2-b4f3-f0e5c73224db","a9f3d40c-5730-405c-b25e-1034c4c56f3f","{""num_scrambled_semantic"":""8"",""num_scrambled_causal"":""4"",""num_scrambled_schematic"":""4"",""participantId"":""267E6DD1BEE049BE916CC50C2F755ED2"",""assignmentId"":""1fa982a2-6285-41e2-b4f3-f0e5c73224db"",""projectId"":""a9f3d40c-5730-405c-b25e-1034c4c56f3f""}","https://test12345.live/?num_scrambled_semantic=8&num_scrambled_causal=4&num_scrambled_schematic=4&participantId=267E6DD1BEE049BE916CC50C2F755ED2&assignmentId=1fa982a2-6285-41e2-b4f3-f0e5c73224db&projectId=a9f3d40c-5730-405c-b25e-1034c4c56f3f","267E6DD1BEE049BE916CC50C2F755ED2-2025-08-07-19-05-22","","2264","","images/causal_sequence/package_causal/package_causal_2.png","0","",""
"","","","","","image-button-response","30","217538","0.0-10.0-1.0-2.1","267E6DD1BEE049BE916CC50C2F755ED2","267E6DD1BEE049BE916CC50C2F755ED2","1fa982a2-6285-41e2-b4f3-f0e5c73224db","a9f3d40c-5730-405c-b25e-1034c4c56f3f","{""num_scrambled_semantic"":""8"",""num_scrambled_causal"":""4"",""num_scrambled_schematic"":""4"",""participantId"":""267E6DD1BEE049BE916CC50C2F755ED2"",""assignmentId"":""1fa982a2-6285-41e2-b4f3-f0e5c73224db"",""projectId"":""a9f3d40c-5730-405c-b25e-1034c4c56f3f""}","https://test12345.live/?num_scrambled_semantic=8&num_scrambled_causal=4&num_scrambled_schematic=4&participantId=267E6DD1BEE049BE916CC50C2F755ED2&assignmentId=1fa982a2-6285-41e2-b4f3-f0e5c73224db&projectId=a9f3d40c-5730-405c-b25e-1034c4c56f3f","267E6DD1BEE049BE916CC50C2F755ED2-2025-08-07-19-05-22","","null","","[]","null","",""
"","","","","","image-button-response","31","222041","0.0-10.0-1.0-0.2","267E6DD1BEE049BE916CC50C2F755ED2","267E6DD1BEE049BE916CC50C2F755ED2","1fa982a2-6285-41e2-b4f3-f0e5c73224db","a9f3d40c-5730-405c-b25e-1034c4c56f3f","{""num_scrambled_semantic"":""8"",""num_scrambled_causal"":""4"",""num_scrambled_schematic"":""4"",""participantId"":""267E6DD1BEE049BE916CC50C2F755ED2"",""assignmentId"":""1fa982a2-6285-41e2-b4f3-f0e5c73224db"",""projectId"":""a9f3d40c-5730-405c-b25e-1034c4c56f3f""}","https://test12345.live/?num_scrambled_semantic=8&num_scrambled_causal=4&num_scrambled_schematic=4&participantId=267E6DD1BEE049BE916CC50C2F755ED2&assignmentId=1fa982a2-6285-41e2-b4f3-f0e5c73224db&projectId=a9f3d40c-5730-405c-b25e-1034c4c56f3f","267E6DD1BEE049BE916CC50C2F755ED2-2025-08-07-19-05-22","","null","","images/causal_sequence/package_causal/package_causal_3.png","null","",""
"","","","","","image-button-response","32","222736","0.0-10.0-1.0-1.2","267E6DD1BEE049BE916CC50C2F755ED2","267E6DD1BEE049BE916CC50C2F755ED2","1fa982a2-6285-41e2-b4f3-f0e5c73224db","a9f3d40c-5730-405c-b25e-1034c4c56f3f","{""num_scrambled_semantic"":""8"",""num_scrambled_causal"":""4"",""num_scrambled_schematic"":""4"",""participantId"":""267E6DD1BEE049BE916CC50C2F755ED2"",""assignmentId"":""1fa982a2-6285-41e2-b4f3-f0e5c73224db"",""projectId"":""a9f3d40c-5730-405c-b25e-1034c4c56f3f""}","https://test12345.live/?num_scrambled_semantic=8&num_scrambled_causal=4&num_scrambled_schematic=4&participantId=267E6DD1BEE049BE916CC50C2F755ED2&assignmentId=1fa982a2-6285-41e2-b4f3-f0e5c73224db&projectId=a9f3d40c-5730-405c-b25e-1034c4c56f3f","267E6DD1BEE049BE916CC50C2F755ED2-2025-08-07-19-05-22","","694","","images/causal_sequence/package_causal/package_causal_3.png","0","",""
"","","","","","image-button-response","33","224547","0.0-10.0-1.0-2.2","267E6DD1BEE049BE916CC50C2F755ED2","267E6DD1BEE049BE916CC50C2F755ED2","1fa982a2-6285-41e2-b4f3-f0e5c73224db","a9f3d40c-5730-405c-b25e-1034c4c56f3f","{""num_scrambled_semantic"":""8"",""num_scrambled_causal"":""4"",""num_scrambled_schematic"":""4"",""participantId"":""267E6DD1BEE049BE916CC50C2F755ED2"",""assignmentId"":""1fa982a2-6285-41e2-b4f3-f0e5c73224db"",""projectId"":""a9f3d40c-5730-405c-b25e-1034c4c56f3f""}","https://test12345.live/?num_scrambled_semantic=8&num_scrambled_causal=4&num_scrambled_schematic=4&participantId=267E6DD1BEE049BE916CC50C2F755ED2&assignmentId=1fa982a2-6285-41e2-b4f3-f0e5c73224db&projectId=a9f3d40c-5730-405c-b25e-1034c4c56f3f","267E6DD1BEE049BE916CC50C2F755ED2-2025-08-07-19-05-22","","null","","[]","null","",""
"","","","","","image-button-response","34","229049","0.0-10.0-1.0-0.3","267E6DD1BEE049BE916CC50C2F755ED2","267E6DD1BEE049BE916CC50C2F755ED2","1fa982a2-6285-41e2-b4f3-f0e5c73224db","a9f3d40c-5730-405c-b25e-1034c4c56f3f","{""num_scrambled_semantic"":""8"",""num_scrambled_causal"":""4"",""num_scrambled_schematic"":""4"",""participantId"":""267E6DD1BEE049BE916CC50C2F755ED2"",""assignmentId"":""1fa982a2-6285-41e2-b4f3-f0e5c73224db"",""projectId"":""a9f3d40c-5730-405c-b25e-1034c4c56f3f""}","https://test12345.live/?num_scrambled_semantic=8&num_scrambled_causal=4&num_scrambled_schematic=4&participantId=267E6DD1BEE049BE916CC50C2F755ED2&assignmentId=1fa982a2-6285-41e2-b4f3-f0e5c73224db&projectId=a9f3d40c-5730-405c-b25e-1034c4c56f3f","267E6DD1BEE049BE916CC50C2F755ED2-2025-08-07-19-05-22","","null","","images/causal_sequence/package_causal/package_causal_4.png","null","",""
"","","","","","image-button-response","35","230638","0.0-10.0-1.0-1.3","267E6DD1BEE049BE916CC50C2F755ED2","267E6DD1BEE049BE916CC50C2F755ED2","1fa982a2-6285-41e2-b4f3-f0e5c73224db","a9f3d40c-5730-405c-b25e-1034c4c56f3f","{""num_scrambled_semantic"":""8"",""num_scrambled_causal"":""4"",""num_scrambled_schematic"":""4"",""participantId"":""267E6DD1BEE049BE916CC50C2F755ED2"",""assignmentId"":""1fa982a2-6285-41e2-b4f3-f0e5c73224db"",""projectId"":""a9f3d40c-5730-405c-b25e-1034c4c56f3f""}","https://test12345.live/?num_scrambled_semantic=8&num_scrambled_causal=4&num_scrambled_schematic=4&participantId=267E6DD1BEE049BE916CC50C2F755ED2&assignmentId=1fa982a2-6285-41e2-b4f3-f0e5c73224db&projectId=a9f3d40c-5730-405c-b25e-1034c4c56f3f","267E6DD1BEE049BE916CC50C2F755ED2-2025-08-07-19-05-22","","1588","","images/causal_sequence/package_causal/package_causal_4.png","1","",""
"","","","","","image-button-response","36","232447","0.0-10.0-1.0-2.3","267E6DD1BEE049BE916CC50C2F755ED2","267E6DD1BEE049BE916CC50C2F755ED2","1fa982a2-6285-41e2-b4f3-f0e5c73224db","a9f3d40c-5730-405c-b25e-1034c4c56f3f","{""num_scrambled_semantic"":""8"",""num_scrambled_causal"":""4"",""num_scrambled_schematic"":""4"",""participantId"":""267E6DD1BEE049BE916CC50C2F755ED2"",""assignmentId"":""1fa982a2-6285-41e2-b4f3-f0e5c73224db"",""projectId"":""a9f3d40c-5730-405c-b25e-1034c4c56f3f""}","https://test12345.live/?num_scrambled_semantic=8&num_scrambled_causal=4&num_scrambled_schematic=4&participantId=267E6DD1BEE049BE916CC50C2F755ED2&assignmentId=1fa982a2-6285-41e2-b4f3-f0e5c73224db&projectId=a9f3d40c-5730-405c-b25e-1034c4c56f3f","267E6DD1BEE049BE916CC50C2F755ED2-2025-08-07-19-05-22","","null","","[]","null","",""
"","","","","","image-button-response","37","236958","0.0-10.0-1.0-0.4","267E6DD1BEE049BE916CC50C2F755ED2","267E6DD1BEE049BE916CC50C2F755ED2","1fa982a2-6285-41e2-b4f3-f0e5c73224db","a9f3d40c-5730-405c-b25e-1034c4c56f3f","{""num_scrambled_semantic"":""8"",""num_scrambled_causal"":""4"",""num_scrambled_schematic"":""4"",""participantId"":""267E6DD1BEE049BE916CC50C2F755ED2"",""assignmentId"":""1fa982a2-6285-41e2-b4f3-f0e5c73224db"",""projectId"":""a9f3d40c-5730-405c-b25e-1034c4c56f3f""}","https://test12345.live/?num_scrambled_semantic=8&num_scrambled_causal=4&num_scrambled_schematic=4&participantId=267E6DD1BEE049BE916CC50C2F755ED2&assignmentId=1fa982a2-6285-41e2-b4f3-f0e5c73224db&projectId=a9f3d40c-5730-405c-b25e-1034c4c56f3f","267E6DD1BEE049BE916CC50C2F755ED2-2025-08-07-19-05-22","","null","","images/causal_sequence/package_causal/package_causal_5.png","null","",""
"","","","","","image-button-response","38","239250","0.0-10.0-1.0-1.4","267E6DD1BEE049BE916CC50C2F755ED2","267E6DD1BEE049BE916CC50C2F755ED2","1fa982a2-6285-41e2-b4f3-f0e5c73224db","a9f3d40c-5730-405c-b25e-1034c4c56f3f","{""num_scrambled_semantic"":""8"",""num_scrambled_causal"":""4"",""num_scrambled_schematic"":""4"",""participantId"":""267E6DD1BEE049BE916CC50C2F755ED2"",""assignmentId"":""1fa982a2-6285-41e2-b4f3-f0e5c73224db"",""projectId"":""a9f3d40c-5730-405c-b25e-1034c4c56f3f""}","https://test12345.live/?num_scrambled_semantic=8&num_scrambled_causal=4&num_scrambled_schematic=4&participantId=267E6DD1BEE049BE916CC50C2F755ED2&assignmentId=1fa982a2-6285-41e2-b4f3-f0e5c73224db&projectId=a9f3d40c-5730-405c-b25e-1034c4c56f3f","267E6DD1BEE049BE916CC50C2F755ED2-2025-08-07-19-05-22","","2291","","images/causal_sequence/package_causal/package_causal_5.png","0","",""
"","","","","","image-button-response","39","241066","0.0-10.0-1.0-2.4","267E6DD1BEE049BE916CC50C2F755ED2","267E6DD1BEE049BE916CC50C2F755ED2","1fa982a2-6285-41e2-b4f3-f0e5c73224db","a9f3d40c-5730-405c-b25e-1034c4c56f3f","{""num_scrambled_semantic"":""8"",""num_scrambled_causal"":""4"",""num_scrambled_schematic"":""4"",""participantId"":""267E6DD1BEE049BE916CC50C2F755ED2"",""assignmentId"":""1fa982a2-6285-41e2-b4f3-f0e5c73224db"",""projectId"":""a9f3d40c-5730-405c-b25e-1034c4c56f3f""}","https://test12345.live/?num_scrambled_semantic=8&num_scrambled_causal=4&num_scrambled_schematic=4&participantId=267E6DD1BEE049BE916CC50C2F755ED2&assignmentId=1fa982a2-6285-41e2-b4f3-f0e5c73224db&projectId=a9f3d40c-5730-405c-b25e-1034c4c56f3f","267E6DD1BEE049BE916CC50C2F755ED2-2025-08-07-19-05-22","","null","","[]","null","",""
"","","","","","image-button-response","40","245577","0.0-10.0-1.0-0.5","267E6DD1BEE049BE916CC50C2F755ED2","267E6DD1BEE049BE916CC50C2F755ED2","1fa982a2-6285-41e2-b4f3-f0e5c73224db","a9f3d40c-5730-405c-b25e-1034c4c56f3f","{""num_scrambled_semantic"":""8"",""num_scrambled_causal"":""4"",""num_scrambled_schematic"":""4"",""participantId"":""267E6DD1BEE049BE916CC50C2F755ED2"",""assignmentId"":""1fa982a2-6285-41e2-b4f3-f0e5c73224db"",""projectId"":""a9f3d40c-5730-405c-b25e-1034c4c56f3f""}","https://test12345.live/?num_scrambled_semantic=8&num_scrambled_causal=4&num_scrambled_schematic=4&participantId=267E6DD1BEE049BE916CC50C2F755ED2&assignmentId=1fa982a2-6285-41e2-b4f3-f0e5c73224db&projectId=a9f3d40c-5730-405c-b25e-1034c4c56f3f","267E6DD1BEE049BE916CC50C2F755ED2-2025-08-07-19-05-22","","null","","images/causal_sequence/package_causal/package_causal_6.png","null","",""
"","","","","","image-button-response","41","247212","0.0-10.0-1.0-1.5","267E6DD1BEE049BE916CC50C2F755ED2","267E6DD1BEE049BE916CC50C2F755ED2","1fa982a2-6285-41e2-b4f3-f0e5c73224db","a9f3d40c-5730-405c-b25e-1034c4c56f3f","{""num_scrambled_semantic"":""8"",""num_scrambled_causal"":""4"",""num_scrambled_schematic"":""4"",""participantId"":""267E6DD1BEE049BE916CC50C2F755ED2"",""assignmentId"":""1fa982a2-6285-41e2-b4f3-f0e5c73224db"",""projectId"":""a9f3d40c-5730-405c-b25e-1034c4c56f3f""}","https://test12345.live/?num_scrambled_semantic=8&num_scrambled_causal=4&num_scrambled_schematic=4&participantId=267E6DD1BEE049BE916CC50C2F755ED2&assignmentId=1fa982a2-6285-41e2-b4f3-f0e5c73224db&projectId=a9f3d40c-5730-405c-b25e-1034c4c56f3f","267E6DD1BEE049BE916CC50C2F755ED2-2025-08-07-19-05-22","","1634","","images/causal_sequence/package_causal/package_causal_6.png","0","",""
"","","","","","image-button-response","42","249022","0.0-10.0-1.0-2.5","267E6DD1BEE049BE916CC50C2F755ED2","267E6DD1BEE049BE916CC50C2F755ED2","1fa982a2-6285-41e2-b4f3-f0e5c73224db","a9f3d40c-5730-405c-b25e-1034c4c56f3f","{""num_scrambled_semantic"":""8"",""num_scrambled_causal"":""4"",""num_scrambled_schematic"":""4"",""participantId"":""267E6DD1BEE049BE916CC50C2F755ED2"",""assignmentId"":""1fa982a2-6285-41e2-b4f3-f0e5c73224db"",""projectId"":""a9f3d40c-5730-405c-b25e-1034c4c56f3f""}","https://test12345.live/?num_scrambled_semantic=8&num_scrambled_causal=4&num_scrambled_schematic=4&participantId=267E6DD1BEE049BE916CC50C2F755ED2&assignmentId=1fa982a2-6285-41e2-b4f3-f0e5c73224db&projectId=a9f3d40c-5730-405c-b25e-1034c4c56f3f","267E6DD1BEE049BE916CC50C2F755ED2-2025-08-07-19-05-22","","null","","[]","null","",""
"","","","","","image-button-response","43","253532","0.0-10.0-1.0-0.6","267E6DD1BEE049BE916CC50C2F755ED2","267E6DD1BEE049BE916CC50C2F755ED2","1fa982a2-6285-41e2-b4f3-f0e5c73224db","a9f3d40c-5730-405c-b25e-1034c4c56f3f","{""num_scrambled_semantic"":""8"",""num_scrambled_causal"":""4"",""num_scrambled_schematic"":""4"",""participantId"":""267E6DD1BEE049BE916CC50C2F755ED2"",""assignmentId"":""1fa982a2-6285-41e2-b4f3-f0e5c73224db"",""projectId"":""a9f3d40c-5730-405c-b25e-1034c4c56f3f""}","https://test12345.live/?num_scrambled_semantic=8&num_scrambled_causal=4&num_scrambled_schematic=4&participantId=267E6DD1BEE049BE916CC50C2F755ED2&assignmentId=1fa982a2-6285-41e2-b4f3-f0e5c73224db&projectId=a9f3d40c-5730-405c-b25e-1034c4c56f3f","267E6DD1BEE049BE916CC50C2F755ED2-2025-08-07-19-05-22","","null","","images/causal_sequence/package_causal/package_causal_7.png","null","",""
"","","","","","image-button-response","44","255104","0.0-10.0-1.0-1.6","267E6DD1BEE049BE916CC50C2F755ED2","267E6DD1BEE049BE916CC50C2F755ED2","1fa982a2-6285-41e2-b4f3-f0e5c73224db","a9f3d40c-5730-405c-b25e-1034c4c56f3f","{""num_scrambled_semantic"":""8"",""num_scrambled_causal"":""4"",""num_scrambled_schematic"":""4"",""participantId"":""267E6DD1BEE049BE916CC50C2F755ED2"",""assignmentId"":""1fa982a2-6285-41e2-b4f3-f0e5c73224db"",""projectId"":""a9f3d40c-5730-405c-b25e-1034c4c56f3f""}","https://test12345.live/?num_scrambled_semantic=8&num_scrambled_causal=4&num_scrambled_schematic=4&participantId=267E6DD1BEE049BE916CC50C2F755ED2&assignmentId=1fa982a2-6285-41e2-b4f3-f0e5c73224db&projectId=a9f3d40c-5730-405c-b25e-1034c4c56f3f","267E6DD1BEE049BE916CC50C2F755ED2-2025-08-07-19-05-22","","1571","","images/causal_sequence/package_causal/package_causal_7.png","0","",""
"","","","","","image-button-response","45","256907","0.0-10.0-1.0-2.6","267E6DD1BEE049BE916CC50C2F755ED2","267E6DD1BEE049BE916CC50C2F755ED2","1fa982a2-6285-41e2-b4f3-f0e5c73224db","a9f3d40c-5730-405c-b25e-1034c4c56f3f","{""num_scrambled_semantic"":""8"",""num_scrambled_causal"":""4"",""num_scrambled_schematic"":""4"",""participantId"":""267E6DD1BEE049BE916CC50C2F755ED2"",""assignmentId"":""1fa982a2-6285-41e2-b4f3-f0e5c73224db"",""projectId"":""a9f3d40c-5730-405c-b25e-1034c4c56f3f""}","https://test12345.live/?num_scrambled_semantic=8&num_scrambled_causal=4&num_scrambled_schematic=4&participantId=267E6DD1BEE049BE916CC50C2F755ED2&assignmentId=1fa982a2-6285-41e2-b4f3-f0e5c73224db&projectId=a9f3d40c-5730-405c-b25e-1034c4c56f3f","267E6DD1BEE049BE916CC50C2F755ED2-2025-08-07-19-05-22","","null","","[]","null","",""
"","","","","","image-button-response","46","261422","0.0-10.0-1.0-0.7","267E6DD1BEE049BE916CC50C2F755ED2","267E6DD1BEE049BE916CC50C2F755ED2","1fa982a2-6285-41e2-b4f3-f0e5c73224db","a9f3d40c-5730-405c-b25e-1034c4c56f3f","{""num_scrambled_semantic"":""8"",""num_scrambled_causal"":""4"",""num_scrambled_schematic"":""4"",""participantId"":""267E6DD1BEE049BE916CC50C2F755ED2"",""assignmentId"":""1fa982a2-6285-41e2-b4f3-f0e5c73224db"",""projectId"":""a9f3d40c-5730-405c-b25e-1034c4c56f3f""}","https://test12345.live/?num_scrambled_semantic=8&num_scrambled_causal=4&num_scrambled_schematic=4&participantId=267E6DD1BEE049BE916CC50C2F755ED2&assignmentId=1fa982a2-6285-41e2-b4f3-f0e5c73224db&projectId=a9f3d40c-5730-405c-b25e-1034c4c56f3f","267E6DD1BEE049BE916CC50C2F755ED2-2025-08-07-19-05-22","","null","","images/causal_sequence/package_causal/package_causal_8.png","null","",""
"","","","","","image-button-response","47","262036","0.0-10.0-1.0-1.7","267E6DD1BEE049BE916CC50C2F755ED2","267E6DD1BEE049BE916CC50C2F755ED2","1fa982a2-6285-41e2-b4f3-f0e5c73224db","a9f3d40c-5730-405c-b25e-1034c4c56f3f","{""num_scrambled_semantic"":""8"",""num_scrambled_causal"":""4"",""num_scrambled_schematic"":""4"",""participantId"":""267E6DD1BEE049BE916CC50C2F755ED2"",""assignmentId"":""1fa982a2-6285-41e2-b4f3-f0e5c73224db"",""projectId"":""a9f3d40c-5730-405c-b25e-1034c4c56f3f""}","https://test12345.live/?num_scrambled_semantic=8&num_scrambled_causal=4&num_scrambled_schematic=4&participantId=267E6DD1BEE049BE916CC50C2F755ED2&assignmentId=1fa982a2-6285-41e2-b4f3-f0e5c73224db&projectId=a9f3d40c-5730-405c-b25e-1034c4c56f3f","267E6DD1BEE049BE916CC50C2F755ED2-2025-08-07-19-05-22","","613","","images/causal_sequence/package_causal/package_causal_8.png","0","",""
"","","","","","image-button-response","48","263852","0.0-10.0-1.0-2.7","267E6DD1BEE049BE916CC50C2F755ED2","267E6DD1BEE049BE916CC50C2F755ED2","1fa982a2-6285-41e2-b4f3-f0e5c73224db","a9f3d40c-5730-405c-b25e-1034c4c56f3f","{""num_scrambled_semantic"":""8"",""num_scrambled_causal"":""4"",""num_scrambled_schematic"":""4"",""participantId"":""267E6DD1BEE049BE916CC50C2F755ED2"",""assignmentId"":""1fa982a2-6285-41e2-b4f3-f0e5c73224db"",""projectId"":""a9f3d40c-5730-405c-b25e-1034c4c56f3f""}","https://test12345.live/?num_scrambled_semantic=8&num_scrambled_causal=4&num_scrambled_schematic=4&participantId=267E6DD1BEE049BE916CC50C2F755ED2&assignmentId=1fa982a2-6285-41e2-b4f3-f0e5c73224db&projectId=a9f3d40c-5730-405c-b25e-1034c4c56f3f","267E6DD1BEE049BE916CC50C2F755ED2-2025-08-07-19-05-22","","null","","[]","null","",""
"","","","","","image-button-response","49","268363","0.0-10.0-1.0-0.8","267E6DD1BEE049BE916CC50C2F755ED2","267E6DD1BEE049BE916CC50C2F755ED2","1fa982a2-6285-41e2-b4f3-f0e5c73224db","a9f3d40c-5730-405c-b25e-1034c4c56f3f","{""num_scrambled_semantic"":""8"",""num_scrambled_causal"":""4"",""num_scrambled_schematic"":""4"",""participantId"":""267E6DD1BEE049BE916CC50C2F755ED2"",""assignmentId"":""1fa982a2-6285-41e2-b4f3-f0e5c73224db"",""projectId"":""a9f3d40c-5730-405c-b25e-1034c4c56f3f""}","https://test12345.live/?num_scrambled_semantic=8&num_scrambled_causal=4&num_scrambled_schematic=4&participantId=267E6DD1BEE049BE916CC50C2F755ED2&assignmentId=1fa982a2-6285-41e2-b4f3-f0e5c73224db&projectId=a9f3d40c-5730-405c-b25e-1034c4c56f3f","267E6DD1BEE049BE916CC50C2F755ED2-2025-08-07-19-05-22","","null","","images/causal_sequence/package_causal/package_causal_9.png","null","",""
"","","","","","image-button-response","50","269008","0.0-10.0-1.0-1.8","267E6DD1BEE049BE916CC50C2F755ED2","267E6DD1BEE049BE916CC50C2F755ED2","1fa982a2-6285-41e2-b4f3-f0e5c73224db","a9f3d40c-5730-405c-b25e-1034c4c56f3f","{""num_scrambled_semantic"":""8"",""num_scrambled_causal"":""4"",""num_scrambled_schematic"":""4"",""participantId"":""267E6DD1BEE049BE916CC50C2F755ED2"",""assignmentId"":""1fa982a2-6285-41e2-b4f3-f0e5c73224db"",""projectId"":""a9f3d40c-5730-405c-b25e-1034c4c56f3f""}","https://test12345.live/?num_scrambled_semantic=8&num_scrambled_causal=4&num_scrambled_schematic=4&participantId=267E6DD1BEE049BE916CC50C2F755ED2&assignmentId=1fa982a2-6285-41e2-b4f3-f0e5c73224db&projectId=a9f3d40c-5730-405c-b25e-1034c4c56f3f","267E6DD1BEE049BE916CC50C2F755ED2-2025-08-07-19-05-22","","644","","images/causal_sequence/package_causal/package_causal_9.png","0","",""
"","","","","","image-button-response","51","270815","0.0-10.0-1.0-2.8","267E6DD1BEE049BE916CC50C2F755ED2","267E6DD1BEE049BE916CC50C2F755ED2","1fa982a2-6285-41e2-b4f3-f0e5c73224db","a9f3d40c-5730-405c-b25e-1034c4c56f3f","{""num_scrambled_semantic"":""8"",""num_scrambled_causal"":""4"",""num_scrambled_schematic"":""4"",""participantId"":""267E6DD1BEE049BE916CC50C2F755ED2"",""assignmentId"":""1fa982a2-6285-41e2-b4f3-f0e5c73224db"",""projectId"":""a9f3d40c-5730-405c-b25e-1034c4c56f3f""}","https://test12345.live/?num_scrambled_semantic=8&num_scrambled_causal=4&num_scrambled_schematic=4&participantId=267E6DD1BEE049BE916CC50C2F755ED2&assignmentId=1fa982a2-6285-41e2-b4f3-f0e5c73224db&projectId=a9f3d40c-5730-405c-b25e-1034c4c56f3f","267E6DD1BEE049BE916CC50C2F755ED2-2025-08-07-19-05-22","","null","","[]","null","",""
"","","","","","image-button-response","52","275324","0.0-10.0-1.0-0.9","267E6DD1BEE049BE916CC50C2F755ED2","267E6DD1BEE049BE916CC50C2F755ED2","1fa982a2-6285-41e2-b4f3-f0e5c73224db","a9f3d40c-5730-405c-b25e-1034c4c56f3f","{""num_scrambled_semantic"":""8"",""num_scrambled_causal"":""4"",""num_scrambled_schematic"":""4"",""participantId"":""267E6DD1BEE049BE916CC50C2F755ED2"",""assignmentId"":""1fa982a2-6285-41e2-b4f3-f0e5c73224db"",""projectId"":""a9f3d40c-5730-405c-b25e-1034c4c56f3f""}","https://test12345.live/?num_scrambled_semantic=8&num_scrambled_causal=4&num_scrambled_schematic=4&participantId=267E6DD1BEE049BE916CC50C2F755ED2&assignmentId=1fa982a2-6285-41e2-b4f3-f0e5c73224db&projectId=a9f3d40c-5730-405c-b25e-1034c4c56f3f","267E6DD1BEE049BE916CC50C2F755ED2-2025-08-07-19-05-22","","null","","images/causal_sequence/package_causal/package_causal_ten.png","null","",""
"","","","","","image-button-response","53","276030","0.0-10.0-1.0-1.9","267E6DD1BEE049BE916CC50C2F755ED2","267E6DD1BEE049BE916CC50C2F755ED2","1fa982a2-6285-41e2-b4f3-f0e5c73224db","a9f3d40c-5730-405c-b25e-1034c4c56f3f","{""num_scrambled_semantic"":""8"",""num_scrambled_causal"":""4"",""num_scrambled_schematic"":""4"",""participantId"":""267E6DD1BEE049BE916CC50C2F755ED2"",""assignmentId"":""1fa982a2-6285-41e2-b4f3-f0e5c73224db"",""projectId"":""a9f3d40c-5730-405c-b25e-1034c4c56f3f""}","https://test12345.live/?num_scrambled_semantic=8&num_scrambled_causal=4&num_scrambled_schematic=4&participantId=267E6DD1BEE049BE916CC50C2F755ED2&assignmentId=1fa982a2-6285-41e2-b4f3-f0e5c73224db&projectId=a9f3d40c-5730-405c-b25e-1034c4c56f3f","267E6DD1BEE049BE916CC50C2F755ED2-2025-08-07-19-05-22","","704","","images/causal_sequence/package_causal/package_causal_ten.png","0","",""
"","","","","","image-button-response","54","277832","0.0-10.0-1.0-2.9","267E6DD1BEE049BE916CC50C2F755ED2","267E6DD1BEE049BE916CC50C2F755ED2","1fa982a2-6285-41e2-b4f3-f0e5c73224db","a9f3d40c-5730-405c-b25e-1034c4c56f3f","{""num_scrambled_semantic"":""8"",""num_scrambled_causal"":""4"",""num_scrambled_schematic"":""4"",""participantId"":""267E6DD1BEE049BE916CC50C2F755ED2"",""assignmentId"":""1fa982a2-6285-41e2-b4f3-f0e5c73224db"",""projectId"":""a9f3d40c-5730-405c-b25e-1034c4c56f3f""}","https://test12345.live/?num_scrambled_semantic=8&num_scrambled_causal=4&num_scrambled_schematic=4&participantId=267E6DD1BEE049BE916CC50C2F755ED2&assignmentId=1fa982a2-6285-41e2-b4f3-f0e5c73224db&projectId=a9f3d40c-5730-405c-b25e-1034c4c56f3f","267E6DD1BEE049BE916CC50C2F755ED2-2025-08-07-19-05-22","","null","","[]","null","",""
"","","","","","html-audio-response","55","354036","0.0-11.0","267E6DD1BEE049BE916CC50C2F755ED2","267E6DD1BEE049BE916CC50C2F755ED2","1fa982a2-6285-41e2-b4f3-f0e5c73224db","a9f3d40c-5730-405c-b25e-1034c4c56f3f","{""num_scrambled_semantic"":""8"",""num_scrambled_causal"":""4"",""num_scrambled_schematic"":""4"",""participantId"":""267E6DD1BEE049BE916CC50C2F755ED2"",""assignmentId"":""1fa982a2-6285-41e2-b4f3-f0e5c73224db"",""projectId"":""a9f3d40c-5730-405c-b25e-1034c4c56f3f""}","https://test12345.live/?num_scrambled_semantic=8&num_scrambled_causal=4&num_scrambled_schematic=4&participantId=267E6DD1BEE049BE916CC50C2F755ED2&assignmentId=1fa982a2-6285-41e2-b4f3-f0e5c73224db&projectId=a9f3d40c-5730-405c-b25e-1034c4c56f3f","267E6DD1BEE049BE916CC50C2F755ED2-2025-08-07-19-05-22","","36217","","[""<span style=\""color: red; font-size: 24px\""> NOW RECORDING</span><p>Please say out loud all the images you saw, as many as you can remember. The images can be said in any order.</p>""]","","2","package_causal"
"","","","","","image-button-response","56","360049","0.0-12.0-0.0","267E6DD1BEE049BE916CC50C2F755ED2","267E6DD1BEE049BE916CC50C2F755ED2","1fa982a2-6285-41e2-b4f3-f0e5c73224db","a9f3d40c-5730-405c-b25e-1034c4c56f3f","{""num_scrambled_semantic"":""8"",""num_scrambled_causal"":""4"",""num_scrambled_schematic"":""4"",""participantId"":""267E6DD1BEE049BE916CC50C2F755ED2"",""assignmentId"":""1fa982a2-6285-41e2-b4f3-f0e5c73224db"",""projectId"":""a9f3d40c-5730-405c-b25e-1034c4c56f3f""}","https://test12345.live/?num_scrambled_semantic=8&num_scrambled_causal=4&num_scrambled_schematic=4&participantId=267E6DD1BEE049BE916CC50C2F755ED2&assignmentId=1fa982a2-6285-41e2-b4f3-f0e5c73224db&projectId=a9f3d40c-5730-405c-b25e-1034c4c56f3f","267E6DD1BEE049BE916CC50C2F755ED2-2025-08-07-19-05-22","","null","","images/semantic_sequence/maintaining_a_car_semantic/maintaining_a_car_semantic_0.png","null","",""
"","","","","","image-button-response","57","364561","0.0-12.0-1.0-0.0","267E6DD1BEE049BE916CC50C2F755ED2","267E6DD1BEE049BE916CC50C2F755ED2","1fa982a2-6285-41e2-b4f3-f0e5c73224db","a9f3d40c-5730-405c-b25e-1034c4c56f3f","{""num_scrambled_semantic"":""8"",""num_scrambled_causal"":""4"",""num_scrambled_schematic"":""4"",""participantId"":""267E6DD1BEE049BE916CC50C2F755ED2"",""assignmentId"":""1fa982a2-6285-41e2-b4f3-f0e5c73224db"",""projectId"":""a9f3d40c-5730-405c-b25e-1034c4c56f3f""}","https://test12345.live/?num_scrambled_semantic=8&num_scrambled_causal=4&num_scrambled_schematic=4&participantId=267E6DD1BEE049BE916CC50C2F755ED2&assignmentId=1fa982a2-6285-41e2-b4f3-f0e5c73224db&projectId=a9f3d40c-5730-405c-b25e-1034c4c56f3f","267E6DD1BEE049BE916CC50C2F755ED2-2025-08-07-19-05-22","","null","","images/semantic_sequence/maintaining_a_car_semantic/maintaining_a_car_semantic_4.png","null","",""
"","","","","","image-button-response","58","367428","0.0-12.0-1.0-1.0","267E6DD1BEE049BE916CC50C2F755ED2","267E6DD1BEE049BE916CC50C2F755ED2","1fa982a2-6285-41e2-b4f3-f0e5c73224db","a9f3d40c-5730-405c-b25e-1034c4c56f3f","{""num_scrambled_semantic"":""8"",""num_scrambled_causal"":""4"",""num_scrambled_schematic"":""4"",""participantId"":""267E6DD1BEE049BE916CC50C2F755ED2"",""assignmentId"":""1fa982a2-6285-41e2-b4f3-f0e5c73224db"",""projectId"":""a9f3d40c-5730-405c-b25e-1034c4c56f3f""}","https://test12345.live/?num_scrambled_semantic=8&num_scrambled_causal=4&num_scrambled_schematic=4&participantId=267E6DD1BEE049BE916CC50C2F755ED2&assignmentId=1fa982a2-6285-41e2-b4f3-f0e5c73224db&projectId=a9f3d40c-5730-405c-b25e-1034c4c56f3f","267E6DD1BEE049BE916CC50C2F755ED2-2025-08-07-19-05-22","","2866","","images/semantic_sequence/maintaining_a_car_semantic/maintaining_a_car_semantic_4.png","0","",""
"","","","","","image-button-response","59","369229","0.0-12.0-1.0-2.0","267E6DD1BEE049BE916CC50C2F755ED2","267E6DD1BEE049BE916CC50C2F755ED2","1fa982a2-6285-41e2-b4f3-f0e5c73224db","a9f3d40c-5730-405c-b25e-1034c4c56f3f","{""num_scrambled_semantic"":""8"",""num_scrambled_causal"":""4"",""num_scrambled_schematic"":""4"",""participantId"":""267E6DD1BEE049BE916CC50C2F755ED2"",""assignmentId"":""1fa982a2-6285-41e2-b4f3-f0e5c73224db"",""projectId"":""a9f3d40c-5730-405c-b25e-1034c4c56f3f""}","https://test12345.live/?num_scrambled_semantic=8&num_scrambled_causal=4&num_scrambled_schematic=4&participantId=267E6DD1BEE049BE916CC50C2F755ED2&assignmentId=1fa982a2-6285-41e2-b4f3-f0e5c73224db&projectId=a9f3d40c-5730-405c-b25e-1034c4c56f3f","267E6DD1BEE049BE916CC50C2F755ED2-2025-08-07-19-05-22","","null","","[]","null","",""
"","","","","","image-button-response","60","373745","0.0-12.0-1.0-0.1","267E6DD1BEE049BE916CC50C2F755ED2","267E6DD1BEE049BE916CC50C2F755ED2","1fa982a2-6285-41e2-b4f3-f0e5c73224db","a9f3d40c-5730-405c-b25e-1034c4c56f3f","{""num_scrambled_semantic"":""8"",""num_scrambled_causal"":""4"",""num_scrambled_schematic"":""4"",""participantId"":""267E6DD1BEE049BE916CC50C2F755ED2"",""assignmentId"":""1fa982a2-6285-41e2-b4f3-f0e5c73224db"",""projectId"":""a9f3d40c-5730-405c-b25e-1034c4c56f3f""}","https://test12345.live/?num_scrambled_semantic=8&num_scrambled_causal=4&num_scrambled_schematic=4&participantId=267E6DD1BEE049BE916CC50C2F755ED2&assignmentId=1fa982a2-6285-41e2-b4f3-f0e5c73224db&projectId=a9f3d40c-5730-405c-b25e-1034c4c56f3f","267E6DD1BEE049BE916CC50C2F755ED2-2025-08-07-19-05-22","","null","","images/semantic_sequence/maintaining_a_car_semantic/maintaining_a_car_semantic_2.png","null","",""
"","","","","","image-button-response","61","376580","0.0-12.0-1.0-1.1","267E6DD1BEE049BE916CC50C2F755ED2","267E6DD1BEE049BE916CC50C2F755ED2","1fa982a2-6285-41e2-b4f3-f0e5c73224db","a9f3d40c-5730-405c-b25e-1034c4c56f3f","{""num_scrambled_semantic"":""8"",""num_scrambled_causal"":""4"",""num_scrambled_schematic"":""4"",""participantId"":""267E6DD1BEE049BE916CC50C2F755ED2"",""assignmentId"":""1fa982a2-6285-41e2-b4f3-f0e5c73224db"",""projectId"":""a9f3d40c-5730-405c-b25e-1034c4c56f3f""}","https://test12345.live/?num_scrambled_semantic=8&num_scrambled_causal=4&num_scrambled_schematic=4&participantId=267E6DD1BEE049BE916CC50C2F755ED2&assignmentId=1fa982a2-6285-41e2-b4f3-f0e5c73224db&projectId=a9f3d40c-5730-405c-b25e-1034c4c56f3f","267E6DD1BEE049BE916CC50C2F755ED2-2025-08-07-19-05-22","","2834","","images/semantic_sequence/maintaining_a_car_semantic/maintaining_a_car_semantic_2.png","0","",""
"","","","","","image-button-response","62","378392","0.0-12.0-1.0-2.1","267E6DD1BEE049BE916CC50C2F755ED2","267E6DD1BEE049BE916CC50C2F755ED2","1fa982a2-6285-41e2-b4f3-f0e5c73224db","a9f3d40c-5730-405c-b25e-1034c4c56f3f","{""num_scrambled_semantic"":""8"",""num_scrambled_causal"":""4"",""num_scrambled_schematic"":""4"",""participantId"":""267E6DD1BEE049BE916CC50C2F755ED2"",""assignmentId"":""1fa982a2-6285-41e2-b4f3-f0e5c73224db"",""projectId"":""a9f3d40c-5730-405c-b25e-1034c4c56f3f""}","https://test12345.live/?num_scrambled_semantic=8&num_scrambled_causal=4&num_scrambled_schematic=4&participantId=267E6DD1BEE049BE916CC50C2F755ED2&assignmentId=1fa982a2-6285-41e2-b4f3-f0e5c73224db&projectId=a9f3d40c-5730-405c-b25e-1034c4c56f3f","267E6DD1BEE049BE916CC50C2F755ED2-2025-08-07-19-05-22","","null","","[]","null","",""
"","","","","","image-button-response","63","382894","0.0-12.0-1.0-0.2","267E6DD1BEE049BE916CC50C2F755ED2","267E6DD1BEE049BE916CC50C2F755ED2","1fa982a2-6285-41e2-b4f3-f0e5c73224db","a9f3d40c-5730-405c-b25e-1034c4c56f3f","{""num_scrambled_semantic"":""8"",""num_scrambled_causal"":""4"",""num_scrambled_schematic"":""4"",""participantId"":""267E6DD1BEE049BE916CC50C2F755ED2"",""assignmentId"":""1fa982a2-6285-41e2-b4f3-f0e5c73224db"",""projectId"":""a9f3d40c-5730-405c-b25e-1034c4c56f3f""}","https://test12345.live/?num_scrambled_semantic=8&num_scrambled_causal=4&num_scrambled_schematic=4&participantId=267E6DD1BEE049BE916CC50C2F755ED2&assignmentId=1fa982a2-6285-41e2-b4f3-f0e5c73224db&projectId=a9f3d40c-5730-405c-b25e-1034c4c56f3f","267E6DD1BEE049BE916CC50C2F755ED2-2025-08-07-19-05-22","","null","","images/semantic_sequence/maintaining_a_car_semantic/maintaining_a_car_semantic_9.png","null","",""
"","","","","","image-button-response","64","384282","0.0-12.0-1.0-1.2","267E6DD1BEE049BE916CC50C2F755ED2","267E6DD1BEE049BE916CC50C2F755ED2","1fa982a2-6285-41e2-b4f3-f0e5c73224db","a9f3d40c-5730-405c-b25e-1034c4c56f3f","{""num_scrambled_semantic"":""8"",""num_scrambled_causal"":""4"",""num_scrambled_schematic"":""4"",""participantId"":""267E6DD1BEE049BE916CC50C2F755ED2"",""assignmentId"":""1fa982a2-6285-41e2-b4f3-f0e5c73224db"",""projectId"":""a9f3d40c-5730-405c-b25e-1034c4c56f3f""}","https://test12345.live/?num_scrambled_semantic=8&num_scrambled_causal=4&num_scrambled_schematic=4&participantId=267E6DD1BEE049BE916CC50C2F755ED2&assignmentId=1fa982a2-6285-41e2-b4f3-f0e5c73224db&projectId=a9f3d40c-5730-405c-b25e-1034c4c56f3f","267E6DD1BEE049BE916CC50C2F755ED2-2025-08-07-19-05-22","","1387","","images/semantic_sequence/maintaining_a_car_semantic/maintaining_a_car_semantic_9.png","0","",""
"","","","","","image-button-response","65","386093","0.0-12.0-1.0-2.2","267E6DD1BEE049BE916CC50C2F755ED2","267E6DD1BEE049BE916CC50C2F755ED2","1fa982a2-6285-41e2-b4f3-f0e5c73224db","a9f3d40c-5730-405c-b25e-1034c4c56f3f","{""num_scrambled_semantic"":""8"",""num_scrambled_causal"":""4"",""num_scrambled_schematic"":""4"",""participantId"":""267E6DD1BEE049BE916CC50C2F755ED2"",""assignmentId"":""1fa982a2-6285-41e2-b4f3-f0e5c73224db"",""projectId"":""a9f3d40c-5730-405c-b25e-1034c4c56f3f""}","https://test12345.live/?num_scrambled_semantic=8&num_scrambled_causal=4&num_scrambled_schematic=4&participantId=267E6DD1BEE049BE916CC50C2F755ED2&assignmentId=1fa982a2-6285-41e2-b4f3-f0e5c73224db&projectId=a9f3d40c-5730-405c-b25e-1034c4c56f3f","267E6DD1BEE049BE916CC50C2F755ED2-2025-08-07-19-05-22","","null","","[]","null","",""
"","","","","","image-button-response","66","390597","0.0-12.0-1.0-0.3","267E6DD1BEE049BE916CC50C2F755ED2","267E6DD1BEE049BE916CC50C2F755ED2","1fa982a2-6285-41e2-b4f3-f0e5c73224db","a9f3d40c-5730-405c-b25e-1034c4c56f3f","{""num_scrambled_semantic"":""8"",""num_scrambled_causal"":""4"",""num_scrambled_schematic"":""4"",""participantId"":""267E6DD1BEE049BE916CC50C2F755ED2"",""assignmentId"":""1fa982a2-6285-41e2-b4f3-f0e5c73224db"",""projectId"":""a9f3d40c-5730-405c-b25e-1034c4c56f3f""}","https://test12345.live/?num_scrambled_semantic=8&num_scrambled_causal=4&num_scrambled_schematic=4&participantId=267E6DD1BEE049BE916CC50C2F755ED2&assignmentId=1fa982a2-6285-41e2-b4f3-f0e5c73224db&projectId=a9f3d40c-5730-405c-b25e-1034c4c56f3f","267E6DD1BEE049BE916CC50C2F755ED2-2025-08-07-19-05-22","","null","","images/semantic_sequence/maintaining_a_car_semantic/maintaining_a_car_semantic_1.png","null","",""
"","","","","","image-button-response","67","391234","0.0-12.0-1.0-1.3","267E6DD1BEE049BE916CC50C2F755ED2","267E6DD1BEE049BE916CC50C2F755ED2","1fa982a2-6285-41e2-b4f3-f0e5c73224db","a9f3d40c-5730-405c-b25e-1034c4c56f3f","{""num_scrambled_semantic"":""8"",""num_scrambled_causal"":""4"",""num_scrambled_schematic"":""4"",""participantId"":""267E6DD1BEE049BE916CC50C2F755ED2"",""assignmentId"":""1fa982a2-6285-41e2-b4f3-f0e5c73224db"",""projectId"":""a9f3d40c-5730-405c-b25e-1034c4c56f3f""}","https://test12345.live/?num_scrambled_semantic=8&num_scrambled_causal=4&num_scrambled_schematic=4&participantId=267E6DD1BEE049BE916CC50C2F755ED2&assignmentId=1fa982a2-6285-41e2-b4f3-f0e5c73224db&projectId=a9f3d40c-5730-405c-b25e-1034c4c56f3f","267E6DD1BEE049BE916CC50C2F755ED2-2025-08-07-19-05-22","","637","","images/semantic_sequence/maintaining_a_car_semantic/maintaining_a_car_semantic_1.png","0","",""
"","","","","","image-button-response","68","393044","0.0-12.0-1.0-2.3","267E6DD1BEE049BE916CC50C2F755ED2","267E6DD1BEE049BE916CC50C2F755ED2","1fa982a2-6285-41e2-b4f3-f0e5c73224db","a9f3d40c-5730-405c-b25e-1034c4c56f3f","{""num_scrambled_semantic"":""8"",""num_scrambled_causal"":""4"",""num_scrambled_schematic"":""4"",""participantId"":""267E6DD1BEE049BE916CC50C2F755ED2"",""assignmentId"":""1fa982a2-6285-41e2-b4f3-f0e5c73224db"",""projectId"":""a9f3d40c-5730-405c-b25e-1034c4c56f3f""}","https://test12345.live/?num_scrambled_semantic=8&num_scrambled_causal=4&num_scrambled_schematic=4&participantId=267E6DD1BEE049BE916CC50C2F755ED2&assignmentId=1fa982a2-6285-41e2-b4f3-f0e5c73224db&projectId=a9f3d40c-5730-405c-b25e-1034c4c56f3f","267E6DD1BEE049BE916CC50C2F755ED2-2025-08-07-19-05-22","","null","","[]","null","",""
"","","","","","image-button-response","69","397551","0.0-12.0-1.0-0.4","267E6DD1BEE049BE916CC50C2F755ED2","267E6DD1BEE049BE916CC50C2F755ED2","1fa982a2-6285-41e2-b4f3-f0e5c73224db","a9f3d40c-5730-405c-b25e-1034c4c56f3f","{""num_scrambled_semantic"":""8"",""num_scrambled_causal"":""4"",""num_scrambled_schematic"":""4"",""participantId"":""267E6DD1BEE049BE916CC50C2F755ED2"",""assignmentId"":""1fa982a2-6285-41e2-b4f3-f0e5c73224db"",""projectId"":""a9f3d40c-5730-405c-b25e-1034c4c56f3f""}","https://test12345.live/?num_scrambled_semantic=8&num_scrambled_causal=4&num_scrambled_schematic=4&participantId=267E6DD1BEE049BE916CC50C2F755ED2&assignmentId=1fa982a2-6285-41e2-b4f3-f0e5c73224db&projectId=a9f3d40c-5730-405c-b25e-1034c4c56f3f","267E6DD1BEE049BE916CC50C2F755ED2-2025-08-07-19-05-22","","null","","images/semantic_sequence/maintaining_a_car_semantic/maintaining_a_car_semantic_5.png","null","",""
"","","","","","image-button-response","70","398196","0.0-12.0-1.0-1.4","267E6DD1BEE049BE916CC50C2F755ED2","267E6DD1BEE049BE916CC50C2F755ED2","1fa982a2-6285-41e2-b4f3-f0e5c73224db","a9f3d40c-5730-405c-b25e-1034c4c56f3f","{""num_scrambled_semantic"":""8"",""num_scrambled_causal"":""4"",""num_scrambled_schematic"":""4"",""participantId"":""267E6DD1BEE049BE916CC50C2F755ED2"",""assignmentId"":""1fa982a2-6285-41e2-b4f3-f0e5c73224db"",""projectId"":""a9f3d40c-5730-405c-b25e-1034c4c56f3f""}","https://test12345.live/?num_scrambled_semantic=8&num_scrambled_causal=4&num_scrambled_schematic=4&participantId=267E6DD1BEE049BE916CC50C2F755ED2&assignmentId=1fa982a2-6285-41e2-b4f3-f0e5c73224db&projectId=a9f3d40c-5730-405c-b25e-1034c4c56f3f","267E6DD1BEE049BE916CC50C2F755ED2-2025-08-07-19-05-22","","644","","images/semantic_sequence/maintaining_a_car_semantic/maintaining_a_car_semantic_5.png","0","",""
"","","","","","image-button-response","71","399999","0.0-12.0-1.0-2.4","267E6DD1BEE049BE916CC50C2F755ED2","267E6DD1BEE049BE916CC50C2F755ED2","1fa982a2-6285-41e2-b4f3-f0e5c73224db","a9f3d40c-5730-405c-b25e-1034c4c56f3f","{""num_scrambled_semantic"":""8"",""num_scrambled_causal"":""4"",""num_scrambled_schematic"":""4"",""participantId"":""267E6DD1BEE049BE916CC50C2F755ED2"",""assignmentId"":""1fa982a2-6285-41e2-b4f3-f0e5c73224db"",""projectId"":""a9f3d40c-5730-405c-b25e-1034c4c56f3f""}","https://test12345.live/?num_scrambled_semantic=8&num_scrambled_causal=4&num_scrambled_schematic=4&participantId=267E6DD1BEE049BE916CC50C2F755ED2&assignmentId=1fa982a2-6285-41e2-b4f3-f0e5c73224db&projectId=a9f3d40c-5730-405c-b25e-1034c4c56f3f","267E6DD1BEE049BE916CC50C2F755ED2-2025-08-07-19-05-22","","null","","[]","null","",""
"","","","","","image-button-response","72","404503","0.0-12.0-1.0-0.5","267E6DD1BEE049BE916CC50C2F755ED2","267E6DD1BEE049BE916CC50C2F755ED2","1fa982a2-6285-41e2-b4f3-f0e5c73224db","a9f3d40c-5730-405c-b25e-1034c4c56f3f","{""num_scrambled_semantic"":""8"",""num_scrambled_causal"":""4"",""num_scrambled_schematic"":""4"",""participantId"":""267E6DD1BEE049BE916CC50C2F755ED2"",""assignmentId"":""1fa982a2-6285-41e2-b4f3-f0e5c73224db"",""projectId"":""a9f3d40c-5730-405c-b25e-1034c4c56f3f""}","https://test12345.live/?num_scrambled_semantic=8&num_scrambled_causal=4&num_scrambled_schematic=4&participantId=267E6DD1BEE049BE916CC50C2F755ED2&assignmentId=1fa982a2-6285-41e2-b4f3-f0e5c73224db&projectId=a9f3d40c-5730-405c-b25e-1034c4c56f3f","267E6DD1BEE049BE916CC50C2F755ED2-2025-08-07-19-05-22","","null","","images/semantic_sequence/maintaining_a_car_semantic/maintaining_a_car_semantic_ten.png","null","",""
"","","","","","image-button-response","73","405088","0.0-12.0-1.0-1.5","267E6DD1BEE049BE916CC50C2F755ED2","267E6DD1BEE049BE916CC50C2F755ED2","1fa982a2-6285-41e2-b4f3-f0e5c73224db","a9f3d40c-5730-405c-b25e-1034c4c56f3f","{""num_scrambled_semantic"":""8"",""num_scrambled_causal"":""4"",""num_scrambled_schematic"":""4"",""participantId"":""267E6DD1BEE049BE916CC50C2F755ED2"",""assignmentId"":""1fa982a2-6285-41e2-b4f3-f0e5c73224db"",""projectId"":""a9f3d40c-5730-405c-b25e-1034c4c56f3f""}","https://test12345.live/?num_scrambled_semantic=8&num_scrambled_causal=4&num_scrambled_schematic=4&participantId=267E6DD1BEE049BE916CC50C2F755ED2&assignmentId=1fa982a2-6285-41e2-b4f3-f0e5c73224db&projectId=a9f3d40c-5730-405c-b25e-1034c4c56f3f","267E6DD1BEE049BE916CC50C2F755ED2-2025-08-07-19-05-22","","584","","images/semantic_sequence/maintaining_a_car_semantic/maintaining_a_car_semantic_ten.png","0","",""
"","","","","","image-button-response","74","406892","0.0-12.0-1.0-2.5","267E6DD1BEE049BE916CC50C2F755ED2","267E6DD1BEE049BE916CC50C2F755ED2","1fa982a2-6285-41e2-b4f3-f0e5c73224db","a9f3d40c-5730-405c-b25e-1034c4c56f3f","{""num_scrambled_semantic"":""8"",""num_scrambled_causal"":""4"",""num_scrambled_schematic"":""4"",""participantId"":""267E6DD1BEE049BE916CC50C2F755ED2"",""assignmentId"":""1fa982a2-6285-41e2-b4f3-f0e5c73224db"",""projectId"":""a9f3d40c-5730-405c-b25e-1034c4c56f3f""}","https://test12345.live/?num_scrambled_semantic=8&num_scrambled_causal=4&num_scrambled_schematic=4&participantId=267E6DD1BEE049BE916CC50C2F755ED2&assignmentId=1fa982a2-6285-41e2-b4f3-f0e5c73224db&projectId=a9f3d40c-5730-405c-b25e-1034c4c56f3f","267E6DD1BEE049BE916CC50C2F755ED2-2025-08-07-19-05-22","","null","","[]","null","",""
"","","","","","image-button-response","75","411393","0.0-12.0-1.0-0.6","267E6DD1BEE049BE916CC50C2F755ED2","267E6DD1BEE049BE916CC50C2F755ED2","1fa982a2-6285-41e2-b4f3-f0e5c73224db","a9f3d40c-5730-405c-b25e-1034c4c56f3f","{""num_scrambled_semantic"":""8"",""num_scrambled_causal"":""4"",""num_scrambled_schematic"":""4"",""participantId"":""267E6DD1BEE049BE916CC50C2F755ED2"",""assignmentId"":""1fa982a2-6285-41e2-b4f3-f0e5c73224db"",""projectId"":""a9f3d40c-5730-405c-b25e-1034c4c56f3f""}","https://test12345.live/?num_scrambled_semantic=8&num_scrambled_causal=4&num_scrambled_schematic=4&participantId=267E6DD1BEE049BE916CC50C2F755ED2&assignmentId=1fa982a2-6285-41e2-b4f3-f0e5c73224db&projectId=a9f3d40c-5730-405c-b25e-1034c4c56f3f","267E6DD1BEE049BE916CC50C2F755ED2-2025-08-07-19-05-22","","null","","images/semantic_sequence/maintaining_a_car_semantic/maintaining_a_car_semantic_3.png","null","",""
"","","","","","image-button-response","76","412002","0.0-12.0-1.0-1.6","267E6DD1BEE049BE916CC50C2F755ED2","267E6DD1BEE049BE916CC50C2F755ED2","1fa982a2-6285-41e2-b4f3-f0e5c73224db","a9f3d40c-5730-405c-b25e-1034c4c56f3f","{""num_scrambled_semantic"":""8"",""num_scrambled_causal"":""4"",""num_scrambled_schematic"":""4"",""participantId"":""267E6DD1BEE049BE916CC50C2F755ED2"",""assignmentId"":""1fa982a2-6285-41e2-b4f3-f0e5c73224db"",""projectId"":""a9f3d40c-5730-405c-b25e-1034c4c56f3f""}","https://test12345.live/?num_scrambled_semantic=8&num_scrambled_causal=4&num_scrambled_schematic=4&participantId=267E6DD1BEE049BE916CC50C2F755ED2&assignmentId=1fa982a2-6285-41e2-b4f3-f0e5c73224db&projectId=a9f3d40c-5730-405c-b25e-1034c4c56f3f","267E6DD1BEE049BE916CC50C2F755ED2-2025-08-07-19-05-22","","609","","images/semantic_sequence/maintaining_a_car_semantic/maintaining_a_car_semantic_3.png","0","",""
"","","","","","image-button-response","77","413809","0.0-12.0-1.0-2.6","267E6DD1BEE049BE916CC50C2F755ED2","267E6DD1BEE049BE916CC50C2F755ED2","1fa982a2-6285-41e2-b4f3-f0e5c73224db","a9f3d40c-5730-405c-b25e-1034c4c56f3f","{""num_scrambled_semantic"":""8"",""num_scrambled_causal"":""4"",""num_scrambled_schematic"":""4"",""participantId"":""267E6DD1BEE049BE916CC50C2F755ED2"",""assignmentId"":""1fa982a2-6285-41e2-b4f3-f0e5c73224db"",""projectId"":""a9f3d40c-5730-405c-b25e-1034c4c56f3f""}","https://test12345.live/?num_scrambled_semantic=8&num_scrambled_causal=4&num_scrambled_schematic=4&participantId=267E6DD1BEE049BE916CC50C2F755ED2&assignmentId=1fa982a2-6285-41e2-b4f3-f0e5c73224db&projectId=a9f3d40c-5730-405c-b25e-1034c4c56f3f","267E6DD1BEE049BE916CC50C2F755ED2-2025-08-07-19-05-22","","null","","[]","null","",""
"","","","","","image-button-response","78","418322","0.0-12.0-1.0-0.7","267E6DD1BEE049BE916CC50C2F755ED2","267E6DD1BEE049BE916CC50C2F755ED2","1fa982a2-6285-41e2-b4f3-f0e5c73224db","a9f3d40c-5730-405c-b25e-1034c4c56f3f","{""num_scrambled_semantic"":""8"",""num_scrambled_causal"":""4"",""num_scrambled_schematic"":""4"",""participantId"":""267E6DD1BEE049BE916CC50C2F755ED2"",""assignmentId"":""1fa982a2-6285-41e2-b4f3-f0e5c73224db"",""projectId"":""a9f3d40c-5730-405c-b25e-1034c4c56f3f""}","https://test12345.live/?num_scrambled_semantic=8&num_scrambled_causal=4&num_scrambled_schematic=4&participantId=267E6DD1BEE049BE916CC50C2F755ED2&assignmentId=1fa982a2-6285-41e2-b4f3-f0e5c73224db&projectId=a9f3d40c-5730-405c-b25e-1034c4c56f3f","267E6DD1BEE049BE916CC50C2F755ED2-2025-08-07-19-05-22","","null","","images/semantic_sequence/maintaining_a_car_semantic/maintaining_a_car_semantic_8.png","null","",""
"","","","","","image-button-response","79","419664","0.0-12.0-1.0-1.7","267E6DD1BEE049BE916CC50C2F755ED2","267E6DD1BEE049BE916CC50C2F755ED2","1fa982a2-6285-41e2-b4f3-f0e5c73224db","a9f3d40c-5730-405c-b25e-1034c4c56f3f","{""num_scrambled_semantic"":""8"",""num_scrambled_causal"":""4"",""num_scrambled_schematic"":""4"",""participantId"":""267E6DD1BEE049BE916CC50C2F755ED2"",""assignmentId"":""1fa982a2-6285-41e2-b4f3-f0e5c73224db"",""projectId"":""a9f3d40c-5730-405c-b25e-1034c4c56f3f""}","https://test12345.live/?num_scrambled_semantic=8&num_scrambled_causal=4&num_scrambled_schematic=4&participantId=267E6DD1BEE049BE916CC50C2F755ED2&assignmentId=1fa982a2-6285-41e2-b4f3-f0e5c73224db&projectId=a9f3d40c-5730-405c-b25e-1034c4c56f3f","267E6DD1BEE049BE916CC50C2F755ED2-2025-08-07-19-05-22","","1340","","images/semantic_sequence/maintaining_a_car_semantic/maintaining_a_car_semantic_8.png","0","",""
"","","","","","image-button-response","80","421476","0.0-12.0-1.0-2.7","267E6DD1BEE049BE916CC50C2F755ED2","267E6DD1BEE049BE916CC50C2F755ED2","1fa982a2-6285-41e2-b4f3-f0e5c73224db","a9f3d40c-5730-405c-b25e-1034c4c56f3f","{""num_scrambled_semantic"":""8"",""num_scrambled_causal"":""4"",""num_scrambled_schematic"":""4"",""participantId"":""267E6DD1BEE049BE916CC50C2F755ED2"",""assignmentId"":""1fa982a2-6285-41e2-b4f3-f0e5c73224db"",""projectId"":""a9f3d40c-5730-405c-b25e-1034c4c56f3f""}","https://test12345.live/?num_scrambled_semantic=8&num_scrambled_causal=4&num_scrambled_schematic=4&participantId=267E6DD1BEE049BE916CC50C2F755ED2&assignmentId=1fa982a2-6285-41e2-b4f3-f0e5c73224db&projectId=a9f3d40c-5730-405c-b25e-1034c4c56f3f","267E6DD1BEE049BE916CC50C2F755ED2-2025-08-07-19-05-22","","null","","[]","null","",""
"","","","","","image-button-response","81","425982","0.0-12.0-1.0-0.8","267E6DD1BEE049BE916CC50C2F755ED2","267E6DD1BEE049BE916CC50C2F755ED2","1fa982a2-6285-41e2-b4f3-f0e5c73224db","a9f3d40c-5730-405c-b25e-1034c4c56f3f","{""num_scrambled_semantic"":""8"",""num_scrambled_causal"":""4"",""num_scrambled_schematic"":""4"",""participantId"":""267E6DD1BEE049BE916CC50C2F755ED2"",""assignmentId"":""1fa982a2-6285-41e2-b4f3-f0e5c73224db"",""projectId"":""a9f3d40c-5730-405c-b25e-1034c4c56f3f""}","https://test12345.live/?num_scrambled_semantic=8&num_scrambled_causal=4&num_scrambled_schematic=4&participantId=267E6DD1BEE049BE916CC50C2F755ED2&assignmentId=1fa982a2-6285-41e2-b4f3-f0e5c73224db&projectId=a9f3d40c-5730-405c-b25e-1034c4c56f3f","267E6DD1BEE049BE916CC50C2F755ED2-2025-08-07-19-05-22","","null","","images/semantic_sequence/maintaining_a_car_semantic/maintaining_a_car_semantic_7.png","null","",""
"","","","","","image-button-response","82","427516","0.0-12.0-1.0-1.8","267E6DD1BEE049BE916CC50C2F755ED2","267E6DD1BEE049BE916CC50C2F755ED2","1fa982a2-6285-41e2-b4f3-f0e5c73224db","a9f3d40c-5730-405c-b25e-1034c4c56f3f","{""num_scrambled_semantic"":""8"",""num_scrambled_causal"":""4"",""num_scrambled_schematic"":""4"",""participantId"":""267E6DD1BEE049BE916CC50C2F755ED2"",""assignmentId"":""1fa982a2-6285-41e2-b4f3-f0e5c73224db"",""projectId"":""a9f3d40c-5730-405c-b25e-1034c4c56f3f""}","https://test12345.live/?num_scrambled_semantic=8&num_scrambled_causal=4&num_scrambled_schematic=4&participantId=267E6DD1BEE049BE916CC50C2F755ED2&assignmentId=1fa982a2-6285-41e2-b4f3-f0e5c73224db&projectId=a9f3d40c-5730-405c-b25e-1034c4c56f3f","267E6DD1BEE049BE916CC50C2F755ED2-2025-08-07-19-05-22","","1533","","images/semantic_sequence/maintaining_a_car_semantic/maintaining_a_car_semantic_7.png","0","",""
"","","","","","image-button-response","83","429320","0.0-12.0-1.0-2.8","267E6DD1BEE049BE916CC50C2F755ED2","267E6DD1BEE049BE916CC50C2F755ED2","1fa982a2-6285-41e2-b4f3-f0e5c73224db","a9f3d40c-5730-405c-b25e-1034c4c56f3f","{""num_scrambled_semantic"":""8"",""num_scrambled_causal"":""4"",""num_scrambled_schematic"":""4"",""participantId"":""267E6DD1BEE049BE916CC50C2F755ED2"",""assignmentId"":""1fa982a2-6285-41e2-b4f3-f0e5c73224db"",""projectId"":""a9f3d40c-5730-405c-b25e-1034c4c56f3f""}","https://test12345.live/?num_scrambled_semantic=8&num_scrambled_causal=4&num_scrambled_schematic=4&participantId=267E6DD1BEE049BE916CC50C2F755ED2&assignmentId=1fa982a2-6285-41e2-b4f3-f0e5c73224db&projectId=a9f3d40c-5730-405c-b25e-1034c4c56f3f","267E6DD1BEE049BE916CC50C2F755ED2-2025-08-07-19-05-22","","null","","[]","null","",""
"","","","","","image-button-response","84","433825","0.0-12.0-1.0-0.9","267E6DD1BEE049BE916CC50C2F755ED2","267E6DD1BEE049BE916CC50C2F755ED2","1fa982a2-6285-41e2-b4f3-f0e5c73224db","a9f3d40c-5730-405c-b25e-1034c4c56f3f","{""num_scrambled_semantic"":""8"",""num_scrambled_causal"":""4"",""num_scrambled_schematic"":""4"",""participantId"":""267E6DD1BEE049BE916CC50C2F755ED2"",""assignmentId"":""1fa982a2-6285-41e2-b4f3-f0e5c73224db"",""projectId"":""a9f3d40c-5730-405c-b25e-1034c4c56f3f""}","https://test12345.live/?num_scrambled_semantic=8&num_scrambled_causal=4&num_scrambled_schematic=4&participantId=267E6DD1BEE049BE916CC50C2F755ED2&assignmentId=1fa982a2-6285-41e2-b4f3-f0e5c73224db&projectId=a9f3d40c-5730-405c-b25e-1034c4c56f3f","267E6DD1BEE049BE916CC50C2F755ED2-2025-08-07-19-05-22","","null","","images/semantic_sequence/maintaining_a_car_semantic/maintaining_a_car_semantic_6.png","null","",""
"","","","","","image-button-response","85","434858","0.0-12.0-1.0-1.9","267E6DD1BEE049BE916CC50C2F755ED2","267E6DD1BEE049BE916CC50C2F755ED2","1fa982a2-6285-41e2-b4f3-f0e5c73224db","a9f3d40c-5730-405c-b25e-1034c4c56f3f","{""num_scrambled_semantic"":""8"",""num_scrambled_causal"":""4"",""num_scrambled_schematic"":""4"",""participantId"":""267E6DD1BEE049BE916CC50C2F755ED2"",""assignmentId"":""1fa982a2-6285-41e2-b4f3-f0e5c73224db"",""projectId"":""a9f3d40c-5730-405c-b25e-1034c4c56f3f""}","https://test12345.live/?num_scrambled_semantic=8&num_scrambled_causal=4&num_scrambled_schematic=4&participantId=267E6DD1BEE049BE916CC50C2F755ED2&assignmentId=1fa982a2-6285-41e2-b4f3-f0e5c73224db&projectId=a9f3d40c-5730-405c-b25e-1034c4c56f3f","267E6DD1BEE049BE916CC50C2F755ED2-2025-08-07-19-05-22","","1032","","images/semantic_sequence/maintaining_a_car_semantic/maintaining_a_car_semantic_6.png","0","",""
"","","","","","image-button-response","86","436664","0.0-12.0-1.0-2.9","267E6DD1BEE049BE916CC50C2F755ED2","267E6DD1BEE049BE916CC50C2F755ED2","1fa982a2-6285-41e2-b4f3-f0e5c73224db","a9f3d40c-5730-405c-b25e-1034c4c56f3f","{""num_scrambled_semantic"":""8"",""num_scrambled_causal"":""4"",""num_scrambled_schematic"":""4"",""participantId"":""267E6DD1BEE049BE916CC50C2F755ED2"",""assignmentId"":""1fa982a2-6285-41e2-b4f3-f0e5c73224db"",""projectId"":""a9f3d40c-5730-405c-b25e-1034c4c56f3f""}","https://test12345.live/?num_scrambled_semantic=8&num_scrambled_causal=4&num_scrambled_schematic=4&participantId=267E6DD1BEE049BE916CC50C2F755ED2&assignmentId=1fa982a2-6285-41e2-b4f3-f0e5c73224db&projectId=a9f3d40c-5730-405c-b25e-1034c4c56f3f","267E6DD1BEE049BE916CC50C2F755ED2-2025-08-07-19-05-22","","null","","[]","null","",""
"","","","","","html-audio-response","87","467412","0.0-13.0","267E6DD1BEE049BE916CC50C2F755ED2","267E6DD1BEE049BE916CC50C2F755ED2","1fa982a2-6285-41e2-b4f3-f0e5c73224db","a9f3d40c-5730-405c-b25e-1034c4c56f3f","{""num_scrambled_semantic"":""8"",""num_scrambled_causal"":""4"",""num_scrambled_schematic"":""4"",""participantId"":""267E6DD1BEE049BE916CC50C2F755ED2"",""assignmentId"":""1fa982a2-6285-41e2-b4f3-f0e5c73224db"",""projectId"":""a9f3d40c-5730-405c-b25e-1034c4c56f3f""}","https://test12345.live/?num_scrambled_semantic=8&num_scrambled_causal=4&num_scrambled_schematic=4&participantId=267E6DD1BEE049BE916CC50C2F755ED2&assignmentId=1fa982a2-6285-41e2-b4f3-f0e5c73224db&projectId=a9f3d40c-5730-405c-b25e-1034c4c56f3f","267E6DD1BEE049BE916CC50C2F755ED2-2025-08-07-19-05-22","","28638","","[""<span style=\""color: red; font-size: 24px\""> NOW RECORDING</span><p>Please say out loud all the images you saw, as many as you can remember. The images can be said in any order.</p>""]","","1","maintaining_a_car_semantic"
"","","","","","image-button-response","88","473416","0.0-14.0-0.0","267E6DD1BEE049BE916CC50C2F755ED2","267E6DD1BEE049BE916CC50C2F755ED2","1fa982a2-6285-41e2-b4f3-f0e5c73224db","a9f3d40c-5730-405c-b25e-1034c4c56f3f","{""num_scrambled_semantic"":""8"",""num_scrambled_causal"":""4"",""num_scrambled_schematic"":""4"",""participantId"":""267E6DD1BEE049BE916CC50C2F755ED2"",""assignmentId"":""1fa982a2-6285-41e2-b4f3-f0e5c73224db"",""projectId"":""a9f3d40c-5730-405c-b25e-1034c4c56f3f""}","https://test12345.live/?num_scrambled_semantic=8&num_scrambled_causal=4&num_scrambled_schematic=4&participantId=267E6DD1BEE049BE916CC50C2F755ED2&assignmentId=1fa982a2-6285-41e2-b4f3-f0e5c73224db&projectId=a9f3d40c-5730-405c-b25e-1034c4c56f3f","267E6DD1BEE049BE916CC50C2F755ED2-2025-08-07-19-05-22","","null","","images/causal_sequence/dog_causal/dog_causal_0.png","null","",""
"","","","","","image-button-response","89","477929","0.0-14.0-1.0-0.0","267E6DD1BEE049BE916CC50C2F755ED2","267E6DD1BEE049BE916CC50C2F755ED2","1fa982a2-6285-41e2-b4f3-f0e5c73224db","a9f3d40c-5730-405c-b25e-1034c4c56f3f","{""num_scrambled_semantic"":""8"",""num_scrambled_causal"":""4"",""num_scrambled_schematic"":""4"",""participantId"":""267E6DD1BEE049BE916CC50C2F755ED2"",""assignmentId"":""1fa982a2-6285-41e2-b4f3-f0e5c73224db"",""projectId"":""a9f3d40c-5730-405c-b25e-1034c4c56f3f""}","https://test12345.live/?num_scrambled_semantic=8&num_scrambled_causal=4&num_scrambled_schematic=4&participantId=267E6DD1BEE049BE916CC50C2F755ED2&assignmentId=1fa982a2-6285-41e2-b4f3-f0e5c73224db&projectId=a9f3d40c-5730-405c-b25e-1034c4c56f3f","267E6DD1BEE049BE916CC50C2F755ED2-2025-08-07-19-05-22","","null","","images/causal_sequence/dog_causal/dog_causal_4.png","null","",""
"","","","","","image-button-response","90","480894","0.0-14.0-1.0-1.0","267E6DD1BEE049BE916CC50C2F755ED2","267E6DD1BEE049BE916CC50C2F755ED2","1fa982a2-6285-41e2-b4f3-f0e5c73224db","a9f3d40c-5730-405c-b25e-1034c4c56f3f","{""num_scrambled_semantic"":""8"",""num_scrambled_causal"":""4"",""num_scrambled_schematic"":""4"",""participantId"":""267E6DD1BEE049BE916CC50C2F755ED2"",""assignmentId"":""1fa982a2-6285-41e2-b4f3-f0e5c73224db"",""projectId"":""a9f3d40c-5730-405c-b25e-1034c4c56f3f""}","https://test12345.live/?num_scrambled_semantic=8&num_scrambled_causal=4&num_scrambled_schematic=4&participantId=267E6DD1BEE049BE916CC50C2F755ED2&assignmentId=1fa982a2-6285-41e2-b4f3-f0e5c73224db&projectId=a9f3d40c-5730-405c-b25e-1034c4c56f3f","267E6DD1BEE049BE916CC50C2F755ED2-2025-08-07-19-05-22","","2965","","images/causal_sequence/dog_causal/dog_causal_4.png","0","",""
"","","","","","image-button-response","91","482697","0.0-14.0-1.0-2.0","267E6DD1BEE049BE916CC50C2F755ED2","267E6DD1BEE049BE916CC50C2F755ED2","1fa982a2-6285-41e2-b4f3-f0e5c73224db","a9f3d40c-5730-405c-b25e-1034c4c56f3f","{""num_scrambled_semantic"":""8"",""num_scrambled_causal"":""4"",""num_scrambled_schematic"":""4"",""participantId"":""267E6DD1BEE049BE916CC50C2F755ED2"",""assignmentId"":""1fa982a2-6285-41e2-b4f3-f0e5c73224db"",""projectId"":""a9f3d40c-5730-405c-b25e-1034c4c56f3f""}","https://test12345.live/?num_scrambled_semantic=8&num_scrambled_causal=4&num_scrambled_schematic=4&participantId=267E6DD1BEE049BE916CC50C2F755ED2&assignmentId=1fa982a2-6285-41e2-b4f3-f0e5c73224db&projectId=a9f3d40c-5730-405c-b25e-1034c4c56f3f","267E6DD1BEE049BE916CC50C2F755ED2-2025-08-07-19-05-22","","null","","[]","null","",""
"","","","","","image-button-response","92","487200","0.0-14.0-1.0-0.1","267E6DD1BEE049BE916CC50C2F755ED2","267E6DD1BEE049BE916CC50C2F755ED2","1fa982a2-6285-41e2-b4f3-f0e5c73224db","a9f3d40c-5730-405c-b25e-1034c4c56f3f","{""num_scrambled_semantic"":""8"",""num_scrambled_causal"":""4"",""num_scrambled_schematic"":""4"",""participantId"":""267E6DD1BEE049BE916CC50C2F755ED2"",""assignmentId"":""1fa982a2-6285-41e2-b4f3-f0e5c73224db"",""projectId"":""a9f3d40c-5730-405c-b25e-1034c4c56f3f""}","https://test12345.live/?num_scrambled_semantic=8&num_scrambled_causal=4&num_scrambled_schematic=4&participantId=267E6DD1BEE049BE916CC50C2F755ED2&assignmentId=1fa982a2-6285-41e2-b4f3-f0e5c73224db&projectId=a9f3d40c-5730-405c-b25e-1034c4c56f3f","267E6DD1BEE049BE916CC50C2F755ED2-2025-08-07-19-05-22","","null","","images/causal_sequence/dog_causal/dog_causal_2.png","null","",""
"","","","","","image-button-response","93","489106","0.0-14.0-1.0-1.1","267E6DD1BEE049BE916CC50C2F755ED2","267E6DD1BEE049BE916CC50C2F755ED2","1fa982a2-6285-41e2-b4f3-f0e5c73224db","a9f3d40c-5730-405c-b25e-1034c4c56f3f","{""num_scrambled_semantic"":""8"",""num_scrambled_causal"":""4"",""num_scrambled_schematic"":""4"",""participantId"":""267E6DD1BEE049BE916CC50C2F755ED2"",""assignmentId"":""1fa982a2-6285-41e2-b4f3-f0e5c73224db"",""projectId"":""a9f3d40c-5730-405c-b25e-1034c4c56f3f""}","https://test12345.live/?num_scrambled_semantic=8&num_scrambled_causal=4&num_scrambled_schematic=4&participantId=267E6DD1BEE049BE916CC50C2F755ED2&assignmentId=1fa982a2-6285-41e2-b4f3-f0e5c73224db&projectId=a9f3d40c-5730-405c-b25e-1034c4c56f3f","267E6DD1BEE049BE916CC50C2F755ED2-2025-08-07-19-05-22","","1905","","images/causal_sequence/dog_causal/dog_causal_2.png","0","",""
"","","","","","image-button-response","94","490922","0.0-14.0-1.0-2.1","267E6DD1BEE049BE916CC50C2F755ED2","267E6DD1BEE049BE916CC50C2F755ED2","1fa982a2-6285-41e2-b4f3-f0e5c73224db","a9f3d40c-5730-405c-b25e-1034c4c56f3f","{""num_scrambled_semantic"":""8"",""num_scrambled_causal"":""4"",""num_scrambled_schematic"":""4"",""participantId"":""267E6DD1BEE049BE916CC50C2F755ED2"",""assignmentId"":""1fa982a2-6285-41e2-b4f3-f0e5c73224db"",""projectId"":""a9f3d40c-5730-405c-b25e-1034c4c56f3f""}","https://test12345.live/?num_scrambled_semantic=8&num_scrambled_causal=4&num_scrambled_schematic=4&participantId=267E6DD1BEE049BE916CC50C2F755ED2&assignmentId=1fa982a2-6285-41e2-b4f3-f0e5c73224db&projectId=a9f3d40c-5730-405c-b25e-1034c4c56f3f","267E6DD1BEE049BE916CC50C2F755ED2-2025-08-07-19-05-22","","null","","[]","null","",""
"","","","","","image-button-response","95","495432","0.0-14.0-1.0-0.2","267E6DD1BEE049BE916CC50C2F755ED2","267E6DD1BEE049BE916CC50C2F755ED2","1fa982a2-6285-41e2-b4f3-f0e5c73224db","a9f3d40c-5730-405c-b25e-1034c4c56f3f","{""num_scrambled_semantic"":""8"",""num_scrambled_causal"":""4"",""num_scrambled_schematic"":""4"",""participantId"":""267E6DD1BEE049BE916CC50C2F755ED2"",""assignmentId"":""1fa982a2-6285-41e2-b4f3-f0e5c73224db"",""projectId"":""a9f3d40c-5730-405c-b25e-1034c4c56f3f""}","https://test12345.live/?num_scrambled_semantic=8&num_scrambled_causal=4&num_scrambled_schematic=4&participantId=267E6DD1BEE049BE916CC50C2F755ED2&assignmentId=1fa982a2-6285-41e2-b4f3-f0e5c73224db&projectId=a9f3d40c-5730-405c-b25e-1034c4c56f3f","267E6DD1BEE049BE916CC50C2F755ED2-2025-08-07-19-05-22","","null","","images/causal_sequence/dog_causal/dog_causal_ten.png","null","",""
"","","","","","image-button-response","96","499210","0.0-14.0-1.0-1.2","267E6DD1BEE049BE916CC50C2F755ED2","267E6DD1BEE049BE916CC50C2F755ED2","1fa982a2-6285-41e2-b4f3-f0e5c73224db","a9f3d40c-5730-405c-b25e-1034c4c56f3f","{""num_scrambled_semantic"":""8"",""num_scrambled_causal"":""4"",""num_scrambled_schematic"":""4"",""participantId"":""267E6DD1BEE049BE916CC50C2F755ED2"",""assignmentId"":""1fa982a2-6285-41e2-b4f3-f0e5c73224db"",""projectId"":""a9f3d40c-5730-405c-b25e-1034c4c56f3f""}","https://test12345.live/?num_scrambled_semantic=8&num_scrambled_causal=4&num_scrambled_schematic=4&participantId=267E6DD1BEE049BE916CC50C2F755ED2&assignmentId=1fa982a2-6285-41e2-b4f3-f0e5c73224db&projectId=a9f3d40c-5730-405c-b25e-1034c4c56f3f","267E6DD1BEE049BE916CC50C2F755ED2-2025-08-07-19-05-22","","3777","","images/causal_sequence/dog_causal/dog_causal_ten.png","0","",""
"","","","","","image-button-response","97","501017","0.0-14.0-1.0-2.2","267E6DD1BEE049BE916CC50C2F755ED2","267E6DD1BEE049BE916CC50C2F755ED2","1fa982a2-6285-41e2-b4f3-f0e5c73224db","a9f3d40c-5730-405c-b25e-1034c4c56f3f","{""num_scrambled_semantic"":""8"",""num_scrambled_causal"":""4"",""num_scrambled_schematic"":""4"",""participantId"":""267E6DD1BEE049BE916CC50C2F755ED2"",""assignmentId"":""1fa982a2-6285-41e2-b4f3-f0e5c73224db"",""projectId"":""a9f3d40c-5730-405c-b25e-1034c4c56f3f""}","https://test12345.live/?num_scrambled_semantic=8&num_scrambled_causal=4&num_scrambled_schematic=4&participantId=267E6DD1BEE049BE916CC50C2F755ED2&assignmentId=1fa982a2-6285-41e2-b4f3-f0e5c73224db&projectId=a9f3d40c-5730-405c-b25e-1034c4c56f3f","267E6DD1BEE049BE916CC50C2F755ED2-2025-08-07-19-05-22","","null","","[]","null","",""
"","","","","","image-button-response","98","505518","0.0-14.0-1.0-0.3","267E6DD1BEE049BE916CC50C2F755ED2","267E6DD1BEE049BE916CC50C2F755ED2","1fa982a2-6285-41e2-b4f3-f0e5c73224db","a9f3d40c-5730-405c-b25e-1034c4c56f3f","{""num_scrambled_semantic"":""8"",""num_scrambled_causal"":""4"",""num_scrambled_schematic"":""4"",""participantId"":""267E6DD1BEE049BE916CC50C2F755ED2"",""assignmentId"":""1fa982a2-6285-41e2-b4f3-f0e5c73224db"",""projectId"":""a9f3d40c-5730-405c-b25e-1034c4c56f3f""}","https://test12345.live/?num_scrambled_semantic=8&num_scrambled_causal=4&num_scrambled_schematic=4&participantId=267E6DD1BEE049BE916CC50C2F755ED2&assignmentId=1fa982a2-6285-41e2-b4f3-f0e5c73224db&projectId=a9f3d40c-5730-405c-b25e-1034c4c56f3f","267E6DD1BEE049BE916CC50C2F755ED2-2025-08-07-19-05-22","","null","","images/causal_sequence/dog_causal/dog_causal_8.png","null","",""
"","","","","","image-button-response","99","507482","0.0-14.0-1.0-1.3","267E6DD1BEE049BE916CC50C2F755ED2","267E6DD1BEE049BE916CC50C2F755ED2","1fa982a2-6285-41e2-b4f3-f0e5c73224db","a9f3d40c-5730-405c-b25e-1034c4c56f3f","{""num_scrambled_semantic"":""8"",""num_scrambled_causal"":""4"",""num_scrambled_schematic"":""4"",""participantId"":""267E6DD1BEE049BE916CC50C2F755ED2"",""assignmentId"":""1fa982a2-6285-41e2-b4f3-f0e5c73224db"",""projectId"":""a9f3d40c-5730-405c-b25e-1034c4c56f3f""}","https://test12345.live/?num_scrambled_semantic=8&num_scrambled_causal=4&num_scrambled_schematic=4&participantId=267E6DD1BEE049BE916CC50C2F755ED2&assignmentId=1fa982a2-6285-41e2-b4f3-f0e5c73224db&projectId=a9f3d40c-5730-405c-b25e-1034c4c56f3f","267E6DD1BEE049BE916CC50C2F755ED2-2025-08-07-19-05-22","","1963","","images/causal_sequence/dog_causal/dog_causal_8.png","0","",""
"","","","","","image-button-response","100","509292","0.0-14.0-1.0-2.3","267E6DD1BEE049BE916CC50C2F755ED2","267E6DD1BEE049BE916CC50C2F755ED2","1fa982a2-6285-41e2-b4f3-f0e5c73224db","a9f3d40c-5730-405c-b25e-1034c4c56f3f","{""num_scrambled_semantic"":""8"",""num_scrambled_causal"":""4"",""num_scrambled_schematic"":""4"",""participantId"":""267E6DD1BEE049BE916CC50C2F755ED2"",""assignmentId"":""1fa982a2-6285-41e2-b4f3-f0e5c73224db"",""projectId"":""a9f3d40c-5730-405c-b25e-1034c4c56f3f""}","https://test12345.live/?num_scrambled_semantic=8&num_scrambled_causal=4&num_scrambled_schematic=4&participantId=267E6DD1BEE049BE916CC50C2F755ED2&assignmentId=1fa982a2-6285-41e2-b4f3-f0e5c73224db&projectId=a9f3d40c-5730-405c-b25e-1034c4c56f3f","267E6DD1BEE049BE916CC50C2F755ED2-2025-08-07-19-05-22","","null","","[]","null","",""
"","","","","","image-button-response","101","513802","0.0-14.0-1.0-0.4","267E6DD1BEE049BE916CC50C2F755ED2","267E6DD1BEE049BE916CC50C2F755ED2","1fa982a2-6285-41e2-b4f3-f0e5c73224db","a9f3d40c-5730-405c-b25e-1034c4c56f3f","{""num_scrambled_semantic"":""8"",""num_scrambled_causal"":""4"",""num_scrambled_schematic"":""4"",""participantId"":""267E6DD1BEE049BE916CC50C2F755ED2"",""assignmentId"":""1fa982a2-6285-41e2-b4f3-f0e5c73224db"",""projectId"":""a9f3d40c-5730-405c-b25e-1034c4c56f3f""}","https://test12345.live/?num_scrambled_semantic=8&num_scrambled_causal=4&num_scrambled_schematic=4&participantId=267E6DD1BEE049BE916CC50C2F755ED2&assignmentId=1fa982a2-6285-41e2-b4f3-f0e5c73224db&projectId=a9f3d40c-5730-405c-b25e-1034c4c56f3f","267E6DD1BEE049BE916CC50C2F755ED2-2025-08-07-19-05-22","","null","","images/causal_sequence/dog_causal/dog_causal_3.png","null","",""
"","","","","","image-button-response","102","514964","0.0-14.0-1.0-1.4","267E6DD1BEE049BE916CC50C2F755ED2","267E6DD1BEE049BE916CC50C2F755ED2","1fa982a2-6285-41e2-b4f3-f0e5c73224db","a9f3d40c-5730-405c-b25e-1034c4c56f3f","{""num_scrambled_semantic"":""8"",""num_scrambled_causal"":""4"",""num_scrambled_schematic"":""4"",""participantId"":""267E6DD1BEE049BE916CC50C2F755ED2"",""assignmentId"":""1fa982a2-6285-41e2-b4f3-f0e5c73224db"",""projectId"":""a9f3d40c-5730-405c-b25e-1034c4c56f3f""}","https://test12345.live/?num_scrambled_semantic=8&num_scrambled_causal=4&num_scrambled_schematic=4&participantId=267E6DD1BEE049BE916CC50C2F755ED2&assignmentId=1fa982a2-6285-41e2-b4f3-f0e5c73224db&projectId=a9f3d40c-5730-405c-b25e-1034c4c56f3f","267E6DD1BEE049BE916CC50C2F755ED2-2025-08-07-19-05-22","","1161","","images/causal_sequence/dog_causal/dog_causal_3.png","0","",""
"","","","","","image-button-response","103","516773","0.0-14.0-1.0-2.4","267E6DD1BEE049BE916CC50C2F755ED2","267E6DD1BEE049BE916CC50C2F755ED2","1fa982a2-6285-41e2-b4f3-f0e5c73224db","a9f3d40c-5730-405c-b25e-1034c4c56f3f","{""num_scrambled_semantic"":""8"",""num_scrambled_causal"":""4"",""num_scrambled_schematic"":""4"",""participantId"":""267E6DD1BEE049BE916CC50C2F755ED2"",""assignmentId"":""1fa982a2-6285-41e2-b4f3-f0e5c73224db"",""projectId"":""a9f3d40c-5730-405c-b25e-1034c4c56f3f""}","https://test12345.live/?num_scrambled_semantic=8&num_scrambled_causal=4&num_scrambled_schematic=4&participantId=267E6DD1BEE049BE916CC50C2F755ED2&assignmentId=1fa982a2-6285-41e2-b4f3-f0e5c73224db&projectId=a9f3d40c-5730-405c-b25e-1034c4c56f3f","267E6DD1BEE049BE916CC50C2F755ED2-2025-08-07-19-05-22","","null","","[]","null","",""
"","","","","","image-button-response","104","521279","0.0-14.0-1.0-0.5","267E6DD1BEE049BE916CC50C2F755ED2","267E6DD1BEE049BE916CC50C2F755ED2","1fa982a2-6285-41e2-b4f3-f0e5c73224db","a9f3d40c-5730-405c-b25e-1034c4c56f3f","{""num_scrambled_semantic"":""8"",""num_scrambled_causal"":""4"",""num_scrambled_schematic"":""4"",""participantId"":""267E6DD1BEE049BE916CC50C2F755ED2"",""assignmentId"":""1fa982a2-6285-41e2-b4f3-f0e5c73224db"",""projectId"":""a9f3d40c-5730-405c-b25e-1034c4c56f3f""}","https://test12345.live/?num_scrambled_semantic=8&num_scrambled_causal=4&num_scrambled_schematic=4&participantId=267E6DD1BEE049BE916CC50C2F755ED2&assignmentId=1fa982a2-6285-41e2-b4f3-f0e5c73224db&projectId=a9f3d40c-5730-405c-b25e-1034c4c56f3f","267E6DD1BEE049BE916CC50C2F755ED2-2025-08-07-19-05-22","","null","","images/causal_sequence/dog_causal/dog_causal_9.png","null","",""
"","","","","","image-button-response","105","523116","0.0-14.0-1.0-1.5","267E6DD1BEE049BE916CC50C2F755ED2","267E6DD1BEE049BE916CC50C2F755ED2","1fa982a2-6285-41e2-b4f3-f0e5c73224db","a9f3d40c-5730-405c-b25e-1034c4c56f3f","{""num_scrambled_semantic"":""8"",""num_scrambled_causal"":""4"",""num_scrambled_schematic"":""4"",""participantId"":""267E6DD1BEE049BE916CC50C2F755ED2"",""assignmentId"":""1fa982a2-6285-41e2-b4f3-f0e5c73224db"",""projectId"":""a9f3d40c-5730-405c-b25e-1034c4c56f3f""}","https://test12345.live/?num_scrambled_semantic=8&num_scrambled_causal=4&num_scrambled_schematic=4&participantId=267E6DD1BEE049BE916CC50C2F755ED2&assignmentId=1fa982a2-6285-41e2-b4f3-f0e5c73224db&projectId=a9f3d40c-5730-405c-b25e-1034c4c56f3f","267E6DD1BEE049BE916CC50C2F755ED2-2025-08-07-19-05-22","","1837","","images/causal_sequence/dog_causal/dog_causal_9.png","0","",""
"","","","","","image-button-response","106","524923","0.0-14.0-1.0-2.5","267E6DD1BEE049BE916CC50C2F755ED2","267E6DD1BEE049BE916CC50C2F755ED2","1fa982a2-6285-41e2-b4f3-f0e5c73224db","a9f3d40c-5730-405c-b25e-1034c4c56f3f","{""num_scrambled_semantic"":""8"",""num_scrambled_causal"":""4"",""num_scrambled_schematic"":""4"",""participantId"":""267E6DD1BEE049BE916CC50C2F755ED2"",""assignmentId"":""1fa982a2-6285-41e2-b4f3-f0e5c73224db"",""projectId"":""a9f3d40c-5730-405c-b25e-1034c4c56f3f""}","https://test12345.live/?num_scrambled_semantic=8&num_scrambled_causal=4&num_scrambled_schematic=4&participantId=267E6DD1BEE049BE916CC50C2F755ED2&assignmentId=1fa982a2-6285-41e2-b4f3-f0e5c73224db&projectId=a9f3d40c-5730-405c-b25e-1034c4c56f3f","267E6DD1BEE049BE916CC50C2F755ED2-2025-08-07-19-05-22","","null","","[]","null","",""
"","","","","","image-button-response","107","529426","0.0-14.0-1.0-0.6","267E6DD1BEE049BE916CC50C2F755ED2","267E6DD1BEE049BE916CC50C2F755ED2","1fa982a2-6285-41e2-b4f3-f0e5c73224db","a9f3d40c-5730-405c-b25e-1034c4c56f3f","{""num_scrambled_semantic"":""8"",""num_scrambled_causal"":""4"",""num_scrambled_schematic"":""4"",""participantId"":""267E6DD1BEE049BE916CC50C2F755ED2"",""assignmentId"":""1fa982a2-6285-41e2-b4f3-f0e5c73224db"",""projectId"":""a9f3d40c-5730-405c-b25e-1034c4c56f3f""}","https://test12345.live/?num_scrambled_semantic=8&num_scrambled_causal=4&num_scrambled_schematic=4&participantId=267E6DD1BEE049BE916CC50C2F755ED2&assignmentId=1fa982a2-6285-41e2-b4f3-f0e5c73224db&projectId=a9f3d40c-5730-405c-b25e-1034c4c56f3f","267E6DD1BEE049BE916CC50C2F755ED2-2025-08-07-19-05-22","","null","","images/causal_sequence/dog_causal/dog_causal_6.png","null","",""
"","","","","","image-button-response","108","533439","0.0-14.0-1.0-1.6","267E6DD1BEE049BE916CC50C2F755ED2","267E6DD1BEE049BE916CC50C2F755ED2","1fa982a2-6285-41e2-b4f3-f0e5c73224db","a9f3d40c-5730-405c-b25e-1034c4c56f3f","{""num_scrambled_semantic"":""8"",""num_scrambled_causal"":""4"",""num_scrambled_schematic"":""4"",""participantId"":""267E6DD1BEE049BE916CC50C2F755ED2"",""assignmentId"":""1fa982a2-6285-41e2-b4f3-f0e5c73224db"",""projectId"":""a9f3d40c-5730-405c-b25e-1034c4c56f3f""}","https://test12345.live/?num_scrambled_semantic=8&num_scrambled_causal=4&num_scrambled_schematic=4&participantId=267E6DD1BEE049BE916CC50C2F755ED2&assignmentId=1fa982a2-6285-41e2-b4f3-f0e5c73224db&projectId=a9f3d40c-5730-405c-b25e-1034c4c56f3f","267E6DD1BEE049BE916CC50C2F755ED2-2025-08-07-19-05-22","","null","","images/causal_sequence/dog_causal/dog_causal_6.png","null","",""
"","","","","","image-button-response","109","535242","0.0-14.0-1.0-2.6","267E6DD1BEE049BE916CC50C2F755ED2","267E6DD1BEE049BE916CC50C2F755ED2","1fa982a2-6285-41e2-b4f3-f0e5c73224db","a9f3d40c-5730-405c-b25e-1034c4c56f3f","{""num_scrambled_semantic"":""8"",""num_scrambled_causal"":""4"",""num_scrambled_schematic"":""4"",""participantId"":""267E6DD1BEE049BE916CC50C2F755ED2"",""assignmentId"":""1fa982a2-6285-41e2-b4f3-f0e5c73224db"",""projectId"":""a9f3d40c-5730-405c-b25e-1034c4c56f3f""}","https://test12345.live/?num_scrambled_semantic=8&num_scrambled_causal=4&num_scrambled_schematic=4&participantId=267E6DD1BEE049BE916CC50C2F755ED2&assignmentId=1fa982a2-6285-41e2-b4f3-f0e5c73224db&projectId=a9f3d40c-5730-405c-b25e-1034c4c56f3f","267E6DD1BEE049BE916CC50C2F755ED2-2025-08-07-19-05-22","","null","","[]","null","",""
"","","","","","image-button-response","110","539758","0.0-14.0-1.0-0.7","267E6DD1BEE049BE916CC50C2F755ED2","267E6DD1BEE049BE916CC50C2F755ED2","1fa982a2-6285-41e2-b4f3-f0e5c73224db","a9f3d40c-5730-405c-b25e-1034c4c56f3f","{""num_scrambled_semantic"":""8"",""num_scrambled_causal"":""4"",""num_scrambled_schematic"":""4"",""participantId"":""267E6DD1BEE049BE916CC50C2F755ED2"",""assignmentId"":""1fa982a2-6285-41e2-b4f3-f0e5c73224db"",""projectId"":""a9f3d40c-5730-405c-b25e-1034c4c56f3f""}","https://test12345.live/?num_scrambled_semantic=8&num_scrambled_causal=4&num_scrambled_schematic=4&participantId=267E6DD1BEE049BE916CC50C2F755ED2&assignmentId=1fa982a2-6285-41e2-b4f3-f0e5c73224db&projectId=a9f3d40c-5730-405c-b25e-1034c4c56f3f","267E6DD1BEE049BE916CC50C2F755ED2-2025-08-07-19-05-22","","null","","images/causal_sequence/dog_causal/dog_causal_1.png","null","",""
"","","","","","image-button-response","111","543767","0.0-14.0-1.0-1.7","267E6DD1BEE049BE916CC50C2F755ED2","267E6DD1BEE049BE916CC50C2F755ED2","1fa982a2-6285-41e2-b4f3-f0e5c73224db","a9f3d40c-5730-405c-b25e-1034c4c56f3f","{""num_scrambled_semantic"":""8"",""num_scrambled_causal"":""4"",""num_scrambled_schematic"":""4"",""participantId"":""267E6DD1BEE049BE916CC50C2F755ED2"",""assignmentId"":""1fa982a2-6285-41e2-b4f3-f0e5c73224db"",""projectId"":""a9f3d40c-5730-405c-b25e-1034c4c56f3f""}","https://test12345.live/?num_scrambled_semantic=8&num_scrambled_causal=4&num_scrambled_schematic=4&participantId=267E6DD1BEE049BE916CC50C2F755ED2&assignmentId=1fa982a2-6285-41e2-b4f3-f0e5c73224db&projectId=a9f3d40c-5730-405c-b25e-1034c4c56f3f","267E6DD1BEE049BE916CC50C2F755ED2-2025-08-07-19-05-22","","null","","images/causal_sequence/dog_causal/dog_causal_1.png","null","",""
"","","","","","image-button-response","112","545580","0.0-14.0-1.0-2.7","267E6DD1BEE049BE916CC50C2F755ED2","267E6DD1BEE049BE916CC50C2F755ED2","1fa982a2-6285-41e2-b4f3-f0e5c73224db","a9f3d40c-5730-405c-b25e-1034c4c56f3f","{""num_scrambled_semantic"":""8"",""num_scrambled_causal"":""4"",""num_scrambled_schematic"":""4"",""participantId"":""267E6DD1BEE049BE916CC50C2F755ED2"",""assignmentId"":""1fa982a2-6285-41e2-b4f3-f0e5c73224db"",""projectId"":""a9f3d40c-5730-405c-b25e-1034c4c56f3f""}","https://test12345.live/?num_scrambled_semantic=8&num_scrambled_causal=4&num_scrambled_schematic=4&participantId=267E6DD1BEE049BE916CC50C2F755ED2&assignmentId=1fa982a2-6285-41e2-b4f3-f0e5c73224db&projectId=a9f3d40c-5730-405c-b25e-1034c4c56f3f","267E6DD1BEE049BE916CC50C2F755ED2-2025-08-07-19-05-22","","null","","[]","null","",""
"","","","","","image-button-response","113","550089","0.0-14.0-1.0-0.8","267E6DD1BEE049BE916CC50C2F755ED2","267E6DD1BEE049BE916CC50C2F755ED2","1fa982a2-6285-41e2-b4f3-f0e5c73224db","a9f3d40c-5730-405c-b25e-1034c4c56f3f","{""num_scrambled_semantic"":""8"",""num_scrambled_causal"":""4"",""num_scrambled_schematic"":""4"",""participantId"":""267E6DD1BEE049BE916CC50C2F755ED2"",""assignmentId"":""1fa982a2-6285-41e2-b4f3-f0e5c73224db"",""projectId"":""a9f3d40c-5730-405c-b25e-1034c4c56f3f""}","https://test12345.live/?num_scrambled_semantic=8&num_scrambled_causal=4&num_scrambled_schematic=4&participantId=267E6DD1BEE049BE916CC50C2F755ED2&assignmentId=1fa982a2-6285-41e2-b4f3-f0e5c73224db&projectId=a9f3d40c-5730-405c-b25e-1034c4c56f3f","267E6DD1BEE049BE916CC50C2F755ED2-2025-08-07-19-05-22","","null","","images/causal_sequence/dog_causal/dog_causal_7.png","null","",""
"","","","","","image-button-response","114","554102","0.0-14.0-1.0-1.8","267E6DD1BEE049BE916CC50C2F755ED2","267E6DD1BEE049BE916CC50C2F755ED2","1fa982a2-6285-41e2-b4f3-f0e5c73224db","a9f3d40c-5730-405c-b25e-1034c4c56f3f","{""num_scrambled_semantic"":""8"",""num_scrambled_causal"":""4"",""num_scrambled_schematic"":""4"",""participantId"":""267E6DD1BEE049BE916CC50C2F755ED2"",""assignmentId"":""1fa982a2-6285-41e2-b4f3-f0e5c73224db"",""projectId"":""a9f3d40c-5730-405c-b25e-1034c4c56f3f""}","https://test12345.live/?num_scrambled_semantic=8&num_scrambled_causal=4&num_scrambled_schematic=4&participantId=267E6DD1BEE049BE916CC50C2F755ED2&assignmentId=1fa982a2-6285-41e2-b4f3-f0e5c73224db&projectId=a9f3d40c-5730-405c-b25e-1034c4c56f3f","267E6DD1BEE049BE916CC50C2F755ED2-2025-08-07-19-05-22","","null","","images/causal_sequence/dog_causal/dog_causal_7.png","null","",""
