"success","timeout","failed_images","failed_audio","failed_video","trial_type","trial_index","time_elapsed","internal_node_id","subject","subject_id","study_id","session_id","urlvar","current_url","audio_id","view_history","rt","device_id","stimulus","response","estimated_stimulus_onset","seq_name"
"true","false","[]","[]","[]","preload","0","2606","0.0-0.0","279DAA3D45EF4037903C41B2B5AE8090","279DAA3D45EF4037903C41B2B5AE8090","4cf84dd2-b243-4058-9939-ac87349e6a62","a9f3d40c-5730-405c-b25e-1034c4c56f3f","{""num_scrambled_semantic"":""8"",""num_scrambled_causal"":""4"",""num_scrambled_schematic"":""4"",""participantId"":""279DAA3D45EF4037903C41B2B5AE8090"",""assignmentId"":""4cf84dd2-b243-4058-9939-ac87349e6a62"",""projectId"":""a9f3d40c-5730-405c-b25e-1034c4c56f3f""}","https://test12345.live/?num_scrambled_semantic=8&num_scrambled_causal=4&num_scrambled_schematic=4&participantId=279DAA3D45EF4037903C41B2B5AE8090&assignmentId=4cf84dd2-b243-4058-9939-ac87349e6a62&projectId=a9f3d40c-5730-405c-b25e-1034c4c56f3f","279DAA3D45EF4037903C41B2B5AE8090-2025-08-07-19-24-29","","","","","","",""
"","","","","","instructions","1","14182","0.0-1.0","279DAA3D45EF4037903C41B2B5AE8090","279DAA3D45EF4037903C41B2B5AE8090","4cf84dd2-b243-4058-9939-ac87349e6a62","a9f3d40c-5730-405c-b25e-1034c4c56f3f","{""num_scrambled_semantic"":""8"",""num_scrambled_causal"":""4"",""num_scrambled_schematic"":""4"",""participantId"":""279DAA3D45EF4037903C41B2B5AE8090"",""assignmentId"":""4cf84dd2-b243-4058-9939-ac87349e6a62"",""projectId"":""a9f3d40c-5730-405c-b25e-1034c4c56f3f""}","https://test12345.live/?num_scrambled_semantic=8&num_scrambled_causal=4&num_scrambled_schematic=4&participantId=279DAA3D45EF4037903C41B2B5AE8090&assignmentId=4cf84dd2-b243-4058-9939-ac87349e6a62&projectId=a9f3d40c-5730-405c-b25e-1034c4c56f3f","279DAA3D45EF4037903C41B2B5AE8090-2025-08-07-19-24-29","[{""page_index"":0,""viewing_time"":11575}]","11575","","","","",""
"","","","","","instructions","2","56888","0.0-2.0","279DAA3D45EF4037903C41B2B5AE8090","279DAA3D45EF4037903C41B2B5AE8090","4cf84dd2-b243-4058-9939-ac87349e6a62","a9f3d40c-5730-405c-b25e-1034c4c56f3f","{""num_scrambled_semantic"":""8"",""num_scrambled_causal"":""4"",""num_scrambled_schematic"":""4"",""participantId"":""279DAA3D45EF4037903C41B2B5AE8090"",""assignmentId"":""4cf84dd2-b243-4058-9939-ac87349e6a62"",""projectId"":""a9f3d40c-5730-405c-b25e-1034c4c56f3f""}","https://test12345.live/?num_scrambled_semantic=8&num_scrambled_causal=4&num_scrambled_schematic=4&participantId=279DAA3D45EF4037903C41B2B5AE8090&assignmentId=4cf84dd2-b243-4058-9939-ac87349e6a62&projectId=a9f3d40c-5730-405c-b25e-1034c4c56f3f","279DAA3D45EF4037903C41B2B5AE8090-2025-08-07-19-24-29","[{""page_index"":0,""viewing_time"":42704}]","42704","","","","",""
"true","","","","","fullscreen","3","62489","0.0-3.0","279DAA3D45EF4037903C41B2B5AE8090","279DAA3D45EF4037903C41B2B5AE8090","4cf84dd2-b243-4058-9939-ac87349e6a62","a9f3d40c-5730-405c-b25e-1034c4c56f3f","{""num_scrambled_semantic"":""8"",""num_scrambled_causal"":""4"",""num_scrambled_schematic"":""4"",""participantId"":""279DAA3D45EF4037903C41B2B5AE8090"",""assignmentId"":""4cf84dd2-b243-4058-9939-ac87349e6a62"",""projectId"":""a9f3d40c-5730-405c-b25e-1034c4c56f3f""}","https://test12345.live/?num_scrambled_semantic=8&num_scrambled_causal=4&num_scrambled_schematic=4&participantId=279DAA3D45EF4037903C41B2B5AE8090&assignmentId=4cf84dd2-b243-4058-9939-ac87349e6a62&projectId=a9f3d40c-5730-405c-b25e-1034c4c56f3f","279DAA3D45EF4037903C41B2B5AE8090-2025-08-07-19-24-29","","4596","","","","",""
"","","","","","initialize-microphone","4","69723","0.0-4.0-0.0","279DAA3D45EF4037903C41B2B5AE8090","279DAA3D45EF4037903C41B2B5AE8090","4cf84dd2-b243-4058-9939-ac87349e6a62","a9f3d40c-5730-405c-b25e-1034c4c56f3f","{""num_scrambled_semantic"":""8"",""num_scrambled_causal"":""4"",""num_scrambled_schematic"":""4"",""participantId"":""279DAA3D45EF4037903C41B2B5AE8090"",""assignmentId"":""4cf84dd2-b243-4058-9939-ac87349e6a62"",""projectId"":""a9f3d40c-5730-405c-b25e-1034c4c56f3f""}","https://test12345.live/?num_scrambled_semantic=8&num_scrambled_causal=4&num_scrambled_schematic=4&participantId=279DAA3D45EF4037903C41B2B5AE8090&assignmentId=4cf84dd2-b243-4058-9939-ac87349e6a62&projectId=a9f3d40c-5730-405c-b25e-1034c4c56f3f","279DAA3D45EF4037903C41B2B5AE8090-2025-08-07-19-24-29","","","QxO1qMsiGhXSrEy/H3Y44PzcLN4u5KcTm96WIil3YCk=","","","",""
"","","","","","html-audio-response","5","93888","0.0-4.0-1.0","279DAA3D45EF4037903C41B2B5AE8090","279DAA3D45EF4037903C41B2B5AE8090","4cf84dd2-b243-4058-9939-ac87349e6a62","a9f3d40c-5730-405c-b25e-1034c4c56f3f","{""num_scrambled_semantic"":""8"",""num_scrambled_causal"":""4"",""num_scrambled_schematic"":""4"",""participantId"":""279DAA3D45EF4037903C41B2B5AE8090"",""assignmentId"":""4cf84dd2-b243-4058-9939-ac87349e6a62"",""projectId"":""a9f3d40c-5730-405c-b25e-1034c4c56f3f""}","https://test12345.live/?num_scrambled_semantic=8&num_scrambled_causal=4&num_scrambled_schematic=4&participantId=279DAA3D45EF4037903C41B2B5AE8090&assignmentId=4cf84dd2-b243-4058-9939-ac87349e6a62&projectId=a9f3d40c-5730-405c-b25e-1034c4c56f3f","279DAA3D45EF4037903C41B2B5AE8090-2025-08-07-19-24-29","","5787","","<span style=""color: red; font-size: 24px""> NOW RECORDING</span>
        <p>Please test Microphone</p>","","1",""
"","","","","","html-button-response","6","97122","0.0-4.0-2.0","279DAA3D45EF4037903C41B2B5AE8090","279DAA3D45EF4037903C41B2B5AE8090","4cf84dd2-b243-4058-9939-ac87349e6a62","a9f3d40c-5730-405c-b25e-1034c4c56f3f","{""num_scrambled_semantic"":""8"",""num_scrambled_causal"":""4"",""num_scrambled_schematic"":""4"",""participantId"":""279DAA3D45EF4037903C41B2B5AE8090"",""assignmentId"":""4cf84dd2-b243-4058-9939-ac87349e6a62"",""projectId"":""a9f3d40c-5730-405c-b25e-1034c4c56f3f""}","https://test12345.live/?num_scrambled_semantic=8&num_scrambled_causal=4&num_scrambled_schematic=4&participantId=279DAA3D45EF4037903C41B2B5AE8090&assignmentId=4cf84dd2-b243-4058-9939-ac87349e6a62&projectId=a9f3d40c-5730-405c-b25e-1034c4c56f3f","279DAA3D45EF4037903C41B2B5AE8090-2025-08-07-19-24-29","","3233","","<p style=""font-size:48px; color:red;"">Is Microphone OK?</p>","1","",""
"","","","","","instructions","7","110393","0.0-5.0","279DAA3D45EF4037903C41B2B5AE8090","279DAA3D45EF4037903C41B2B5AE8090","4cf84dd2-b243-4058-9939-ac87349e6a62","a9f3d40c-5730-405c-b25e-1034c4c56f3f","{""num_scrambled_semantic"":""8"",""num_scrambled_causal"":""4"",""num_scrambled_schematic"":""4"",""participantId"":""279DAA3D45EF4037903C41B2B5AE8090"",""assignmentId"":""4cf84dd2-b243-4058-9939-ac87349e6a62"",""projectId"":""a9f3d40c-5730-405c-b25e-1034c4c56f3f""}","https://test12345.live/?num_scrambled_semantic=8&num_scrambled_causal=4&num_scrambled_schematic=4&participantId=279DAA3D45EF4037903C41B2B5AE8090&assignmentId=4cf84dd2-b243-4058-9939-ac87349e6a62&projectId=a9f3d40c-5730-405c-b25e-1034c4c56f3f","279DAA3D45EF4037903C41B2B5AE8090-2025-08-07-19-24-29","[{""page_index"":0,""viewing_time"":4635},{""page_index"":1,""viewing_time"":8636}]","13271","","","","",""
"","","","","","image-button-response","8","116401","0.0-6.0-0.0","279DAA3D45EF4037903C41B2B5AE8090","279DAA3D45EF4037903C41B2B5AE8090","4cf84dd2-b243-4058-9939-ac87349e6a62","a9f3d40c-5730-405c-b25e-1034c4c56f3f","{""num_scrambled_semantic"":""8"",""num_scrambled_causal"":""4"",""num_scrambled_schematic"":""4"",""participantId"":""279DAA3D45EF4037903C41B2B5AE8090"",""assignmentId"":""4cf84dd2-b243-4058-9939-ac87349e6a62"",""projectId"":""a9f3d40c-5730-405c-b25e-1034c4c56f3f""}","https://test12345.live/?num_scrambled_semantic=8&num_scrambled_causal=4&num_scrambled_schematic=4&participantId=279DAA3D45EF4037903C41B2B5AE8090&assignmentId=4cf84dd2-b243-4058-9939-ac87349e6a62&projectId=a9f3d40c-5730-405c-b25e-1034c4c56f3f","279DAA3D45EF4037903C41B2B5AE8090-2025-08-07-19-24-29","","null","","images/instructions/movie_0.png","null","",""
"","","","","","image-button-response","9","120926","0.0-6.0-1.0-0.0","279DAA3D45EF4037903C41B2B5AE8090","279DAA3D45EF4037903C41B2B5AE8090","4cf84dd2-b243-4058-9939-ac87349e6a62","a9f3d40c-5730-405c-b25e-1034c4c56f3f","{""num_scrambled_semantic"":""8"",""num_scrambled_causal"":""4"",""num_scrambled_schematic"":""4"",""participantId"":""279DAA3D45EF4037903C41B2B5AE8090"",""assignmentId"":""4cf84dd2-b243-4058-9939-ac87349e6a62"",""projectId"":""a9f3d40c-5730-405c-b25e-1034c4c56f3f""}","https://test12345.live/?num_scrambled_semantic=8&num_scrambled_causal=4&num_scrambled_schematic=4&participantId=279DAA3D45EF4037903C41B2B5AE8090&assignmentId=4cf84dd2-b243-4058-9939-ac87349e6a62&projectId=a9f3d40c-5730-405c-b25e-1034c4c56f3f","279DAA3D45EF4037903C41B2B5AE8090-2025-08-07-19-24-29","","null","","images/instructions/movie_1.png","null","",""
"","","","","","image-button-response","10","123170","0.0-6.0-1.0-1.0","279DAA3D45EF4037903C41B2B5AE8090","279DAA3D45EF4037903C41B2B5AE8090","4cf84dd2-b243-4058-9939-ac87349e6a62","a9f3d40c-5730-405c-b25e-1034c4c56f3f","{""num_scrambled_semantic"":""8"",""num_scrambled_causal"":""4"",""num_scrambled_schematic"":""4"",""participantId"":""279DAA3D45EF4037903C41B2B5AE8090"",""assignmentId"":""4cf84dd2-b243-4058-9939-ac87349e6a62"",""projectId"":""a9f3d40c-5730-405c-b25e-1034c4c56f3f""}","https://test12345.live/?num_scrambled_semantic=8&num_scrambled_causal=4&num_scrambled_schematic=4&participantId=279DAA3D45EF4037903C41B2B5AE8090&assignmentId=4cf84dd2-b243-4058-9939-ac87349e6a62&projectId=a9f3d40c-5730-405c-b25e-1034c4c56f3f","279DAA3D45EF4037903C41B2B5AE8090-2025-08-07-19-24-29","","2242","","images/instructions/movie_1.png","0","",""
"","","","","","image-button-response","11","124994","0.0-6.0-1.0-2.0","279DAA3D45EF4037903C41B2B5AE8090","279DAA3D45EF4037903C41B2B5AE8090","4cf84dd2-b243-4058-9939-ac87349e6a62","a9f3d40c-5730-405c-b25e-1034c4c56f3f","{""num_scrambled_semantic"":""8"",""num_scrambled_causal"":""4"",""num_scrambled_schematic"":""4"",""participantId"":""279DAA3D45EF4037903C41B2B5AE8090"",""assignmentId"":""4cf84dd2-b243-4058-9939-ac87349e6a62"",""projectId"":""a9f3d40c-5730-405c-b25e-1034c4c56f3f""}","https://test12345.live/?num_scrambled_semantic=8&num_scrambled_causal=4&num_scrambled_schematic=4&participantId=279DAA3D45EF4037903C41B2B5AE8090&assignmentId=4cf84dd2-b243-4058-9939-ac87349e6a62&projectId=a9f3d40c-5730-405c-b25e-1034c4c56f3f","279DAA3D45EF4037903C41B2B5AE8090-2025-08-07-19-24-29","","null","","[]","null","",""
"","","","","","image-button-response","12","129518","0.0-6.0-1.0-0.1","279DAA3D45EF4037903C41B2B5AE8090","279DAA3D45EF4037903C41B2B5AE8090","4cf84dd2-b243-4058-9939-ac87349e6a62","a9f3d40c-5730-405c-b25e-1034c4c56f3f","{""num_scrambled_semantic"":""8"",""num_scrambled_causal"":""4"",""num_scrambled_schematic"":""4"",""participantId"":""279DAA3D45EF4037903C41B2B5AE8090"",""assignmentId"":""4cf84dd2-b243-4058-9939-ac87349e6a62"",""projectId"":""a9f3d40c-5730-405c-b25e-1034c4c56f3f""}","https://test12345.live/?num_scrambled_semantic=8&num_scrambled_causal=4&num_scrambled_schematic=4&participantId=279DAA3D45EF4037903C41B2B5AE8090&assignmentId=4cf84dd2-b243-4058-9939-ac87349e6a62&projectId=a9f3d40c-5730-405c-b25e-1034c4c56f3f","279DAA3D45EF4037903C41B2B5AE8090-2025-08-07-19-24-29","","null","","images/instructions/movie_2.png","null","",""
"","","","","","image-button-response","13","132290","0.0-6.0-1.0-1.1","279DAA3D45EF4037903C41B2B5AE8090","279DAA3D45EF4037903C41B2B5AE8090","4cf84dd2-b243-4058-9939-ac87349e6a62","a9f3d40c-5730-405c-b25e-1034c4c56f3f","{""num_scrambled_semantic"":""8"",""num_scrambled_causal"":""4"",""num_scrambled_schematic"":""4"",""participantId"":""279DAA3D45EF4037903C41B2B5AE8090"",""assignmentId"":""4cf84dd2-b243-4058-9939-ac87349e6a62"",""projectId"":""a9f3d40c-5730-405c-b25e-1034c4c56f3f""}","https://test12345.live/?num_scrambled_semantic=8&num_scrambled_causal=4&num_scrambled_schematic=4&participantId=279DAA3D45EF4037903C41B2B5AE8090&assignmentId=4cf84dd2-b243-4058-9939-ac87349e6a62&projectId=a9f3d40c-5730-405c-b25e-1034c4c56f3f","279DAA3D45EF4037903C41B2B5AE8090-2025-08-07-19-24-29","","2770","","images/instructions/movie_2.png","0","",""
"","","","","","image-button-response","14","134101","0.0-6.0-1.0-2.1","279DAA3D45EF4037903C41B2B5AE8090","279DAA3D45EF4037903C41B2B5AE8090","4cf84dd2-b243-4058-9939-ac87349e6a62","a9f3d40c-5730-405c-b25e-1034c4c56f3f","{""num_scrambled_semantic"":""8"",""num_scrambled_causal"":""4"",""num_scrambled_schematic"":""4"",""participantId"":""279DAA3D45EF4037903C41B2B5AE8090"",""assignmentId"":""4cf84dd2-b243-4058-9939-ac87349e6a62"",""projectId"":""a9f3d40c-5730-405c-b25e-1034c4c56f3f""}","https://test12345.live/?num_scrambled_semantic=8&num_scrambled_causal=4&num_scrambled_schematic=4&participantId=279DAA3D45EF4037903C41B2B5AE8090&assignmentId=4cf84dd2-b243-4058-9939-ac87349e6a62&projectId=a9f3d40c-5730-405c-b25e-1034c4c56f3f","279DAA3D45EF4037903C41B2B5AE8090-2025-08-07-19-24-29","","null","","[]","null","",""
"","","","","","image-button-response","15","138621","0.0-6.0-1.0-0.2","279DAA3D45EF4037903C41B2B5AE8090","279DAA3D45EF4037903C41B2B5AE8090","4cf84dd2-b243-4058-9939-ac87349e6a62","a9f3d40c-5730-405c-b25e-1034c4c56f3f","{""num_scrambled_semantic"":""8"",""num_scrambled_causal"":""4"",""num_scrambled_schematic"":""4"",""participantId"":""279DAA3D45EF4037903C41B2B5AE8090"",""assignmentId"":""4cf84dd2-b243-4058-9939-ac87349e6a62"",""projectId"":""a9f3d40c-5730-405c-b25e-1034c4c56f3f""}","https://test12345.live/?num_scrambled_semantic=8&num_scrambled_causal=4&num_scrambled_schematic=4&participantId=279DAA3D45EF4037903C41B2B5AE8090&assignmentId=4cf84dd2-b243-4058-9939-ac87349e6a62&projectId=a9f3d40c-5730-405c-b25e-1034c4c56f3f","279DAA3D45EF4037903C41B2B5AE8090-2025-08-07-19-24-29","","null","","images/instructions/movie_3.png","null","",""
"","","","","","image-button-response","16","140814","0.0-6.0-1.0-1.2","279DAA3D45EF4037903C41B2B5AE8090","279DAA3D45EF4037903C41B2B5AE8090","4cf84dd2-b243-4058-9939-ac87349e6a62","a9f3d40c-5730-405c-b25e-1034c4c56f3f","{""num_scrambled_semantic"":""8"",""num_scrambled_causal"":""4"",""num_scrambled_schematic"":""4"",""participantId"":""279DAA3D45EF4037903C41B2B5AE8090"",""assignmentId"":""4cf84dd2-b243-4058-9939-ac87349e6a62"",""projectId"":""a9f3d40c-5730-405c-b25e-1034c4c56f3f""}","https://test12345.live/?num_scrambled_semantic=8&num_scrambled_causal=4&num_scrambled_schematic=4&participantId=279DAA3D45EF4037903C41B2B5AE8090&assignmentId=4cf84dd2-b243-4058-9939-ac87349e6a62&projectId=a9f3d40c-5730-405c-b25e-1034c4c56f3f","279DAA3D45EF4037903C41B2B5AE8090-2025-08-07-19-24-29","","2191","","images/instructions/movie_3.png","0","",""
"","","","","","image-button-response","17","142624","0.0-6.0-1.0-2.2","279DAA3D45EF4037903C41B2B5AE8090","279DAA3D45EF4037903C41B2B5AE8090","4cf84dd2-b243-4058-9939-ac87349e6a62","a9f3d40c-5730-405c-b25e-1034c4c56f3f","{""num_scrambled_semantic"":""8"",""num_scrambled_causal"":""4"",""num_scrambled_schematic"":""4"",""participantId"":""279DAA3D45EF4037903C41B2B5AE8090"",""assignmentId"":""4cf84dd2-b243-4058-9939-ac87349e6a62"",""projectId"":""a9f3d40c-5730-405c-b25e-1034c4c56f3f""}","https://test12345.live/?num_scrambled_semantic=8&num_scrambled_causal=4&num_scrambled_schematic=4&participantId=279DAA3D45EF4037903C41B2B5AE8090&assignmentId=4cf84dd2-b243-4058-9939-ac87349e6a62&projectId=a9f3d40c-5730-405c-b25e-1034c4c56f3f","279DAA3D45EF4037903C41B2B5AE8090-2025-08-07-19-24-29","","null","","[]","null","",""
"","","","","","image-button-response","18","147155","0.0-6.0-1.0-0.3","279DAA3D45EF4037903C41B2B5AE8090","279DAA3D45EF4037903C41B2B5AE8090","4cf84dd2-b243-4058-9939-ac87349e6a62","a9f3d40c-5730-405c-b25e-1034c4c56f3f","{""num_scrambled_semantic"":""8"",""num_scrambled_causal"":""4"",""num_scrambled_schematic"":""4"",""participantId"":""279DAA3D45EF4037903C41B2B5AE8090"",""assignmentId"":""4cf84dd2-b243-4058-9939-ac87349e6a62"",""projectId"":""a9f3d40c-5730-405c-b25e-1034c4c56f3f""}","https://test12345.live/?num_scrambled_semantic=8&num_scrambled_causal=4&num_scrambled_schematic=4&participantId=279DAA3D45EF4037903C41B2B5AE8090&assignmentId=4cf84dd2-b243-4058-9939-ac87349e6a62&projectId=a9f3d40c-5730-405c-b25e-1034c4c56f3f","279DAA3D45EF4037903C41B2B5AE8090-2025-08-07-19-24-29","","null","","images/instructions/movie_4.png","null","",""
"","","","","","image-button-response","19","149642","0.0-6.0-1.0-1.3","279DAA3D45EF4037903C41B2B5AE8090","279DAA3D45EF4037903C41B2B5AE8090","4cf84dd2-b243-4058-9939-ac87349e6a62","a9f3d40c-5730-405c-b25e-1034c4c56f3f","{""num_scrambled_semantic"":""8"",""num_scrambled_causal"":""4"",""num_scrambled_schematic"":""4"",""participantId"":""279DAA3D45EF4037903C41B2B5AE8090"",""assignmentId"":""4cf84dd2-b243-4058-9939-ac87349e6a62"",""projectId"":""a9f3d40c-5730-405c-b25e-1034c4c56f3f""}","https://test12345.live/?num_scrambled_semantic=8&num_scrambled_causal=4&num_scrambled_schematic=4&participantId=279DAA3D45EF4037903C41B2B5AE8090&assignmentId=4cf84dd2-b243-4058-9939-ac87349e6a62&projectId=a9f3d40c-5730-405c-b25e-1034c4c56f3f","279DAA3D45EF4037903C41B2B5AE8090-2025-08-07-19-24-29","","2486","","images/instructions/movie_4.png","0","",""
"","","","","","image-button-response","20","151455","0.0-6.0-1.0-2.3","279DAA3D45EF4037903C41B2B5AE8090","279DAA3D45EF4037903C41B2B5AE8090","4cf84dd2-b243-4058-9939-ac87349e6a62","a9f3d40c-5730-405c-b25e-1034c4c56f3f","{""num_scrambled_semantic"":""8"",""num_scrambled_causal"":""4"",""num_scrambled_schematic"":""4"",""participantId"":""279DAA3D45EF4037903C41B2B5AE8090"",""assignmentId"":""4cf84dd2-b243-4058-9939-ac87349e6a62"",""projectId"":""a9f3d40c-5730-405c-b25e-1034c4c56f3f""}","https://test12345.live/?num_scrambled_semantic=8&num_scrambled_causal=4&num_scrambled_schematic=4&participantId=279DAA3D45EF4037903C41B2B5AE8090&assignmentId=4cf84dd2-b243-4058-9939-ac87349e6a62&projectId=a9f3d40c-5730-405c-b25e-1034c4c56f3f","279DAA3D45EF4037903C41B2B5AE8090-2025-08-07-19-24-29","","null","","[]","null","",""
"","","","","","instructions","21","157746","0.0-7.0","279DAA3D45EF4037903C41B2B5AE8090","279DAA3D45EF4037903C41B2B5AE8090","4cf84dd2-b243-4058-9939-ac87349e6a62","a9f3d40c-5730-405c-b25e-1034c4c56f3f","{""num_scrambled_semantic"":""8"",""num_scrambled_causal"":""4"",""num_scrambled_schematic"":""4"",""participantId"":""279DAA3D45EF4037903C41B2B5AE8090"",""assignmentId"":""4cf84dd2-b243-4058-9939-ac87349e6a62"",""projectId"":""a9f3d40c-5730-405c-b25e-1034c4c56f3f""}","https://test12345.live/?num_scrambled_semantic=8&num_scrambled_causal=4&num_scrambled_schematic=4&participantId=279DAA3D45EF4037903C41B2B5AE8090&assignmentId=4cf84dd2-b243-4058-9939-ac87349e6a62&projectId=a9f3d40c-5730-405c-b25e-1034c4c56f3f","279DAA3D45EF4037903C41B2B5AE8090-2025-08-07-19-24-29","[{""page_index"":0,""viewing_time"":5508},{""page_index"":1,""viewing_time"":783}]","6292","","","","",""
"","","","","","html-audio-response","22","182425","0.0-8.0","279DAA3D45EF4037903C41B2B5AE8090","279DAA3D45EF4037903C41B2B5AE8090","4cf84dd2-b243-4058-9939-ac87349e6a62","a9f3d40c-5730-405c-b25e-1034c4c56f3f","{""num_scrambled_semantic"":""8"",""num_scrambled_causal"":""4"",""num_scrambled_schematic"":""4"",""participantId"":""279DAA3D45EF4037903C41B2B5AE8090"",""assignmentId"":""4cf84dd2-b243-4058-9939-ac87349e6a62"",""projectId"":""a9f3d40c-5730-405c-b25e-1034c4c56f3f""}","https://test12345.live/?num_scrambled_semantic=8&num_scrambled_causal=4&num_scrambled_schematic=4&participantId=279DAA3D45EF4037903C41B2B5AE8090&assignmentId=4cf84dd2-b243-4058-9939-ac87349e6a62&projectId=a9f3d40c-5730-405c-b25e-1034c4c56f3f","279DAA3D45EF4037903C41B2B5AE8090-2025-08-07-19-24-29","","13633","","[""<span style=\""color: red; font-size: 24px\""> NOW RECORDING</span><p>Please say out loud all the images you saw, as many as you can remember. The images can be said in any order.</p>""]","","1",""
"","","","","","instructions","23","183324","0.0-9.0","279DAA3D45EF4037903C41B2B5AE8090","279DAA3D45EF4037903C41B2B5AE8090","4cf84dd2-b243-4058-9939-ac87349e6a62","a9f3d40c-5730-405c-b25e-1034c4c56f3f","{""num_scrambled_semantic"":""8"",""num_scrambled_causal"":""4"",""num_scrambled_schematic"":""4"",""participantId"":""279DAA3D45EF4037903C41B2B5AE8090"",""assignmentId"":""4cf84dd2-b243-4058-9939-ac87349e6a62"",""projectId"":""a9f3d40c-5730-405c-b25e-1034c4c56f3f""}","https://test12345.live/?num_scrambled_semantic=8&num_scrambled_causal=4&num_scrambled_schematic=4&participantId=279DAA3D45EF4037903C41B2B5AE8090&assignmentId=4cf84dd2-b243-4058-9939-ac87349e6a62&projectId=a9f3d40c-5730-405c-b25e-1034c4c56f3f","279DAA3D45EF4037903C41B2B5AE8090-2025-08-07-19-24-29","[{""page_index"":0,""viewing_time"":896}]","896","","","","",""
"","","","","","image-button-response","24","189336","0.0-10.0-0.0","279DAA3D45EF4037903C41B2B5AE8090","279DAA3D45EF4037903C41B2B5AE8090","4cf84dd2-b243-4058-9939-ac87349e6a62","a9f3d40c-5730-405c-b25e-1034c4c56f3f","{""num_scrambled_semantic"":""8"",""num_scrambled_causal"":""4"",""num_scrambled_schematic"":""4"",""participantId"":""279DAA3D45EF4037903C41B2B5AE8090"",""assignmentId"":""4cf84dd2-b243-4058-9939-ac87349e6a62"",""projectId"":""a9f3d40c-5730-405c-b25e-1034c4c56f3f""}","https://test12345.live/?num_scrambled_semantic=8&num_scrambled_causal=4&num_scrambled_schematic=4&participantId=279DAA3D45EF4037903C41B2B5AE8090&assignmentId=4cf84dd2-b243-4058-9939-ac87349e6a62&projectId=a9f3d40c-5730-405c-b25e-1034c4c56f3f","279DAA3D45EF4037903C41B2B5AE8090-2025-08-07-19-24-29","","null","","images/causal_sequence/saving_a_cat_causal/saving_a_cat_causal_0.png","null","",""
"","","","","","image-button-response","25","193867","0.0-10.0-1.0-0.0","279DAA3D45EF4037903C41B2B5AE8090","279DAA3D45EF4037903C41B2B5AE8090","4cf84dd2-b243-4058-9939-ac87349e6a62","a9f3d40c-5730-405c-b25e-1034c4c56f3f","{""num_scrambled_semantic"":""8"",""num_scrambled_causal"":""4"",""num_scrambled_schematic"":""4"",""participantId"":""279DAA3D45EF4037903C41B2B5AE8090"",""assignmentId"":""4cf84dd2-b243-4058-9939-ac87349e6a62"",""projectId"":""a9f3d40c-5730-405c-b25e-1034c4c56f3f""}","https://test12345.live/?num_scrambled_semantic=8&num_scrambled_causal=4&num_scrambled_schematic=4&participantId=279DAA3D45EF4037903C41B2B5AE8090&assignmentId=4cf84dd2-b243-4058-9939-ac87349e6a62&projectId=a9f3d40c-5730-405c-b25e-1034c4c56f3f","279DAA3D45EF4037903C41B2B5AE8090-2025-08-07-19-24-29","","null","","images/causal_sequence/saving_a_cat_causal/saving_a_cat_causal_2.png","null","",""
"","","","","","image-button-response","26","196148","0.0-10.0-1.0-1.0","279DAA3D45EF4037903C41B2B5AE8090","279DAA3D45EF4037903C41B2B5AE8090","4cf84dd2-b243-4058-9939-ac87349e6a62","a9f3d40c-5730-405c-b25e-1034c4c56f3f","{""num_scrambled_semantic"":""8"",""num_scrambled_causal"":""4"",""num_scrambled_schematic"":""4"",""participantId"":""279DAA3D45EF4037903C41B2B5AE8090"",""assignmentId"":""4cf84dd2-b243-4058-9939-ac87349e6a62"",""projectId"":""a9f3d40c-5730-405c-b25e-1034c4c56f3f""}","https://test12345.live/?num_scrambled_semantic=8&num_scrambled_causal=4&num_scrambled_schematic=4&participantId=279DAA3D45EF4037903C41B2B5AE8090&assignmentId=4cf84dd2-b243-4058-9939-ac87349e6a62&projectId=a9f3d40c-5730-405c-b25e-1034c4c56f3f","279DAA3D45EF4037903C41B2B5AE8090-2025-08-07-19-24-29","","2281","","images/causal_sequence/saving_a_cat_causal/saving_a_cat_causal_2.png","1","",""
"","","","","","image-button-response","27","197962","0.0-10.0-1.0-2.0","279DAA3D45EF4037903C41B2B5AE8090","279DAA3D45EF4037903C41B2B5AE8090","4cf84dd2-b243-4058-9939-ac87349e6a62","a9f3d40c-5730-405c-b25e-1034c4c56f3f","{""num_scrambled_semantic"":""8"",""num_scrambled_causal"":""4"",""num_scrambled_schematic"":""4"",""participantId"":""279DAA3D45EF4037903C41B2B5AE8090"",""assignmentId"":""4cf84dd2-b243-4058-9939-ac87349e6a62"",""projectId"":""a9f3d40c-5730-405c-b25e-1034c4c56f3f""}","https://test12345.live/?num_scrambled_semantic=8&num_scrambled_causal=4&num_scrambled_schematic=4&participantId=279DAA3D45EF4037903C41B2B5AE8090&assignmentId=4cf84dd2-b243-4058-9939-ac87349e6a62&projectId=a9f3d40c-5730-405c-b25e-1034c4c56f3f","279DAA3D45EF4037903C41B2B5AE8090-2025-08-07-19-24-29","","null","","[]","null","",""
"","","","","","image-button-response","28","202491","0.0-10.0-1.0-0.1","279DAA3D45EF4037903C41B2B5AE8090","279DAA3D45EF4037903C41B2B5AE8090","4cf84dd2-b243-4058-9939-ac87349e6a62","a9f3d40c-5730-405c-b25e-1034c4c56f3f","{""num_scrambled_semantic"":""8"",""num_scrambled_causal"":""4"",""num_scrambled_schematic"":""4"",""participantId"":""279DAA3D45EF4037903C41B2B5AE8090"",""assignmentId"":""4cf84dd2-b243-4058-9939-ac87349e6a62"",""projectId"":""a9f3d40c-5730-405c-b25e-1034c4c56f3f""}","https://test12345.live/?num_scrambled_semantic=8&num_scrambled_causal=4&num_scrambled_schematic=4&participantId=279DAA3D45EF4037903C41B2B5AE8090&assignmentId=4cf84dd2-b243-4058-9939-ac87349e6a62&projectId=a9f3d40c-5730-405c-b25e-1034c4c56f3f","279DAA3D45EF4037903C41B2B5AE8090-2025-08-07-19-24-29","","null","","images/causal_sequence/saving_a_cat_causal/saving_a_cat_causal_9.png","null","",""
"","","","","","image-button-response","29","205072","0.0-10.0-1.0-1.1","279DAA3D45EF4037903C41B2B5AE8090","279DAA3D45EF4037903C41B2B5AE8090","4cf84dd2-b243-4058-9939-ac87349e6a62","a9f3d40c-5730-405c-b25e-1034c4c56f3f","{""num_scrambled_semantic"":""8"",""num_scrambled_causal"":""4"",""num_scrambled_schematic"":""4"",""participantId"":""279DAA3D45EF4037903C41B2B5AE8090"",""assignmentId"":""4cf84dd2-b243-4058-9939-ac87349e6a62"",""projectId"":""a9f3d40c-5730-405c-b25e-1034c4c56f3f""}","https://test12345.live/?num_scrambled_semantic=8&num_scrambled_causal=4&num_scrambled_schematic=4&participantId=279DAA3D45EF4037903C41B2B5AE8090&assignmentId=4cf84dd2-b243-4058-9939-ac87349e6a62&projectId=a9f3d40c-5730-405c-b25e-1034c4c56f3f","279DAA3D45EF4037903C41B2B5AE8090-2025-08-07-19-24-29","","2579","","images/causal_sequence/saving_a_cat_causal/saving_a_cat_causal_9.png","0","",""
"","","","","","image-button-response","30","206874","0.0-10.0-1.0-2.1","279DAA3D45EF4037903C41B2B5AE8090","279DAA3D45EF4037903C41B2B5AE8090","4cf84dd2-b243-4058-9939-ac87349e6a62","a9f3d40c-5730-405c-b25e-1034c4c56f3f","{""num_scrambled_semantic"":""8"",""num_scrambled_causal"":""4"",""num_scrambled_schematic"":""4"",""participantId"":""279DAA3D45EF4037903C41B2B5AE8090"",""assignmentId"":""4cf84dd2-b243-4058-9939-ac87349e6a62"",""projectId"":""a9f3d40c-5730-405c-b25e-1034c4c56f3f""}","https://test12345.live/?num_scrambled_semantic=8&num_scrambled_causal=4&num_scrambled_schematic=4&participantId=279DAA3D45EF4037903C41B2B5AE8090&assignmentId=4cf84dd2-b243-4058-9939-ac87349e6a62&projectId=a9f3d40c-5730-405c-b25e-1034c4c56f3f","279DAA3D45EF4037903C41B2B5AE8090-2025-08-07-19-24-29","","null","","[]","null","",""
"","","","","","image-button-response","31","211399","0.0-10.0-1.0-0.2","279DAA3D45EF4037903C41B2B5AE8090","279DAA3D45EF4037903C41B2B5AE8090","4cf84dd2-b243-4058-9939-ac87349e6a62","a9f3d40c-5730-405c-b25e-1034c4c56f3f","{""num_scrambled_semantic"":""8"",""num_scrambled_causal"":""4"",""num_scrambled_schematic"":""4"",""participantId"":""279DAA3D45EF4037903C41B2B5AE8090"",""assignmentId"":""4cf84dd2-b243-4058-9939-ac87349e6a62"",""projectId"":""a9f3d40c-5730-405c-b25e-1034c4c56f3f""}","https://test12345.live/?num_scrambled_semantic=8&num_scrambled_causal=4&num_scrambled_schematic=4&participantId=279DAA3D45EF4037903C41B2B5AE8090&assignmentId=4cf84dd2-b243-4058-9939-ac87349e6a62&projectId=a9f3d40c-5730-405c-b25e-1034c4c56f3f","279DAA3D45EF4037903C41B2B5AE8090-2025-08-07-19-24-29","","null","","images/causal_sequence/saving_a_cat_causal/saving_a_cat_causal_ten.png","null","",""
"","","","","","image-button-response","32","215323","0.0-10.0-1.0-1.2","279DAA3D45EF4037903C41B2B5AE8090","279DAA3D45EF4037903C41B2B5AE8090","4cf84dd2-b243-4058-9939-ac87349e6a62","a9f3d40c-5730-405c-b25e-1034c4c56f3f","{""num_scrambled_semantic"":""8"",""num_scrambled_causal"":""4"",""num_scrambled_schematic"":""4"",""participantId"":""279DAA3D45EF4037903C41B2B5AE8090"",""assignmentId"":""4cf84dd2-b243-4058-9939-ac87349e6a62"",""projectId"":""a9f3d40c-5730-405c-b25e-1034c4c56f3f""}","https://test12345.live/?num_scrambled_semantic=8&num_scrambled_causal=4&num_scrambled_schematic=4&participantId=279DAA3D45EF4037903C41B2B5AE8090&assignmentId=4cf84dd2-b243-4058-9939-ac87349e6a62&projectId=a9f3d40c-5730-405c-b25e-1034c4c56f3f","279DAA3D45EF4037903C41B2B5AE8090-2025-08-07-19-24-29","","3924","","images/causal_sequence/saving_a_cat_causal/saving_a_cat_causal_ten.png","0","",""
"","","","","","image-button-response","33","217126","0.0-10.0-1.0-2.2","279DAA3D45EF4037903C41B2B5AE8090","279DAA3D45EF4037903C41B2B5AE8090","4cf84dd2-b243-4058-9939-ac87349e6a62","a9f3d40c-5730-405c-b25e-1034c4c56f3f","{""num_scrambled_semantic"":""8"",""num_scrambled_causal"":""4"",""num_scrambled_schematic"":""4"",""participantId"":""279DAA3D45EF4037903C41B2B5AE8090"",""assignmentId"":""4cf84dd2-b243-4058-9939-ac87349e6a62"",""projectId"":""a9f3d40c-5730-405c-b25e-1034c4c56f3f""}","https://test12345.live/?num_scrambled_semantic=8&num_scrambled_causal=4&num_scrambled_schematic=4&participantId=279DAA3D45EF4037903C41B2B5AE8090&assignmentId=4cf84dd2-b243-4058-9939-ac87349e6a62&projectId=a9f3d40c-5730-405c-b25e-1034c4c56f3f","279DAA3D45EF4037903C41B2B5AE8090-2025-08-07-19-24-29","","null","","[]","null","",""
"","","","","","image-button-response","34","221656","0.0-10.0-1.0-0.3","279DAA3D45EF4037903C41B2B5AE8090","279DAA3D45EF4037903C41B2B5AE8090","4cf84dd2-b243-4058-9939-ac87349e6a62","a9f3d40c-5730-405c-b25e-1034c4c56f3f","{""num_scrambled_semantic"":""8"",""num_scrambled_causal"":""4"",""num_scrambled_schematic"":""4"",""participantId"":""279DAA3D45EF4037903C41B2B5AE8090"",""assignmentId"":""4cf84dd2-b243-4058-9939-ac87349e6a62"",""projectId"":""a9f3d40c-5730-405c-b25e-1034c4c56f3f""}","https://test12345.live/?num_scrambled_semantic=8&num_scrambled_causal=4&num_scrambled_schematic=4&participantId=279DAA3D45EF4037903C41B2B5AE8090&assignmentId=4cf84dd2-b243-4058-9939-ac87349e6a62&projectId=a9f3d40c-5730-405c-b25e-1034c4c56f3f","279DAA3D45EF4037903C41B2B5AE8090-2025-08-07-19-24-29","","null","","images/causal_sequence/saving_a_cat_causal/saving_a_cat_causal_5.png","null","",""
"","","","","","image-button-response","35","223448","0.0-10.0-1.0-1.3","279DAA3D45EF4037903C41B2B5AE8090","279DAA3D45EF4037903C41B2B5AE8090","4cf84dd2-b243-4058-9939-ac87349e6a62","a9f3d40c-5730-405c-b25e-1034c4c56f3f","{""num_scrambled_semantic"":""8"",""num_scrambled_causal"":""4"",""num_scrambled_schematic"":""4"",""participantId"":""279DAA3D45EF4037903C41B2B5AE8090"",""assignmentId"":""4cf84dd2-b243-4058-9939-ac87349e6a62"",""projectId"":""a9f3d40c-5730-405c-b25e-1034c4c56f3f""}","https://test12345.live/?num_scrambled_semantic=8&num_scrambled_causal=4&num_scrambled_schematic=4&participantId=279DAA3D45EF4037903C41B2B5AE8090&assignmentId=4cf84dd2-b243-4058-9939-ac87349e6a62&projectId=a9f3d40c-5730-405c-b25e-1034c4c56f3f","279DAA3D45EF4037903C41B2B5AE8090-2025-08-07-19-24-29","","1790","","images/causal_sequence/saving_a_cat_causal/saving_a_cat_causal_5.png","0","",""
"","","","","","image-button-response","36","225260","0.0-10.0-1.0-2.3","279DAA3D45EF4037903C41B2B5AE8090","279DAA3D45EF4037903C41B2B5AE8090","4cf84dd2-b243-4058-9939-ac87349e6a62","a9f3d40c-5730-405c-b25e-1034c4c56f3f","{""num_scrambled_semantic"":""8"",""num_scrambled_causal"":""4"",""num_scrambled_schematic"":""4"",""participantId"":""279DAA3D45EF4037903C41B2B5AE8090"",""assignmentId"":""4cf84dd2-b243-4058-9939-ac87349e6a62"",""projectId"":""a9f3d40c-5730-405c-b25e-1034c4c56f3f""}","https://test12345.live/?num_scrambled_semantic=8&num_scrambled_causal=4&num_scrambled_schematic=4&participantId=279DAA3D45EF4037903C41B2B5AE8090&assignmentId=4cf84dd2-b243-4058-9939-ac87349e6a62&projectId=a9f3d40c-5730-405c-b25e-1034c4c56f3f","279DAA3D45EF4037903C41B2B5AE8090-2025-08-07-19-24-29","","null","","[]","null","",""
"","","","","","image-button-response","37","229789","0.0-10.0-1.0-0.4","279DAA3D45EF4037903C41B2B5AE8090","279DAA3D45EF4037903C41B2B5AE8090","4cf84dd2-b243-4058-9939-ac87349e6a62","a9f3d40c-5730-405c-b25e-1034c4c56f3f","{""num_scrambled_semantic"":""8"",""num_scrambled_causal"":""4"",""num_scrambled_schematic"":""4"",""participantId"":""279DAA3D45EF4037903C41B2B5AE8090"",""assignmentId"":""4cf84dd2-b243-4058-9939-ac87349e6a62"",""projectId"":""a9f3d40c-5730-405c-b25e-1034c4c56f3f""}","https://test12345.live/?num_scrambled_semantic=8&num_scrambled_causal=4&num_scrambled_schematic=4&participantId=279DAA3D45EF4037903C41B2B5AE8090&assignmentId=4cf84dd2-b243-4058-9939-ac87349e6a62&projectId=a9f3d40c-5730-405c-b25e-1034c4c56f3f","279DAA3D45EF4037903C41B2B5AE8090-2025-08-07-19-24-29","","null","","images/causal_sequence/saving_a_cat_causal/saving_a_cat_causal_4.png","null","",""
"","","","","","image-button-response","38","230808","0.0-10.0-1.0-1.4","279DAA3D45EF4037903C41B2B5AE8090","279DAA3D45EF4037903C41B2B5AE8090","4cf84dd2-b243-4058-9939-ac87349e6a62","a9f3d40c-5730-405c-b25e-1034c4c56f3f","{""num_scrambled_semantic"":""8"",""num_scrambled_causal"":""4"",""num_scrambled_schematic"":""4"",""participantId"":""279DAA3D45EF4037903C41B2B5AE8090"",""assignmentId"":""4cf84dd2-b243-4058-9939-ac87349e6a62"",""projectId"":""a9f3d40c-5730-405c-b25e-1034c4c56f3f""}","https://test12345.live/?num_scrambled_semantic=8&num_scrambled_causal=4&num_scrambled_schematic=4&participantId=279DAA3D45EF4037903C41B2B5AE8090&assignmentId=4cf84dd2-b243-4058-9939-ac87349e6a62&projectId=a9f3d40c-5730-405c-b25e-1034c4c56f3f","279DAA3D45EF4037903C41B2B5AE8090-2025-08-07-19-24-29","","1017","","images/causal_sequence/saving_a_cat_causal/saving_a_cat_causal_4.png","0","",""
"","","","","","image-button-response","39","232621","0.0-10.0-1.0-2.4","279DAA3D45EF4037903C41B2B5AE8090","279DAA3D45EF4037903C41B2B5AE8090","4cf84dd2-b243-4058-9939-ac87349e6a62","a9f3d40c-5730-405c-b25e-1034c4c56f3f","{""num_scrambled_semantic"":""8"",""num_scrambled_causal"":""4"",""num_scrambled_schematic"":""4"",""participantId"":""279DAA3D45EF4037903C41B2B5AE8090"",""assignmentId"":""4cf84dd2-b243-4058-9939-ac87349e6a62"",""projectId"":""a9f3d40c-5730-405c-b25e-1034c4c56f3f""}","https://test12345.live/?num_scrambled_semantic=8&num_scrambled_causal=4&num_scrambled_schematic=4&participantId=279DAA3D45EF4037903C41B2B5AE8090&assignmentId=4cf84dd2-b243-4058-9939-ac87349e6a62&projectId=a9f3d40c-5730-405c-b25e-1034c4c56f3f","279DAA3D45EF4037903C41B2B5AE8090-2025-08-07-19-24-29","","null","","[]","null","",""
"","","","","","image-button-response","40","237143","0.0-10.0-1.0-0.5","279DAA3D45EF4037903C41B2B5AE8090","279DAA3D45EF4037903C41B2B5AE8090","4cf84dd2-b243-4058-9939-ac87349e6a62","a9f3d40c-5730-405c-b25e-1034c4c56f3f","{""num_scrambled_semantic"":""8"",""num_scrambled_causal"":""4"",""num_scrambled_schematic"":""4"",""participantId"":""279DAA3D45EF4037903C41B2B5AE8090"",""assignmentId"":""4cf84dd2-b243-4058-9939-ac87349e6a62"",""projectId"":""a9f3d40c-5730-405c-b25e-1034c4c56f3f""}","https://test12345.live/?num_scrambled_semantic=8&num_scrambled_causal=4&num_scrambled_schematic=4&participantId=279DAA3D45EF4037903C41B2B5AE8090&assignmentId=4cf84dd2-b243-4058-9939-ac87349e6a62&projectId=a9f3d40c-5730-405c-b25e-1034c4c56f3f","279DAA3D45EF4037903C41B2B5AE8090-2025-08-07-19-24-29","","null","","images/causal_sequence/saving_a_cat_causal/saving_a_cat_causal_1.png","null","",""
"","","","","","image-button-response","41","237906","0.0-10.0-1.0-1.5","279DAA3D45EF4037903C41B2B5AE8090","279DAA3D45EF4037903C41B2B5AE8090","4cf84dd2-b243-4058-9939-ac87349e6a62","a9f3d40c-5730-405c-b25e-1034c4c56f3f","{""num_scrambled_semantic"":""8"",""num_scrambled_causal"":""4"",""num_scrambled_schematic"":""4"",""participantId"":""279DAA3D45EF4037903C41B2B5AE8090"",""assignmentId"":""4cf84dd2-b243-4058-9939-ac87349e6a62"",""projectId"":""a9f3d40c-5730-405c-b25e-1034c4c56f3f""}","https://test12345.live/?num_scrambled_semantic=8&num_scrambled_causal=4&num_scrambled_schematic=4&participantId=279DAA3D45EF4037903C41B2B5AE8090&assignmentId=4cf84dd2-b243-4058-9939-ac87349e6a62&projectId=a9f3d40c-5730-405c-b25e-1034c4c56f3f","279DAA3D45EF4037903C41B2B5AE8090-2025-08-07-19-24-29","","762","","images/causal_sequence/saving_a_cat_causal/saving_a_cat_causal_1.png","0","",""
"","","","","","image-button-response","42","239718","0.0-10.0-1.0-2.5","279DAA3D45EF4037903C41B2B5AE8090","279DAA3D45EF4037903C41B2B5AE8090","4cf84dd2-b243-4058-9939-ac87349e6a62","a9f3d40c-5730-405c-b25e-1034c4c56f3f","{""num_scrambled_semantic"":""8"",""num_scrambled_causal"":""4"",""num_scrambled_schematic"":""4"",""participantId"":""279DAA3D45EF4037903C41B2B5AE8090"",""assignmentId"":""4cf84dd2-b243-4058-9939-ac87349e6a62"",""projectId"":""a9f3d40c-5730-405c-b25e-1034c4c56f3f""}","https://test12345.live/?num_scrambled_semantic=8&num_scrambled_causal=4&num_scrambled_schematic=4&participantId=279DAA3D45EF4037903C41B2B5AE8090&assignmentId=4cf84dd2-b243-4058-9939-ac87349e6a62&projectId=a9f3d40c-5730-405c-b25e-1034c4c56f3f","279DAA3D45EF4037903C41B2B5AE8090-2025-08-07-19-24-29","","null","","[]","null","",""
"","","","","","image-button-response","43","244241","0.0-10.0-1.0-0.6","279DAA3D45EF4037903C41B2B5AE8090","279DAA3D45EF4037903C41B2B5AE8090","4cf84dd2-b243-4058-9939-ac87349e6a62","a9f3d40c-5730-405c-b25e-1034c4c56f3f","{""num_scrambled_semantic"":""8"",""num_scrambled_causal"":""4"",""num_scrambled_schematic"":""4"",""participantId"":""279DAA3D45EF4037903C41B2B5AE8090"",""assignmentId"":""4cf84dd2-b243-4058-9939-ac87349e6a62"",""projectId"":""a9f3d40c-5730-405c-b25e-1034c4c56f3f""}","https://test12345.live/?num_scrambled_semantic=8&num_scrambled_causal=4&num_scrambled_schematic=4&participantId=279DAA3D45EF4037903C41B2B5AE8090&assignmentId=4cf84dd2-b243-4058-9939-ac87349e6a62&projectId=a9f3d40c-5730-405c-b25e-1034c4c56f3f","279DAA3D45EF4037903C41B2B5AE8090-2025-08-07-19-24-29","","null","","images/causal_sequence/saving_a_cat_causal/saving_a_cat_causal_8.png","null","",""
"","","","","","image-button-response","44","245121","0.0-10.0-1.0-1.6","279DAA3D45EF4037903C41B2B5AE8090","279DAA3D45EF4037903C41B2B5AE8090","4cf84dd2-b243-4058-9939-ac87349e6a62","a9f3d40c-5730-405c-b25e-1034c4c56f3f","{""num_scrambled_semantic"":""8"",""num_scrambled_causal"":""4"",""num_scrambled_schematic"":""4"",""participantId"":""279DAA3D45EF4037903C41B2B5AE8090"",""assignmentId"":""4cf84dd2-b243-4058-9939-ac87349e6a62"",""projectId"":""a9f3d40c-5730-405c-b25e-1034c4c56f3f""}","https://test12345.live/?num_scrambled_semantic=8&num_scrambled_causal=4&num_scrambled_schematic=4&participantId=279DAA3D45EF4037903C41B2B5AE8090&assignmentId=4cf84dd2-b243-4058-9939-ac87349e6a62&projectId=a9f3d40c-5730-405c-b25e-1034c4c56f3f","279DAA3D45EF4037903C41B2B5AE8090-2025-08-07-19-24-29","","879","","images/causal_sequence/saving_a_cat_causal/saving_a_cat_causal_8.png","0","",""
"","","","","","image-button-response","45","246923","0.0-10.0-1.0-2.6","279DAA3D45EF4037903C41B2B5AE8090","279DAA3D45EF4037903C41B2B5AE8090","4cf84dd2-b243-4058-9939-ac87349e6a62","a9f3d40c-5730-405c-b25e-1034c4c56f3f","{""num_scrambled_semantic"":""8"",""num_scrambled_causal"":""4"",""num_scrambled_schematic"":""4"",""participantId"":""279DAA3D45EF4037903C41B2B5AE8090"",""assignmentId"":""4cf84dd2-b243-4058-9939-ac87349e6a62"",""projectId"":""a9f3d40c-5730-405c-b25e-1034c4c56f3f""}","https://test12345.live/?num_scrambled_semantic=8&num_scrambled_causal=4&num_scrambled_schematic=4&participantId=279DAA3D45EF4037903C41B2B5AE8090&assignmentId=4cf84dd2-b243-4058-9939-ac87349e6a62&projectId=a9f3d40c-5730-405c-b25e-1034c4c56f3f","279DAA3D45EF4037903C41B2B5AE8090-2025-08-07-19-24-29","","null","","[]","null","",""
"","","","","","image-button-response","46","251437","0.0-10.0-1.0-0.7","279DAA3D45EF4037903C41B2B5AE8090","279DAA3D45EF4037903C41B2B5AE8090","4cf84dd2-b243-4058-9939-ac87349e6a62","a9f3d40c-5730-405c-b25e-1034c4c56f3f","{""num_scrambled_semantic"":""8"",""num_scrambled_causal"":""4"",""num_scrambled_schematic"":""4"",""participantId"":""279DAA3D45EF4037903C41B2B5AE8090"",""assignmentId"":""4cf84dd2-b243-4058-9939-ac87349e6a62"",""projectId"":""a9f3d40c-5730-405c-b25e-1034c4c56f3f""}","https://test12345.live/?num_scrambled_semantic=8&num_scrambled_causal=4&num_scrambled_schematic=4&participantId=279DAA3D45EF4037903C41B2B5AE8090&assignmentId=4cf84dd2-b243-4058-9939-ac87349e6a62&projectId=a9f3d40c-5730-405c-b25e-1034c4c56f3f","279DAA3D45EF4037903C41B2B5AE8090-2025-08-07-19-24-29","","null","","images/causal_sequence/saving_a_cat_causal/saving_a_cat_causal_3.png","null","",""
"","","","","","image-button-response","47","252069","0.0-10.0-1.0-1.7","279DAA3D45EF4037903C41B2B5AE8090","279DAA3D45EF4037903C41B2B5AE8090","4cf84dd2-b243-4058-9939-ac87349e6a62","a9f3d40c-5730-405c-b25e-1034c4c56f3f","{""num_scrambled_semantic"":""8"",""num_scrambled_causal"":""4"",""num_scrambled_schematic"":""4"",""participantId"":""279DAA3D45EF4037903C41B2B5AE8090"",""assignmentId"":""4cf84dd2-b243-4058-9939-ac87349e6a62"",""projectId"":""a9f3d40c-5730-405c-b25e-1034c4c56f3f""}","https://test12345.live/?num_scrambled_semantic=8&num_scrambled_causal=4&num_scrambled_schematic=4&participantId=279DAA3D45EF4037903C41B2B5AE8090&assignmentId=4cf84dd2-b243-4058-9939-ac87349e6a62&projectId=a9f3d40c-5730-405c-b25e-1034c4c56f3f","279DAA3D45EF4037903C41B2B5AE8090-2025-08-07-19-24-29","","632","","images/causal_sequence/saving_a_cat_causal/saving_a_cat_causal_3.png","0","",""
"","","","","","image-button-response","48","253876","0.0-10.0-1.0-2.7","279DAA3D45EF4037903C41B2B5AE8090","279DAA3D45EF4037903C41B2B5AE8090","4cf84dd2-b243-4058-9939-ac87349e6a62","a9f3d40c-5730-405c-b25e-1034c4c56f3f","{""num_scrambled_semantic"":""8"",""num_scrambled_causal"":""4"",""num_scrambled_schematic"":""4"",""participantId"":""279DAA3D45EF4037903C41B2B5AE8090"",""assignmentId"":""4cf84dd2-b243-4058-9939-ac87349e6a62"",""projectId"":""a9f3d40c-5730-405c-b25e-1034c4c56f3f""}","https://test12345.live/?num_scrambled_semantic=8&num_scrambled_causal=4&num_scrambled_schematic=4&participantId=279DAA3D45EF4037903C41B2B5AE8090&assignmentId=4cf84dd2-b243-4058-9939-ac87349e6a62&projectId=a9f3d40c-5730-405c-b25e-1034c4c56f3f","279DAA3D45EF4037903C41B2B5AE8090-2025-08-07-19-24-29","","null","","[]","null","",""
"","","","","","image-button-response","49","258400","0.0-10.0-1.0-0.8","279DAA3D45EF4037903C41B2B5AE8090","279DAA3D45EF4037903C41B2B5AE8090","4cf84dd2-b243-4058-9939-ac87349e6a62","a9f3d40c-5730-405c-b25e-1034c4c56f3f","{""num_scrambled_semantic"":""8"",""num_scrambled_causal"":""4"",""num_scrambled_schematic"":""4"",""participantId"":""279DAA3D45EF4037903C41B2B5AE8090"",""assignmentId"":""4cf84dd2-b243-4058-9939-ac87349e6a62"",""projectId"":""a9f3d40c-5730-405c-b25e-1034c4c56f3f""}","https://test12345.live/?num_scrambled_semantic=8&num_scrambled_causal=4&num_scrambled_schematic=4&participantId=279DAA3D45EF4037903C41B2B5AE8090&assignmentId=4cf84dd2-b243-4058-9939-ac87349e6a62&projectId=a9f3d40c-5730-405c-b25e-1034c4c56f3f","279DAA3D45EF4037903C41B2B5AE8090-2025-08-07-19-24-29","","null","","images/causal_sequence/saving_a_cat_causal/saving_a_cat_causal_6.png","null","",""
"","","","","","image-button-response","50","259470","0.0-10.0-1.0-1.8","279DAA3D45EF4037903C41B2B5AE8090","279DAA3D45EF4037903C41B2B5AE8090","4cf84dd2-b243-4058-9939-ac87349e6a62","a9f3d40c-5730-405c-b25e-1034c4c56f3f","{""num_scrambled_semantic"":""8"",""num_scrambled_causal"":""4"",""num_scrambled_schematic"":""4"",""participantId"":""279DAA3D45EF4037903C41B2B5AE8090"",""assignmentId"":""4cf84dd2-b243-4058-9939-ac87349e6a62"",""projectId"":""a9f3d40c-5730-405c-b25e-1034c4c56f3f""}","https://test12345.live/?num_scrambled_semantic=8&num_scrambled_causal=4&num_scrambled_schematic=4&participantId=279DAA3D45EF4037903C41B2B5AE8090&assignmentId=4cf84dd2-b243-4058-9939-ac87349e6a62&projectId=a9f3d40c-5730-405c-b25e-1034c4c56f3f","279DAA3D45EF4037903C41B2B5AE8090-2025-08-07-19-24-29","","1069","","images/causal_sequence/saving_a_cat_causal/saving_a_cat_causal_6.png","0","",""
"","","","","","image-button-response","51","261270","0.0-10.0-1.0-2.8","279DAA3D45EF4037903C41B2B5AE8090","279DAA3D45EF4037903C41B2B5AE8090","4cf84dd2-b243-4058-9939-ac87349e6a62","a9f3d40c-5730-405c-b25e-1034c4c56f3f","{""num_scrambled_semantic"":""8"",""num_scrambled_causal"":""4"",""num_scrambled_schematic"":""4"",""participantId"":""279DAA3D45EF4037903C41B2B5AE8090"",""assignmentId"":""4cf84dd2-b243-4058-9939-ac87349e6a62"",""projectId"":""a9f3d40c-5730-405c-b25e-1034c4c56f3f""}","https://test12345.live/?num_scrambled_semantic=8&num_scrambled_causal=4&num_scrambled_schematic=4&participantId=279DAA3D45EF4037903C41B2B5AE8090&assignmentId=4cf84dd2-b243-4058-9939-ac87349e6a62&projectId=a9f3d40c-5730-405c-b25e-1034c4c56f3f","279DAA3D45EF4037903C41B2B5AE8090-2025-08-07-19-24-29","","null","","[]","null","",""
"","","","","","image-button-response","52","265793","0.0-10.0-1.0-0.9","279DAA3D45EF4037903C41B2B5AE8090","279DAA3D45EF4037903C41B2B5AE8090","4cf84dd2-b243-4058-9939-ac87349e6a62","a9f3d40c-5730-405c-b25e-1034c4c56f3f","{""num_scrambled_semantic"":""8"",""num_scrambled_causal"":""4"",""num_scrambled_schematic"":""4"",""participantId"":""279DAA3D45EF4037903C41B2B5AE8090"",""assignmentId"":""4cf84dd2-b243-4058-9939-ac87349e6a62"",""projectId"":""a9f3d40c-5730-405c-b25e-1034c4c56f3f""}","https://test12345.live/?num_scrambled_semantic=8&num_scrambled_causal=4&num_scrambled_schematic=4&participantId=279DAA3D45EF4037903C41B2B5AE8090&assignmentId=4cf84dd2-b243-4058-9939-ac87349e6a62&projectId=a9f3d40c-5730-405c-b25e-1034c4c56f3f","279DAA3D45EF4037903C41B2B5AE8090-2025-08-07-19-24-29","","null","","images/causal_sequence/saving_a_cat_causal/saving_a_cat_causal_7.png","null","",""
"","","","","","image-button-response","53","266395","0.0-10.0-1.0-1.9","279DAA3D45EF4037903C41B2B5AE8090","279DAA3D45EF4037903C41B2B5AE8090","4cf84dd2-b243-4058-9939-ac87349e6a62","a9f3d40c-5730-405c-b25e-1034c4c56f3f","{""num_scrambled_semantic"":""8"",""num_scrambled_causal"":""4"",""num_scrambled_schematic"":""4"",""participantId"":""279DAA3D45EF4037903C41B2B5AE8090"",""assignmentId"":""4cf84dd2-b243-4058-9939-ac87349e6a62"",""projectId"":""a9f3d40c-5730-405c-b25e-1034c4c56f3f""}","https://test12345.live/?num_scrambled_semantic=8&num_scrambled_causal=4&num_scrambled_schematic=4&participantId=279DAA3D45EF4037903C41B2B5AE8090&assignmentId=4cf84dd2-b243-4058-9939-ac87349e6a62&projectId=a9f3d40c-5730-405c-b25e-1034c4c56f3f","279DAA3D45EF4037903C41B2B5AE8090-2025-08-07-19-24-29","","602","","images/causal_sequence/saving_a_cat_causal/saving_a_cat_causal_7.png","0","",""
"","","","","","image-button-response","54","268207","0.0-10.0-1.0-2.9","279DAA3D45EF4037903C41B2B5AE8090","279DAA3D45EF4037903C41B2B5AE8090","4cf84dd2-b243-4058-9939-ac87349e6a62","a9f3d40c-5730-405c-b25e-1034c4c56f3f","{""num_scrambled_semantic"":""8"",""num_scrambled_causal"":""4"",""num_scrambled_schematic"":""4"",""participantId"":""279DAA3D45EF4037903C41B2B5AE8090"",""assignmentId"":""4cf84dd2-b243-4058-9939-ac87349e6a62"",""projectId"":""a9f3d40c-5730-405c-b25e-1034c4c56f3f""}","https://test12345.live/?num_scrambled_semantic=8&num_scrambled_causal=4&num_scrambled_schematic=4&participantId=279DAA3D45EF4037903C41B2B5AE8090&assignmentId=4cf84dd2-b243-4058-9939-ac87349e6a62&projectId=a9f3d40c-5730-405c-b25e-1034c4c56f3f","279DAA3D45EF4037903C41B2B5AE8090-2025-08-07-19-24-29","","null","","[]","null","",""
"","","","","","html-audio-response","55","326778","0.0-11.0","279DAA3D45EF4037903C41B2B5AE8090","279DAA3D45EF4037903C41B2B5AE8090","4cf84dd2-b243-4058-9939-ac87349e6a62","a9f3d40c-5730-405c-b25e-1034c4c56f3f","{""num_scrambled_semantic"":""8"",""num_scrambled_causal"":""4"",""num_scrambled_schematic"":""4"",""participantId"":""279DAA3D45EF4037903C41B2B5AE8090"",""assignmentId"":""4cf84dd2-b243-4058-9939-ac87349e6a62"",""projectId"":""a9f3d40c-5730-405c-b25e-1034c4c56f3f""}","https://test12345.live/?num_scrambled_semantic=8&num_scrambled_causal=4&num_scrambled_schematic=4&participantId=279DAA3D45EF4037903C41B2B5AE8090&assignmentId=4cf84dd2-b243-4058-9939-ac87349e6a62&projectId=a9f3d40c-5730-405c-b25e-1034c4c56f3f","279DAA3D45EF4037903C41B2B5AE8090-2025-08-07-19-24-29","","34646","","[""<span style=\""color: red; font-size: 24px\""> NOW RECORDING</span><p>Please say out loud all the images you saw, as many as you can remember. The images can be said in any order.</p>""]","","1","saving_a_cat_causal"
"","","","","","image-button-response","56","332787","0.0-12.0-0.0","279DAA3D45EF4037903C41B2B5AE8090","279DAA3D45EF4037903C41B2B5AE8090","4cf84dd2-b243-4058-9939-ac87349e6a62","a9f3d40c-5730-405c-b25e-1034c4c56f3f","{""num_scrambled_semantic"":""8"",""num_scrambled_causal"":""4"",""num_scrambled_schematic"":""4"",""participantId"":""279DAA3D45EF4037903C41B2B5AE8090"",""assignmentId"":""4cf84dd2-b243-4058-9939-ac87349e6a62"",""projectId"":""a9f3d40c-5730-405c-b25e-1034c4c56f3f""}","https://test12345.live/?num_scrambled_semantic=8&num_scrambled_causal=4&num_scrambled_schematic=4&participantId=279DAA3D45EF4037903C41B2B5AE8090&assignmentId=4cf84dd2-b243-4058-9939-ac87349e6a62&projectId=a9f3d40c-5730-405c-b25e-1034c4c56f3f","279DAA3D45EF4037903C41B2B5AE8090-2025-08-07-19-24-29","","null","","images/semantic_sequence/maintaining_a_car_semantic/maintaining_a_car_semantic_0.png","null","",""
"","","","","","image-button-response","57","337303","0.0-12.0-1.0-0.0","279DAA3D45EF4037903C41B2B5AE8090","279DAA3D45EF4037903C41B2B5AE8090","4cf84dd2-b243-4058-9939-ac87349e6a62","a9f3d40c-5730-405c-b25e-1034c4c56f3f","{""num_scrambled_semantic"":""8"",""num_scrambled_causal"":""4"",""num_scrambled_schematic"":""4"",""participantId"":""279DAA3D45EF4037903C41B2B5AE8090"",""assignmentId"":""4cf84dd2-b243-4058-9939-ac87349e6a62"",""projectId"":""a9f3d40c-5730-405c-b25e-1034c4c56f3f""}","https://test12345.live/?num_scrambled_semantic=8&num_scrambled_causal=4&num_scrambled_schematic=4&participantId=279DAA3D45EF4037903C41B2B5AE8090&assignmentId=4cf84dd2-b243-4058-9939-ac87349e6a62&projectId=a9f3d40c-5730-405c-b25e-1034c4c56f3f","279DAA3D45EF4037903C41B2B5AE8090-2025-08-07-19-24-29","","null","","images/semantic_sequence/maintaining_a_car_semantic/maintaining_a_car_semantic_6.png","null","",""
"","","","","","image-button-response","58","339205","0.0-12.0-1.0-1.0","279DAA3D45EF4037903C41B2B5AE8090","279DAA3D45EF4037903C41B2B5AE8090","4cf84dd2-b243-4058-9939-ac87349e6a62","a9f3d40c-5730-405c-b25e-1034c4c56f3f","{""num_scrambled_semantic"":""8"",""num_scrambled_causal"":""4"",""num_scrambled_schematic"":""4"",""participantId"":""279DAA3D45EF4037903C41B2B5AE8090"",""assignmentId"":""4cf84dd2-b243-4058-9939-ac87349e6a62"",""projectId"":""a9f3d40c-5730-405c-b25e-1034c4c56f3f""}","https://test12345.live/?num_scrambled_semantic=8&num_scrambled_causal=4&num_scrambled_schematic=4&participantId=279DAA3D45EF4037903C41B2B5AE8090&assignmentId=4cf84dd2-b243-4058-9939-ac87349e6a62&projectId=a9f3d40c-5730-405c-b25e-1034c4c56f3f","279DAA3D45EF4037903C41B2B5AE8090-2025-08-07-19-24-29","","1902","","images/semantic_sequence/maintaining_a_car_semantic/maintaining_a_car_semantic_6.png","0","",""
"","","","","","image-button-response","59","341020","0.0-12.0-1.0-2.0","279DAA3D45EF4037903C41B2B5AE8090","279DAA3D45EF4037903C41B2B5AE8090","4cf84dd2-b243-4058-9939-ac87349e6a62","a9f3d40c-5730-405c-b25e-1034c4c56f3f","{""num_scrambled_semantic"":""8"",""num_scrambled_causal"":""4"",""num_scrambled_schematic"":""4"",""participantId"":""279DAA3D45EF4037903C41B2B5AE8090"",""assignmentId"":""4cf84dd2-b243-4058-9939-ac87349e6a62"",""projectId"":""a9f3d40c-5730-405c-b25e-1034c4c56f3f""}","https://test12345.live/?num_scrambled_semantic=8&num_scrambled_causal=4&num_scrambled_schematic=4&participantId=279DAA3D45EF4037903C41B2B5AE8090&assignmentId=4cf84dd2-b243-4058-9939-ac87349e6a62&projectId=a9f3d40c-5730-405c-b25e-1034c4c56f3f","279DAA3D45EF4037903C41B2B5AE8090-2025-08-07-19-24-29","","null","","[]","null","",""
"","","","","","image-button-response","60","345542","0.0-12.0-1.0-0.1","279DAA3D45EF4037903C41B2B5AE8090","279DAA3D45EF4037903C41B2B5AE8090","4cf84dd2-b243-4058-9939-ac87349e6a62","a9f3d40c-5730-405c-b25e-1034c4c56f3f","{""num_scrambled_semantic"":""8"",""num_scrambled_causal"":""4"",""num_scrambled_schematic"":""4"",""participantId"":""279DAA3D45EF4037903C41B2B5AE8090"",""assignmentId"":""4cf84dd2-b243-4058-9939-ac87349e6a62"",""projectId"":""a9f3d40c-5730-405c-b25e-1034c4c56f3f""}","https://test12345.live/?num_scrambled_semantic=8&num_scrambled_causal=4&num_scrambled_schematic=4&participantId=279DAA3D45EF4037903C41B2B5AE8090&assignmentId=4cf84dd2-b243-4058-9939-ac87349e6a62&projectId=a9f3d40c-5730-405c-b25e-1034c4c56f3f","279DAA3D45EF4037903C41B2B5AE8090-2025-08-07-19-24-29","","null","","images/semantic_sequence/maintaining_a_car_semantic/maintaining_a_car_semantic_1.png","null","",""
"","","","","","image-button-response","61","346369","0.0-12.0-1.0-1.1","279DAA3D45EF4037903C41B2B5AE8090","279DAA3D45EF4037903C41B2B5AE8090","4cf84dd2-b243-4058-9939-ac87349e6a62","a9f3d40c-5730-405c-b25e-1034c4c56f3f","{""num_scrambled_semantic"":""8"",""num_scrambled_causal"":""4"",""num_scrambled_schematic"":""4"",""participantId"":""279DAA3D45EF4037903C41B2B5AE8090"",""assignmentId"":""4cf84dd2-b243-4058-9939-ac87349e6a62"",""projectId"":""a9f3d40c-5730-405c-b25e-1034c4c56f3f""}","https://test12345.live/?num_scrambled_semantic=8&num_scrambled_causal=4&num_scrambled_schematic=4&participantId=279DAA3D45EF4037903C41B2B5AE8090&assignmentId=4cf84dd2-b243-4058-9939-ac87349e6a62&projectId=a9f3d40c-5730-405c-b25e-1034c4c56f3f","279DAA3D45EF4037903C41B2B5AE8090-2025-08-07-19-24-29","","826","","images/semantic_sequence/maintaining_a_car_semantic/maintaining_a_car_semantic_1.png","0","",""
"","","","","","image-button-response","62","348182","0.0-12.0-1.0-2.1","279DAA3D45EF4037903C41B2B5AE8090","279DAA3D45EF4037903C41B2B5AE8090","4cf84dd2-b243-4058-9939-ac87349e6a62","a9f3d40c-5730-405c-b25e-1034c4c56f3f","{""num_scrambled_semantic"":""8"",""num_scrambled_causal"":""4"",""num_scrambled_schematic"":""4"",""participantId"":""279DAA3D45EF4037903C41B2B5AE8090"",""assignmentId"":""4cf84dd2-b243-4058-9939-ac87349e6a62"",""projectId"":""a9f3d40c-5730-405c-b25e-1034c4c56f3f""}","https://test12345.live/?num_scrambled_semantic=8&num_scrambled_causal=4&num_scrambled_schematic=4&participantId=279DAA3D45EF4037903C41B2B5AE8090&assignmentId=4cf84dd2-b243-4058-9939-ac87349e6a62&projectId=a9f3d40c-5730-405c-b25e-1034c4c56f3f","279DAA3D45EF4037903C41B2B5AE8090-2025-08-07-19-24-29","","null","","[]","null","",""
"","","","","","image-button-response","63","352709","0.0-12.0-1.0-0.2","279DAA3D45EF4037903C41B2B5AE8090","279DAA3D45EF4037903C41B2B5AE8090","4cf84dd2-b243-4058-9939-ac87349e6a62","a9f3d40c-5730-405c-b25e-1034c4c56f3f","{""num_scrambled_semantic"":""8"",""num_scrambled_causal"":""4"",""num_scrambled_schematic"":""4"",""participantId"":""279DAA3D45EF4037903C41B2B5AE8090"",""assignmentId"":""4cf84dd2-b243-4058-9939-ac87349e6a62"",""projectId"":""a9f3d40c-5730-405c-b25e-1034c4c56f3f""}","https://test12345.live/?num_scrambled_semantic=8&num_scrambled_causal=4&num_scrambled_schematic=4&participantId=279DAA3D45EF4037903C41B2B5AE8090&assignmentId=4cf84dd2-b243-4058-9939-ac87349e6a62&projectId=a9f3d40c-5730-405c-b25e-1034c4c56f3f","279DAA3D45EF4037903C41B2B5AE8090-2025-08-07-19-24-29","","null","","images/semantic_sequence/maintaining_a_car_semantic/maintaining_a_car_semantic_3.png","null","",""
"","","","","","image-button-response","64","355119","0.0-12.0-1.0-1.2","279DAA3D45EF4037903C41B2B5AE8090","279DAA3D45EF4037903C41B2B5AE8090","4cf84dd2-b243-4058-9939-ac87349e6a62","a9f3d40c-5730-405c-b25e-1034c4c56f3f","{""num_scrambled_semantic"":""8"",""num_scrambled_causal"":""4"",""num_scrambled_schematic"":""4"",""participantId"":""279DAA3D45EF4037903C41B2B5AE8090"",""assignmentId"":""4cf84dd2-b243-4058-9939-ac87349e6a62"",""projectId"":""a9f3d40c-5730-405c-b25e-1034c4c56f3f""}","https://test12345.live/?num_scrambled_semantic=8&num_scrambled_causal=4&num_scrambled_schematic=4&participantId=279DAA3D45EF4037903C41B2B5AE8090&assignmentId=4cf84dd2-b243-4058-9939-ac87349e6a62&projectId=a9f3d40c-5730-405c-b25e-1034c4c56f3f","279DAA3D45EF4037903C41B2B5AE8090-2025-08-07-19-24-29","","2408","","images/semantic_sequence/maintaining_a_car_semantic/maintaining_a_car_semantic_3.png","0","",""
"","","","","","image-button-response","65","356937","0.0-12.0-1.0-2.2","279DAA3D45EF4037903C41B2B5AE8090","279DAA3D45EF4037903C41B2B5AE8090","4cf84dd2-b243-4058-9939-ac87349e6a62","a9f3d40c-5730-405c-b25e-1034c4c56f3f","{""num_scrambled_semantic"":""8"",""num_scrambled_causal"":""4"",""num_scrambled_schematic"":""4"",""participantId"":""279DAA3D45EF4037903C41B2B5AE8090"",""assignmentId"":""4cf84dd2-b243-4058-9939-ac87349e6a62"",""projectId"":""a9f3d40c-5730-405c-b25e-1034c4c56f3f""}","https://test12345.live/?num_scrambled_semantic=8&num_scrambled_causal=4&num_scrambled_schematic=4&participantId=279DAA3D45EF4037903C41B2B5AE8090&assignmentId=4cf84dd2-b243-4058-9939-ac87349e6a62&projectId=a9f3d40c-5730-405c-b25e-1034c4c56f3f","279DAA3D45EF4037903C41B2B5AE8090-2025-08-07-19-24-29","","null","","[]","null","",""
"","","","","","image-button-response","66","361459","0.0-12.0-1.0-0.3","279DAA3D45EF4037903C41B2B5AE8090","279DAA3D45EF4037903C41B2B5AE8090","4cf84dd2-b243-4058-9939-ac87349e6a62","a9f3d40c-5730-405c-b25e-1034c4c56f3f","{""num_scrambled_semantic"":""8"",""num_scrambled_causal"":""4"",""num_scrambled_schematic"":""4"",""participantId"":""279DAA3D45EF4037903C41B2B5AE8090"",""assignmentId"":""4cf84dd2-b243-4058-9939-ac87349e6a62"",""projectId"":""a9f3d40c-5730-405c-b25e-1034c4c56f3f""}","https://test12345.live/?num_scrambled_semantic=8&num_scrambled_causal=4&num_scrambled_schematic=4&participantId=279DAA3D45EF4037903C41B2B5AE8090&assignmentId=4cf84dd2-b243-4058-9939-ac87349e6a62&projectId=a9f3d40c-5730-405c-b25e-1034c4c56f3f","279DAA3D45EF4037903C41B2B5AE8090-2025-08-07-19-24-29","","null","","images/semantic_sequence/maintaining_a_car_semantic/maintaining_a_car_semantic_5.png","null","",""
"","","","","","image-button-response","67","363601","0.0-12.0-1.0-1.3","279DAA3D45EF4037903C41B2B5AE8090","279DAA3D45EF4037903C41B2B5AE8090","4cf84dd2-b243-4058-9939-ac87349e6a62","a9f3d40c-5730-405c-b25e-1034c4c56f3f","{""num_scrambled_semantic"":""8"",""num_scrambled_causal"":""4"",""num_scrambled_schematic"":""4"",""participantId"":""279DAA3D45EF4037903C41B2B5AE8090"",""assignmentId"":""4cf84dd2-b243-4058-9939-ac87349e6a62"",""projectId"":""a9f3d40c-5730-405c-b25e-1034c4c56f3f""}","https://test12345.live/?num_scrambled_semantic=8&num_scrambled_causal=4&num_scrambled_schematic=4&participantId=279DAA3D45EF4037903C41B2B5AE8090&assignmentId=4cf84dd2-b243-4058-9939-ac87349e6a62&projectId=a9f3d40c-5730-405c-b25e-1034c4c56f3f","279DAA3D45EF4037903C41B2B5AE8090-2025-08-07-19-24-29","","2142","","images/semantic_sequence/maintaining_a_car_semantic/maintaining_a_car_semantic_5.png","0","",""
"","","","","","image-button-response","68","365415","0.0-12.0-1.0-2.3","279DAA3D45EF4037903C41B2B5AE8090","279DAA3D45EF4037903C41B2B5AE8090","4cf84dd2-b243-4058-9939-ac87349e6a62","a9f3d40c-5730-405c-b25e-1034c4c56f3f","{""num_scrambled_semantic"":""8"",""num_scrambled_causal"":""4"",""num_scrambled_schematic"":""4"",""participantId"":""279DAA3D45EF4037903C41B2B5AE8090"",""assignmentId"":""4cf84dd2-b243-4058-9939-ac87349e6a62"",""projectId"":""a9f3d40c-5730-405c-b25e-1034c4c56f3f""}","https://test12345.live/?num_scrambled_semantic=8&num_scrambled_causal=4&num_scrambled_schematic=4&participantId=279DAA3D45EF4037903C41B2B5AE8090&assignmentId=4cf84dd2-b243-4058-9939-ac87349e6a62&projectId=a9f3d40c-5730-405c-b25e-1034c4c56f3f","279DAA3D45EF4037903C41B2B5AE8090-2025-08-07-19-24-29","","null","","[]","null","",""
"","","","","","image-button-response","69","369943","0.0-12.0-1.0-0.4","279DAA3D45EF4037903C41B2B5AE8090","279DAA3D45EF4037903C41B2B5AE8090","4cf84dd2-b243-4058-9939-ac87349e6a62","a9f3d40c-5730-405c-b25e-1034c4c56f3f","{""num_scrambled_semantic"":""8"",""num_scrambled_causal"":""4"",""num_scrambled_schematic"":""4"",""participantId"":""279DAA3D45EF4037903C41B2B5AE8090"",""assignmentId"":""4cf84dd2-b243-4058-9939-ac87349e6a62"",""projectId"":""a9f3d40c-5730-405c-b25e-1034c4c56f3f""}","https://test12345.live/?num_scrambled_semantic=8&num_scrambled_causal=4&num_scrambled_schematic=4&participantId=279DAA3D45EF4037903C41B2B5AE8090&assignmentId=4cf84dd2-b243-4058-9939-ac87349e6a62&projectId=a9f3d40c-5730-405c-b25e-1034c4c56f3f","279DAA3D45EF4037903C41B2B5AE8090-2025-08-07-19-24-29","","null","","images/semantic_sequence/maintaining_a_car_semantic/maintaining_a_car_semantic_ten.png","null","",""
"","","","","","image-button-response","70","371202","0.0-12.0-1.0-1.4","279DAA3D45EF4037903C41B2B5AE8090","279DAA3D45EF4037903C41B2B5AE8090","4cf84dd2-b243-4058-9939-ac87349e6a62","a9f3d40c-5730-405c-b25e-1034c4c56f3f","{""num_scrambled_semantic"":""8"",""num_scrambled_causal"":""4"",""num_scrambled_schematic"":""4"",""participantId"":""279DAA3D45EF4037903C41B2B5AE8090"",""assignmentId"":""4cf84dd2-b243-4058-9939-ac87349e6a62"",""projectId"":""a9f3d40c-5730-405c-b25e-1034c4c56f3f""}","https://test12345.live/?num_scrambled_semantic=8&num_scrambled_causal=4&num_scrambled_schematic=4&participantId=279DAA3D45EF4037903C41B2B5AE8090&assignmentId=4cf84dd2-b243-4058-9939-ac87349e6a62&projectId=a9f3d40c-5730-405c-b25e-1034c4c56f3f","279DAA3D45EF4037903C41B2B5AE8090-2025-08-07-19-24-29","","1257","","images/semantic_sequence/maintaining_a_car_semantic/maintaining_a_car_semantic_ten.png","0","",""
"","","","","","image-button-response","71","373013","0.0-12.0-1.0-2.4","279DAA3D45EF4037903C41B2B5AE8090","279DAA3D45EF4037903C41B2B5AE8090","4cf84dd2-b243-4058-9939-ac87349e6a62","a9f3d40c-5730-405c-b25e-1034c4c56f3f","{""num_scrambled_semantic"":""8"",""num_scrambled_causal"":""4"",""num_scrambled_schematic"":""4"",""participantId"":""279DAA3D45EF4037903C41B2B5AE8090"",""assignmentId"":""4cf84dd2-b243-4058-9939-ac87349e6a62"",""projectId"":""a9f3d40c-5730-405c-b25e-1034c4c56f3f""}","https://test12345.live/?num_scrambled_semantic=8&num_scrambled_causal=4&num_scrambled_schematic=4&participantId=279DAA3D45EF4037903C41B2B5AE8090&assignmentId=4cf84dd2-b243-4058-9939-ac87349e6a62&projectId=a9f3d40c-5730-405c-b25e-1034c4c56f3f","279DAA3D45EF4037903C41B2B5AE8090-2025-08-07-19-24-29","","null","","[]","null","",""
"","","","","","image-button-response","72","377538","0.0-12.0-1.0-0.5","279DAA3D45EF4037903C41B2B5AE8090","279DAA3D45EF4037903C41B2B5AE8090","4cf84dd2-b243-4058-9939-ac87349e6a62","a9f3d40c-5730-405c-b25e-1034c4c56f3f","{""num_scrambled_semantic"":""8"",""num_scrambled_causal"":""4"",""num_scrambled_schematic"":""4"",""participantId"":""279DAA3D45EF4037903C41B2B5AE8090"",""assignmentId"":""4cf84dd2-b243-4058-9939-ac87349e6a62"",""projectId"":""a9f3d40c-5730-405c-b25e-1034c4c56f3f""}","https://test12345.live/?num_scrambled_semantic=8&num_scrambled_causal=4&num_scrambled_schematic=4&participantId=279DAA3D45EF4037903C41B2B5AE8090&assignmentId=4cf84dd2-b243-4058-9939-ac87349e6a62&projectId=a9f3d40c-5730-405c-b25e-1034c4c56f3f","279DAA3D45EF4037903C41B2B5AE8090-2025-08-07-19-24-29","","null","","images/semantic_sequence/maintaining_a_car_semantic/maintaining_a_car_semantic_8.png","null","",""
"","","","","","image-button-response","73","378924","0.0-12.0-1.0-1.5","279DAA3D45EF4037903C41B2B5AE8090","279DAA3D45EF4037903C41B2B5AE8090","4cf84dd2-b243-4058-9939-ac87349e6a62","a9f3d40c-5730-405c-b25e-1034c4c56f3f","{""num_scrambled_semantic"":""8"",""num_scrambled_causal"":""4"",""num_scrambled_schematic"":""4"",""participantId"":""279DAA3D45EF4037903C41B2B5AE8090"",""assignmentId"":""4cf84dd2-b243-4058-9939-ac87349e6a62"",""projectId"":""a9f3d40c-5730-405c-b25e-1034c4c56f3f""}","https://test12345.live/?num_scrambled_semantic=8&num_scrambled_causal=4&num_scrambled_schematic=4&participantId=279DAA3D45EF4037903C41B2B5AE8090&assignmentId=4cf84dd2-b243-4058-9939-ac87349e6a62&projectId=a9f3d40c-5730-405c-b25e-1034c4c56f3f","279DAA3D45EF4037903C41B2B5AE8090-2025-08-07-19-24-29","","1385","","images/semantic_sequence/maintaining_a_car_semantic/maintaining_a_car_semantic_8.png","0","",""
"","","","","","image-button-response","74","380735","0.0-12.0-1.0-2.5","279DAA3D45EF4037903C41B2B5AE8090","279DAA3D45EF4037903C41B2B5AE8090","4cf84dd2-b243-4058-9939-ac87349e6a62","a9f3d40c-5730-405c-b25e-1034c4c56f3f","{""num_scrambled_semantic"":""8"",""num_scrambled_causal"":""4"",""num_scrambled_schematic"":""4"",""participantId"":""279DAA3D45EF4037903C41B2B5AE8090"",""assignmentId"":""4cf84dd2-b243-4058-9939-ac87349e6a62"",""projectId"":""a9f3d40c-5730-405c-b25e-1034c4c56f3f""}","https://test12345.live/?num_scrambled_semantic=8&num_scrambled_causal=4&num_scrambled_schematic=4&participantId=279DAA3D45EF4037903C41B2B5AE8090&assignmentId=4cf84dd2-b243-4058-9939-ac87349e6a62&projectId=a9f3d40c-5730-405c-b25e-1034c4c56f3f","279DAA3D45EF4037903C41B2B5AE8090-2025-08-07-19-24-29","","null","","[]","null","",""
"","","","","","image-button-response","75","385260","0.0-12.0-1.0-0.6","279DAA3D45EF4037903C41B2B5AE8090","279DAA3D45EF4037903C41B2B5AE8090","4cf84dd2-b243-4058-9939-ac87349e6a62","a9f3d40c-5730-405c-b25e-1034c4c56f3f","{""num_scrambled_semantic"":""8"",""num_scrambled_causal"":""4"",""num_scrambled_schematic"":""4"",""participantId"":""279DAA3D45EF4037903C41B2B5AE8090"",""assignmentId"":""4cf84dd2-b243-4058-9939-ac87349e6a62"",""projectId"":""a9f3d40c-5730-405c-b25e-1034c4c56f3f""}","https://test12345.live/?num_scrambled_semantic=8&num_scrambled_causal=4&num_scrambled_schematic=4&participantId=279DAA3D45EF4037903C41B2B5AE8090&assignmentId=4cf84dd2-b243-4058-9939-ac87349e6a62&projectId=a9f3d40c-5730-405c-b25e-1034c4c56f3f","279DAA3D45EF4037903C41B2B5AE8090-2025-08-07-19-24-29","","null","","images/semantic_sequence/maintaining_a_car_semantic/maintaining_a_car_semantic_7.png","null","",""
"","","","","","image-button-response","76","386627","0.0-12.0-1.0-1.6","279DAA3D45EF4037903C41B2B5AE8090","279DAA3D45EF4037903C41B2B5AE8090","4cf84dd2-b243-4058-9939-ac87349e6a62","a9f3d40c-5730-405c-b25e-1034c4c56f3f","{""num_scrambled_semantic"":""8"",""num_scrambled_causal"":""4"",""num_scrambled_schematic"":""4"",""participantId"":""279DAA3D45EF4037903C41B2B5AE8090"",""assignmentId"":""4cf84dd2-b243-4058-9939-ac87349e6a62"",""projectId"":""a9f3d40c-5730-405c-b25e-1034c4c56f3f""}","https://test12345.live/?num_scrambled_semantic=8&num_scrambled_causal=4&num_scrambled_schematic=4&participantId=279DAA3D45EF4037903C41B2B5AE8090&assignmentId=4cf84dd2-b243-4058-9939-ac87349e6a62&projectId=a9f3d40c-5730-405c-b25e-1034c4c56f3f","279DAA3D45EF4037903C41B2B5AE8090-2025-08-07-19-24-29","","1367","","images/semantic_sequence/maintaining_a_car_semantic/maintaining_a_car_semantic_7.png","0","",""
"","","","","","image-button-response","77","388431","0.0-12.0-1.0-2.6","279DAA3D45EF4037903C41B2B5AE8090","279DAA3D45EF4037903C41B2B5AE8090","4cf84dd2-b243-4058-9939-ac87349e6a62","a9f3d40c-5730-405c-b25e-1034c4c56f3f","{""num_scrambled_semantic"":""8"",""num_scrambled_causal"":""4"",""num_scrambled_schematic"":""4"",""participantId"":""279DAA3D45EF4037903C41B2B5AE8090"",""assignmentId"":""4cf84dd2-b243-4058-9939-ac87349e6a62"",""projectId"":""a9f3d40c-5730-405c-b25e-1034c4c56f3f""}","https://test12345.live/?num_scrambled_semantic=8&num_scrambled_causal=4&num_scrambled_schematic=4&participantId=279DAA3D45EF4037903C41B2B5AE8090&assignmentId=4cf84dd2-b243-4058-9939-ac87349e6a62&projectId=a9f3d40c-5730-405c-b25e-1034c4c56f3f","279DAA3D45EF4037903C41B2B5AE8090-2025-08-07-19-24-29","","null","","[]","null","",""
"","","","","","image-button-response","78","392954","0.0-12.0-1.0-0.7","279DAA3D45EF4037903C41B2B5AE8090","279DAA3D45EF4037903C41B2B5AE8090","4cf84dd2-b243-4058-9939-ac87349e6a62","a9f3d40c-5730-405c-b25e-1034c4c56f3f","{""num_scrambled_semantic"":""8"",""num_scrambled_causal"":""4"",""num_scrambled_schematic"":""4"",""participantId"":""279DAA3D45EF4037903C41B2B5AE8090"",""assignmentId"":""4cf84dd2-b243-4058-9939-ac87349e6a62"",""projectId"":""a9f3d40c-5730-405c-b25e-1034c4c56f3f""}","https://test12345.live/?num_scrambled_semantic=8&num_scrambled_causal=4&num_scrambled_schematic=4&participantId=279DAA3D45EF4037903C41B2B5AE8090&assignmentId=4cf84dd2-b243-4058-9939-ac87349e6a62&projectId=a9f3d40c-5730-405c-b25e-1034c4c56f3f","279DAA3D45EF4037903C41B2B5AE8090-2025-08-07-19-24-29","","null","","images/semantic_sequence/maintaining_a_car_semantic/maintaining_a_car_semantic_9.png","null","",""
"","","","","","image-button-response","79","393640","0.0-12.0-1.0-1.7","279DAA3D45EF4037903C41B2B5AE8090","279DAA3D45EF4037903C41B2B5AE8090","4cf84dd2-b243-4058-9939-ac87349e6a62","a9f3d40c-5730-405c-b25e-1034c4c56f3f","{""num_scrambled_semantic"":""8"",""num_scrambled_causal"":""4"",""num_scrambled_schematic"":""4"",""participantId"":""279DAA3D45EF4037903C41B2B5AE8090"",""assignmentId"":""4cf84dd2-b243-4058-9939-ac87349e6a62"",""projectId"":""a9f3d40c-5730-405c-b25e-1034c4c56f3f""}","https://test12345.live/?num_scrambled_semantic=8&num_scrambled_causal=4&num_scrambled_schematic=4&participantId=279DAA3D45EF4037903C41B2B5AE8090&assignmentId=4cf84dd2-b243-4058-9939-ac87349e6a62&projectId=a9f3d40c-5730-405c-b25e-1034c4c56f3f","279DAA3D45EF4037903C41B2B5AE8090-2025-08-07-19-24-29","","685","","images/semantic_sequence/maintaining_a_car_semantic/maintaining_a_car_semantic_9.png","0","",""
"","","","","","image-button-response","80","395453","0.0-12.0-1.0-2.7","279DAA3D45EF4037903C41B2B5AE8090","279DAA3D45EF4037903C41B2B5AE8090","4cf84dd2-b243-4058-9939-ac87349e6a62","a9f3d40c-5730-405c-b25e-1034c4c56f3f","{""num_scrambled_semantic"":""8"",""num_scrambled_causal"":""4"",""num_scrambled_schematic"":""4"",""participantId"":""279DAA3D45EF4037903C41B2B5AE8090"",""assignmentId"":""4cf84dd2-b243-4058-9939-ac87349e6a62"",""projectId"":""a9f3d40c-5730-405c-b25e-1034c4c56f3f""}","https://test12345.live/?num_scrambled_semantic=8&num_scrambled_causal=4&num_scrambled_schematic=4&participantId=279DAA3D45EF4037903C41B2B5AE8090&assignmentId=4cf84dd2-b243-4058-9939-ac87349e6a62&projectId=a9f3d40c-5730-405c-b25e-1034c4c56f3f","279DAA3D45EF4037903C41B2B5AE8090-2025-08-07-19-24-29","","null","","[]","null","",""
"","","","","","image-button-response","81","399971","0.0-12.0-1.0-0.8","279DAA3D45EF4037903C41B2B5AE8090","279DAA3D45EF4037903C41B2B5AE8090","4cf84dd2-b243-4058-9939-ac87349e6a62","a9f3d40c-5730-405c-b25e-1034c4c56f3f","{""num_scrambled_semantic"":""8"",""num_scrambled_causal"":""4"",""num_scrambled_schematic"":""4"",""participantId"":""279DAA3D45EF4037903C41B2B5AE8090"",""assignmentId"":""4cf84dd2-b243-4058-9939-ac87349e6a62"",""projectId"":""a9f3d40c-5730-405c-b25e-1034c4c56f3f""}","https://test12345.live/?num_scrambled_semantic=8&num_scrambled_causal=4&num_scrambled_schematic=4&participantId=279DAA3D45EF4037903C41B2B5AE8090&assignmentId=4cf84dd2-b243-4058-9939-ac87349e6a62&projectId=a9f3d40c-5730-405c-b25e-1034c4c56f3f","279DAA3D45EF4037903C41B2B5AE8090-2025-08-07-19-24-29","","null","","images/semantic_sequence/maintaining_a_car_semantic/maintaining_a_car_semantic_4.png","null","",""
"","","","","","image-button-response","82","401352","0.0-12.0-1.0-1.8","279DAA3D45EF4037903C41B2B5AE8090","279DAA3D45EF4037903C41B2B5AE8090","4cf84dd2-b243-4058-9939-ac87349e6a62","a9f3d40c-5730-405c-b25e-1034c4c56f3f","{""num_scrambled_semantic"":""8"",""num_scrambled_causal"":""4"",""num_scrambled_schematic"":""4"",""participantId"":""279DAA3D45EF4037903C41B2B5AE8090"",""assignmentId"":""4cf84dd2-b243-4058-9939-ac87349e6a62"",""projectId"":""a9f3d40c-5730-405c-b25e-1034c4c56f3f""}","https://test12345.live/?num_scrambled_semantic=8&num_scrambled_causal=4&num_scrambled_schematic=4&participantId=279DAA3D45EF4037903C41B2B5AE8090&assignmentId=4cf84dd2-b243-4058-9939-ac87349e6a62&projectId=a9f3d40c-5730-405c-b25e-1034c4c56f3f","279DAA3D45EF4037903C41B2B5AE8090-2025-08-07-19-24-29","","1379","","images/semantic_sequence/maintaining_a_car_semantic/maintaining_a_car_semantic_4.png","0","",""
"","","","","","image-button-response","83","403155","0.0-12.0-1.0-2.8","279DAA3D45EF4037903C41B2B5AE8090","279DAA3D45EF4037903C41B2B5AE8090","4cf84dd2-b243-4058-9939-ac87349e6a62","a9f3d40c-5730-405c-b25e-1034c4c56f3f","{""num_scrambled_semantic"":""8"",""num_scrambled_causal"":""4"",""num_scrambled_schematic"":""4"",""participantId"":""279DAA3D45EF4037903C41B2B5AE8090"",""assignmentId"":""4cf84dd2-b243-4058-9939-ac87349e6a62"",""projectId"":""a9f3d40c-5730-405c-b25e-1034c4c56f3f""}","https://test12345.live/?num_scrambled_semantic=8&num_scrambled_causal=4&num_scrambled_schematic=4&participantId=279DAA3D45EF4037903C41B2B5AE8090&assignmentId=4cf84dd2-b243-4058-9939-ac87349e6a62&projectId=a9f3d40c-5730-405c-b25e-1034c4c56f3f","279DAA3D45EF4037903C41B2B5AE8090-2025-08-07-19-24-29","","null","","[]","null","",""
"","","","","","image-button-response","84","407677","0.0-12.0-1.0-0.9","279DAA3D45EF4037903C41B2B5AE8090","279DAA3D45EF4037903C41B2B5AE8090","4cf84dd2-b243-4058-9939-ac87349e6a62","a9f3d40c-5730-405c-b25e-1034c4c56f3f","{""num_scrambled_semantic"":""8"",""num_scrambled_causal"":""4"",""num_scrambled_schematic"":""4"",""participantId"":""279DAA3D45EF4037903C41B2B5AE8090"",""assignmentId"":""4cf84dd2-b243-4058-9939-ac87349e6a62"",""projectId"":""a9f3d40c-5730-405c-b25e-1034c4c56f3f""}","https://test12345.live/?num_scrambled_semantic=8&num_scrambled_causal=4&num_scrambled_schematic=4&participantId=279DAA3D45EF4037903C41B2B5AE8090&assignmentId=4cf84dd2-b243-4058-9939-ac87349e6a62&projectId=a9f3d40c-5730-405c-b25e-1034c4c56f3f","279DAA3D45EF4037903C41B2B5AE8090-2025-08-07-19-24-29","","null","","images/semantic_sequence/maintaining_a_car_semantic/maintaining_a_car_semantic_2.png","null","",""
"","","","","","image-button-response","85","411681","0.0-12.0-1.0-1.9","279DAA3D45EF4037903C41B2B5AE8090","279DAA3D45EF4037903C41B2B5AE8090","4cf84dd2-b243-4058-9939-ac87349e6a62","a9f3d40c-5730-405c-b25e-1034c4c56f3f","{""num_scrambled_semantic"":""8"",""num_scrambled_causal"":""4"",""num_scrambled_schematic"":""4"",""participantId"":""279DAA3D45EF4037903C41B2B5AE8090"",""assignmentId"":""4cf84dd2-b243-4058-9939-ac87349e6a62"",""projectId"":""a9f3d40c-5730-405c-b25e-1034c4c56f3f""}","https://test12345.live/?num_scrambled_semantic=8&num_scrambled_causal=4&num_scrambled_schematic=4&participantId=279DAA3D45EF4037903C41B2B5AE8090&assignmentId=4cf84dd2-b243-4058-9939-ac87349e6a62&projectId=a9f3d40c-5730-405c-b25e-1034c4c56f3f","279DAA3D45EF4037903C41B2B5AE8090-2025-08-07-19-24-29","","null","","images/semantic_sequence/maintaining_a_car_semantic/maintaining_a_car_semantic_2.png","null","",""
"","","","","","image-button-response","86","413484","0.0-12.0-1.0-2.9","279DAA3D45EF4037903C41B2B5AE8090","279DAA3D45EF4037903C41B2B5AE8090","4cf84dd2-b243-4058-9939-ac87349e6a62","a9f3d40c-5730-405c-b25e-1034c4c56f3f","{""num_scrambled_semantic"":""8"",""num_scrambled_causal"":""4"",""num_scrambled_schematic"":""4"",""participantId"":""279DAA3D45EF4037903C41B2B5AE8090"",""assignmentId"":""4cf84dd2-b243-4058-9939-ac87349e6a62"",""projectId"":""a9f3d40c-5730-405c-b25e-1034c4c56f3f""}","https://test12345.live/?num_scrambled_semantic=8&num_scrambled_causal=4&num_scrambled_schematic=4&participantId=279DAA3D45EF4037903C41B2B5AE8090&assignmentId=4cf84dd2-b243-4058-9939-ac87349e6a62&projectId=a9f3d40c-5730-405c-b25e-1034c4c56f3f","279DAA3D45EF4037903C41B2B5AE8090-2025-08-07-19-24-29","","null","","[]","null","",""
"","","","","","html-audio-response","87","521617","0.0-13.0","279DAA3D45EF4037903C41B2B5AE8090","279DAA3D45EF4037903C41B2B5AE8090","4cf84dd2-b243-4058-9939-ac87349e6a62","a9f3d40c-5730-405c-b25e-1034c4c56f3f","{""num_scrambled_semantic"":""8"",""num_scrambled_causal"":""4"",""num_scrambled_schematic"":""4"",""participantId"":""279DAA3D45EF4037903C41B2B5AE8090"",""assignmentId"":""4cf84dd2-b243-4058-9939-ac87349e6a62"",""projectId"":""a9f3d40c-5730-405c-b25e-1034c4c56f3f""}","https://test12345.live/?num_scrambled_semantic=8&num_scrambled_causal=4&num_scrambled_schematic=4&participantId=279DAA3D45EF4037903C41B2B5AE8090&assignmentId=4cf84dd2-b243-4058-9939-ac87349e6a62&projectId=a9f3d40c-5730-405c-b25e-1034c4c56f3f","279DAA3D45EF4037903C41B2B5AE8090-2025-08-07-19-24-29","","33186","","[""<span style=\""color: red; font-size: 24px\""> NOW RECORDING</span><p>Please say out loud all the images you saw, as many as you can remember. The images can be said in any order.</p>""]","","0","maintaining_a_car_semantic"
"","","","","","image-button-response","88","527637","0.0-14.0-0.0","279DAA3D45EF4037903C41B2B5AE8090","279DAA3D45EF4037903C41B2B5AE8090","4cf84dd2-b243-4058-9939-ac87349e6a62","a9f3d40c-5730-405c-b25e-1034c4c56f3f","{""num_scrambled_semantic"":""8"",""num_scrambled_causal"":""4"",""num_scrambled_schematic"":""4"",""participantId"":""279DAA3D45EF4037903C41B2B5AE8090"",""assignmentId"":""4cf84dd2-b243-4058-9939-ac87349e6a62"",""projectId"":""a9f3d40c-5730-405c-b25e-1034c4c56f3f""}","https://test12345.live/?num_scrambled_semantic=8&num_scrambled_causal=4&num_scrambled_schematic=4&participantId=279DAA3D45EF4037903C41B2B5AE8090&assignmentId=4cf84dd2-b243-4058-9939-ac87349e6a62&projectId=a9f3d40c-5730-405c-b25e-1034c4c56f3f","279DAA3D45EF4037903C41B2B5AE8090-2025-08-07-19-24-29","","null","","images/semantic_sequence/housework_semantic/housework_semantic_0.png","null","",""
"","","","","","image-button-response","89","532154","0.0-14.0-1.0-0.0","279DAA3D45EF4037903C41B2B5AE8090","279DAA3D45EF4037903C41B2B5AE8090","4cf84dd2-b243-4058-9939-ac87349e6a62","a9f3d40c-5730-405c-b25e-1034c4c56f3f","{""num_scrambled_semantic"":""8"",""num_scrambled_causal"":""4"",""num_scrambled_schematic"":""4"",""participantId"":""279DAA3D45EF4037903C41B2B5AE8090"",""assignmentId"":""4cf84dd2-b243-4058-9939-ac87349e6a62"",""projectId"":""a9f3d40c-5730-405c-b25e-1034c4c56f3f""}","https://test12345.live/?num_scrambled_semantic=8&num_scrambled_causal=4&num_scrambled_schematic=4&participantId=279DAA3D45EF4037903C41B2B5AE8090&assignmentId=4cf84dd2-b243-4058-9939-ac87349e6a62&projectId=a9f3d40c-5730-405c-b25e-1034c4c56f3f","279DAA3D45EF4037903C41B2B5AE8090-2025-08-07-19-24-29","","null","","images/semantic_sequence/housework_semantic/housework_semantic_2.png","null","",""
"","","","","","image-button-response","90","534179","0.0-14.0-1.0-1.0","279DAA3D45EF4037903C41B2B5AE8090","279DAA3D45EF4037903C41B2B5AE8090","4cf84dd2-b243-4058-9939-ac87349e6a62","a9f3d40c-5730-405c-b25e-1034c4c56f3f","{""num_scrambled_semantic"":""8"",""num_scrambled_causal"":""4"",""num_scrambled_schematic"":""4"",""participantId"":""279DAA3D45EF4037903C41B2B5AE8090"",""assignmentId"":""4cf84dd2-b243-4058-9939-ac87349e6a62"",""projectId"":""a9f3d40c-5730-405c-b25e-1034c4c56f3f""}","https://test12345.live/?num_scrambled_semantic=8&num_scrambled_causal=4&num_scrambled_schematic=4&participantId=279DAA3D45EF4037903C41B2B5AE8090&assignmentId=4cf84dd2-b243-4058-9939-ac87349e6a62&projectId=a9f3d40c-5730-405c-b25e-1034c4c56f3f","279DAA3D45EF4037903C41B2B5AE8090-2025-08-07-19-24-29","","2022","","images/semantic_sequence/housework_semantic/housework_semantic_2.png","0","",""
"","","","","","image-button-response","91","535994","0.0-14.0-1.0-2.0","279DAA3D45EF4037903C41B2B5AE8090","279DAA3D45EF4037903C41B2B5AE8090","4cf84dd2-b243-4058-9939-ac87349e6a62","a9f3d40c-5730-405c-b25e-1034c4c56f3f","{""num_scrambled_semantic"":""8"",""num_scrambled_causal"":""4"",""num_scrambled_schematic"":""4"",""participantId"":""279DAA3D45EF4037903C41B2B5AE8090"",""assignmentId"":""4cf84dd2-b243-4058-9939-ac87349e6a62"",""projectId"":""a9f3d40c-5730-405c-b25e-1034c4c56f3f""}","https://test12345.live/?num_scrambled_semantic=8&num_scrambled_causal=4&num_scrambled_schematic=4&participantId=279DAA3D45EF4037903C41B2B5AE8090&assignmentId=4cf84dd2-b243-4058-9939-ac87349e6a62&projectId=a9f3d40c-5730-405c-b25e-1034c4c56f3f","279DAA3D45EF4037903C41B2B5AE8090-2025-08-07-19-24-29","","null","","[]","null","",""
"","","","","","image-button-response","92","540509","0.0-14.0-1.0-0.1","279DAA3D45EF4037903C41B2B5AE8090","279DAA3D45EF4037903C41B2B5AE8090","4cf84dd2-b243-4058-9939-ac87349e6a62","a9f3d40c-5730-405c-b25e-1034c4c56f3f","{""num_scrambled_semantic"":""8"",""num_scrambled_causal"":""4"",""num_scrambled_schematic"":""4"",""participantId"":""279DAA3D45EF4037903C41B2B5AE8090"",""assignmentId"":""4cf84dd2-b243-4058-9939-ac87349e6a62"",""projectId"":""a9f3d40c-5730-405c-b25e-1034c4c56f3f""}","https://test12345.live/?num_scrambled_semantic=8&num_scrambled_causal=4&num_scrambled_schematic=4&participantId=279DAA3D45EF4037903C41B2B5AE8090&assignmentId=4cf84dd2-b243-4058-9939-ac87349e6a62&projectId=a9f3d40c-5730-405c-b25e-1034c4c56f3f","279DAA3D45EF4037903C41B2B5AE8090-2025-08-07-19-24-29","","null","","images/semantic_sequence/housework_semantic/housework_semantic_1.png","null","",""
"","","","","","image-button-response","93","541907","0.0-14.0-1.0-1.1","279DAA3D45EF4037903C41B2B5AE8090","279DAA3D45EF4037903C41B2B5AE8090","4cf84dd2-b243-4058-9939-ac87349e6a62","a9f3d40c-5730-405c-b25e-1034c4c56f3f","{""num_scrambled_semantic"":""8"",""num_scrambled_causal"":""4"",""num_scrambled_schematic"":""4"",""participantId"":""279DAA3D45EF4037903C41B2B5AE8090"",""assignmentId"":""4cf84dd2-b243-4058-9939-ac87349e6a62"",""projectId"":""a9f3d40c-5730-405c-b25e-1034c4c56f3f""}","https://test12345.live/?num_scrambled_semantic=8&num_scrambled_causal=4&num_scrambled_schematic=4&participantId=279DAA3D45EF4037903C41B2B5AE8090&assignmentId=4cf84dd2-b243-4058-9939-ac87349e6a62&projectId=a9f3d40c-5730-405c-b25e-1034c4c56f3f","279DAA3D45EF4037903C41B2B5AE8090-2025-08-07-19-24-29","","1396","","images/semantic_sequence/housework_semantic/housework_semantic_1.png","0","",""
"","","","","","image-button-response","94","543715","0.0-14.0-1.0-2.1","279DAA3D45EF4037903C41B2B5AE8090","279DAA3D45EF4037903C41B2B5AE8090","4cf84dd2-b243-4058-9939-ac87349e6a62","a9f3d40c-5730-405c-b25e-1034c4c56f3f","{""num_scrambled_semantic"":""8"",""num_scrambled_causal"":""4"",""num_scrambled_schematic"":""4"",""participantId"":""279DAA3D45EF4037903C41B2B5AE8090"",""assignmentId"":""4cf84dd2-b243-4058-9939-ac87349e6a62"",""projectId"":""a9f3d40c-5730-405c-b25e-1034c4c56f3f""}","https://test12345.live/?num_scrambled_semantic=8&num_scrambled_causal=4&num_scrambled_schematic=4&participantId=279DAA3D45EF4037903C41B2B5AE8090&assignmentId=4cf84dd2-b243-4058-9939-ac87349e6a62&projectId=a9f3d40c-5730-405c-b25e-1034c4c56f3f","279DAA3D45EF4037903C41B2B5AE8090-2025-08-07-19-24-29","","null","","[]","null","",""
"","","","","","image-button-response","95","548228","0.0-14.0-1.0-0.2","279DAA3D45EF4037903C41B2B5AE8090","279DAA3D45EF4037903C41B2B5AE8090","4cf84dd2-b243-4058-9939-ac87349e6a62","a9f3d40c-5730-405c-b25e-1034c4c56f3f","{""num_scrambled_semantic"":""8"",""num_scrambled_causal"":""4"",""num_scrambled_schematic"":""4"",""participantId"":""279DAA3D45EF4037903C41B2B5AE8090"",""assignmentId"":""4cf84dd2-b243-4058-9939-ac87349e6a62"",""projectId"":""a9f3d40c-5730-405c-b25e-1034c4c56f3f""}","https://test12345.live/?num_scrambled_semantic=8&num_scrambled_causal=4&num_scrambled_schematic=4&participantId=279DAA3D45EF4037903C41B2B5AE8090&assignmentId=4cf84dd2-b243-4058-9939-ac87349e6a62&projectId=a9f3d40c-5730-405c-b25e-1034c4c56f3f","279DAA3D45EF4037903C41B2B5AE8090-2025-08-07-19-24-29","","null","","images/semantic_sequence/housework_semantic/housework_semantic_7.png","null","",""
"","","","","","image-button-response","96","549531","0.0-14.0-1.0-1.2","279DAA3D45EF4037903C41B2B5AE8090","279DAA3D45EF4037903C41B2B5AE8090","4cf84dd2-b243-4058-9939-ac87349e6a62","a9f3d40c-5730-405c-b25e-1034c4c56f3f","{""num_scrambled_semantic"":""8"",""num_scrambled_causal"":""4"",""num_scrambled_schematic"":""4"",""participantId"":""279DAA3D45EF4037903C41B2B5AE8090"",""assignmentId"":""4cf84dd2-b243-4058-9939-ac87349e6a62"",""projectId"":""a9f3d40c-5730-405c-b25e-1034c4c56f3f""}","https://test12345.live/?num_scrambled_semantic=8&num_scrambled_causal=4&num_scrambled_schematic=4&participantId=279DAA3D45EF4037903C41B2B5AE8090&assignmentId=4cf84dd2-b243-4058-9939-ac87349e6a62&projectId=a9f3d40c-5730-405c-b25e-1034c4c56f3f","279DAA3D45EF4037903C41B2B5AE8090-2025-08-07-19-24-29","","1302","","images/semantic_sequence/housework_semantic/housework_semantic_7.png","0","",""
"","","","","","image-button-response","97","551346","0.0-14.0-1.0-2.2","279DAA3D45EF4037903C41B2B5AE8090","279DAA3D45EF4037903C41B2B5AE8090","4cf84dd2-b243-4058-9939-ac87349e6a62","a9f3d40c-5730-405c-b25e-1034c4c56f3f","{""num_scrambled_semantic"":""8"",""num_scrambled_causal"":""4"",""num_scrambled_schematic"":""4"",""participantId"":""279DAA3D45EF4037903C41B2B5AE8090"",""assignmentId"":""4cf84dd2-b243-4058-9939-ac87349e6a62"",""projectId"":""a9f3d40c-5730-405c-b25e-1034c4c56f3f""}","https://test12345.live/?num_scrambled_semantic=8&num_scrambled_causal=4&num_scrambled_schematic=4&participantId=279DAA3D45EF4037903C41B2B5AE8090&assignmentId=4cf84dd2-b243-4058-9939-ac87349e6a62&projectId=a9f3d40c-5730-405c-b25e-1034c4c56f3f","279DAA3D45EF4037903C41B2B5AE8090-2025-08-07-19-24-29","","null","","[]","null","",""
"","","","","","image-button-response","98","555868","0.0-14.0-1.0-0.3","279DAA3D45EF4037903C41B2B5AE8090","279DAA3D45EF4037903C41B2B5AE8090","4cf84dd2-b243-4058-9939-ac87349e6a62","a9f3d40c-5730-405c-b25e-1034c4c56f3f","{""num_scrambled_semantic"":""8"",""num_scrambled_causal"":""4"",""num_scrambled_schematic"":""4"",""participantId"":""279DAA3D45EF4037903C41B2B5AE8090"",""assignmentId"":""4cf84dd2-b243-4058-9939-ac87349e6a62"",""projectId"":""a9f3d40c-5730-405c-b25e-1034c4c56f3f""}","https://test12345.live/?num_scrambled_semantic=8&num_scrambled_causal=4&num_scrambled_schematic=4&participantId=279DAA3D45EF4037903C41B2B5AE8090&assignmentId=4cf84dd2-b243-4058-9939-ac87349e6a62&projectId=a9f3d40c-5730-405c-b25e-1034c4c56f3f","279DAA3D45EF4037903C41B2B5AE8090-2025-08-07-19-24-29","","null","","images/semantic_sequence/housework_semantic/housework_semantic_6.png","null","",""
"","","","","","image-button-response","99","556786","0.0-14.0-1.0-1.3","279DAA3D45EF4037903C41B2B5AE8090","279DAA3D45EF4037903C41B2B5AE8090","4cf84dd2-b243-4058-9939-ac87349e6a62","a9f3d40c-5730-405c-b25e-1034c4c56f3f","{""num_scrambled_semantic"":""8"",""num_scrambled_causal"":""4"",""num_scrambled_schematic"":""4"",""participantId"":""279DAA3D45EF4037903C41B2B5AE8090"",""assignmentId"":""4cf84dd2-b243-4058-9939-ac87349e6a62"",""projectId"":""a9f3d40c-5730-405c-b25e-1034c4c56f3f""}","https://test12345.live/?num_scrambled_semantic=8&num_scrambled_causal=4&num_scrambled_schematic=4&participantId=279DAA3D45EF4037903C41B2B5AE8090&assignmentId=4cf84dd2-b243-4058-9939-ac87349e6a62&projectId=a9f3d40c-5730-405c-b25e-1034c4c56f3f","279DAA3D45EF4037903C41B2B5AE8090-2025-08-07-19-24-29","","918","","images/semantic_sequence/housework_semantic/housework_semantic_6.png","0","",""
"","","","","","image-button-response","100","558597","0.0-14.0-1.0-2.3","279DAA3D45EF4037903C41B2B5AE8090","279DAA3D45EF4037903C41B2B5AE8090","4cf84dd2-b243-4058-9939-ac87349e6a62","a9f3d40c-5730-405c-b25e-1034c4c56f3f","{""num_scrambled_semantic"":""8"",""num_scrambled_causal"":""4"",""num_scrambled_schematic"":""4"",""participantId"":""279DAA3D45EF4037903C41B2B5AE8090"",""assignmentId"":""4cf84dd2-b243-4058-9939-ac87349e6a62"",""projectId"":""a9f3d40c-5730-405c-b25e-1034c4c56f3f""}","https://test12345.live/?num_scrambled_semantic=8&num_scrambled_causal=4&num_scrambled_schematic=4&participantId=279DAA3D45EF4037903C41B2B5AE8090&assignmentId=4cf84dd2-b243-4058-9939-ac87349e6a62&projectId=a9f3d40c-5730-405c-b25e-1034c4c56f3f","279DAA3D45EF4037903C41B2B5AE8090-2025-08-07-19-24-29","","null","","[]","null","",""
"","","","","","image-button-response","101","563120","0.0-14.0-1.0-0.4","279DAA3D45EF4037903C41B2B5AE8090","279DAA3D45EF4037903C41B2B5AE8090","4cf84dd2-b243-4058-9939-ac87349e6a62","a9f3d40c-5730-405c-b25e-1034c4c56f3f","{""num_scrambled_semantic"":""8"",""num_scrambled_causal"":""4"",""num_scrambled_schematic"":""4"",""participantId"":""279DAA3D45EF4037903C41B2B5AE8090"",""assignmentId"":""4cf84dd2-b243-4058-9939-ac87349e6a62"",""projectId"":""a9f3d40c-5730-405c-b25e-1034c4c56f3f""}","https://test12345.live/?num_scrambled_semantic=8&num_scrambled_causal=4&num_scrambled_schematic=4&participantId=279DAA3D45EF4037903C41B2B5AE8090&assignmentId=4cf84dd2-b243-4058-9939-ac87349e6a62&projectId=a9f3d40c-5730-405c-b25e-1034c4c56f3f","279DAA3D45EF4037903C41B2B5AE8090-2025-08-07-19-24-29","","null","","images/semantic_sequence/housework_semantic/housework_semantic_3.png","null","",""
"","","","","","image-button-response","102","563937","0.0-14.0-1.0-1.4","279DAA3D45EF4037903C41B2B5AE8090","279DAA3D45EF4037903C41B2B5AE8090","4cf84dd2-b243-4058-9939-ac87349e6a62","a9f3d40c-5730-405c-b25e-1034c4c56f3f","{""num_scrambled_semantic"":""8"",""num_scrambled_causal"":""4"",""num_scrambled_schematic"":""4"",""participantId"":""279DAA3D45EF4037903C41B2B5AE8090"",""assignmentId"":""4cf84dd2-b243-4058-9939-ac87349e6a62"",""projectId"":""a9f3d40c-5730-405c-b25e-1034c4c56f3f""}","https://test12345.live/?num_scrambled_semantic=8&num_scrambled_causal=4&num_scrambled_schematic=4&participantId=279DAA3D45EF4037903C41B2B5AE8090&assignmentId=4cf84dd2-b243-4058-9939-ac87349e6a62&projectId=a9f3d40c-5730-405c-b25e-1034c4c56f3f","279DAA3D45EF4037903C41B2B5AE8090-2025-08-07-19-24-29","","815","","images/semantic_sequence/housework_semantic/housework_semantic_3.png","0","",""
"","","","","","image-button-response","103","565745","0.0-14.0-1.0-2.4","279DAA3D45EF4037903C41B2B5AE8090","279DAA3D45EF4037903C41B2B5AE8090","4cf84dd2-b243-4058-9939-ac87349e6a62","a9f3d40c-5730-405c-b25e-1034c4c56f3f","{""num_scrambled_semantic"":""8"",""num_scrambled_causal"":""4"",""num_scrambled_schematic"":""4"",""participantId"":""279DAA3D45EF4037903C41B2B5AE8090"",""assignmentId"":""4cf84dd2-b243-4058-9939-ac87349e6a62"",""projectId"":""a9f3d40c-5730-405c-b25e-1034c4c56f3f""}","https://test12345.live/?num_scrambled_semantic=8&num_scrambled_causal=4&num_scrambled_schematic=4&participantId=279DAA3D45EF4037903C41B2B5AE8090&assignmentId=4cf84dd2-b243-4058-9939-ac87349e6a62&projectId=a9f3d40c-5730-405c-b25e-1034c4c56f3f","279DAA3D45EF4037903C41B2B5AE8090-2025-08-07-19-24-29","","null","","[]","null","",""
"","","","","","image-button-response","104","570266","0.0-14.0-1.0-0.5","279DAA3D45EF4037903C41B2B5AE8090","279DAA3D45EF4037903C41B2B5AE8090","4cf84dd2-b243-4058-9939-ac87349e6a62","a9f3d40c-5730-405c-b25e-1034c4c56f3f","{""num_scrambled_semantic"":""8"",""num_scrambled_causal"":""4"",""num_scrambled_schematic"":""4"",""participantId"":""279DAA3D45EF4037903C41B2B5AE8090"",""assignmentId"":""4cf84dd2-b243-4058-9939-ac87349e6a62"",""projectId"":""a9f3d40c-5730-405c-b25e-1034c4c56f3f""}","https://test12345.live/?num_scrambled_semantic=8&num_scrambled_causal=4&num_scrambled_schematic=4&participantId=279DAA3D45EF4037903C41B2B5AE8090&assignmentId=4cf84dd2-b243-4058-9939-ac87349e6a62&projectId=a9f3d40c-5730-405c-b25e-1034c4c56f3f","279DAA3D45EF4037903C41B2B5AE8090-2025-08-07-19-24-29","","null","","images/semantic_sequence/housework_semantic/housework_semantic_4.png","null","",""
"","","","","","image-button-response","105","571752","0.0-14.0-1.0-1.5","279DAA3D45EF4037903C41B2B5AE8090","279DAA3D45EF4037903C41B2B5AE8090","4cf84dd2-b243-4058-9939-ac87349e6a62","a9f3d40c-5730-405c-b25e-1034c4c56f3f","{""num_scrambled_semantic"":""8"",""num_scrambled_causal"":""4"",""num_scrambled_schematic"":""4"",""participantId"":""279DAA3D45EF4037903C41B2B5AE8090"",""assignmentId"":""4cf84dd2-b243-4058-9939-ac87349e6a62"",""projectId"":""a9f3d40c-5730-405c-b25e-1034c4c56f3f""}","https://test12345.live/?num_scrambled_semantic=8&num_scrambled_causal=4&num_scrambled_schematic=4&participantId=279DAA3D45EF4037903C41B2B5AE8090&assignmentId=4cf84dd2-b243-4058-9939-ac87349e6a62&projectId=a9f3d40c-5730-405c-b25e-1034c4c56f3f","279DAA3D45EF4037903C41B2B5AE8090-2025-08-07-19-24-29","","1483","","images/semantic_sequence/housework_semantic/housework_semantic_4.png","0","",""
"","","","","","image-button-response","106","573558","0.0-14.0-1.0-2.5","279DAA3D45EF4037903C41B2B5AE8090","279DAA3D45EF4037903C41B2B5AE8090","4cf84dd2-b243-4058-9939-ac87349e6a62","a9f3d40c-5730-405c-b25e-1034c4c56f3f","{""num_scrambled_semantic"":""8"",""num_scrambled_causal"":""4"",""num_scrambled_schematic"":""4"",""participantId"":""279DAA3D45EF4037903C41B2B5AE8090"",""assignmentId"":""4cf84dd2-b243-4058-9939-ac87349e6a62"",""projectId"":""a9f3d40c-5730-405c-b25e-1034c4c56f3f""}","https://test12345.live/?num_scrambled_semantic=8&num_scrambled_causal=4&num_scrambled_schematic=4&participantId=279DAA3D45EF4037903C41B2B5AE8090&assignmentId=4cf84dd2-b243-4058-9939-ac87349e6a62&projectId=a9f3d40c-5730-405c-b25e-1034c4c56f3f","279DAA3D45EF4037903C41B2B5AE8090-2025-08-07-19-24-29","","null","","[]","null","",""
"","","","","","image-button-response","107","578080","0.0-14.0-1.0-0.6","279DAA3D45EF4037903C41B2B5AE8090","279DAA3D45EF4037903C41B2B5AE8090","4cf84dd2-b243-4058-9939-ac87349e6a62","a9f3d40c-5730-405c-b25e-1034c4c56f3f","{""num_scrambled_semantic"":""8"",""num_scrambled_causal"":""4"",""num_scrambled_schematic"":""4"",""participantId"":""279DAA3D45EF4037903C41B2B5AE8090"",""assignmentId"":""4cf84dd2-b243-4058-9939-ac87349e6a62"",""projectId"":""a9f3d40c-5730-405c-b25e-1034c4c56f3f""}","https://test12345.live/?num_scrambled_semantic=8&num_scrambled_causal=4&num_scrambled_schematic=4&participantId=279DAA3D45EF4037903C41B2B5AE8090&assignmentId=4cf84dd2-b243-4058-9939-ac87349e6a62&projectId=a9f3d40c-5730-405c-b25e-1034c4c56f3f","279DAA3D45EF4037903C41B2B5AE8090-2025-08-07-19-24-29","","null","","images/semantic_sequence/housework_semantic/housework_semantic_5.png","null","",""
"","","","","","image-button-response","108","579593","0.0-14.0-1.0-1.6","279DAA3D45EF4037903C41B2B5AE8090","279DAA3D45EF4037903C41B2B5AE8090","4cf84dd2-b243-4058-9939-ac87349e6a62","a9f3d40c-5730-405c-b25e-1034c4c56f3f","{""num_scrambled_semantic"":""8"",""num_scrambled_causal"":""4"",""num_scrambled_schematic"":""4"",""participantId"":""279DAA3D45EF4037903C41B2B5AE8090"",""assignmentId"":""4cf84dd2-b243-4058-9939-ac87349e6a62"",""projectId"":""a9f3d40c-5730-405c-b25e-1034c4c56f3f""}","https://test12345.live/?num_scrambled_semantic=8&num_scrambled_causal=4&num_scrambled_schematic=4&participantId=279DAA3D45EF4037903C41B2B5AE8090&assignmentId=4cf84dd2-b243-4058-9939-ac87349e6a62&projectId=a9f3d40c-5730-405c-b25e-1034c4c56f3f","279DAA3D45EF4037903C41B2B5AE8090-2025-08-07-19-24-29","","1512","","images/semantic_sequence/housework_semantic/housework_semantic_5.png","0","",""
"","","","","","image-button-response","109","581404","0.0-14.0-1.0-2.6","279DAA3D45EF4037903C41B2B5AE8090","279DAA3D45EF4037903C41B2B5AE8090","4cf84dd2-b243-4058-9939-ac87349e6a62","a9f3d40c-5730-405c-b25e-1034c4c56f3f","{""num_scrambled_semantic"":""8"",""num_scrambled_causal"":""4"",""num_scrambled_schematic"":""4"",""participantId"":""279DAA3D45EF4037903C41B2B5AE8090"",""assignmentId"":""4cf84dd2-b243-4058-9939-ac87349e6a62"",""projectId"":""a9f3d40c-5730-405c-b25e-1034c4c56f3f""}","https://test12345.live/?num_scrambled_semantic=8&num_scrambled_causal=4&num_scrambled_schematic=4&participantId=279DAA3D45EF4037903C41B2B5AE8090&assignmentId=4cf84dd2-b243-4058-9939-ac87349e6a62&projectId=a9f3d40c-5730-405c-b25e-1034c4c56f3f","279DAA3D45EF4037903C41B2B5AE8090-2025-08-07-19-24-29","","null","","[]","null","",""
"","","","","","image-button-response","110","585925","0.0-14.0-1.0-0.7","279DAA3D45EF4037903C41B2B5AE8090","279DAA3D45EF4037903C41B2B5AE8090","4cf84dd2-b243-4058-9939-ac87349e6a62","a9f3d40c-5730-405c-b25e-1034c4c56f3f","{""num_scrambled_semantic"":""8"",""num_scrambled_causal"":""4"",""num_scrambled_schematic"":""4"",""participantId"":""279DAA3D45EF4037903C41B2B5AE8090"",""assignmentId"":""4cf84dd2-b243-4058-9939-ac87349e6a62"",""projectId"":""a9f3d40c-5730-405c-b25e-1034c4c56f3f""}","https://test12345.live/?num_scrambled_semantic=8&num_scrambled_causal=4&num_scrambled_schematic=4&participantId=279DAA3D45EF4037903C41B2B5AE8090&assignmentId=4cf84dd2-b243-4058-9939-ac87349e6a62&projectId=a9f3d40c-5730-405c-b25e-1034c4c56f3f","279DAA3D45EF4037903C41B2B5AE8090-2025-08-07-19-24-29","","null","","images/semantic_sequence/housework_semantic/housework_semantic_9.png","null","",""
"","","","","","image-button-response","111","586599","0.0-14.0-1.0-1.7","279DAA3D45EF4037903C41B2B5AE8090","279DAA3D45EF4037903C41B2B5AE8090","4cf84dd2-b243-4058-9939-ac87349e6a62","a9f3d40c-5730-405c-b25e-1034c4c56f3f","{""num_scrambled_semantic"":""8"",""num_scrambled_causal"":""4"",""num_scrambled_schematic"":""4"",""participantId"":""279DAA3D45EF4037903C41B2B5AE8090"",""assignmentId"":""4cf84dd2-b243-4058-9939-ac87349e6a62"",""projectId"":""a9f3d40c-5730-405c-b25e-1034c4c56f3f""}","https://test12345.live/?num_scrambled_semantic=8&num_scrambled_causal=4&num_scrambled_schematic=4&participantId=279DAA3D45EF4037903C41B2B5AE8090&assignmentId=4cf84dd2-b243-4058-9939-ac87349e6a62&projectId=a9f3d40c-5730-405c-b25e-1034c4c56f3f","279DAA3D45EF4037903C41B2B5AE8090-2025-08-07-19-24-29","","673","","images/semantic_sequence/housework_semantic/housework_semantic_9.png","0","",""
"","","","","","image-button-response","112","588426","0.0-14.0-1.0-2.7","279DAA3D45EF4037903C41B2B5AE8090","279DAA3D45EF4037903C41B2B5AE8090","4cf84dd2-b243-4058-9939-ac87349e6a62","a9f3d40c-5730-405c-b25e-1034c4c56f3f","{""num_scrambled_semantic"":""8"",""num_scrambled_causal"":""4"",""num_scrambled_schematic"":""4"",""participantId"":""279DAA3D45EF4037903C41B2B5AE8090"",""assignmentId"":""4cf84dd2-b243-4058-9939-ac87349e6a62"",""projectId"":""a9f3d40c-5730-405c-b25e-1034c4c56f3f""}","https://test12345.live/?num_scrambled_semantic=8&num_scrambled_causal=4&num_scrambled_schematic=4&participantId=279DAA3D45EF4037903C41B2B5AE8090&assignmentId=4cf84dd2-b243-4058-9939-ac87349e6a62&projectId=a9f3d40c-5730-405c-b25e-1034c4c56f3f","279DAA3D45EF4037903C41B2B5AE8090-2025-08-07-19-24-29","","null","","[]","null","",""
"","","","","","image-button-response","113","592955","0.0-14.0-1.0-0.8","279DAA3D45EF4037903C41B2B5AE8090","279DAA3D45EF4037903C41B2B5AE8090","4cf84dd2-b243-4058-9939-ac87349e6a62","a9f3d40c-5730-405c-b25e-1034c4c56f3f","{""num_scrambled_semantic"":""8"",""num_scrambled_causal"":""4"",""num_scrambled_schematic"":""4"",""participantId"":""279DAA3D45EF4037903C41B2B5AE8090"",""assignmentId"":""4cf84dd2-b243-4058-9939-ac87349e6a62"",""projectId"":""a9f3d40c-5730-405c-b25e-1034c4c56f3f""}","https://test12345.live/?num_scrambled_semantic=8&num_scrambled_causal=4&num_scrambled_schematic=4&participantId=279DAA3D45EF4037903C41B2B5AE8090&assignmentId=4cf84dd2-b243-4058-9939-ac87349e6a62&projectId=a9f3d40c-5730-405c-b25e-1034c4c56f3f","279DAA3D45EF4037903C41B2B5AE8090-2025-08-07-19-24-29","","null","","images/semantic_sequence/housework_semantic/housework_semantic_ten.png","null","",""
