"success","timeout","failed_images","failed_audio","failed_video","trial_type","trial_index","time_elapsed","internal_node_id","subject","subject_id","study_id","session_id","urlvar","current_url","audio_id","view_history","rt","device_id","stimulus","response","estimated_stimulus_onset","seq_name"
"true","false","[]","[]","[]","preload","0","3687","0.0-0.0","2839C30825B94A258F5BB5D25A7AD9BB","2839C30825B94A258F5BB5D25A7AD9BB","dfe409a1-87e5-437b-9300-3236d53aec6f","a9f3d40c-5730-405c-b25e-1034c4c56f3f","{""num_scrambled_semantic"":""8"",""num_scrambled_causal"":""4"",""num_scrambled_schematic"":""4"",""participantId"":""2839C30825B94A258F5BB5D25A7AD9BB"",""assignmentId"":""dfe409a1-87e5-437b-9300-3236d53aec6f"",""projectId"":""a9f3d40c-5730-405c-b25e-1034c4c56f3f""}","https://test12345.live/?num_scrambled_semantic=8&num_scrambled_causal=4&num_scrambled_schematic=4&participantId=2839C30825B94A258F5BB5D25A7AD9BB&assignmentId=dfe409a1-87e5-437b-9300-3236d53aec6f&projectId=a9f3d40c-5730-405c-b25e-1034c4c56f3f","2839C30825B94A258F5BB5D25A7AD9BB-2025-08-07-19-07-57","","","","","","",""
"","","","","","instructions","1","32676","0.0-1.0","2839C30825B94A258F5BB5D25A7AD9BB","2839C30825B94A258F5BB5D25A7AD9BB","dfe409a1-87e5-437b-9300-3236d53aec6f","a9f3d40c-5730-405c-b25e-1034c4c56f3f","{""num_scrambled_semantic"":""8"",""num_scrambled_causal"":""4"",""num_scrambled_schematic"":""4"",""participantId"":""2839C30825B94A258F5BB5D25A7AD9BB"",""assignmentId"":""dfe409a1-87e5-437b-9300-3236d53aec6f"",""projectId"":""a9f3d40c-5730-405c-b25e-1034c4c56f3f""}","https://test12345.live/?num_scrambled_semantic=8&num_scrambled_causal=4&num_scrambled_schematic=4&participantId=2839C30825B94A258F5BB5D25A7AD9BB&assignmentId=dfe409a1-87e5-437b-9300-3236d53aec6f&projectId=a9f3d40c-5730-405c-b25e-1034c4c56f3f","2839C30825B94A258F5BB5D25A7AD9BB-2025-08-07-19-07-57","[{""page_index"":0,""viewing_time"":28988}]","28988","","","","",""
"","","","","","instructions","2","37379","0.0-2.0","2839C30825B94A258F5BB5D25A7AD9BB","2839C30825B94A258F5BB5D25A7AD9BB","dfe409a1-87e5-437b-9300-3236d53aec6f","a9f3d40c-5730-405c-b25e-1034c4c56f3f","{""num_scrambled_semantic"":""8"",""num_scrambled_causal"":""4"",""num_scrambled_schematic"":""4"",""participantId"":""2839C30825B94A258F5BB5D25A7AD9BB"",""assignmentId"":""dfe409a1-87e5-437b-9300-3236d53aec6f"",""projectId"":""a9f3d40c-5730-405c-b25e-1034c4c56f3f""}","https://test12345.live/?num_scrambled_semantic=8&num_scrambled_causal=4&num_scrambled_schematic=4&participantId=2839C30825B94A258F5BB5D25A7AD9BB&assignmentId=dfe409a1-87e5-437b-9300-3236d53aec6f&projectId=a9f3d40c-5730-405c-b25e-1034c4c56f3f","2839C30825B94A258F5BB5D25A7AD9BB-2025-08-07-19-07-57","[{""page_index"":0,""viewing_time"":4703}]","4703","","","","",""
"true","","","","","fullscreen","3","39803","0.0-3.0","2839C30825B94A258F5BB5D25A7AD9BB","2839C30825B94A258F5BB5D25A7AD9BB","dfe409a1-87e5-437b-9300-3236d53aec6f","a9f3d40c-5730-405c-b25e-1034c4c56f3f","{""num_scrambled_semantic"":""8"",""num_scrambled_causal"":""4"",""num_scrambled_schematic"":""4"",""participantId"":""2839C30825B94A258F5BB5D25A7AD9BB"",""assignmentId"":""dfe409a1-87e5-437b-9300-3236d53aec6f"",""projectId"":""a9f3d40c-5730-405c-b25e-1034c4c56f3f""}","https://test12345.live/?num_scrambled_semantic=8&num_scrambled_causal=4&num_scrambled_schematic=4&participantId=2839C30825B94A258F5BB5D25A7AD9BB&assignmentId=dfe409a1-87e5-437b-9300-3236d53aec6f&projectId=a9f3d40c-5730-405c-b25e-1034c4c56f3f","2839C30825B94A258F5BB5D25A7AD9BB-2025-08-07-19-07-57","","1415","","","","",""
"","","","","","initialize-microphone","4","45543","0.0-4.0-0.0","2839C30825B94A258F5BB5D25A7AD9BB","2839C30825B94A258F5BB5D25A7AD9BB","dfe409a1-87e5-437b-9300-3236d53aec6f","a9f3d40c-5730-405c-b25e-1034c4c56f3f","{""num_scrambled_semantic"":""8"",""num_scrambled_causal"":""4"",""num_scrambled_schematic"":""4"",""participantId"":""2839C30825B94A258F5BB5D25A7AD9BB"",""assignmentId"":""dfe409a1-87e5-437b-9300-3236d53aec6f"",""projectId"":""a9f3d40c-5730-405c-b25e-1034c4c56f3f""}","https://test12345.live/?num_scrambled_semantic=8&num_scrambled_causal=4&num_scrambled_schematic=4&participantId=2839C30825B94A258F5BB5D25A7AD9BB&assignmentId=dfe409a1-87e5-437b-9300-3236d53aec6f&projectId=a9f3d40c-5730-405c-b25e-1034c4c56f3f","2839C30825B94A258F5BB5D25A7AD9BB-2025-08-07-19-07-57","","","d878e0b19337602cd86fb79d3e4ae5a5cb9b6d15d6982f971e4df05540b07a7a","","","",""
"","","","","","html-audio-response","5","60948","0.0-4.0-1.0","2839C30825B94A258F5BB5D25A7AD9BB","2839C30825B94A258F5BB5D25A7AD9BB","dfe409a1-87e5-437b-9300-3236d53aec6f","a9f3d40c-5730-405c-b25e-1034c4c56f3f","{""num_scrambled_semantic"":""8"",""num_scrambled_causal"":""4"",""num_scrambled_schematic"":""4"",""participantId"":""2839C30825B94A258F5BB5D25A7AD9BB"",""assignmentId"":""dfe409a1-87e5-437b-9300-3236d53aec6f"",""projectId"":""a9f3d40c-5730-405c-b25e-1034c4c56f3f""}","https://test12345.live/?num_scrambled_semantic=8&num_scrambled_causal=4&num_scrambled_schematic=4&participantId=2839C30825B94A258F5BB5D25A7AD9BB&assignmentId=dfe409a1-87e5-437b-9300-3236d53aec6f&projectId=a9f3d40c-5730-405c-b25e-1034c4c56f3f","2839C30825B94A258F5BB5D25A7AD9BB-2025-08-07-19-07-57","","7339","","<span style=""color: red; font-size: 24px""> NOW RECORDING</span>
        <p>Please test Microphone</p>","","12",""
"","","","","","html-button-response","6","64036","0.0-4.0-2.0","2839C30825B94A258F5BB5D25A7AD9BB","2839C30825B94A258F5BB5D25A7AD9BB","dfe409a1-87e5-437b-9300-3236d53aec6f","a9f3d40c-5730-405c-b25e-1034c4c56f3f","{""num_scrambled_semantic"":""8"",""num_scrambled_causal"":""4"",""num_scrambled_schematic"":""4"",""participantId"":""2839C30825B94A258F5BB5D25A7AD9BB"",""assignmentId"":""dfe409a1-87e5-437b-9300-3236d53aec6f"",""projectId"":""a9f3d40c-5730-405c-b25e-1034c4c56f3f""}","https://test12345.live/?num_scrambled_semantic=8&num_scrambled_causal=4&num_scrambled_schematic=4&participantId=2839C30825B94A258F5BB5D25A7AD9BB&assignmentId=dfe409a1-87e5-437b-9300-3236d53aec6f&projectId=a9f3d40c-5730-405c-b25e-1034c4c56f3f","2839C30825B94A258F5BB5D25A7AD9BB-2025-08-07-19-07-57","","3087","","<p style=""font-size:48px; color:red;"">Is Microphone OK?</p>","1","",""
"","","","","","instructions","7","73356","0.0-5.0","2839C30825B94A258F5BB5D25A7AD9BB","2839C30825B94A258F5BB5D25A7AD9BB","dfe409a1-87e5-437b-9300-3236d53aec6f","a9f3d40c-5730-405c-b25e-1034c4c56f3f","{""num_scrambled_semantic"":""8"",""num_scrambled_causal"":""4"",""num_scrambled_schematic"":""4"",""participantId"":""2839C30825B94A258F5BB5D25A7AD9BB"",""assignmentId"":""dfe409a1-87e5-437b-9300-3236d53aec6f"",""projectId"":""a9f3d40c-5730-405c-b25e-1034c4c56f3f""}","https://test12345.live/?num_scrambled_semantic=8&num_scrambled_causal=4&num_scrambled_schematic=4&participantId=2839C30825B94A258F5BB5D25A7AD9BB&assignmentId=dfe409a1-87e5-437b-9300-3236d53aec6f&projectId=a9f3d40c-5730-405c-b25e-1034c4c56f3f","2839C30825B94A258F5BB5D25A7AD9BB-2025-08-07-19-07-57","[{""page_index"":0,""viewing_time"":2639},{""page_index"":1,""viewing_time"":6680}]","9319","","","","",""
"","","","","","image-button-response","8","79374","0.0-6.0-0.0","2839C30825B94A258F5BB5D25A7AD9BB","2839C30825B94A258F5BB5D25A7AD9BB","dfe409a1-87e5-437b-9300-3236d53aec6f","a9f3d40c-5730-405c-b25e-1034c4c56f3f","{""num_scrambled_semantic"":""8"",""num_scrambled_causal"":""4"",""num_scrambled_schematic"":""4"",""participantId"":""2839C30825B94A258F5BB5D25A7AD9BB"",""assignmentId"":""dfe409a1-87e5-437b-9300-3236d53aec6f"",""projectId"":""a9f3d40c-5730-405c-b25e-1034c4c56f3f""}","https://test12345.live/?num_scrambled_semantic=8&num_scrambled_causal=4&num_scrambled_schematic=4&participantId=2839C30825B94A258F5BB5D25A7AD9BB&assignmentId=dfe409a1-87e5-437b-9300-3236d53aec6f&projectId=a9f3d40c-5730-405c-b25e-1034c4c56f3f","2839C30825B94A258F5BB5D25A7AD9BB-2025-08-07-19-07-57","","null","","images/instructions/movie_0.png","null","",""
"","","","","","image-button-response","9","83883","0.0-6.0-1.0-0.0","2839C30825B94A258F5BB5D25A7AD9BB","2839C30825B94A258F5BB5D25A7AD9BB","dfe409a1-87e5-437b-9300-3236d53aec6f","a9f3d40c-5730-405c-b25e-1034c4c56f3f","{""num_scrambled_semantic"":""8"",""num_scrambled_causal"":""4"",""num_scrambled_schematic"":""4"",""participantId"":""2839C30825B94A258F5BB5D25A7AD9BB"",""assignmentId"":""dfe409a1-87e5-437b-9300-3236d53aec6f"",""projectId"":""a9f3d40c-5730-405c-b25e-1034c4c56f3f""}","https://test12345.live/?num_scrambled_semantic=8&num_scrambled_causal=4&num_scrambled_schematic=4&participantId=2839C30825B94A258F5BB5D25A7AD9BB&assignmentId=dfe409a1-87e5-437b-9300-3236d53aec6f&projectId=a9f3d40c-5730-405c-b25e-1034c4c56f3f","2839C30825B94A258F5BB5D25A7AD9BB-2025-08-07-19-07-57","","null","","images/instructions/movie_1.png","null","",""
"","","","","","image-button-response","10","87668","0.0-6.0-1.0-1.0","2839C30825B94A258F5BB5D25A7AD9BB","2839C30825B94A258F5BB5D25A7AD9BB","dfe409a1-87e5-437b-9300-3236d53aec6f","a9f3d40c-5730-405c-b25e-1034c4c56f3f","{""num_scrambled_semantic"":""8"",""num_scrambled_causal"":""4"",""num_scrambled_schematic"":""4"",""participantId"":""2839C30825B94A258F5BB5D25A7AD9BB"",""assignmentId"":""dfe409a1-87e5-437b-9300-3236d53aec6f"",""projectId"":""a9f3d40c-5730-405c-b25e-1034c4c56f3f""}","https://test12345.live/?num_scrambled_semantic=8&num_scrambled_causal=4&num_scrambled_schematic=4&participantId=2839C30825B94A258F5BB5D25A7AD9BB&assignmentId=dfe409a1-87e5-437b-9300-3236d53aec6f&projectId=a9f3d40c-5730-405c-b25e-1034c4c56f3f","2839C30825B94A258F5BB5D25A7AD9BB-2025-08-07-19-07-57","","3783","","images/instructions/movie_1.png","0","",""
"","","","","","image-button-response","11","89472","0.0-6.0-1.0-2.0","2839C30825B94A258F5BB5D25A7AD9BB","2839C30825B94A258F5BB5D25A7AD9BB","dfe409a1-87e5-437b-9300-3236d53aec6f","a9f3d40c-5730-405c-b25e-1034c4c56f3f","{""num_scrambled_semantic"":""8"",""num_scrambled_causal"":""4"",""num_scrambled_schematic"":""4"",""participantId"":""2839C30825B94A258F5BB5D25A7AD9BB"",""assignmentId"":""dfe409a1-87e5-437b-9300-3236d53aec6f"",""projectId"":""a9f3d40c-5730-405c-b25e-1034c4c56f3f""}","https://test12345.live/?num_scrambled_semantic=8&num_scrambled_causal=4&num_scrambled_schematic=4&participantId=2839C30825B94A258F5BB5D25A7AD9BB&assignmentId=dfe409a1-87e5-437b-9300-3236d53aec6f&projectId=a9f3d40c-5730-405c-b25e-1034c4c56f3f","2839C30825B94A258F5BB5D25A7AD9BB-2025-08-07-19-07-57","","null","","[]","null","",""
"","","","","","image-button-response","12","93982","0.0-6.0-1.0-0.1","2839C30825B94A258F5BB5D25A7AD9BB","2839C30825B94A258F5BB5D25A7AD9BB","dfe409a1-87e5-437b-9300-3236d53aec6f","a9f3d40c-5730-405c-b25e-1034c4c56f3f","{""num_scrambled_semantic"":""8"",""num_scrambled_causal"":""4"",""num_scrambled_schematic"":""4"",""participantId"":""2839C30825B94A258F5BB5D25A7AD9BB"",""assignmentId"":""dfe409a1-87e5-437b-9300-3236d53aec6f"",""projectId"":""a9f3d40c-5730-405c-b25e-1034c4c56f3f""}","https://test12345.live/?num_scrambled_semantic=8&num_scrambled_causal=4&num_scrambled_schematic=4&participantId=2839C30825B94A258F5BB5D25A7AD9BB&assignmentId=dfe409a1-87e5-437b-9300-3236d53aec6f&projectId=a9f3d40c-5730-405c-b25e-1034c4c56f3f","2839C30825B94A258F5BB5D25A7AD9BB-2025-08-07-19-07-57","","null","","images/instructions/movie_2.png","null","",""
"","","","","","image-button-response","13","96771","0.0-6.0-1.0-1.1","2839C30825B94A258F5BB5D25A7AD9BB","2839C30825B94A258F5BB5D25A7AD9BB","dfe409a1-87e5-437b-9300-3236d53aec6f","a9f3d40c-5730-405c-b25e-1034c4c56f3f","{""num_scrambled_semantic"":""8"",""num_scrambled_causal"":""4"",""num_scrambled_schematic"":""4"",""participantId"":""2839C30825B94A258F5BB5D25A7AD9BB"",""assignmentId"":""dfe409a1-87e5-437b-9300-3236d53aec6f"",""projectId"":""a9f3d40c-5730-405c-b25e-1034c4c56f3f""}","https://test12345.live/?num_scrambled_semantic=8&num_scrambled_causal=4&num_scrambled_schematic=4&participantId=2839C30825B94A258F5BB5D25A7AD9BB&assignmentId=dfe409a1-87e5-437b-9300-3236d53aec6f&projectId=a9f3d40c-5730-405c-b25e-1034c4c56f3f","2839C30825B94A258F5BB5D25A7AD9BB-2025-08-07-19-07-57","","2787","","images/instructions/movie_2.png","0","",""
"","","","","","image-button-response","14","98572","0.0-6.0-1.0-2.1","2839C30825B94A258F5BB5D25A7AD9BB","2839C30825B94A258F5BB5D25A7AD9BB","dfe409a1-87e5-437b-9300-3236d53aec6f","a9f3d40c-5730-405c-b25e-1034c4c56f3f","{""num_scrambled_semantic"":""8"",""num_scrambled_causal"":""4"",""num_scrambled_schematic"":""4"",""participantId"":""2839C30825B94A258F5BB5D25A7AD9BB"",""assignmentId"":""dfe409a1-87e5-437b-9300-3236d53aec6f"",""projectId"":""a9f3d40c-5730-405c-b25e-1034c4c56f3f""}","https://test12345.live/?num_scrambled_semantic=8&num_scrambled_causal=4&num_scrambled_schematic=4&participantId=2839C30825B94A258F5BB5D25A7AD9BB&assignmentId=dfe409a1-87e5-437b-9300-3236d53aec6f&projectId=a9f3d40c-5730-405c-b25e-1034c4c56f3f","2839C30825B94A258F5BB5D25A7AD9BB-2025-08-07-19-07-57","","null","","[]","null","",""
"","","","","","image-button-response","15","103076","0.0-6.0-1.0-0.2","2839C30825B94A258F5BB5D25A7AD9BB","2839C30825B94A258F5BB5D25A7AD9BB","dfe409a1-87e5-437b-9300-3236d53aec6f","a9f3d40c-5730-405c-b25e-1034c4c56f3f","{""num_scrambled_semantic"":""8"",""num_scrambled_causal"":""4"",""num_scrambled_schematic"":""4"",""participantId"":""2839C30825B94A258F5BB5D25A7AD9BB"",""assignmentId"":""dfe409a1-87e5-437b-9300-3236d53aec6f"",""projectId"":""a9f3d40c-5730-405c-b25e-1034c4c56f3f""}","https://test12345.live/?num_scrambled_semantic=8&num_scrambled_causal=4&num_scrambled_schematic=4&participantId=2839C30825B94A258F5BB5D25A7AD9BB&assignmentId=dfe409a1-87e5-437b-9300-3236d53aec6f&projectId=a9f3d40c-5730-405c-b25e-1034c4c56f3f","2839C30825B94A258F5BB5D25A7AD9BB-2025-08-07-19-07-57","","null","","images/instructions/movie_3.png","null","",""
"","","","","","image-button-response","16","104403","0.0-6.0-1.0-1.2","2839C30825B94A258F5BB5D25A7AD9BB","2839C30825B94A258F5BB5D25A7AD9BB","dfe409a1-87e5-437b-9300-3236d53aec6f","a9f3d40c-5730-405c-b25e-1034c4c56f3f","{""num_scrambled_semantic"":""8"",""num_scrambled_causal"":""4"",""num_scrambled_schematic"":""4"",""participantId"":""2839C30825B94A258F5BB5D25A7AD9BB"",""assignmentId"":""dfe409a1-87e5-437b-9300-3236d53aec6f"",""projectId"":""a9f3d40c-5730-405c-b25e-1034c4c56f3f""}","https://test12345.live/?num_scrambled_semantic=8&num_scrambled_causal=4&num_scrambled_schematic=4&participantId=2839C30825B94A258F5BB5D25A7AD9BB&assignmentId=dfe409a1-87e5-437b-9300-3236d53aec6f&projectId=a9f3d40c-5730-405c-b25e-1034c4c56f3f","2839C30825B94A258F5BB5D25A7AD9BB-2025-08-07-19-07-57","","1325","","images/instructions/movie_3.png","0","",""
"","","","","","image-button-response","17","106212","0.0-6.0-1.0-2.2","2839C30825B94A258F5BB5D25A7AD9BB","2839C30825B94A258F5BB5D25A7AD9BB","dfe409a1-87e5-437b-9300-3236d53aec6f","a9f3d40c-5730-405c-b25e-1034c4c56f3f","{""num_scrambled_semantic"":""8"",""num_scrambled_causal"":""4"",""num_scrambled_schematic"":""4"",""participantId"":""2839C30825B94A258F5BB5D25A7AD9BB"",""assignmentId"":""dfe409a1-87e5-437b-9300-3236d53aec6f"",""projectId"":""a9f3d40c-5730-405c-b25e-1034c4c56f3f""}","https://test12345.live/?num_scrambled_semantic=8&num_scrambled_causal=4&num_scrambled_schematic=4&participantId=2839C30825B94A258F5BB5D25A7AD9BB&assignmentId=dfe409a1-87e5-437b-9300-3236d53aec6f&projectId=a9f3d40c-5730-405c-b25e-1034c4c56f3f","2839C30825B94A258F5BB5D25A7AD9BB-2025-08-07-19-07-57","","null","","[]","null","",""
"","","","","","image-button-response","18","110722","0.0-6.0-1.0-0.3","2839C30825B94A258F5BB5D25A7AD9BB","2839C30825B94A258F5BB5D25A7AD9BB","dfe409a1-87e5-437b-9300-3236d53aec6f","a9f3d40c-5730-405c-b25e-1034c4c56f3f","{""num_scrambled_semantic"":""8"",""num_scrambled_causal"":""4"",""num_scrambled_schematic"":""4"",""participantId"":""2839C30825B94A258F5BB5D25A7AD9BB"",""assignmentId"":""dfe409a1-87e5-437b-9300-3236d53aec6f"",""projectId"":""a9f3d40c-5730-405c-b25e-1034c4c56f3f""}","https://test12345.live/?num_scrambled_semantic=8&num_scrambled_causal=4&num_scrambled_schematic=4&participantId=2839C30825B94A258F5BB5D25A7AD9BB&assignmentId=dfe409a1-87e5-437b-9300-3236d53aec6f&projectId=a9f3d40c-5730-405c-b25e-1034c4c56f3f","2839C30825B94A258F5BB5D25A7AD9BB-2025-08-07-19-07-57","","null","","images/instructions/movie_4.png","null","",""
"","","","","","image-button-response","19","111612","0.0-6.0-1.0-1.3","2839C30825B94A258F5BB5D25A7AD9BB","2839C30825B94A258F5BB5D25A7AD9BB","dfe409a1-87e5-437b-9300-3236d53aec6f","a9f3d40c-5730-405c-b25e-1034c4c56f3f","{""num_scrambled_semantic"":""8"",""num_scrambled_causal"":""4"",""num_scrambled_schematic"":""4"",""participantId"":""2839C30825B94A258F5BB5D25A7AD9BB"",""assignmentId"":""dfe409a1-87e5-437b-9300-3236d53aec6f"",""projectId"":""a9f3d40c-5730-405c-b25e-1034c4c56f3f""}","https://test12345.live/?num_scrambled_semantic=8&num_scrambled_causal=4&num_scrambled_schematic=4&participantId=2839C30825B94A258F5BB5D25A7AD9BB&assignmentId=dfe409a1-87e5-437b-9300-3236d53aec6f&projectId=a9f3d40c-5730-405c-b25e-1034c4c56f3f","2839C30825B94A258F5BB5D25A7AD9BB-2025-08-07-19-07-57","","888","","images/instructions/movie_4.png","0","",""
"","","","","","image-button-response","20","113432","0.0-6.0-1.0-2.3","2839C30825B94A258F5BB5D25A7AD9BB","2839C30825B94A258F5BB5D25A7AD9BB","dfe409a1-87e5-437b-9300-3236d53aec6f","a9f3d40c-5730-405c-b25e-1034c4c56f3f","{""num_scrambled_semantic"":""8"",""num_scrambled_causal"":""4"",""num_scrambled_schematic"":""4"",""participantId"":""2839C30825B94A258F5BB5D25A7AD9BB"",""assignmentId"":""dfe409a1-87e5-437b-9300-3236d53aec6f"",""projectId"":""a9f3d40c-5730-405c-b25e-1034c4c56f3f""}","https://test12345.live/?num_scrambled_semantic=8&num_scrambled_causal=4&num_scrambled_schematic=4&participantId=2839C30825B94A258F5BB5D25A7AD9BB&assignmentId=dfe409a1-87e5-437b-9300-3236d53aec6f&projectId=a9f3d40c-5730-405c-b25e-1034c4c56f3f","2839C30825B94A258F5BB5D25A7AD9BB-2025-08-07-19-07-57","","null","","[]","null","",""
"","","","","","instructions","21","127043","0.0-7.0","2839C30825B94A258F5BB5D25A7AD9BB","2839C30825B94A258F5BB5D25A7AD9BB","dfe409a1-87e5-437b-9300-3236d53aec6f","a9f3d40c-5730-405c-b25e-1034c4c56f3f","{""num_scrambled_semantic"":""8"",""num_scrambled_causal"":""4"",""num_scrambled_schematic"":""4"",""participantId"":""2839C30825B94A258F5BB5D25A7AD9BB"",""assignmentId"":""dfe409a1-87e5-437b-9300-3236d53aec6f"",""projectId"":""a9f3d40c-5730-405c-b25e-1034c4c56f3f""}","https://test12345.live/?num_scrambled_semantic=8&num_scrambled_causal=4&num_scrambled_schematic=4&participantId=2839C30825B94A258F5BB5D25A7AD9BB&assignmentId=dfe409a1-87e5-437b-9300-3236d53aec6f&projectId=a9f3d40c-5730-405c-b25e-1034c4c56f3f","2839C30825B94A258F5BB5D25A7AD9BB-2025-08-07-19-07-57","[{""page_index"":0,""viewing_time"":11075},{""page_index"":1,""viewing_time"":2536}]","13611","","","","",""
"","","","","","html-audio-response","22","171044","0.0-8.0","2839C30825B94A258F5BB5D25A7AD9BB","2839C30825B94A258F5BB5D25A7AD9BB","dfe409a1-87e5-437b-9300-3236d53aec6f","a9f3d40c-5730-405c-b25e-1034c4c56f3f","{""num_scrambled_semantic"":""8"",""num_scrambled_causal"":""4"",""num_scrambled_schematic"":""4"",""participantId"":""2839C30825B94A258F5BB5D25A7AD9BB"",""assignmentId"":""dfe409a1-87e5-437b-9300-3236d53aec6f"",""projectId"":""a9f3d40c-5730-405c-b25e-1034c4c56f3f""}","https://test12345.live/?num_scrambled_semantic=8&num_scrambled_causal=4&num_scrambled_schematic=4&participantId=2839C30825B94A258F5BB5D25A7AD9BB&assignmentId=dfe409a1-87e5-437b-9300-3236d53aec6f&projectId=a9f3d40c-5730-405c-b25e-1034c4c56f3f","2839C30825B94A258F5BB5D25A7AD9BB-2025-08-07-19-07-57","","21425","","[""<span style=\""color: red; font-size: 24px\""> NOW RECORDING</span><p>Please say out loud all the images you saw, as many as you can remember. The images can be said in any order.</p>""]","","2",""
"","","","","","instructions","23","173811","0.0-9.0","2839C30825B94A258F5BB5D25A7AD9BB","2839C30825B94A258F5BB5D25A7AD9BB","dfe409a1-87e5-437b-9300-3236d53aec6f","a9f3d40c-5730-405c-b25e-1034c4c56f3f","{""num_scrambled_semantic"":""8"",""num_scrambled_causal"":""4"",""num_scrambled_schematic"":""4"",""participantId"":""2839C30825B94A258F5BB5D25A7AD9BB"",""assignmentId"":""dfe409a1-87e5-437b-9300-3236d53aec6f"",""projectId"":""a9f3d40c-5730-405c-b25e-1034c4c56f3f""}","https://test12345.live/?num_scrambled_semantic=8&num_scrambled_causal=4&num_scrambled_schematic=4&participantId=2839C30825B94A258F5BB5D25A7AD9BB&assignmentId=dfe409a1-87e5-437b-9300-3236d53aec6f&projectId=a9f3d40c-5730-405c-b25e-1034c4c56f3f","2839C30825B94A258F5BB5D25A7AD9BB-2025-08-07-19-07-57","[{""page_index"":0,""viewing_time"":2762}]","2763","","","","",""
"","","","","","image-button-response","24","179824","0.0-10.0-0.0","2839C30825B94A258F5BB5D25A7AD9BB","2839C30825B94A258F5BB5D25A7AD9BB","dfe409a1-87e5-437b-9300-3236d53aec6f","a9f3d40c-5730-405c-b25e-1034c4c56f3f","{""num_scrambled_semantic"":""8"",""num_scrambled_causal"":""4"",""num_scrambled_schematic"":""4"",""participantId"":""2839C30825B94A258F5BB5D25A7AD9BB"",""assignmentId"":""dfe409a1-87e5-437b-9300-3236d53aec6f"",""projectId"":""a9f3d40c-5730-405c-b25e-1034c4c56f3f""}","https://test12345.live/?num_scrambled_semantic=8&num_scrambled_causal=4&num_scrambled_schematic=4&participantId=2839C30825B94A258F5BB5D25A7AD9BB&assignmentId=dfe409a1-87e5-437b-9300-3236d53aec6f&projectId=a9f3d40c-5730-405c-b25e-1034c4c56f3f","2839C30825B94A258F5BB5D25A7AD9BB-2025-08-07-19-07-57","","null","","images/causal_sequence/coin_causal/coin_causal_0.png","null","",""
"","","","","","image-button-response","25","184326","0.0-10.0-1.0-0.0","2839C30825B94A258F5BB5D25A7AD9BB","2839C30825B94A258F5BB5D25A7AD9BB","dfe409a1-87e5-437b-9300-3236d53aec6f","a9f3d40c-5730-405c-b25e-1034c4c56f3f","{""num_scrambled_semantic"":""8"",""num_scrambled_causal"":""4"",""num_scrambled_schematic"":""4"",""participantId"":""2839C30825B94A258F5BB5D25A7AD9BB"",""assignmentId"":""dfe409a1-87e5-437b-9300-3236d53aec6f"",""projectId"":""a9f3d40c-5730-405c-b25e-1034c4c56f3f""}","https://test12345.live/?num_scrambled_semantic=8&num_scrambled_causal=4&num_scrambled_schematic=4&participantId=2839C30825B94A258F5BB5D25A7AD9BB&assignmentId=dfe409a1-87e5-437b-9300-3236d53aec6f&projectId=a9f3d40c-5730-405c-b25e-1034c4c56f3f","2839C30825B94A258F5BB5D25A7AD9BB-2025-08-07-19-07-57","","null","","images/causal_sequence/coin_causal/coin_causal_1.png","null","",""
"","","","","","image-button-response","26","188353","0.0-10.0-1.0-1.0","2839C30825B94A258F5BB5D25A7AD9BB","2839C30825B94A258F5BB5D25A7AD9BB","dfe409a1-87e5-437b-9300-3236d53aec6f","a9f3d40c-5730-405c-b25e-1034c4c56f3f","{""num_scrambled_semantic"":""8"",""num_scrambled_causal"":""4"",""num_scrambled_schematic"":""4"",""participantId"":""2839C30825B94A258F5BB5D25A7AD9BB"",""assignmentId"":""dfe409a1-87e5-437b-9300-3236d53aec6f"",""projectId"":""a9f3d40c-5730-405c-b25e-1034c4c56f3f""}","https://test12345.live/?num_scrambled_semantic=8&num_scrambled_causal=4&num_scrambled_schematic=4&participantId=2839C30825B94A258F5BB5D25A7AD9BB&assignmentId=dfe409a1-87e5-437b-9300-3236d53aec6f&projectId=a9f3d40c-5730-405c-b25e-1034c4c56f3f","2839C30825B94A258F5BB5D25A7AD9BB-2025-08-07-19-07-57","","null","","images/causal_sequence/coin_causal/coin_causal_1.png","null","",""
"","","","","","image-button-response","27","190173","0.0-10.0-1.0-2.0","2839C30825B94A258F5BB5D25A7AD9BB","2839C30825B94A258F5BB5D25A7AD9BB","dfe409a1-87e5-437b-9300-3236d53aec6f","a9f3d40c-5730-405c-b25e-1034c4c56f3f","{""num_scrambled_semantic"":""8"",""num_scrambled_causal"":""4"",""num_scrambled_schematic"":""4"",""participantId"":""2839C30825B94A258F5BB5D25A7AD9BB"",""assignmentId"":""dfe409a1-87e5-437b-9300-3236d53aec6f"",""projectId"":""a9f3d40c-5730-405c-b25e-1034c4c56f3f""}","https://test12345.live/?num_scrambled_semantic=8&num_scrambled_causal=4&num_scrambled_schematic=4&participantId=2839C30825B94A258F5BB5D25A7AD9BB&assignmentId=dfe409a1-87e5-437b-9300-3236d53aec6f&projectId=a9f3d40c-5730-405c-b25e-1034c4c56f3f","2839C30825B94A258F5BB5D25A7AD9BB-2025-08-07-19-07-57","","null","","[]","null","",""
"","","","","","image-button-response","28","194682","0.0-10.0-1.0-0.1","2839C30825B94A258F5BB5D25A7AD9BB","2839C30825B94A258F5BB5D25A7AD9BB","dfe409a1-87e5-437b-9300-3236d53aec6f","a9f3d40c-5730-405c-b25e-1034c4c56f3f","{""num_scrambled_semantic"":""8"",""num_scrambled_causal"":""4"",""num_scrambled_schematic"":""4"",""participantId"":""2839C30825B94A258F5BB5D25A7AD9BB"",""assignmentId"":""dfe409a1-87e5-437b-9300-3236d53aec6f"",""projectId"":""a9f3d40c-5730-405c-b25e-1034c4c56f3f""}","https://test12345.live/?num_scrambled_semantic=8&num_scrambled_causal=4&num_scrambled_schematic=4&participantId=2839C30825B94A258F5BB5D25A7AD9BB&assignmentId=dfe409a1-87e5-437b-9300-3236d53aec6f&projectId=a9f3d40c-5730-405c-b25e-1034c4c56f3f","2839C30825B94A258F5BB5D25A7AD9BB-2025-08-07-19-07-57","","null","","images/causal_sequence/coin_causal/coin_causal_2.png","null","",""
"","","","","","image-button-response","29","195956","0.0-10.0-1.0-1.1","2839C30825B94A258F5BB5D25A7AD9BB","2839C30825B94A258F5BB5D25A7AD9BB","dfe409a1-87e5-437b-9300-3236d53aec6f","a9f3d40c-5730-405c-b25e-1034c4c56f3f","{""num_scrambled_semantic"":""8"",""num_scrambled_causal"":""4"",""num_scrambled_schematic"":""4"",""participantId"":""2839C30825B94A258F5BB5D25A7AD9BB"",""assignmentId"":""dfe409a1-87e5-437b-9300-3236d53aec6f"",""projectId"":""a9f3d40c-5730-405c-b25e-1034c4c56f3f""}","https://test12345.live/?num_scrambled_semantic=8&num_scrambled_causal=4&num_scrambled_schematic=4&participantId=2839C30825B94A258F5BB5D25A7AD9BB&assignmentId=dfe409a1-87e5-437b-9300-3236d53aec6f&projectId=a9f3d40c-5730-405c-b25e-1034c4c56f3f","2839C30825B94A258F5BB5D25A7AD9BB-2025-08-07-19-07-57","","1273","","images/causal_sequence/coin_causal/coin_causal_2.png","0","",""
"","","","","","image-button-response","30","197772","0.0-10.0-1.0-2.1","2839C30825B94A258F5BB5D25A7AD9BB","2839C30825B94A258F5BB5D25A7AD9BB","dfe409a1-87e5-437b-9300-3236d53aec6f","a9f3d40c-5730-405c-b25e-1034c4c56f3f","{""num_scrambled_semantic"":""8"",""num_scrambled_causal"":""4"",""num_scrambled_schematic"":""4"",""participantId"":""2839C30825B94A258F5BB5D25A7AD9BB"",""assignmentId"":""dfe409a1-87e5-437b-9300-3236d53aec6f"",""projectId"":""a9f3d40c-5730-405c-b25e-1034c4c56f3f""}","https://test12345.live/?num_scrambled_semantic=8&num_scrambled_causal=4&num_scrambled_schematic=4&participantId=2839C30825B94A258F5BB5D25A7AD9BB&assignmentId=dfe409a1-87e5-437b-9300-3236d53aec6f&projectId=a9f3d40c-5730-405c-b25e-1034c4c56f3f","2839C30825B94A258F5BB5D25A7AD9BB-2025-08-07-19-07-57","","null","","[]","null","",""
"","","","","","image-button-response","31","202282","0.0-10.0-1.0-0.2","2839C30825B94A258F5BB5D25A7AD9BB","2839C30825B94A258F5BB5D25A7AD9BB","dfe409a1-87e5-437b-9300-3236d53aec6f","a9f3d40c-5730-405c-b25e-1034c4c56f3f","{""num_scrambled_semantic"":""8"",""num_scrambled_causal"":""4"",""num_scrambled_schematic"":""4"",""participantId"":""2839C30825B94A258F5BB5D25A7AD9BB"",""assignmentId"":""dfe409a1-87e5-437b-9300-3236d53aec6f"",""projectId"":""a9f3d40c-5730-405c-b25e-1034c4c56f3f""}","https://test12345.live/?num_scrambled_semantic=8&num_scrambled_causal=4&num_scrambled_schematic=4&participantId=2839C30825B94A258F5BB5D25A7AD9BB&assignmentId=dfe409a1-87e5-437b-9300-3236d53aec6f&projectId=a9f3d40c-5730-405c-b25e-1034c4c56f3f","2839C30825B94A258F5BB5D25A7AD9BB-2025-08-07-19-07-57","","null","","images/causal_sequence/coin_causal/coin_causal_3.png","null","",""
"","","","","","image-button-response","32","203651","0.0-10.0-1.0-1.2","2839C30825B94A258F5BB5D25A7AD9BB","2839C30825B94A258F5BB5D25A7AD9BB","dfe409a1-87e5-437b-9300-3236d53aec6f","a9f3d40c-5730-405c-b25e-1034c4c56f3f","{""num_scrambled_semantic"":""8"",""num_scrambled_causal"":""4"",""num_scrambled_schematic"":""4"",""participantId"":""2839C30825B94A258F5BB5D25A7AD9BB"",""assignmentId"":""dfe409a1-87e5-437b-9300-3236d53aec6f"",""projectId"":""a9f3d40c-5730-405c-b25e-1034c4c56f3f""}","https://test12345.live/?num_scrambled_semantic=8&num_scrambled_causal=4&num_scrambled_schematic=4&participantId=2839C30825B94A258F5BB5D25A7AD9BB&assignmentId=dfe409a1-87e5-437b-9300-3236d53aec6f&projectId=a9f3d40c-5730-405c-b25e-1034c4c56f3f","2839C30825B94A258F5BB5D25A7AD9BB-2025-08-07-19-07-57","","1368","","images/causal_sequence/coin_causal/coin_causal_3.png","0","",""
"","","","","","image-button-response","33","205472","0.0-10.0-1.0-2.2","2839C30825B94A258F5BB5D25A7AD9BB","2839C30825B94A258F5BB5D25A7AD9BB","dfe409a1-87e5-437b-9300-3236d53aec6f","a9f3d40c-5730-405c-b25e-1034c4c56f3f","{""num_scrambled_semantic"":""8"",""num_scrambled_causal"":""4"",""num_scrambled_schematic"":""4"",""participantId"":""2839C30825B94A258F5BB5D25A7AD9BB"",""assignmentId"":""dfe409a1-87e5-437b-9300-3236d53aec6f"",""projectId"":""a9f3d40c-5730-405c-b25e-1034c4c56f3f""}","https://test12345.live/?num_scrambled_semantic=8&num_scrambled_causal=4&num_scrambled_schematic=4&participantId=2839C30825B94A258F5BB5D25A7AD9BB&assignmentId=dfe409a1-87e5-437b-9300-3236d53aec6f&projectId=a9f3d40c-5730-405c-b25e-1034c4c56f3f","2839C30825B94A258F5BB5D25A7AD9BB-2025-08-07-19-07-57","","null","","[]","null","",""
"","","","","","image-button-response","34","209982","0.0-10.0-1.0-0.3","2839C30825B94A258F5BB5D25A7AD9BB","2839C30825B94A258F5BB5D25A7AD9BB","dfe409a1-87e5-437b-9300-3236d53aec6f","a9f3d40c-5730-405c-b25e-1034c4c56f3f","{""num_scrambled_semantic"":""8"",""num_scrambled_causal"":""4"",""num_scrambled_schematic"":""4"",""participantId"":""2839C30825B94A258F5BB5D25A7AD9BB"",""assignmentId"":""dfe409a1-87e5-437b-9300-3236d53aec6f"",""projectId"":""a9f3d40c-5730-405c-b25e-1034c4c56f3f""}","https://test12345.live/?num_scrambled_semantic=8&num_scrambled_causal=4&num_scrambled_schematic=4&participantId=2839C30825B94A258F5BB5D25A7AD9BB&assignmentId=dfe409a1-87e5-437b-9300-3236d53aec6f&projectId=a9f3d40c-5730-405c-b25e-1034c4c56f3f","2839C30825B94A258F5BB5D25A7AD9BB-2025-08-07-19-07-57","","null","","images/causal_sequence/coin_causal/coin_causal_4.png","null","",""
"","","","","","image-button-response","35","211027","0.0-10.0-1.0-1.3","2839C30825B94A258F5BB5D25A7AD9BB","2839C30825B94A258F5BB5D25A7AD9BB","dfe409a1-87e5-437b-9300-3236d53aec6f","a9f3d40c-5730-405c-b25e-1034c4c56f3f","{""num_scrambled_semantic"":""8"",""num_scrambled_causal"":""4"",""num_scrambled_schematic"":""4"",""participantId"":""2839C30825B94A258F5BB5D25A7AD9BB"",""assignmentId"":""dfe409a1-87e5-437b-9300-3236d53aec6f"",""projectId"":""a9f3d40c-5730-405c-b25e-1034c4c56f3f""}","https://test12345.live/?num_scrambled_semantic=8&num_scrambled_causal=4&num_scrambled_schematic=4&participantId=2839C30825B94A258F5BB5D25A7AD9BB&assignmentId=dfe409a1-87e5-437b-9300-3236d53aec6f&projectId=a9f3d40c-5730-405c-b25e-1034c4c56f3f","2839C30825B94A258F5BB5D25A7AD9BB-2025-08-07-19-07-57","","1044","","images/causal_sequence/coin_causal/coin_causal_4.png","0","",""
"","","","","","image-button-response","36","212832","0.0-10.0-1.0-2.3","2839C30825B94A258F5BB5D25A7AD9BB","2839C30825B94A258F5BB5D25A7AD9BB","dfe409a1-87e5-437b-9300-3236d53aec6f","a9f3d40c-5730-405c-b25e-1034c4c56f3f","{""num_scrambled_semantic"":""8"",""num_scrambled_causal"":""4"",""num_scrambled_schematic"":""4"",""participantId"":""2839C30825B94A258F5BB5D25A7AD9BB"",""assignmentId"":""dfe409a1-87e5-437b-9300-3236d53aec6f"",""projectId"":""a9f3d40c-5730-405c-b25e-1034c4c56f3f""}","https://test12345.live/?num_scrambled_semantic=8&num_scrambled_causal=4&num_scrambled_schematic=4&participantId=2839C30825B94A258F5BB5D25A7AD9BB&assignmentId=dfe409a1-87e5-437b-9300-3236d53aec6f&projectId=a9f3d40c-5730-405c-b25e-1034c4c56f3f","2839C30825B94A258F5BB5D25A7AD9BB-2025-08-07-19-07-57","","null","","[]","null","",""
"","","","","","image-button-response","37","217352","0.0-10.0-1.0-0.4","2839C30825B94A258F5BB5D25A7AD9BB","2839C30825B94A258F5BB5D25A7AD9BB","dfe409a1-87e5-437b-9300-3236d53aec6f","a9f3d40c-5730-405c-b25e-1034c4c56f3f","{""num_scrambled_semantic"":""8"",""num_scrambled_causal"":""4"",""num_scrambled_schematic"":""4"",""participantId"":""2839C30825B94A258F5BB5D25A7AD9BB"",""assignmentId"":""dfe409a1-87e5-437b-9300-3236d53aec6f"",""projectId"":""a9f3d40c-5730-405c-b25e-1034c4c56f3f""}","https://test12345.live/?num_scrambled_semantic=8&num_scrambled_causal=4&num_scrambled_schematic=4&participantId=2839C30825B94A258F5BB5D25A7AD9BB&assignmentId=dfe409a1-87e5-437b-9300-3236d53aec6f&projectId=a9f3d40c-5730-405c-b25e-1034c4c56f3f","2839C30825B94A258F5BB5D25A7AD9BB-2025-08-07-19-07-57","","null","","images/causal_sequence/coin_causal/coin_causal_5.png","null","",""
"","","","","","image-button-response","38","218555","0.0-10.0-1.0-1.4","2839C30825B94A258F5BB5D25A7AD9BB","2839C30825B94A258F5BB5D25A7AD9BB","dfe409a1-87e5-437b-9300-3236d53aec6f","a9f3d40c-5730-405c-b25e-1034c4c56f3f","{""num_scrambled_semantic"":""8"",""num_scrambled_causal"":""4"",""num_scrambled_schematic"":""4"",""participantId"":""2839C30825B94A258F5BB5D25A7AD9BB"",""assignmentId"":""dfe409a1-87e5-437b-9300-3236d53aec6f"",""projectId"":""a9f3d40c-5730-405c-b25e-1034c4c56f3f""}","https://test12345.live/?num_scrambled_semantic=8&num_scrambled_causal=4&num_scrambled_schematic=4&participantId=2839C30825B94A258F5BB5D25A7AD9BB&assignmentId=dfe409a1-87e5-437b-9300-3236d53aec6f&projectId=a9f3d40c-5730-405c-b25e-1034c4c56f3f","2839C30825B94A258F5BB5D25A7AD9BB-2025-08-07-19-07-57","","1201","","images/causal_sequence/coin_causal/coin_causal_5.png","0","",""
"","","","","","image-button-response","39","220372","0.0-10.0-1.0-2.4","2839C30825B94A258F5BB5D25A7AD9BB","2839C30825B94A258F5BB5D25A7AD9BB","dfe409a1-87e5-437b-9300-3236d53aec6f","a9f3d40c-5730-405c-b25e-1034c4c56f3f","{""num_scrambled_semantic"":""8"",""num_scrambled_causal"":""4"",""num_scrambled_schematic"":""4"",""participantId"":""2839C30825B94A258F5BB5D25A7AD9BB"",""assignmentId"":""dfe409a1-87e5-437b-9300-3236d53aec6f"",""projectId"":""a9f3d40c-5730-405c-b25e-1034c4c56f3f""}","https://test12345.live/?num_scrambled_semantic=8&num_scrambled_causal=4&num_scrambled_schematic=4&participantId=2839C30825B94A258F5BB5D25A7AD9BB&assignmentId=dfe409a1-87e5-437b-9300-3236d53aec6f&projectId=a9f3d40c-5730-405c-b25e-1034c4c56f3f","2839C30825B94A258F5BB5D25A7AD9BB-2025-08-07-19-07-57","","null","","[]","null","",""
"","","","","","image-button-response","40","224882","0.0-10.0-1.0-0.5","2839C30825B94A258F5BB5D25A7AD9BB","2839C30825B94A258F5BB5D25A7AD9BB","dfe409a1-87e5-437b-9300-3236d53aec6f","a9f3d40c-5730-405c-b25e-1034c4c56f3f","{""num_scrambled_semantic"":""8"",""num_scrambled_causal"":""4"",""num_scrambled_schematic"":""4"",""participantId"":""2839C30825B94A258F5BB5D25A7AD9BB"",""assignmentId"":""dfe409a1-87e5-437b-9300-3236d53aec6f"",""projectId"":""a9f3d40c-5730-405c-b25e-1034c4c56f3f""}","https://test12345.live/?num_scrambled_semantic=8&num_scrambled_causal=4&num_scrambled_schematic=4&participantId=2839C30825B94A258F5BB5D25A7AD9BB&assignmentId=dfe409a1-87e5-437b-9300-3236d53aec6f&projectId=a9f3d40c-5730-405c-b25e-1034c4c56f3f","2839C30825B94A258F5BB5D25A7AD9BB-2025-08-07-19-07-57","","null","","images/causal_sequence/coin_causal/coin_causal_6.png","null","",""
"","","","","","image-button-response","41","226667","0.0-10.0-1.0-1.5","2839C30825B94A258F5BB5D25A7AD9BB","2839C30825B94A258F5BB5D25A7AD9BB","dfe409a1-87e5-437b-9300-3236d53aec6f","a9f3d40c-5730-405c-b25e-1034c4c56f3f","{""num_scrambled_semantic"":""8"",""num_scrambled_causal"":""4"",""num_scrambled_schematic"":""4"",""participantId"":""2839C30825B94A258F5BB5D25A7AD9BB"",""assignmentId"":""dfe409a1-87e5-437b-9300-3236d53aec6f"",""projectId"":""a9f3d40c-5730-405c-b25e-1034c4c56f3f""}","https://test12345.live/?num_scrambled_semantic=8&num_scrambled_causal=4&num_scrambled_schematic=4&participantId=2839C30825B94A258F5BB5D25A7AD9BB&assignmentId=dfe409a1-87e5-437b-9300-3236d53aec6f&projectId=a9f3d40c-5730-405c-b25e-1034c4c56f3f","2839C30825B94A258F5BB5D25A7AD9BB-2025-08-07-19-07-57","","1784","","images/causal_sequence/coin_causal/coin_causal_6.png","0","",""
"","","","","","image-button-response","42","228473","0.0-10.0-1.0-2.5","2839C30825B94A258F5BB5D25A7AD9BB","2839C30825B94A258F5BB5D25A7AD9BB","dfe409a1-87e5-437b-9300-3236d53aec6f","a9f3d40c-5730-405c-b25e-1034c4c56f3f","{""num_scrambled_semantic"":""8"",""num_scrambled_causal"":""4"",""num_scrambled_schematic"":""4"",""participantId"":""2839C30825B94A258F5BB5D25A7AD9BB"",""assignmentId"":""dfe409a1-87e5-437b-9300-3236d53aec6f"",""projectId"":""a9f3d40c-5730-405c-b25e-1034c4c56f3f""}","https://test12345.live/?num_scrambled_semantic=8&num_scrambled_causal=4&num_scrambled_schematic=4&participantId=2839C30825B94A258F5BB5D25A7AD9BB&assignmentId=dfe409a1-87e5-437b-9300-3236d53aec6f&projectId=a9f3d40c-5730-405c-b25e-1034c4c56f3f","2839C30825B94A258F5BB5D25A7AD9BB-2025-08-07-19-07-57","","null","","[]","null","",""
"","","","","","image-button-response","43","232993","0.0-10.0-1.0-0.6","2839C30825B94A258F5BB5D25A7AD9BB","2839C30825B94A258F5BB5D25A7AD9BB","dfe409a1-87e5-437b-9300-3236d53aec6f","a9f3d40c-5730-405c-b25e-1034c4c56f3f","{""num_scrambled_semantic"":""8"",""num_scrambled_causal"":""4"",""num_scrambled_schematic"":""4"",""participantId"":""2839C30825B94A258F5BB5D25A7AD9BB"",""assignmentId"":""dfe409a1-87e5-437b-9300-3236d53aec6f"",""projectId"":""a9f3d40c-5730-405c-b25e-1034c4c56f3f""}","https://test12345.live/?num_scrambled_semantic=8&num_scrambled_causal=4&num_scrambled_schematic=4&participantId=2839C30825B94A258F5BB5D25A7AD9BB&assignmentId=dfe409a1-87e5-437b-9300-3236d53aec6f&projectId=a9f3d40c-5730-405c-b25e-1034c4c56f3f","2839C30825B94A258F5BB5D25A7AD9BB-2025-08-07-19-07-57","","null","","images/causal_sequence/coin_causal/coin_causal_7.png","null","",""
"","","","","","image-button-response","44","235675","0.0-10.0-1.0-1.6","2839C30825B94A258F5BB5D25A7AD9BB","2839C30825B94A258F5BB5D25A7AD9BB","dfe409a1-87e5-437b-9300-3236d53aec6f","a9f3d40c-5730-405c-b25e-1034c4c56f3f","{""num_scrambled_semantic"":""8"",""num_scrambled_causal"":""4"",""num_scrambled_schematic"":""4"",""participantId"":""2839C30825B94A258F5BB5D25A7AD9BB"",""assignmentId"":""dfe409a1-87e5-437b-9300-3236d53aec6f"",""projectId"":""a9f3d40c-5730-405c-b25e-1034c4c56f3f""}","https://test12345.live/?num_scrambled_semantic=8&num_scrambled_causal=4&num_scrambled_schematic=4&participantId=2839C30825B94A258F5BB5D25A7AD9BB&assignmentId=dfe409a1-87e5-437b-9300-3236d53aec6f&projectId=a9f3d40c-5730-405c-b25e-1034c4c56f3f","2839C30825B94A258F5BB5D25A7AD9BB-2025-08-07-19-07-57","","2681","","images/causal_sequence/coin_causal/coin_causal_7.png","1","",""
"","","","","","image-button-response","45","237478","0.0-10.0-1.0-2.6","2839C30825B94A258F5BB5D25A7AD9BB","2839C30825B94A258F5BB5D25A7AD9BB","dfe409a1-87e5-437b-9300-3236d53aec6f","a9f3d40c-5730-405c-b25e-1034c4c56f3f","{""num_scrambled_semantic"":""8"",""num_scrambled_causal"":""4"",""num_scrambled_schematic"":""4"",""participantId"":""2839C30825B94A258F5BB5D25A7AD9BB"",""assignmentId"":""dfe409a1-87e5-437b-9300-3236d53aec6f"",""projectId"":""a9f3d40c-5730-405c-b25e-1034c4c56f3f""}","https://test12345.live/?num_scrambled_semantic=8&num_scrambled_causal=4&num_scrambled_schematic=4&participantId=2839C30825B94A258F5BB5D25A7AD9BB&assignmentId=dfe409a1-87e5-437b-9300-3236d53aec6f&projectId=a9f3d40c-5730-405c-b25e-1034c4c56f3f","2839C30825B94A258F5BB5D25A7AD9BB-2025-08-07-19-07-57","","null","","[]","null","",""
"","","","","","image-button-response","46","241992","0.0-10.0-1.0-0.7","2839C30825B94A258F5BB5D25A7AD9BB","2839C30825B94A258F5BB5D25A7AD9BB","dfe409a1-87e5-437b-9300-3236d53aec6f","a9f3d40c-5730-405c-b25e-1034c4c56f3f","{""num_scrambled_semantic"":""8"",""num_scrambled_causal"":""4"",""num_scrambled_schematic"":""4"",""participantId"":""2839C30825B94A258F5BB5D25A7AD9BB"",""assignmentId"":""dfe409a1-87e5-437b-9300-3236d53aec6f"",""projectId"":""a9f3d40c-5730-405c-b25e-1034c4c56f3f""}","https://test12345.live/?num_scrambled_semantic=8&num_scrambled_causal=4&num_scrambled_schematic=4&participantId=2839C30825B94A258F5BB5D25A7AD9BB&assignmentId=dfe409a1-87e5-437b-9300-3236d53aec6f&projectId=a9f3d40c-5730-405c-b25e-1034c4c56f3f","2839C30825B94A258F5BB5D25A7AD9BB-2025-08-07-19-07-57","","null","","images/causal_sequence/coin_causal/coin_causal_8.png","null","",""
"","","","","","image-button-response","47","243276","0.0-10.0-1.0-1.7","2839C30825B94A258F5BB5D25A7AD9BB","2839C30825B94A258F5BB5D25A7AD9BB","dfe409a1-87e5-437b-9300-3236d53aec6f","a9f3d40c-5730-405c-b25e-1034c4c56f3f","{""num_scrambled_semantic"":""8"",""num_scrambled_causal"":""4"",""num_scrambled_schematic"":""4"",""participantId"":""2839C30825B94A258F5BB5D25A7AD9BB"",""assignmentId"":""dfe409a1-87e5-437b-9300-3236d53aec6f"",""projectId"":""a9f3d40c-5730-405c-b25e-1034c4c56f3f""}","https://test12345.live/?num_scrambled_semantic=8&num_scrambled_causal=4&num_scrambled_schematic=4&participantId=2839C30825B94A258F5BB5D25A7AD9BB&assignmentId=dfe409a1-87e5-437b-9300-3236d53aec6f&projectId=a9f3d40c-5730-405c-b25e-1034c4c56f3f","2839C30825B94A258F5BB5D25A7AD9BB-2025-08-07-19-07-57","","1283","","images/causal_sequence/coin_causal/coin_causal_8.png","0","",""
"","","","","","image-button-response","48","245082","0.0-10.0-1.0-2.7","2839C30825B94A258F5BB5D25A7AD9BB","2839C30825B94A258F5BB5D25A7AD9BB","dfe409a1-87e5-437b-9300-3236d53aec6f","a9f3d40c-5730-405c-b25e-1034c4c56f3f","{""num_scrambled_semantic"":""8"",""num_scrambled_causal"":""4"",""num_scrambled_schematic"":""4"",""participantId"":""2839C30825B94A258F5BB5D25A7AD9BB"",""assignmentId"":""dfe409a1-87e5-437b-9300-3236d53aec6f"",""projectId"":""a9f3d40c-5730-405c-b25e-1034c4c56f3f""}","https://test12345.live/?num_scrambled_semantic=8&num_scrambled_causal=4&num_scrambled_schematic=4&participantId=2839C30825B94A258F5BB5D25A7AD9BB&assignmentId=dfe409a1-87e5-437b-9300-3236d53aec6f&projectId=a9f3d40c-5730-405c-b25e-1034c4c56f3f","2839C30825B94A258F5BB5D25A7AD9BB-2025-08-07-19-07-57","","null","","[]","null","",""
"","","","","","image-button-response","49","249592","0.0-10.0-1.0-0.8","2839C30825B94A258F5BB5D25A7AD9BB","2839C30825B94A258F5BB5D25A7AD9BB","dfe409a1-87e5-437b-9300-3236d53aec6f","a9f3d40c-5730-405c-b25e-1034c4c56f3f","{""num_scrambled_semantic"":""8"",""num_scrambled_causal"":""4"",""num_scrambled_schematic"":""4"",""participantId"":""2839C30825B94A258F5BB5D25A7AD9BB"",""assignmentId"":""dfe409a1-87e5-437b-9300-3236d53aec6f"",""projectId"":""a9f3d40c-5730-405c-b25e-1034c4c56f3f""}","https://test12345.live/?num_scrambled_semantic=8&num_scrambled_causal=4&num_scrambled_schematic=4&participantId=2839C30825B94A258F5BB5D25A7AD9BB&assignmentId=dfe409a1-87e5-437b-9300-3236d53aec6f&projectId=a9f3d40c-5730-405c-b25e-1034c4c56f3f","2839C30825B94A258F5BB5D25A7AD9BB-2025-08-07-19-07-57","","null","","images/causal_sequence/coin_causal/coin_causal_9.png","null","",""
"","","","","","image-button-response","50","250651","0.0-10.0-1.0-1.8","2839C30825B94A258F5BB5D25A7AD9BB","2839C30825B94A258F5BB5D25A7AD9BB","dfe409a1-87e5-437b-9300-3236d53aec6f","a9f3d40c-5730-405c-b25e-1034c4c56f3f","{""num_scrambled_semantic"":""8"",""num_scrambled_causal"":""4"",""num_scrambled_schematic"":""4"",""participantId"":""2839C30825B94A258F5BB5D25A7AD9BB"",""assignmentId"":""dfe409a1-87e5-437b-9300-3236d53aec6f"",""projectId"":""a9f3d40c-5730-405c-b25e-1034c4c56f3f""}","https://test12345.live/?num_scrambled_semantic=8&num_scrambled_causal=4&num_scrambled_schematic=4&participantId=2839C30825B94A258F5BB5D25A7AD9BB&assignmentId=dfe409a1-87e5-437b-9300-3236d53aec6f&projectId=a9f3d40c-5730-405c-b25e-1034c4c56f3f","2839C30825B94A258F5BB5D25A7AD9BB-2025-08-07-19-07-57","","1058","","images/causal_sequence/coin_causal/coin_causal_9.png","0","",""
"","","","","","image-button-response","51","252452","0.0-10.0-1.0-2.8","2839C30825B94A258F5BB5D25A7AD9BB","2839C30825B94A258F5BB5D25A7AD9BB","dfe409a1-87e5-437b-9300-3236d53aec6f","a9f3d40c-5730-405c-b25e-1034c4c56f3f","{""num_scrambled_semantic"":""8"",""num_scrambled_causal"":""4"",""num_scrambled_schematic"":""4"",""participantId"":""2839C30825B94A258F5BB5D25A7AD9BB"",""assignmentId"":""dfe409a1-87e5-437b-9300-3236d53aec6f"",""projectId"":""a9f3d40c-5730-405c-b25e-1034c4c56f3f""}","https://test12345.live/?num_scrambled_semantic=8&num_scrambled_causal=4&num_scrambled_schematic=4&participantId=2839C30825B94A258F5BB5D25A7AD9BB&assignmentId=dfe409a1-87e5-437b-9300-3236d53aec6f&projectId=a9f3d40c-5730-405c-b25e-1034c4c56f3f","2839C30825B94A258F5BB5D25A7AD9BB-2025-08-07-19-07-57","","null","","[]","null","",""
"","","","","","image-button-response","52","256962","0.0-10.0-1.0-0.9","2839C30825B94A258F5BB5D25A7AD9BB","2839C30825B94A258F5BB5D25A7AD9BB","dfe409a1-87e5-437b-9300-3236d53aec6f","a9f3d40c-5730-405c-b25e-1034c4c56f3f","{""num_scrambled_semantic"":""8"",""num_scrambled_causal"":""4"",""num_scrambled_schematic"":""4"",""participantId"":""2839C30825B94A258F5BB5D25A7AD9BB"",""assignmentId"":""dfe409a1-87e5-437b-9300-3236d53aec6f"",""projectId"":""a9f3d40c-5730-405c-b25e-1034c4c56f3f""}","https://test12345.live/?num_scrambled_semantic=8&num_scrambled_causal=4&num_scrambled_schematic=4&participantId=2839C30825B94A258F5BB5D25A7AD9BB&assignmentId=dfe409a1-87e5-437b-9300-3236d53aec6f&projectId=a9f3d40c-5730-405c-b25e-1034c4c56f3f","2839C30825B94A258F5BB5D25A7AD9BB-2025-08-07-19-07-57","","null","","images/causal_sequence/coin_causal/coin_causal_ten.png","null","",""
"","","","","","image-button-response","53","257627","0.0-10.0-1.0-1.9","2839C30825B94A258F5BB5D25A7AD9BB","2839C30825B94A258F5BB5D25A7AD9BB","dfe409a1-87e5-437b-9300-3236d53aec6f","a9f3d40c-5730-405c-b25e-1034c4c56f3f","{""num_scrambled_semantic"":""8"",""num_scrambled_causal"":""4"",""num_scrambled_schematic"":""4"",""participantId"":""2839C30825B94A258F5BB5D25A7AD9BB"",""assignmentId"":""dfe409a1-87e5-437b-9300-3236d53aec6f"",""projectId"":""a9f3d40c-5730-405c-b25e-1034c4c56f3f""}","https://test12345.live/?num_scrambled_semantic=8&num_scrambled_causal=4&num_scrambled_schematic=4&participantId=2839C30825B94A258F5BB5D25A7AD9BB&assignmentId=dfe409a1-87e5-437b-9300-3236d53aec6f&projectId=a9f3d40c-5730-405c-b25e-1034c4c56f3f","2839C30825B94A258F5BB5D25A7AD9BB-2025-08-07-19-07-57","","664","","images/causal_sequence/coin_causal/coin_causal_ten.png","0","",""
"","","","","","image-button-response","54","259433","0.0-10.0-1.0-2.9","2839C30825B94A258F5BB5D25A7AD9BB","2839C30825B94A258F5BB5D25A7AD9BB","dfe409a1-87e5-437b-9300-3236d53aec6f","a9f3d40c-5730-405c-b25e-1034c4c56f3f","{""num_scrambled_semantic"":""8"",""num_scrambled_causal"":""4"",""num_scrambled_schematic"":""4"",""participantId"":""2839C30825B94A258F5BB5D25A7AD9BB"",""assignmentId"":""dfe409a1-87e5-437b-9300-3236d53aec6f"",""projectId"":""a9f3d40c-5730-405c-b25e-1034c4c56f3f""}","https://test12345.live/?num_scrambled_semantic=8&num_scrambled_causal=4&num_scrambled_schematic=4&participantId=2839C30825B94A258F5BB5D25A7AD9BB&assignmentId=dfe409a1-87e5-437b-9300-3236d53aec6f&projectId=a9f3d40c-5730-405c-b25e-1034c4c56f3f","2839C30825B94A258F5BB5D25A7AD9BB-2025-08-07-19-07-57","","null","","[]","null","",""
"","","","","","html-audio-response","55","325188","0.0-11.0","2839C30825B94A258F5BB5D25A7AD9BB","2839C30825B94A258F5BB5D25A7AD9BB","dfe409a1-87e5-437b-9300-3236d53aec6f","a9f3d40c-5730-405c-b25e-1034c4c56f3f","{""num_scrambled_semantic"":""8"",""num_scrambled_causal"":""4"",""num_scrambled_schematic"":""4"",""participantId"":""2839C30825B94A258F5BB5D25A7AD9BB"",""assignmentId"":""dfe409a1-87e5-437b-9300-3236d53aec6f"",""projectId"":""a9f3d40c-5730-405c-b25e-1034c4c56f3f""}","https://test12345.live/?num_scrambled_semantic=8&num_scrambled_causal=4&num_scrambled_schematic=4&participantId=2839C30825B94A258F5BB5D25A7AD9BB&assignmentId=dfe409a1-87e5-437b-9300-3236d53aec6f&projectId=a9f3d40c-5730-405c-b25e-1034c4c56f3f","2839C30825B94A258F5BB5D25A7AD9BB-2025-08-07-19-07-57","","4993","","[""<span style=\""color: red; font-size: 24px\""> NOW RECORDING</span><p>Please say out loud all the images you saw, as many as you can remember. The images can be said in any order.</p>""]","","1","coin_causal"
"","","","","","image-button-response","56","331202","0.0-12.0-0.0","2839C30825B94A258F5BB5D25A7AD9BB","2839C30825B94A258F5BB5D25A7AD9BB","dfe409a1-87e5-437b-9300-3236d53aec6f","a9f3d40c-5730-405c-b25e-1034c4c56f3f","{""num_scrambled_semantic"":""8"",""num_scrambled_causal"":""4"",""num_scrambled_schematic"":""4"",""participantId"":""2839C30825B94A258F5BB5D25A7AD9BB"",""assignmentId"":""dfe409a1-87e5-437b-9300-3236d53aec6f"",""projectId"":""a9f3d40c-5730-405c-b25e-1034c4c56f3f""}","https://test12345.live/?num_scrambled_semantic=8&num_scrambled_causal=4&num_scrambled_schematic=4&participantId=2839C30825B94A258F5BB5D25A7AD9BB&assignmentId=dfe409a1-87e5-437b-9300-3236d53aec6f&projectId=a9f3d40c-5730-405c-b25e-1034c4c56f3f","2839C30825B94A258F5BB5D25A7AD9BB-2025-08-07-19-07-57","","null","","images/semantic_sequence/physical_activity_semantic/physical_activity_semantic_0.png","null","",""
"","","","","","image-button-response","57","335722","0.0-12.0-1.0-0.0","2839C30825B94A258F5BB5D25A7AD9BB","2839C30825B94A258F5BB5D25A7AD9BB","dfe409a1-87e5-437b-9300-3236d53aec6f","a9f3d40c-5730-405c-b25e-1034c4c56f3f","{""num_scrambled_semantic"":""8"",""num_scrambled_causal"":""4"",""num_scrambled_schematic"":""4"",""participantId"":""2839C30825B94A258F5BB5D25A7AD9BB"",""assignmentId"":""dfe409a1-87e5-437b-9300-3236d53aec6f"",""projectId"":""a9f3d40c-5730-405c-b25e-1034c4c56f3f""}","https://test12345.live/?num_scrambled_semantic=8&num_scrambled_causal=4&num_scrambled_schematic=4&participantId=2839C30825B94A258F5BB5D25A7AD9BB&assignmentId=dfe409a1-87e5-437b-9300-3236d53aec6f&projectId=a9f3d40c-5730-405c-b25e-1034c4c56f3f","2839C30825B94A258F5BB5D25A7AD9BB-2025-08-07-19-07-57","","null","","images/semantic_sequence/physical_activity_semantic/physical_activity_semantic_5.png","null","",""
"","","","","","image-button-response","58","337876","0.0-12.0-1.0-1.0","2839C30825B94A258F5BB5D25A7AD9BB","2839C30825B94A258F5BB5D25A7AD9BB","dfe409a1-87e5-437b-9300-3236d53aec6f","a9f3d40c-5730-405c-b25e-1034c4c56f3f","{""num_scrambled_semantic"":""8"",""num_scrambled_causal"":""4"",""num_scrambled_schematic"":""4"",""participantId"":""2839C30825B94A258F5BB5D25A7AD9BB"",""assignmentId"":""dfe409a1-87e5-437b-9300-3236d53aec6f"",""projectId"":""a9f3d40c-5730-405c-b25e-1034c4c56f3f""}","https://test12345.live/?num_scrambled_semantic=8&num_scrambled_causal=4&num_scrambled_schematic=4&participantId=2839C30825B94A258F5BB5D25A7AD9BB&assignmentId=dfe409a1-87e5-437b-9300-3236d53aec6f&projectId=a9f3d40c-5730-405c-b25e-1034c4c56f3f","2839C30825B94A258F5BB5D25A7AD9BB-2025-08-07-19-07-57","","2152","","images/semantic_sequence/physical_activity_semantic/physical_activity_semantic_5.png","0","",""
"","","","","","image-button-response","59","339677","0.0-12.0-1.0-2.0","2839C30825B94A258F5BB5D25A7AD9BB","2839C30825B94A258F5BB5D25A7AD9BB","dfe409a1-87e5-437b-9300-3236d53aec6f","a9f3d40c-5730-405c-b25e-1034c4c56f3f","{""num_scrambled_semantic"":""8"",""num_scrambled_causal"":""4"",""num_scrambled_schematic"":""4"",""participantId"":""2839C30825B94A258F5BB5D25A7AD9BB"",""assignmentId"":""dfe409a1-87e5-437b-9300-3236d53aec6f"",""projectId"":""a9f3d40c-5730-405c-b25e-1034c4c56f3f""}","https://test12345.live/?num_scrambled_semantic=8&num_scrambled_causal=4&num_scrambled_schematic=4&participantId=2839C30825B94A258F5BB5D25A7AD9BB&assignmentId=dfe409a1-87e5-437b-9300-3236d53aec6f&projectId=a9f3d40c-5730-405c-b25e-1034c4c56f3f","2839C30825B94A258F5BB5D25A7AD9BB-2025-08-07-19-07-57","","null","","[]","null","",""
"","","","","","image-button-response","60","344182","0.0-12.0-1.0-0.1","2839C30825B94A258F5BB5D25A7AD9BB","2839C30825B94A258F5BB5D25A7AD9BB","dfe409a1-87e5-437b-9300-3236d53aec6f","a9f3d40c-5730-405c-b25e-1034c4c56f3f","{""num_scrambled_semantic"":""8"",""num_scrambled_causal"":""4"",""num_scrambled_schematic"":""4"",""participantId"":""2839C30825B94A258F5BB5D25A7AD9BB"",""assignmentId"":""dfe409a1-87e5-437b-9300-3236d53aec6f"",""projectId"":""a9f3d40c-5730-405c-b25e-1034c4c56f3f""}","https://test12345.live/?num_scrambled_semantic=8&num_scrambled_causal=4&num_scrambled_schematic=4&participantId=2839C30825B94A258F5BB5D25A7AD9BB&assignmentId=dfe409a1-87e5-437b-9300-3236d53aec6f&projectId=a9f3d40c-5730-405c-b25e-1034c4c56f3f","2839C30825B94A258F5BB5D25A7AD9BB-2025-08-07-19-07-57","","null","","images/semantic_sequence/physical_activity_semantic/physical_activity_semantic_2.png","null","",""
"","","","","","image-button-response","61","345260","0.0-12.0-1.0-1.1","2839C30825B94A258F5BB5D25A7AD9BB","2839C30825B94A258F5BB5D25A7AD9BB","dfe409a1-87e5-437b-9300-3236d53aec6f","a9f3d40c-5730-405c-b25e-1034c4c56f3f","{""num_scrambled_semantic"":""8"",""num_scrambled_causal"":""4"",""num_scrambled_schematic"":""4"",""participantId"":""2839C30825B94A258F5BB5D25A7AD9BB"",""assignmentId"":""dfe409a1-87e5-437b-9300-3236d53aec6f"",""projectId"":""a9f3d40c-5730-405c-b25e-1034c4c56f3f""}","https://test12345.live/?num_scrambled_semantic=8&num_scrambled_causal=4&num_scrambled_schematic=4&participantId=2839C30825B94A258F5BB5D25A7AD9BB&assignmentId=dfe409a1-87e5-437b-9300-3236d53aec6f&projectId=a9f3d40c-5730-405c-b25e-1034c4c56f3f","2839C30825B94A258F5BB5D25A7AD9BB-2025-08-07-19-07-57","","1076","","images/semantic_sequence/physical_activity_semantic/physical_activity_semantic_2.png","0","",""
"","","","","","image-button-response","62","347072","0.0-12.0-1.0-2.1","2839C30825B94A258F5BB5D25A7AD9BB","2839C30825B94A258F5BB5D25A7AD9BB","dfe409a1-87e5-437b-9300-3236d53aec6f","a9f3d40c-5730-405c-b25e-1034c4c56f3f","{""num_scrambled_semantic"":""8"",""num_scrambled_causal"":""4"",""num_scrambled_schematic"":""4"",""participantId"":""2839C30825B94A258F5BB5D25A7AD9BB"",""assignmentId"":""dfe409a1-87e5-437b-9300-3236d53aec6f"",""projectId"":""a9f3d40c-5730-405c-b25e-1034c4c56f3f""}","https://test12345.live/?num_scrambled_semantic=8&num_scrambled_causal=4&num_scrambled_schematic=4&participantId=2839C30825B94A258F5BB5D25A7AD9BB&assignmentId=dfe409a1-87e5-437b-9300-3236d53aec6f&projectId=a9f3d40c-5730-405c-b25e-1034c4c56f3f","2839C30825B94A258F5BB5D25A7AD9BB-2025-08-07-19-07-57","","null","","[]","null","",""
"","","","","","image-button-response","63","351592","0.0-12.0-1.0-0.2","2839C30825B94A258F5BB5D25A7AD9BB","2839C30825B94A258F5BB5D25A7AD9BB","dfe409a1-87e5-437b-9300-3236d53aec6f","a9f3d40c-5730-405c-b25e-1034c4c56f3f","{""num_scrambled_semantic"":""8"",""num_scrambled_causal"":""4"",""num_scrambled_schematic"":""4"",""participantId"":""2839C30825B94A258F5BB5D25A7AD9BB"",""assignmentId"":""dfe409a1-87e5-437b-9300-3236d53aec6f"",""projectId"":""a9f3d40c-5730-405c-b25e-1034c4c56f3f""}","https://test12345.live/?num_scrambled_semantic=8&num_scrambled_causal=4&num_scrambled_schematic=4&participantId=2839C30825B94A258F5BB5D25A7AD9BB&assignmentId=dfe409a1-87e5-437b-9300-3236d53aec6f&projectId=a9f3d40c-5730-405c-b25e-1034c4c56f3f","2839C30825B94A258F5BB5D25A7AD9BB-2025-08-07-19-07-57","","null","","images/semantic_sequence/physical_activity_semantic/physical_activity_semantic_3.png","null","",""
"","","","","","image-button-response","64","354003","0.0-12.0-1.0-1.2","2839C30825B94A258F5BB5D25A7AD9BB","2839C30825B94A258F5BB5D25A7AD9BB","dfe409a1-87e5-437b-9300-3236d53aec6f","a9f3d40c-5730-405c-b25e-1034c4c56f3f","{""num_scrambled_semantic"":""8"",""num_scrambled_causal"":""4"",""num_scrambled_schematic"":""4"",""participantId"":""2839C30825B94A258F5BB5D25A7AD9BB"",""assignmentId"":""dfe409a1-87e5-437b-9300-3236d53aec6f"",""projectId"":""a9f3d40c-5730-405c-b25e-1034c4c56f3f""}","https://test12345.live/?num_scrambled_semantic=8&num_scrambled_causal=4&num_scrambled_schematic=4&participantId=2839C30825B94A258F5BB5D25A7AD9BB&assignmentId=dfe409a1-87e5-437b-9300-3236d53aec6f&projectId=a9f3d40c-5730-405c-b25e-1034c4c56f3f","2839C30825B94A258F5BB5D25A7AD9BB-2025-08-07-19-07-57","","2410","","images/semantic_sequence/physical_activity_semantic/physical_activity_semantic_3.png","0","",""
"","","","","","image-button-response","65","355806","0.0-12.0-1.0-2.2","2839C30825B94A258F5BB5D25A7AD9BB","2839C30825B94A258F5BB5D25A7AD9BB","dfe409a1-87e5-437b-9300-3236d53aec6f","a9f3d40c-5730-405c-b25e-1034c4c56f3f","{""num_scrambled_semantic"":""8"",""num_scrambled_causal"":""4"",""num_scrambled_schematic"":""4"",""participantId"":""2839C30825B94A258F5BB5D25A7AD9BB"",""assignmentId"":""dfe409a1-87e5-437b-9300-3236d53aec6f"",""projectId"":""a9f3d40c-5730-405c-b25e-1034c4c56f3f""}","https://test12345.live/?num_scrambled_semantic=8&num_scrambled_causal=4&num_scrambled_schematic=4&participantId=2839C30825B94A258F5BB5D25A7AD9BB&assignmentId=dfe409a1-87e5-437b-9300-3236d53aec6f&projectId=a9f3d40c-5730-405c-b25e-1034c4c56f3f","2839C30825B94A258F5BB5D25A7AD9BB-2025-08-07-19-07-57","","null","","[]","null","",""
"","","","","","image-button-response","66","360312","0.0-12.0-1.0-0.3","2839C30825B94A258F5BB5D25A7AD9BB","2839C30825B94A258F5BB5D25A7AD9BB","dfe409a1-87e5-437b-9300-3236d53aec6f","a9f3d40c-5730-405c-b25e-1034c4c56f3f","{""num_scrambled_semantic"":""8"",""num_scrambled_causal"":""4"",""num_scrambled_schematic"":""4"",""participantId"":""2839C30825B94A258F5BB5D25A7AD9BB"",""assignmentId"":""dfe409a1-87e5-437b-9300-3236d53aec6f"",""projectId"":""a9f3d40c-5730-405c-b25e-1034c4c56f3f""}","https://test12345.live/?num_scrambled_semantic=8&num_scrambled_causal=4&num_scrambled_schematic=4&participantId=2839C30825B94A258F5BB5D25A7AD9BB&assignmentId=dfe409a1-87e5-437b-9300-3236d53aec6f&projectId=a9f3d40c-5730-405c-b25e-1034c4c56f3f","2839C30825B94A258F5BB5D25A7AD9BB-2025-08-07-19-07-57","","null","","images/semantic_sequence/physical_activity_semantic/physical_activity_semantic_1.png","null","",""
"","","","","","image-button-response","67","361132","0.0-12.0-1.0-1.3","2839C30825B94A258F5BB5D25A7AD9BB","2839C30825B94A258F5BB5D25A7AD9BB","dfe409a1-87e5-437b-9300-3236d53aec6f","a9f3d40c-5730-405c-b25e-1034c4c56f3f","{""num_scrambled_semantic"":""8"",""num_scrambled_causal"":""4"",""num_scrambled_schematic"":""4"",""participantId"":""2839C30825B94A258F5BB5D25A7AD9BB"",""assignmentId"":""dfe409a1-87e5-437b-9300-3236d53aec6f"",""projectId"":""a9f3d40c-5730-405c-b25e-1034c4c56f3f""}","https://test12345.live/?num_scrambled_semantic=8&num_scrambled_causal=4&num_scrambled_schematic=4&participantId=2839C30825B94A258F5BB5D25A7AD9BB&assignmentId=dfe409a1-87e5-437b-9300-3236d53aec6f&projectId=a9f3d40c-5730-405c-b25e-1034c4c56f3f","2839C30825B94A258F5BB5D25A7AD9BB-2025-08-07-19-07-57","","818","","images/semantic_sequence/physical_activity_semantic/physical_activity_semantic_1.png","0","",""
"","","","","","image-button-response","68","362932","0.0-12.0-1.0-2.3","2839C30825B94A258F5BB5D25A7AD9BB","2839C30825B94A258F5BB5D25A7AD9BB","dfe409a1-87e5-437b-9300-3236d53aec6f","a9f3d40c-5730-405c-b25e-1034c4c56f3f","{""num_scrambled_semantic"":""8"",""num_scrambled_causal"":""4"",""num_scrambled_schematic"":""4"",""participantId"":""2839C30825B94A258F5BB5D25A7AD9BB"",""assignmentId"":""dfe409a1-87e5-437b-9300-3236d53aec6f"",""projectId"":""a9f3d40c-5730-405c-b25e-1034c4c56f3f""}","https://test12345.live/?num_scrambled_semantic=8&num_scrambled_causal=4&num_scrambled_schematic=4&participantId=2839C30825B94A258F5BB5D25A7AD9BB&assignmentId=dfe409a1-87e5-437b-9300-3236d53aec6f&projectId=a9f3d40c-5730-405c-b25e-1034c4c56f3f","2839C30825B94A258F5BB5D25A7AD9BB-2025-08-07-19-07-57","","null","","[]","null","",""
"","","","","","image-button-response","69","367452","0.0-12.0-1.0-0.4","2839C30825B94A258F5BB5D25A7AD9BB","2839C30825B94A258F5BB5D25A7AD9BB","dfe409a1-87e5-437b-9300-3236d53aec6f","a9f3d40c-5730-405c-b25e-1034c4c56f3f","{""num_scrambled_semantic"":""8"",""num_scrambled_causal"":""4"",""num_scrambled_schematic"":""4"",""participantId"":""2839C30825B94A258F5BB5D25A7AD9BB"",""assignmentId"":""dfe409a1-87e5-437b-9300-3236d53aec6f"",""projectId"":""a9f3d40c-5730-405c-b25e-1034c4c56f3f""}","https://test12345.live/?num_scrambled_semantic=8&num_scrambled_causal=4&num_scrambled_schematic=4&participantId=2839C30825B94A258F5BB5D25A7AD9BB&assignmentId=dfe409a1-87e5-437b-9300-3236d53aec6f&projectId=a9f3d40c-5730-405c-b25e-1034c4c56f3f","2839C30825B94A258F5BB5D25A7AD9BB-2025-08-07-19-07-57","","null","","images/semantic_sequence/physical_activity_semantic/physical_activity_semantic_6.png","null","",""
"","","","","","image-button-response","70","369892","0.0-12.0-1.0-1.4","2839C30825B94A258F5BB5D25A7AD9BB","2839C30825B94A258F5BB5D25A7AD9BB","dfe409a1-87e5-437b-9300-3236d53aec6f","a9f3d40c-5730-405c-b25e-1034c4c56f3f","{""num_scrambled_semantic"":""8"",""num_scrambled_causal"":""4"",""num_scrambled_schematic"":""4"",""participantId"":""2839C30825B94A258F5BB5D25A7AD9BB"",""assignmentId"":""dfe409a1-87e5-437b-9300-3236d53aec6f"",""projectId"":""a9f3d40c-5730-405c-b25e-1034c4c56f3f""}","https://test12345.live/?num_scrambled_semantic=8&num_scrambled_causal=4&num_scrambled_schematic=4&participantId=2839C30825B94A258F5BB5D25A7AD9BB&assignmentId=dfe409a1-87e5-437b-9300-3236d53aec6f&projectId=a9f3d40c-5730-405c-b25e-1034c4c56f3f","2839C30825B94A258F5BB5D25A7AD9BB-2025-08-07-19-07-57","","2438","","images/semantic_sequence/physical_activity_semantic/physical_activity_semantic_6.png","0","",""
"","","","","","image-button-response","71","371712","0.0-12.0-1.0-2.4","2839C30825B94A258F5BB5D25A7AD9BB","2839C30825B94A258F5BB5D25A7AD9BB","dfe409a1-87e5-437b-9300-3236d53aec6f","a9f3d40c-5730-405c-b25e-1034c4c56f3f","{""num_scrambled_semantic"":""8"",""num_scrambled_causal"":""4"",""num_scrambled_schematic"":""4"",""participantId"":""2839C30825B94A258F5BB5D25A7AD9BB"",""assignmentId"":""dfe409a1-87e5-437b-9300-3236d53aec6f"",""projectId"":""a9f3d40c-5730-405c-b25e-1034c4c56f3f""}","https://test12345.live/?num_scrambled_semantic=8&num_scrambled_causal=4&num_scrambled_schematic=4&participantId=2839C30825B94A258F5BB5D25A7AD9BB&assignmentId=dfe409a1-87e5-437b-9300-3236d53aec6f&projectId=a9f3d40c-5730-405c-b25e-1034c4c56f3f","2839C30825B94A258F5BB5D25A7AD9BB-2025-08-07-19-07-57","","null","","[]","null","",""
"","","","","","image-button-response","72","376222","0.0-12.0-1.0-0.5","2839C30825B94A258F5BB5D25A7AD9BB","2839C30825B94A258F5BB5D25A7AD9BB","dfe409a1-87e5-437b-9300-3236d53aec6f","a9f3d40c-5730-405c-b25e-1034c4c56f3f","{""num_scrambled_semantic"":""8"",""num_scrambled_causal"":""4"",""num_scrambled_schematic"":""4"",""participantId"":""2839C30825B94A258F5BB5D25A7AD9BB"",""assignmentId"":""dfe409a1-87e5-437b-9300-3236d53aec6f"",""projectId"":""a9f3d40c-5730-405c-b25e-1034c4c56f3f""}","https://test12345.live/?num_scrambled_semantic=8&num_scrambled_causal=4&num_scrambled_schematic=4&participantId=2839C30825B94A258F5BB5D25A7AD9BB&assignmentId=dfe409a1-87e5-437b-9300-3236d53aec6f&projectId=a9f3d40c-5730-405c-b25e-1034c4c56f3f","2839C30825B94A258F5BB5D25A7AD9BB-2025-08-07-19-07-57","","null","","images/semantic_sequence/physical_activity_semantic/physical_activity_semantic_4.png","null","",""
"","","","","","image-button-response","73","378444","0.0-12.0-1.0-1.5","2839C30825B94A258F5BB5D25A7AD9BB","2839C30825B94A258F5BB5D25A7AD9BB","dfe409a1-87e5-437b-9300-3236d53aec6f","a9f3d40c-5730-405c-b25e-1034c4c56f3f","{""num_scrambled_semantic"":""8"",""num_scrambled_causal"":""4"",""num_scrambled_schematic"":""4"",""participantId"":""2839C30825B94A258F5BB5D25A7AD9BB"",""assignmentId"":""dfe409a1-87e5-437b-9300-3236d53aec6f"",""projectId"":""a9f3d40c-5730-405c-b25e-1034c4c56f3f""}","https://test12345.live/?num_scrambled_semantic=8&num_scrambled_causal=4&num_scrambled_schematic=4&participantId=2839C30825B94A258F5BB5D25A7AD9BB&assignmentId=dfe409a1-87e5-437b-9300-3236d53aec6f&projectId=a9f3d40c-5730-405c-b25e-1034c4c56f3f","2839C30825B94A258F5BB5D25A7AD9BB-2025-08-07-19-07-57","","2220","","images/semantic_sequence/physical_activity_semantic/physical_activity_semantic_4.png","0","",""
"","","","","","image-button-response","74","380252","0.0-12.0-1.0-2.5","2839C30825B94A258F5BB5D25A7AD9BB","2839C30825B94A258F5BB5D25A7AD9BB","dfe409a1-87e5-437b-9300-3236d53aec6f","a9f3d40c-5730-405c-b25e-1034c4c56f3f","{""num_scrambled_semantic"":""8"",""num_scrambled_causal"":""4"",""num_scrambled_schematic"":""4"",""participantId"":""2839C30825B94A258F5BB5D25A7AD9BB"",""assignmentId"":""dfe409a1-87e5-437b-9300-3236d53aec6f"",""projectId"":""a9f3d40c-5730-405c-b25e-1034c4c56f3f""}","https://test12345.live/?num_scrambled_semantic=8&num_scrambled_causal=4&num_scrambled_schematic=4&participantId=2839C30825B94A258F5BB5D25A7AD9BB&assignmentId=dfe409a1-87e5-437b-9300-3236d53aec6f&projectId=a9f3d40c-5730-405c-b25e-1034c4c56f3f","2839C30825B94A258F5BB5D25A7AD9BB-2025-08-07-19-07-57","","null","","[]","null","",""
"","","","","","image-button-response","75","384763","0.0-12.0-1.0-0.6","2839C30825B94A258F5BB5D25A7AD9BB","2839C30825B94A258F5BB5D25A7AD9BB","dfe409a1-87e5-437b-9300-3236d53aec6f","a9f3d40c-5730-405c-b25e-1034c4c56f3f","{""num_scrambled_semantic"":""8"",""num_scrambled_causal"":""4"",""num_scrambled_schematic"":""4"",""participantId"":""2839C30825B94A258F5BB5D25A7AD9BB"",""assignmentId"":""dfe409a1-87e5-437b-9300-3236d53aec6f"",""projectId"":""a9f3d40c-5730-405c-b25e-1034c4c56f3f""}","https://test12345.live/?num_scrambled_semantic=8&num_scrambled_causal=4&num_scrambled_schematic=4&participantId=2839C30825B94A258F5BB5D25A7AD9BB&assignmentId=dfe409a1-87e5-437b-9300-3236d53aec6f&projectId=a9f3d40c-5730-405c-b25e-1034c4c56f3f","2839C30825B94A258F5BB5D25A7AD9BB-2025-08-07-19-07-57","","null","","images/semantic_sequence/physical_activity_semantic/physical_activity_semantic_8.png","null","",""
"","","","","","image-button-response","76","386644","0.0-12.0-1.0-1.6","2839C30825B94A258F5BB5D25A7AD9BB","2839C30825B94A258F5BB5D25A7AD9BB","dfe409a1-87e5-437b-9300-3236d53aec6f","a9f3d40c-5730-405c-b25e-1034c4c56f3f","{""num_scrambled_semantic"":""8"",""num_scrambled_causal"":""4"",""num_scrambled_schematic"":""4"",""participantId"":""2839C30825B94A258F5BB5D25A7AD9BB"",""assignmentId"":""dfe409a1-87e5-437b-9300-3236d53aec6f"",""projectId"":""a9f3d40c-5730-405c-b25e-1034c4c56f3f""}","https://test12345.live/?num_scrambled_semantic=8&num_scrambled_causal=4&num_scrambled_schematic=4&participantId=2839C30825B94A258F5BB5D25A7AD9BB&assignmentId=dfe409a1-87e5-437b-9300-3236d53aec6f&projectId=a9f3d40c-5730-405c-b25e-1034c4c56f3f","2839C30825B94A258F5BB5D25A7AD9BB-2025-08-07-19-07-57","","1880","","images/semantic_sequence/physical_activity_semantic/physical_activity_semantic_8.png","0","",""
"","","","","","image-button-response","77","388452","0.0-12.0-1.0-2.6","2839C30825B94A258F5BB5D25A7AD9BB","2839C30825B94A258F5BB5D25A7AD9BB","dfe409a1-87e5-437b-9300-3236d53aec6f","a9f3d40c-5730-405c-b25e-1034c4c56f3f","{""num_scrambled_semantic"":""8"",""num_scrambled_causal"":""4"",""num_scrambled_schematic"":""4"",""participantId"":""2839C30825B94A258F5BB5D25A7AD9BB"",""assignmentId"":""dfe409a1-87e5-437b-9300-3236d53aec6f"",""projectId"":""a9f3d40c-5730-405c-b25e-1034c4c56f3f""}","https://test12345.live/?num_scrambled_semantic=8&num_scrambled_causal=4&num_scrambled_schematic=4&participantId=2839C30825B94A258F5BB5D25A7AD9BB&assignmentId=dfe409a1-87e5-437b-9300-3236d53aec6f&projectId=a9f3d40c-5730-405c-b25e-1034c4c56f3f","2839C30825B94A258F5BB5D25A7AD9BB-2025-08-07-19-07-57","","null","","[]","null","",""
"","","","","","image-button-response","78","392962","0.0-12.0-1.0-0.7","2839C30825B94A258F5BB5D25A7AD9BB","2839C30825B94A258F5BB5D25A7AD9BB","dfe409a1-87e5-437b-9300-3236d53aec6f","a9f3d40c-5730-405c-b25e-1034c4c56f3f","{""num_scrambled_semantic"":""8"",""num_scrambled_causal"":""4"",""num_scrambled_schematic"":""4"",""participantId"":""2839C30825B94A258F5BB5D25A7AD9BB"",""assignmentId"":""dfe409a1-87e5-437b-9300-3236d53aec6f"",""projectId"":""a9f3d40c-5730-405c-b25e-1034c4c56f3f""}","https://test12345.live/?num_scrambled_semantic=8&num_scrambled_causal=4&num_scrambled_schematic=4&participantId=2839C30825B94A258F5BB5D25A7AD9BB&assignmentId=dfe409a1-87e5-437b-9300-3236d53aec6f&projectId=a9f3d40c-5730-405c-b25e-1034c4c56f3f","2839C30825B94A258F5BB5D25A7AD9BB-2025-08-07-19-07-57","","null","","images/semantic_sequence/physical_activity_semantic/physical_activity_semantic_9.png","null","",""
"","","","","","image-button-response","79","394147","0.0-12.0-1.0-1.7","2839C30825B94A258F5BB5D25A7AD9BB","2839C30825B94A258F5BB5D25A7AD9BB","dfe409a1-87e5-437b-9300-3236d53aec6f","a9f3d40c-5730-405c-b25e-1034c4c56f3f","{""num_scrambled_semantic"":""8"",""num_scrambled_causal"":""4"",""num_scrambled_schematic"":""4"",""participantId"":""2839C30825B94A258F5BB5D25A7AD9BB"",""assignmentId"":""dfe409a1-87e5-437b-9300-3236d53aec6f"",""projectId"":""a9f3d40c-5730-405c-b25e-1034c4c56f3f""}","https://test12345.live/?num_scrambled_semantic=8&num_scrambled_causal=4&num_scrambled_schematic=4&participantId=2839C30825B94A258F5BB5D25A7AD9BB&assignmentId=dfe409a1-87e5-437b-9300-3236d53aec6f&projectId=a9f3d40c-5730-405c-b25e-1034c4c56f3f","2839C30825B94A258F5BB5D25A7AD9BB-2025-08-07-19-07-57","","1184","","images/semantic_sequence/physical_activity_semantic/physical_activity_semantic_9.png","0","",""
"","","","","","image-button-response","80","395962","0.0-12.0-1.0-2.7","2839C30825B94A258F5BB5D25A7AD9BB","2839C30825B94A258F5BB5D25A7AD9BB","dfe409a1-87e5-437b-9300-3236d53aec6f","a9f3d40c-5730-405c-b25e-1034c4c56f3f","{""num_scrambled_semantic"":""8"",""num_scrambled_causal"":""4"",""num_scrambled_schematic"":""4"",""participantId"":""2839C30825B94A258F5BB5D25A7AD9BB"",""assignmentId"":""dfe409a1-87e5-437b-9300-3236d53aec6f"",""projectId"":""a9f3d40c-5730-405c-b25e-1034c4c56f3f""}","https://test12345.live/?num_scrambled_semantic=8&num_scrambled_causal=4&num_scrambled_schematic=4&participantId=2839C30825B94A258F5BB5D25A7AD9BB&assignmentId=dfe409a1-87e5-437b-9300-3236d53aec6f&projectId=a9f3d40c-5730-405c-b25e-1034c4c56f3f","2839C30825B94A258F5BB5D25A7AD9BB-2025-08-07-19-07-57","","null","","[]","null","",""
"","","","","","image-button-response","81","400472","0.0-12.0-1.0-0.8","2839C30825B94A258F5BB5D25A7AD9BB","2839C30825B94A258F5BB5D25A7AD9BB","dfe409a1-87e5-437b-9300-3236d53aec6f","a9f3d40c-5730-405c-b25e-1034c4c56f3f","{""num_scrambled_semantic"":""8"",""num_scrambled_causal"":""4"",""num_scrambled_schematic"":""4"",""participantId"":""2839C30825B94A258F5BB5D25A7AD9BB"",""assignmentId"":""dfe409a1-87e5-437b-9300-3236d53aec6f"",""projectId"":""a9f3d40c-5730-405c-b25e-1034c4c56f3f""}","https://test12345.live/?num_scrambled_semantic=8&num_scrambled_causal=4&num_scrambled_schematic=4&participantId=2839C30825B94A258F5BB5D25A7AD9BB&assignmentId=dfe409a1-87e5-437b-9300-3236d53aec6f&projectId=a9f3d40c-5730-405c-b25e-1034c4c56f3f","2839C30825B94A258F5BB5D25A7AD9BB-2025-08-07-19-07-57","","null","","images/semantic_sequence/physical_activity_semantic/physical_activity_semantic_7.png","null","",""
"","","","","","image-button-response","82","401011","0.0-12.0-1.0-1.8","2839C30825B94A258F5BB5D25A7AD9BB","2839C30825B94A258F5BB5D25A7AD9BB","dfe409a1-87e5-437b-9300-3236d53aec6f","a9f3d40c-5730-405c-b25e-1034c4c56f3f","{""num_scrambled_semantic"":""8"",""num_scrambled_causal"":""4"",""num_scrambled_schematic"":""4"",""participantId"":""2839C30825B94A258F5BB5D25A7AD9BB"",""assignmentId"":""dfe409a1-87e5-437b-9300-3236d53aec6f"",""projectId"":""a9f3d40c-5730-405c-b25e-1034c4c56f3f""}","https://test12345.live/?num_scrambled_semantic=8&num_scrambled_causal=4&num_scrambled_schematic=4&participantId=2839C30825B94A258F5BB5D25A7AD9BB&assignmentId=dfe409a1-87e5-437b-9300-3236d53aec6f&projectId=a9f3d40c-5730-405c-b25e-1034c4c56f3f","2839C30825B94A258F5BB5D25A7AD9BB-2025-08-07-19-07-57","","538","","images/semantic_sequence/physical_activity_semantic/physical_activity_semantic_7.png","0","",""
"","","","","","image-button-response","83","402822","0.0-12.0-1.0-2.8","2839C30825B94A258F5BB5D25A7AD9BB","2839C30825B94A258F5BB5D25A7AD9BB","dfe409a1-87e5-437b-9300-3236d53aec6f","a9f3d40c-5730-405c-b25e-1034c4c56f3f","{""num_scrambled_semantic"":""8"",""num_scrambled_causal"":""4"",""num_scrambled_schematic"":""4"",""participantId"":""2839C30825B94A258F5BB5D25A7AD9BB"",""assignmentId"":""dfe409a1-87e5-437b-9300-3236d53aec6f"",""projectId"":""a9f3d40c-5730-405c-b25e-1034c4c56f3f""}","https://test12345.live/?num_scrambled_semantic=8&num_scrambled_causal=4&num_scrambled_schematic=4&participantId=2839C30825B94A258F5BB5D25A7AD9BB&assignmentId=dfe409a1-87e5-437b-9300-3236d53aec6f&projectId=a9f3d40c-5730-405c-b25e-1034c4c56f3f","2839C30825B94A258F5BB5D25A7AD9BB-2025-08-07-19-07-57","","null","","[]","null","",""
"","","","","","image-button-response","84","407332","0.0-12.0-1.0-0.9","2839C30825B94A258F5BB5D25A7AD9BB","2839C30825B94A258F5BB5D25A7AD9BB","dfe409a1-87e5-437b-9300-3236d53aec6f","a9f3d40c-5730-405c-b25e-1034c4c56f3f","{""num_scrambled_semantic"":""8"",""num_scrambled_causal"":""4"",""num_scrambled_schematic"":""4"",""participantId"":""2839C30825B94A258F5BB5D25A7AD9BB"",""assignmentId"":""dfe409a1-87e5-437b-9300-3236d53aec6f"",""projectId"":""a9f3d40c-5730-405c-b25e-1034c4c56f3f""}","https://test12345.live/?num_scrambled_semantic=8&num_scrambled_causal=4&num_scrambled_schematic=4&participantId=2839C30825B94A258F5BB5D25A7AD9BB&assignmentId=dfe409a1-87e5-437b-9300-3236d53aec6f&projectId=a9f3d40c-5730-405c-b25e-1034c4c56f3f","2839C30825B94A258F5BB5D25A7AD9BB-2025-08-07-19-07-57","","null","","images/semantic_sequence/physical_activity_semantic/physical_activity_semantic_ten.png","null","",""
"","","","","","image-button-response","85","408763","0.0-12.0-1.0-1.9","2839C30825B94A258F5BB5D25A7AD9BB","2839C30825B94A258F5BB5D25A7AD9BB","dfe409a1-87e5-437b-9300-3236d53aec6f","a9f3d40c-5730-405c-b25e-1034c4c56f3f","{""num_scrambled_semantic"":""8"",""num_scrambled_causal"":""4"",""num_scrambled_schematic"":""4"",""participantId"":""2839C30825B94A258F5BB5D25A7AD9BB"",""assignmentId"":""dfe409a1-87e5-437b-9300-3236d53aec6f"",""projectId"":""a9f3d40c-5730-405c-b25e-1034c4c56f3f""}","https://test12345.live/?num_scrambled_semantic=8&num_scrambled_causal=4&num_scrambled_schematic=4&participantId=2839C30825B94A258F5BB5D25A7AD9BB&assignmentId=dfe409a1-87e5-437b-9300-3236d53aec6f&projectId=a9f3d40c-5730-405c-b25e-1034c4c56f3f","2839C30825B94A258F5BB5D25A7AD9BB-2025-08-07-19-07-57","","1430","","images/semantic_sequence/physical_activity_semantic/physical_activity_semantic_ten.png","0","",""
"","","","","","image-button-response","86","410572","0.0-12.0-1.0-2.9","2839C30825B94A258F5BB5D25A7AD9BB","2839C30825B94A258F5BB5D25A7AD9BB","dfe409a1-87e5-437b-9300-3236d53aec6f","a9f3d40c-5730-405c-b25e-1034c4c56f3f","{""num_scrambled_semantic"":""8"",""num_scrambled_causal"":""4"",""num_scrambled_schematic"":""4"",""participantId"":""2839C30825B94A258F5BB5D25A7AD9BB"",""assignmentId"":""dfe409a1-87e5-437b-9300-3236d53aec6f"",""projectId"":""a9f3d40c-5730-405c-b25e-1034c4c56f3f""}","https://test12345.live/?num_scrambled_semantic=8&num_scrambled_causal=4&num_scrambled_schematic=4&participantId=2839C30825B94A258F5BB5D25A7AD9BB&assignmentId=dfe409a1-87e5-437b-9300-3236d53aec6f&projectId=a9f3d40c-5730-405c-b25e-1034c4c56f3f","2839C30825B94A258F5BB5D25A7AD9BB-2025-08-07-19-07-57","","null","","[]","null","",""
"","","","","","html-audio-response","87","438931","0.0-13.0","2839C30825B94A258F5BB5D25A7AD9BB","2839C30825B94A258F5BB5D25A7AD9BB","dfe409a1-87e5-437b-9300-3236d53aec6f","a9f3d40c-5730-405c-b25e-1034c4c56f3f","{""num_scrambled_semantic"":""8"",""num_scrambled_causal"":""4"",""num_scrambled_schematic"":""4"",""participantId"":""2839C30825B94A258F5BB5D25A7AD9BB"",""assignmentId"":""dfe409a1-87e5-437b-9300-3236d53aec6f"",""projectId"":""a9f3d40c-5730-405c-b25e-1034c4c56f3f""}","https://test12345.live/?num_scrambled_semantic=8&num_scrambled_causal=4&num_scrambled_schematic=4&participantId=2839C30825B94A258F5BB5D25A7AD9BB&assignmentId=dfe409a1-87e5-437b-9300-3236d53aec6f&projectId=a9f3d40c-5730-405c-b25e-1034c4c56f3f","2839C30825B94A258F5BB5D25A7AD9BB-2025-08-07-19-07-57","","18037","","[""<span style=\""color: red; font-size: 24px\""> NOW RECORDING</span><p>Please say out loud all the images you saw, as many as you can remember. The images can be said in any order.</p>""]","","1","physical_activity_semantic"
"","","","","","image-button-response","88","444942","0.0-14.0-0.0","2839C30825B94A258F5BB5D25A7AD9BB","2839C30825B94A258F5BB5D25A7AD9BB","dfe409a1-87e5-437b-9300-3236d53aec6f","a9f3d40c-5730-405c-b25e-1034c4c56f3f","{""num_scrambled_semantic"":""8"",""num_scrambled_causal"":""4"",""num_scrambled_schematic"":""4"",""participantId"":""2839C30825B94A258F5BB5D25A7AD9BB"",""assignmentId"":""dfe409a1-87e5-437b-9300-3236d53aec6f"",""projectId"":""a9f3d40c-5730-405c-b25e-1034c4c56f3f""}","https://test12345.live/?num_scrambled_semantic=8&num_scrambled_causal=4&num_scrambled_schematic=4&participantId=2839C30825B94A258F5BB5D25A7AD9BB&assignmentId=dfe409a1-87e5-437b-9300-3236d53aec6f&projectId=a9f3d40c-5730-405c-b25e-1034c4c56f3f","2839C30825B94A258F5BB5D25A7AD9BB-2025-08-07-19-07-57","","null","","images/causal_sequence/museum_causal/museum_causal_0.png","null","",""
"","","","","","image-button-response","89","449452","0.0-14.0-1.0-0.0","2839C30825B94A258F5BB5D25A7AD9BB","2839C30825B94A258F5BB5D25A7AD9BB","dfe409a1-87e5-437b-9300-3236d53aec6f","a9f3d40c-5730-405c-b25e-1034c4c56f3f","{""num_scrambled_semantic"":""8"",""num_scrambled_causal"":""4"",""num_scrambled_schematic"":""4"",""participantId"":""2839C30825B94A258F5BB5D25A7AD9BB"",""assignmentId"":""dfe409a1-87e5-437b-9300-3236d53aec6f"",""projectId"":""a9f3d40c-5730-405c-b25e-1034c4c56f3f""}","https://test12345.live/?num_scrambled_semantic=8&num_scrambled_causal=4&num_scrambled_schematic=4&participantId=2839C30825B94A258F5BB5D25A7AD9BB&assignmentId=dfe409a1-87e5-437b-9300-3236d53aec6f&projectId=a9f3d40c-5730-405c-b25e-1034c4c56f3f","2839C30825B94A258F5BB5D25A7AD9BB-2025-08-07-19-07-57","","null","","images/causal_sequence/museum_causal/museum_causal_1.png","null","",""
"","","","","","image-button-response","90","451491","0.0-14.0-1.0-1.0","2839C30825B94A258F5BB5D25A7AD9BB","2839C30825B94A258F5BB5D25A7AD9BB","dfe409a1-87e5-437b-9300-3236d53aec6f","a9f3d40c-5730-405c-b25e-1034c4c56f3f","{""num_scrambled_semantic"":""8"",""num_scrambled_causal"":""4"",""num_scrambled_schematic"":""4"",""participantId"":""2839C30825B94A258F5BB5D25A7AD9BB"",""assignmentId"":""dfe409a1-87e5-437b-9300-3236d53aec6f"",""projectId"":""a9f3d40c-5730-405c-b25e-1034c4c56f3f""}","https://test12345.live/?num_scrambled_semantic=8&num_scrambled_causal=4&num_scrambled_schematic=4&participantId=2839C30825B94A258F5BB5D25A7AD9BB&assignmentId=dfe409a1-87e5-437b-9300-3236d53aec6f&projectId=a9f3d40c-5730-405c-b25e-1034c4c56f3f","2839C30825B94A258F5BB5D25A7AD9BB-2025-08-07-19-07-57","","2038","","images/causal_sequence/museum_causal/museum_causal_1.png","0","",""
"","","","","","image-button-response","91","453313","0.0-14.0-1.0-2.0","2839C30825B94A258F5BB5D25A7AD9BB","2839C30825B94A258F5BB5D25A7AD9BB","dfe409a1-87e5-437b-9300-3236d53aec6f","a9f3d40c-5730-405c-b25e-1034c4c56f3f","{""num_scrambled_semantic"":""8"",""num_scrambled_causal"":""4"",""num_scrambled_schematic"":""4"",""participantId"":""2839C30825B94A258F5BB5D25A7AD9BB"",""assignmentId"":""dfe409a1-87e5-437b-9300-3236d53aec6f"",""projectId"":""a9f3d40c-5730-405c-b25e-1034c4c56f3f""}","https://test12345.live/?num_scrambled_semantic=8&num_scrambled_causal=4&num_scrambled_schematic=4&participantId=2839C30825B94A258F5BB5D25A7AD9BB&assignmentId=dfe409a1-87e5-437b-9300-3236d53aec6f&projectId=a9f3d40c-5730-405c-b25e-1034c4c56f3f","2839C30825B94A258F5BB5D25A7AD9BB-2025-08-07-19-07-57","","null","","[]","null","",""
"","","","","","image-button-response","92","457822","0.0-14.0-1.0-0.1","2839C30825B94A258F5BB5D25A7AD9BB","2839C30825B94A258F5BB5D25A7AD9BB","dfe409a1-87e5-437b-9300-3236d53aec6f","a9f3d40c-5730-405c-b25e-1034c4c56f3f","{""num_scrambled_semantic"":""8"",""num_scrambled_causal"":""4"",""num_scrambled_schematic"":""4"",""participantId"":""2839C30825B94A258F5BB5D25A7AD9BB"",""assignmentId"":""dfe409a1-87e5-437b-9300-3236d53aec6f"",""projectId"":""a9f3d40c-5730-405c-b25e-1034c4c56f3f""}","https://test12345.live/?num_scrambled_semantic=8&num_scrambled_causal=4&num_scrambled_schematic=4&participantId=2839C30825B94A258F5BB5D25A7AD9BB&assignmentId=dfe409a1-87e5-437b-9300-3236d53aec6f&projectId=a9f3d40c-5730-405c-b25e-1034c4c56f3f","2839C30825B94A258F5BB5D25A7AD9BB-2025-08-07-19-07-57","","null","","images/causal_sequence/museum_causal/museum_causal_2.png","null","",""
"","","","","","image-button-response","93","460828","0.0-14.0-1.0-1.1","2839C30825B94A258F5BB5D25A7AD9BB","2839C30825B94A258F5BB5D25A7AD9BB","dfe409a1-87e5-437b-9300-3236d53aec6f","a9f3d40c-5730-405c-b25e-1034c4c56f3f","{""num_scrambled_semantic"":""8"",""num_scrambled_causal"":""4"",""num_scrambled_schematic"":""4"",""participantId"":""2839C30825B94A258F5BB5D25A7AD9BB"",""assignmentId"":""dfe409a1-87e5-437b-9300-3236d53aec6f"",""projectId"":""a9f3d40c-5730-405c-b25e-1034c4c56f3f""}","https://test12345.live/?num_scrambled_semantic=8&num_scrambled_causal=4&num_scrambled_schematic=4&participantId=2839C30825B94A258F5BB5D25A7AD9BB&assignmentId=dfe409a1-87e5-437b-9300-3236d53aec6f&projectId=a9f3d40c-5730-405c-b25e-1034c4c56f3f","2839C30825B94A258F5BB5D25A7AD9BB-2025-08-07-19-07-57","","3005","","images/causal_sequence/museum_causal/museum_causal_2.png","1","",""
"","","","","","image-button-response","94","462642","0.0-14.0-1.0-2.1","2839C30825B94A258F5BB5D25A7AD9BB","2839C30825B94A258F5BB5D25A7AD9BB","dfe409a1-87e5-437b-9300-3236d53aec6f","a9f3d40c-5730-405c-b25e-1034c4c56f3f","{""num_scrambled_semantic"":""8"",""num_scrambled_causal"":""4"",""num_scrambled_schematic"":""4"",""participantId"":""2839C30825B94A258F5BB5D25A7AD9BB"",""assignmentId"":""dfe409a1-87e5-437b-9300-3236d53aec6f"",""projectId"":""a9f3d40c-5730-405c-b25e-1034c4c56f3f""}","https://test12345.live/?num_scrambled_semantic=8&num_scrambled_causal=4&num_scrambled_schematic=4&participantId=2839C30825B94A258F5BB5D25A7AD9BB&assignmentId=dfe409a1-87e5-437b-9300-3236d53aec6f&projectId=a9f3d40c-5730-405c-b25e-1034c4c56f3f","2839C30825B94A258F5BB5D25A7AD9BB-2025-08-07-19-07-57","","null","","[]","null","",""
"","","","","","image-button-response","95","467162","0.0-14.0-1.0-0.2","2839C30825B94A258F5BB5D25A7AD9BB","2839C30825B94A258F5BB5D25A7AD9BB","dfe409a1-87e5-437b-9300-3236d53aec6f","a9f3d40c-5730-405c-b25e-1034c4c56f3f","{""num_scrambled_semantic"":""8"",""num_scrambled_causal"":""4"",""num_scrambled_schematic"":""4"",""participantId"":""2839C30825B94A258F5BB5D25A7AD9BB"",""assignmentId"":""dfe409a1-87e5-437b-9300-3236d53aec6f"",""projectId"":""a9f3d40c-5730-405c-b25e-1034c4c56f3f""}","https://test12345.live/?num_scrambled_semantic=8&num_scrambled_causal=4&num_scrambled_schematic=4&participantId=2839C30825B94A258F5BB5D25A7AD9BB&assignmentId=dfe409a1-87e5-437b-9300-3236d53aec6f&projectId=a9f3d40c-5730-405c-b25e-1034c4c56f3f","2839C30825B94A258F5BB5D25A7AD9BB-2025-08-07-19-07-57","","null","","images/causal_sequence/museum_causal/museum_causal_3.png","null","",""
"","","","","","image-button-response","96","468995","0.0-14.0-1.0-1.2","2839C30825B94A258F5BB5D25A7AD9BB","2839C30825B94A258F5BB5D25A7AD9BB","dfe409a1-87e5-437b-9300-3236d53aec6f","a9f3d40c-5730-405c-b25e-1034c4c56f3f","{""num_scrambled_semantic"":""8"",""num_scrambled_causal"":""4"",""num_scrambled_schematic"":""4"",""participantId"":""2839C30825B94A258F5BB5D25A7AD9BB"",""assignmentId"":""dfe409a1-87e5-437b-9300-3236d53aec6f"",""projectId"":""a9f3d40c-5730-405c-b25e-1034c4c56f3f""}","https://test12345.live/?num_scrambled_semantic=8&num_scrambled_causal=4&num_scrambled_schematic=4&participantId=2839C30825B94A258F5BB5D25A7AD9BB&assignmentId=dfe409a1-87e5-437b-9300-3236d53aec6f&projectId=a9f3d40c-5730-405c-b25e-1034c4c56f3f","2839C30825B94A258F5BB5D25A7AD9BB-2025-08-07-19-07-57","","1832","","images/causal_sequence/museum_causal/museum_causal_3.png","0","",""
"","","","","","image-button-response","97","470803","0.0-14.0-1.0-2.2","2839C30825B94A258F5BB5D25A7AD9BB","2839C30825B94A258F5BB5D25A7AD9BB","dfe409a1-87e5-437b-9300-3236d53aec6f","a9f3d40c-5730-405c-b25e-1034c4c56f3f","{""num_scrambled_semantic"":""8"",""num_scrambled_causal"":""4"",""num_scrambled_schematic"":""4"",""participantId"":""2839C30825B94A258F5BB5D25A7AD9BB"",""assignmentId"":""dfe409a1-87e5-437b-9300-3236d53aec6f"",""projectId"":""a9f3d40c-5730-405c-b25e-1034c4c56f3f""}","https://test12345.live/?num_scrambled_semantic=8&num_scrambled_causal=4&num_scrambled_schematic=4&participantId=2839C30825B94A258F5BB5D25A7AD9BB&assignmentId=dfe409a1-87e5-437b-9300-3236d53aec6f&projectId=a9f3d40c-5730-405c-b25e-1034c4c56f3f","2839C30825B94A258F5BB5D25A7AD9BB-2025-08-07-19-07-57","","null","","[]","null","",""
"","","","","","image-button-response","98","475322","0.0-14.0-1.0-0.3","2839C30825B94A258F5BB5D25A7AD9BB","2839C30825B94A258F5BB5D25A7AD9BB","dfe409a1-87e5-437b-9300-3236d53aec6f","a9f3d40c-5730-405c-b25e-1034c4c56f3f","{""num_scrambled_semantic"":""8"",""num_scrambled_causal"":""4"",""num_scrambled_schematic"":""4"",""participantId"":""2839C30825B94A258F5BB5D25A7AD9BB"",""assignmentId"":""dfe409a1-87e5-437b-9300-3236d53aec6f"",""projectId"":""a9f3d40c-5730-405c-b25e-1034c4c56f3f""}","https://test12345.live/?num_scrambled_semantic=8&num_scrambled_causal=4&num_scrambled_schematic=4&participantId=2839C30825B94A258F5BB5D25A7AD9BB&assignmentId=dfe409a1-87e5-437b-9300-3236d53aec6f&projectId=a9f3d40c-5730-405c-b25e-1034c4c56f3f","2839C30825B94A258F5BB5D25A7AD9BB-2025-08-07-19-07-57","","null","","images/causal_sequence/museum_causal/museum_causal_4.png","null","",""
"","","","","","image-button-response","99","477203","0.0-14.0-1.0-1.3","2839C30825B94A258F5BB5D25A7AD9BB","2839C30825B94A258F5BB5D25A7AD9BB","dfe409a1-87e5-437b-9300-3236d53aec6f","a9f3d40c-5730-405c-b25e-1034c4c56f3f","{""num_scrambled_semantic"":""8"",""num_scrambled_causal"":""4"",""num_scrambled_schematic"":""4"",""participantId"":""2839C30825B94A258F5BB5D25A7AD9BB"",""assignmentId"":""dfe409a1-87e5-437b-9300-3236d53aec6f"",""projectId"":""a9f3d40c-5730-405c-b25e-1034c4c56f3f""}","https://test12345.live/?num_scrambled_semantic=8&num_scrambled_causal=4&num_scrambled_schematic=4&participantId=2839C30825B94A258F5BB5D25A7AD9BB&assignmentId=dfe409a1-87e5-437b-9300-3236d53aec6f&projectId=a9f3d40c-5730-405c-b25e-1034c4c56f3f","2839C30825B94A258F5BB5D25A7AD9BB-2025-08-07-19-07-57","","1880","","images/causal_sequence/museum_causal/museum_causal_4.png","1","",""
"","","","","","image-button-response","100","479022","0.0-14.0-1.0-2.3","2839C30825B94A258F5BB5D25A7AD9BB","2839C30825B94A258F5BB5D25A7AD9BB","dfe409a1-87e5-437b-9300-3236d53aec6f","a9f3d40c-5730-405c-b25e-1034c4c56f3f","{""num_scrambled_semantic"":""8"",""num_scrambled_causal"":""4"",""num_scrambled_schematic"":""4"",""participantId"":""2839C30825B94A258F5BB5D25A7AD9BB"",""assignmentId"":""dfe409a1-87e5-437b-9300-3236d53aec6f"",""projectId"":""a9f3d40c-5730-405c-b25e-1034c4c56f3f""}","https://test12345.live/?num_scrambled_semantic=8&num_scrambled_causal=4&num_scrambled_schematic=4&participantId=2839C30825B94A258F5BB5D25A7AD9BB&assignmentId=dfe409a1-87e5-437b-9300-3236d53aec6f&projectId=a9f3d40c-5730-405c-b25e-1034c4c56f3f","2839C30825B94A258F5BB5D25A7AD9BB-2025-08-07-19-07-57","","null","","[]","null","",""
"","","","","","image-button-response","101","483537","0.0-14.0-1.0-0.4","2839C30825B94A258F5BB5D25A7AD9BB","2839C30825B94A258F5BB5D25A7AD9BB","dfe409a1-87e5-437b-9300-3236d53aec6f","a9f3d40c-5730-405c-b25e-1034c4c56f3f","{""num_scrambled_semantic"":""8"",""num_scrambled_causal"":""4"",""num_scrambled_schematic"":""4"",""participantId"":""2839C30825B94A258F5BB5D25A7AD9BB"",""assignmentId"":""dfe409a1-87e5-437b-9300-3236d53aec6f"",""projectId"":""a9f3d40c-5730-405c-b25e-1034c4c56f3f""}","https://test12345.live/?num_scrambled_semantic=8&num_scrambled_causal=4&num_scrambled_schematic=4&participantId=2839C30825B94A258F5BB5D25A7AD9BB&assignmentId=dfe409a1-87e5-437b-9300-3236d53aec6f&projectId=a9f3d40c-5730-405c-b25e-1034c4c56f3f","2839C30825B94A258F5BB5D25A7AD9BB-2025-08-07-19-07-57","","null","","images/causal_sequence/museum_causal/museum_causal_5.png","null","",""
"","","","","","image-button-response","102","485196","0.0-14.0-1.0-1.4","2839C30825B94A258F5BB5D25A7AD9BB","2839C30825B94A258F5BB5D25A7AD9BB","dfe409a1-87e5-437b-9300-3236d53aec6f","a9f3d40c-5730-405c-b25e-1034c4c56f3f","{""num_scrambled_semantic"":""8"",""num_scrambled_causal"":""4"",""num_scrambled_schematic"":""4"",""participantId"":""2839C30825B94A258F5BB5D25A7AD9BB"",""assignmentId"":""dfe409a1-87e5-437b-9300-3236d53aec6f"",""projectId"":""a9f3d40c-5730-405c-b25e-1034c4c56f3f""}","https://test12345.live/?num_scrambled_semantic=8&num_scrambled_causal=4&num_scrambled_schematic=4&participantId=2839C30825B94A258F5BB5D25A7AD9BB&assignmentId=dfe409a1-87e5-437b-9300-3236d53aec6f&projectId=a9f3d40c-5730-405c-b25e-1034c4c56f3f","2839C30825B94A258F5BB5D25A7AD9BB-2025-08-07-19-07-57","","1658","","images/causal_sequence/museum_causal/museum_causal_5.png","0","",""
"","","","","","image-button-response","103","487002","0.0-14.0-1.0-2.4","2839C30825B94A258F5BB5D25A7AD9BB","2839C30825B94A258F5BB5D25A7AD9BB","dfe409a1-87e5-437b-9300-3236d53aec6f","a9f3d40c-5730-405c-b25e-1034c4c56f3f","{""num_scrambled_semantic"":""8"",""num_scrambled_causal"":""4"",""num_scrambled_schematic"":""4"",""participantId"":""2839C30825B94A258F5BB5D25A7AD9BB"",""assignmentId"":""dfe409a1-87e5-437b-9300-3236d53aec6f"",""projectId"":""a9f3d40c-5730-405c-b25e-1034c4c56f3f""}","https://test12345.live/?num_scrambled_semantic=8&num_scrambled_causal=4&num_scrambled_schematic=4&participantId=2839C30825B94A258F5BB5D25A7AD9BB&assignmentId=dfe409a1-87e5-437b-9300-3236d53aec6f&projectId=a9f3d40c-5730-405c-b25e-1034c4c56f3f","2839C30825B94A258F5BB5D25A7AD9BB-2025-08-07-19-07-57","","null","","[]","null","",""
"","","","","","image-button-response","104","491513","0.0-14.0-1.0-0.5","2839C30825B94A258F5BB5D25A7AD9BB","2839C30825B94A258F5BB5D25A7AD9BB","dfe409a1-87e5-437b-9300-3236d53aec6f","a9f3d40c-5730-405c-b25e-1034c4c56f3f","{""num_scrambled_semantic"":""8"",""num_scrambled_causal"":""4"",""num_scrambled_schematic"":""4"",""participantId"":""2839C30825B94A258F5BB5D25A7AD9BB"",""assignmentId"":""dfe409a1-87e5-437b-9300-3236d53aec6f"",""projectId"":""a9f3d40c-5730-405c-b25e-1034c4c56f3f""}","https://test12345.live/?num_scrambled_semantic=8&num_scrambled_causal=4&num_scrambled_schematic=4&participantId=2839C30825B94A258F5BB5D25A7AD9BB&assignmentId=dfe409a1-87e5-437b-9300-3236d53aec6f&projectId=a9f3d40c-5730-405c-b25e-1034c4c56f3f","2839C30825B94A258F5BB5D25A7AD9BB-2025-08-07-19-07-57","","null","","images/causal_sequence/museum_causal/museum_causal_6.png","null","",""
"","","","","","image-button-response","105","492596","0.0-14.0-1.0-1.5","2839C30825B94A258F5BB5D25A7AD9BB","2839C30825B94A258F5BB5D25A7AD9BB","dfe409a1-87e5-437b-9300-3236d53aec6f","a9f3d40c-5730-405c-b25e-1034c4c56f3f","{""num_scrambled_semantic"":""8"",""num_scrambled_causal"":""4"",""num_scrambled_schematic"":""4"",""participantId"":""2839C30825B94A258F5BB5D25A7AD9BB"",""assignmentId"":""dfe409a1-87e5-437b-9300-3236d53aec6f"",""projectId"":""a9f3d40c-5730-405c-b25e-1034c4c56f3f""}","https://test12345.live/?num_scrambled_semantic=8&num_scrambled_causal=4&num_scrambled_schematic=4&participantId=2839C30825B94A258F5BB5D25A7AD9BB&assignmentId=dfe409a1-87e5-437b-9300-3236d53aec6f&projectId=a9f3d40c-5730-405c-b25e-1034c4c56f3f","2839C30825B94A258F5BB5D25A7AD9BB-2025-08-07-19-07-57","","1082","","images/causal_sequence/museum_causal/museum_causal_6.png","0","",""
"","","","","","image-button-response","106","494412","0.0-14.0-1.0-2.5","2839C30825B94A258F5BB5D25A7AD9BB","2839C30825B94A258F5BB5D25A7AD9BB","dfe409a1-87e5-437b-9300-3236d53aec6f","a9f3d40c-5730-405c-b25e-1034c4c56f3f","{""num_scrambled_semantic"":""8"",""num_scrambled_causal"":""4"",""num_scrambled_schematic"":""4"",""participantId"":""2839C30825B94A258F5BB5D25A7AD9BB"",""assignmentId"":""dfe409a1-87e5-437b-9300-3236d53aec6f"",""projectId"":""a9f3d40c-5730-405c-b25e-1034c4c56f3f""}","https://test12345.live/?num_scrambled_semantic=8&num_scrambled_causal=4&num_scrambled_schematic=4&participantId=2839C30825B94A258F5BB5D25A7AD9BB&assignmentId=dfe409a1-87e5-437b-9300-3236d53aec6f&projectId=a9f3d40c-5730-405c-b25e-1034c4c56f3f","2839C30825B94A258F5BB5D25A7AD9BB-2025-08-07-19-07-57","","null","","[]","null","",""
"","","","","","image-button-response","107","498932","0.0-14.0-1.0-0.6","2839C30825B94A258F5BB5D25A7AD9BB","2839C30825B94A258F5BB5D25A7AD9BB","dfe409a1-87e5-437b-9300-3236d53aec6f","a9f3d40c-5730-405c-b25e-1034c4c56f3f","{""num_scrambled_semantic"":""8"",""num_scrambled_causal"":""4"",""num_scrambled_schematic"":""4"",""participantId"":""2839C30825B94A258F5BB5D25A7AD9BB"",""assignmentId"":""dfe409a1-87e5-437b-9300-3236d53aec6f"",""projectId"":""a9f3d40c-5730-405c-b25e-1034c4c56f3f""}","https://test12345.live/?num_scrambled_semantic=8&num_scrambled_causal=4&num_scrambled_schematic=4&participantId=2839C30825B94A258F5BB5D25A7AD9BB&assignmentId=dfe409a1-87e5-437b-9300-3236d53aec6f&projectId=a9f3d40c-5730-405c-b25e-1034c4c56f3f","2839C30825B94A258F5BB5D25A7AD9BB-2025-08-07-19-07-57","","null","","images/causal_sequence/museum_causal/museum_causal_7.png","null","",""
"","","","","","image-button-response","108","500364","0.0-14.0-1.0-1.6","2839C30825B94A258F5BB5D25A7AD9BB","2839C30825B94A258F5BB5D25A7AD9BB","dfe409a1-87e5-437b-9300-3236d53aec6f","a9f3d40c-5730-405c-b25e-1034c4c56f3f","{""num_scrambled_semantic"":""8"",""num_scrambled_causal"":""4"",""num_scrambled_schematic"":""4"",""participantId"":""2839C30825B94A258F5BB5D25A7AD9BB"",""assignmentId"":""dfe409a1-87e5-437b-9300-3236d53aec6f"",""projectId"":""a9f3d40c-5730-405c-b25e-1034c4c56f3f""}","https://test12345.live/?num_scrambled_semantic=8&num_scrambled_causal=4&num_scrambled_schematic=4&participantId=2839C30825B94A258F5BB5D25A7AD9BB&assignmentId=dfe409a1-87e5-437b-9300-3236d53aec6f&projectId=a9f3d40c-5730-405c-b25e-1034c4c56f3f","2839C30825B94A258F5BB5D25A7AD9BB-2025-08-07-19-07-57","","1430","","images/causal_sequence/museum_causal/museum_causal_7.png","1","",""
"","","","","","image-button-response","109","502172","0.0-14.0-1.0-2.6","2839C30825B94A258F5BB5D25A7AD9BB","2839C30825B94A258F5BB5D25A7AD9BB","dfe409a1-87e5-437b-9300-3236d53aec6f","a9f3d40c-5730-405c-b25e-1034c4c56f3f","{""num_scrambled_semantic"":""8"",""num_scrambled_causal"":""4"",""num_scrambled_schematic"":""4"",""participantId"":""2839C30825B94A258F5BB5D25A7AD9BB"",""assignmentId"":""dfe409a1-87e5-437b-9300-3236d53aec6f"",""projectId"":""a9f3d40c-5730-405c-b25e-1034c4c56f3f""}","https://test12345.live/?num_scrambled_semantic=8&num_scrambled_causal=4&num_scrambled_schematic=4&participantId=2839C30825B94A258F5BB5D25A7AD9BB&assignmentId=dfe409a1-87e5-437b-9300-3236d53aec6f&projectId=a9f3d40c-5730-405c-b25e-1034c4c56f3f","2839C30825B94A258F5BB5D25A7AD9BB-2025-08-07-19-07-57","","null","","[]","null","",""
"","","","","","image-button-response","110","506687","0.0-14.0-1.0-0.7","2839C30825B94A258F5BB5D25A7AD9BB","2839C30825B94A258F5BB5D25A7AD9BB","dfe409a1-87e5-437b-9300-3236d53aec6f","a9f3d40c-5730-405c-b25e-1034c4c56f3f","{""num_scrambled_semantic"":""8"",""num_scrambled_causal"":""4"",""num_scrambled_schematic"":""4"",""participantId"":""2839C30825B94A258F5BB5D25A7AD9BB"",""assignmentId"":""dfe409a1-87e5-437b-9300-3236d53aec6f"",""projectId"":""a9f3d40c-5730-405c-b25e-1034c4c56f3f""}","https://test12345.live/?num_scrambled_semantic=8&num_scrambled_causal=4&num_scrambled_schematic=4&participantId=2839C30825B94A258F5BB5D25A7AD9BB&assignmentId=dfe409a1-87e5-437b-9300-3236d53aec6f&projectId=a9f3d40c-5730-405c-b25e-1034c4c56f3f","2839C30825B94A258F5BB5D25A7AD9BB-2025-08-07-19-07-57","","null","","images/causal_sequence/museum_causal/museum_causal_8.png","null","",""
"","","","","","image-button-response","111","508396","0.0-14.0-1.0-1.7","2839C30825B94A258F5BB5D25A7AD9BB","2839C30825B94A258F5BB5D25A7AD9BB","dfe409a1-87e5-437b-9300-3236d53aec6f","a9f3d40c-5730-405c-b25e-1034c4c56f3f","{""num_scrambled_semantic"":""8"",""num_scrambled_causal"":""4"",""num_scrambled_schematic"":""4"",""participantId"":""2839C30825B94A258F5BB5D25A7AD9BB"",""assignmentId"":""dfe409a1-87e5-437b-9300-3236d53aec6f"",""projectId"":""a9f3d40c-5730-405c-b25e-1034c4c56f3f""}","https://test12345.live/?num_scrambled_semantic=8&num_scrambled_causal=4&num_scrambled_schematic=4&participantId=2839C30825B94A258F5BB5D25A7AD9BB&assignmentId=dfe409a1-87e5-437b-9300-3236d53aec6f&projectId=a9f3d40c-5730-405c-b25e-1034c4c56f3f","2839C30825B94A258F5BB5D25A7AD9BB-2025-08-07-19-07-57","","1708","","images/causal_sequence/museum_causal/museum_causal_8.png","0","",""
"","","","","","image-button-response","112","510202","0.0-14.0-1.0-2.7","2839C30825B94A258F5BB5D25A7AD9BB","2839C30825B94A258F5BB5D25A7AD9BB","dfe409a1-87e5-437b-9300-3236d53aec6f","a9f3d40c-5730-405c-b25e-1034c4c56f3f","{""num_scrambled_semantic"":""8"",""num_scrambled_causal"":""4"",""num_scrambled_schematic"":""4"",""participantId"":""2839C30825B94A258F5BB5D25A7AD9BB"",""assignmentId"":""dfe409a1-87e5-437b-9300-3236d53aec6f"",""projectId"":""a9f3d40c-5730-405c-b25e-1034c4c56f3f""}","https://test12345.live/?num_scrambled_semantic=8&num_scrambled_causal=4&num_scrambled_schematic=4&participantId=2839C30825B94A258F5BB5D25A7AD9BB&assignmentId=dfe409a1-87e5-437b-9300-3236d53aec6f&projectId=a9f3d40c-5730-405c-b25e-1034c4c56f3f","2839C30825B94A258F5BB5D25A7AD9BB-2025-08-07-19-07-57","","null","","[]","null","",""
"","","","","","image-button-response","113","514713","0.0-14.0-1.0-0.8","2839C30825B94A258F5BB5D25A7AD9BB","2839C30825B94A258F5BB5D25A7AD9BB","dfe409a1-87e5-437b-9300-3236d53aec6f","a9f3d40c-5730-405c-b25e-1034c4c56f3f","{""num_scrambled_semantic"":""8"",""num_scrambled_causal"":""4"",""num_scrambled_schematic"":""4"",""participantId"":""2839C30825B94A258F5BB5D25A7AD9BB"",""assignmentId"":""dfe409a1-87e5-437b-9300-3236d53aec6f"",""projectId"":""a9f3d40c-5730-405c-b25e-1034c4c56f3f""}","https://test12345.live/?num_scrambled_semantic=8&num_scrambled_causal=4&num_scrambled_schematic=4&participantId=2839C30825B94A258F5BB5D25A7AD9BB&assignmentId=dfe409a1-87e5-437b-9300-3236d53aec6f&projectId=a9f3d40c-5730-405c-b25e-1034c4c56f3f","2839C30825B94A258F5BB5D25A7AD9BB-2025-08-07-19-07-57","","null","","images/causal_sequence/museum_causal/museum_causal_9.png","null","",""
"","","","","","image-button-response","114","516692","0.0-14.0-1.0-1.8","2839C30825B94A258F5BB5D25A7AD9BB","2839C30825B94A258F5BB5D25A7AD9BB","dfe409a1-87e5-437b-9300-3236d53aec6f","a9f3d40c-5730-405c-b25e-1034c4c56f3f","{""num_scrambled_semantic"":""8"",""num_scrambled_causal"":""4"",""num_scrambled_schematic"":""4"",""participantId"":""2839C30825B94A258F5BB5D25A7AD9BB"",""assignmentId"":""dfe409a1-87e5-437b-9300-3236d53aec6f"",""projectId"":""a9f3d40c-5730-405c-b25e-1034c4c56f3f""}","https://test12345.live/?num_scrambled_semantic=8&num_scrambled_causal=4&num_scrambled_schematic=4&participantId=2839C30825B94A258F5BB5D25A7AD9BB&assignmentId=dfe409a1-87e5-437b-9300-3236d53aec6f&projectId=a9f3d40c-5730-405c-b25e-1034c4c56f3f","2839C30825B94A258F5BB5D25A7AD9BB-2025-08-07-19-07-57","","1978","","images/causal_sequence/museum_causal/museum_causal_9.png","1","",""
