"success","timeout","failed_images","failed_audio","failed_video","trial_type","trial_index","time_elapsed","internal_node_id","subject","subject_id","study_id","session_id","urlvar","current_url","audio_id","view_history","rt","device_id","stimulus","response","estimated_stimulus_onset","seq_name"
"true","false","[]","[]","[]","preload","0","1028","0.0-0.0","294C5AD37DFB4BDF93BB75FBAFE3F5C9","294C5AD37DFB4BDF93BB75FBAFE3F5C9","8f002781-2b45-4359-9b6f-849223e33505","03d12dc6-79b3-42a5-88c2-9b18a9e5f1ee","{""num_scrambled_semantic"":""8"",""num_scrambled_causal"":""4"",""num_scrambled_schematic"":""4"",""participantId"":""294C5AD37DFB4BDF93BB75FBAFE3F5C9"",""assignmentId"":""8f002781-2b45-4359-9b6f-849223e33505"",""projectId"":""03d12dc6-79b3-42a5-88c2-9b18a9e5f1ee""}","https://test12345.live/?num_scrambled_semantic=8&num_scrambled_causal=4&num_scrambled_schematic=4&participantId=294C5AD37DFB4BDF93BB75FBAFE3F5C9&assignmentId=8f002781-2b45-4359-9b6f-849223e33505&projectId=03d12dc6-79b3-42a5-88c2-9b18a9e5f1ee","294C5AD37DFB4BDF93BB75FBAFE3F5C9-2025-05-15-15-45-49","","","","","","",""
"","","","","","instructions","1","8350","0.0-1.0","294C5AD37DFB4BDF93BB75FBAFE3F5C9","294C5AD37DFB4BDF93BB75FBAFE3F5C9","8f002781-2b45-4359-9b6f-849223e33505","03d12dc6-79b3-42a5-88c2-9b18a9e5f1ee","{""num_scrambled_semantic"":""8"",""num_scrambled_causal"":""4"",""num_scrambled_schematic"":""4"",""participantId"":""294C5AD37DFB4BDF93BB75FBAFE3F5C9"",""assignmentId"":""8f002781-2b45-4359-9b6f-849223e33505"",""projectId"":""03d12dc6-79b3-42a5-88c2-9b18a9e5f1ee""}","https://test12345.live/?num_scrambled_semantic=8&num_scrambled_causal=4&num_scrambled_schematic=4&participantId=294C5AD37DFB4BDF93BB75FBAFE3F5C9&assignmentId=8f002781-2b45-4359-9b6f-849223e33505&projectId=03d12dc6-79b3-42a5-88c2-9b18a9e5f1ee","294C5AD37DFB4BDF93BB75FBAFE3F5C9-2025-05-15-15-45-49","[{""page_index"":0,""viewing_time"":7322}]","7322","","","","",""
"","","","","","instructions","2","12544","0.0-2.0","294C5AD37DFB4BDF93BB75FBAFE3F5C9","294C5AD37DFB4BDF93BB75FBAFE3F5C9","8f002781-2b45-4359-9b6f-849223e33505","03d12dc6-79b3-42a5-88c2-9b18a9e5f1ee","{""num_scrambled_semantic"":""8"",""num_scrambled_causal"":""4"",""num_scrambled_schematic"":""4"",""participantId"":""294C5AD37DFB4BDF93BB75FBAFE3F5C9"",""assignmentId"":""8f002781-2b45-4359-9b6f-849223e33505"",""projectId"":""03d12dc6-79b3-42a5-88c2-9b18a9e5f1ee""}","https://test12345.live/?num_scrambled_semantic=8&num_scrambled_causal=4&num_scrambled_schematic=4&participantId=294C5AD37DFB4BDF93BB75FBAFE3F5C9&assignmentId=8f002781-2b45-4359-9b6f-849223e33505&projectId=03d12dc6-79b3-42a5-88c2-9b18a9e5f1ee","294C5AD37DFB4BDF93BB75FBAFE3F5C9-2025-05-15-15-45-49","[{""page_index"":0,""viewing_time"":4193}]","4193","","","","",""
"true","","","","","fullscreen","3","15171","0.0-3.0","294C5AD37DFB4BDF93BB75FBAFE3F5C9","294C5AD37DFB4BDF93BB75FBAFE3F5C9","8f002781-2b45-4359-9b6f-849223e33505","03d12dc6-79b3-42a5-88c2-9b18a9e5f1ee","{""num_scrambled_semantic"":""8"",""num_scrambled_causal"":""4"",""num_scrambled_schematic"":""4"",""participantId"":""294C5AD37DFB4BDF93BB75FBAFE3F5C9"",""assignmentId"":""8f002781-2b45-4359-9b6f-849223e33505"",""projectId"":""03d12dc6-79b3-42a5-88c2-9b18a9e5f1ee""}","https://test12345.live/?num_scrambled_semantic=8&num_scrambled_causal=4&num_scrambled_schematic=4&participantId=294C5AD37DFB4BDF93BB75FBAFE3F5C9&assignmentId=8f002781-2b45-4359-9b6f-849223e33505&projectId=03d12dc6-79b3-42a5-88c2-9b18a9e5f1ee","294C5AD37DFB4BDF93BB75FBAFE3F5C9-2025-05-15-15-45-49","","1623","","","","",""
"","","","","","initialize-microphone","4","28221","0.0-4.0-0.0","294C5AD37DFB4BDF93BB75FBAFE3F5C9","294C5AD37DFB4BDF93BB75FBAFE3F5C9","8f002781-2b45-4359-9b6f-849223e33505","03d12dc6-79b3-42a5-88c2-9b18a9e5f1ee","{""num_scrambled_semantic"":""8"",""num_scrambled_causal"":""4"",""num_scrambled_schematic"":""4"",""participantId"":""294C5AD37DFB4BDF93BB75FBAFE3F5C9"",""assignmentId"":""8f002781-2b45-4359-9b6f-849223e33505"",""projectId"":""03d12dc6-79b3-42a5-88c2-9b18a9e5f1ee""}","https://test12345.live/?num_scrambled_semantic=8&num_scrambled_causal=4&num_scrambled_schematic=4&participantId=294C5AD37DFB4BDF93BB75FBAFE3F5C9&assignmentId=8f002781-2b45-4359-9b6f-849223e33505&projectId=03d12dc6-79b3-42a5-88c2-9b18a9e5f1ee","294C5AD37DFB4BDF93BB75FBAFE3F5C9-2025-05-15-15-45-49","","","c25afa7873dec50b5488a54cae55823abfefaa9d7fca7c9e346f7aec7409b3b5","","","",""
"","","","","","html-audio-response","5","292577","0.0-4.0-1.0","294C5AD37DFB4BDF93BB75FBAFE3F5C9","294C5AD37DFB4BDF93BB75FBAFE3F5C9","8f002781-2b45-4359-9b6f-849223e33505","03d12dc6-79b3-42a5-88c2-9b18a9e5f1ee","{""num_scrambled_semantic"":""8"",""num_scrambled_causal"":""4"",""num_scrambled_schematic"":""4"",""participantId"":""294C5AD37DFB4BDF93BB75FBAFE3F5C9"",""assignmentId"":""8f002781-2b45-4359-9b6f-849223e33505"",""projectId"":""03d12dc6-79b3-42a5-88c2-9b18a9e5f1ee""}","https://test12345.live/?num_scrambled_semantic=8&num_scrambled_causal=4&num_scrambled_schematic=4&participantId=294C5AD37DFB4BDF93BB75FBAFE3F5C9&assignmentId=8f002781-2b45-4359-9b6f-849223e33505&projectId=03d12dc6-79b3-42a5-88c2-9b18a9e5f1ee","294C5AD37DFB4BDF93BB75FBAFE3F5C9-2025-05-15-15-45-49","","5709","","<span style=""color: red; font-size: 24px""> NOW RECORDING</span>
        <p>Please test Microphone</p>","","4",""
"","","","","","html-button-response","6","295005","0.0-4.0-2.0","294C5AD37DFB4BDF93BB75FBAFE3F5C9","294C5AD37DFB4BDF93BB75FBAFE3F5C9","8f002781-2b45-4359-9b6f-849223e33505","03d12dc6-79b3-42a5-88c2-9b18a9e5f1ee","{""num_scrambled_semantic"":""8"",""num_scrambled_causal"":""4"",""num_scrambled_schematic"":""4"",""participantId"":""294C5AD37DFB4BDF93BB75FBAFE3F5C9"",""assignmentId"":""8f002781-2b45-4359-9b6f-849223e33505"",""projectId"":""03d12dc6-79b3-42a5-88c2-9b18a9e5f1ee""}","https://test12345.live/?num_scrambled_semantic=8&num_scrambled_causal=4&num_scrambled_schematic=4&participantId=294C5AD37DFB4BDF93BB75FBAFE3F5C9&assignmentId=8f002781-2b45-4359-9b6f-849223e33505&projectId=03d12dc6-79b3-42a5-88c2-9b18a9e5f1ee","294C5AD37DFB4BDF93BB75FBAFE3F5C9-2025-05-15-15-45-49","","2426","","<p style=""font-size:48px; color:red;"">Is Microphone OK?</p>","1","",""
"","","","","","instructions","7","309256","0.0-5.0","294C5AD37DFB4BDF93BB75FBAFE3F5C9","294C5AD37DFB4BDF93BB75FBAFE3F5C9","8f002781-2b45-4359-9b6f-849223e33505","03d12dc6-79b3-42a5-88c2-9b18a9e5f1ee","{""num_scrambled_semantic"":""8"",""num_scrambled_causal"":""4"",""num_scrambled_schematic"":""4"",""participantId"":""294C5AD37DFB4BDF93BB75FBAFE3F5C9"",""assignmentId"":""8f002781-2b45-4359-9b6f-849223e33505"",""projectId"":""03d12dc6-79b3-42a5-88c2-9b18a9e5f1ee""}","https://test12345.live/?num_scrambled_semantic=8&num_scrambled_causal=4&num_scrambled_schematic=4&participantId=294C5AD37DFB4BDF93BB75FBAFE3F5C9&assignmentId=8f002781-2b45-4359-9b6f-849223e33505&projectId=03d12dc6-79b3-42a5-88c2-9b18a9e5f1ee","294C5AD37DFB4BDF93BB75FBAFE3F5C9-2025-05-15-15-45-49","[{""page_index"":0,""viewing_time"":6909},{""page_index"":1,""viewing_time"":7340}]","14250","","","","",""
"","","","","","image-button-response","8","315261","0.0-6.0-0.0","294C5AD37DFB4BDF93BB75FBAFE3F5C9","294C5AD37DFB4BDF93BB75FBAFE3F5C9","8f002781-2b45-4359-9b6f-849223e33505","03d12dc6-79b3-42a5-88c2-9b18a9e5f1ee","{""num_scrambled_semantic"":""8"",""num_scrambled_causal"":""4"",""num_scrambled_schematic"":""4"",""participantId"":""294C5AD37DFB4BDF93BB75FBAFE3F5C9"",""assignmentId"":""8f002781-2b45-4359-9b6f-849223e33505"",""projectId"":""03d12dc6-79b3-42a5-88c2-9b18a9e5f1ee""}","https://test12345.live/?num_scrambled_semantic=8&num_scrambled_causal=4&num_scrambled_schematic=4&participantId=294C5AD37DFB4BDF93BB75FBAFE3F5C9&assignmentId=8f002781-2b45-4359-9b6f-849223e33505&projectId=03d12dc6-79b3-42a5-88c2-9b18a9e5f1ee","294C5AD37DFB4BDF93BB75FBAFE3F5C9-2025-05-15-15-45-49","","null","","images/instructions/movie_0.png","null","",""
"","","","","","image-button-response","9","319764","0.0-6.0-1.0-0.0","294C5AD37DFB4BDF93BB75FBAFE3F5C9","294C5AD37DFB4BDF93BB75FBAFE3F5C9","8f002781-2b45-4359-9b6f-849223e33505","03d12dc6-79b3-42a5-88c2-9b18a9e5f1ee","{""num_scrambled_semantic"":""8"",""num_scrambled_causal"":""4"",""num_scrambled_schematic"":""4"",""participantId"":""294C5AD37DFB4BDF93BB75FBAFE3F5C9"",""assignmentId"":""8f002781-2b45-4359-9b6f-849223e33505"",""projectId"":""03d12dc6-79b3-42a5-88c2-9b18a9e5f1ee""}","https://test12345.live/?num_scrambled_semantic=8&num_scrambled_causal=4&num_scrambled_schematic=4&participantId=294C5AD37DFB4BDF93BB75FBAFE3F5C9&assignmentId=8f002781-2b45-4359-9b6f-849223e33505&projectId=03d12dc6-79b3-42a5-88c2-9b18a9e5f1ee","294C5AD37DFB4BDF93BB75FBAFE3F5C9-2025-05-15-15-45-49","","null","","images/instructions/movie_1.png","null","",""
"","","","","","image-button-response","10","322078","0.0-6.0-1.0-1.0","294C5AD37DFB4BDF93BB75FBAFE3F5C9","294C5AD37DFB4BDF93BB75FBAFE3F5C9","8f002781-2b45-4359-9b6f-849223e33505","03d12dc6-79b3-42a5-88c2-9b18a9e5f1ee","{""num_scrambled_semantic"":""8"",""num_scrambled_causal"":""4"",""num_scrambled_schematic"":""4"",""participantId"":""294C5AD37DFB4BDF93BB75FBAFE3F5C9"",""assignmentId"":""8f002781-2b45-4359-9b6f-849223e33505"",""projectId"":""03d12dc6-79b3-42a5-88c2-9b18a9e5f1ee""}","https://test12345.live/?num_scrambled_semantic=8&num_scrambled_causal=4&num_scrambled_schematic=4&participantId=294C5AD37DFB4BDF93BB75FBAFE3F5C9&assignmentId=8f002781-2b45-4359-9b6f-849223e33505&projectId=03d12dc6-79b3-42a5-88c2-9b18a9e5f1ee","294C5AD37DFB4BDF93BB75FBAFE3F5C9-2025-05-15-15-45-49","","2311","","images/instructions/movie_1.png","0","",""
"","","","","","image-button-response","11","323881","0.0-6.0-1.0-2.0","294C5AD37DFB4BDF93BB75FBAFE3F5C9","294C5AD37DFB4BDF93BB75FBAFE3F5C9","8f002781-2b45-4359-9b6f-849223e33505","03d12dc6-79b3-42a5-88c2-9b18a9e5f1ee","{""num_scrambled_semantic"":""8"",""num_scrambled_causal"":""4"",""num_scrambled_schematic"":""4"",""participantId"":""294C5AD37DFB4BDF93BB75FBAFE3F5C9"",""assignmentId"":""8f002781-2b45-4359-9b6f-849223e33505"",""projectId"":""03d12dc6-79b3-42a5-88c2-9b18a9e5f1ee""}","https://test12345.live/?num_scrambled_semantic=8&num_scrambled_causal=4&num_scrambled_schematic=4&participantId=294C5AD37DFB4BDF93BB75FBAFE3F5C9&assignmentId=8f002781-2b45-4359-9b6f-849223e33505&projectId=03d12dc6-79b3-42a5-88c2-9b18a9e5f1ee","294C5AD37DFB4BDF93BB75FBAFE3F5C9-2025-05-15-15-45-49","","null","","[]","null","",""
"","","","","","image-button-response","12","328389","0.0-6.0-1.0-0.1","294C5AD37DFB4BDF93BB75FBAFE3F5C9","294C5AD37DFB4BDF93BB75FBAFE3F5C9","8f002781-2b45-4359-9b6f-849223e33505","03d12dc6-79b3-42a5-88c2-9b18a9e5f1ee","{""num_scrambled_semantic"":""8"",""num_scrambled_causal"":""4"",""num_scrambled_schematic"":""4"",""participantId"":""294C5AD37DFB4BDF93BB75FBAFE3F5C9"",""assignmentId"":""8f002781-2b45-4359-9b6f-849223e33505"",""projectId"":""03d12dc6-79b3-42a5-88c2-9b18a9e5f1ee""}","https://test12345.live/?num_scrambled_semantic=8&num_scrambled_causal=4&num_scrambled_schematic=4&participantId=294C5AD37DFB4BDF93BB75FBAFE3F5C9&assignmentId=8f002781-2b45-4359-9b6f-849223e33505&projectId=03d12dc6-79b3-42a5-88c2-9b18a9e5f1ee","294C5AD37DFB4BDF93BB75FBAFE3F5C9-2025-05-15-15-45-49","","null","","images/instructions/movie_2.png","null","",""
"","","","","","image-button-response","13","331555","0.0-6.0-1.0-1.1","294C5AD37DFB4BDF93BB75FBAFE3F5C9","294C5AD37DFB4BDF93BB75FBAFE3F5C9","8f002781-2b45-4359-9b6f-849223e33505","03d12dc6-79b3-42a5-88c2-9b18a9e5f1ee","{""num_scrambled_semantic"":""8"",""num_scrambled_causal"":""4"",""num_scrambled_schematic"":""4"",""participantId"":""294C5AD37DFB4BDF93BB75FBAFE3F5C9"",""assignmentId"":""8f002781-2b45-4359-9b6f-849223e33505"",""projectId"":""03d12dc6-79b3-42a5-88c2-9b18a9e5f1ee""}","https://test12345.live/?num_scrambled_semantic=8&num_scrambled_causal=4&num_scrambled_schematic=4&participantId=294C5AD37DFB4BDF93BB75FBAFE3F5C9&assignmentId=8f002781-2b45-4359-9b6f-849223e33505&projectId=03d12dc6-79b3-42a5-88c2-9b18a9e5f1ee","294C5AD37DFB4BDF93BB75FBAFE3F5C9-2025-05-15-15-45-49","","3164","","images/instructions/movie_2.png","0","",""
"","","","","","image-button-response","14","333363","0.0-6.0-1.0-2.1","294C5AD37DFB4BDF93BB75FBAFE3F5C9","294C5AD37DFB4BDF93BB75FBAFE3F5C9","8f002781-2b45-4359-9b6f-849223e33505","03d12dc6-79b3-42a5-88c2-9b18a9e5f1ee","{""num_scrambled_semantic"":""8"",""num_scrambled_causal"":""4"",""num_scrambled_schematic"":""4"",""participantId"":""294C5AD37DFB4BDF93BB75FBAFE3F5C9"",""assignmentId"":""8f002781-2b45-4359-9b6f-849223e33505"",""projectId"":""03d12dc6-79b3-42a5-88c2-9b18a9e5f1ee""}","https://test12345.live/?num_scrambled_semantic=8&num_scrambled_causal=4&num_scrambled_schematic=4&participantId=294C5AD37DFB4BDF93BB75FBAFE3F5C9&assignmentId=8f002781-2b45-4359-9b6f-849223e33505&projectId=03d12dc6-79b3-42a5-88c2-9b18a9e5f1ee","294C5AD37DFB4BDF93BB75FBAFE3F5C9-2025-05-15-15-45-49","","null","","[]","null","",""
"","","","","","image-button-response","15","337872","0.0-6.0-1.0-0.2","294C5AD37DFB4BDF93BB75FBAFE3F5C9","294C5AD37DFB4BDF93BB75FBAFE3F5C9","8f002781-2b45-4359-9b6f-849223e33505","03d12dc6-79b3-42a5-88c2-9b18a9e5f1ee","{""num_scrambled_semantic"":""8"",""num_scrambled_causal"":""4"",""num_scrambled_schematic"":""4"",""participantId"":""294C5AD37DFB4BDF93BB75FBAFE3F5C9"",""assignmentId"":""8f002781-2b45-4359-9b6f-849223e33505"",""projectId"":""03d12dc6-79b3-42a5-88c2-9b18a9e5f1ee""}","https://test12345.live/?num_scrambled_semantic=8&num_scrambled_causal=4&num_scrambled_schematic=4&participantId=294C5AD37DFB4BDF93BB75FBAFE3F5C9&assignmentId=8f002781-2b45-4359-9b6f-849223e33505&projectId=03d12dc6-79b3-42a5-88c2-9b18a9e5f1ee","294C5AD37DFB4BDF93BB75FBAFE3F5C9-2025-05-15-15-45-49","","null","","images/instructions/movie_3.png","null","",""
"","","","","","image-button-response","16","338958","0.0-6.0-1.0-1.2","294C5AD37DFB4BDF93BB75FBAFE3F5C9","294C5AD37DFB4BDF93BB75FBAFE3F5C9","8f002781-2b45-4359-9b6f-849223e33505","03d12dc6-79b3-42a5-88c2-9b18a9e5f1ee","{""num_scrambled_semantic"":""8"",""num_scrambled_causal"":""4"",""num_scrambled_schematic"":""4"",""participantId"":""294C5AD37DFB4BDF93BB75FBAFE3F5C9"",""assignmentId"":""8f002781-2b45-4359-9b6f-849223e33505"",""projectId"":""03d12dc6-79b3-42a5-88c2-9b18a9e5f1ee""}","https://test12345.live/?num_scrambled_semantic=8&num_scrambled_causal=4&num_scrambled_schematic=4&participantId=294C5AD37DFB4BDF93BB75FBAFE3F5C9&assignmentId=8f002781-2b45-4359-9b6f-849223e33505&projectId=03d12dc6-79b3-42a5-88c2-9b18a9e5f1ee","294C5AD37DFB4BDF93BB75FBAFE3F5C9-2025-05-15-15-45-49","","1083","","images/instructions/movie_3.png","0","",""
"","","","","","image-button-response","17","340763","0.0-6.0-1.0-2.2","294C5AD37DFB4BDF93BB75FBAFE3F5C9","294C5AD37DFB4BDF93BB75FBAFE3F5C9","8f002781-2b45-4359-9b6f-849223e33505","03d12dc6-79b3-42a5-88c2-9b18a9e5f1ee","{""num_scrambled_semantic"":""8"",""num_scrambled_causal"":""4"",""num_scrambled_schematic"":""4"",""participantId"":""294C5AD37DFB4BDF93BB75FBAFE3F5C9"",""assignmentId"":""8f002781-2b45-4359-9b6f-849223e33505"",""projectId"":""03d12dc6-79b3-42a5-88c2-9b18a9e5f1ee""}","https://test12345.live/?num_scrambled_semantic=8&num_scrambled_causal=4&num_scrambled_schematic=4&participantId=294C5AD37DFB4BDF93BB75FBAFE3F5C9&assignmentId=8f002781-2b45-4359-9b6f-849223e33505&projectId=03d12dc6-79b3-42a5-88c2-9b18a9e5f1ee","294C5AD37DFB4BDF93BB75FBAFE3F5C9-2025-05-15-15-45-49","","null","","[]","null","",""
"","","","","","image-button-response","18","345271","0.0-6.0-1.0-0.3","294C5AD37DFB4BDF93BB75FBAFE3F5C9","294C5AD37DFB4BDF93BB75FBAFE3F5C9","8f002781-2b45-4359-9b6f-849223e33505","03d12dc6-79b3-42a5-88c2-9b18a9e5f1ee","{""num_scrambled_semantic"":""8"",""num_scrambled_causal"":""4"",""num_scrambled_schematic"":""4"",""participantId"":""294C5AD37DFB4BDF93BB75FBAFE3F5C9"",""assignmentId"":""8f002781-2b45-4359-9b6f-849223e33505"",""projectId"":""03d12dc6-79b3-42a5-88c2-9b18a9e5f1ee""}","https://test12345.live/?num_scrambled_semantic=8&num_scrambled_causal=4&num_scrambled_schematic=4&participantId=294C5AD37DFB4BDF93BB75FBAFE3F5C9&assignmentId=8f002781-2b45-4359-9b6f-849223e33505&projectId=03d12dc6-79b3-42a5-88c2-9b18a9e5f1ee","294C5AD37DFB4BDF93BB75FBAFE3F5C9-2025-05-15-15-45-49","","null","","images/instructions/movie_4.png","null","",""
"","","","","","image-button-response","19","346408","0.0-6.0-1.0-1.3","294C5AD37DFB4BDF93BB75FBAFE3F5C9","294C5AD37DFB4BDF93BB75FBAFE3F5C9","8f002781-2b45-4359-9b6f-849223e33505","03d12dc6-79b3-42a5-88c2-9b18a9e5f1ee","{""num_scrambled_semantic"":""8"",""num_scrambled_causal"":""4"",""num_scrambled_schematic"":""4"",""participantId"":""294C5AD37DFB4BDF93BB75FBAFE3F5C9"",""assignmentId"":""8f002781-2b45-4359-9b6f-849223e33505"",""projectId"":""03d12dc6-79b3-42a5-88c2-9b18a9e5f1ee""}","https://test12345.live/?num_scrambled_semantic=8&num_scrambled_causal=4&num_scrambled_schematic=4&participantId=294C5AD37DFB4BDF93BB75FBAFE3F5C9&assignmentId=8f002781-2b45-4359-9b6f-849223e33505&projectId=03d12dc6-79b3-42a5-88c2-9b18a9e5f1ee","294C5AD37DFB4BDF93BB75FBAFE3F5C9-2025-05-15-15-45-49","","1134","","images/instructions/movie_4.png","0","",""
"","","","","","image-button-response","20","348214","0.0-6.0-1.0-2.3","294C5AD37DFB4BDF93BB75FBAFE3F5C9","294C5AD37DFB4BDF93BB75FBAFE3F5C9","8f002781-2b45-4359-9b6f-849223e33505","03d12dc6-79b3-42a5-88c2-9b18a9e5f1ee","{""num_scrambled_semantic"":""8"",""num_scrambled_causal"":""4"",""num_scrambled_schematic"":""4"",""participantId"":""294C5AD37DFB4BDF93BB75FBAFE3F5C9"",""assignmentId"":""8f002781-2b45-4359-9b6f-849223e33505"",""projectId"":""03d12dc6-79b3-42a5-88c2-9b18a9e5f1ee""}","https://test12345.live/?num_scrambled_semantic=8&num_scrambled_causal=4&num_scrambled_schematic=4&participantId=294C5AD37DFB4BDF93BB75FBAFE3F5C9&assignmentId=8f002781-2b45-4359-9b6f-849223e33505&projectId=03d12dc6-79b3-42a5-88c2-9b18a9e5f1ee","294C5AD37DFB4BDF93BB75FBAFE3F5C9-2025-05-15-15-45-49","","null","","[]","null","",""
"","","","","","instructions","21","356465","0.0-7.0","294C5AD37DFB4BDF93BB75FBAFE3F5C9","294C5AD37DFB4BDF93BB75FBAFE3F5C9","8f002781-2b45-4359-9b6f-849223e33505","03d12dc6-79b3-42a5-88c2-9b18a9e5f1ee","{""num_scrambled_semantic"":""8"",""num_scrambled_causal"":""4"",""num_scrambled_schematic"":""4"",""participantId"":""294C5AD37DFB4BDF93BB75FBAFE3F5C9"",""assignmentId"":""8f002781-2b45-4359-9b6f-849223e33505"",""projectId"":""03d12dc6-79b3-42a5-88c2-9b18a9e5f1ee""}","https://test12345.live/?num_scrambled_semantic=8&num_scrambled_causal=4&num_scrambled_schematic=4&participantId=294C5AD37DFB4BDF93BB75FBAFE3F5C9&assignmentId=8f002781-2b45-4359-9b6f-849223e33505&projectId=03d12dc6-79b3-42a5-88c2-9b18a9e5f1ee","294C5AD37DFB4BDF93BB75FBAFE3F5C9-2025-05-15-15-45-49","[{""page_index"":0,""viewing_time"":6838},{""page_index"":1,""viewing_time"":1412}]","8250","","","","",""
"","","","","","html-audio-response","22","396550","0.0-8.0","294C5AD37DFB4BDF93BB75FBAFE3F5C9","294C5AD37DFB4BDF93BB75FBAFE3F5C9","8f002781-2b45-4359-9b6f-849223e33505","03d12dc6-79b3-42a5-88c2-9b18a9e5f1ee","{""num_scrambled_semantic"":""8"",""num_scrambled_causal"":""4"",""num_scrambled_schematic"":""4"",""participantId"":""294C5AD37DFB4BDF93BB75FBAFE3F5C9"",""assignmentId"":""8f002781-2b45-4359-9b6f-849223e33505"",""projectId"":""03d12dc6-79b3-42a5-88c2-9b18a9e5f1ee""}","https://test12345.live/?num_scrambled_semantic=8&num_scrambled_causal=4&num_scrambled_schematic=4&participantId=294C5AD37DFB4BDF93BB75FBAFE3F5C9&assignmentId=8f002781-2b45-4359-9b6f-849223e33505&projectId=03d12dc6-79b3-42a5-88c2-9b18a9e5f1ee","294C5AD37DFB4BDF93BB75FBAFE3F5C9-2025-05-15-15-45-49","","18640","","[""<span style=\""color: red; font-size: 24px\""> NOW RECORDING</span><p>Please say out loud all the images you saw, as many as you can remember. The images can be said in any order.</p>""]","","2",""
"","","","","","instructions","23","398074","0.0-9.0","294C5AD37DFB4BDF93BB75FBAFE3F5C9","294C5AD37DFB4BDF93BB75FBAFE3F5C9","8f002781-2b45-4359-9b6f-849223e33505","03d12dc6-79b3-42a5-88c2-9b18a9e5f1ee","{""num_scrambled_semantic"":""8"",""num_scrambled_causal"":""4"",""num_scrambled_schematic"":""4"",""participantId"":""294C5AD37DFB4BDF93BB75FBAFE3F5C9"",""assignmentId"":""8f002781-2b45-4359-9b6f-849223e33505"",""projectId"":""03d12dc6-79b3-42a5-88c2-9b18a9e5f1ee""}","https://test12345.live/?num_scrambled_semantic=8&num_scrambled_causal=4&num_scrambled_schematic=4&participantId=294C5AD37DFB4BDF93BB75FBAFE3F5C9&assignmentId=8f002781-2b45-4359-9b6f-849223e33505&projectId=03d12dc6-79b3-42a5-88c2-9b18a9e5f1ee","294C5AD37DFB4BDF93BB75FBAFE3F5C9-2025-05-15-15-45-49","[{""page_index"":0,""viewing_time"":1513}]","1514","","","","",""
"","","","","","image-button-response","24","404080","0.0-10.0-0.0","294C5AD37DFB4BDF93BB75FBAFE3F5C9","294C5AD37DFB4BDF93BB75FBAFE3F5C9","8f002781-2b45-4359-9b6f-849223e33505","03d12dc6-79b3-42a5-88c2-9b18a9e5f1ee","{""num_scrambled_semantic"":""8"",""num_scrambled_causal"":""4"",""num_scrambled_schematic"":""4"",""participantId"":""294C5AD37DFB4BDF93BB75FBAFE3F5C9"",""assignmentId"":""8f002781-2b45-4359-9b6f-849223e33505"",""projectId"":""03d12dc6-79b3-42a5-88c2-9b18a9e5f1ee""}","https://test12345.live/?num_scrambled_semantic=8&num_scrambled_causal=4&num_scrambled_schematic=4&participantId=294C5AD37DFB4BDF93BB75FBAFE3F5C9&assignmentId=8f002781-2b45-4359-9b6f-849223e33505&projectId=03d12dc6-79b3-42a5-88c2-9b18a9e5f1ee","294C5AD37DFB4BDF93BB75FBAFE3F5C9-2025-05-15-15-45-49","","null","","images/semantic_sequence/maintaining_a_car_semantic/maintaining_a_car_semantic_0.png","null","",""
"","","","","","image-button-response","25","408585","0.0-10.0-1.0-0.0","294C5AD37DFB4BDF93BB75FBAFE3F5C9","294C5AD37DFB4BDF93BB75FBAFE3F5C9","8f002781-2b45-4359-9b6f-849223e33505","03d12dc6-79b3-42a5-88c2-9b18a9e5f1ee","{""num_scrambled_semantic"":""8"",""num_scrambled_causal"":""4"",""num_scrambled_schematic"":""4"",""participantId"":""294C5AD37DFB4BDF93BB75FBAFE3F5C9"",""assignmentId"":""8f002781-2b45-4359-9b6f-849223e33505"",""projectId"":""03d12dc6-79b3-42a5-88c2-9b18a9e5f1ee""}","https://test12345.live/?num_scrambled_semantic=8&num_scrambled_causal=4&num_scrambled_schematic=4&participantId=294C5AD37DFB4BDF93BB75FBAFE3F5C9&assignmentId=8f002781-2b45-4359-9b6f-849223e33505&projectId=03d12dc6-79b3-42a5-88c2-9b18a9e5f1ee","294C5AD37DFB4BDF93BB75FBAFE3F5C9-2025-05-15-15-45-49","","null","","images/semantic_sequence/maintaining_a_car_semantic/maintaining_a_car_semantic_2.png","null","",""
"","","","","","image-button-response","26","410631","0.0-10.0-1.0-1.0","294C5AD37DFB4BDF93BB75FBAFE3F5C9","294C5AD37DFB4BDF93BB75FBAFE3F5C9","8f002781-2b45-4359-9b6f-849223e33505","03d12dc6-79b3-42a5-88c2-9b18a9e5f1ee","{""num_scrambled_semantic"":""8"",""num_scrambled_causal"":""4"",""num_scrambled_schematic"":""4"",""participantId"":""294C5AD37DFB4BDF93BB75FBAFE3F5C9"",""assignmentId"":""8f002781-2b45-4359-9b6f-849223e33505"",""projectId"":""03d12dc6-79b3-42a5-88c2-9b18a9e5f1ee""}","https://test12345.live/?num_scrambled_semantic=8&num_scrambled_causal=4&num_scrambled_schematic=4&participantId=294C5AD37DFB4BDF93BB75FBAFE3F5C9&assignmentId=8f002781-2b45-4359-9b6f-849223e33505&projectId=03d12dc6-79b3-42a5-88c2-9b18a9e5f1ee","294C5AD37DFB4BDF93BB75FBAFE3F5C9-2025-05-15-15-45-49","","2044","","images/semantic_sequence/maintaining_a_car_semantic/maintaining_a_car_semantic_2.png","0","",""
"","","","","","image-button-response","27","412435","0.0-10.0-1.0-2.0","294C5AD37DFB4BDF93BB75FBAFE3F5C9","294C5AD37DFB4BDF93BB75FBAFE3F5C9","8f002781-2b45-4359-9b6f-849223e33505","03d12dc6-79b3-42a5-88c2-9b18a9e5f1ee","{""num_scrambled_semantic"":""8"",""num_scrambled_causal"":""4"",""num_scrambled_schematic"":""4"",""participantId"":""294C5AD37DFB4BDF93BB75FBAFE3F5C9"",""assignmentId"":""8f002781-2b45-4359-9b6f-849223e33505"",""projectId"":""03d12dc6-79b3-42a5-88c2-9b18a9e5f1ee""}","https://test12345.live/?num_scrambled_semantic=8&num_scrambled_causal=4&num_scrambled_schematic=4&participantId=294C5AD37DFB4BDF93BB75FBAFE3F5C9&assignmentId=8f002781-2b45-4359-9b6f-849223e33505&projectId=03d12dc6-79b3-42a5-88c2-9b18a9e5f1ee","294C5AD37DFB4BDF93BB75FBAFE3F5C9-2025-05-15-15-45-49","","null","","[]","null","",""
"","","","","","image-button-response","28","416942","0.0-10.0-1.0-0.1","294C5AD37DFB4BDF93BB75FBAFE3F5C9","294C5AD37DFB4BDF93BB75FBAFE3F5C9","8f002781-2b45-4359-9b6f-849223e33505","03d12dc6-79b3-42a5-88c2-9b18a9e5f1ee","{""num_scrambled_semantic"":""8"",""num_scrambled_causal"":""4"",""num_scrambled_schematic"":""4"",""participantId"":""294C5AD37DFB4BDF93BB75FBAFE3F5C9"",""assignmentId"":""8f002781-2b45-4359-9b6f-849223e33505"",""projectId"":""03d12dc6-79b3-42a5-88c2-9b18a9e5f1ee""}","https://test12345.live/?num_scrambled_semantic=8&num_scrambled_causal=4&num_scrambled_schematic=4&participantId=294C5AD37DFB4BDF93BB75FBAFE3F5C9&assignmentId=8f002781-2b45-4359-9b6f-849223e33505&projectId=03d12dc6-79b3-42a5-88c2-9b18a9e5f1ee","294C5AD37DFB4BDF93BB75FBAFE3F5C9-2025-05-15-15-45-49","","null","","images/semantic_sequence/maintaining_a_car_semantic/maintaining_a_car_semantic_7.png","null","",""
"","","","","","image-button-response","29","419228","0.0-10.0-1.0-1.1","294C5AD37DFB4BDF93BB75FBAFE3F5C9","294C5AD37DFB4BDF93BB75FBAFE3F5C9","8f002781-2b45-4359-9b6f-849223e33505","03d12dc6-79b3-42a5-88c2-9b18a9e5f1ee","{""num_scrambled_semantic"":""8"",""num_scrambled_causal"":""4"",""num_scrambled_schematic"":""4"",""participantId"":""294C5AD37DFB4BDF93BB75FBAFE3F5C9"",""assignmentId"":""8f002781-2b45-4359-9b6f-849223e33505"",""projectId"":""03d12dc6-79b3-42a5-88c2-9b18a9e5f1ee""}","https://test12345.live/?num_scrambled_semantic=8&num_scrambled_causal=4&num_scrambled_schematic=4&participantId=294C5AD37DFB4BDF93BB75FBAFE3F5C9&assignmentId=8f002781-2b45-4359-9b6f-849223e33505&projectId=03d12dc6-79b3-42a5-88c2-9b18a9e5f1ee","294C5AD37DFB4BDF93BB75FBAFE3F5C9-2025-05-15-15-45-49","","2283","","images/semantic_sequence/maintaining_a_car_semantic/maintaining_a_car_semantic_7.png","0","",""
"","","","","","image-button-response","30","421031","0.0-10.0-1.0-2.1","294C5AD37DFB4BDF93BB75FBAFE3F5C9","294C5AD37DFB4BDF93BB75FBAFE3F5C9","8f002781-2b45-4359-9b6f-849223e33505","03d12dc6-79b3-42a5-88c2-9b18a9e5f1ee","{""num_scrambled_semantic"":""8"",""num_scrambled_causal"":""4"",""num_scrambled_schematic"":""4"",""participantId"":""294C5AD37DFB4BDF93BB75FBAFE3F5C9"",""assignmentId"":""8f002781-2b45-4359-9b6f-849223e33505"",""projectId"":""03d12dc6-79b3-42a5-88c2-9b18a9e5f1ee""}","https://test12345.live/?num_scrambled_semantic=8&num_scrambled_causal=4&num_scrambled_schematic=4&participantId=294C5AD37DFB4BDF93BB75FBAFE3F5C9&assignmentId=8f002781-2b45-4359-9b6f-849223e33505&projectId=03d12dc6-79b3-42a5-88c2-9b18a9e5f1ee","294C5AD37DFB4BDF93BB75FBAFE3F5C9-2025-05-15-15-45-49","","null","","[]","null","",""
"","","","","","image-button-response","31","425536","0.0-10.0-1.0-0.2","294C5AD37DFB4BDF93BB75FBAFE3F5C9","294C5AD37DFB4BDF93BB75FBAFE3F5C9","8f002781-2b45-4359-9b6f-849223e33505","03d12dc6-79b3-42a5-88c2-9b18a9e5f1ee","{""num_scrambled_semantic"":""8"",""num_scrambled_causal"":""4"",""num_scrambled_schematic"":""4"",""participantId"":""294C5AD37DFB4BDF93BB75FBAFE3F5C9"",""assignmentId"":""8f002781-2b45-4359-9b6f-849223e33505"",""projectId"":""03d12dc6-79b3-42a5-88c2-9b18a9e5f1ee""}","https://test12345.live/?num_scrambled_semantic=8&num_scrambled_causal=4&num_scrambled_schematic=4&participantId=294C5AD37DFB4BDF93BB75FBAFE3F5C9&assignmentId=8f002781-2b45-4359-9b6f-849223e33505&projectId=03d12dc6-79b3-42a5-88c2-9b18a9e5f1ee","294C5AD37DFB4BDF93BB75FBAFE3F5C9-2025-05-15-15-45-49","","null","","images/semantic_sequence/maintaining_a_car_semantic/maintaining_a_car_semantic_8.png","null","",""
"","","","","","image-button-response","32","426911","0.0-10.0-1.0-1.2","294C5AD37DFB4BDF93BB75FBAFE3F5C9","294C5AD37DFB4BDF93BB75FBAFE3F5C9","8f002781-2b45-4359-9b6f-849223e33505","03d12dc6-79b3-42a5-88c2-9b18a9e5f1ee","{""num_scrambled_semantic"":""8"",""num_scrambled_causal"":""4"",""num_scrambled_schematic"":""4"",""participantId"":""294C5AD37DFB4BDF93BB75FBAFE3F5C9"",""assignmentId"":""8f002781-2b45-4359-9b6f-849223e33505"",""projectId"":""03d12dc6-79b3-42a5-88c2-9b18a9e5f1ee""}","https://test12345.live/?num_scrambled_semantic=8&num_scrambled_causal=4&num_scrambled_schematic=4&participantId=294C5AD37DFB4BDF93BB75FBAFE3F5C9&assignmentId=8f002781-2b45-4359-9b6f-849223e33505&projectId=03d12dc6-79b3-42a5-88c2-9b18a9e5f1ee","294C5AD37DFB4BDF93BB75FBAFE3F5C9-2025-05-15-15-45-49","","1374","","images/semantic_sequence/maintaining_a_car_semantic/maintaining_a_car_semantic_8.png","0","",""
"","","","","","image-button-response","33","428715","0.0-10.0-1.0-2.2","294C5AD37DFB4BDF93BB75FBAFE3F5C9","294C5AD37DFB4BDF93BB75FBAFE3F5C9","8f002781-2b45-4359-9b6f-849223e33505","03d12dc6-79b3-42a5-88c2-9b18a9e5f1ee","{""num_scrambled_semantic"":""8"",""num_scrambled_causal"":""4"",""num_scrambled_schematic"":""4"",""participantId"":""294C5AD37DFB4BDF93BB75FBAFE3F5C9"",""assignmentId"":""8f002781-2b45-4359-9b6f-849223e33505"",""projectId"":""03d12dc6-79b3-42a5-88c2-9b18a9e5f1ee""}","https://test12345.live/?num_scrambled_semantic=8&num_scrambled_causal=4&num_scrambled_schematic=4&participantId=294C5AD37DFB4BDF93BB75FBAFE3F5C9&assignmentId=8f002781-2b45-4359-9b6f-849223e33505&projectId=03d12dc6-79b3-42a5-88c2-9b18a9e5f1ee","294C5AD37DFB4BDF93BB75FBAFE3F5C9-2025-05-15-15-45-49","","null","","[]","null","",""
"","","","","","image-button-response","34","433222","0.0-10.0-1.0-0.3","294C5AD37DFB4BDF93BB75FBAFE3F5C9","294C5AD37DFB4BDF93BB75FBAFE3F5C9","8f002781-2b45-4359-9b6f-849223e33505","03d12dc6-79b3-42a5-88c2-9b18a9e5f1ee","{""num_scrambled_semantic"":""8"",""num_scrambled_causal"":""4"",""num_scrambled_schematic"":""4"",""participantId"":""294C5AD37DFB4BDF93BB75FBAFE3F5C9"",""assignmentId"":""8f002781-2b45-4359-9b6f-849223e33505"",""projectId"":""03d12dc6-79b3-42a5-88c2-9b18a9e5f1ee""}","https://test12345.live/?num_scrambled_semantic=8&num_scrambled_causal=4&num_scrambled_schematic=4&participantId=294C5AD37DFB4BDF93BB75FBAFE3F5C9&assignmentId=8f002781-2b45-4359-9b6f-849223e33505&projectId=03d12dc6-79b3-42a5-88c2-9b18a9e5f1ee","294C5AD37DFB4BDF93BB75FBAFE3F5C9-2025-05-15-15-45-49","","null","","images/semantic_sequence/maintaining_a_car_semantic/maintaining_a_car_semantic_4.png","null","",""
"","","","","","image-button-response","35","434308","0.0-10.0-1.0-1.3","294C5AD37DFB4BDF93BB75FBAFE3F5C9","294C5AD37DFB4BDF93BB75FBAFE3F5C9","8f002781-2b45-4359-9b6f-849223e33505","03d12dc6-79b3-42a5-88c2-9b18a9e5f1ee","{""num_scrambled_semantic"":""8"",""num_scrambled_causal"":""4"",""num_scrambled_schematic"":""4"",""participantId"":""294C5AD37DFB4BDF93BB75FBAFE3F5C9"",""assignmentId"":""8f002781-2b45-4359-9b6f-849223e33505"",""projectId"":""03d12dc6-79b3-42a5-88c2-9b18a9e5f1ee""}","https://test12345.live/?num_scrambled_semantic=8&num_scrambled_causal=4&num_scrambled_schematic=4&participantId=294C5AD37DFB4BDF93BB75FBAFE3F5C9&assignmentId=8f002781-2b45-4359-9b6f-849223e33505&projectId=03d12dc6-79b3-42a5-88c2-9b18a9e5f1ee","294C5AD37DFB4BDF93BB75FBAFE3F5C9-2025-05-15-15-45-49","","1084","","images/semantic_sequence/maintaining_a_car_semantic/maintaining_a_car_semantic_4.png","0","",""
"","","","","","image-button-response","36","436116","0.0-10.0-1.0-2.3","294C5AD37DFB4BDF93BB75FBAFE3F5C9","294C5AD37DFB4BDF93BB75FBAFE3F5C9","8f002781-2b45-4359-9b6f-849223e33505","03d12dc6-79b3-42a5-88c2-9b18a9e5f1ee","{""num_scrambled_semantic"":""8"",""num_scrambled_causal"":""4"",""num_scrambled_schematic"":""4"",""participantId"":""294C5AD37DFB4BDF93BB75FBAFE3F5C9"",""assignmentId"":""8f002781-2b45-4359-9b6f-849223e33505"",""projectId"":""03d12dc6-79b3-42a5-88c2-9b18a9e5f1ee""}","https://test12345.live/?num_scrambled_semantic=8&num_scrambled_causal=4&num_scrambled_schematic=4&participantId=294C5AD37DFB4BDF93BB75FBAFE3F5C9&assignmentId=8f002781-2b45-4359-9b6f-849223e33505&projectId=03d12dc6-79b3-42a5-88c2-9b18a9e5f1ee","294C5AD37DFB4BDF93BB75FBAFE3F5C9-2025-05-15-15-45-49","","null","","[]","null","",""
"","","","","","image-button-response","37","440624","0.0-10.0-1.0-0.4","294C5AD37DFB4BDF93BB75FBAFE3F5C9","294C5AD37DFB4BDF93BB75FBAFE3F5C9","8f002781-2b45-4359-9b6f-849223e33505","03d12dc6-79b3-42a5-88c2-9b18a9e5f1ee","{""num_scrambled_semantic"":""8"",""num_scrambled_causal"":""4"",""num_scrambled_schematic"":""4"",""participantId"":""294C5AD37DFB4BDF93BB75FBAFE3F5C9"",""assignmentId"":""8f002781-2b45-4359-9b6f-849223e33505"",""projectId"":""03d12dc6-79b3-42a5-88c2-9b18a9e5f1ee""}","https://test12345.live/?num_scrambled_semantic=8&num_scrambled_causal=4&num_scrambled_schematic=4&participantId=294C5AD37DFB4BDF93BB75FBAFE3F5C9&assignmentId=8f002781-2b45-4359-9b6f-849223e33505&projectId=03d12dc6-79b3-42a5-88c2-9b18a9e5f1ee","294C5AD37DFB4BDF93BB75FBAFE3F5C9-2025-05-15-15-45-49","","null","","images/semantic_sequence/maintaining_a_car_semantic/maintaining_a_car_semantic_ten.png","null","",""
"","","","","","image-button-response","38","441906","0.0-10.0-1.0-1.4","294C5AD37DFB4BDF93BB75FBAFE3F5C9","294C5AD37DFB4BDF93BB75FBAFE3F5C9","8f002781-2b45-4359-9b6f-849223e33505","03d12dc6-79b3-42a5-88c2-9b18a9e5f1ee","{""num_scrambled_semantic"":""8"",""num_scrambled_causal"":""4"",""num_scrambled_schematic"":""4"",""participantId"":""294C5AD37DFB4BDF93BB75FBAFE3F5C9"",""assignmentId"":""8f002781-2b45-4359-9b6f-849223e33505"",""projectId"":""03d12dc6-79b3-42a5-88c2-9b18a9e5f1ee""}","https://test12345.live/?num_scrambled_semantic=8&num_scrambled_causal=4&num_scrambled_schematic=4&participantId=294C5AD37DFB4BDF93BB75FBAFE3F5C9&assignmentId=8f002781-2b45-4359-9b6f-849223e33505&projectId=03d12dc6-79b3-42a5-88c2-9b18a9e5f1ee","294C5AD37DFB4BDF93BB75FBAFE3F5C9-2025-05-15-15-45-49","","1279","","images/semantic_sequence/maintaining_a_car_semantic/maintaining_a_car_semantic_ten.png","0","",""
"","","","","","image-button-response","39","443712","0.0-10.0-1.0-2.4","294C5AD37DFB4BDF93BB75FBAFE3F5C9","294C5AD37DFB4BDF93BB75FBAFE3F5C9","8f002781-2b45-4359-9b6f-849223e33505","03d12dc6-79b3-42a5-88c2-9b18a9e5f1ee","{""num_scrambled_semantic"":""8"",""num_scrambled_causal"":""4"",""num_scrambled_schematic"":""4"",""participantId"":""294C5AD37DFB4BDF93BB75FBAFE3F5C9"",""assignmentId"":""8f002781-2b45-4359-9b6f-849223e33505"",""projectId"":""03d12dc6-79b3-42a5-88c2-9b18a9e5f1ee""}","https://test12345.live/?num_scrambled_semantic=8&num_scrambled_causal=4&num_scrambled_schematic=4&participantId=294C5AD37DFB4BDF93BB75FBAFE3F5C9&assignmentId=8f002781-2b45-4359-9b6f-849223e33505&projectId=03d12dc6-79b3-42a5-88c2-9b18a9e5f1ee","294C5AD37DFB4BDF93BB75FBAFE3F5C9-2025-05-15-15-45-49","","null","","[]","null","",""
"","","","","","image-button-response","40","448216","0.0-10.0-1.0-0.5","294C5AD37DFB4BDF93BB75FBAFE3F5C9","294C5AD37DFB4BDF93BB75FBAFE3F5C9","8f002781-2b45-4359-9b6f-849223e33505","03d12dc6-79b3-42a5-88c2-9b18a9e5f1ee","{""num_scrambled_semantic"":""8"",""num_scrambled_causal"":""4"",""num_scrambled_schematic"":""4"",""participantId"":""294C5AD37DFB4BDF93BB75FBAFE3F5C9"",""assignmentId"":""8f002781-2b45-4359-9b6f-849223e33505"",""projectId"":""03d12dc6-79b3-42a5-88c2-9b18a9e5f1ee""}","https://test12345.live/?num_scrambled_semantic=8&num_scrambled_causal=4&num_scrambled_schematic=4&participantId=294C5AD37DFB4BDF93BB75FBAFE3F5C9&assignmentId=8f002781-2b45-4359-9b6f-849223e33505&projectId=03d12dc6-79b3-42a5-88c2-9b18a9e5f1ee","294C5AD37DFB4BDF93BB75FBAFE3F5C9-2025-05-15-15-45-49","","null","","images/semantic_sequence/maintaining_a_car_semantic/maintaining_a_car_semantic_5.png","null","",""
"","","","","","image-button-response","41","449184","0.0-10.0-1.0-1.5","294C5AD37DFB4BDF93BB75FBAFE3F5C9","294C5AD37DFB4BDF93BB75FBAFE3F5C9","8f002781-2b45-4359-9b6f-849223e33505","03d12dc6-79b3-42a5-88c2-9b18a9e5f1ee","{""num_scrambled_semantic"":""8"",""num_scrambled_causal"":""4"",""num_scrambled_schematic"":""4"",""participantId"":""294C5AD37DFB4BDF93BB75FBAFE3F5C9"",""assignmentId"":""8f002781-2b45-4359-9b6f-849223e33505"",""projectId"":""03d12dc6-79b3-42a5-88c2-9b18a9e5f1ee""}","https://test12345.live/?num_scrambled_semantic=8&num_scrambled_causal=4&num_scrambled_schematic=4&participantId=294C5AD37DFB4BDF93BB75FBAFE3F5C9&assignmentId=8f002781-2b45-4359-9b6f-849223e33505&projectId=03d12dc6-79b3-42a5-88c2-9b18a9e5f1ee","294C5AD37DFB4BDF93BB75FBAFE3F5C9-2025-05-15-15-45-49","","966","","images/semantic_sequence/maintaining_a_car_semantic/maintaining_a_car_semantic_5.png","0","",""
"","","","","","image-button-response","42","450990","0.0-10.0-1.0-2.5","294C5AD37DFB4BDF93BB75FBAFE3F5C9","294C5AD37DFB4BDF93BB75FBAFE3F5C9","8f002781-2b45-4359-9b6f-849223e33505","03d12dc6-79b3-42a5-88c2-9b18a9e5f1ee","{""num_scrambled_semantic"":""8"",""num_scrambled_causal"":""4"",""num_scrambled_schematic"":""4"",""participantId"":""294C5AD37DFB4BDF93BB75FBAFE3F5C9"",""assignmentId"":""8f002781-2b45-4359-9b6f-849223e33505"",""projectId"":""03d12dc6-79b3-42a5-88c2-9b18a9e5f1ee""}","https://test12345.live/?num_scrambled_semantic=8&num_scrambled_causal=4&num_scrambled_schematic=4&participantId=294C5AD37DFB4BDF93BB75FBAFE3F5C9&assignmentId=8f002781-2b45-4359-9b6f-849223e33505&projectId=03d12dc6-79b3-42a5-88c2-9b18a9e5f1ee","294C5AD37DFB4BDF93BB75FBAFE3F5C9-2025-05-15-15-45-49","","null","","[]","null","",""
"","","","","","image-button-response","43","455496","0.0-10.0-1.0-0.6","294C5AD37DFB4BDF93BB75FBAFE3F5C9","294C5AD37DFB4BDF93BB75FBAFE3F5C9","8f002781-2b45-4359-9b6f-849223e33505","03d12dc6-79b3-42a5-88c2-9b18a9e5f1ee","{""num_scrambled_semantic"":""8"",""num_scrambled_causal"":""4"",""num_scrambled_schematic"":""4"",""participantId"":""294C5AD37DFB4BDF93BB75FBAFE3F5C9"",""assignmentId"":""8f002781-2b45-4359-9b6f-849223e33505"",""projectId"":""03d12dc6-79b3-42a5-88c2-9b18a9e5f1ee""}","https://test12345.live/?num_scrambled_semantic=8&num_scrambled_causal=4&num_scrambled_schematic=4&participantId=294C5AD37DFB4BDF93BB75FBAFE3F5C9&assignmentId=8f002781-2b45-4359-9b6f-849223e33505&projectId=03d12dc6-79b3-42a5-88c2-9b18a9e5f1ee","294C5AD37DFB4BDF93BB75FBAFE3F5C9-2025-05-15-15-45-49","","null","","images/semantic_sequence/maintaining_a_car_semantic/maintaining_a_car_semantic_3.png","null","",""
"","","","","","image-button-response","44","456648","0.0-10.0-1.0-1.6","294C5AD37DFB4BDF93BB75FBAFE3F5C9","294C5AD37DFB4BDF93BB75FBAFE3F5C9","8f002781-2b45-4359-9b6f-849223e33505","03d12dc6-79b3-42a5-88c2-9b18a9e5f1ee","{""num_scrambled_semantic"":""8"",""num_scrambled_causal"":""4"",""num_scrambled_schematic"":""4"",""participantId"":""294C5AD37DFB4BDF93BB75FBAFE3F5C9"",""assignmentId"":""8f002781-2b45-4359-9b6f-849223e33505"",""projectId"":""03d12dc6-79b3-42a5-88c2-9b18a9e5f1ee""}","https://test12345.live/?num_scrambled_semantic=8&num_scrambled_causal=4&num_scrambled_schematic=4&participantId=294C5AD37DFB4BDF93BB75FBAFE3F5C9&assignmentId=8f002781-2b45-4359-9b6f-849223e33505&projectId=03d12dc6-79b3-42a5-88c2-9b18a9e5f1ee","294C5AD37DFB4BDF93BB75FBAFE3F5C9-2025-05-15-15-45-49","","1150","","images/semantic_sequence/maintaining_a_car_semantic/maintaining_a_car_semantic_3.png","0","",""
"","","","","","image-button-response","45","458455","0.0-10.0-1.0-2.6","294C5AD37DFB4BDF93BB75FBAFE3F5C9","294C5AD37DFB4BDF93BB75FBAFE3F5C9","8f002781-2b45-4359-9b6f-849223e33505","03d12dc6-79b3-42a5-88c2-9b18a9e5f1ee","{""num_scrambled_semantic"":""8"",""num_scrambled_causal"":""4"",""num_scrambled_schematic"":""4"",""participantId"":""294C5AD37DFB4BDF93BB75FBAFE3F5C9"",""assignmentId"":""8f002781-2b45-4359-9b6f-849223e33505"",""projectId"":""03d12dc6-79b3-42a5-88c2-9b18a9e5f1ee""}","https://test12345.live/?num_scrambled_semantic=8&num_scrambled_causal=4&num_scrambled_schematic=4&participantId=294C5AD37DFB4BDF93BB75FBAFE3F5C9&assignmentId=8f002781-2b45-4359-9b6f-849223e33505&projectId=03d12dc6-79b3-42a5-88c2-9b18a9e5f1ee","294C5AD37DFB4BDF93BB75FBAFE3F5C9-2025-05-15-15-45-49","","null","","[]","null","",""
"","","","","","image-button-response","46","462962","0.0-10.0-1.0-0.7","294C5AD37DFB4BDF93BB75FBAFE3F5C9","294C5AD37DFB4BDF93BB75FBAFE3F5C9","8f002781-2b45-4359-9b6f-849223e33505","03d12dc6-79b3-42a5-88c2-9b18a9e5f1ee","{""num_scrambled_semantic"":""8"",""num_scrambled_causal"":""4"",""num_scrambled_schematic"":""4"",""participantId"":""294C5AD37DFB4BDF93BB75FBAFE3F5C9"",""assignmentId"":""8f002781-2b45-4359-9b6f-849223e33505"",""projectId"":""03d12dc6-79b3-42a5-88c2-9b18a9e5f1ee""}","https://test12345.live/?num_scrambled_semantic=8&num_scrambled_causal=4&num_scrambled_schematic=4&participantId=294C5AD37DFB4BDF93BB75FBAFE3F5C9&assignmentId=8f002781-2b45-4359-9b6f-849223e33505&projectId=03d12dc6-79b3-42a5-88c2-9b18a9e5f1ee","294C5AD37DFB4BDF93BB75FBAFE3F5C9-2025-05-15-15-45-49","","null","","images/semantic_sequence/maintaining_a_car_semantic/maintaining_a_car_semantic_1.png","null","",""
"","","","","","image-button-response","47","463770","0.0-10.0-1.0-1.7","294C5AD37DFB4BDF93BB75FBAFE3F5C9","294C5AD37DFB4BDF93BB75FBAFE3F5C9","8f002781-2b45-4359-9b6f-849223e33505","03d12dc6-79b3-42a5-88c2-9b18a9e5f1ee","{""num_scrambled_semantic"":""8"",""num_scrambled_causal"":""4"",""num_scrambled_schematic"":""4"",""participantId"":""294C5AD37DFB4BDF93BB75FBAFE3F5C9"",""assignmentId"":""8f002781-2b45-4359-9b6f-849223e33505"",""projectId"":""03d12dc6-79b3-42a5-88c2-9b18a9e5f1ee""}","https://test12345.live/?num_scrambled_semantic=8&num_scrambled_causal=4&num_scrambled_schematic=4&participantId=294C5AD37DFB4BDF93BB75FBAFE3F5C9&assignmentId=8f002781-2b45-4359-9b6f-849223e33505&projectId=03d12dc6-79b3-42a5-88c2-9b18a9e5f1ee","294C5AD37DFB4BDF93BB75FBAFE3F5C9-2025-05-15-15-45-49","","806","","images/semantic_sequence/maintaining_a_car_semantic/maintaining_a_car_semantic_1.png","0","",""
"","","","","","image-button-response","48","465576","0.0-10.0-1.0-2.7","294C5AD37DFB4BDF93BB75FBAFE3F5C9","294C5AD37DFB4BDF93BB75FBAFE3F5C9","8f002781-2b45-4359-9b6f-849223e33505","03d12dc6-79b3-42a5-88c2-9b18a9e5f1ee","{""num_scrambled_semantic"":""8"",""num_scrambled_causal"":""4"",""num_scrambled_schematic"":""4"",""participantId"":""294C5AD37DFB4BDF93BB75FBAFE3F5C9"",""assignmentId"":""8f002781-2b45-4359-9b6f-849223e33505"",""projectId"":""03d12dc6-79b3-42a5-88c2-9b18a9e5f1ee""}","https://test12345.live/?num_scrambled_semantic=8&num_scrambled_causal=4&num_scrambled_schematic=4&participantId=294C5AD37DFB4BDF93BB75FBAFE3F5C9&assignmentId=8f002781-2b45-4359-9b6f-849223e33505&projectId=03d12dc6-79b3-42a5-88c2-9b18a9e5f1ee","294C5AD37DFB4BDF93BB75FBAFE3F5C9-2025-05-15-15-45-49","","null","","[]","null","",""
"","","","","","image-button-response","49","470085","0.0-10.0-1.0-0.8","294C5AD37DFB4BDF93BB75FBAFE3F5C9","294C5AD37DFB4BDF93BB75FBAFE3F5C9","8f002781-2b45-4359-9b6f-849223e33505","03d12dc6-79b3-42a5-88c2-9b18a9e5f1ee","{""num_scrambled_semantic"":""8"",""num_scrambled_causal"":""4"",""num_scrambled_schematic"":""4"",""participantId"":""294C5AD37DFB4BDF93BB75FBAFE3F5C9"",""assignmentId"":""8f002781-2b45-4359-9b6f-849223e33505"",""projectId"":""03d12dc6-79b3-42a5-88c2-9b18a9e5f1ee""}","https://test12345.live/?num_scrambled_semantic=8&num_scrambled_causal=4&num_scrambled_schematic=4&participantId=294C5AD37DFB4BDF93BB75FBAFE3F5C9&assignmentId=8f002781-2b45-4359-9b6f-849223e33505&projectId=03d12dc6-79b3-42a5-88c2-9b18a9e5f1ee","294C5AD37DFB4BDF93BB75FBAFE3F5C9-2025-05-15-15-45-49","","null","","images/semantic_sequence/maintaining_a_car_semantic/maintaining_a_car_semantic_6.png","null","",""
"","","","","","image-button-response","50","471465","0.0-10.0-1.0-1.8","294C5AD37DFB4BDF93BB75FBAFE3F5C9","294C5AD37DFB4BDF93BB75FBAFE3F5C9","8f002781-2b45-4359-9b6f-849223e33505","03d12dc6-79b3-42a5-88c2-9b18a9e5f1ee","{""num_scrambled_semantic"":""8"",""num_scrambled_causal"":""4"",""num_scrambled_schematic"":""4"",""participantId"":""294C5AD37DFB4BDF93BB75FBAFE3F5C9"",""assignmentId"":""8f002781-2b45-4359-9b6f-849223e33505"",""projectId"":""03d12dc6-79b3-42a5-88c2-9b18a9e5f1ee""}","https://test12345.live/?num_scrambled_semantic=8&num_scrambled_causal=4&num_scrambled_schematic=4&participantId=294C5AD37DFB4BDF93BB75FBAFE3F5C9&assignmentId=8f002781-2b45-4359-9b6f-849223e33505&projectId=03d12dc6-79b3-42a5-88c2-9b18a9e5f1ee","294C5AD37DFB4BDF93BB75FBAFE3F5C9-2025-05-15-15-45-49","","1379","","images/semantic_sequence/maintaining_a_car_semantic/maintaining_a_car_semantic_6.png","0","",""
"","","","","","image-button-response","51","473272","0.0-10.0-1.0-2.8","294C5AD37DFB4BDF93BB75FBAFE3F5C9","294C5AD37DFB4BDF93BB75FBAFE3F5C9","8f002781-2b45-4359-9b6f-849223e33505","03d12dc6-79b3-42a5-88c2-9b18a9e5f1ee","{""num_scrambled_semantic"":""8"",""num_scrambled_causal"":""4"",""num_scrambled_schematic"":""4"",""participantId"":""294C5AD37DFB4BDF93BB75FBAFE3F5C9"",""assignmentId"":""8f002781-2b45-4359-9b6f-849223e33505"",""projectId"":""03d12dc6-79b3-42a5-88c2-9b18a9e5f1ee""}","https://test12345.live/?num_scrambled_semantic=8&num_scrambled_causal=4&num_scrambled_schematic=4&participantId=294C5AD37DFB4BDF93BB75FBAFE3F5C9&assignmentId=8f002781-2b45-4359-9b6f-849223e33505&projectId=03d12dc6-79b3-42a5-88c2-9b18a9e5f1ee","294C5AD37DFB4BDF93BB75FBAFE3F5C9-2025-05-15-15-45-49","","null","","[]","null","",""
"","","","","","image-button-response","52","477775","0.0-10.0-1.0-0.9","294C5AD37DFB4BDF93BB75FBAFE3F5C9","294C5AD37DFB4BDF93BB75FBAFE3F5C9","8f002781-2b45-4359-9b6f-849223e33505","03d12dc6-79b3-42a5-88c2-9b18a9e5f1ee","{""num_scrambled_semantic"":""8"",""num_scrambled_causal"":""4"",""num_scrambled_schematic"":""4"",""participantId"":""294C5AD37DFB4BDF93BB75FBAFE3F5C9"",""assignmentId"":""8f002781-2b45-4359-9b6f-849223e33505"",""projectId"":""03d12dc6-79b3-42a5-88c2-9b18a9e5f1ee""}","https://test12345.live/?num_scrambled_semantic=8&num_scrambled_causal=4&num_scrambled_schematic=4&participantId=294C5AD37DFB4BDF93BB75FBAFE3F5C9&assignmentId=8f002781-2b45-4359-9b6f-849223e33505&projectId=03d12dc6-79b3-42a5-88c2-9b18a9e5f1ee","294C5AD37DFB4BDF93BB75FBAFE3F5C9-2025-05-15-15-45-49","","null","","images/semantic_sequence/maintaining_a_car_semantic/maintaining_a_car_semantic_9.png","null","",""
"","","","","","image-button-response","53","478647","0.0-10.0-1.0-1.9","294C5AD37DFB4BDF93BB75FBAFE3F5C9","294C5AD37DFB4BDF93BB75FBAFE3F5C9","8f002781-2b45-4359-9b6f-849223e33505","03d12dc6-79b3-42a5-88c2-9b18a9e5f1ee","{""num_scrambled_semantic"":""8"",""num_scrambled_causal"":""4"",""num_scrambled_schematic"":""4"",""participantId"":""294C5AD37DFB4BDF93BB75FBAFE3F5C9"",""assignmentId"":""8f002781-2b45-4359-9b6f-849223e33505"",""projectId"":""03d12dc6-79b3-42a5-88c2-9b18a9e5f1ee""}","https://test12345.live/?num_scrambled_semantic=8&num_scrambled_causal=4&num_scrambled_schematic=4&participantId=294C5AD37DFB4BDF93BB75FBAFE3F5C9&assignmentId=8f002781-2b45-4359-9b6f-849223e33505&projectId=03d12dc6-79b3-42a5-88c2-9b18a9e5f1ee","294C5AD37DFB4BDF93BB75FBAFE3F5C9-2025-05-15-15-45-49","","870","","images/semantic_sequence/maintaining_a_car_semantic/maintaining_a_car_semantic_9.png","0","",""
"","","","","","image-button-response","54","480453","0.0-10.0-1.0-2.9","294C5AD37DFB4BDF93BB75FBAFE3F5C9","294C5AD37DFB4BDF93BB75FBAFE3F5C9","8f002781-2b45-4359-9b6f-849223e33505","03d12dc6-79b3-42a5-88c2-9b18a9e5f1ee","{""num_scrambled_semantic"":""8"",""num_scrambled_causal"":""4"",""num_scrambled_schematic"":""4"",""participantId"":""294C5AD37DFB4BDF93BB75FBAFE3F5C9"",""assignmentId"":""8f002781-2b45-4359-9b6f-849223e33505"",""projectId"":""03d12dc6-79b3-42a5-88c2-9b18a9e5f1ee""}","https://test12345.live/?num_scrambled_semantic=8&num_scrambled_causal=4&num_scrambled_schematic=4&participantId=294C5AD37DFB4BDF93BB75FBAFE3F5C9&assignmentId=8f002781-2b45-4359-9b6f-849223e33505&projectId=03d12dc6-79b3-42a5-88c2-9b18a9e5f1ee","294C5AD37DFB4BDF93BB75FBAFE3F5C9-2025-05-15-15-45-49","","null","","[]","null","",""
"","","","","","html-audio-response","55","548859","0.0-11.0","294C5AD37DFB4BDF93BB75FBAFE3F5C9","294C5AD37DFB4BDF93BB75FBAFE3F5C9","8f002781-2b45-4359-9b6f-849223e33505","03d12dc6-79b3-42a5-88c2-9b18a9e5f1ee","{""num_scrambled_semantic"":""8"",""num_scrambled_causal"":""4"",""num_scrambled_schematic"":""4"",""participantId"":""294C5AD37DFB4BDF93BB75FBAFE3F5C9"",""assignmentId"":""8f002781-2b45-4359-9b6f-849223e33505"",""projectId"":""03d12dc6-79b3-42a5-88c2-9b18a9e5f1ee""}","https://test12345.live/?num_scrambled_semantic=8&num_scrambled_causal=4&num_scrambled_schematic=4&participantId=294C5AD37DFB4BDF93BB75FBAFE3F5C9&assignmentId=8f002781-2b45-4359-9b6f-849223e33505&projectId=03d12dc6-79b3-42a5-88c2-9b18a9e5f1ee","294C5AD37DFB4BDF93BB75FBAFE3F5C9-2025-05-15-15-45-49","","33218","","[""<span style=\""color: red; font-size: 24px\""> NOW RECORDING</span><p>Please say out loud all the images you saw, as many as you can remember. The images can be said in any order.</p>""]","","2","maintaining_a_car_semantic"
"","","","","","image-button-response","56","554879","0.0-12.0-0.0","294C5AD37DFB4BDF93BB75FBAFE3F5C9","294C5AD37DFB4BDF93BB75FBAFE3F5C9","8f002781-2b45-4359-9b6f-849223e33505","03d12dc6-79b3-42a5-88c2-9b18a9e5f1ee","{""num_scrambled_semantic"":""8"",""num_scrambled_causal"":""4"",""num_scrambled_schematic"":""4"",""participantId"":""294C5AD37DFB4BDF93BB75FBAFE3F5C9"",""assignmentId"":""8f002781-2b45-4359-9b6f-849223e33505"",""projectId"":""03d12dc6-79b3-42a5-88c2-9b18a9e5f1ee""}","https://test12345.live/?num_scrambled_semantic=8&num_scrambled_causal=4&num_scrambled_schematic=4&participantId=294C5AD37DFB4BDF93BB75FBAFE3F5C9&assignmentId=8f002781-2b45-4359-9b6f-849223e33505&projectId=03d12dc6-79b3-42a5-88c2-9b18a9e5f1ee","294C5AD37DFB4BDF93BB75FBAFE3F5C9-2025-05-15-15-45-49","","null","","images/semantic_sequence/using_technology_semantic/using_technology_semantic_0.png","null","",""
"","","","","","image-button-response","57","559383","0.0-12.0-1.0-0.0","294C5AD37DFB4BDF93BB75FBAFE3F5C9","294C5AD37DFB4BDF93BB75FBAFE3F5C9","8f002781-2b45-4359-9b6f-849223e33505","03d12dc6-79b3-42a5-88c2-9b18a9e5f1ee","{""num_scrambled_semantic"":""8"",""num_scrambled_causal"":""4"",""num_scrambled_schematic"":""4"",""participantId"":""294C5AD37DFB4BDF93BB75FBAFE3F5C9"",""assignmentId"":""8f002781-2b45-4359-9b6f-849223e33505"",""projectId"":""03d12dc6-79b3-42a5-88c2-9b18a9e5f1ee""}","https://test12345.live/?num_scrambled_semantic=8&num_scrambled_causal=4&num_scrambled_schematic=4&participantId=294C5AD37DFB4BDF93BB75FBAFE3F5C9&assignmentId=8f002781-2b45-4359-9b6f-849223e33505&projectId=03d12dc6-79b3-42a5-88c2-9b18a9e5f1ee","294C5AD37DFB4BDF93BB75FBAFE3F5C9-2025-05-15-15-45-49","","null","","images/semantic_sequence/using_technology_semantic/using_technology_semantic_2.png","null","",""
"","","","","","image-button-response","58","560790","0.0-12.0-1.0-1.0","294C5AD37DFB4BDF93BB75FBAFE3F5C9","294C5AD37DFB4BDF93BB75FBAFE3F5C9","8f002781-2b45-4359-9b6f-849223e33505","03d12dc6-79b3-42a5-88c2-9b18a9e5f1ee","{""num_scrambled_semantic"":""8"",""num_scrambled_causal"":""4"",""num_scrambled_schematic"":""4"",""participantId"":""294C5AD37DFB4BDF93BB75FBAFE3F5C9"",""assignmentId"":""8f002781-2b45-4359-9b6f-849223e33505"",""projectId"":""03d12dc6-79b3-42a5-88c2-9b18a9e5f1ee""}","https://test12345.live/?num_scrambled_semantic=8&num_scrambled_causal=4&num_scrambled_schematic=4&participantId=294C5AD37DFB4BDF93BB75FBAFE3F5C9&assignmentId=8f002781-2b45-4359-9b6f-849223e33505&projectId=03d12dc6-79b3-42a5-88c2-9b18a9e5f1ee","294C5AD37DFB4BDF93BB75FBAFE3F5C9-2025-05-15-15-45-49","","1404","","images/semantic_sequence/using_technology_semantic/using_technology_semantic_2.png","0","",""
"","","","","","image-button-response","59","562593","0.0-12.0-1.0-2.0","294C5AD37DFB4BDF93BB75FBAFE3F5C9","294C5AD37DFB4BDF93BB75FBAFE3F5C9","8f002781-2b45-4359-9b6f-849223e33505","03d12dc6-79b3-42a5-88c2-9b18a9e5f1ee","{""num_scrambled_semantic"":""8"",""num_scrambled_causal"":""4"",""num_scrambled_schematic"":""4"",""participantId"":""294C5AD37DFB4BDF93BB75FBAFE3F5C9"",""assignmentId"":""8f002781-2b45-4359-9b6f-849223e33505"",""projectId"":""03d12dc6-79b3-42a5-88c2-9b18a9e5f1ee""}","https://test12345.live/?num_scrambled_semantic=8&num_scrambled_causal=4&num_scrambled_schematic=4&participantId=294C5AD37DFB4BDF93BB75FBAFE3F5C9&assignmentId=8f002781-2b45-4359-9b6f-849223e33505&projectId=03d12dc6-79b3-42a5-88c2-9b18a9e5f1ee","294C5AD37DFB4BDF93BB75FBAFE3F5C9-2025-05-15-15-45-49","","null","","[]","null","",""
"","","","","","image-button-response","60","567099","0.0-12.0-1.0-0.1","294C5AD37DFB4BDF93BB75FBAFE3F5C9","294C5AD37DFB4BDF93BB75FBAFE3F5C9","8f002781-2b45-4359-9b6f-849223e33505","03d12dc6-79b3-42a5-88c2-9b18a9e5f1ee","{""num_scrambled_semantic"":""8"",""num_scrambled_causal"":""4"",""num_scrambled_schematic"":""4"",""participantId"":""294C5AD37DFB4BDF93BB75FBAFE3F5C9"",""assignmentId"":""8f002781-2b45-4359-9b6f-849223e33505"",""projectId"":""03d12dc6-79b3-42a5-88c2-9b18a9e5f1ee""}","https://test12345.live/?num_scrambled_semantic=8&num_scrambled_causal=4&num_scrambled_schematic=4&participantId=294C5AD37DFB4BDF93BB75FBAFE3F5C9&assignmentId=8f002781-2b45-4359-9b6f-849223e33505&projectId=03d12dc6-79b3-42a5-88c2-9b18a9e5f1ee","294C5AD37DFB4BDF93BB75FBAFE3F5C9-2025-05-15-15-45-49","","null","","images/semantic_sequence/using_technology_semantic/using_technology_semantic_4.png","null","",""
"","","","","","image-button-response","61","567851","0.0-12.0-1.0-1.1","294C5AD37DFB4BDF93BB75FBAFE3F5C9","294C5AD37DFB4BDF93BB75FBAFE3F5C9","8f002781-2b45-4359-9b6f-849223e33505","03d12dc6-79b3-42a5-88c2-9b18a9e5f1ee","{""num_scrambled_semantic"":""8"",""num_scrambled_causal"":""4"",""num_scrambled_schematic"":""4"",""participantId"":""294C5AD37DFB4BDF93BB75FBAFE3F5C9"",""assignmentId"":""8f002781-2b45-4359-9b6f-849223e33505"",""projectId"":""03d12dc6-79b3-42a5-88c2-9b18a9e5f1ee""}","https://test12345.live/?num_scrambled_semantic=8&num_scrambled_causal=4&num_scrambled_schematic=4&participantId=294C5AD37DFB4BDF93BB75FBAFE3F5C9&assignmentId=8f002781-2b45-4359-9b6f-849223e33505&projectId=03d12dc6-79b3-42a5-88c2-9b18a9e5f1ee","294C5AD37DFB4BDF93BB75FBAFE3F5C9-2025-05-15-15-45-49","","750","","images/semantic_sequence/using_technology_semantic/using_technology_semantic_4.png","0","",""
"","","","","","image-button-response","62","569655","0.0-12.0-1.0-2.1","294C5AD37DFB4BDF93BB75FBAFE3F5C9","294C5AD37DFB4BDF93BB75FBAFE3F5C9","8f002781-2b45-4359-9b6f-849223e33505","03d12dc6-79b3-42a5-88c2-9b18a9e5f1ee","{""num_scrambled_semantic"":""8"",""num_scrambled_causal"":""4"",""num_scrambled_schematic"":""4"",""participantId"":""294C5AD37DFB4BDF93BB75FBAFE3F5C9"",""assignmentId"":""8f002781-2b45-4359-9b6f-849223e33505"",""projectId"":""03d12dc6-79b3-42a5-88c2-9b18a9e5f1ee""}","https://test12345.live/?num_scrambled_semantic=8&num_scrambled_causal=4&num_scrambled_schematic=4&participantId=294C5AD37DFB4BDF93BB75FBAFE3F5C9&assignmentId=8f002781-2b45-4359-9b6f-849223e33505&projectId=03d12dc6-79b3-42a5-88c2-9b18a9e5f1ee","294C5AD37DFB4BDF93BB75FBAFE3F5C9-2025-05-15-15-45-49","","null","","[]","null","",""
"","","","","","image-button-response","63","574159","0.0-12.0-1.0-0.2","294C5AD37DFB4BDF93BB75FBAFE3F5C9","294C5AD37DFB4BDF93BB75FBAFE3F5C9","8f002781-2b45-4359-9b6f-849223e33505","03d12dc6-79b3-42a5-88c2-9b18a9e5f1ee","{""num_scrambled_semantic"":""8"",""num_scrambled_causal"":""4"",""num_scrambled_schematic"":""4"",""participantId"":""294C5AD37DFB4BDF93BB75FBAFE3F5C9"",""assignmentId"":""8f002781-2b45-4359-9b6f-849223e33505"",""projectId"":""03d12dc6-79b3-42a5-88c2-9b18a9e5f1ee""}","https://test12345.live/?num_scrambled_semantic=8&num_scrambled_causal=4&num_scrambled_schematic=4&participantId=294C5AD37DFB4BDF93BB75FBAFE3F5C9&assignmentId=8f002781-2b45-4359-9b6f-849223e33505&projectId=03d12dc6-79b3-42a5-88c2-9b18a9e5f1ee","294C5AD37DFB4BDF93BB75FBAFE3F5C9-2025-05-15-15-45-49","","null","","images/semantic_sequence/using_technology_semantic/using_technology_semantic_3.png","null","",""
"","","","","","image-button-response","64","574845","0.0-12.0-1.0-1.2","294C5AD37DFB4BDF93BB75FBAFE3F5C9","294C5AD37DFB4BDF93BB75FBAFE3F5C9","8f002781-2b45-4359-9b6f-849223e33505","03d12dc6-79b3-42a5-88c2-9b18a9e5f1ee","{""num_scrambled_semantic"":""8"",""num_scrambled_causal"":""4"",""num_scrambled_schematic"":""4"",""participantId"":""294C5AD37DFB4BDF93BB75FBAFE3F5C9"",""assignmentId"":""8f002781-2b45-4359-9b6f-849223e33505"",""projectId"":""03d12dc6-79b3-42a5-88c2-9b18a9e5f1ee""}","https://test12345.live/?num_scrambled_semantic=8&num_scrambled_causal=4&num_scrambled_schematic=4&participantId=294C5AD37DFB4BDF93BB75FBAFE3F5C9&assignmentId=8f002781-2b45-4359-9b6f-849223e33505&projectId=03d12dc6-79b3-42a5-88c2-9b18a9e5f1ee","294C5AD37DFB4BDF93BB75FBAFE3F5C9-2025-05-15-15-45-49","","683","","images/semantic_sequence/using_technology_semantic/using_technology_semantic_3.png","0","",""
"","","","","","image-button-response","65","576649","0.0-12.0-1.0-2.2","294C5AD37DFB4BDF93BB75FBAFE3F5C9","294C5AD37DFB4BDF93BB75FBAFE3F5C9","8f002781-2b45-4359-9b6f-849223e33505","03d12dc6-79b3-42a5-88c2-9b18a9e5f1ee","{""num_scrambled_semantic"":""8"",""num_scrambled_causal"":""4"",""num_scrambled_schematic"":""4"",""participantId"":""294C5AD37DFB4BDF93BB75FBAFE3F5C9"",""assignmentId"":""8f002781-2b45-4359-9b6f-849223e33505"",""projectId"":""03d12dc6-79b3-42a5-88c2-9b18a9e5f1ee""}","https://test12345.live/?num_scrambled_semantic=8&num_scrambled_causal=4&num_scrambled_schematic=4&participantId=294C5AD37DFB4BDF93BB75FBAFE3F5C9&assignmentId=8f002781-2b45-4359-9b6f-849223e33505&projectId=03d12dc6-79b3-42a5-88c2-9b18a9e5f1ee","294C5AD37DFB4BDF93BB75FBAFE3F5C9-2025-05-15-15-45-49","","null","","[]","null","",""
"","","","","","image-button-response","66","581153","0.0-12.0-1.0-0.3","294C5AD37DFB4BDF93BB75FBAFE3F5C9","294C5AD37DFB4BDF93BB75FBAFE3F5C9","8f002781-2b45-4359-9b6f-849223e33505","03d12dc6-79b3-42a5-88c2-9b18a9e5f1ee","{""num_scrambled_semantic"":""8"",""num_scrambled_causal"":""4"",""num_scrambled_schematic"":""4"",""participantId"":""294C5AD37DFB4BDF93BB75FBAFE3F5C9"",""assignmentId"":""8f002781-2b45-4359-9b6f-849223e33505"",""projectId"":""03d12dc6-79b3-42a5-88c2-9b18a9e5f1ee""}","https://test12345.live/?num_scrambled_semantic=8&num_scrambled_causal=4&num_scrambled_schematic=4&participantId=294C5AD37DFB4BDF93BB75FBAFE3F5C9&assignmentId=8f002781-2b45-4359-9b6f-849223e33505&projectId=03d12dc6-79b3-42a5-88c2-9b18a9e5f1ee","294C5AD37DFB4BDF93BB75FBAFE3F5C9-2025-05-15-15-45-49","","null","","images/semantic_sequence/using_technology_semantic/using_technology_semantic_7.png","null","",""
"","","","","","image-button-response","67","581837","0.0-12.0-1.0-1.3","294C5AD37DFB4BDF93BB75FBAFE3F5C9","294C5AD37DFB4BDF93BB75FBAFE3F5C9","8f002781-2b45-4359-9b6f-849223e33505","03d12dc6-79b3-42a5-88c2-9b18a9e5f1ee","{""num_scrambled_semantic"":""8"",""num_scrambled_causal"":""4"",""num_scrambled_schematic"":""4"",""participantId"":""294C5AD37DFB4BDF93BB75FBAFE3F5C9"",""assignmentId"":""8f002781-2b45-4359-9b6f-849223e33505"",""projectId"":""03d12dc6-79b3-42a5-88c2-9b18a9e5f1ee""}","https://test12345.live/?num_scrambled_semantic=8&num_scrambled_causal=4&num_scrambled_schematic=4&participantId=294C5AD37DFB4BDF93BB75FBAFE3F5C9&assignmentId=8f002781-2b45-4359-9b6f-849223e33505&projectId=03d12dc6-79b3-42a5-88c2-9b18a9e5f1ee","294C5AD37DFB4BDF93BB75FBAFE3F5C9-2025-05-15-15-45-49","","681","","images/semantic_sequence/using_technology_semantic/using_technology_semantic_7.png","0","",""
"","","","","","image-button-response","68","583639","0.0-12.0-1.0-2.3","294C5AD37DFB4BDF93BB75FBAFE3F5C9","294C5AD37DFB4BDF93BB75FBAFE3F5C9","8f002781-2b45-4359-9b6f-849223e33505","03d12dc6-79b3-42a5-88c2-9b18a9e5f1ee","{""num_scrambled_semantic"":""8"",""num_scrambled_causal"":""4"",""num_scrambled_schematic"":""4"",""participantId"":""294C5AD37DFB4BDF93BB75FBAFE3F5C9"",""assignmentId"":""8f002781-2b45-4359-9b6f-849223e33505"",""projectId"":""03d12dc6-79b3-42a5-88c2-9b18a9e5f1ee""}","https://test12345.live/?num_scrambled_semantic=8&num_scrambled_causal=4&num_scrambled_schematic=4&participantId=294C5AD37DFB4BDF93BB75FBAFE3F5C9&assignmentId=8f002781-2b45-4359-9b6f-849223e33505&projectId=03d12dc6-79b3-42a5-88c2-9b18a9e5f1ee","294C5AD37DFB4BDF93BB75FBAFE3F5C9-2025-05-15-15-45-49","","null","","[]","null","",""
"","","","","","image-button-response","69","588148","0.0-12.0-1.0-0.4","294C5AD37DFB4BDF93BB75FBAFE3F5C9","294C5AD37DFB4BDF93BB75FBAFE3F5C9","8f002781-2b45-4359-9b6f-849223e33505","03d12dc6-79b3-42a5-88c2-9b18a9e5f1ee","{""num_scrambled_semantic"":""8"",""num_scrambled_causal"":""4"",""num_scrambled_schematic"":""4"",""participantId"":""294C5AD37DFB4BDF93BB75FBAFE3F5C9"",""assignmentId"":""8f002781-2b45-4359-9b6f-849223e33505"",""projectId"":""03d12dc6-79b3-42a5-88c2-9b18a9e5f1ee""}","https://test12345.live/?num_scrambled_semantic=8&num_scrambled_causal=4&num_scrambled_schematic=4&participantId=294C5AD37DFB4BDF93BB75FBAFE3F5C9&assignmentId=8f002781-2b45-4359-9b6f-849223e33505&projectId=03d12dc6-79b3-42a5-88c2-9b18a9e5f1ee","294C5AD37DFB4BDF93BB75FBAFE3F5C9-2025-05-15-15-45-49","","null","","images/semantic_sequence/using_technology_semantic/using_technology_semantic_1.png","null","",""
"","","","","","image-button-response","70","588804","0.0-12.0-1.0-1.4","294C5AD37DFB4BDF93BB75FBAFE3F5C9","294C5AD37DFB4BDF93BB75FBAFE3F5C9","8f002781-2b45-4359-9b6f-849223e33505","03d12dc6-79b3-42a5-88c2-9b18a9e5f1ee","{""num_scrambled_semantic"":""8"",""num_scrambled_causal"":""4"",""num_scrambled_schematic"":""4"",""participantId"":""294C5AD37DFB4BDF93BB75FBAFE3F5C9"",""assignmentId"":""8f002781-2b45-4359-9b6f-849223e33505"",""projectId"":""03d12dc6-79b3-42a5-88c2-9b18a9e5f1ee""}","https://test12345.live/?num_scrambled_semantic=8&num_scrambled_causal=4&num_scrambled_schematic=4&participantId=294C5AD37DFB4BDF93BB75FBAFE3F5C9&assignmentId=8f002781-2b45-4359-9b6f-849223e33505&projectId=03d12dc6-79b3-42a5-88c2-9b18a9e5f1ee","294C5AD37DFB4BDF93BB75FBAFE3F5C9-2025-05-15-15-45-49","","655","","images/semantic_sequence/using_technology_semantic/using_technology_semantic_1.png","0","",""
"","","","","","image-button-response","71","590609","0.0-12.0-1.0-2.4","294C5AD37DFB4BDF93BB75FBAFE3F5C9","294C5AD37DFB4BDF93BB75FBAFE3F5C9","8f002781-2b45-4359-9b6f-849223e33505","03d12dc6-79b3-42a5-88c2-9b18a9e5f1ee","{""num_scrambled_semantic"":""8"",""num_scrambled_causal"":""4"",""num_scrambled_schematic"":""4"",""participantId"":""294C5AD37DFB4BDF93BB75FBAFE3F5C9"",""assignmentId"":""8f002781-2b45-4359-9b6f-849223e33505"",""projectId"":""03d12dc6-79b3-42a5-88c2-9b18a9e5f1ee""}","https://test12345.live/?num_scrambled_semantic=8&num_scrambled_causal=4&num_scrambled_schematic=4&participantId=294C5AD37DFB4BDF93BB75FBAFE3F5C9&assignmentId=8f002781-2b45-4359-9b6f-849223e33505&projectId=03d12dc6-79b3-42a5-88c2-9b18a9e5f1ee","294C5AD37DFB4BDF93BB75FBAFE3F5C9-2025-05-15-15-45-49","","null","","[]","null","",""
"","","","","","image-button-response","72","595115","0.0-12.0-1.0-0.5","294C5AD37DFB4BDF93BB75FBAFE3F5C9","294C5AD37DFB4BDF93BB75FBAFE3F5C9","8f002781-2b45-4359-9b6f-849223e33505","03d12dc6-79b3-42a5-88c2-9b18a9e5f1ee","{""num_scrambled_semantic"":""8"",""num_scrambled_causal"":""4"",""num_scrambled_schematic"":""4"",""participantId"":""294C5AD37DFB4BDF93BB75FBAFE3F5C9"",""assignmentId"":""8f002781-2b45-4359-9b6f-849223e33505"",""projectId"":""03d12dc6-79b3-42a5-88c2-9b18a9e5f1ee""}","https://test12345.live/?num_scrambled_semantic=8&num_scrambled_causal=4&num_scrambled_schematic=4&participantId=294C5AD37DFB4BDF93BB75FBAFE3F5C9&assignmentId=8f002781-2b45-4359-9b6f-849223e33505&projectId=03d12dc6-79b3-42a5-88c2-9b18a9e5f1ee","294C5AD37DFB4BDF93BB75FBAFE3F5C9-2025-05-15-15-45-49","","null","","images/semantic_sequence/using_technology_semantic/using_technology_semantic_ten.png","null","",""
"","","","","","image-button-response","73","595741","0.0-12.0-1.0-1.5","294C5AD37DFB4BDF93BB75FBAFE3F5C9","294C5AD37DFB4BDF93BB75FBAFE3F5C9","8f002781-2b45-4359-9b6f-849223e33505","03d12dc6-79b3-42a5-88c2-9b18a9e5f1ee","{""num_scrambled_semantic"":""8"",""num_scrambled_causal"":""4"",""num_scrambled_schematic"":""4"",""participantId"":""294C5AD37DFB4BDF93BB75FBAFE3F5C9"",""assignmentId"":""8f002781-2b45-4359-9b6f-849223e33505"",""projectId"":""03d12dc6-79b3-42a5-88c2-9b18a9e5f1ee""}","https://test12345.live/?num_scrambled_semantic=8&num_scrambled_causal=4&num_scrambled_schematic=4&participantId=294C5AD37DFB4BDF93BB75FBAFE3F5C9&assignmentId=8f002781-2b45-4359-9b6f-849223e33505&projectId=03d12dc6-79b3-42a5-88c2-9b18a9e5f1ee","294C5AD37DFB4BDF93BB75FBAFE3F5C9-2025-05-15-15-45-49","","624","","images/semantic_sequence/using_technology_semantic/using_technology_semantic_ten.png","0","",""
"","","","","","image-button-response","74","597548","0.0-12.0-1.0-2.5","294C5AD37DFB4BDF93BB75FBAFE3F5C9","294C5AD37DFB4BDF93BB75FBAFE3F5C9","8f002781-2b45-4359-9b6f-849223e33505","03d12dc6-79b3-42a5-88c2-9b18a9e5f1ee","{""num_scrambled_semantic"":""8"",""num_scrambled_causal"":""4"",""num_scrambled_schematic"":""4"",""participantId"":""294C5AD37DFB4BDF93BB75FBAFE3F5C9"",""assignmentId"":""8f002781-2b45-4359-9b6f-849223e33505"",""projectId"":""03d12dc6-79b3-42a5-88c2-9b18a9e5f1ee""}","https://test12345.live/?num_scrambled_semantic=8&num_scrambled_causal=4&num_scrambled_schematic=4&participantId=294C5AD37DFB4BDF93BB75FBAFE3F5C9&assignmentId=8f002781-2b45-4359-9b6f-849223e33505&projectId=03d12dc6-79b3-42a5-88c2-9b18a9e5f1ee","294C5AD37DFB4BDF93BB75FBAFE3F5C9-2025-05-15-15-45-49","","null","","[]","null","",""
"","","","","","image-button-response","75","602055","0.0-12.0-1.0-0.6","294C5AD37DFB4BDF93BB75FBAFE3F5C9","294C5AD37DFB4BDF93BB75FBAFE3F5C9","8f002781-2b45-4359-9b6f-849223e33505","03d12dc6-79b3-42a5-88c2-9b18a9e5f1ee","{""num_scrambled_semantic"":""8"",""num_scrambled_causal"":""4"",""num_scrambled_schematic"":""4"",""participantId"":""294C5AD37DFB4BDF93BB75FBAFE3F5C9"",""assignmentId"":""8f002781-2b45-4359-9b6f-849223e33505"",""projectId"":""03d12dc6-79b3-42a5-88c2-9b18a9e5f1ee""}","https://test12345.live/?num_scrambled_semantic=8&num_scrambled_causal=4&num_scrambled_schematic=4&participantId=294C5AD37DFB4BDF93BB75FBAFE3F5C9&assignmentId=8f002781-2b45-4359-9b6f-849223e33505&projectId=03d12dc6-79b3-42a5-88c2-9b18a9e5f1ee","294C5AD37DFB4BDF93BB75FBAFE3F5C9-2025-05-15-15-45-49","","null","","images/semantic_sequence/using_technology_semantic/using_technology_semantic_8.png","null","",""
"","","","","","image-button-response","76","602734","0.0-12.0-1.0-1.6","294C5AD37DFB4BDF93BB75FBAFE3F5C9","294C5AD37DFB4BDF93BB75FBAFE3F5C9","8f002781-2b45-4359-9b6f-849223e33505","03d12dc6-79b3-42a5-88c2-9b18a9e5f1ee","{""num_scrambled_semantic"":""8"",""num_scrambled_causal"":""4"",""num_scrambled_schematic"":""4"",""participantId"":""294C5AD37DFB4BDF93BB75FBAFE3F5C9"",""assignmentId"":""8f002781-2b45-4359-9b6f-849223e33505"",""projectId"":""03d12dc6-79b3-42a5-88c2-9b18a9e5f1ee""}","https://test12345.live/?num_scrambled_semantic=8&num_scrambled_causal=4&num_scrambled_schematic=4&participantId=294C5AD37DFB4BDF93BB75FBAFE3F5C9&assignmentId=8f002781-2b45-4359-9b6f-849223e33505&projectId=03d12dc6-79b3-42a5-88c2-9b18a9e5f1ee","294C5AD37DFB4BDF93BB75FBAFE3F5C9-2025-05-15-15-45-49","","677","","images/semantic_sequence/using_technology_semantic/using_technology_semantic_8.png","0","",""
"","","","","","image-button-response","77","604540","0.0-12.0-1.0-2.6","294C5AD37DFB4BDF93BB75FBAFE3F5C9","294C5AD37DFB4BDF93BB75FBAFE3F5C9","8f002781-2b45-4359-9b6f-849223e33505","03d12dc6-79b3-42a5-88c2-9b18a9e5f1ee","{""num_scrambled_semantic"":""8"",""num_scrambled_causal"":""4"",""num_scrambled_schematic"":""4"",""participantId"":""294C5AD37DFB4BDF93BB75FBAFE3F5C9"",""assignmentId"":""8f002781-2b45-4359-9b6f-849223e33505"",""projectId"":""03d12dc6-79b3-42a5-88c2-9b18a9e5f1ee""}","https://test12345.live/?num_scrambled_semantic=8&num_scrambled_causal=4&num_scrambled_schematic=4&participantId=294C5AD37DFB4BDF93BB75FBAFE3F5C9&assignmentId=8f002781-2b45-4359-9b6f-849223e33505&projectId=03d12dc6-79b3-42a5-88c2-9b18a9e5f1ee","294C5AD37DFB4BDF93BB75FBAFE3F5C9-2025-05-15-15-45-49","","null","","[]","null","",""
"","","","","","image-button-response","78","609048","0.0-12.0-1.0-0.7","294C5AD37DFB4BDF93BB75FBAFE3F5C9","294C5AD37DFB4BDF93BB75FBAFE3F5C9","8f002781-2b45-4359-9b6f-849223e33505","03d12dc6-79b3-42a5-88c2-9b18a9e5f1ee","{""num_scrambled_semantic"":""8"",""num_scrambled_causal"":""4"",""num_scrambled_schematic"":""4"",""participantId"":""294C5AD37DFB4BDF93BB75FBAFE3F5C9"",""assignmentId"":""8f002781-2b45-4359-9b6f-849223e33505"",""projectId"":""03d12dc6-79b3-42a5-88c2-9b18a9e5f1ee""}","https://test12345.live/?num_scrambled_semantic=8&num_scrambled_causal=4&num_scrambled_schematic=4&participantId=294C5AD37DFB4BDF93BB75FBAFE3F5C9&assignmentId=8f002781-2b45-4359-9b6f-849223e33505&projectId=03d12dc6-79b3-42a5-88c2-9b18a9e5f1ee","294C5AD37DFB4BDF93BB75FBAFE3F5C9-2025-05-15-15-45-49","","null","","images/semantic_sequence/using_technology_semantic/using_technology_semantic_5.png","null","",""
"","","","","","image-button-response","79","609809","0.0-12.0-1.0-1.7","294C5AD37DFB4BDF93BB75FBAFE3F5C9","294C5AD37DFB4BDF93BB75FBAFE3F5C9","8f002781-2b45-4359-9b6f-849223e33505","03d12dc6-79b3-42a5-88c2-9b18a9e5f1ee","{""num_scrambled_semantic"":""8"",""num_scrambled_causal"":""4"",""num_scrambled_schematic"":""4"",""participantId"":""294C5AD37DFB4BDF93BB75FBAFE3F5C9"",""assignmentId"":""8f002781-2b45-4359-9b6f-849223e33505"",""projectId"":""03d12dc6-79b3-42a5-88c2-9b18a9e5f1ee""}","https://test12345.live/?num_scrambled_semantic=8&num_scrambled_causal=4&num_scrambled_schematic=4&participantId=294C5AD37DFB4BDF93BB75FBAFE3F5C9&assignmentId=8f002781-2b45-4359-9b6f-849223e33505&projectId=03d12dc6-79b3-42a5-88c2-9b18a9e5f1ee","294C5AD37DFB4BDF93BB75FBAFE3F5C9-2025-05-15-15-45-49","","759","","images/semantic_sequence/using_technology_semantic/using_technology_semantic_5.png","0","",""
"","","","","","image-button-response","80","611617","0.0-12.0-1.0-2.7","294C5AD37DFB4BDF93BB75FBAFE3F5C9","294C5AD37DFB4BDF93BB75FBAFE3F5C9","8f002781-2b45-4359-9b6f-849223e33505","03d12dc6-79b3-42a5-88c2-9b18a9e5f1ee","{""num_scrambled_semantic"":""8"",""num_scrambled_causal"":""4"",""num_scrambled_schematic"":""4"",""participantId"":""294C5AD37DFB4BDF93BB75FBAFE3F5C9"",""assignmentId"":""8f002781-2b45-4359-9b6f-849223e33505"",""projectId"":""03d12dc6-79b3-42a5-88c2-9b18a9e5f1ee""}","https://test12345.live/?num_scrambled_semantic=8&num_scrambled_causal=4&num_scrambled_schematic=4&participantId=294C5AD37DFB4BDF93BB75FBAFE3F5C9&assignmentId=8f002781-2b45-4359-9b6f-849223e33505&projectId=03d12dc6-79b3-42a5-88c2-9b18a9e5f1ee","294C5AD37DFB4BDF93BB75FBAFE3F5C9-2025-05-15-15-45-49","","null","","[]","null","",""
"","","","","","image-button-response","81","616120","0.0-12.0-1.0-0.8","294C5AD37DFB4BDF93BB75FBAFE3F5C9","294C5AD37DFB4BDF93BB75FBAFE3F5C9","8f002781-2b45-4359-9b6f-849223e33505","03d12dc6-79b3-42a5-88c2-9b18a9e5f1ee","{""num_scrambled_semantic"":""8"",""num_scrambled_causal"":""4"",""num_scrambled_schematic"":""4"",""participantId"":""294C5AD37DFB4BDF93BB75FBAFE3F5C9"",""assignmentId"":""8f002781-2b45-4359-9b6f-849223e33505"",""projectId"":""03d12dc6-79b3-42a5-88c2-9b18a9e5f1ee""}","https://test12345.live/?num_scrambled_semantic=8&num_scrambled_causal=4&num_scrambled_schematic=4&participantId=294C5AD37DFB4BDF93BB75FBAFE3F5C9&assignmentId=8f002781-2b45-4359-9b6f-849223e33505&projectId=03d12dc6-79b3-42a5-88c2-9b18a9e5f1ee","294C5AD37DFB4BDF93BB75FBAFE3F5C9-2025-05-15-15-45-49","","null","","images/semantic_sequence/using_technology_semantic/using_technology_semantic_6.png","null","",""
"","","","","","image-button-response","82","616983","0.0-12.0-1.0-1.8","294C5AD37DFB4BDF93BB75FBAFE3F5C9","294C5AD37DFB4BDF93BB75FBAFE3F5C9","8f002781-2b45-4359-9b6f-849223e33505","03d12dc6-79b3-42a5-88c2-9b18a9e5f1ee","{""num_scrambled_semantic"":""8"",""num_scrambled_causal"":""4"",""num_scrambled_schematic"":""4"",""participantId"":""294C5AD37DFB4BDF93BB75FBAFE3F5C9"",""assignmentId"":""8f002781-2b45-4359-9b6f-849223e33505"",""projectId"":""03d12dc6-79b3-42a5-88c2-9b18a9e5f1ee""}","https://test12345.live/?num_scrambled_semantic=8&num_scrambled_causal=4&num_scrambled_schematic=4&participantId=294C5AD37DFB4BDF93BB75FBAFE3F5C9&assignmentId=8f002781-2b45-4359-9b6f-849223e33505&projectId=03d12dc6-79b3-42a5-88c2-9b18a9e5f1ee","294C5AD37DFB4BDF93BB75FBAFE3F5C9-2025-05-15-15-45-49","","861","","images/semantic_sequence/using_technology_semantic/using_technology_semantic_6.png","0","",""
"","","","","","image-button-response","83","618788","0.0-12.0-1.0-2.8","294C5AD37DFB4BDF93BB75FBAFE3F5C9","294C5AD37DFB4BDF93BB75FBAFE3F5C9","8f002781-2b45-4359-9b6f-849223e33505","03d12dc6-79b3-42a5-88c2-9b18a9e5f1ee","{""num_scrambled_semantic"":""8"",""num_scrambled_causal"":""4"",""num_scrambled_schematic"":""4"",""participantId"":""294C5AD37DFB4BDF93BB75FBAFE3F5C9"",""assignmentId"":""8f002781-2b45-4359-9b6f-849223e33505"",""projectId"":""03d12dc6-79b3-42a5-88c2-9b18a9e5f1ee""}","https://test12345.live/?num_scrambled_semantic=8&num_scrambled_causal=4&num_scrambled_schematic=4&participantId=294C5AD37DFB4BDF93BB75FBAFE3F5C9&assignmentId=8f002781-2b45-4359-9b6f-849223e33505&projectId=03d12dc6-79b3-42a5-88c2-9b18a9e5f1ee","294C5AD37DFB4BDF93BB75FBAFE3F5C9-2025-05-15-15-45-49","","null","","[]","null","",""
"","","","","","image-button-response","84","623296","0.0-12.0-1.0-0.9","294C5AD37DFB4BDF93BB75FBAFE3F5C9","294C5AD37DFB4BDF93BB75FBAFE3F5C9","8f002781-2b45-4359-9b6f-849223e33505","03d12dc6-79b3-42a5-88c2-9b18a9e5f1ee","{""num_scrambled_semantic"":""8"",""num_scrambled_causal"":""4"",""num_scrambled_schematic"":""4"",""participantId"":""294C5AD37DFB4BDF93BB75FBAFE3F5C9"",""assignmentId"":""8f002781-2b45-4359-9b6f-849223e33505"",""projectId"":""03d12dc6-79b3-42a5-88c2-9b18a9e5f1ee""}","https://test12345.live/?num_scrambled_semantic=8&num_scrambled_causal=4&num_scrambled_schematic=4&participantId=294C5AD37DFB4BDF93BB75FBAFE3F5C9&assignmentId=8f002781-2b45-4359-9b6f-849223e33505&projectId=03d12dc6-79b3-42a5-88c2-9b18a9e5f1ee","294C5AD37DFB4BDF93BB75FBAFE3F5C9-2025-05-15-15-45-49","","null","","images/semantic_sequence/using_technology_semantic/using_technology_semantic_9.png","null","",""
"","","","","","image-button-response","85","623903","0.0-12.0-1.0-1.9","294C5AD37DFB4BDF93BB75FBAFE3F5C9","294C5AD37DFB4BDF93BB75FBAFE3F5C9","8f002781-2b45-4359-9b6f-849223e33505","03d12dc6-79b3-42a5-88c2-9b18a9e5f1ee","{""num_scrambled_semantic"":""8"",""num_scrambled_causal"":""4"",""num_scrambled_schematic"":""4"",""participantId"":""294C5AD37DFB4BDF93BB75FBAFE3F5C9"",""assignmentId"":""8f002781-2b45-4359-9b6f-849223e33505"",""projectId"":""03d12dc6-79b3-42a5-88c2-9b18a9e5f1ee""}","https://test12345.live/?num_scrambled_semantic=8&num_scrambled_causal=4&num_scrambled_schematic=4&participantId=294C5AD37DFB4BDF93BB75FBAFE3F5C9&assignmentId=8f002781-2b45-4359-9b6f-849223e33505&projectId=03d12dc6-79b3-42a5-88c2-9b18a9e5f1ee","294C5AD37DFB4BDF93BB75FBAFE3F5C9-2025-05-15-15-45-49","","606","","images/semantic_sequence/using_technology_semantic/using_technology_semantic_9.png","0","",""
"","","","","","image-button-response","86","625708","0.0-12.0-1.0-2.9","294C5AD37DFB4BDF93BB75FBAFE3F5C9","294C5AD37DFB4BDF93BB75FBAFE3F5C9","8f002781-2b45-4359-9b6f-849223e33505","03d12dc6-79b3-42a5-88c2-9b18a9e5f1ee","{""num_scrambled_semantic"":""8"",""num_scrambled_causal"":""4"",""num_scrambled_schematic"":""4"",""participantId"":""294C5AD37DFB4BDF93BB75FBAFE3F5C9"",""assignmentId"":""8f002781-2b45-4359-9b6f-849223e33505"",""projectId"":""03d12dc6-79b3-42a5-88c2-9b18a9e5f1ee""}","https://test12345.live/?num_scrambled_semantic=8&num_scrambled_causal=4&num_scrambled_schematic=4&participantId=294C5AD37DFB4BDF93BB75FBAFE3F5C9&assignmentId=8f002781-2b45-4359-9b6f-849223e33505&projectId=03d12dc6-79b3-42a5-88c2-9b18a9e5f1ee","294C5AD37DFB4BDF93BB75FBAFE3F5C9-2025-05-15-15-45-49","","null","","[]","null","",""
"","","","","","html-audio-response","87","673323","0.0-13.0","294C5AD37DFB4BDF93BB75FBAFE3F5C9","294C5AD37DFB4BDF93BB75FBAFE3F5C9","8f002781-2b45-4359-9b6f-849223e33505","03d12dc6-79b3-42a5-88c2-9b18a9e5f1ee","{""num_scrambled_semantic"":""8"",""num_scrambled_causal"":""4"",""num_scrambled_schematic"":""4"",""participantId"":""294C5AD37DFB4BDF93BB75FBAFE3F5C9"",""assignmentId"":""8f002781-2b45-4359-9b6f-849223e33505"",""projectId"":""03d12dc6-79b3-42a5-88c2-9b18a9e5f1ee""}","https://test12345.live/?num_scrambled_semantic=8&num_scrambled_causal=4&num_scrambled_schematic=4&participantId=294C5AD37DFB4BDF93BB75FBAFE3F5C9&assignmentId=8f002781-2b45-4359-9b6f-849223e33505&projectId=03d12dc6-79b3-42a5-88c2-9b18a9e5f1ee","294C5AD37DFB4BDF93BB75FBAFE3F5C9-2025-05-15-15-45-49","","22144","","[""<span style=\""color: red; font-size: 24px\""> NOW RECORDING</span><p>Please say out loud all the images you saw, as many as you can remember. The images can be said in any order.</p>""]","","2","using_technology_semantic"
"","","","","","image-button-response","88","679337","0.0-14.0-0.0","294C5AD37DFB4BDF93BB75FBAFE3F5C9","294C5AD37DFB4BDF93BB75FBAFE3F5C9","8f002781-2b45-4359-9b6f-849223e33505","03d12dc6-79b3-42a5-88c2-9b18a9e5f1ee","{""num_scrambled_semantic"":""8"",""num_scrambled_causal"":""4"",""num_scrambled_schematic"":""4"",""participantId"":""294C5AD37DFB4BDF93BB75FBAFE3F5C9"",""assignmentId"":""8f002781-2b45-4359-9b6f-849223e33505"",""projectId"":""03d12dc6-79b3-42a5-88c2-9b18a9e5f1ee""}","https://test12345.live/?num_scrambled_semantic=8&num_scrambled_causal=4&num_scrambled_schematic=4&participantId=294C5AD37DFB4BDF93BB75FBAFE3F5C9&assignmentId=8f002781-2b45-4359-9b6f-849223e33505&projectId=03d12dc6-79b3-42a5-88c2-9b18a9e5f1ee","294C5AD37DFB4BDF93BB75FBAFE3F5C9-2025-05-15-15-45-49","","null","","images/causal_sequence/saving_a_cat_causal/saving_a_cat_causal_0.png","null","",""
"","","","","","image-button-response","89","683840","0.0-14.0-1.0-0.0","294C5AD37DFB4BDF93BB75FBAFE3F5C9","294C5AD37DFB4BDF93BB75FBAFE3F5C9","8f002781-2b45-4359-9b6f-849223e33505","03d12dc6-79b3-42a5-88c2-9b18a9e5f1ee","{""num_scrambled_semantic"":""8"",""num_scrambled_causal"":""4"",""num_scrambled_schematic"":""4"",""participantId"":""294C5AD37DFB4BDF93BB75FBAFE3F5C9"",""assignmentId"":""8f002781-2b45-4359-9b6f-849223e33505"",""projectId"":""03d12dc6-79b3-42a5-88c2-9b18a9e5f1ee""}","https://test12345.live/?num_scrambled_semantic=8&num_scrambled_causal=4&num_scrambled_schematic=4&participantId=294C5AD37DFB4BDF93BB75FBAFE3F5C9&assignmentId=8f002781-2b45-4359-9b6f-849223e33505&projectId=03d12dc6-79b3-42a5-88c2-9b18a9e5f1ee","294C5AD37DFB4BDF93BB75FBAFE3F5C9-2025-05-15-15-45-49","","null","","images/causal_sequence/saving_a_cat_causal/saving_a_cat_causal_1.png","null","",""
"","","","","","image-button-response","90","685891","0.0-14.0-1.0-1.0","294C5AD37DFB4BDF93BB75FBAFE3F5C9","294C5AD37DFB4BDF93BB75FBAFE3F5C9","8f002781-2b45-4359-9b6f-849223e33505","03d12dc6-79b3-42a5-88c2-9b18a9e5f1ee","{""num_scrambled_semantic"":""8"",""num_scrambled_causal"":""4"",""num_scrambled_schematic"":""4"",""participantId"":""294C5AD37DFB4BDF93BB75FBAFE3F5C9"",""assignmentId"":""8f002781-2b45-4359-9b6f-849223e33505"",""projectId"":""03d12dc6-79b3-42a5-88c2-9b18a9e5f1ee""}","https://test12345.live/?num_scrambled_semantic=8&num_scrambled_causal=4&num_scrambled_schematic=4&participantId=294C5AD37DFB4BDF93BB75FBAFE3F5C9&assignmentId=8f002781-2b45-4359-9b6f-849223e33505&projectId=03d12dc6-79b3-42a5-88c2-9b18a9e5f1ee","294C5AD37DFB4BDF93BB75FBAFE3F5C9-2025-05-15-15-45-49","","2050","","images/causal_sequence/saving_a_cat_causal/saving_a_cat_causal_1.png","0","",""
"","","","","","image-button-response","91","687698","0.0-14.0-1.0-2.0","294C5AD37DFB4BDF93BB75FBAFE3F5C9","294C5AD37DFB4BDF93BB75FBAFE3F5C9","8f002781-2b45-4359-9b6f-849223e33505","03d12dc6-79b3-42a5-88c2-9b18a9e5f1ee","{""num_scrambled_semantic"":""8"",""num_scrambled_causal"":""4"",""num_scrambled_schematic"":""4"",""participantId"":""294C5AD37DFB4BDF93BB75FBAFE3F5C9"",""assignmentId"":""8f002781-2b45-4359-9b6f-849223e33505"",""projectId"":""03d12dc6-79b3-42a5-88c2-9b18a9e5f1ee""}","https://test12345.live/?num_scrambled_semantic=8&num_scrambled_causal=4&num_scrambled_schematic=4&participantId=294C5AD37DFB4BDF93BB75FBAFE3F5C9&assignmentId=8f002781-2b45-4359-9b6f-849223e33505&projectId=03d12dc6-79b3-42a5-88c2-9b18a9e5f1ee","294C5AD37DFB4BDF93BB75FBAFE3F5C9-2025-05-15-15-45-49","","null","","[]","null","",""
"","","","","","image-button-response","92","692204","0.0-14.0-1.0-0.1","294C5AD37DFB4BDF93BB75FBAFE3F5C9","294C5AD37DFB4BDF93BB75FBAFE3F5C9","8f002781-2b45-4359-9b6f-849223e33505","03d12dc6-79b3-42a5-88c2-9b18a9e5f1ee","{""num_scrambled_semantic"":""8"",""num_scrambled_causal"":""4"",""num_scrambled_schematic"":""4"",""participantId"":""294C5AD37DFB4BDF93BB75FBAFE3F5C9"",""assignmentId"":""8f002781-2b45-4359-9b6f-849223e33505"",""projectId"":""03d12dc6-79b3-42a5-88c2-9b18a9e5f1ee""}","https://test12345.live/?num_scrambled_semantic=8&num_scrambled_causal=4&num_scrambled_schematic=4&participantId=294C5AD37DFB4BDF93BB75FBAFE3F5C9&assignmentId=8f002781-2b45-4359-9b6f-849223e33505&projectId=03d12dc6-79b3-42a5-88c2-9b18a9e5f1ee","294C5AD37DFB4BDF93BB75FBAFE3F5C9-2025-05-15-15-45-49","","null","","images/causal_sequence/saving_a_cat_causal/saving_a_cat_causal_7.png","null","",""
"","","","","","image-button-response","93","692938","0.0-14.0-1.0-1.1","294C5AD37DFB4BDF93BB75FBAFE3F5C9","294C5AD37DFB4BDF93BB75FBAFE3F5C9","8f002781-2b45-4359-9b6f-849223e33505","03d12dc6-79b3-42a5-88c2-9b18a9e5f1ee","{""num_scrambled_semantic"":""8"",""num_scrambled_causal"":""4"",""num_scrambled_schematic"":""4"",""participantId"":""294C5AD37DFB4BDF93BB75FBAFE3F5C9"",""assignmentId"":""8f002781-2b45-4359-9b6f-849223e33505"",""projectId"":""03d12dc6-79b3-42a5-88c2-9b18a9e5f1ee""}","https://test12345.live/?num_scrambled_semantic=8&num_scrambled_causal=4&num_scrambled_schematic=4&participantId=294C5AD37DFB4BDF93BB75FBAFE3F5C9&assignmentId=8f002781-2b45-4359-9b6f-849223e33505&projectId=03d12dc6-79b3-42a5-88c2-9b18a9e5f1ee","294C5AD37DFB4BDF93BB75FBAFE3F5C9-2025-05-15-15-45-49","","731","","images/causal_sequence/saving_a_cat_causal/saving_a_cat_causal_7.png","0","",""
"","","","","","image-button-response","94","694740","0.0-14.0-1.0-2.1","294C5AD37DFB4BDF93BB75FBAFE3F5C9","294C5AD37DFB4BDF93BB75FBAFE3F5C9","8f002781-2b45-4359-9b6f-849223e33505","03d12dc6-79b3-42a5-88c2-9b18a9e5f1ee","{""num_scrambled_semantic"":""8"",""num_scrambled_causal"":""4"",""num_scrambled_schematic"":""4"",""participantId"":""294C5AD37DFB4BDF93BB75FBAFE3F5C9"",""assignmentId"":""8f002781-2b45-4359-9b6f-849223e33505"",""projectId"":""03d12dc6-79b3-42a5-88c2-9b18a9e5f1ee""}","https://test12345.live/?num_scrambled_semantic=8&num_scrambled_causal=4&num_scrambled_schematic=4&participantId=294C5AD37DFB4BDF93BB75FBAFE3F5C9&assignmentId=8f002781-2b45-4359-9b6f-849223e33505&projectId=03d12dc6-79b3-42a5-88c2-9b18a9e5f1ee","294C5AD37DFB4BDF93BB75FBAFE3F5C9-2025-05-15-15-45-49","","null","","[]","null","",""
"","","","","","image-button-response","95","699247","0.0-14.0-1.0-0.2","294C5AD37DFB4BDF93BB75FBAFE3F5C9","294C5AD37DFB4BDF93BB75FBAFE3F5C9","8f002781-2b45-4359-9b6f-849223e33505","03d12dc6-79b3-42a5-88c2-9b18a9e5f1ee","{""num_scrambled_semantic"":""8"",""num_scrambled_causal"":""4"",""num_scrambled_schematic"":""4"",""participantId"":""294C5AD37DFB4BDF93BB75FBAFE3F5C9"",""assignmentId"":""8f002781-2b45-4359-9b6f-849223e33505"",""projectId"":""03d12dc6-79b3-42a5-88c2-9b18a9e5f1ee""}","https://test12345.live/?num_scrambled_semantic=8&num_scrambled_causal=4&num_scrambled_schematic=4&participantId=294C5AD37DFB4BDF93BB75FBAFE3F5C9&assignmentId=8f002781-2b45-4359-9b6f-849223e33505&projectId=03d12dc6-79b3-42a5-88c2-9b18a9e5f1ee","294C5AD37DFB4BDF93BB75FBAFE3F5C9-2025-05-15-15-45-49","","null","","images/causal_sequence/saving_a_cat_causal/saving_a_cat_causal_8.png","null","",""
"","","","","","image-button-response","96","699953","0.0-14.0-1.0-1.2","294C5AD37DFB4BDF93BB75FBAFE3F5C9","294C5AD37DFB4BDF93BB75FBAFE3F5C9","8f002781-2b45-4359-9b6f-849223e33505","03d12dc6-79b3-42a5-88c2-9b18a9e5f1ee","{""num_scrambled_semantic"":""8"",""num_scrambled_causal"":""4"",""num_scrambled_schematic"":""4"",""participantId"":""294C5AD37DFB4BDF93BB75FBAFE3F5C9"",""assignmentId"":""8f002781-2b45-4359-9b6f-849223e33505"",""projectId"":""03d12dc6-79b3-42a5-88c2-9b18a9e5f1ee""}","https://test12345.live/?num_scrambled_semantic=8&num_scrambled_causal=4&num_scrambled_schematic=4&participantId=294C5AD37DFB4BDF93BB75FBAFE3F5C9&assignmentId=8f002781-2b45-4359-9b6f-849223e33505&projectId=03d12dc6-79b3-42a5-88c2-9b18a9e5f1ee","294C5AD37DFB4BDF93BB75FBAFE3F5C9-2025-05-15-15-45-49","","704","","images/causal_sequence/saving_a_cat_causal/saving_a_cat_causal_8.png","0","",""
"","","","","","image-button-response","97","701761","0.0-14.0-1.0-2.2","294C5AD37DFB4BDF93BB75FBAFE3F5C9","294C5AD37DFB4BDF93BB75FBAFE3F5C9","8f002781-2b45-4359-9b6f-849223e33505","03d12dc6-79b3-42a5-88c2-9b18a9e5f1ee","{""num_scrambled_semantic"":""8"",""num_scrambled_causal"":""4"",""num_scrambled_schematic"":""4"",""participantId"":""294C5AD37DFB4BDF93BB75FBAFE3F5C9"",""assignmentId"":""8f002781-2b45-4359-9b6f-849223e33505"",""projectId"":""03d12dc6-79b3-42a5-88c2-9b18a9e5f1ee""}","https://test12345.live/?num_scrambled_semantic=8&num_scrambled_causal=4&num_scrambled_schematic=4&participantId=294C5AD37DFB4BDF93BB75FBAFE3F5C9&assignmentId=8f002781-2b45-4359-9b6f-849223e33505&projectId=03d12dc6-79b3-42a5-88c2-9b18a9e5f1ee","294C5AD37DFB4BDF93BB75FBAFE3F5C9-2025-05-15-15-45-49","","null","","[]","null","",""
"","","","","","image-button-response","98","706269","0.0-14.0-1.0-0.3","294C5AD37DFB4BDF93BB75FBAFE3F5C9","294C5AD37DFB4BDF93BB75FBAFE3F5C9","8f002781-2b45-4359-9b6f-849223e33505","03d12dc6-79b3-42a5-88c2-9b18a9e5f1ee","{""num_scrambled_semantic"":""8"",""num_scrambled_causal"":""4"",""num_scrambled_schematic"":""4"",""participantId"":""294C5AD37DFB4BDF93BB75FBAFE3F5C9"",""assignmentId"":""8f002781-2b45-4359-9b6f-849223e33505"",""projectId"":""03d12dc6-79b3-42a5-88c2-9b18a9e5f1ee""}","https://test12345.live/?num_scrambled_semantic=8&num_scrambled_causal=4&num_scrambled_schematic=4&participantId=294C5AD37DFB4BDF93BB75FBAFE3F5C9&assignmentId=8f002781-2b45-4359-9b6f-849223e33505&projectId=03d12dc6-79b3-42a5-88c2-9b18a9e5f1ee","294C5AD37DFB4BDF93BB75FBAFE3F5C9-2025-05-15-15-45-49","","null","","images/causal_sequence/saving_a_cat_causal/saving_a_cat_causal_5.png","null","",""
"","","","","","image-button-response","99","707383","0.0-14.0-1.0-1.3","294C5AD37DFB4BDF93BB75FBAFE3F5C9","294C5AD37DFB4BDF93BB75FBAFE3F5C9","8f002781-2b45-4359-9b6f-849223e33505","03d12dc6-79b3-42a5-88c2-9b18a9e5f1ee","{""num_scrambled_semantic"":""8"",""num_scrambled_causal"":""4"",""num_scrambled_schematic"":""4"",""participantId"":""294C5AD37DFB4BDF93BB75FBAFE3F5C9"",""assignmentId"":""8f002781-2b45-4359-9b6f-849223e33505"",""projectId"":""03d12dc6-79b3-42a5-88c2-9b18a9e5f1ee""}","https://test12345.live/?num_scrambled_semantic=8&num_scrambled_causal=4&num_scrambled_schematic=4&participantId=294C5AD37DFB4BDF93BB75FBAFE3F5C9&assignmentId=8f002781-2b45-4359-9b6f-849223e33505&projectId=03d12dc6-79b3-42a5-88c2-9b18a9e5f1ee","294C5AD37DFB4BDF93BB75FBAFE3F5C9-2025-05-15-15-45-49","","1112","","images/causal_sequence/saving_a_cat_causal/saving_a_cat_causal_5.png","0","",""
"","","","","","image-button-response","100","709191","0.0-14.0-1.0-2.3","294C5AD37DFB4BDF93BB75FBAFE3F5C9","294C5AD37DFB4BDF93BB75FBAFE3F5C9","8f002781-2b45-4359-9b6f-849223e33505","03d12dc6-79b3-42a5-88c2-9b18a9e5f1ee","{""num_scrambled_semantic"":""8"",""num_scrambled_causal"":""4"",""num_scrambled_schematic"":""4"",""participantId"":""294C5AD37DFB4BDF93BB75FBAFE3F5C9"",""assignmentId"":""8f002781-2b45-4359-9b6f-849223e33505"",""projectId"":""03d12dc6-79b3-42a5-88c2-9b18a9e5f1ee""}","https://test12345.live/?num_scrambled_semantic=8&num_scrambled_causal=4&num_scrambled_schematic=4&participantId=294C5AD37DFB4BDF93BB75FBAFE3F5C9&assignmentId=8f002781-2b45-4359-9b6f-849223e33505&projectId=03d12dc6-79b3-42a5-88c2-9b18a9e5f1ee","294C5AD37DFB4BDF93BB75FBAFE3F5C9-2025-05-15-15-45-49","","null","","[]","null","",""
"","","","","","image-button-response","101","713699","0.0-14.0-1.0-0.4","294C5AD37DFB4BDF93BB75FBAFE3F5C9","294C5AD37DFB4BDF93BB75FBAFE3F5C9","8f002781-2b45-4359-9b6f-849223e33505","03d12dc6-79b3-42a5-88c2-9b18a9e5f1ee","{""num_scrambled_semantic"":""8"",""num_scrambled_causal"":""4"",""num_scrambled_schematic"":""4"",""participantId"":""294C5AD37DFB4BDF93BB75FBAFE3F5C9"",""assignmentId"":""8f002781-2b45-4359-9b6f-849223e33505"",""projectId"":""03d12dc6-79b3-42a5-88c2-9b18a9e5f1ee""}","https://test12345.live/?num_scrambled_semantic=8&num_scrambled_causal=4&num_scrambled_schematic=4&participantId=294C5AD37DFB4BDF93BB75FBAFE3F5C9&assignmentId=8f002781-2b45-4359-9b6f-849223e33505&projectId=03d12dc6-79b3-42a5-88c2-9b18a9e5f1ee","294C5AD37DFB4BDF93BB75FBAFE3F5C9-2025-05-15-15-45-49","","null","","images/causal_sequence/saving_a_cat_causal/saving_a_cat_causal_4.png","null","",""
"","","","","","image-button-response","102","714654","0.0-14.0-1.0-1.4","294C5AD37DFB4BDF93BB75FBAFE3F5C9","294C5AD37DFB4BDF93BB75FBAFE3F5C9","8f002781-2b45-4359-9b6f-849223e33505","03d12dc6-79b3-42a5-88c2-9b18a9e5f1ee","{""num_scrambled_semantic"":""8"",""num_scrambled_causal"":""4"",""num_scrambled_schematic"":""4"",""participantId"":""294C5AD37DFB4BDF93BB75FBAFE3F5C9"",""assignmentId"":""8f002781-2b45-4359-9b6f-849223e33505"",""projectId"":""03d12dc6-79b3-42a5-88c2-9b18a9e5f1ee""}","https://test12345.live/?num_scrambled_semantic=8&num_scrambled_causal=4&num_scrambled_schematic=4&participantId=294C5AD37DFB4BDF93BB75FBAFE3F5C9&assignmentId=8f002781-2b45-4359-9b6f-849223e33505&projectId=03d12dc6-79b3-42a5-88c2-9b18a9e5f1ee","294C5AD37DFB4BDF93BB75FBAFE3F5C9-2025-05-15-15-45-49","","953","","images/causal_sequence/saving_a_cat_causal/saving_a_cat_causal_4.png","0","",""
"","","","","","image-button-response","103","716461","0.0-14.0-1.0-2.4","294C5AD37DFB4BDF93BB75FBAFE3F5C9","294C5AD37DFB4BDF93BB75FBAFE3F5C9","8f002781-2b45-4359-9b6f-849223e33505","03d12dc6-79b3-42a5-88c2-9b18a9e5f1ee","{""num_scrambled_semantic"":""8"",""num_scrambled_causal"":""4"",""num_scrambled_schematic"":""4"",""participantId"":""294C5AD37DFB4BDF93BB75FBAFE3F5C9"",""assignmentId"":""8f002781-2b45-4359-9b6f-849223e33505"",""projectId"":""03d12dc6-79b3-42a5-88c2-9b18a9e5f1ee""}","https://test12345.live/?num_scrambled_semantic=8&num_scrambled_causal=4&num_scrambled_schematic=4&participantId=294C5AD37DFB4BDF93BB75FBAFE3F5C9&assignmentId=8f002781-2b45-4359-9b6f-849223e33505&projectId=03d12dc6-79b3-42a5-88c2-9b18a9e5f1ee","294C5AD37DFB4BDF93BB75FBAFE3F5C9-2025-05-15-15-45-49","","null","","[]","null","",""
"","","","","","image-button-response","104","720970","0.0-14.0-1.0-0.5","294C5AD37DFB4BDF93BB75FBAFE3F5C9","294C5AD37DFB4BDF93BB75FBAFE3F5C9","8f002781-2b45-4359-9b6f-849223e33505","03d12dc6-79b3-42a5-88c2-9b18a9e5f1ee","{""num_scrambled_semantic"":""8"",""num_scrambled_causal"":""4"",""num_scrambled_schematic"":""4"",""participantId"":""294C5AD37DFB4BDF93BB75FBAFE3F5C9"",""assignmentId"":""8f002781-2b45-4359-9b6f-849223e33505"",""projectId"":""03d12dc6-79b3-42a5-88c2-9b18a9e5f1ee""}","https://test12345.live/?num_scrambled_semantic=8&num_scrambled_causal=4&num_scrambled_schematic=4&participantId=294C5AD37DFB4BDF93BB75FBAFE3F5C9&assignmentId=8f002781-2b45-4359-9b6f-849223e33505&projectId=03d12dc6-79b3-42a5-88c2-9b18a9e5f1ee","294C5AD37DFB4BDF93BB75FBAFE3F5C9-2025-05-15-15-45-49","","null","","images/causal_sequence/saving_a_cat_causal/saving_a_cat_causal_9.png","null","",""
"","","","","","image-button-response","105","721763","0.0-14.0-1.0-1.5","294C5AD37DFB4BDF93BB75FBAFE3F5C9","294C5AD37DFB4BDF93BB75FBAFE3F5C9","8f002781-2b45-4359-9b6f-849223e33505","03d12dc6-79b3-42a5-88c2-9b18a9e5f1ee","{""num_scrambled_semantic"":""8"",""num_scrambled_causal"":""4"",""num_scrambled_schematic"":""4"",""participantId"":""294C5AD37DFB4BDF93BB75FBAFE3F5C9"",""assignmentId"":""8f002781-2b45-4359-9b6f-849223e33505"",""projectId"":""03d12dc6-79b3-42a5-88c2-9b18a9e5f1ee""}","https://test12345.live/?num_scrambled_semantic=8&num_scrambled_causal=4&num_scrambled_schematic=4&participantId=294C5AD37DFB4BDF93BB75FBAFE3F5C9&assignmentId=8f002781-2b45-4359-9b6f-849223e33505&projectId=03d12dc6-79b3-42a5-88c2-9b18a9e5f1ee","294C5AD37DFB4BDF93BB75FBAFE3F5C9-2025-05-15-15-45-49","","791","","images/causal_sequence/saving_a_cat_causal/saving_a_cat_causal_9.png","0","",""
"","","","","","image-button-response","106","723567","0.0-14.0-1.0-2.5","294C5AD37DFB4BDF93BB75FBAFE3F5C9","294C5AD37DFB4BDF93BB75FBAFE3F5C9","8f002781-2b45-4359-9b6f-849223e33505","03d12dc6-79b3-42a5-88c2-9b18a9e5f1ee","{""num_scrambled_semantic"":""8"",""num_scrambled_causal"":""4"",""num_scrambled_schematic"":""4"",""participantId"":""294C5AD37DFB4BDF93BB75FBAFE3F5C9"",""assignmentId"":""8f002781-2b45-4359-9b6f-849223e33505"",""projectId"":""03d12dc6-79b3-42a5-88c2-9b18a9e5f1ee""}","https://test12345.live/?num_scrambled_semantic=8&num_scrambled_causal=4&num_scrambled_schematic=4&participantId=294C5AD37DFB4BDF93BB75FBAFE3F5C9&assignmentId=8f002781-2b45-4359-9b6f-849223e33505&projectId=03d12dc6-79b3-42a5-88c2-9b18a9e5f1ee","294C5AD37DFB4BDF93BB75FBAFE3F5C9-2025-05-15-15-45-49","","null","","[]","null","",""
"","","","","","image-button-response","107","728072","0.0-14.0-1.0-0.6","294C5AD37DFB4BDF93BB75FBAFE3F5C9","294C5AD37DFB4BDF93BB75FBAFE3F5C9","8f002781-2b45-4359-9b6f-849223e33505","03d12dc6-79b3-42a5-88c2-9b18a9e5f1ee","{""num_scrambled_semantic"":""8"",""num_scrambled_causal"":""4"",""num_scrambled_schematic"":""4"",""participantId"":""294C5AD37DFB4BDF93BB75FBAFE3F5C9"",""assignmentId"":""8f002781-2b45-4359-9b6f-849223e33505"",""projectId"":""03d12dc6-79b3-42a5-88c2-9b18a9e5f1ee""}","https://test12345.live/?num_scrambled_semantic=8&num_scrambled_causal=4&num_scrambled_schematic=4&participantId=294C5AD37DFB4BDF93BB75FBAFE3F5C9&assignmentId=8f002781-2b45-4359-9b6f-849223e33505&projectId=03d12dc6-79b3-42a5-88c2-9b18a9e5f1ee","294C5AD37DFB4BDF93BB75FBAFE3F5C9-2025-05-15-15-45-49","","null","","images/causal_sequence/saving_a_cat_causal/saving_a_cat_causal_6.png","null","",""
"","","","","","image-button-response","108","728976","0.0-14.0-1.0-1.6","294C5AD37DFB4BDF93BB75FBAFE3F5C9","294C5AD37DFB4BDF93BB75FBAFE3F5C9","8f002781-2b45-4359-9b6f-849223e33505","03d12dc6-79b3-42a5-88c2-9b18a9e5f1ee","{""num_scrambled_semantic"":""8"",""num_scrambled_causal"":""4"",""num_scrambled_schematic"":""4"",""participantId"":""294C5AD37DFB4BDF93BB75FBAFE3F5C9"",""assignmentId"":""8f002781-2b45-4359-9b6f-849223e33505"",""projectId"":""03d12dc6-79b3-42a5-88c2-9b18a9e5f1ee""}","https://test12345.live/?num_scrambled_semantic=8&num_scrambled_causal=4&num_scrambled_schematic=4&participantId=294C5AD37DFB4BDF93BB75FBAFE3F5C9&assignmentId=8f002781-2b45-4359-9b6f-849223e33505&projectId=03d12dc6-79b3-42a5-88c2-9b18a9e5f1ee","294C5AD37DFB4BDF93BB75FBAFE3F5C9-2025-05-15-15-45-49","","902","","images/causal_sequence/saving_a_cat_causal/saving_a_cat_causal_6.png","0","",""
"","","","","","image-button-response","109","730782","0.0-14.0-1.0-2.6","294C5AD37DFB4BDF93BB75FBAFE3F5C9","294C5AD37DFB4BDF93BB75FBAFE3F5C9","8f002781-2b45-4359-9b6f-849223e33505","03d12dc6-79b3-42a5-88c2-9b18a9e5f1ee","{""num_scrambled_semantic"":""8"",""num_scrambled_causal"":""4"",""num_scrambled_schematic"":""4"",""participantId"":""294C5AD37DFB4BDF93BB75FBAFE3F5C9"",""assignmentId"":""8f002781-2b45-4359-9b6f-849223e33505"",""projectId"":""03d12dc6-79b3-42a5-88c2-9b18a9e5f1ee""}","https://test12345.live/?num_scrambled_semantic=8&num_scrambled_causal=4&num_scrambled_schematic=4&participantId=294C5AD37DFB4BDF93BB75FBAFE3F5C9&assignmentId=8f002781-2b45-4359-9b6f-849223e33505&projectId=03d12dc6-79b3-42a5-88c2-9b18a9e5f1ee","294C5AD37DFB4BDF93BB75FBAFE3F5C9-2025-05-15-15-45-49","","null","","[]","null","",""
"","","","","","image-button-response","110","735290","0.0-14.0-1.0-0.7","294C5AD37DFB4BDF93BB75FBAFE3F5C9","294C5AD37DFB4BDF93BB75FBAFE3F5C9","8f002781-2b45-4359-9b6f-849223e33505","03d12dc6-79b3-42a5-88c2-9b18a9e5f1ee","{""num_scrambled_semantic"":""8"",""num_scrambled_causal"":""4"",""num_scrambled_schematic"":""4"",""participantId"":""294C5AD37DFB4BDF93BB75FBAFE3F5C9"",""assignmentId"":""8f002781-2b45-4359-9b6f-849223e33505"",""projectId"":""03d12dc6-79b3-42a5-88c2-9b18a9e5f1ee""}","https://test12345.live/?num_scrambled_semantic=8&num_scrambled_causal=4&num_scrambled_schematic=4&participantId=294C5AD37DFB4BDF93BB75FBAFE3F5C9&assignmentId=8f002781-2b45-4359-9b6f-849223e33505&projectId=03d12dc6-79b3-42a5-88c2-9b18a9e5f1ee","294C5AD37DFB4BDF93BB75FBAFE3F5C9-2025-05-15-15-45-49","","null","","images/causal_sequence/saving_a_cat_causal/saving_a_cat_causal_2.png","null","",""
"","","","","","image-button-response","111","736212","0.0-14.0-1.0-1.7","294C5AD37DFB4BDF93BB75FBAFE3F5C9","294C5AD37DFB4BDF93BB75FBAFE3F5C9","8f002781-2b45-4359-9b6f-849223e33505","03d12dc6-79b3-42a5-88c2-9b18a9e5f1ee","{""num_scrambled_semantic"":""8"",""num_scrambled_causal"":""4"",""num_scrambled_schematic"":""4"",""participantId"":""294C5AD37DFB4BDF93BB75FBAFE3F5C9"",""assignmentId"":""8f002781-2b45-4359-9b6f-849223e33505"",""projectId"":""03d12dc6-79b3-42a5-88c2-9b18a9e5f1ee""}","https://test12345.live/?num_scrambled_semantic=8&num_scrambled_causal=4&num_scrambled_schematic=4&participantId=294C5AD37DFB4BDF93BB75FBAFE3F5C9&assignmentId=8f002781-2b45-4359-9b6f-849223e33505&projectId=03d12dc6-79b3-42a5-88c2-9b18a9e5f1ee","294C5AD37DFB4BDF93BB75FBAFE3F5C9-2025-05-15-15-45-49","","919","","images/causal_sequence/saving_a_cat_causal/saving_a_cat_causal_2.png","1","",""
"","","","","","image-button-response","112","738017","0.0-14.0-1.0-2.7","294C5AD37DFB4BDF93BB75FBAFE3F5C9","294C5AD37DFB4BDF93BB75FBAFE3F5C9","8f002781-2b45-4359-9b6f-849223e33505","03d12dc6-79b3-42a5-88c2-9b18a9e5f1ee","{""num_scrambled_semantic"":""8"",""num_scrambled_causal"":""4"",""num_scrambled_schematic"":""4"",""participantId"":""294C5AD37DFB4BDF93BB75FBAFE3F5C9"",""assignmentId"":""8f002781-2b45-4359-9b6f-849223e33505"",""projectId"":""03d12dc6-79b3-42a5-88c2-9b18a9e5f1ee""}","https://test12345.live/?num_scrambled_semantic=8&num_scrambled_causal=4&num_scrambled_schematic=4&participantId=294C5AD37DFB4BDF93BB75FBAFE3F5C9&assignmentId=8f002781-2b45-4359-9b6f-849223e33505&projectId=03d12dc6-79b3-42a5-88c2-9b18a9e5f1ee","294C5AD37DFB4BDF93BB75FBAFE3F5C9-2025-05-15-15-45-49","","null","","[]","null","",""
"","","","","","image-button-response","113","742522","0.0-14.0-1.0-0.8","294C5AD37DFB4BDF93BB75FBAFE3F5C9","294C5AD37DFB4BDF93BB75FBAFE3F5C9","8f002781-2b45-4359-9b6f-849223e33505","03d12dc6-79b3-42a5-88c2-9b18a9e5f1ee","{""num_scrambled_semantic"":""8"",""num_scrambled_causal"":""4"",""num_scrambled_schematic"":""4"",""participantId"":""294C5AD37DFB4BDF93BB75FBAFE3F5C9"",""assignmentId"":""8f002781-2b45-4359-9b6f-849223e33505"",""projectId"":""03d12dc6-79b3-42a5-88c2-9b18a9e5f1ee""}","https://test12345.live/?num_scrambled_semantic=8&num_scrambled_causal=4&num_scrambled_schematic=4&participantId=294C5AD37DFB4BDF93BB75FBAFE3F5C9&assignmentId=8f002781-2b45-4359-9b6f-849223e33505&projectId=03d12dc6-79b3-42a5-88c2-9b18a9e5f1ee","294C5AD37DFB4BDF93BB75FBAFE3F5C9-2025-05-15-15-45-49","","null","","images/causal_sequence/saving_a_cat_causal/saving_a_cat_causal_ten.png","null","",""
