"success","timeout","failed_images","failed_audio","failed_video","trial_type","trial_index","time_elapsed","internal_node_id","subject","subject_id","study_id","session_id","urlvar","current_url","selectedOption","audio_id","view_history","rt","device_id","stimulus","response","estimated_stimulus_onset"
"true","false","[]","[]","[]","preload","0","30543","0.0-0.0","2ad447763340918A","2ad447763340918A","assnmnt123","proj123","{""participantId"":""2ad447763340918A"",""assignmentId"":""assnmnt123"",""projectId"":""proj123""}","https://test12345.live/?participantId=2ad447763340918A&assignmentId=assnmnt123&projectId=proj123","[]","2ad447763340918A-2024-09-19-17-17-22","","","","","",""
"","","","","","instructions","1","34049","0.0-1.0","2ad447763340918A","2ad447763340918A","assnmnt123","proj123","{""participantId"":""2ad447763340918A"",""assignmentId"":""assnmnt123"",""projectId"":""proj123""}","https://test12345.live/?participantId=2ad447763340918A&assignmentId=assnmnt123&projectId=proj123","[]","2ad447763340918A-2024-09-19-17-17-22","[{""page_index"":0,""viewing_time"":3505}]","3505","","","",""
"","","","","","instructions","2","36422","0.0-2.0","2ad447763340918A","2ad447763340918A","assnmnt123","proj123","{""participantId"":""2ad447763340918A"",""assignmentId"":""assnmnt123"",""projectId"":""proj123""}","https://test12345.live/?participantId=2ad447763340918A&assignmentId=assnmnt123&projectId=proj123","[]","2ad447763340918A-2024-09-19-17-17-22","[{""page_index"":0,""viewing_time"":2371}]","2371","","","",""
"true","","","","","fullscreen","3","38302","0.0-3.0","2ad447763340918A","2ad447763340918A","assnmnt123","proj123","{""participantId"":""2ad447763340918A"",""assignmentId"":""assnmnt123"",""projectId"":""proj123""}","https://test12345.live/?participantId=2ad447763340918A&assignmentId=assnmnt123&projectId=proj123","[]","2ad447763340918A-2024-09-19-17-17-22","","871","","","",""
"","","","","","initialize-microphone","4","39542","0.0-4.0-0.0","2ad447763340918A","2ad447763340918A","assnmnt123","proj123","{""participantId"":""2ad447763340918A"",""assignmentId"":""assnmnt123"",""projectId"":""proj123""}","https://test12345.live/?participantId=2ad447763340918A&assignmentId=assnmnt123&projectId=proj123","[]","2ad447763340918A-2024-09-19-17-17-22","","","e715e7b6e073e31fa42da6dc825d99d22bbf4887b5ff9e428b19d91304c4224c","","",""
"","","","","","html-audio-response","5","40759","0.0-4.0-1.0","2ad447763340918A","2ad447763340918A","assnmnt123","proj123","{""participantId"":""2ad447763340918A"",""assignmentId"":""assnmnt123"",""projectId"":""proj123""}","https://test12345.live/?participantId=2ad447763340918A&assignmentId=assnmnt123&projectId=proj123","[]","2ad447763340918A-2024-09-19-17-17-22","","575","","<span style=""color: red; font-size: 24px""> NOW RECORDING</span>
        <p>Please test Microphone</p>","GkXfo59ChoEBQveBAULygQRC84EIQoKEd2VibUKHgQRChYECGFOAZwH/////////FUmpZpkq17GDD0JATYCGQ2hyb21lV0GGQ2hyb21lFlSua7+uvdeBAXPFh5z7a6qbrACDgQKGhkFfT1BVU2Oik09wdXNIZWFkAQEAAIC7AAAAAADhjbWERzuAAJ+BAWJkgSAfQ7Z1Af/////////ngQCjREyBAACA+4P8QfwJfYXKbWv1YzY4MKYmFIoZW0Efi86govsE/0X3CzqdX0+pliJy8El5ODuxE77GYh0eiJz9dv8e8BzFBgi6jfZKth0nXvVT82U3RDtUaOkJ8y5YCkS3MghnD2ZOKUsWY58Pkx6rA+rJBb7LeutQXD646QEV4bhh/hJXJL04XyWqFeSv8j9Q1ImCxHPyQL7VE5h6tR60tljv80AEPqOn0cVOVmyGM/KhXp2R3qIAAAAAAAAAAAAAAAAAAAAAAAAAAAAAAAAAAAAAAAAAAAAAAAAAAAAAAAAAAAAAAAAAAAAAAAAAAAAAAAAAAAAAAAAAAAAAAAAAAAAAAAAAAAAAAAAAAAAAAAAAAAAAAAAAAAAAAAAAAAAAAAAAAAAAAAAAAAAAAAAAAAAAAAAAAAAAAAAAAAAAAAAAAAAAAAAAAAAAAAAAAAAAAAAAAAAAAAAAAAAAAAAAAAAAAAAAAAAAAAAAAAAAAAAAAAAAAAAAAAAAAAAAAAAAAAAAAAAAAAAAAAAAAAAAAAAABSO0hxtGIG2j+PhC/F8K+o+KHBDLTGZ+u7g3VmwzvkgZ47mozJjzBMKL+ts//2a1BGgEkP3uk9e0kVNtGSgG+XzssqMccRleR2mJilWa5yN4ii0uqlUWjg0sY18bYfzPE5eIY4QJkQACQEABuYcuoBuGna6vN2MFHuM8i0JwsHrdxL+icLySBKCo9PqhLqOGarDZDTkFQapnzbJ0vpX/d/HPooQlaY7lKZAvtq7JaYO8xtqeknUiYEelQarlN5s9tjh1XuyQZN4zulSGX9B+N/IlYa8elFrXOJZ46CBArNyjaIbZMTeu5xRY6f1aJ9/FGmsJvi2JMYgbOnwj5wQu+TR857agiFcQ1LOJsJqcwjUHE/+ZNmp8Q20zNxd//PapW4cTBhycVALzxizOfEut+5lLELzaumMsaNAlQgoU0pGDa5D5Djr4ngoT9JpSYBhr273ChkTnv6+BnRlfwWvZWrO9oYJwjDDG3b3qIqxAIrCxo5tLMLB6TmdT/phNbtvz9SIlAHBNBYtGvi1KlJCT90tQUNr8kaGljoJS1ouNnniK+C6maz3prxHTLGYRmjb1EI/oBc39mV9eckPdVkysS9sOhJiuro1wcNxq6RmwMtjL5v/fVwYqrVr5KpD26EdvSVYyrtg0W0kRejUFQZvQdi17Re18dqeByHSg17Ok3mVfYhLrMz2EkWwtolxZH3h5AXQ09OefBGgDa22dwT/eFGiRaukrA6KW1dYI3rf+CeZYWRmc6j70vwozbCI+2y2lNKoem8YtLVdTLTNOoomldKSZxO0P5o7aRk3kemGLBfdxcqtsPw6TBxJ1qKi+wlmEznsJFi2CX61n/Ps31dsGFmSF5OX9vD3bLUmaPH0hAuf/mPxutbJ/WF1yuIq9OTjcqi+MMCDHu466gCAw14tcIM2H0Zbe4KDKTrWeT6NDeoEAPID7g/0K/wlSuFJo0TROYGookE2Orho6zPfqufch2Pn0FdZicAojiuhfywpUZk4I2h/xuS3Mnvbw+DTLX0jnslr+TmJ+g0Q5TMT2pfgwwmOPw7nuQ4Va9N3ZFGTToTaA95whgAW9ENoN1WtynZaT9u8JQgtNVXGhErS2e+4Mt7mtc+WZE5v+yZBO9cPyNTTHi0+Oqgdwbk1yXRufpe46IsIG/LsOtiecW0/Q/H2aZAI0wuy7/DeCV49x1dfa1ID+ZbvsBu3Mg7IMaYKw4EhVrV3oHcnwLOcjel0LwZ+AGD+//Zqw4r4XmYMxfMAvqAuE/tcFHtesizXqMqRlpkB+fPQNkZIezJaga727bjM6RJ6oETKSCU61LwcJC4ggshiZzkAQoZ+epwa/NcjzXBgyrH61rw/CDDBA2NfjD7qpMZZHSQRbyQW6V+SZCBQYVTwS/j1MSCfgW/7Zp2EnDLxDocGhFt+zYoid02CgEMJfE4tFeG0kkyTX0eBAVlwf/tBZOHwJzliEag1wiOHLksKDzMnLlir1vPNJlazr2Tg36Cjs61uAuEmcRP6w3dSZlJXwd/E0QWpZJoAJWQnaxR154L3ku1fv+bE2LqEHx+ZjbANp01OT8pPk4XIRO+b2YTV0QMM4KcUB7VtIjLkTs+OPVHsPV7UnG7jOeTZqQwNjzQXy7lECKC9gb3PjFXjNs0yTbEwU5skVIe0GluxY724K5oNYLLuxSNkZz5EowDIlAzIlT9fYKUfbC5fXRNJD9+eq9R2sfBwNGYLKSjQiGVBr01KnqOCmTYXGJpchZR/W423JaKc7eUQrZX2t46PK4vcjTWniuwTKE2LdZdxnjb+pKlsKvk+VhoyqE1KwqgA7nbQewHOX+sdbXj8/ux+XARbYrYw0xw4SnGJnXCso5hVihH6LzNfcyd/QloafZ3GGAUOH6IHcTQPr+WfGsvLvPpMQNB/xBXskCYft99MZQm+Y7tDmtPoQQXvYLyXk4ix0BWWIuFxzSU5uJMCqNHWIsEsvGPWz9l8OSoVLOy8Hm7d+mb6cxPzSTyW+kjhpW8mg2lpEriWsjqwuyJSZx0XpIS2f4udAlRrDXqhafCsB2bqmVB6WqcSi8/1h7muwC1iXB7Vf5aoDYSErRqFhPZNNFDQZfEy7yvi/nNtkrXGIY5bHoTyN++BQXJEYo0OYgQB4gPuD/wr8Cz5W/vHxF3kqPNUHdlagPDWUQBpbZI5S6Wac7HUqZc6bOwf1KBVBlqR+LLygeUW2elgoCe7DKFNHe5KBaOeN0f0c6ZqlmYGPgcw1ik07lN1muTLCJhvCNECqoi2RqrP+sRXcyzAT1FmPHmPNmlHMY4+/WRQr37en126TlpSfki04F93xpfeRX2lVHKbUdA5KV8hB3w54EuowdgIAm7MKfDWpN1EDkgsjvCXgZIIJmhJ2bUwSfYNsKP8H3E54OC2OG5GYnTrYTkaaj7sOlCUeg0zUxcV7OAwLNzbKI5lgkcJh7uwgG5rSA/sIWkHNTgzhYIJCOnTe+2ID0VtPzmasKIT/tjmiiIBwsGomeZ/9itQNCI8lk3Myd7jo/pBhyNPKwA+JJwNcBjxbAOAvbK4Zr3o0FnTjRYo1k/QRSAvBuvhX0zl/i9cwGWv1pxo+iPd1fizg1KPZCDULG5jmcpTQtU0mOnEfC2xxGV0gYlfA5jymFBs65hecgD7anuWSPbDNLBUmUJZ65SOpkGXLJTROUMChhtCmo8EScXBcuHQeo7ciA1YucU9XhUxw0/fk4mqmc9c8ypSRWKic669KliVvTMKe4/0f7UFkjNBNWeIjXrYuRxv+C/9gENhaaNwljoCvI3VoLarq+yw9TLmTlcqJz9jKT40fbSVGu+kCgnEgrhFhx3Om+w5eR16OE2Leeqm0SM+CvHbksRjp2x1ebksnR0/MX9ALkif5l1tAta3c4SXt240uSbRO61zknOT6S8bxtWA/Wy/LzIa4yDonkHdj3TuOoBl7eLVg6yT3gHfsX533lC9OoFBAc/HX1vXf7yLap/YFuofIe3LBbhbuXV/x2fl1I3EiLo7526hkc9/8PuiRJttZduxZcgLeZgyG486NgtN9wH7mZZN7YNshYfQKVWE978u77fPs9j16tTFfm5KXoy7m8kcyzFmdpoBjRVr6hxNV2Hwh1Hi9SPSuB6+poYCYJzhMS2heI3HLDllooK0K+f03+pBm4AUlRZzMNX8OUt+OBLAgiGXNwRRnTZpeg//3P0fcAGpimbkZ/SJ/YO8/Wj9KzuO/m9EQxflV4r5xUn9aXKJQDr8BraDyIYU4ueEcIm5Z70uihEzgd+RIILyjxRmnJxihDW0qWk/x6RQ1B8uzk8wIFjukSR3PiKjoqtahANzpDAWkBXUDRhVPMSinmNUfMB0fIaOKfFx5WM2jQ8aBALSA+wM7Ywk8tyYyw1mlZ20Urqivh2wgGB8hKl3+5Xi/ye6nmU4mtZW9ySuGHaHTJPI12x2taD5Ca95atqPxlzzNsRkyBR0+ZquXJTQIq39yIEefI9ejN9fZ53tgZ5krH2U2+hkbwsVsCp11gH4ZGF7JQRjjowBi56ASgpwRPhwzjEvTT9gOOzaSl5sUZCrDgKLAETD+yuWqE46lXJkbbEdMqRzsoSRFMtRnZEvuojqOm58vS+S1GXQLqTxyqHcfpXVREGTGGgIyIjY30SLJ5dOE+0NtiZHoXFQ3/Z5uXiDmif/tfuLQ6DpbLgCILmnuNQrKQSWkLBfLQ7gpi64QSRUEjQecTM/Tl5Du9umV/bKAsweV2Gip748kQ0hk7eK1L5CdzljDycIXIt3wfeIDMvGTHDXkcfyiHBHZBf+d6YCkoLy2r1OackdMPX224TZU8FZH6XxWg5EVG5m9ZG6bdOfUWgvXrQr07pJJ1ug0Ii5oOzwEwsIDiteCedLF9ggJRBuyLlyicedDz3Sej6vxFXaBdbGcNsMY5+kFbXT34eEqfGMDRRshVpze2c/GTS0gsKeoC7f4YeqMp2HJHh5PxpE0xDtqugyPUPXbWbMyOECPsiy89CDVZE2qal4bFfLv98Ew5JFcuji3LJplqP3t8+xvvoe7p7Tbl0D2Io4bLUoyY83PsSvbyjPisKJoBJNtL8jcuR+7Z0R8ih/XodrSVMkNYgOEBKPy5g+ts09PNHoFwPMlm7LJALCsYwSjnDwAOtnh5M448XHZgRprdLXyAMaSoL8RBoqxxDJ8Ztk1w9+aI3ERr78sCOGUaWWSgOirt7LsUzYtPJdyq80McQvf8JFyTR71E+NJCjwrj8fn+J3fUhSV0JArEhuo8Nr1VKcmquM5yQkiHSujqjOYBgTWfSblo9u9pKoypoleevOOWdx0lguQqE2se0o7G1oOe847+AyDsktmQK8KWDL6CY0Q4zUeviamoBeaYgG37KC5Ai5cq4XVqyx1AJ92Q0jJxfIcHziVIIhhvNLHWFknX2eLxSuBOu4NyAFsQl4oSPKalH2VwUmGvuCjNzRv4CpW01bA/EARryICm7kx35vfrPn+nZu2IQqCr9q1RI2U+BROOcmqhE0HZb3Vm7TSDWZmHYoWh9lJBRcy4GS7Mji/vovwSHKrXOvDIxhN1sXG1iHOtGzUD3qARkhKZoeQBYG2sbfOHGwPSHiguRFo8j2r1osACSYvw953lwj2hQYOlcZw3iYNh2/Nlyorx7UNHwtiEcoSKANIfhWjQ8aBAPCA+wNTW90QU4kDvQZH7cDzC3+AtpmPsYli1zhKBtrq3LX+oojmDjzzmyp0/cfREr7wILKptxSRifZ+C5SMFCpka+W3Jycy5MC39kTRJhxRx36eguu52PVIbhTYIFfo2I5ou1Azn8Fh6CBT3Vktz+UknspX9a9xOvQHv1RshsLgr8evQilic2B9N5aKKibgYpsyNRtIDeRRtJLn15pIvwARPNXDe6giRn/rFzoC7tKlkj6IiqeyGpFnc0WLa0ulokd005ohJNsLawEhxcVolHlwiHyOc2sIp+50MhpFTGgxhD/FRwj+Lr4M/LUwnUZHQtcU5DszodtKpZtQlZC9mP6zVs/8mtgF4FqRMZ3O2vyKCBMYnmLexlNSvK0MKxTAa7SWcDbRHTSS5Sovvj4LiRadrmhHkmosB3L9BA84K9loyF0QLFEAkieCFhfjUFtsPeMTAdj1WryjCjT2JC3gGqFlmFQL5xAHBuO7PnLaJWHP9RYlxQdKzBFOTBBDxXhv/SFFdWo/B5ono5zsAcQettkz15/P88G12Flu9xnNaN1X7noPZYo8+AzP28Vq0LfeVtXbVez9u0lFBA3OdyBZcdCqqqxQRgGR0vFtpKxQ7vIulRaf7rOFzVp7yxzphe1yu1Fmx1G0Xsntp3R3ZaiSkvwo3bsSKJenfD+D0NaNsHkveBNud6i0bOSJFGvqq6W3nRW7AiaU4DdZJ2UWq1NeigteZSUzSPcyWQ+flJ6ULokMZK+HSaO0C1IlNxpGju3hicX4iZT2o7vDSPfMyQ/e7HASseNZe58IKxtlW2z/wCkBYKud/e6udRHDNE0k6VDIBvRXVD5e+3MOPIsr9D9ngOPoK1M5Oz6dNbJ9fK5pbWGwCe9L/dftwFxLLrBQzwNJD6lDalj2fyjbhLSeu8jAAo4z0roo59kAgX51TeCqOa/U5v0EPS+XmPX0HRMhXQgguOmpiYnbCnece9RF3XHUbHT+rPQTLRxNVxEOZj1p9hfh1xS/hOrJbsbYYUFN9a0CjCMLwX7bJQ+y/fdXsqT8mUZUJEQEKkr5mi2itqdX3tnKPQR+fWfIW2w00uD4vrtD8Osti/XcKJmlEToYprT++WW3reXeCpciNqZxHphU16tKz56NTr2XzOWjKspPkHEnrd1DO4N/eNvqnxpuN19yRMkFbyOH9apt/RjRCz8naJUa+09w2ZZBKw5mxD94pq/7rj7G3vci3uaXs/fc5L8VbAGE4DZCepMVwc/78xBqmetBKoGyXyhXxpxCu4khIRASnB4PeKijQ8aBASyA+wM8bIVPEuPvDvwM+8rGRbe9wuB/Oij1BNmPWTygyko5qpaLtUQtO5v/jEbIsd3bYUBsH6Ms91Jkpts3Z/rQOAKfgWPI31gRuFj3sVH8K8bqi9wYTdIOuJflgnDKG21FZ3S2YrNTh6HX6UpfrPBsqNL86Cx8EEYD/h3Y4tW2wRnYS6xGKAg4I2fyUEpSuYOaLwM86lP1+GL+xkrjxFPBzdhssMosSmNHhgxhMJIKgMkNaTAwKF3GoUYiQDYvO8knCY4ZspfqbYiiMcNPVLnkQCxC1cs2r9jO7mVL8xDGemyByUXOBTjj6OG8BhkeRowgXHkXGXARazP0q9HH6kADzK1EvnMhBo6TXxsRtGCZT6UEW2s+WTb9w62w8Tv0PJOgsrlEJNxSqYmdHZzh/GWXNhPH8+5BMlPqiivy7v9ol7BwnVK4jiI+tK8zQWNd+LCl8Rlc3UJ+8bh3uKOL+22DIGdfPyuTyx1WhTsJzz96h8GdeSDbh9uoWLN+F5ds77mag6MVy5D4wZordwMdB4g/H+2PUk4NLXXg6InhFqTvvkygt7xEQi1FsS72maTx3sg99tmiYYKZTr8qf8pgj4mhcM+ZKFLYMsqKoLtQtUPKxuaVb77Ge1MFZesnEf856gvllTX2lV2/Ch75MZj3GEl34NkK1SArODAYPbNHsxs7nu+PoA9FxZOQJKfsICthI8UWvatp4Bwna91VIULjCdHi8Nvolst+1lamhUB5+fRGt6Bh8LDzXdxs6Z3dKA7xHqszFD7Hr9MtoMXnKfWUsYcun6MfrgrMmon0QZpaTH3ZU62yYGse38TzJPhWHGkArCiTNctjz1qEGjyKI706WSQb1GhtPjaDR40WOvwLuwn58sAvKjPrxi2CAHi13vf4z6OwNwsgQFzcKBRyBjrEEAaBlMPDRq1hCeZ9G3/tGpcvifG/ZYOaiqZFGeNf0TH+C0bM+3fu88e8Q6uxRnFiwtRF1KTV5mTuO51jvWxtZiVbDYBceN/aFsiK5yZVAZ1rUvlkHERYquKNZEr1CCo47fOiHB+qLBv4UYjjm1JppHl3z80gg+vdDGkc7rvSi0moDQ3x3s7wx7T7hvE4ZbVPo/pYWj8N+lCzigYk6aB3AjbpvCv02Uoz4wHW2Jm8asMEZwWvqMgMP5lIhdSr0gvjPnykDwsteDdP63Ln4jp5eYYzOfPtqxKx455sMY4yFISr67qipmWVwysEK3ZM4inScY8fXtD2T436/qwmaWR19qPsieE/dRwttR8LWfctG6vRbqFQkbCjQ8aBAWiA+wNS10JJw50MW+r02FhV8HBVyvJVRc5hLNzDW+Fks5WhyT3NIikdLg8oXFvdbB9CaI5rd3PIaxX10FF1blr8b88BVE/cKP+RyxemC8RxNoWqqWYq+Nbxc0tTv4cpzxC3QZoYYbY1bLT/XThMdUYCPQypmOG5UKQ1CK6Ub2nrcMXSsJl5DpfuDk1w0GA6BSNGsPntmNaK5L/nIQ3llcKcSqFtXKfjXQYq7Ma6qbk/8Huz/8LwClS4X1xN4WjPsXUSqG1mLqPkH3AyrgAdh+wrHQdVgS00wk3xIINfBXoaZ/3GCTvvCLv323WbItsWIqNIRJ4wCsgOyxlW/SEfglX4q0q7LeRmjAX2kbjDQFDX45QPgXFZ/WtySTVEPGni4jhMcWlCdrKOf9QIAygMbUDKCAOZl4C/ms9jjVEQGnG5MraBrzucXA9pLsK8lj1GZEwtnPLOX7QzTOE9Xc86EHdNWj8dmJjnpcBEK8UgSlLbM6oCA9d/G4Dhcgp5g8lzMGhJc50eXbW+OuRervItw615wA6ccYavhSdetT9jKasWjaA0ulJCQv57+N2RaIdpX9invKjo13BDha8KB2Ol9KldZ4vzPphXuzkjcj4s5dW/G4T8aQObIhkgNOBP6vT4Bpsa6U5EcJzjgLIsOW1BTTagPM3DQequKRVPqS74W4C+iOtTSA0/HQGa1PoMZuaC8wQb7pqhtlutNfrQgtRu9/PgUCZ6rTL9mWld0/Tf3wSrxLYTfdVjPQjR/+9g0ExX/REdc4d8SOhTE1c1Ufjyn2+P1aMquujTRgeFTeCIaa8HWx9VrE1YycQF18911pu4LCYNBe1e2fcFTwcHK/AQiDFlmvKWPfgdGkZC7O1rMSmkNphJTnEw7HBEt+E6QCADoiI2up8GXPQBmNYyXRVZKDFTAL+rd/Czy301ba3Jj9nIYZU/w3yxAmzf7FuLmjuQfrI5N86SoV2OWPhI/0XNf0Ok/gEFPC9ZXQrLy4x7Dg6Vh5L+lPzaTtMH8vxnH0kNkbfnK1kKSri/P1zm9jJ3JpSvMqcBcs+D9lJPlhcb3tWOXd1h7MOFEGFx+h/ENE1xTlJs6BrIBwBhPFVnOjnZGcAOljuRLZhKui2u41/yuly1u2ygi8/7rKUS8p88bi7kcbDcz6vJwqlzK6tlAIrl+MiihU7K2CXOz03IH40U3mVpo1+Pn5Wb8f3+6S2NSM5F9jtiujJZaeunfS7mJSQNLshWfgta/bR0Rq5AWTQKMVbJTyJCZjsFVAju0YsOTNyMfzGIZVijQ8aBAaOA+wM8M3NHbS2IpFQr2pzxfalJdOEKCmgpNjb+D/E6pnFVCiPdXLmEDJxQYGgy1ztjOPXf9x7f5uSpucjwzKUG9qRBktYO1R5GNG9BiyDR4EeMRvCctvAJoW4DqDZNDkmVO4S40cyrDJw4V9l1InMlv6gJUgnPesrbQQhKZqI/96bLigiQ+XSF8465qj5bCcJ1VwPr0kPszfh1B52v5AylGHvWcQwxbOd1AyWI3IdnVZ5yFP8BkgD4fGW+k/p6HGzZr3APaYpAVH5p13dmOn4ARFVrhLqA2zU/nxtNpZBK1WmUZo16KI/1L52HY1tet31Ub1NrVrlddaYJPTQm/hddepke2omuluK3AtP/HpxpKgSYKk+KuX+jCT/68c+xcRVtRFh5NomsJJL5dKKYhsLcbJwXiAI0PYhYCFCQ0BN8ggHlmFKZNIzKN55R4cBmt1+Zj9MGSV6aVgzlaF2Wk7hEAYLjhXd+XZ6xNIYRmY+l6UfBw70CvcM57fzY24SieqmXxuFDqqRvJWQTRz9tQ0hgIRqOkoaEu1C/Ck6WYr+owkR+x2KMJzSmBHB9Qxf7ldaiK3HqUPEQ8RWiMh8ln4HcWEVfkxqsV+Rco0o+Ixw3kpjD9B63BB9zFG0XkT9aHgbw+FoS7oAE7g7kkKpJm6WJ4I17gLgHJXwmIc53VSxf/Nc9GaEmFa1a/SEo2n0tz7mGklAkOjzbR3Bm8ggTD8uDz4dcESLdEluGzvvzw9xNVSJlVo7eqfM06/gJGwiy4yXxY4upEKGymU14cUruAc7LBNllBpstEs905nWk4Ceho4w7zfxVTlP0rZpqPyhI28fUwS3mgSc62TabTOJQ3wEa476rO2PkLMnCroorUTiPAk6evEgKjO1z8rATrgMtLNpGBGayHPrc379HLIhmqDvTSJZnBtp/8C2+q4CuJioYbrPPRGB2ti9XNygvU7VWBE3FSzLPruDymxJ6Q+tZlNHi4Gd2rMeXh8DZPq4NmGbm3aK6sqNS1OCD2nh6K69114fMdJeiTHGyWYgYVyG5sk5Jt7PEzHjZhth7FoeJQeFCXkdPDu4cxtaishgTLjdCeX074MXUBw91Ygwc3QEBGYmddxvMrbtFA619P74JtbDkfjKnDK5eonNkzFEa9/3uIBJTY2VyIgBXGqsnQTvBRX1fixfO2dAIefxG9zH/InWy2IdC//deLhx8FCqN8EFi7MTt8iI0k7AZpoIqzyD074FfX6HJCNXGExro5BKnYbkkJHek+/2N3ig1oPTOu+4wtrdkGDKjQ8aBAeCA+wM9Jcr1419lX8o//xLfGtpn3mrQKL6uAyE84Dc4w/1a6q7eXC86DG5waLj3VPqTBP3MQMZYtRewp0+BybvdLnN2FYo4LhJz7rm4xO4Huh1y17IUtEMq0sV0PA1UZYaOeMzqqY7RNwPjNLcIDBq8HS8hGRiII0HaLowH24DQZosWt7rzLNKP3Q7snegdJ+zOrBlBtDCjghut/ZWiCXlAbCexutEHEeW6ELDMSbpp+L5bMcmMaa07GSmWC5f++RfmnWo11ucOQlunLFsbamEitWoZ0iHCdMeu9/OlrT5w3AFmTZwKd9oU8dFHtCM+aFu8ReRpDrQoPOr6DKdk06ECBMuJChad1vvRzL0Dc7qP/DHfvX/qYYY/3323q1hfw/1Zt+emmiRfz+s1YKyMwQOm67jZ1NmKfWt+e03SIKpUg6HOGlL5Tei7tzAuaAedq5q/lVbjZyaKXNLTyqfZw+oV4nQiRFUGBHmdXE56PddK4RZa9AvYGpIcAEXZYqoLo/vrSkIjqRtsJQMcjWDkBLbF8bkflcWQUlhNfo3JISssX4+1vDCbYL5bZEg/jIImKERdR/iCgB3BBYXvo1A7GRSX5owP4KEhT6Ilw2Dl56ttWIlajMn3jkceJQWkejYNxuLH2SD/l3pYRvtMwXobeGW3tEHscuOpulXCi9/2Ukb6rLLxQRNVsaWCXrHm06+Z2UYknrQThI9MzE7EqnagijB6VLggVSPPMTtGLabp7KS8xbrKef2WGAtnmPhDJjovYhUMWd5k2yz0+fqUYizAe94Fwdz2t8YsR9HG29M+x3g3wnD1MiOb/4ZVbo769SZI70EUrttuDTlj+8sXHCCeaGVXay1+UpCSPWCocsyJcxOmlqtrGQtFFig3dGjU6ed5T8lOiXFpBiUHmAGcMbVM0LaKS2+F1CL9+HFLFkb8jyWb7mOSwScnhtuK6LHD6eSx6h+pRETRB2DvgW1brE3G7L6wDKqNyxHpcNrlwniNuZpmbh0V4YSAOmo723AMzE44qYpNGS5a2p52JhGC7qBQ0m0JdniGgcGQEez+ULyilU3swI2iiDwNkrHmrvyg5xcqKg7oYgnYIdOY7BaJpbWL8Vgs6WhTV2V4JzcV3NVyfiFRj1xMFsmAwHRnPid4cwX2pXcW1Vc/mObHhoi2voi94zacv4yTbXfl7PzmAcJAKTat/ZDlXkKYb2YAdwsUgFTeq/Jti+mrcc/cdBPuIo3zm1pSl/ksLK87MLr754KsAvT75gU2ncZECMbP+Quw68+VW9fD++2jQ8aBAhyA+wNTTk7r4ICWMHPFlTt2zl8et6BOY3cy7CbAUQUuq2WoqBmr4F/rE3UHSo39T3JC0lpFI16+RQpr6qe9WQLhBuZdsxWHNp6mBxgsYq9ysfOwZnxCJyxNSvPGFazq0DzYSF1tFUScYfcLJL+O/afjN8NMzr15NNhiK4lp2alROyaG+OtVPDHHlgtt3gGryiNens0eqLNeOefP7dWvhiq/I8HLjihl/1ooEH/EG5hKKMzUePEnaTteyMmsi1OdEBUv+ckvoUDxIuXW77ZwcsVaiLjd10TVFVh+yOKjq1MYgHtBNHtjM0j8XNI3HN1+JLZqgg1wCbh3+9Ec1jcOMiNzXHOj/bhO5767qHzCPXxq3tiDnp8EUPGSsYEKrTF1rW1wkSJaUO9UO0/uwB5bQ7x2X7wgf//STQh0TyZCgCIyHh7mzj2ICjVW+W5qfgn2o2+fyaUbeDJTSjWobQqGGhs9aXps3w26/vTB2J+iKLj4dJj07hQZs5q9pQmsNO5E6sp9e6IrtMtUnRtHdwZJt1ncRGcYLOF4qpiQEGNMGweZ+NPxb8SNRTJcTD8gF8lnkTcMrdaqnG1nFplt0Gh7hF+vm53BKkxJMzEW/2uaoDPzB+i2RtSc7EpNXa6GQ/WfdeY5t/fye6ICu//reNVmlY9xyEIpPddjfLDY3Q4A+5ioe6FZmypJUQm8H13AShMWrz3S9unAwDIQnOUmYF4rzucpmkM6MRVrSsUN7I8pcSJJGpR8HsYUZC8UUhPJ9usUQujH8uR2cJmmLHSbIUa079uU9A/6uSrNc00IK3qGn+oZZ+Cz7ddVuiivxA/0yhRnkv5draeDiQr9q9mJCPI+rV4c0Ss6O04wFDW2I6MADn0ustufGNTQMyxpLFaqkNUDyM/4eAJ64eAfn8OesFmu7U4y9bQKHTtst85kpm3+RedJTa1q9OqMYe0S+T9gMsKsp80p4YI3Y6mmZxfL4B8mg04OKSbwhXTIMdWsGN0YjMlnd3uEyvoFDhClqoBssiFxfFqnPtcm0QZyzhzUKp373LGhuk6MxhrCwlt96hb0hmppmDRl8e182Ws+yr0fgVUgnM9D0nGZjdZwIiPZI3ux5I905qSOCz0AWFjo84TX7Vk8CDUnGeT9LGonr7TMo0NgXyzTu5Ft4ypfSEpTuZdZUiSC8jGHNBS8IPMqPzwv74WWbHslL9r9koYEwWaCFcPClsQfQN51+hcz0St8vZXihlPhEYst498RNH9DSfu6N7/hUWDnmT6czpP8V3gMhBZNR1dhlGE=","3"
"","","","","","html-button-response","6","41584","0.0-4.0-2.0","2ad447763340918A","2ad447763340918A","assnmnt123","proj123","{""participantId"":""2ad447763340918A"",""assignmentId"":""assnmnt123"",""projectId"":""proj123""}","https://test12345.live/?participantId=2ad447763340918A&assignmentId=assnmnt123&projectId=proj123","[]","2ad447763340918A-2024-09-19-17-17-22","","823","","<p style=""font-size:48px; color:red;"">Is Microphone OK?</p>","1",""
"","","","","","instructions","7","43751","0.0-5.0","2ad447763340918A","2ad447763340918A","assnmnt123","proj123","{""participantId"":""2ad447763340918A"",""assignmentId"":""assnmnt123"",""projectId"":""proj123""}","https://test12345.live/?participantId=2ad447763340918A&assignmentId=assnmnt123&projectId=proj123","[]","2ad447763340918A-2024-09-19-17-17-22","[{""page_index"":0,""viewing_time"":1214},{""page_index"":1,""viewing_time"":952}]","2166","","","",""
"","","","","","image-button-response","8","45268","0.0-6.0-0.0","2ad447763340918A","2ad447763340918A","assnmnt123","proj123","{""participantId"":""2ad447763340918A"",""assignmentId"":""assnmnt123"",""projectId"":""proj123""}","https://test12345.live/?participantId=2ad447763340918A&assignmentId=assnmnt123&projectId=proj123","[]","2ad447763340918A-2024-09-19-17-17-22","","null","","images/instructions/movie_0.png","null",""
"","","","","","image-button-response","9","45453","0.0-6.0-1.0-0.0","2ad447763340918A","2ad447763340918A","assnmnt123","proj123","{""participantId"":""2ad447763340918A"",""assignmentId"":""assnmnt123"",""projectId"":""proj123""}","https://test12345.live/?participantId=2ad447763340918A&assignmentId=assnmnt123&projectId=proj123","[]","2ad447763340918A-2024-09-19-17-17-22","","null","","images/instructions/movie_1.png","null",""
"","","","","","image-button-response","10","45495","0.0-6.0-1.0-1.0","2ad447763340918A","2ad447763340918A","assnmnt123","proj123","{""participantId"":""2ad447763340918A"",""assignmentId"":""assnmnt123"",""projectId"":""proj123""}","https://test12345.live/?participantId=2ad447763340918A&assignmentId=assnmnt123&projectId=proj123","[]","2ad447763340918A-2024-09-19-17-17-22","","null","","images/instructions/movie_1.png","null",""
"","","","","","image-button-response","11","45516","0.0-6.0-1.0-2.0","2ad447763340918A","2ad447763340918A","assnmnt123","proj123","{""participantId"":""2ad447763340918A"",""assignmentId"":""assnmnt123"",""projectId"":""proj123""}","https://test12345.live/?participantId=2ad447763340918A&assignmentId=assnmnt123&projectId=proj123","[]","2ad447763340918A-2024-09-19-17-17-22","","null","","[]","null",""
"","","","","","image-button-response","12","45700","0.0-6.0-1.0-0.1","2ad447763340918A","2ad447763340918A","assnmnt123","proj123","{""participantId"":""2ad447763340918A"",""assignmentId"":""assnmnt123"",""projectId"":""proj123""}","https://test12345.live/?participantId=2ad447763340918A&assignmentId=assnmnt123&projectId=proj123","[]","2ad447763340918A-2024-09-19-17-17-22","","null","","images/instructions/movie_2.png","null",""
"","","","","","image-button-response","13","45764","0.0-6.0-1.0-1.1","2ad447763340918A","2ad447763340918A","assnmnt123","proj123","{""participantId"":""2ad447763340918A"",""assignmentId"":""assnmnt123"",""projectId"":""proj123""}","https://test12345.live/?participantId=2ad447763340918A&assignmentId=assnmnt123&projectId=proj123","[]","2ad447763340918A-2024-09-19-17-17-22","","null","","images/instructions/movie_2.png","null",""
"","","","","","image-button-response","14","45785","0.0-6.0-1.0-2.1","2ad447763340918A","2ad447763340918A","assnmnt123","proj123","{""participantId"":""2ad447763340918A"",""assignmentId"":""assnmnt123"",""projectId"":""proj123""}","https://test12345.live/?participantId=2ad447763340918A&assignmentId=assnmnt123&projectId=proj123","[]","2ad447763340918A-2024-09-19-17-17-22","","null","","[]","null",""
"","","","","","image-button-response","15","45969","0.0-6.0-1.0-0.2","2ad447763340918A","2ad447763340918A","assnmnt123","proj123","{""participantId"":""2ad447763340918A"",""assignmentId"":""assnmnt123"",""projectId"":""proj123""}","https://test12345.live/?participantId=2ad447763340918A&assignmentId=assnmnt123&projectId=proj123","[]","2ad447763340918A-2024-09-19-17-17-22","","null","","images/instructions/movie_3.png","null",""
"","","","","","image-button-response","16","46013","0.0-6.0-1.0-1.2","2ad447763340918A","2ad447763340918A","assnmnt123","proj123","{""participantId"":""2ad447763340918A"",""assignmentId"":""assnmnt123"",""projectId"":""proj123""}","https://test12345.live/?participantId=2ad447763340918A&assignmentId=assnmnt123&projectId=proj123","[]","2ad447763340918A-2024-09-19-17-17-22","","null","","images/instructions/movie_3.png","null",""
"","","","","","image-button-response","17","46034","0.0-6.0-1.0-2.2","2ad447763340918A","2ad447763340918A","assnmnt123","proj123","{""participantId"":""2ad447763340918A"",""assignmentId"":""assnmnt123"",""projectId"":""proj123""}","https://test12345.live/?participantId=2ad447763340918A&assignmentId=assnmnt123&projectId=proj123","[]","2ad447763340918A-2024-09-19-17-17-22","","null","","[]","null",""
"","","","","","image-button-response","18","46238","0.0-6.0-1.0-0.3","2ad447763340918A","2ad447763340918A","assnmnt123","proj123","{""participantId"":""2ad447763340918A"",""assignmentId"":""assnmnt123"",""projectId"":""proj123""}","https://test12345.live/?participantId=2ad447763340918A&assignmentId=assnmnt123&projectId=proj123","[]","2ad447763340918A-2024-09-19-17-17-22","","null","","images/instructions/movie_4.png","null",""
"","","","","","image-button-response","19","46296","0.0-6.0-1.0-1.3","2ad447763340918A","2ad447763340918A","assnmnt123","proj123","{""participantId"":""2ad447763340918A"",""assignmentId"":""assnmnt123"",""projectId"":""proj123""}","https://test12345.live/?participantId=2ad447763340918A&assignmentId=assnmnt123&projectId=proj123","[]","2ad447763340918A-2024-09-19-17-17-22","","null","","images/instructions/movie_4.png","null",""
"","","","","","image-button-response","20","46316","0.0-6.0-1.0-2.3","2ad447763340918A","2ad447763340918A","assnmnt123","proj123","{""participantId"":""2ad447763340918A"",""assignmentId"":""assnmnt123"",""projectId"":""proj123""}","https://test12345.live/?participantId=2ad447763340918A&assignmentId=assnmnt123&projectId=proj123","[]","2ad447763340918A-2024-09-19-17-17-22","","null","","[]","null",""
"","","","","","instructions","21","48592","0.0-7.0","2ad447763340918A","2ad447763340918A","assnmnt123","proj123","{""participantId"":""2ad447763340918A"",""assignmentId"":""assnmnt123"",""projectId"":""proj123""}","https://test12345.live/?participantId=2ad447763340918A&assignmentId=assnmnt123&projectId=proj123","[]","2ad447763340918A-2024-09-19-17-17-22","[{""page_index"":0,""viewing_time"":1387},{""page_index"":1,""viewing_time"":888}]","2275","","","",""
"","","","","","html-audio-response","22","50360","0.0-8.0","2ad447763340918A","2ad447763340918A","assnmnt123","proj123","{""participantId"":""2ad447763340918A"",""assignmentId"":""assnmnt123"",""projectId"":""proj123""}","https://test12345.live/?participantId=2ad447763340918A&assignmentId=assnmnt123&projectId=proj123","[]","2ad447763340918A-2024-09-19-17-17-22","","839","","[""<span style=\""color: red; font-size: 24px\""> NOW RECORDING</span><p>Please say out loud all the images you saw, as many as you can remember. The images can be said in any order.</p>""]","GkXfo59ChoEBQveBAULygQRC84EIQoKEd2VibUKHgQRChYECGFOAZwH/////////FUmpZpkq17GDD0JATYCGQ2hyb21lV0GGQ2hyb21lFlSua7+uvdeBAXPFh52Zq4lFTdeDgQKGhkFfT1BVU2Oik09wdXNIZWFkAQEAAIC7AAAAAADhjbWERzuAAJ+BAWJkgSAfQ7Z1Af/////////ngQCjRB+BAACA+4P8M/4Ke86z57bFPv0pvZwjvQ2mikgtrrxymWc2U8Qzzkkm5lVTl4BWzWrPehwqCKr+uY6DtEZdotlvLsi8u/Ufp74YRPaNSbELK+nciyW3Ld6W4zZqSG55pC0WQzJJkaWGETXnXFyt7wSRxW31rH+7zDoBwbPW4wh8+Z4OP/BAtn1WJNO3X1Z1qxNelsaxqbi64oAJHW+UCWKC1ciRVma6xc4oWuMV+3pdAU0pz1sxeKzKQK5kU+mKkiXWl/0DbPa4Y3IcYd/z3thKLpCnEYuoAAAAAAAAAANIcjBhTIPG7h+8Tmlep8zKAdI1uTiY8m8cItRs6REuLCHgtSxyRY6/4Kz72lPnWlFsTLzpGo5KxvXCPoy3PddQKkfwC7w26NkH/XG3yi4gf0KF9iyNrN5zQoTF+USCuBNQNMcyVb32e4UywYbUegQVn6fvSynEbQBFW5D1YBBOPLr8itZSdtioVkXf1ReoUCExN3mVNU3COAst3cgEdhOSYJD4+0lDqcFUMTR+lHMKk8tuChfz8YkcMVylz5SKzOHbWhUytd+Z8vOPP8ICwt/xEaFVDa1ssOAijvzlnYkHS/VwCWGZqMij269KaEZGiJpZXRIJUODJw52y3Q5/YgvIzxgPSHVIrXWJ05uL/Xqs5V2XmoHX8/0JSegZU3FtPm+rVfk0ZhmpAIqNkrqrxzTohO0BDih0U6lQ5C00tz6wrLY+8k7vADc+0C/bJczGsD3qnw3q1/wbBiKJmYEtb4/tdsDEPwj/DqPikSQ64XkeGDdIS238fSNeZC4Xq3Am6RHVu/pTFPEYXO5ePTPdG/NGa+91W2wqqsxp0tSXBsbeiNJ/cZtF9ooyD+VHj1WvODnbERA65C0hwhmelEIsTfcwCW75X348neOACPATx1JWndn0kSvb9dH65NHcWy4fFUaWeI2FcNlRKf4sa84URHQDU1ZvxqquEehcBL2VTxC6/c6C1EKt5KYCXCunMgkqBxNUFgSTd3OyzhoxUkI8cbSyffTVwFFFisjXQXxeeh8SZUWHNkwckqUUMT9u0rpMfXVMNqTnjEBaV4se1VKgEaDb8GBfGkfny2ShHuj9CTpiYrmtBEJKMJ63QlSXmKvU5f2mcgXMEwTepvaO3elgAKjGYfXfwWSbUdUuVZJ7d7ObQHt7r3G2echM7/cPmkc7YnSQS+y6jqELhCOdOVKUMGl/nS2+0SS97gUT/0p/Bvz9FlV3DhKSs0kxGHGH/F+qpXS9AeuGZfSzooKWzobs8oJ3hGdpQeYH0key6OcF54YWo7cQa2q0mpWclAGWXoiEVpjrv/ADcCZwn/JRtLsCeeufeQtgSRbXry/2L4pbl1y2GedTu1iOZ7XTx3IgbZctzDkcxZKgVCcaj3yigmFTgQ7zf6NDe4EAPID7A1DrScrVUwSzGcRBVmn+r5+ksH418g+AX/ag0EhaXC5JLQIWbkdY8KjymmBLjXqHsM5CENj1O/1QVaeQPDpEATy5JTugiuSJTc1mA3swEhx1WPVQCMUIq4j7pRTR+F7M2DtUYT+D9LnLXWs66k4qgg4Puc5myDIVe3dOGQZ+BIM9dvc0R/zH7PaixJiG51Sup4C3GzkWJNOz2Oaj38GqK+Att7M/3HOuWUGm7Gk9lRnW/wMXLlfZJfoieFxGqHQMETCKYKs5DCsFgFMr0uQ8AFVAFDhMzdjjke9BUbCGy/HX+KQRuo2HcyMAofNQJ9dLA2IEG5SNVJKoeJwBw7lJDaWaAxjbpqaGWkbsr/uE1KH5LW6xoLHxxePOu/vYqnET4Ft29jne5y9C3enPPunQG3Fz+rBsjfSlwtDMBWjDBv//EBkKIPa3be40Yj/u7/6+8//SdpVkj4SPjLuLm58jMgG8+lQxfsJZcaPlL4R8fSjoLJj+mdQmmUjP7jbtoipTOnvnXG+kgCLP0ymdtDklHBG1tFGFZESLOn9iQAVSCkXKHxTGzy0q7p7RBKl6itbtHWzQOQPMyzuatoFnOpYnKADfVix49NiZY0+ZcTz0KR8km5DTXufjSv2tZg5/cAr4OmTOYargFPhlwtWbEHvrLp/3ASmICZ9mRD2HgcAnIlSuAbfpI0OqL31VDZZHiosS7krdUCpwAPM3C1Cntw357oFulcZ8EuKt2N/AWWAybRB+1ABPP2pW5WLLDs9jEx7sgs8TtjRLeZgZI2snyTgCUOJAA2nWBgRMZNYl7vDwfEVR2H7gzRKiQp/yq1gpEaK11Rs+y3WkHy9P5tAQ+aiCeUqvV4iZzo7k9DlJOf1cszGMKcJxDth3cdstMNsrhKo9CfgrlPKDCQy8/h/LVpO0CpJZIOcFafgWfe629DbqYo1helPYG/l6cXNtU0FzMKIYug4oMQ4kLOtv43KCvZvdfog/opyFchjZfvBt153QNAfPj8+10H8TjhVyulMhJKeUwxn+PfMAn9H/VP60JeoDjHsYqhipUl4s1ZC/rLJrQVoeFPvJvk2Zsb+RHh59LnGZBGU1u0eFt2WZKhDFG7P+qra3Neu+LjhmUfecsEiRzFW/f8Q2/I8oDn+YBcfkvDA9hGSeSUlG9tRiAL7QhYqVkyc0HzkkvaNDwIEAd4D7g/4O/BFCh4Y56rmnReWrpp9niFR91PPG9ZNHH0Ax8++F+y2llztlZyyrBFAfmeICJuoszQomgJqpjB+21GAQqdGx2UZ1IPoEY4xaPyupnwxzUSu0x8n31TuLpEAMQ0LFERiLwWvvuknWZn7gLSzyoUjhUwiwrDq/kQRmMO3bqOj8jbtSePqwZK0nGkK8BjHAxMZW08g5Rtu0nTEn6rIGgNVqZh40OmWlkP60DkVXCHRhDQuMIscEDN1nTEpQ9YO+lwj8eA6cs7SJ8at1CgBi1hNqZAPRTrB/YDfjz2ObfCWIDkXHNGuvSEXsfWNS8GmCwcHanYf1tBRCUnwNfsX3iC8Ijjr0VFA038ENC7MurSQLcXiPWM1YejwZoeXmPUstAuA5RxTwih6LOaLRI+PtC/rc37Euydq/b2klUpAx444vBG147XYqOOsfs+ePIc4SD+4I/bzytHtYQHfZTWtrMT6xu88e945tcQ6hbqd97SMUX8FSk5xhtefdSaAFUJCE+FlVz1jt5rmCbdhqBo16d+YDDvk58fhqO75EpY8w+M/1BEFFvZNpAqtLrtEIicYfV5SzLqDUHIDLiIOTLKVCxEPjVjh6fhtEJBqu/Xt3RveG0xHOFCLp00cyOjFfwDAUjz9oPj0nHLZlRokEBhw5bsxWDN+ZfgIM98OiYIHxwixvgdZx5XtLFMN561qMEDDe7GNZC7tm4NIspSIub1N6stz3QxV9YjgmLGQw71ixgZsoAOmbcSvenPyhvBgDXg55ModUyMpOB4BXBTKNiEzCez95R34SRYxvJbwW/gTjdakf+UMxomBojiuTL1hIDAfveJhBFAVittAmX45S+4jaUpqThvh0/Tm/8WiDrsCBAFzi6fgNS3vuIgWKnzc9YtcLXoaLp87xOwmLvYuSYWcEexblsJ0/04pUx2a1r//tYE6LM7zq9SRHD7/9YzXm7kZ9LFv4iFfLOFyhInShqtx9F5i1KSMIyeklO2tUv4G+Ep9ZX/2DYtKLdiVgU9C3fFa6PRE9XkUcKOxhmp7L9udY7cRHS+dvzPRG1z91vRKwqb7bJQdRisGJ2TX9cNfSFx12nQbJkanppv4p8UcPZZEc7cgf4BYdmVYM9sYZrgYqPxSqH3mj4ZGsTrXA277xwN18/N38TdHAuA/ZTeLxVeoYcF/E9SG3cMfpkZ9cb4dOO+8qcXfWBqu44yPyaAKAoIwfUwKKGAxxkI4sgmnRXOQGPbXelhalOWeyYL2Lh1gzvtikfiy6d59GKpngAKNDxoEAtID7AxhOFmtHvF0zOGQRoGUOi68XpP9LfpOcSi4JtJqqn+pp0SeJd4oy81CbfnsOw04zSGY07YH6r+dB8IC/gF6aklh3L69TcpM/vTTrP0KOhWsZWRzloEpcqUZ004kDe/89+DFStxc6gV8uSMsrsiQKeN4AoHagzF/pFcKAFF9vwzjJs99E4BYYUrL3d7iDGv5LqUE3Lvt4WePN4BO2US6mc9jefsReRCqLem15v3AkWVaI253wndFcVfcVGnaCESyTy1gLh0l4EUp9QHmJ4QSln9iCPDJELZerajsvYAdc3/JMoO0Kwtzb0YR8tgxhcuq26s1aCZVjSoz8q+PqR4ssu7TzLIC70cgnlaw080MTMWmdUf/CkCp/Eo697VxukqmhrF559Eq9cCGKlQTNZID/wVT6aohQzt52+skMlISkLXCiO3H4J+GOi4yl9t2RiYeZy5GutnU3H/gXEPwpJASCigz07wLWb0mUAVYwEG3hLV0tKtVap1w5KyMCB3Zm5ZJaXzag6gAzATBVDV2IkPkmQ7cyhkZugVYLbvDVp4OK1BHtkKfdrmPaTjNPm8IJR9Bm5cI2+C8M4H3UQjPPqbDSflQ80YUEN5RfDtXvYGac+iC/X3QnW5KPdI7DxfYhLprqsG3SoA5pF2eJ/Tpq9vofx+PbVgfGkaOGvF76nT7WuWBAcwQJpCUYGa0U63Rbj2zqaw/awE1qQbqeMPDn2ejQbFsTfneXmMHUMymzeBFUNwFiA4H1wYXZDqWwDxbMcMwkdQkuxbWZDsjPn83l2WfCYbioKKSRd2Cm8NV61Qf6vTE8fLYdVRbGUKVzDUgopMilClymLg3tuhpA3btB2XBwaYlQ3noVPUmTmhdLpNNC24xqpAnYOBAgdMKp4KHsrfmy5UZiG6jpKe43HG2PrZEhGk+Y/MLjri+oYPh69kmBqBNCkHt/LHw5Is5KV68INOhenI6qN8FBXQCMIej1cMP/gPKmDdYsc9iKI/Le1icI5EoJ2X0oh7Lv+ieUrmYCqEcUA5Y+HxA7UKXOZwsuw14BWmD1mMSTaGQG7F9T2IAquoPxn5y/wFQruQXXJ1hh4mT8q2VsuGwR18tAemiRPgBkAyvs89CW21hq7YBEiM1fMyJEN9azwp94q2AYrI6ptHvQpO0VkEG8l3E+V/k7IXS7enGKBPxtBJ54yOZB78xRW/LPVqHp8AkN8lhAWSbIm0ZBCZCVHdpxCGWwOEORZ068zXNEZ9ussFIMRmTcJIPf+rDW1pxcGmSI+hyq/MAbq3XNg6NDxoEA74D7A1Au0g5h1h2fPAQBDVT8W2SehXfawdQEEBxZFaEXFkaKneW/d8FhkUPyL+56nKMDlW/HKsWCHl8EY0K4JoN4IM+KeXZVLcm9wa0BwTWWG9kynBxltmbZaun8ulPC6svnwbMPh0usuJSrMFqtXPL4Fx9Y56Wo8mzKFuDi34ZjnfvOnyKfRozFpiSCRsBLH9Jq6pNLxl+vk/s0vstvEacS8amrju0j3orMqyAgNb/Yv0WZ/obWPIE0RcCpizfofCJHGk/qU1jWxFUMQP908P+ukaRR1e4ZFoj/nVh4VQq3+jgEW+dUR/SG3xH5hAP4A6Gr3xKJot38dHrxAcTpwgkZSvm190ziD7WL281b1z+UXR66IoP92lotxr1mcBoi2niinGUo+L5VWDipJrqixY0NtJoiPtSBgHzYKZ7rYTMVoW3tQOEzNQWN+vKeN08AraoxhZbKANcbOEBOdGfCCIabvhjBHm+UUjbK04EyIEdcYHEYGo8rk+3BT4MtH0Ag20VcGdi7Dz5nlz8G0/sxigs2f40NH9zx34RxYdx7hPjgtj44Xh+Zr7lLfWOvq1kCZrzmKpU9rl4jpYSnrfgXxW7qEc9zuTbvYjdbYGfMAAIrUKQVVZe5Mf+8PeICaAB+J9S+uljDzSFF9VMpKsulTCCGItUD+n6USh6YAjvaiSHW8ciG3FZ66wL5VwxF7iXJXLQiBy0Jl18PohppdmryCtl7Rl18lVZBpTMl73f8KK2wCthkRhpnBsKo2CzcbUbprYntLFWaAWCXwgZ4Qo7VgIWSU0b5UMvzDGfvFYwgS3R0lO071WhnvyYtvSTVRrjEViW+gnH/YWRcDBoNqu+uYo9e+wtC3HyXxJNSaynr1v/KSwszJWvN+GGxSDs9z6c9biiTZAchHBbc+C9gNu4LZRQYCeCPnxUXePjP6SMK8cwywoPisc1ValMJ0FYG2SGhAj3Oct8bHAG8HaiUd6PnK5bVgBRxl5Jxi781BkJ8F1LA/ZgNptQrQkU1MzVhvNxpbk+Bdd4t9zWHIba3w9EuqrA4/RJnqsoRUmDuqLhFVIHlnQL0lUjqQu7D7sqdB3ucDwS+JspHtXzWRhQxPo8rtZg1u6b5v/DptHKkXkerXpzkaZ3NuaLc/ApekVcPdYHqvydqpoQ2yaRsgtpcmECF/kAqwFED6++S4or1PN3DganBrHpBUC4NeI9rfw821d67xda6xboO12cOyZh1FAUiaTGQR8+y9I5T0irIMeBp/8o8wxrRelO+SMX5iUMXHTvwpCZWVaNDxoEBLID7A0Jt2sRLakiL9uoJhvVFpX6JHTce8Olb7ch1vwnO8UTqvrtXDqQ/+YA8PvnaRg7nlclFQAQJbnk1IHF4mIp0GwZ8pbGmGMd1GOat6EQf+yvtUiHnVMw/Mge+VCj/jkUz+QxV3FKZQ1doklDeuIhReQoQshm55XQQFJZA0s83oWVFgDG2Y+IbCmrzwsXLdzhoOvq0/ZTWw3zWO9bSaC9CZte3qDedVWQm7q1e7/UX4PrztBjBH9CQa40EfnSKKYJBQVSicpMTGfgHvUHrgMO+B+H1Z/tMLvCW7dY5usomB1X6gk+zD+nNijcG2J9qI3zGo8s23GOmMB2QlMmOxlBMAqPVdrmlTxTCFCEi+Qd9P+RNt36k2HOkt8vpw1pVH2imY7059K1bu9OBbxCRAklNHqH787Pn8OoY7O3AY0tWGsYF77IPXY8k+65/jv2Zow9UYgH90SZlpncJkpLnO1gpZ33qfhGhgUvLoXj7IoCKoVtTmIJUOq57w36fiuMv/qLSFpPJI4Iy53693c2vD+iGTWfJ7mVGkjQ/mlDd2fGa2EBRFntbSaffXcroLV3sh3b1QYQKTF3V9px47UktM19uj7mJZjm0CxzLEqT8lfLLQmOeB4QQH7Aw3651j6iJTjexxezAoY4R7IWX17PrQN/dxd9fRTM4QX4nazEGE+E6FCz9YQu7Z7GavRdK43EP7ipt/1/k560KhsNSut8nEk+u4j//5dRmuP8W2yNN5qc/QBbdFkU/yXCSv1WgvnYjGQGy6H4m3/FFXkLHJ6KXtvkNc5lIOOvnd0thuyGzmXzPtye7CmA2f6xh7c78HuXmNcUB2bI57vDnpM/QIlencHAgdDg+OJUs8SDBxrmomxpsS3Qxqy1rgREtShvhaCB2OS/YSiM/BRQuvguENF42jYchxPBXg5trJAuDgmUg1y+cAfHMeyuM4BUhcDywyG7Ydbi1Gw5yf9byq5zfU8S45+fZVsgowo4XtQUgpy+SFXhVc9qaLIyPNOkQi7jho95oSYoQGd/zGOsgByw1bvTXg58qGP+nnHhM6i04CF/c0vXhSl0sju5b9HsprWr0olPL/xHrSh7cfH9vpkfJ51LtA2YNuvwwWgMr0fxc3Wxnuaxz5BxOw/bd3KTfrD1/5CpxmN6D/8gyvohWz8ZvENcHHiIcKJXLGEY1UWHzHNtORSoZR7/Jq6beNsO07qWjLUEaVa3gDVaM2M31qAGytYXyFYQ27mA/bhXGdqtCkaQ4gmZWztzKujR2lieNmkItkmHcl3Ng8KNDxoEBaID7A1EZcL4Yffu+7FIB9SLQyJsL8QhGowN6Ttq8dpLYOWfs71gCYcdPlJ0aGi+4n8r18aGqgFjNqzBLAdh/5ESNNQee4vykm3zw+zmn9c0gQ22bLyEevQAkVa4UK/RKsVIDbgkHXT0YKHuPFWSrgGTd5imWTNU7zOsKflhAeu/MaRwzLPFdF1hpScLjL3piB20urZ23bd2/r/JJQztYiJ6ozUUEPqon8668c0dnLU4P/R78qEZ1r54Fdq2ANKKxODMACTDUqUqAHj9MEueawr/wHjZTO5CrjZgteu5BsYIyybU7ONkvjphFupdLtG36Sd4OOE9GjJgJa0m0lRIa5tZRzv0nDAMXOso+TxmdLQqCmTvYaazOfHuXjS9KPHt3ApNs8jgOiOo2Uiiuk/BOW9JLKziTIX9xSD8KPe747TRbZq5fUqYcq3osHqov69KTGBttadZcUmvBpMDFeRg9uv/GyUm5uWY8XCs89a9ixgH7lV2aTO3YyxkPeBqryEqPSrmurfwyVS46sdDQCCWCxTwd91UzXg5brCgdWwfgPEnHHVP+o+jNYiAELL2q2zQJA4bJ//ppdZmIj0RMABS66WtfeJ1daaLmmLj2jxuPySqJUfzii8TGPh+ReApmUbr7Wl+IikuHXD0By0BmJ5gmzjFYUJ7nTe7NiHVbuc+vXvI/vW6YUlc8grkbKTHnufmPsyajueTmE3GTZ1W8eMsvGs2pQid8UzBhNezqsdqja6MZ9XxpfhdQG0AfcO7KzZduhKS2fNgE8DSLWGkqBynPKV/r2nVMq2s7Cn6hokBEHiIcjihXhowyEvWsZAs8lvCNdrpVbN5VF6hLZ/kw4SVWRIPc46w8E8LmMiojOgbhv53mteJ1AIviv2VrPiJibZmEtmdGBh1uC1acOHajMh3VtdwSChVNGwuPIbpZ+JmSV3Vdiklm/2v1qGicepv7/JKop7tZjnwsBphl5BYymW6M+Alr/zMhgGxjPe4c8WzubzJxcAGCo2lzG/Q6CLx7+yzLB+qpOhI5id01ANTA4+oPW6MEKpWQZ/34BTLcjUabwloVa18Mpuh9NVQEDJFlwOs7+sCvGBh2v3zsNOW27UcAGO9ZBusfCr+LPUXIcn9paIcjP3yCjiHQGId9Wka2WSEc47zyORquO8a1ul6kqz/VziT/rTlR335S+/i/mm7GIlYsv9rWGwsdsNhgyXCqzBEMvGTcKIne5IBkKsiOu01vslnkyd/Of/s4R7rEnslMC8GQc5FxONjfTsS79N5ovlW66Kz94KNDxoEBpID7A1OhVWZvhca8BDlZEWlWTanYoyetzagpUOcBN738L1dl+o4Zgdyj9lq37egC0hmDFu12F3eC1vzWgK/Vvq1PM63yGri3Tq/YOjqX4ltdPUi9WIYHnYMaoC1n6JFd9OiAdOd/ay+LSgF0r1LwThZ2NbJYuXQS07DfUa2g3eY06RNjKtTDsYXNclxUkQMrVQA0DUHs+5Pr4ViiciMfzNpHGhl5SN5632mhGrm1T9Z/IzCeqDEaFnEUAEKmXYIvw21UKOIyJxHx/hK6P6SngKMwbinZvE7u1ATFpH/T8BYc6U/3R11mRE+RiDd9YqyFZFTntZwNvKFP4OFhGjXd1PhvJfrS1os16BOfwmngsM4m0Vs6nCUP57IiS9M0XPwGU9Ze3U73Vt5gmrvk2O/bpawwBHhbw8wQ4nF3G7xnaF3bLuZdsBzrC6TpyDtuSP6As5MECMss8QyteCnVOXkid4D9CPCGRecfuIHXKFjtgGnP8texB3xIdyPXRgc/hRUmThLCaP9NHSvqckCbYiCH4rYj0H6p9b6sSSXLc4KgKKdk3rsx5jWpktNSdaxpum3MwmuEFGEjIraUWTJ6tBbmoLnYhRwR3zYp8CDSLIBJSNLOD8ktsO3ECi0BUv1rRkBv3l6GTSI9FM8o7XmHGyCQm4muUkvNRTGaiqAlZSGhuK7OJvIfvhj3UXQJjNB1FtgWMFE/nrUs4EqdNET40vCIfujZ6MYEKrf0x2ozLju7NIl8pZ/fAz10pwVIDxu2eyp9WujFQfSEecsfxZNem7/G0HsEuk4F7j2FWGHmrz0GYiCJZWPyboOELdN6YGracUt/olKGoS8q0+dchqjwe5XxuK9BYRKwInt3eqU+dS666qmgoh0WJvdvsMEYoCU54CwjdPVkodYUC93saK2h+e2PaF3BptdGU03fshn9/WU+p82nCJBVSS9g74VGVy/SxwXQG6jV8sFLjtRTGPJkPg+Rf/QLT/BHr2W/+uqICwXlXjgI1Ke2hUqNXPzax52OM+nkvg5lr8ERalKmzXC7xDz2TxjSLYGi7YFAp9v9yTYdHDjHQlrO5ZNuOr8hCJ5nYXGQDPxWonu+kpui2BWyTsGU7+CXAYbR2ySanx9Ktf6mXB04NH0BdvFQjmfAB29M23HWI68WRPgSxraPiZh0wkogmiOjc57bn4bfpPQEFvPZKmgvAD/W4StOFslfGTTgBDo+x+HhZt0+MudOPpHsOFo82dwBN2f2Z/NlJF/1tHClc2YoIYnJobGIduoeSvquPUy7SeriVqNDxoEB4ID7A6/TWAz0fTyTho3DnqFmeyR33xWcDuYAXA+YAEHU1PSQX0J//CHIvcZWBnpJQhegQVIF/8DIrQzcSgSGQaao2QL8UcSmGYpEpW62/zcGeQBPXRUr1aAwd41AN41bwNNRKYj+o7pZk9WnlwyIyWUQaDWTpNar7+AmzznjHyxNyaNF1+rwmNTwv+yUxZUxpIMGbOR7LN3EPl+t15drkC785rX5MVU2OE9pKoJbKYf6F8mC1tSL9oYwtDwpw7eTXysGa+lMaAEPEKapmro6/CMnFPKRqLfsKZZZ5RGoXa5tBtPdWFVRGBglta6wBkiK6JXk8UMvwdUFPbDeF7MMcFDwsslxPkKdCu3XPhzRjLaRy6lOt3Z8djWW4vpEc/8RsMXNWFFPwabYhs7ojCo4PydwWfTIhbd28jiEUh+gg9slmdzdPqEdsb6FFby4+df5JB1dG1mekYUbl8WFTwLIxIoF9+wJy2YoO39DJaA+o/rmmokYk9PLfzIJzlc68l91WnlcMhGG3P3F1SO7Z0xzelDemETjJOQLPIOczdZKuLenV3KprFs32J3Wa0isSAmmIBAOjvbu2135D+XRS7nWeBBh/jS96BNlEqLlh1U1GXj+yo+/gBBOCi0v2AJfCY1Zzvw7bsNX7U+unCGl4ISOzExdIcnVhplXNDr8FNvunrvcKcJDWOJxQMYudnOrPWl6pCrGQ9DveoGhpZsP7yR6tpQpSgHGnEWarsyhftIxIMAJJmnHwht20hviCwtyMwGQ4GFNni8Mi9o+tZRCsUIsHG5+41yo0xKYAZrxw+NX+pR17L630PbHXTiX9PibzIyFWaLvzrPT1oKxY3uUEvBE+RxBxRJQ1NnciSWYKi4bYIGSPG8RhJ5RixKbL60GBAMD6xrfTzOja8H8sSNbGCoaSbW7ov2dp3giXz+iN/j/zsrsO6oT+Vu3RoN6kc8pERPEddsvK5SKPF1oryHqHd9BZbVvo1y5x7WVvMh56vEGxGSva2eienrZCi+lnCzGSvdnAiRjgrQQDHaR+mIJcoC+E0xC9fU7U/eUS5kQti8+TXJ5pEM+68wbzaCmxN3a41EpG1Va4Xeef0kwXhvnRsMhIKQzolJ/snUsqq1nAreo9aAcfHvt6HWRhC/ocyr0Vpf7zIMXVN1ogEGoijOBBPa8TU/whcs1EXYcBtenBwnhVXs0BEwlDHQWFXk+l5PUNwvGeNhg73nwwkuBnq075Hn5+azPFMAx+zTmx3IG70btgJH1P6kjVk8hZNLHBc6+Cn/KtbJ+yqNDxoECHID7AzzZES3DOm0aDL8NDiEgEheFR3FpRIad8wy/U3hPfqwBd7VZ2AXddMP0h8FZz0ygk4T+d2FGrACkhwyI+N8/Tcxj4CJl2ogACag7QCOt/E9IZCOLf6bpJPTNV+cASoDhCQImUeCgBTrsJYW4JzL543WNg4FAJhpDQ1O/S6G3AM69mjiVOEvIfPv9kAVFie+E5yXA7kYn/+OvHBn0xstGJazF8XBhdPmJv8CY8+0Zn03L3xyDY4jSPMTGlFptcW3Uv/xkk2w/PfTNCtcQZC69iVHjSpywwbPA/mHCHJoCnE7Tq1RaGnjeqYHQFoaN/Gjtv+fM0OpOl7R4lDxtCGYqRHavyuLA1eS1AprtglqaPbcQX1YVoQeq8Hfh7eU/NS4vOvAMa4JtK1nSw0qtrjzqhnGoLoLtJpwYPctld/DBaa+DWxse6pHfr32fNsT0j402DVxDU4RhpLU5F6E490fbFepJlQG8vbXdOfm1efqfSgriwdJwIcd4GXqoqdAfn14k0wy/1iK3QGN+kuHsCn3bz34q8cHEAaU5nWoWWwpO6UVSgJ+FfKXCSTb+jaTb6UcfUC/ts6pZrIqwHJ7Yec0ZimL4iv97e2KJHMW0jk08qN55wmEX4G9MLgTVKblYBhUn0dLHVLbhpbTxiK0ihzkJelFbnnULSZHtdwPllufmRfaIRlC8xtcYgy2Zb20K4eJIGVfoKQYvpe22uCJ10m6NVA1SADS5IEIcJvi4B927qa4WevvZD2Upvz2ekJv3wrZxrbdygooPHxXFsn6FWMAk2laxpqu+47/5BvU87DLdqq/Y1xHb7Z9/A+cYSghv6JuvdSpJFNGOjhPneuyBY4Cm0Gdbfv+ePUu1/QzYftBD49TFgDZv5gER1Yo7BFmIfVmAsyXKjdNkptwscMDt4p3ayVPSvERiHJmp/C26LTwVwrtnf0d8lIpckneQwCDy7c+Lt2NHwmU64n2mNhdk5s6QzPHbNzvUN4zy2352t5Zmvii5l0Rj7slIclWwbcor7AOdY4+qjrCb3epUyUVZbKbOVOOZjx3KHduzhtwhRsTVLAlVxglv+0B5P7Y6UXq2FL/WDHHfkdEAxZC7MmmI2dnIrSpkNV0fd6Oh7Rna8KnWVvNU/w4T9jW4zk+e4XfiTYEl2NRUe53RDUMXy2ag/OxUFHI0633leWhhrgb4J5OpfE6OhPxrjdIIQpclnkvMvAA++0YZu/puFpWtGWJxrOeqK7df/FEZodYxzXwokR1ea/rC7WsmFGIMMSwbkFWfYbTKDqNDxoECWID7AyKdcI7NNY6nRQ0QWx9jvrnbyp3Cw8i7WlE1Jk0Kn48BaL0eHG58DbJPj8rYRviJHJqiVOknEt/atYdha5FT4tyY8nRfRC7K17T0f35VKHEZ7t/MApgmHBnlUKGBMbppuyauoBByBDQbHHHQt3gth1MhV2s3UPrfJCl/KWo42YhT6RomaaPDpDnEFYJ1idxoF/BEnEpLknSo1o9CdZysm/yofrcsMEMpcRbXLG8uOmm0U2JTGLY4CSVhIh/1nTr4es1b/W2o7NEiO9ViatmXfj+m5vJp3c3x2b5KKCcrO/dT0sUTbnNAHRthSrR/7GntqluILGagIn5ksUehexqqsgbQAv4o3YRE3rO/r4DFQE5tBxaQDnMHHJycXqU4P/ZSAz3kfGtzHlQQULD5MYrcBW3kKCDN2QsE+aE1oakeGWSRQLE96uHWY94o1Bu3gxq8mlHF174T3scplfIcR9F0R1IfbW6tjup1wwtaqoOVuc7Fx88B+uFsUEbm4L+E4zrOHuPvJTxKb4o6d6mRKvSse4zdOJNhSqjaNxTo8/81NVViCbu2s77SsCUiZzDQsX/8irX87lbtuo5igYvcCsdOcY7isYzmcNEPq2wC0fpLnS1npvL5H2DfD9rIY+e01sEBbWoBCiBDVzUkt0dBL8fXzNCEiUysitS7dsQQkhj80By8On/IEAKThtUGAZdaU16GC1Rqqirn9C+TlrMGEHhULz2BdZ9KlmWgp9o1i0pSgI9Zt/CPTlTwvqHBJle29kvSggMmO5aej5hlCILZ0yc67JLJyjzplN45iNoN4gEbkkqUSg5x5xpyliA2Dd/HXLHQwTY5l66vVftN79ea4PeYTucTwA3SaT24u77Rp1AsQqoOm10oAiWbWeNlCk3UPVUBs9lOPTOqSTryIZWJkzjcVeP0gu2yoUGVqDckMjH8974cDpAQh/+AHajngLZ40QKSDdgfjQ5kJb6uVtSazeS0Gu24T/zHmSvYunFKlNB2+b8kmxVVg3sGt8cXxzb8/AOGZuEHNJmTGcQYDNOzPTiHudHWyFP60Qyqo5EBkJcT9ecZertM0F9/ehHR1IH348q5cbIIEQgcAYyt9echAZiy6MoBXQyeqfF/cPCnW7ANXivnGMLKu+i7Y3WUHAy61TJ5oVI8FyZoJheKW0SJTNR2A9I0C48iDCvTldvddX16G4pV3jZrUN/rhTW9wN8Jh1ae9HThOUWk3ehHtJtZeBeGUWTlEW80osVhA8TkxMM3GRrnDV6MQ6Semg3Z9kHifyGdAqNDxoEClID7AztQ/A1/XSpE4noK0W9LPKe+l3+EmXj0GIWa5FnQCQXzRgTbVl2MOZGfw2guVMxm95UfjRiLZ4/CWBrttQyeAG/uYiP8y4qeqSZklb+aE757moBkZAgeIjcDVbl8G0O5nz60AULv5RXtQ4Oj5sPpSvp0mnwC1iot3epTW8B2frRPnnA6RGNJvuoV2u5GZlYBxjo4VW5Y6aG+9ZRxXmo4kUnitbW2XKY2t2j3sKGMSavMidkQnOWLWRyyUMBpEqv5XVCSJGaJBeihaIPNz/Hsjrvp1as2wD2muPKbRboDCJoSb9SopAf92eusBwweZxIVxWO/z67IVaH/VRQpUxxdwwkSw2F6lwzLam5JWGRccCu5xpy5cp0HG9d7nSR12NSJSrTOXbMVdvaaivRTLk1reyWl68560hL3Uc7ZhLfiriZAUq+0py1OVkfueV07Wlgh01qLmvIm1sma7MUQaRbPTzsa3zFZ+ZdKswDsQugTH4+UTUxTM2mPyadMiwzrY2hONhVAzGUH5+fcteeo76deKgt8xub0Xg/rh2x2BvLtxLnMmfChgcQvWtHm8g5jXMiL39/nBeUyZj002CYmadon+a31vQbUpgSjjuywpdvPd+gCrdAwwKo9KGuk/j58n5yv1FZuawzGY244sMGd1MHnar6EpKBUTqv6hwKngVFavQEc+dfGRerUao84naymf7GOk9y15Qo8RFQAcQtQFDHgmdwXKcgP2CoPNlcZMhjZm2SV0nWrsTpYWgtyN8HQ+pd0oKJJm2v2e0ZQVvjXF040aF9WcEkwd8hGieCiDY0bNHUYSVh6wO3TdppfS0TimG0jDGkjhROlnXscr9CEraMmEA9bA/8IiyKBC+lUcFwb9z9LMg2nP1OMUikPt54AdSFHhjDsIa7IcK5m1aFuaa5Tli7NDipZfvjATsr1xiKtMgp8Bm40psC7h7NtfQP/j79QS4Z2jF/bp+4c92DBuq5SfPkXRYtHFoeMJ9Wzt+/vvI+GzD+X5glbS3jIu3gX/9ZezgDgWrHnWZxz2TjagfVc5ohTqvZ9oLwrpVmSOIO+r+GC9EkyGJgbZh3QDCcCjRCjC3meyrSsXf3h8w/B1l8GK/jGWKLDf+60mWigRwS7lHPVMSVOtbcRkg78VTrEzmeYSLPwMEKkLnut8h6FRB+4LgJcxWncAvVXsanIQpfUwweAJ3knrG5Vdn+6AWanCUlAjXhlit5Y908QIG1fHNDu8iBuvrtL6p7sktkkBXPsrzCiGiz4lZvIihzkChs4KZXE36NDxoEC0ID7AzwBb1s2jt2mk+zreXBoSQgz6o73Biu8U0OYu4ZS5aQLKISM+eFd7eDiqaqHz/4qU/Kxmc8vYXakhLOFtm4iSTxAaX8w3WivKtt7LFljqHkIQ3VXoarUVswBsSAy4cwj0z2uL3MVVpAN6RzvTQ/fdTH7y7ACICsCQBsdGBVZLHVjP+5D3cDbwDvS0zguLsSDzXNumMw/9sbRI7H/7rNYTjDpE8ToPgA4HSftd8fFGJxMW7vhzsOg1FkYcf1immxlzqKnXLKYgba637kmYmF5bl6HrbHEwSf6eb6ut6XVEB1wadvgZRX4Zu/UH6I+4PjUj/EdKjA2QEp+7ng7hSfibM5GWAmZ0Ci1Sl7LwCBXWDD32b/eUZlvcnXXV/YxmvUy4wxGKkOCSXeZ4xZmg4XoZpIse84uqzwJdGxfxZi49Y+yO2QHuT3q6LLy0iWNWq4gnqjL6lnQoA41khR7RQEv9GIOeSXnqe7+gRSsIjme1QooP0FKaEfr0uDis2ZenxAo6wzxrPrw7iTWqpvkn3JGLiHBQwQ2SqBDQ9Jc/gMEWTh/+mMYdbSucG1jpKKQ0lMtnV5vc+unmrh0nC3bk7OHaBmR6vBPEzn/xignxqPwt7j+JMVw9sON2CjJnzv54I103GBW3/qqatV7hH32vYvov5ZFCsnHunN9NaTWemUBVaxTljwkg69WpX7pCRKNnyLSOtTocjfdunSM0dW9YyD29zhTBJKvppaqHu+MWFSClmwFaSGNVFhS6TeyZGjtoGBPnY/osW/EPpnqIHR/XrkInRuSiExLVs1QAkg3PiY8nP7jC2eQE0MM30RmurspeBZSvIPywN3bdIb8WsF9MlvEqGFArGssBH73sPJdjbirNBA11qg29NzU7aF99bEP2Bhn13wAuFCJzuQ/UOjDmrjqUey4KIUACl9uvoiuMla7cip7HgZ8/Vy3ibV/Wy2TQOMRDJbTWWomt9OIHS557pxzf0lPry/WyG9KUkpDK1cQsTx579ddJYFhtMYNbdM4LKbS9nSYt8BEY2P/VBCD8Qbl/pdE5nwqcrDdPMDJuVjFNQQO1DdcqikZqVX3vHg+f3USSPTj/WARfAIvPAIBqf6CkwGcDO6VrH9Pr/dZeZnNNHZ10Gd0qTxZ7wovWP4ZaD/WtFkKdWwhmQl5VWF/5tumV8j5L35YgiUg2cHhFhE0UWbtCAbZTin1OPZCE/l/9uvscC3Ztuk2X2ICM/a0lkPcdcAKiBEXifLGoSMX/F9nJtDKdi4Q4oeL6lp/1uqwN76Xx6ND3YEDDID7g/wR/Rc7jp+8nHgwIchx/Ac4oY9qZ9X4msexHruCpwmN0V+x5/kS2tnPQBHXU1FeWyWPwzX+F7qh8yvujXDtNLCylO+B2WMAVT924tSWs6lyjPNFLrcI7G5HzFBzE2f/b3/+hOF6UzBdgqFyrrKUJm1Vvd6ziEHQcxzZ+unvG2dGs+e+cJkgfPgsR7Vptl72xGguJapSJksPLN9hHMfzyJOStu2mhR4MnHcQ2Lhh2q7iyfYbJwurWQDPvpOWjgGakhfQZKd6ZygxAZRMyUU5PxhSaZKLAZjh9zHmFhmi5KXHvUc0+xI50FhoPvTR7SQ02gKTjg4eelekJmWa+g8+ET+43xezC7zy4++K0xKfvqJyGZ6stldnTxJ0dZ1/OPLwkFpW1pjIaMvqdgWal3uhUTr4+hnc+OStTRVhm0LuM8wlK8/IdFFWJzMGSp3okCU3N7g+oyjXrvA65otOrxHhrO55iiaQFYRznUtPV4OQCYEKjlqqyFIwjZJWnI3cylIBJfKMoJv/pDggrEW/ogszbIgxj2oRv0q4ZJ8b+osM4bt/eyU8B7J7auqHi9hZAjOpxEMzZihd58rCBzRgHWeT5zSJInMC4SHEmSZ4b/l5wRgTXzf1tFiSRJ7Md78Iienqw8CNmVOt0xhOzXthNfi5wOoR4ECYFwv5bbWBUXJMwPtRa+uTVvJIZCUGpKAeZdbq1E7q8zf2Ossc54cRhZBAo81h6zjeLfUOc8uj4WN/2uOTpYpv7lcavF8heAWiTninwd3QtSBde95DbzTfEKvYD+IB6yKu7FZav8uGjSr5VJ2C6QgDvg7SW4aFH1FQbHTqI6SmYYWHbcKVgWrKzG9HtlxYzbqUibBxMPVwvrD5ruj8TlqjHScaAeucfZJW3FP65fbbxcDQCTN9xlG3GQgZg+GsFXkIX9wJ+kZ9g6Kqu+93kUEw2RI7BWscRAVFUvWbc1Q7lpICje9ghKFUgLIl3YzOVgjfI7K61sMeTwqPC7ZApcrJc06durXmY1B9EJU4LpsEbr3h2sL7waDNcpZWRJvqcpbqvPpfSDjbwNQzugeXtUO51qdJjxO7DtubG6+kH5V/3OB6ifN8TCDvKmBaVZFFMzO0b1OPCjRM3uB8Jj0jobQ7W04WqTQpQ7uTzsAjeLz4wNaJrIWOf9RyStaH5ZFKOoLsfyHwvpEEanX2ECzw2xD67h7mYFQvRPRVjWkAsln1WEN6DVaaUfWgM1qr/xySNiiVZKnwVDELJddkDPnH41KaFUWOUrHU2R3cXavOBjBmkpipJtFniNRSxkayWkmwEaR+uxMK","2"
"","","","","","instructions","23","51512","0.0-9.0","2ad447763340918A","2ad447763340918A","assnmnt123","proj123","{""participantId"":""2ad447763340918A"",""assignmentId"":""assnmnt123"",""projectId"":""proj123""}","https://test12345.live/?participantId=2ad447763340918A&assignmentId=assnmnt123&projectId=proj123","[]","2ad447763340918A-2024-09-19-17-17-22","[{""page_index"":0,""viewing_time"":1149}]","1149","","","",""
"","","","","","survey-text","24","53289","0.0-10.0","2ad447763340918A","2ad447763340918A","assnmnt123","proj123","{""participantId"":""2ad447763340918A"",""assignmentId"":""assnmnt123"",""projectId"":""proj123""}","https://test12345.live/?participantId=2ad447763340918A&assignmentId=assnmnt123&projectId=proj123","[]","2ad447763340918A-2024-09-19-17-17-22","","1773","","","{""Q0"":"""",""Q1"":""""}",""
"","","","","","instructions","25","54473","0.0-11.0","2ad447763340918A","2ad447763340918A","assnmnt123","proj123","{""participantId"":""2ad447763340918A"",""assignmentId"":""assnmnt123"",""projectId"":""proj123""}","https://test12345.live/?participantId=2ad447763340918A&assignmentId=assnmnt123&projectId=proj123","[]","2ad447763340918A-2024-09-19-17-17-22","[{""page_index"":0,""viewing_time"":1183}]","1183","","","",""
"","","","","","survey-text","26","55641","0.0-12.0","2ad447763340918A","2ad447763340918A","assnmnt123","proj123","{""participantId"":""2ad447763340918A"",""assignmentId"":""assnmnt123"",""projectId"":""proj123""}","https://test12345.live/?participantId=2ad447763340918A&assignmentId=assnmnt123&projectId=proj123","[]","2ad447763340918A-2024-09-19-17-17-22","","1166","","","{""Q0"":""""}",""
