"success","timeout","failed_images","failed_audio","failed_video","trial_type","trial_index","time_elapsed","internal_node_id","subject","subject_id","study_id","session_id","urlvar","current_url","audio_id","view_history","rt","device_id","stimulus","response","estimated_stimulus_onset","seq_name"
"true","false","[]","[]","[]","preload","0","22843","0.0-0.0","2CD4ED90AEAA4DBC9CC50FF108FD34A2","2CD4ED90AEAA4DBC9CC50FF108FD34A2","ecd11fa1-ba7b-4f13-a647-d8608a2d27ee","ba640c14-69c5-453e-80b2-29051492c0e0","{""num_scrambled_semantic"":""8"",""num_scrambled_causal"":""4"",""num_scrambled_schematic"":""4"",""participantId"":""2CD4ED90AEAA4DBC9CC50FF108FD34A2"",""assignmentId"":""ecd11fa1-ba7b-4f13-a647-d8608a2d27ee"",""projectId"":""ba640c14-69c5-453e-80b2-29051492c0e0""}","https://test12345.live/?num_scrambled_semantic=8&num_scrambled_causal=4&num_scrambled_schematic=4&participantId=2CD4ED90AEAA4DBC9CC50FF108FD34A2&assignmentId=ecd11fa1-ba7b-4f13-a647-d8608a2d27ee&projectId=ba640c14-69c5-453e-80b2-29051492c0e0","2CD4ED90AEAA4DBC9CC50FF108FD34A2-2025-05-14-21-03-46","","","","","","",""
"","","","","","instructions","1","44803","0.0-1.0","2CD4ED90AEAA4DBC9CC50FF108FD34A2","2CD4ED90AEAA4DBC9CC50FF108FD34A2","ecd11fa1-ba7b-4f13-a647-d8608a2d27ee","ba640c14-69c5-453e-80b2-29051492c0e0","{""num_scrambled_semantic"":""8"",""num_scrambled_causal"":""4"",""num_scrambled_schematic"":""4"",""participantId"":""2CD4ED90AEAA4DBC9CC50FF108FD34A2"",""assignmentId"":""ecd11fa1-ba7b-4f13-a647-d8608a2d27ee"",""projectId"":""ba640c14-69c5-453e-80b2-29051492c0e0""}","https://test12345.live/?num_scrambled_semantic=8&num_scrambled_causal=4&num_scrambled_schematic=4&participantId=2CD4ED90AEAA4DBC9CC50FF108FD34A2&assignmentId=ecd11fa1-ba7b-4f13-a647-d8608a2d27ee&projectId=ba640c14-69c5-453e-80b2-29051492c0e0","2CD4ED90AEAA4DBC9CC50FF108FD34A2-2025-05-14-21-03-46","[{""page_index"":0,""viewing_time"":21959}]","21960","","","","",""
"","","","","","instructions","2","49505","0.0-2.0","2CD4ED90AEAA4DBC9CC50FF108FD34A2","2CD4ED90AEAA4DBC9CC50FF108FD34A2","ecd11fa1-ba7b-4f13-a647-d8608a2d27ee","ba640c14-69c5-453e-80b2-29051492c0e0","{""num_scrambled_semantic"":""8"",""num_scrambled_causal"":""4"",""num_scrambled_schematic"":""4"",""participantId"":""2CD4ED90AEAA4DBC9CC50FF108FD34A2"",""assignmentId"":""ecd11fa1-ba7b-4f13-a647-d8608a2d27ee"",""projectId"":""ba640c14-69c5-453e-80b2-29051492c0e0""}","https://test12345.live/?num_scrambled_semantic=8&num_scrambled_causal=4&num_scrambled_schematic=4&participantId=2CD4ED90AEAA4DBC9CC50FF108FD34A2&assignmentId=ecd11fa1-ba7b-4f13-a647-d8608a2d27ee&projectId=ba640c14-69c5-453e-80b2-29051492c0e0","2CD4ED90AEAA4DBC9CC50FF108FD34A2-2025-05-14-21-03-46","[{""page_index"":0,""viewing_time"":4701}]","4701","","","","",""
"true","","","","","fullscreen","3","52894","0.0-3.0","2CD4ED90AEAA4DBC9CC50FF108FD34A2","2CD4ED90AEAA4DBC9CC50FF108FD34A2","ecd11fa1-ba7b-4f13-a647-d8608a2d27ee","ba640c14-69c5-453e-80b2-29051492c0e0","{""num_scrambled_semantic"":""8"",""num_scrambled_causal"":""4"",""num_scrambled_schematic"":""4"",""participantId"":""2CD4ED90AEAA4DBC9CC50FF108FD34A2"",""assignmentId"":""ecd11fa1-ba7b-4f13-a647-d8608a2d27ee"",""projectId"":""ba640c14-69c5-453e-80b2-29051492c0e0""}","https://test12345.live/?num_scrambled_semantic=8&num_scrambled_causal=4&num_scrambled_schematic=4&participantId=2CD4ED90AEAA4DBC9CC50FF108FD34A2&assignmentId=ecd11fa1-ba7b-4f13-a647-d8608a2d27ee&projectId=ba640c14-69c5-453e-80b2-29051492c0e0","2CD4ED90AEAA4DBC9CC50FF108FD34A2-2025-05-14-21-03-46","","2379","","","","",""
"","","","","","initialize-microphone","4","62901","0.0-4.0-0.0","2CD4ED90AEAA4DBC9CC50FF108FD34A2","2CD4ED90AEAA4DBC9CC50FF108FD34A2","ecd11fa1-ba7b-4f13-a647-d8608a2d27ee","ba640c14-69c5-453e-80b2-29051492c0e0","{""num_scrambled_semantic"":""8"",""num_scrambled_causal"":""4"",""num_scrambled_schematic"":""4"",""participantId"":""2CD4ED90AEAA4DBC9CC50FF108FD34A2"",""assignmentId"":""ecd11fa1-ba7b-4f13-a647-d8608a2d27ee"",""projectId"":""ba640c14-69c5-453e-80b2-29051492c0e0""}","https://test12345.live/?num_scrambled_semantic=8&num_scrambled_causal=4&num_scrambled_schematic=4&participantId=2CD4ED90AEAA4DBC9CC50FF108FD34A2&assignmentId=ecd11fa1-ba7b-4f13-a647-d8608a2d27ee&projectId=ba640c14-69c5-453e-80b2-29051492c0e0","2CD4ED90AEAA4DBC9CC50FF108FD34A2-2025-05-14-21-03-46","","","313482175f5eccaec31ab09c73b746ba50fa4f6b5d349a22610ebcfee7871b03","","","",""
"","","","","","html-audio-response","5","84844","0.0-4.0-1.0","2CD4ED90AEAA4DBC9CC50FF108FD34A2","2CD4ED90AEAA4DBC9CC50FF108FD34A2","ecd11fa1-ba7b-4f13-a647-d8608a2d27ee","ba640c14-69c5-453e-80b2-29051492c0e0","{""num_scrambled_semantic"":""8"",""num_scrambled_causal"":""4"",""num_scrambled_schematic"":""4"",""participantId"":""2CD4ED90AEAA4DBC9CC50FF108FD34A2"",""assignmentId"":""ecd11fa1-ba7b-4f13-a647-d8608a2d27ee"",""projectId"":""ba640c14-69c5-453e-80b2-29051492c0e0""}","https://test12345.live/?num_scrambled_semantic=8&num_scrambled_causal=4&num_scrambled_schematic=4&participantId=2CD4ED90AEAA4DBC9CC50FF108FD34A2&assignmentId=ecd11fa1-ba7b-4f13-a647-d8608a2d27ee&projectId=ba640c14-69c5-453e-80b2-29051492c0e0","2CD4ED90AEAA4DBC9CC50FF108FD34A2-2025-05-14-21-03-46","","2706","","<span style=""color: red; font-size: 24px""> NOW RECORDING</span>
        <p>Please test Microphone</p>","","1",""
"","","","","","html-button-response","6","86704","0.0-4.0-2.0","2CD4ED90AEAA4DBC9CC50FF108FD34A2","2CD4ED90AEAA4DBC9CC50FF108FD34A2","ecd11fa1-ba7b-4f13-a647-d8608a2d27ee","ba640c14-69c5-453e-80b2-29051492c0e0","{""num_scrambled_semantic"":""8"",""num_scrambled_causal"":""4"",""num_scrambled_schematic"":""4"",""participantId"":""2CD4ED90AEAA4DBC9CC50FF108FD34A2"",""assignmentId"":""ecd11fa1-ba7b-4f13-a647-d8608a2d27ee"",""projectId"":""ba640c14-69c5-453e-80b2-29051492c0e0""}","https://test12345.live/?num_scrambled_semantic=8&num_scrambled_causal=4&num_scrambled_schematic=4&participantId=2CD4ED90AEAA4DBC9CC50FF108FD34A2&assignmentId=ecd11fa1-ba7b-4f13-a647-d8608a2d27ee&projectId=ba640c14-69c5-453e-80b2-29051492c0e0","2CD4ED90AEAA4DBC9CC50FF108FD34A2-2025-05-14-21-03-46","","1858","","<p style=""font-size:48px; color:red;"">Is Microphone OK?</p>","1","",""
"","","","","","instructions","7","104540","0.0-5.0","2CD4ED90AEAA4DBC9CC50FF108FD34A2","2CD4ED90AEAA4DBC9CC50FF108FD34A2","ecd11fa1-ba7b-4f13-a647-d8608a2d27ee","ba640c14-69c5-453e-80b2-29051492c0e0","{""num_scrambled_semantic"":""8"",""num_scrambled_causal"":""4"",""num_scrambled_schematic"":""4"",""participantId"":""2CD4ED90AEAA4DBC9CC50FF108FD34A2"",""assignmentId"":""ecd11fa1-ba7b-4f13-a647-d8608a2d27ee"",""projectId"":""ba640c14-69c5-453e-80b2-29051492c0e0""}","https://test12345.live/?num_scrambled_semantic=8&num_scrambled_causal=4&num_scrambled_schematic=4&participantId=2CD4ED90AEAA4DBC9CC50FF108FD34A2&assignmentId=ecd11fa1-ba7b-4f13-a647-d8608a2d27ee&projectId=ba640c14-69c5-453e-80b2-29051492c0e0","2CD4ED90AEAA4DBC9CC50FF108FD34A2-2025-05-14-21-03-46","[{""page_index"":0,""viewing_time"":8858},{""page_index"":1,""viewing_time"":8978}]","17836","","","","",""
"","","","","","image-button-response","8","110551","0.0-6.0-0.0","2CD4ED90AEAA4DBC9CC50FF108FD34A2","2CD4ED90AEAA4DBC9CC50FF108FD34A2","ecd11fa1-ba7b-4f13-a647-d8608a2d27ee","ba640c14-69c5-453e-80b2-29051492c0e0","{""num_scrambled_semantic"":""8"",""num_scrambled_causal"":""4"",""num_scrambled_schematic"":""4"",""participantId"":""2CD4ED90AEAA4DBC9CC50FF108FD34A2"",""assignmentId"":""ecd11fa1-ba7b-4f13-a647-d8608a2d27ee"",""projectId"":""ba640c14-69c5-453e-80b2-29051492c0e0""}","https://test12345.live/?num_scrambled_semantic=8&num_scrambled_causal=4&num_scrambled_schematic=4&participantId=2CD4ED90AEAA4DBC9CC50FF108FD34A2&assignmentId=ecd11fa1-ba7b-4f13-a647-d8608a2d27ee&projectId=ba640c14-69c5-453e-80b2-29051492c0e0","2CD4ED90AEAA4DBC9CC50FF108FD34A2-2025-05-14-21-03-46","","null","","images/instructions/movie_0.png","null","",""
"","","","","","image-button-response","9","115066","0.0-6.0-1.0-0.0","2CD4ED90AEAA4DBC9CC50FF108FD34A2","2CD4ED90AEAA4DBC9CC50FF108FD34A2","ecd11fa1-ba7b-4f13-a647-d8608a2d27ee","ba640c14-69c5-453e-80b2-29051492c0e0","{""num_scrambled_semantic"":""8"",""num_scrambled_causal"":""4"",""num_scrambled_schematic"":""4"",""participantId"":""2CD4ED90AEAA4DBC9CC50FF108FD34A2"",""assignmentId"":""ecd11fa1-ba7b-4f13-a647-d8608a2d27ee"",""projectId"":""ba640c14-69c5-453e-80b2-29051492c0e0""}","https://test12345.live/?num_scrambled_semantic=8&num_scrambled_causal=4&num_scrambled_schematic=4&participantId=2CD4ED90AEAA4DBC9CC50FF108FD34A2&assignmentId=ecd11fa1-ba7b-4f13-a647-d8608a2d27ee&projectId=ba640c14-69c5-453e-80b2-29051492c0e0","2CD4ED90AEAA4DBC9CC50FF108FD34A2-2025-05-14-21-03-46","","null","","images/instructions/movie_1.png","null","",""
"","","","","","image-button-response","10","118402","0.0-6.0-1.0-1.0","2CD4ED90AEAA4DBC9CC50FF108FD34A2","2CD4ED90AEAA4DBC9CC50FF108FD34A2","ecd11fa1-ba7b-4f13-a647-d8608a2d27ee","ba640c14-69c5-453e-80b2-29051492c0e0","{""num_scrambled_semantic"":""8"",""num_scrambled_causal"":""4"",""num_scrambled_schematic"":""4"",""participantId"":""2CD4ED90AEAA4DBC9CC50FF108FD34A2"",""assignmentId"":""ecd11fa1-ba7b-4f13-a647-d8608a2d27ee"",""projectId"":""ba640c14-69c5-453e-80b2-29051492c0e0""}","https://test12345.live/?num_scrambled_semantic=8&num_scrambled_causal=4&num_scrambled_schematic=4&participantId=2CD4ED90AEAA4DBC9CC50FF108FD34A2&assignmentId=ecd11fa1-ba7b-4f13-a647-d8608a2d27ee&projectId=ba640c14-69c5-453e-80b2-29051492c0e0","2CD4ED90AEAA4DBC9CC50FF108FD34A2-2025-05-14-21-03-46","","3334","","images/instructions/movie_1.png","0","",""
"","","","","","image-button-response","11","120207","0.0-6.0-1.0-2.0","2CD4ED90AEAA4DBC9CC50FF108FD34A2","2CD4ED90AEAA4DBC9CC50FF108FD34A2","ecd11fa1-ba7b-4f13-a647-d8608a2d27ee","ba640c14-69c5-453e-80b2-29051492c0e0","{""num_scrambled_semantic"":""8"",""num_scrambled_causal"":""4"",""num_scrambled_schematic"":""4"",""participantId"":""2CD4ED90AEAA4DBC9CC50FF108FD34A2"",""assignmentId"":""ecd11fa1-ba7b-4f13-a647-d8608a2d27ee"",""projectId"":""ba640c14-69c5-453e-80b2-29051492c0e0""}","https://test12345.live/?num_scrambled_semantic=8&num_scrambled_causal=4&num_scrambled_schematic=4&participantId=2CD4ED90AEAA4DBC9CC50FF108FD34A2&assignmentId=ecd11fa1-ba7b-4f13-a647-d8608a2d27ee&projectId=ba640c14-69c5-453e-80b2-29051492c0e0","2CD4ED90AEAA4DBC9CC50FF108FD34A2-2025-05-14-21-03-46","","null","","[]","null","",""
"","","","","","image-button-response","12","124720","0.0-6.0-1.0-0.1","2CD4ED90AEAA4DBC9CC50FF108FD34A2","2CD4ED90AEAA4DBC9CC50FF108FD34A2","ecd11fa1-ba7b-4f13-a647-d8608a2d27ee","ba640c14-69c5-453e-80b2-29051492c0e0","{""num_scrambled_semantic"":""8"",""num_scrambled_causal"":""4"",""num_scrambled_schematic"":""4"",""participantId"":""2CD4ED90AEAA4DBC9CC50FF108FD34A2"",""assignmentId"":""ecd11fa1-ba7b-4f13-a647-d8608a2d27ee"",""projectId"":""ba640c14-69c5-453e-80b2-29051492c0e0""}","https://test12345.live/?num_scrambled_semantic=8&num_scrambled_causal=4&num_scrambled_schematic=4&participantId=2CD4ED90AEAA4DBC9CC50FF108FD34A2&assignmentId=ecd11fa1-ba7b-4f13-a647-d8608a2d27ee&projectId=ba640c14-69c5-453e-80b2-29051492c0e0","2CD4ED90AEAA4DBC9CC50FF108FD34A2-2025-05-14-21-03-46","","null","","images/instructions/movie_2.png","null","",""
"","","","","","image-button-response","13","127179","0.0-6.0-1.0-1.1","2CD4ED90AEAA4DBC9CC50FF108FD34A2","2CD4ED90AEAA4DBC9CC50FF108FD34A2","ecd11fa1-ba7b-4f13-a647-d8608a2d27ee","ba640c14-69c5-453e-80b2-29051492c0e0","{""num_scrambled_semantic"":""8"",""num_scrambled_causal"":""4"",""num_scrambled_schematic"":""4"",""participantId"":""2CD4ED90AEAA4DBC9CC50FF108FD34A2"",""assignmentId"":""ecd11fa1-ba7b-4f13-a647-d8608a2d27ee"",""projectId"":""ba640c14-69c5-453e-80b2-29051492c0e0""}","https://test12345.live/?num_scrambled_semantic=8&num_scrambled_causal=4&num_scrambled_schematic=4&participantId=2CD4ED90AEAA4DBC9CC50FF108FD34A2&assignmentId=ecd11fa1-ba7b-4f13-a647-d8608a2d27ee&projectId=ba640c14-69c5-453e-80b2-29051492c0e0","2CD4ED90AEAA4DBC9CC50FF108FD34A2-2025-05-14-21-03-46","","2458","","images/instructions/movie_2.png","0","",""
"","","","","","image-button-response","14","128989","0.0-6.0-1.0-2.1","2CD4ED90AEAA4DBC9CC50FF108FD34A2","2CD4ED90AEAA4DBC9CC50FF108FD34A2","ecd11fa1-ba7b-4f13-a647-d8608a2d27ee","ba640c14-69c5-453e-80b2-29051492c0e0","{""num_scrambled_semantic"":""8"",""num_scrambled_causal"":""4"",""num_scrambled_schematic"":""4"",""participantId"":""2CD4ED90AEAA4DBC9CC50FF108FD34A2"",""assignmentId"":""ecd11fa1-ba7b-4f13-a647-d8608a2d27ee"",""projectId"":""ba640c14-69c5-453e-80b2-29051492c0e0""}","https://test12345.live/?num_scrambled_semantic=8&num_scrambled_causal=4&num_scrambled_schematic=4&participantId=2CD4ED90AEAA4DBC9CC50FF108FD34A2&assignmentId=ecd11fa1-ba7b-4f13-a647-d8608a2d27ee&projectId=ba640c14-69c5-453e-80b2-29051492c0e0","2CD4ED90AEAA4DBC9CC50FF108FD34A2-2025-05-14-21-03-46","","null","","[]","null","",""
"","","","","","image-button-response","15","133490","0.0-6.0-1.0-0.2","2CD4ED90AEAA4DBC9CC50FF108FD34A2","2CD4ED90AEAA4DBC9CC50FF108FD34A2","ecd11fa1-ba7b-4f13-a647-d8608a2d27ee","ba640c14-69c5-453e-80b2-29051492c0e0","{""num_scrambled_semantic"":""8"",""num_scrambled_causal"":""4"",""num_scrambled_schematic"":""4"",""participantId"":""2CD4ED90AEAA4DBC9CC50FF108FD34A2"",""assignmentId"":""ecd11fa1-ba7b-4f13-a647-d8608a2d27ee"",""projectId"":""ba640c14-69c5-453e-80b2-29051492c0e0""}","https://test12345.live/?num_scrambled_semantic=8&num_scrambled_causal=4&num_scrambled_schematic=4&participantId=2CD4ED90AEAA4DBC9CC50FF108FD34A2&assignmentId=ecd11fa1-ba7b-4f13-a647-d8608a2d27ee&projectId=ba640c14-69c5-453e-80b2-29051492c0e0","2CD4ED90AEAA4DBC9CC50FF108FD34A2-2025-05-14-21-03-46","","null","","images/instructions/movie_3.png","null","",""
"","","","","","image-button-response","16","134718","0.0-6.0-1.0-1.2","2CD4ED90AEAA4DBC9CC50FF108FD34A2","2CD4ED90AEAA4DBC9CC50FF108FD34A2","ecd11fa1-ba7b-4f13-a647-d8608a2d27ee","ba640c14-69c5-453e-80b2-29051492c0e0","{""num_scrambled_semantic"":""8"",""num_scrambled_causal"":""4"",""num_scrambled_schematic"":""4"",""participantId"":""2CD4ED90AEAA4DBC9CC50FF108FD34A2"",""assignmentId"":""ecd11fa1-ba7b-4f13-a647-d8608a2d27ee"",""projectId"":""ba640c14-69c5-453e-80b2-29051492c0e0""}","https://test12345.live/?num_scrambled_semantic=8&num_scrambled_causal=4&num_scrambled_schematic=4&participantId=2CD4ED90AEAA4DBC9CC50FF108FD34A2&assignmentId=ecd11fa1-ba7b-4f13-a647-d8608a2d27ee&projectId=ba640c14-69c5-453e-80b2-29051492c0e0","2CD4ED90AEAA4DBC9CC50FF108FD34A2-2025-05-14-21-03-46","","1227","","images/instructions/movie_3.png","0","",""
"","","","","","image-button-response","17","136531","0.0-6.0-1.0-2.2","2CD4ED90AEAA4DBC9CC50FF108FD34A2","2CD4ED90AEAA4DBC9CC50FF108FD34A2","ecd11fa1-ba7b-4f13-a647-d8608a2d27ee","ba640c14-69c5-453e-80b2-29051492c0e0","{""num_scrambled_semantic"":""8"",""num_scrambled_causal"":""4"",""num_scrambled_schematic"":""4"",""participantId"":""2CD4ED90AEAA4DBC9CC50FF108FD34A2"",""assignmentId"":""ecd11fa1-ba7b-4f13-a647-d8608a2d27ee"",""projectId"":""ba640c14-69c5-453e-80b2-29051492c0e0""}","https://test12345.live/?num_scrambled_semantic=8&num_scrambled_causal=4&num_scrambled_schematic=4&participantId=2CD4ED90AEAA4DBC9CC50FF108FD34A2&assignmentId=ecd11fa1-ba7b-4f13-a647-d8608a2d27ee&projectId=ba640c14-69c5-453e-80b2-29051492c0e0","2CD4ED90AEAA4DBC9CC50FF108FD34A2-2025-05-14-21-03-46","","null","","[]","null","",""
"","","","","","image-button-response","18","141038","0.0-6.0-1.0-0.3","2CD4ED90AEAA4DBC9CC50FF108FD34A2","2CD4ED90AEAA4DBC9CC50FF108FD34A2","ecd11fa1-ba7b-4f13-a647-d8608a2d27ee","ba640c14-69c5-453e-80b2-29051492c0e0","{""num_scrambled_semantic"":""8"",""num_scrambled_causal"":""4"",""num_scrambled_schematic"":""4"",""participantId"":""2CD4ED90AEAA4DBC9CC50FF108FD34A2"",""assignmentId"":""ecd11fa1-ba7b-4f13-a647-d8608a2d27ee"",""projectId"":""ba640c14-69c5-453e-80b2-29051492c0e0""}","https://test12345.live/?num_scrambled_semantic=8&num_scrambled_causal=4&num_scrambled_schematic=4&participantId=2CD4ED90AEAA4DBC9CC50FF108FD34A2&assignmentId=ecd11fa1-ba7b-4f13-a647-d8608a2d27ee&projectId=ba640c14-69c5-453e-80b2-29051492c0e0","2CD4ED90AEAA4DBC9CC50FF108FD34A2-2025-05-14-21-03-46","","null","","images/instructions/movie_4.png","null","",""
"","","","","","image-button-response","19","142538","0.0-6.0-1.0-1.3","2CD4ED90AEAA4DBC9CC50FF108FD34A2","2CD4ED90AEAA4DBC9CC50FF108FD34A2","ecd11fa1-ba7b-4f13-a647-d8608a2d27ee","ba640c14-69c5-453e-80b2-29051492c0e0","{""num_scrambled_semantic"":""8"",""num_scrambled_causal"":""4"",""num_scrambled_schematic"":""4"",""participantId"":""2CD4ED90AEAA4DBC9CC50FF108FD34A2"",""assignmentId"":""ecd11fa1-ba7b-4f13-a647-d8608a2d27ee"",""projectId"":""ba640c14-69c5-453e-80b2-29051492c0e0""}","https://test12345.live/?num_scrambled_semantic=8&num_scrambled_causal=4&num_scrambled_schematic=4&participantId=2CD4ED90AEAA4DBC9CC50FF108FD34A2&assignmentId=ecd11fa1-ba7b-4f13-a647-d8608a2d27ee&projectId=ba640c14-69c5-453e-80b2-29051492c0e0","2CD4ED90AEAA4DBC9CC50FF108FD34A2-2025-05-14-21-03-46","","1499","","images/instructions/movie_4.png","0","",""
"","","","","","image-button-response","20","144342","0.0-6.0-1.0-2.3","2CD4ED90AEAA4DBC9CC50FF108FD34A2","2CD4ED90AEAA4DBC9CC50FF108FD34A2","ecd11fa1-ba7b-4f13-a647-d8608a2d27ee","ba640c14-69c5-453e-80b2-29051492c0e0","{""num_scrambled_semantic"":""8"",""num_scrambled_causal"":""4"",""num_scrambled_schematic"":""4"",""participantId"":""2CD4ED90AEAA4DBC9CC50FF108FD34A2"",""assignmentId"":""ecd11fa1-ba7b-4f13-a647-d8608a2d27ee"",""projectId"":""ba640c14-69c5-453e-80b2-29051492c0e0""}","https://test12345.live/?num_scrambled_semantic=8&num_scrambled_causal=4&num_scrambled_schematic=4&participantId=2CD4ED90AEAA4DBC9CC50FF108FD34A2&assignmentId=ecd11fa1-ba7b-4f13-a647-d8608a2d27ee&projectId=ba640c14-69c5-453e-80b2-29051492c0e0","2CD4ED90AEAA4DBC9CC50FF108FD34A2-2025-05-14-21-03-46","","null","","[]","null","",""
"","","","","","instructions","21","159455","0.0-7.0","2CD4ED90AEAA4DBC9CC50FF108FD34A2","2CD4ED90AEAA4DBC9CC50FF108FD34A2","ecd11fa1-ba7b-4f13-a647-d8608a2d27ee","ba640c14-69c5-453e-80b2-29051492c0e0","{""num_scrambled_semantic"":""8"",""num_scrambled_causal"":""4"",""num_scrambled_schematic"":""4"",""participantId"":""2CD4ED90AEAA4DBC9CC50FF108FD34A2"",""assignmentId"":""ecd11fa1-ba7b-4f13-a647-d8608a2d27ee"",""projectId"":""ba640c14-69c5-453e-80b2-29051492c0e0""}","https://test12345.live/?num_scrambled_semantic=8&num_scrambled_causal=4&num_scrambled_schematic=4&participantId=2CD4ED90AEAA4DBC9CC50FF108FD34A2&assignmentId=ecd11fa1-ba7b-4f13-a647-d8608a2d27ee&projectId=ba640c14-69c5-453e-80b2-29051492c0e0","2CD4ED90AEAA4DBC9CC50FF108FD34A2-2025-05-14-21-03-46","[{""page_index"":0,""viewing_time"":12512},{""page_index"":1,""viewing_time"":2600}]","15113","","","","",""
"","","","","","html-audio-response","22","198613","0.0-8.0","2CD4ED90AEAA4DBC9CC50FF108FD34A2","2CD4ED90AEAA4DBC9CC50FF108FD34A2","ecd11fa1-ba7b-4f13-a647-d8608a2d27ee","ba640c14-69c5-453e-80b2-29051492c0e0","{""num_scrambled_semantic"":""8"",""num_scrambled_causal"":""4"",""num_scrambled_schematic"":""4"",""participantId"":""2CD4ED90AEAA4DBC9CC50FF108FD34A2"",""assignmentId"":""ecd11fa1-ba7b-4f13-a647-d8608a2d27ee"",""projectId"":""ba640c14-69c5-453e-80b2-29051492c0e0""}","https://test12345.live/?num_scrambled_semantic=8&num_scrambled_causal=4&num_scrambled_schematic=4&participantId=2CD4ED90AEAA4DBC9CC50FF108FD34A2&assignmentId=ecd11fa1-ba7b-4f13-a647-d8608a2d27ee&projectId=ba640c14-69c5-453e-80b2-29051492c0e0","2CD4ED90AEAA4DBC9CC50FF108FD34A2-2025-05-14-21-03-46","","19432","","[""<span style=\""color: red; font-size: 24px\""> NOW RECORDING</span><p>Please say out loud all the images you saw, as many as you can remember. The images can be said in any order.</p>""]","","1",""
"","","","","","instructions","23","200629","0.0-9.0","2CD4ED90AEAA4DBC9CC50FF108FD34A2","2CD4ED90AEAA4DBC9CC50FF108FD34A2","ecd11fa1-ba7b-4f13-a647-d8608a2d27ee","ba640c14-69c5-453e-80b2-29051492c0e0","{""num_scrambled_semantic"":""8"",""num_scrambled_causal"":""4"",""num_scrambled_schematic"":""4"",""participantId"":""2CD4ED90AEAA4DBC9CC50FF108FD34A2"",""assignmentId"":""ecd11fa1-ba7b-4f13-a647-d8608a2d27ee"",""projectId"":""ba640c14-69c5-453e-80b2-29051492c0e0""}","https://test12345.live/?num_scrambled_semantic=8&num_scrambled_causal=4&num_scrambled_schematic=4&participantId=2CD4ED90AEAA4DBC9CC50FF108FD34A2&assignmentId=ecd11fa1-ba7b-4f13-a647-d8608a2d27ee&projectId=ba640c14-69c5-453e-80b2-29051492c0e0","2CD4ED90AEAA4DBC9CC50FF108FD34A2-2025-05-14-21-03-46","[{""page_index"":0,""viewing_time"":2011}]","2011","","","","",""
"","","","","","image-button-response","24","206634","0.0-10.0-0.0","2CD4ED90AEAA4DBC9CC50FF108FD34A2","2CD4ED90AEAA4DBC9CC50FF108FD34A2","ecd11fa1-ba7b-4f13-a647-d8608a2d27ee","ba640c14-69c5-453e-80b2-29051492c0e0","{""num_scrambled_semantic"":""8"",""num_scrambled_causal"":""4"",""num_scrambled_schematic"":""4"",""participantId"":""2CD4ED90AEAA4DBC9CC50FF108FD34A2"",""assignmentId"":""ecd11fa1-ba7b-4f13-a647-d8608a2d27ee"",""projectId"":""ba640c14-69c5-453e-80b2-29051492c0e0""}","https://test12345.live/?num_scrambled_semantic=8&num_scrambled_causal=4&num_scrambled_schematic=4&participantId=2CD4ED90AEAA4DBC9CC50FF108FD34A2&assignmentId=ecd11fa1-ba7b-4f13-a647-d8608a2d27ee&projectId=ba640c14-69c5-453e-80b2-29051492c0e0","2CD4ED90AEAA4DBC9CC50FF108FD34A2-2025-05-14-21-03-46","","null","","images/semantic_sequence/kitchen_operations_semantic/kitchen_operations_semantic_0.png","null","",""
"","","","","","image-button-response","25","211147","0.0-10.0-1.0-0.0","2CD4ED90AEAA4DBC9CC50FF108FD34A2","2CD4ED90AEAA4DBC9CC50FF108FD34A2","ecd11fa1-ba7b-4f13-a647-d8608a2d27ee","ba640c14-69c5-453e-80b2-29051492c0e0","{""num_scrambled_semantic"":""8"",""num_scrambled_causal"":""4"",""num_scrambled_schematic"":""4"",""participantId"":""2CD4ED90AEAA4DBC9CC50FF108FD34A2"",""assignmentId"":""ecd11fa1-ba7b-4f13-a647-d8608a2d27ee"",""projectId"":""ba640c14-69c5-453e-80b2-29051492c0e0""}","https://test12345.live/?num_scrambled_semantic=8&num_scrambled_causal=4&num_scrambled_schematic=4&participantId=2CD4ED90AEAA4DBC9CC50FF108FD34A2&assignmentId=ecd11fa1-ba7b-4f13-a647-d8608a2d27ee&projectId=ba640c14-69c5-453e-80b2-29051492c0e0","2CD4ED90AEAA4DBC9CC50FF108FD34A2-2025-05-14-21-03-46","","null","","images/semantic_sequence/kitchen_operations_semantic/kitchen_operations_semantic_9.png","null","",""
"","","","","","image-button-response","26","213069","0.0-10.0-1.0-1.0","2CD4ED90AEAA4DBC9CC50FF108FD34A2","2CD4ED90AEAA4DBC9CC50FF108FD34A2","ecd11fa1-ba7b-4f13-a647-d8608a2d27ee","ba640c14-69c5-453e-80b2-29051492c0e0","{""num_scrambled_semantic"":""8"",""num_scrambled_causal"":""4"",""num_scrambled_schematic"":""4"",""participantId"":""2CD4ED90AEAA4DBC9CC50FF108FD34A2"",""assignmentId"":""ecd11fa1-ba7b-4f13-a647-d8608a2d27ee"",""projectId"":""ba640c14-69c5-453e-80b2-29051492c0e0""}","https://test12345.live/?num_scrambled_semantic=8&num_scrambled_causal=4&num_scrambled_schematic=4&participantId=2CD4ED90AEAA4DBC9CC50FF108FD34A2&assignmentId=ecd11fa1-ba7b-4f13-a647-d8608a2d27ee&projectId=ba640c14-69c5-453e-80b2-29051492c0e0","2CD4ED90AEAA4DBC9CC50FF108FD34A2-2025-05-14-21-03-46","","1921","","images/semantic_sequence/kitchen_operations_semantic/kitchen_operations_semantic_9.png","0","",""
"","","","","","image-button-response","27","214870","0.0-10.0-1.0-2.0","2CD4ED90AEAA4DBC9CC50FF108FD34A2","2CD4ED90AEAA4DBC9CC50FF108FD34A2","ecd11fa1-ba7b-4f13-a647-d8608a2d27ee","ba640c14-69c5-453e-80b2-29051492c0e0","{""num_scrambled_semantic"":""8"",""num_scrambled_causal"":""4"",""num_scrambled_schematic"":""4"",""participantId"":""2CD4ED90AEAA4DBC9CC50FF108FD34A2"",""assignmentId"":""ecd11fa1-ba7b-4f13-a647-d8608a2d27ee"",""projectId"":""ba640c14-69c5-453e-80b2-29051492c0e0""}","https://test12345.live/?num_scrambled_semantic=8&num_scrambled_causal=4&num_scrambled_schematic=4&participantId=2CD4ED90AEAA4DBC9CC50FF108FD34A2&assignmentId=ecd11fa1-ba7b-4f13-a647-d8608a2d27ee&projectId=ba640c14-69c5-453e-80b2-29051492c0e0","2CD4ED90AEAA4DBC9CC50FF108FD34A2-2025-05-14-21-03-46","","null","","[]","null","",""
"","","","","","image-button-response","28","219375","0.0-10.0-1.0-0.1","2CD4ED90AEAA4DBC9CC50FF108FD34A2","2CD4ED90AEAA4DBC9CC50FF108FD34A2","ecd11fa1-ba7b-4f13-a647-d8608a2d27ee","ba640c14-69c5-453e-80b2-29051492c0e0","{""num_scrambled_semantic"":""8"",""num_scrambled_causal"":""4"",""num_scrambled_schematic"":""4"",""participantId"":""2CD4ED90AEAA4DBC9CC50FF108FD34A2"",""assignmentId"":""ecd11fa1-ba7b-4f13-a647-d8608a2d27ee"",""projectId"":""ba640c14-69c5-453e-80b2-29051492c0e0""}","https://test12345.live/?num_scrambled_semantic=8&num_scrambled_causal=4&num_scrambled_schematic=4&participantId=2CD4ED90AEAA4DBC9CC50FF108FD34A2&assignmentId=ecd11fa1-ba7b-4f13-a647-d8608a2d27ee&projectId=ba640c14-69c5-453e-80b2-29051492c0e0","2CD4ED90AEAA4DBC9CC50FF108FD34A2-2025-05-14-21-03-46","","null","","images/semantic_sequence/kitchen_operations_semantic/kitchen_operations_semantic_4.png","null","",""
"","","","","","image-button-response","29","223390","0.0-10.0-1.0-1.1","2CD4ED90AEAA4DBC9CC50FF108FD34A2","2CD4ED90AEAA4DBC9CC50FF108FD34A2","ecd11fa1-ba7b-4f13-a647-d8608a2d27ee","ba640c14-69c5-453e-80b2-29051492c0e0","{""num_scrambled_semantic"":""8"",""num_scrambled_causal"":""4"",""num_scrambled_schematic"":""4"",""participantId"":""2CD4ED90AEAA4DBC9CC50FF108FD34A2"",""assignmentId"":""ecd11fa1-ba7b-4f13-a647-d8608a2d27ee"",""projectId"":""ba640c14-69c5-453e-80b2-29051492c0e0""}","https://test12345.live/?num_scrambled_semantic=8&num_scrambled_causal=4&num_scrambled_schematic=4&participantId=2CD4ED90AEAA4DBC9CC50FF108FD34A2&assignmentId=ecd11fa1-ba7b-4f13-a647-d8608a2d27ee&projectId=ba640c14-69c5-453e-80b2-29051492c0e0","2CD4ED90AEAA4DBC9CC50FF108FD34A2-2025-05-14-21-03-46","","null","","images/semantic_sequence/kitchen_operations_semantic/kitchen_operations_semantic_4.png","null","",""
"","","","","","image-button-response","30","225192","0.0-10.0-1.0-2.1","2CD4ED90AEAA4DBC9CC50FF108FD34A2","2CD4ED90AEAA4DBC9CC50FF108FD34A2","ecd11fa1-ba7b-4f13-a647-d8608a2d27ee","ba640c14-69c5-453e-80b2-29051492c0e0","{""num_scrambled_semantic"":""8"",""num_scrambled_causal"":""4"",""num_scrambled_schematic"":""4"",""participantId"":""2CD4ED90AEAA4DBC9CC50FF108FD34A2"",""assignmentId"":""ecd11fa1-ba7b-4f13-a647-d8608a2d27ee"",""projectId"":""ba640c14-69c5-453e-80b2-29051492c0e0""}","https://test12345.live/?num_scrambled_semantic=8&num_scrambled_causal=4&num_scrambled_schematic=4&participantId=2CD4ED90AEAA4DBC9CC50FF108FD34A2&assignmentId=ecd11fa1-ba7b-4f13-a647-d8608a2d27ee&projectId=ba640c14-69c5-453e-80b2-29051492c0e0","2CD4ED90AEAA4DBC9CC50FF108FD34A2-2025-05-14-21-03-46","","null","","[]","null","",""
"","","","","","image-button-response","31","229706","0.0-10.0-1.0-0.2","2CD4ED90AEAA4DBC9CC50FF108FD34A2","2CD4ED90AEAA4DBC9CC50FF108FD34A2","ecd11fa1-ba7b-4f13-a647-d8608a2d27ee","ba640c14-69c5-453e-80b2-29051492c0e0","{""num_scrambled_semantic"":""8"",""num_scrambled_causal"":""4"",""num_scrambled_schematic"":""4"",""participantId"":""2CD4ED90AEAA4DBC9CC50FF108FD34A2"",""assignmentId"":""ecd11fa1-ba7b-4f13-a647-d8608a2d27ee"",""projectId"":""ba640c14-69c5-453e-80b2-29051492c0e0""}","https://test12345.live/?num_scrambled_semantic=8&num_scrambled_causal=4&num_scrambled_schematic=4&participantId=2CD4ED90AEAA4DBC9CC50FF108FD34A2&assignmentId=ecd11fa1-ba7b-4f13-a647-d8608a2d27ee&projectId=ba640c14-69c5-453e-80b2-29051492c0e0","2CD4ED90AEAA4DBC9CC50FF108FD34A2-2025-05-14-21-03-46","","null","","images/semantic_sequence/kitchen_operations_semantic/kitchen_operations_semantic_ten.png","null","",""
"","","","","","image-button-response","32","231021","0.0-10.0-1.0-1.2","2CD4ED90AEAA4DBC9CC50FF108FD34A2","2CD4ED90AEAA4DBC9CC50FF108FD34A2","ecd11fa1-ba7b-4f13-a647-d8608a2d27ee","ba640c14-69c5-453e-80b2-29051492c0e0","{""num_scrambled_semantic"":""8"",""num_scrambled_causal"":""4"",""num_scrambled_schematic"":""4"",""participantId"":""2CD4ED90AEAA4DBC9CC50FF108FD34A2"",""assignmentId"":""ecd11fa1-ba7b-4f13-a647-d8608a2d27ee"",""projectId"":""ba640c14-69c5-453e-80b2-29051492c0e0""}","https://test12345.live/?num_scrambled_semantic=8&num_scrambled_causal=4&num_scrambled_schematic=4&participantId=2CD4ED90AEAA4DBC9CC50FF108FD34A2&assignmentId=ecd11fa1-ba7b-4f13-a647-d8608a2d27ee&projectId=ba640c14-69c5-453e-80b2-29051492c0e0","2CD4ED90AEAA4DBC9CC50FF108FD34A2-2025-05-14-21-03-46","","1314","","images/semantic_sequence/kitchen_operations_semantic/kitchen_operations_semantic_ten.png","0","",""
"","","","","","image-button-response","33","232825","0.0-10.0-1.0-2.2","2CD4ED90AEAA4DBC9CC50FF108FD34A2","2CD4ED90AEAA4DBC9CC50FF108FD34A2","ecd11fa1-ba7b-4f13-a647-d8608a2d27ee","ba640c14-69c5-453e-80b2-29051492c0e0","{""num_scrambled_semantic"":""8"",""num_scrambled_causal"":""4"",""num_scrambled_schematic"":""4"",""participantId"":""2CD4ED90AEAA4DBC9CC50FF108FD34A2"",""assignmentId"":""ecd11fa1-ba7b-4f13-a647-d8608a2d27ee"",""projectId"":""ba640c14-69c5-453e-80b2-29051492c0e0""}","https://test12345.live/?num_scrambled_semantic=8&num_scrambled_causal=4&num_scrambled_schematic=4&participantId=2CD4ED90AEAA4DBC9CC50FF108FD34A2&assignmentId=ecd11fa1-ba7b-4f13-a647-d8608a2d27ee&projectId=ba640c14-69c5-453e-80b2-29051492c0e0","2CD4ED90AEAA4DBC9CC50FF108FD34A2-2025-05-14-21-03-46","","null","","[]","null","",""
"","","","","","image-button-response","34","237330","0.0-10.0-1.0-0.3","2CD4ED90AEAA4DBC9CC50FF108FD34A2","2CD4ED90AEAA4DBC9CC50FF108FD34A2","ecd11fa1-ba7b-4f13-a647-d8608a2d27ee","ba640c14-69c5-453e-80b2-29051492c0e0","{""num_scrambled_semantic"":""8"",""num_scrambled_causal"":""4"",""num_scrambled_schematic"":""4"",""participantId"":""2CD4ED90AEAA4DBC9CC50FF108FD34A2"",""assignmentId"":""ecd11fa1-ba7b-4f13-a647-d8608a2d27ee"",""projectId"":""ba640c14-69c5-453e-80b2-29051492c0e0""}","https://test12345.live/?num_scrambled_semantic=8&num_scrambled_causal=4&num_scrambled_schematic=4&participantId=2CD4ED90AEAA4DBC9CC50FF108FD34A2&assignmentId=ecd11fa1-ba7b-4f13-a647-d8608a2d27ee&projectId=ba640c14-69c5-453e-80b2-29051492c0e0","2CD4ED90AEAA4DBC9CC50FF108FD34A2-2025-05-14-21-03-46","","null","","images/semantic_sequence/kitchen_operations_semantic/kitchen_operations_semantic_1.png","null","",""
"","","","","","image-button-response","35","238363","0.0-10.0-1.0-1.3","2CD4ED90AEAA4DBC9CC50FF108FD34A2","2CD4ED90AEAA4DBC9CC50FF108FD34A2","ecd11fa1-ba7b-4f13-a647-d8608a2d27ee","ba640c14-69c5-453e-80b2-29051492c0e0","{""num_scrambled_semantic"":""8"",""num_scrambled_causal"":""4"",""num_scrambled_schematic"":""4"",""participantId"":""2CD4ED90AEAA4DBC9CC50FF108FD34A2"",""assignmentId"":""ecd11fa1-ba7b-4f13-a647-d8608a2d27ee"",""projectId"":""ba640c14-69c5-453e-80b2-29051492c0e0""}","https://test12345.live/?num_scrambled_semantic=8&num_scrambled_causal=4&num_scrambled_schematic=4&participantId=2CD4ED90AEAA4DBC9CC50FF108FD34A2&assignmentId=ecd11fa1-ba7b-4f13-a647-d8608a2d27ee&projectId=ba640c14-69c5-453e-80b2-29051492c0e0","2CD4ED90AEAA4DBC9CC50FF108FD34A2-2025-05-14-21-03-46","","1032","","images/semantic_sequence/kitchen_operations_semantic/kitchen_operations_semantic_1.png","0","",""
"","","","","","image-button-response","36","240165","0.0-10.0-1.0-2.3","2CD4ED90AEAA4DBC9CC50FF108FD34A2","2CD4ED90AEAA4DBC9CC50FF108FD34A2","ecd11fa1-ba7b-4f13-a647-d8608a2d27ee","ba640c14-69c5-453e-80b2-29051492c0e0","{""num_scrambled_semantic"":""8"",""num_scrambled_causal"":""4"",""num_scrambled_schematic"":""4"",""participantId"":""2CD4ED90AEAA4DBC9CC50FF108FD34A2"",""assignmentId"":""ecd11fa1-ba7b-4f13-a647-d8608a2d27ee"",""projectId"":""ba640c14-69c5-453e-80b2-29051492c0e0""}","https://test12345.live/?num_scrambled_semantic=8&num_scrambled_causal=4&num_scrambled_schematic=4&participantId=2CD4ED90AEAA4DBC9CC50FF108FD34A2&assignmentId=ecd11fa1-ba7b-4f13-a647-d8608a2d27ee&projectId=ba640c14-69c5-453e-80b2-29051492c0e0","2CD4ED90AEAA4DBC9CC50FF108FD34A2-2025-05-14-21-03-46","","null","","[]","null","",""
"","","","","","image-button-response","37","244670","0.0-10.0-1.0-0.4","2CD4ED90AEAA4DBC9CC50FF108FD34A2","2CD4ED90AEAA4DBC9CC50FF108FD34A2","ecd11fa1-ba7b-4f13-a647-d8608a2d27ee","ba640c14-69c5-453e-80b2-29051492c0e0","{""num_scrambled_semantic"":""8"",""num_scrambled_causal"":""4"",""num_scrambled_schematic"":""4"",""participantId"":""2CD4ED90AEAA4DBC9CC50FF108FD34A2"",""assignmentId"":""ecd11fa1-ba7b-4f13-a647-d8608a2d27ee"",""projectId"":""ba640c14-69c5-453e-80b2-29051492c0e0""}","https://test12345.live/?num_scrambled_semantic=8&num_scrambled_causal=4&num_scrambled_schematic=4&participantId=2CD4ED90AEAA4DBC9CC50FF108FD34A2&assignmentId=ecd11fa1-ba7b-4f13-a647-d8608a2d27ee&projectId=ba640c14-69c5-453e-80b2-29051492c0e0","2CD4ED90AEAA4DBC9CC50FF108FD34A2-2025-05-14-21-03-46","","null","","images/semantic_sequence/kitchen_operations_semantic/kitchen_operations_semantic_8.png","null","",""
"","","","","","image-button-response","38","245826","0.0-10.0-1.0-1.4","2CD4ED90AEAA4DBC9CC50FF108FD34A2","2CD4ED90AEAA4DBC9CC50FF108FD34A2","ecd11fa1-ba7b-4f13-a647-d8608a2d27ee","ba640c14-69c5-453e-80b2-29051492c0e0","{""num_scrambled_semantic"":""8"",""num_scrambled_causal"":""4"",""num_scrambled_schematic"":""4"",""participantId"":""2CD4ED90AEAA4DBC9CC50FF108FD34A2"",""assignmentId"":""ecd11fa1-ba7b-4f13-a647-d8608a2d27ee"",""projectId"":""ba640c14-69c5-453e-80b2-29051492c0e0""}","https://test12345.live/?num_scrambled_semantic=8&num_scrambled_causal=4&num_scrambled_schematic=4&participantId=2CD4ED90AEAA4DBC9CC50FF108FD34A2&assignmentId=ecd11fa1-ba7b-4f13-a647-d8608a2d27ee&projectId=ba640c14-69c5-453e-80b2-29051492c0e0","2CD4ED90AEAA4DBC9CC50FF108FD34A2-2025-05-14-21-03-46","","1155","","images/semantic_sequence/kitchen_operations_semantic/kitchen_operations_semantic_8.png","0","",""
"","","","","","image-button-response","39","247640","0.0-10.0-1.0-2.4","2CD4ED90AEAA4DBC9CC50FF108FD34A2","2CD4ED90AEAA4DBC9CC50FF108FD34A2","ecd11fa1-ba7b-4f13-a647-d8608a2d27ee","ba640c14-69c5-453e-80b2-29051492c0e0","{""num_scrambled_semantic"":""8"",""num_scrambled_causal"":""4"",""num_scrambled_schematic"":""4"",""participantId"":""2CD4ED90AEAA4DBC9CC50FF108FD34A2"",""assignmentId"":""ecd11fa1-ba7b-4f13-a647-d8608a2d27ee"",""projectId"":""ba640c14-69c5-453e-80b2-29051492c0e0""}","https://test12345.live/?num_scrambled_semantic=8&num_scrambled_causal=4&num_scrambled_schematic=4&participantId=2CD4ED90AEAA4DBC9CC50FF108FD34A2&assignmentId=ecd11fa1-ba7b-4f13-a647-d8608a2d27ee&projectId=ba640c14-69c5-453e-80b2-29051492c0e0","2CD4ED90AEAA4DBC9CC50FF108FD34A2-2025-05-14-21-03-46","","null","","[]","null","",""
"","","","","","image-button-response","40","252156","0.0-10.0-1.0-0.5","2CD4ED90AEAA4DBC9CC50FF108FD34A2","2CD4ED90AEAA4DBC9CC50FF108FD34A2","ecd11fa1-ba7b-4f13-a647-d8608a2d27ee","ba640c14-69c5-453e-80b2-29051492c0e0","{""num_scrambled_semantic"":""8"",""num_scrambled_causal"":""4"",""num_scrambled_schematic"":""4"",""participantId"":""2CD4ED90AEAA4DBC9CC50FF108FD34A2"",""assignmentId"":""ecd11fa1-ba7b-4f13-a647-d8608a2d27ee"",""projectId"":""ba640c14-69c5-453e-80b2-29051492c0e0""}","https://test12345.live/?num_scrambled_semantic=8&num_scrambled_causal=4&num_scrambled_schematic=4&participantId=2CD4ED90AEAA4DBC9CC50FF108FD34A2&assignmentId=ecd11fa1-ba7b-4f13-a647-d8608a2d27ee&projectId=ba640c14-69c5-453e-80b2-29051492c0e0","2CD4ED90AEAA4DBC9CC50FF108FD34A2-2025-05-14-21-03-46","","null","","images/semantic_sequence/kitchen_operations_semantic/kitchen_operations_semantic_7.png","null","",""
"","","","","","image-button-response","41","252790","0.0-10.0-1.0-1.5","2CD4ED90AEAA4DBC9CC50FF108FD34A2","2CD4ED90AEAA4DBC9CC50FF108FD34A2","ecd11fa1-ba7b-4f13-a647-d8608a2d27ee","ba640c14-69c5-453e-80b2-29051492c0e0","{""num_scrambled_semantic"":""8"",""num_scrambled_causal"":""4"",""num_scrambled_schematic"":""4"",""participantId"":""2CD4ED90AEAA4DBC9CC50FF108FD34A2"",""assignmentId"":""ecd11fa1-ba7b-4f13-a647-d8608a2d27ee"",""projectId"":""ba640c14-69c5-453e-80b2-29051492c0e0""}","https://test12345.live/?num_scrambled_semantic=8&num_scrambled_causal=4&num_scrambled_schematic=4&participantId=2CD4ED90AEAA4DBC9CC50FF108FD34A2&assignmentId=ecd11fa1-ba7b-4f13-a647-d8608a2d27ee&projectId=ba640c14-69c5-453e-80b2-29051492c0e0","2CD4ED90AEAA4DBC9CC50FF108FD34A2-2025-05-14-21-03-46","","633","","images/semantic_sequence/kitchen_operations_semantic/kitchen_operations_semantic_7.png","0","",""
"","","","","","image-button-response","42","254606","0.0-10.0-1.0-2.5","2CD4ED90AEAA4DBC9CC50FF108FD34A2","2CD4ED90AEAA4DBC9CC50FF108FD34A2","ecd11fa1-ba7b-4f13-a647-d8608a2d27ee","ba640c14-69c5-453e-80b2-29051492c0e0","{""num_scrambled_semantic"":""8"",""num_scrambled_causal"":""4"",""num_scrambled_schematic"":""4"",""participantId"":""2CD4ED90AEAA4DBC9CC50FF108FD34A2"",""assignmentId"":""ecd11fa1-ba7b-4f13-a647-d8608a2d27ee"",""projectId"":""ba640c14-69c5-453e-80b2-29051492c0e0""}","https://test12345.live/?num_scrambled_semantic=8&num_scrambled_causal=4&num_scrambled_schematic=4&participantId=2CD4ED90AEAA4DBC9CC50FF108FD34A2&assignmentId=ecd11fa1-ba7b-4f13-a647-d8608a2d27ee&projectId=ba640c14-69c5-453e-80b2-29051492c0e0","2CD4ED90AEAA4DBC9CC50FF108FD34A2-2025-05-14-21-03-46","","null","","[]","null","",""
"","","","","","image-button-response","43","259119","0.0-10.0-1.0-0.6","2CD4ED90AEAA4DBC9CC50FF108FD34A2","2CD4ED90AEAA4DBC9CC50FF108FD34A2","ecd11fa1-ba7b-4f13-a647-d8608a2d27ee","ba640c14-69c5-453e-80b2-29051492c0e0","{""num_scrambled_semantic"":""8"",""num_scrambled_causal"":""4"",""num_scrambled_schematic"":""4"",""participantId"":""2CD4ED90AEAA4DBC9CC50FF108FD34A2"",""assignmentId"":""ecd11fa1-ba7b-4f13-a647-d8608a2d27ee"",""projectId"":""ba640c14-69c5-453e-80b2-29051492c0e0""}","https://test12345.live/?num_scrambled_semantic=8&num_scrambled_causal=4&num_scrambled_schematic=4&participantId=2CD4ED90AEAA4DBC9CC50FF108FD34A2&assignmentId=ecd11fa1-ba7b-4f13-a647-d8608a2d27ee&projectId=ba640c14-69c5-453e-80b2-29051492c0e0","2CD4ED90AEAA4DBC9CC50FF108FD34A2-2025-05-14-21-03-46","","null","","images/semantic_sequence/kitchen_operations_semantic/kitchen_operations_semantic_6.png","null","",""
"","","","","","image-button-response","44","260129","0.0-10.0-1.0-1.6","2CD4ED90AEAA4DBC9CC50FF108FD34A2","2CD4ED90AEAA4DBC9CC50FF108FD34A2","ecd11fa1-ba7b-4f13-a647-d8608a2d27ee","ba640c14-69c5-453e-80b2-29051492c0e0","{""num_scrambled_semantic"":""8"",""num_scrambled_causal"":""4"",""num_scrambled_schematic"":""4"",""participantId"":""2CD4ED90AEAA4DBC9CC50FF108FD34A2"",""assignmentId"":""ecd11fa1-ba7b-4f13-a647-d8608a2d27ee"",""projectId"":""ba640c14-69c5-453e-80b2-29051492c0e0""}","https://test12345.live/?num_scrambled_semantic=8&num_scrambled_causal=4&num_scrambled_schematic=4&participantId=2CD4ED90AEAA4DBC9CC50FF108FD34A2&assignmentId=ecd11fa1-ba7b-4f13-a647-d8608a2d27ee&projectId=ba640c14-69c5-453e-80b2-29051492c0e0","2CD4ED90AEAA4DBC9CC50FF108FD34A2-2025-05-14-21-03-46","","1009","","images/semantic_sequence/kitchen_operations_semantic/kitchen_operations_semantic_6.png","0","",""
"","","","","","image-button-response","45","261942","0.0-10.0-1.0-2.6","2CD4ED90AEAA4DBC9CC50FF108FD34A2","2CD4ED90AEAA4DBC9CC50FF108FD34A2","ecd11fa1-ba7b-4f13-a647-d8608a2d27ee","ba640c14-69c5-453e-80b2-29051492c0e0","{""num_scrambled_semantic"":""8"",""num_scrambled_causal"":""4"",""num_scrambled_schematic"":""4"",""participantId"":""2CD4ED90AEAA4DBC9CC50FF108FD34A2"",""assignmentId"":""ecd11fa1-ba7b-4f13-a647-d8608a2d27ee"",""projectId"":""ba640c14-69c5-453e-80b2-29051492c0e0""}","https://test12345.live/?num_scrambled_semantic=8&num_scrambled_causal=4&num_scrambled_schematic=4&participantId=2CD4ED90AEAA4DBC9CC50FF108FD34A2&assignmentId=ecd11fa1-ba7b-4f13-a647-d8608a2d27ee&projectId=ba640c14-69c5-453e-80b2-29051492c0e0","2CD4ED90AEAA4DBC9CC50FF108FD34A2-2025-05-14-21-03-46","","null","","[]","null","",""
"","","","","","image-button-response","46","266453","0.0-10.0-1.0-0.7","2CD4ED90AEAA4DBC9CC50FF108FD34A2","2CD4ED90AEAA4DBC9CC50FF108FD34A2","ecd11fa1-ba7b-4f13-a647-d8608a2d27ee","ba640c14-69c5-453e-80b2-29051492c0e0","{""num_scrambled_semantic"":""8"",""num_scrambled_causal"":""4"",""num_scrambled_schematic"":""4"",""participantId"":""2CD4ED90AEAA4DBC9CC50FF108FD34A2"",""assignmentId"":""ecd11fa1-ba7b-4f13-a647-d8608a2d27ee"",""projectId"":""ba640c14-69c5-453e-80b2-29051492c0e0""}","https://test12345.live/?num_scrambled_semantic=8&num_scrambled_causal=4&num_scrambled_schematic=4&participantId=2CD4ED90AEAA4DBC9CC50FF108FD34A2&assignmentId=ecd11fa1-ba7b-4f13-a647-d8608a2d27ee&projectId=ba640c14-69c5-453e-80b2-29051492c0e0","2CD4ED90AEAA4DBC9CC50FF108FD34A2-2025-05-14-21-03-46","","null","","images/semantic_sequence/kitchen_operations_semantic/kitchen_operations_semantic_5.png","null","",""
"","","","","","image-button-response","47","268034","0.0-10.0-1.0-1.7","2CD4ED90AEAA4DBC9CC50FF108FD34A2","2CD4ED90AEAA4DBC9CC50FF108FD34A2","ecd11fa1-ba7b-4f13-a647-d8608a2d27ee","ba640c14-69c5-453e-80b2-29051492c0e0","{""num_scrambled_semantic"":""8"",""num_scrambled_causal"":""4"",""num_scrambled_schematic"":""4"",""participantId"":""2CD4ED90AEAA4DBC9CC50FF108FD34A2"",""assignmentId"":""ecd11fa1-ba7b-4f13-a647-d8608a2d27ee"",""projectId"":""ba640c14-69c5-453e-80b2-29051492c0e0""}","https://test12345.live/?num_scrambled_semantic=8&num_scrambled_causal=4&num_scrambled_schematic=4&participantId=2CD4ED90AEAA4DBC9CC50FF108FD34A2&assignmentId=ecd11fa1-ba7b-4f13-a647-d8608a2d27ee&projectId=ba640c14-69c5-453e-80b2-29051492c0e0","2CD4ED90AEAA4DBC9CC50FF108FD34A2-2025-05-14-21-03-46","","1580","","images/semantic_sequence/kitchen_operations_semantic/kitchen_operations_semantic_5.png","0","",""
"","","","","","image-button-response","48","269850","0.0-10.0-1.0-2.7","2CD4ED90AEAA4DBC9CC50FF108FD34A2","2CD4ED90AEAA4DBC9CC50FF108FD34A2","ecd11fa1-ba7b-4f13-a647-d8608a2d27ee","ba640c14-69c5-453e-80b2-29051492c0e0","{""num_scrambled_semantic"":""8"",""num_scrambled_causal"":""4"",""num_scrambled_schematic"":""4"",""participantId"":""2CD4ED90AEAA4DBC9CC50FF108FD34A2"",""assignmentId"":""ecd11fa1-ba7b-4f13-a647-d8608a2d27ee"",""projectId"":""ba640c14-69c5-453e-80b2-29051492c0e0""}","https://test12345.live/?num_scrambled_semantic=8&num_scrambled_causal=4&num_scrambled_schematic=4&participantId=2CD4ED90AEAA4DBC9CC50FF108FD34A2&assignmentId=ecd11fa1-ba7b-4f13-a647-d8608a2d27ee&projectId=ba640c14-69c5-453e-80b2-29051492c0e0","2CD4ED90AEAA4DBC9CC50FF108FD34A2-2025-05-14-21-03-46","","null","","[]","null","",""
"","","","","","image-button-response","49","274361","0.0-10.0-1.0-0.8","2CD4ED90AEAA4DBC9CC50FF108FD34A2","2CD4ED90AEAA4DBC9CC50FF108FD34A2","ecd11fa1-ba7b-4f13-a647-d8608a2d27ee","ba640c14-69c5-453e-80b2-29051492c0e0","{""num_scrambled_semantic"":""8"",""num_scrambled_causal"":""4"",""num_scrambled_schematic"":""4"",""participantId"":""2CD4ED90AEAA4DBC9CC50FF108FD34A2"",""assignmentId"":""ecd11fa1-ba7b-4f13-a647-d8608a2d27ee"",""projectId"":""ba640c14-69c5-453e-80b2-29051492c0e0""}","https://test12345.live/?num_scrambled_semantic=8&num_scrambled_causal=4&num_scrambled_schematic=4&participantId=2CD4ED90AEAA4DBC9CC50FF108FD34A2&assignmentId=ecd11fa1-ba7b-4f13-a647-d8608a2d27ee&projectId=ba640c14-69c5-453e-80b2-29051492c0e0","2CD4ED90AEAA4DBC9CC50FF108FD34A2-2025-05-14-21-03-46","","null","","images/semantic_sequence/kitchen_operations_semantic/kitchen_operations_semantic_3.png","null","",""
"","","","","","image-button-response","50","277497","0.0-10.0-1.0-1.8","2CD4ED90AEAA4DBC9CC50FF108FD34A2","2CD4ED90AEAA4DBC9CC50FF108FD34A2","ecd11fa1-ba7b-4f13-a647-d8608a2d27ee","ba640c14-69c5-453e-80b2-29051492c0e0","{""num_scrambled_semantic"":""8"",""num_scrambled_causal"":""4"",""num_scrambled_schematic"":""4"",""participantId"":""2CD4ED90AEAA4DBC9CC50FF108FD34A2"",""assignmentId"":""ecd11fa1-ba7b-4f13-a647-d8608a2d27ee"",""projectId"":""ba640c14-69c5-453e-80b2-29051492c0e0""}","https://test12345.live/?num_scrambled_semantic=8&num_scrambled_causal=4&num_scrambled_schematic=4&participantId=2CD4ED90AEAA4DBC9CC50FF108FD34A2&assignmentId=ecd11fa1-ba7b-4f13-a647-d8608a2d27ee&projectId=ba640c14-69c5-453e-80b2-29051492c0e0","2CD4ED90AEAA4DBC9CC50FF108FD34A2-2025-05-14-21-03-46","","3135","","images/semantic_sequence/kitchen_operations_semantic/kitchen_operations_semantic_3.png","0","",""
"","","","","","image-button-response","51","279304","0.0-10.0-1.0-2.8","2CD4ED90AEAA4DBC9CC50FF108FD34A2","2CD4ED90AEAA4DBC9CC50FF108FD34A2","ecd11fa1-ba7b-4f13-a647-d8608a2d27ee","ba640c14-69c5-453e-80b2-29051492c0e0","{""num_scrambled_semantic"":""8"",""num_scrambled_causal"":""4"",""num_scrambled_schematic"":""4"",""participantId"":""2CD4ED90AEAA4DBC9CC50FF108FD34A2"",""assignmentId"":""ecd11fa1-ba7b-4f13-a647-d8608a2d27ee"",""projectId"":""ba640c14-69c5-453e-80b2-29051492c0e0""}","https://test12345.live/?num_scrambled_semantic=8&num_scrambled_causal=4&num_scrambled_schematic=4&participantId=2CD4ED90AEAA4DBC9CC50FF108FD34A2&assignmentId=ecd11fa1-ba7b-4f13-a647-d8608a2d27ee&projectId=ba640c14-69c5-453e-80b2-29051492c0e0","2CD4ED90AEAA4DBC9CC50FF108FD34A2-2025-05-14-21-03-46","","null","","[]","null","",""
"","","","","","image-button-response","52","283816","0.0-10.0-1.0-0.9","2CD4ED90AEAA4DBC9CC50FF108FD34A2","2CD4ED90AEAA4DBC9CC50FF108FD34A2","ecd11fa1-ba7b-4f13-a647-d8608a2d27ee","ba640c14-69c5-453e-80b2-29051492c0e0","{""num_scrambled_semantic"":""8"",""num_scrambled_causal"":""4"",""num_scrambled_schematic"":""4"",""participantId"":""2CD4ED90AEAA4DBC9CC50FF108FD34A2"",""assignmentId"":""ecd11fa1-ba7b-4f13-a647-d8608a2d27ee"",""projectId"":""ba640c14-69c5-453e-80b2-29051492c0e0""}","https://test12345.live/?num_scrambled_semantic=8&num_scrambled_causal=4&num_scrambled_schematic=4&participantId=2CD4ED90AEAA4DBC9CC50FF108FD34A2&assignmentId=ecd11fa1-ba7b-4f13-a647-d8608a2d27ee&projectId=ba640c14-69c5-453e-80b2-29051492c0e0","2CD4ED90AEAA4DBC9CC50FF108FD34A2-2025-05-14-21-03-46","","null","","images/semantic_sequence/kitchen_operations_semantic/kitchen_operations_semantic_2.png","null","",""
"","","","","","image-button-response","53","286488","0.0-10.0-1.0-1.9","2CD4ED90AEAA4DBC9CC50FF108FD34A2","2CD4ED90AEAA4DBC9CC50FF108FD34A2","ecd11fa1-ba7b-4f13-a647-d8608a2d27ee","ba640c14-69c5-453e-80b2-29051492c0e0","{""num_scrambled_semantic"":""8"",""num_scrambled_causal"":""4"",""num_scrambled_schematic"":""4"",""participantId"":""2CD4ED90AEAA4DBC9CC50FF108FD34A2"",""assignmentId"":""ecd11fa1-ba7b-4f13-a647-d8608a2d27ee"",""projectId"":""ba640c14-69c5-453e-80b2-29051492c0e0""}","https://test12345.live/?num_scrambled_semantic=8&num_scrambled_causal=4&num_scrambled_schematic=4&participantId=2CD4ED90AEAA4DBC9CC50FF108FD34A2&assignmentId=ecd11fa1-ba7b-4f13-a647-d8608a2d27ee&projectId=ba640c14-69c5-453e-80b2-29051492c0e0","2CD4ED90AEAA4DBC9CC50FF108FD34A2-2025-05-14-21-03-46","","2670","","images/semantic_sequence/kitchen_operations_semantic/kitchen_operations_semantic_2.png","0","",""
"","","","","","image-button-response","54","288295","0.0-10.0-1.0-2.9","2CD4ED90AEAA4DBC9CC50FF108FD34A2","2CD4ED90AEAA4DBC9CC50FF108FD34A2","ecd11fa1-ba7b-4f13-a647-d8608a2d27ee","ba640c14-69c5-453e-80b2-29051492c0e0","{""num_scrambled_semantic"":""8"",""num_scrambled_causal"":""4"",""num_scrambled_schematic"":""4"",""participantId"":""2CD4ED90AEAA4DBC9CC50FF108FD34A2"",""assignmentId"":""ecd11fa1-ba7b-4f13-a647-d8608a2d27ee"",""projectId"":""ba640c14-69c5-453e-80b2-29051492c0e0""}","https://test12345.live/?num_scrambled_semantic=8&num_scrambled_causal=4&num_scrambled_schematic=4&participantId=2CD4ED90AEAA4DBC9CC50FF108FD34A2&assignmentId=ecd11fa1-ba7b-4f13-a647-d8608a2d27ee&projectId=ba640c14-69c5-453e-80b2-29051492c0e0","2CD4ED90AEAA4DBC9CC50FF108FD34A2-2025-05-14-21-03-46","","null","","[]","null","",""
"","","","","","html-audio-response","55","327374","0.0-11.0","2CD4ED90AEAA4DBC9CC50FF108FD34A2","2CD4ED90AEAA4DBC9CC50FF108FD34A2","ecd11fa1-ba7b-4f13-a647-d8608a2d27ee","ba640c14-69c5-453e-80b2-29051492c0e0","{""num_scrambled_semantic"":""8"",""num_scrambled_causal"":""4"",""num_scrambled_schematic"":""4"",""participantId"":""2CD4ED90AEAA4DBC9CC50FF108FD34A2"",""assignmentId"":""ecd11fa1-ba7b-4f13-a647-d8608a2d27ee"",""projectId"":""ba640c14-69c5-453e-80b2-29051492c0e0""}","https://test12345.live/?num_scrambled_semantic=8&num_scrambled_causal=4&num_scrambled_schematic=4&participantId=2CD4ED90AEAA4DBC9CC50FF108FD34A2&assignmentId=ecd11fa1-ba7b-4f13-a647-d8608a2d27ee&projectId=ba640c14-69c5-453e-80b2-29051492c0e0","2CD4ED90AEAA4DBC9CC50FF108FD34A2-2025-05-14-21-03-46","","29844","","[""<span style=\""color: red; font-size: 24px\""> NOW RECORDING</span><p>Please say out loud all the images you saw, as many as you can remember. The images can be said in any order.</p>""]","","1","kitchen_operations_semantic"
"","","","","","image-button-response","56","333383","0.0-12.0-0.0","2CD4ED90AEAA4DBC9CC50FF108FD34A2","2CD4ED90AEAA4DBC9CC50FF108FD34A2","ecd11fa1-ba7b-4f13-a647-d8608a2d27ee","ba640c14-69c5-453e-80b2-29051492c0e0","{""num_scrambled_semantic"":""8"",""num_scrambled_causal"":""4"",""num_scrambled_schematic"":""4"",""participantId"":""2CD4ED90AEAA4DBC9CC50FF108FD34A2"",""assignmentId"":""ecd11fa1-ba7b-4f13-a647-d8608a2d27ee"",""projectId"":""ba640c14-69c5-453e-80b2-29051492c0e0""}","https://test12345.live/?num_scrambled_semantic=8&num_scrambled_causal=4&num_scrambled_schematic=4&participantId=2CD4ED90AEAA4DBC9CC50FF108FD34A2&assignmentId=ecd11fa1-ba7b-4f13-a647-d8608a2d27ee&projectId=ba640c14-69c5-453e-80b2-29051492c0e0","2CD4ED90AEAA4DBC9CC50FF108FD34A2-2025-05-14-21-03-46","","null","","images/causal_sequence/saving_a_cat_causal/saving_a_cat_causal_0.png","null","",""
"","","","","","image-button-response","57","337895","0.0-12.0-1.0-0.0","2CD4ED90AEAA4DBC9CC50FF108FD34A2","2CD4ED90AEAA4DBC9CC50FF108FD34A2","ecd11fa1-ba7b-4f13-a647-d8608a2d27ee","ba640c14-69c5-453e-80b2-29051492c0e0","{""num_scrambled_semantic"":""8"",""num_scrambled_causal"":""4"",""num_scrambled_schematic"":""4"",""participantId"":""2CD4ED90AEAA4DBC9CC50FF108FD34A2"",""assignmentId"":""ecd11fa1-ba7b-4f13-a647-d8608a2d27ee"",""projectId"":""ba640c14-69c5-453e-80b2-29051492c0e0""}","https://test12345.live/?num_scrambled_semantic=8&num_scrambled_causal=4&num_scrambled_schematic=4&participantId=2CD4ED90AEAA4DBC9CC50FF108FD34A2&assignmentId=ecd11fa1-ba7b-4f13-a647-d8608a2d27ee&projectId=ba640c14-69c5-453e-80b2-29051492c0e0","2CD4ED90AEAA4DBC9CC50FF108FD34A2-2025-05-14-21-03-46","","null","","images/causal_sequence/saving_a_cat_causal/saving_a_cat_causal_1.png","null","",""
"","","","","","image-button-response","58","340073","0.0-12.0-1.0-1.0","2CD4ED90AEAA4DBC9CC50FF108FD34A2","2CD4ED90AEAA4DBC9CC50FF108FD34A2","ecd11fa1-ba7b-4f13-a647-d8608a2d27ee","ba640c14-69c5-453e-80b2-29051492c0e0","{""num_scrambled_semantic"":""8"",""num_scrambled_causal"":""4"",""num_scrambled_schematic"":""4"",""participantId"":""2CD4ED90AEAA4DBC9CC50FF108FD34A2"",""assignmentId"":""ecd11fa1-ba7b-4f13-a647-d8608a2d27ee"",""projectId"":""ba640c14-69c5-453e-80b2-29051492c0e0""}","https://test12345.live/?num_scrambled_semantic=8&num_scrambled_causal=4&num_scrambled_schematic=4&participantId=2CD4ED90AEAA4DBC9CC50FF108FD34A2&assignmentId=ecd11fa1-ba7b-4f13-a647-d8608a2d27ee&projectId=ba640c14-69c5-453e-80b2-29051492c0e0","2CD4ED90AEAA4DBC9CC50FF108FD34A2-2025-05-14-21-03-46","","2176","","images/causal_sequence/saving_a_cat_causal/saving_a_cat_causal_1.png","0","",""
"","","","","","image-button-response","59","341877","0.0-12.0-1.0-2.0","2CD4ED90AEAA4DBC9CC50FF108FD34A2","2CD4ED90AEAA4DBC9CC50FF108FD34A2","ecd11fa1-ba7b-4f13-a647-d8608a2d27ee","ba640c14-69c5-453e-80b2-29051492c0e0","{""num_scrambled_semantic"":""8"",""num_scrambled_causal"":""4"",""num_scrambled_schematic"":""4"",""participantId"":""2CD4ED90AEAA4DBC9CC50FF108FD34A2"",""assignmentId"":""ecd11fa1-ba7b-4f13-a647-d8608a2d27ee"",""projectId"":""ba640c14-69c5-453e-80b2-29051492c0e0""}","https://test12345.live/?num_scrambled_semantic=8&num_scrambled_causal=4&num_scrambled_schematic=4&participantId=2CD4ED90AEAA4DBC9CC50FF108FD34A2&assignmentId=ecd11fa1-ba7b-4f13-a647-d8608a2d27ee&projectId=ba640c14-69c5-453e-80b2-29051492c0e0","2CD4ED90AEAA4DBC9CC50FF108FD34A2-2025-05-14-21-03-46","","null","","[]","null","",""
"","","","","","image-button-response","60","346382","0.0-12.0-1.0-0.1","2CD4ED90AEAA4DBC9CC50FF108FD34A2","2CD4ED90AEAA4DBC9CC50FF108FD34A2","ecd11fa1-ba7b-4f13-a647-d8608a2d27ee","ba640c14-69c5-453e-80b2-29051492c0e0","{""num_scrambled_semantic"":""8"",""num_scrambled_causal"":""4"",""num_scrambled_schematic"":""4"",""participantId"":""2CD4ED90AEAA4DBC9CC50FF108FD34A2"",""assignmentId"":""ecd11fa1-ba7b-4f13-a647-d8608a2d27ee"",""projectId"":""ba640c14-69c5-453e-80b2-29051492c0e0""}","https://test12345.live/?num_scrambled_semantic=8&num_scrambled_causal=4&num_scrambled_schematic=4&participantId=2CD4ED90AEAA4DBC9CC50FF108FD34A2&assignmentId=ecd11fa1-ba7b-4f13-a647-d8608a2d27ee&projectId=ba640c14-69c5-453e-80b2-29051492c0e0","2CD4ED90AEAA4DBC9CC50FF108FD34A2-2025-05-14-21-03-46","","null","","images/causal_sequence/saving_a_cat_causal/saving_a_cat_causal_2.png","null","",""
"","","","","","image-button-response","61","349867","0.0-12.0-1.0-1.1","2CD4ED90AEAA4DBC9CC50FF108FD34A2","2CD4ED90AEAA4DBC9CC50FF108FD34A2","ecd11fa1-ba7b-4f13-a647-d8608a2d27ee","ba640c14-69c5-453e-80b2-29051492c0e0","{""num_scrambled_semantic"":""8"",""num_scrambled_causal"":""4"",""num_scrambled_schematic"":""4"",""participantId"":""2CD4ED90AEAA4DBC9CC50FF108FD34A2"",""assignmentId"":""ecd11fa1-ba7b-4f13-a647-d8608a2d27ee"",""projectId"":""ba640c14-69c5-453e-80b2-29051492c0e0""}","https://test12345.live/?num_scrambled_semantic=8&num_scrambled_causal=4&num_scrambled_schematic=4&participantId=2CD4ED90AEAA4DBC9CC50FF108FD34A2&assignmentId=ecd11fa1-ba7b-4f13-a647-d8608a2d27ee&projectId=ba640c14-69c5-453e-80b2-29051492c0e0","2CD4ED90AEAA4DBC9CC50FF108FD34A2-2025-05-14-21-03-46","","3484","","images/causal_sequence/saving_a_cat_causal/saving_a_cat_causal_2.png","0","",""
"","","","","","image-button-response","62","351670","0.0-12.0-1.0-2.1","2CD4ED90AEAA4DBC9CC50FF108FD34A2","2CD4ED90AEAA4DBC9CC50FF108FD34A2","ecd11fa1-ba7b-4f13-a647-d8608a2d27ee","ba640c14-69c5-453e-80b2-29051492c0e0","{""num_scrambled_semantic"":""8"",""num_scrambled_causal"":""4"",""num_scrambled_schematic"":""4"",""participantId"":""2CD4ED90AEAA4DBC9CC50FF108FD34A2"",""assignmentId"":""ecd11fa1-ba7b-4f13-a647-d8608a2d27ee"",""projectId"":""ba640c14-69c5-453e-80b2-29051492c0e0""}","https://test12345.live/?num_scrambled_semantic=8&num_scrambled_causal=4&num_scrambled_schematic=4&participantId=2CD4ED90AEAA4DBC9CC50FF108FD34A2&assignmentId=ecd11fa1-ba7b-4f13-a647-d8608a2d27ee&projectId=ba640c14-69c5-453e-80b2-29051492c0e0","2CD4ED90AEAA4DBC9CC50FF108FD34A2-2025-05-14-21-03-46","","null","","[]","null","",""
"","","","","","image-button-response","63","356173","0.0-12.0-1.0-0.2","2CD4ED90AEAA4DBC9CC50FF108FD34A2","2CD4ED90AEAA4DBC9CC50FF108FD34A2","ecd11fa1-ba7b-4f13-a647-d8608a2d27ee","ba640c14-69c5-453e-80b2-29051492c0e0","{""num_scrambled_semantic"":""8"",""num_scrambled_causal"":""4"",""num_scrambled_schematic"":""4"",""participantId"":""2CD4ED90AEAA4DBC9CC50FF108FD34A2"",""assignmentId"":""ecd11fa1-ba7b-4f13-a647-d8608a2d27ee"",""projectId"":""ba640c14-69c5-453e-80b2-29051492c0e0""}","https://test12345.live/?num_scrambled_semantic=8&num_scrambled_causal=4&num_scrambled_schematic=4&participantId=2CD4ED90AEAA4DBC9CC50FF108FD34A2&assignmentId=ecd11fa1-ba7b-4f13-a647-d8608a2d27ee&projectId=ba640c14-69c5-453e-80b2-29051492c0e0","2CD4ED90AEAA4DBC9CC50FF108FD34A2-2025-05-14-21-03-46","","null","","images/causal_sequence/saving_a_cat_causal/saving_a_cat_causal_3.png","null","",""
"","","","","","image-button-response","64","358464","0.0-12.0-1.0-1.2","2CD4ED90AEAA4DBC9CC50FF108FD34A2","2CD4ED90AEAA4DBC9CC50FF108FD34A2","ecd11fa1-ba7b-4f13-a647-d8608a2d27ee","ba640c14-69c5-453e-80b2-29051492c0e0","{""num_scrambled_semantic"":""8"",""num_scrambled_causal"":""4"",""num_scrambled_schematic"":""4"",""participantId"":""2CD4ED90AEAA4DBC9CC50FF108FD34A2"",""assignmentId"":""ecd11fa1-ba7b-4f13-a647-d8608a2d27ee"",""projectId"":""ba640c14-69c5-453e-80b2-29051492c0e0""}","https://test12345.live/?num_scrambled_semantic=8&num_scrambled_causal=4&num_scrambled_schematic=4&participantId=2CD4ED90AEAA4DBC9CC50FF108FD34A2&assignmentId=ecd11fa1-ba7b-4f13-a647-d8608a2d27ee&projectId=ba640c14-69c5-453e-80b2-29051492c0e0","2CD4ED90AEAA4DBC9CC50FF108FD34A2-2025-05-14-21-03-46","","2290","","images/causal_sequence/saving_a_cat_causal/saving_a_cat_causal_3.png","1","",""
"","","","","","image-button-response","65","360268","0.0-12.0-1.0-2.2","2CD4ED90AEAA4DBC9CC50FF108FD34A2","2CD4ED90AEAA4DBC9CC50FF108FD34A2","ecd11fa1-ba7b-4f13-a647-d8608a2d27ee","ba640c14-69c5-453e-80b2-29051492c0e0","{""num_scrambled_semantic"":""8"",""num_scrambled_causal"":""4"",""num_scrambled_schematic"":""4"",""participantId"":""2CD4ED90AEAA4DBC9CC50FF108FD34A2"",""assignmentId"":""ecd11fa1-ba7b-4f13-a647-d8608a2d27ee"",""projectId"":""ba640c14-69c5-453e-80b2-29051492c0e0""}","https://test12345.live/?num_scrambled_semantic=8&num_scrambled_causal=4&num_scrambled_schematic=4&participantId=2CD4ED90AEAA4DBC9CC50FF108FD34A2&assignmentId=ecd11fa1-ba7b-4f13-a647-d8608a2d27ee&projectId=ba640c14-69c5-453e-80b2-29051492c0e0","2CD4ED90AEAA4DBC9CC50FF108FD34A2-2025-05-14-21-03-46","","null","","[]","null","",""
"","","","","","image-button-response","66","364776","0.0-12.0-1.0-0.3","2CD4ED90AEAA4DBC9CC50FF108FD34A2","2CD4ED90AEAA4DBC9CC50FF108FD34A2","ecd11fa1-ba7b-4f13-a647-d8608a2d27ee","ba640c14-69c5-453e-80b2-29051492c0e0","{""num_scrambled_semantic"":""8"",""num_scrambled_causal"":""4"",""num_scrambled_schematic"":""4"",""participantId"":""2CD4ED90AEAA4DBC9CC50FF108FD34A2"",""assignmentId"":""ecd11fa1-ba7b-4f13-a647-d8608a2d27ee"",""projectId"":""ba640c14-69c5-453e-80b2-29051492c0e0""}","https://test12345.live/?num_scrambled_semantic=8&num_scrambled_causal=4&num_scrambled_schematic=4&participantId=2CD4ED90AEAA4DBC9CC50FF108FD34A2&assignmentId=ecd11fa1-ba7b-4f13-a647-d8608a2d27ee&projectId=ba640c14-69c5-453e-80b2-29051492c0e0","2CD4ED90AEAA4DBC9CC50FF108FD34A2-2025-05-14-21-03-46","","null","","images/causal_sequence/saving_a_cat_causal/saving_a_cat_causal_4.png","null","",""
"","","","","","image-button-response","67","365806","0.0-12.0-1.0-1.3","2CD4ED90AEAA4DBC9CC50FF108FD34A2","2CD4ED90AEAA4DBC9CC50FF108FD34A2","ecd11fa1-ba7b-4f13-a647-d8608a2d27ee","ba640c14-69c5-453e-80b2-29051492c0e0","{""num_scrambled_semantic"":""8"",""num_scrambled_causal"":""4"",""num_scrambled_schematic"":""4"",""participantId"":""2CD4ED90AEAA4DBC9CC50FF108FD34A2"",""assignmentId"":""ecd11fa1-ba7b-4f13-a647-d8608a2d27ee"",""projectId"":""ba640c14-69c5-453e-80b2-29051492c0e0""}","https://test12345.live/?num_scrambled_semantic=8&num_scrambled_causal=4&num_scrambled_schematic=4&participantId=2CD4ED90AEAA4DBC9CC50FF108FD34A2&assignmentId=ecd11fa1-ba7b-4f13-a647-d8608a2d27ee&projectId=ba640c14-69c5-453e-80b2-29051492c0e0","2CD4ED90AEAA4DBC9CC50FF108FD34A2-2025-05-14-21-03-46","","1029","","images/causal_sequence/saving_a_cat_causal/saving_a_cat_causal_4.png","0","",""
"","","","","","image-button-response","68","367611","0.0-12.0-1.0-2.3","2CD4ED90AEAA4DBC9CC50FF108FD34A2","2CD4ED90AEAA4DBC9CC50FF108FD34A2","ecd11fa1-ba7b-4f13-a647-d8608a2d27ee","ba640c14-69c5-453e-80b2-29051492c0e0","{""num_scrambled_semantic"":""8"",""num_scrambled_causal"":""4"",""num_scrambled_schematic"":""4"",""participantId"":""2CD4ED90AEAA4DBC9CC50FF108FD34A2"",""assignmentId"":""ecd11fa1-ba7b-4f13-a647-d8608a2d27ee"",""projectId"":""ba640c14-69c5-453e-80b2-29051492c0e0""}","https://test12345.live/?num_scrambled_semantic=8&num_scrambled_causal=4&num_scrambled_schematic=4&participantId=2CD4ED90AEAA4DBC9CC50FF108FD34A2&assignmentId=ecd11fa1-ba7b-4f13-a647-d8608a2d27ee&projectId=ba640c14-69c5-453e-80b2-29051492c0e0","2CD4ED90AEAA4DBC9CC50FF108FD34A2-2025-05-14-21-03-46","","null","","[]","null","",""
"","","","","","image-button-response","69","372121","0.0-12.0-1.0-0.4","2CD4ED90AEAA4DBC9CC50FF108FD34A2","2CD4ED90AEAA4DBC9CC50FF108FD34A2","ecd11fa1-ba7b-4f13-a647-d8608a2d27ee","ba640c14-69c5-453e-80b2-29051492c0e0","{""num_scrambled_semantic"":""8"",""num_scrambled_causal"":""4"",""num_scrambled_schematic"":""4"",""participantId"":""2CD4ED90AEAA4DBC9CC50FF108FD34A2"",""assignmentId"":""ecd11fa1-ba7b-4f13-a647-d8608a2d27ee"",""projectId"":""ba640c14-69c5-453e-80b2-29051492c0e0""}","https://test12345.live/?num_scrambled_semantic=8&num_scrambled_causal=4&num_scrambled_schematic=4&participantId=2CD4ED90AEAA4DBC9CC50FF108FD34A2&assignmentId=ecd11fa1-ba7b-4f13-a647-d8608a2d27ee&projectId=ba640c14-69c5-453e-80b2-29051492c0e0","2CD4ED90AEAA4DBC9CC50FF108FD34A2-2025-05-14-21-03-46","","null","","images/causal_sequence/saving_a_cat_causal/saving_a_cat_causal_5.png","null","",""
"","","","","","image-button-response","70","374636","0.0-12.0-1.0-1.4","2CD4ED90AEAA4DBC9CC50FF108FD34A2","2CD4ED90AEAA4DBC9CC50FF108FD34A2","ecd11fa1-ba7b-4f13-a647-d8608a2d27ee","ba640c14-69c5-453e-80b2-29051492c0e0","{""num_scrambled_semantic"":""8"",""num_scrambled_causal"":""4"",""num_scrambled_schematic"":""4"",""participantId"":""2CD4ED90AEAA4DBC9CC50FF108FD34A2"",""assignmentId"":""ecd11fa1-ba7b-4f13-a647-d8608a2d27ee"",""projectId"":""ba640c14-69c5-453e-80b2-29051492c0e0""}","https://test12345.live/?num_scrambled_semantic=8&num_scrambled_causal=4&num_scrambled_schematic=4&participantId=2CD4ED90AEAA4DBC9CC50FF108FD34A2&assignmentId=ecd11fa1-ba7b-4f13-a647-d8608a2d27ee&projectId=ba640c14-69c5-453e-80b2-29051492c0e0","2CD4ED90AEAA4DBC9CC50FF108FD34A2-2025-05-14-21-03-46","","2514","","images/causal_sequence/saving_a_cat_causal/saving_a_cat_causal_5.png","0","",""
"","","","","","image-button-response","71","376452","0.0-12.0-1.0-2.4","2CD4ED90AEAA4DBC9CC50FF108FD34A2","2CD4ED90AEAA4DBC9CC50FF108FD34A2","ecd11fa1-ba7b-4f13-a647-d8608a2d27ee","ba640c14-69c5-453e-80b2-29051492c0e0","{""num_scrambled_semantic"":""8"",""num_scrambled_causal"":""4"",""num_scrambled_schematic"":""4"",""participantId"":""2CD4ED90AEAA4DBC9CC50FF108FD34A2"",""assignmentId"":""ecd11fa1-ba7b-4f13-a647-d8608a2d27ee"",""projectId"":""ba640c14-69c5-453e-80b2-29051492c0e0""}","https://test12345.live/?num_scrambled_semantic=8&num_scrambled_causal=4&num_scrambled_schematic=4&participantId=2CD4ED90AEAA4DBC9CC50FF108FD34A2&assignmentId=ecd11fa1-ba7b-4f13-a647-d8608a2d27ee&projectId=ba640c14-69c5-453e-80b2-29051492c0e0","2CD4ED90AEAA4DBC9CC50FF108FD34A2-2025-05-14-21-03-46","","null","","[]","null","",""
"","","","","","image-button-response","72","380962","0.0-12.0-1.0-0.5","2CD4ED90AEAA4DBC9CC50FF108FD34A2","2CD4ED90AEAA4DBC9CC50FF108FD34A2","ecd11fa1-ba7b-4f13-a647-d8608a2d27ee","ba640c14-69c5-453e-80b2-29051492c0e0","{""num_scrambled_semantic"":""8"",""num_scrambled_causal"":""4"",""num_scrambled_schematic"":""4"",""participantId"":""2CD4ED90AEAA4DBC9CC50FF108FD34A2"",""assignmentId"":""ecd11fa1-ba7b-4f13-a647-d8608a2d27ee"",""projectId"":""ba640c14-69c5-453e-80b2-29051492c0e0""}","https://test12345.live/?num_scrambled_semantic=8&num_scrambled_causal=4&num_scrambled_schematic=4&participantId=2CD4ED90AEAA4DBC9CC50FF108FD34A2&assignmentId=ecd11fa1-ba7b-4f13-a647-d8608a2d27ee&projectId=ba640c14-69c5-453e-80b2-29051492c0e0","2CD4ED90AEAA4DBC9CC50FF108FD34A2-2025-05-14-21-03-46","","null","","images/causal_sequence/saving_a_cat_causal/saving_a_cat_causal_6.png","null","",""
"","","","","","image-button-response","73","382744","0.0-12.0-1.0-1.5","2CD4ED90AEAA4DBC9CC50FF108FD34A2","2CD4ED90AEAA4DBC9CC50FF108FD34A2","ecd11fa1-ba7b-4f13-a647-d8608a2d27ee","ba640c14-69c5-453e-80b2-29051492c0e0","{""num_scrambled_semantic"":""8"",""num_scrambled_causal"":""4"",""num_scrambled_schematic"":""4"",""participantId"":""2CD4ED90AEAA4DBC9CC50FF108FD34A2"",""assignmentId"":""ecd11fa1-ba7b-4f13-a647-d8608a2d27ee"",""projectId"":""ba640c14-69c5-453e-80b2-29051492c0e0""}","https://test12345.live/?num_scrambled_semantic=8&num_scrambled_causal=4&num_scrambled_schematic=4&participantId=2CD4ED90AEAA4DBC9CC50FF108FD34A2&assignmentId=ecd11fa1-ba7b-4f13-a647-d8608a2d27ee&projectId=ba640c14-69c5-453e-80b2-29051492c0e0","2CD4ED90AEAA4DBC9CC50FF108FD34A2-2025-05-14-21-03-46","","1781","","images/causal_sequence/saving_a_cat_causal/saving_a_cat_causal_6.png","0","",""
"","","","","","image-button-response","74","384554","0.0-12.0-1.0-2.5","2CD4ED90AEAA4DBC9CC50FF108FD34A2","2CD4ED90AEAA4DBC9CC50FF108FD34A2","ecd11fa1-ba7b-4f13-a647-d8608a2d27ee","ba640c14-69c5-453e-80b2-29051492c0e0","{""num_scrambled_semantic"":""8"",""num_scrambled_causal"":""4"",""num_scrambled_schematic"":""4"",""participantId"":""2CD4ED90AEAA4DBC9CC50FF108FD34A2"",""assignmentId"":""ecd11fa1-ba7b-4f13-a647-d8608a2d27ee"",""projectId"":""ba640c14-69c5-453e-80b2-29051492c0e0""}","https://test12345.live/?num_scrambled_semantic=8&num_scrambled_causal=4&num_scrambled_schematic=4&participantId=2CD4ED90AEAA4DBC9CC50FF108FD34A2&assignmentId=ecd11fa1-ba7b-4f13-a647-d8608a2d27ee&projectId=ba640c14-69c5-453e-80b2-29051492c0e0","2CD4ED90AEAA4DBC9CC50FF108FD34A2-2025-05-14-21-03-46","","null","","[]","null","",""
"","","","","","image-button-response","75","389064","0.0-12.0-1.0-0.6","2CD4ED90AEAA4DBC9CC50FF108FD34A2","2CD4ED90AEAA4DBC9CC50FF108FD34A2","ecd11fa1-ba7b-4f13-a647-d8608a2d27ee","ba640c14-69c5-453e-80b2-29051492c0e0","{""num_scrambled_semantic"":""8"",""num_scrambled_causal"":""4"",""num_scrambled_schematic"":""4"",""participantId"":""2CD4ED90AEAA4DBC9CC50FF108FD34A2"",""assignmentId"":""ecd11fa1-ba7b-4f13-a647-d8608a2d27ee"",""projectId"":""ba640c14-69c5-453e-80b2-29051492c0e0""}","https://test12345.live/?num_scrambled_semantic=8&num_scrambled_causal=4&num_scrambled_schematic=4&participantId=2CD4ED90AEAA4DBC9CC50FF108FD34A2&assignmentId=ecd11fa1-ba7b-4f13-a647-d8608a2d27ee&projectId=ba640c14-69c5-453e-80b2-29051492c0e0","2CD4ED90AEAA4DBC9CC50FF108FD34A2-2025-05-14-21-03-46","","null","","images/causal_sequence/saving_a_cat_causal/saving_a_cat_causal_7.png","null","",""
"","","","","","image-button-response","76","393068","0.0-12.0-1.0-1.6","2CD4ED90AEAA4DBC9CC50FF108FD34A2","2CD4ED90AEAA4DBC9CC50FF108FD34A2","ecd11fa1-ba7b-4f13-a647-d8608a2d27ee","ba640c14-69c5-453e-80b2-29051492c0e0","{""num_scrambled_semantic"":""8"",""num_scrambled_causal"":""4"",""num_scrambled_schematic"":""4"",""participantId"":""2CD4ED90AEAA4DBC9CC50FF108FD34A2"",""assignmentId"":""ecd11fa1-ba7b-4f13-a647-d8608a2d27ee"",""projectId"":""ba640c14-69c5-453e-80b2-29051492c0e0""}","https://test12345.live/?num_scrambled_semantic=8&num_scrambled_causal=4&num_scrambled_schematic=4&participantId=2CD4ED90AEAA4DBC9CC50FF108FD34A2&assignmentId=ecd11fa1-ba7b-4f13-a647-d8608a2d27ee&projectId=ba640c14-69c5-453e-80b2-29051492c0e0","2CD4ED90AEAA4DBC9CC50FF108FD34A2-2025-05-14-21-03-46","","null","","images/causal_sequence/saving_a_cat_causal/saving_a_cat_causal_7.png","null","",""
"","","","","","image-button-response","77","394884","0.0-12.0-1.0-2.6","2CD4ED90AEAA4DBC9CC50FF108FD34A2","2CD4ED90AEAA4DBC9CC50FF108FD34A2","ecd11fa1-ba7b-4f13-a647-d8608a2d27ee","ba640c14-69c5-453e-80b2-29051492c0e0","{""num_scrambled_semantic"":""8"",""num_scrambled_causal"":""4"",""num_scrambled_schematic"":""4"",""participantId"":""2CD4ED90AEAA4DBC9CC50FF108FD34A2"",""assignmentId"":""ecd11fa1-ba7b-4f13-a647-d8608a2d27ee"",""projectId"":""ba640c14-69c5-453e-80b2-29051492c0e0""}","https://test12345.live/?num_scrambled_semantic=8&num_scrambled_causal=4&num_scrambled_schematic=4&participantId=2CD4ED90AEAA4DBC9CC50FF108FD34A2&assignmentId=ecd11fa1-ba7b-4f13-a647-d8608a2d27ee&projectId=ba640c14-69c5-453e-80b2-29051492c0e0","2CD4ED90AEAA4DBC9CC50FF108FD34A2-2025-05-14-21-03-46","","null","","[]","null","",""
"","","","","","image-button-response","78","399396","0.0-12.0-1.0-0.7","2CD4ED90AEAA4DBC9CC50FF108FD34A2","2CD4ED90AEAA4DBC9CC50FF108FD34A2","ecd11fa1-ba7b-4f13-a647-d8608a2d27ee","ba640c14-69c5-453e-80b2-29051492c0e0","{""num_scrambled_semantic"":""8"",""num_scrambled_causal"":""4"",""num_scrambled_schematic"":""4"",""participantId"":""2CD4ED90AEAA4DBC9CC50FF108FD34A2"",""assignmentId"":""ecd11fa1-ba7b-4f13-a647-d8608a2d27ee"",""projectId"":""ba640c14-69c5-453e-80b2-29051492c0e0""}","https://test12345.live/?num_scrambled_semantic=8&num_scrambled_causal=4&num_scrambled_schematic=4&participantId=2CD4ED90AEAA4DBC9CC50FF108FD34A2&assignmentId=ecd11fa1-ba7b-4f13-a647-d8608a2d27ee&projectId=ba640c14-69c5-453e-80b2-29051492c0e0","2CD4ED90AEAA4DBC9CC50FF108FD34A2-2025-05-14-21-03-46","","null","","images/causal_sequence/saving_a_cat_causal/saving_a_cat_causal_8.png","null","",""
"","","","","","image-button-response","79","400198","0.0-12.0-1.0-1.7","2CD4ED90AEAA4DBC9CC50FF108FD34A2","2CD4ED90AEAA4DBC9CC50FF108FD34A2","ecd11fa1-ba7b-4f13-a647-d8608a2d27ee","ba640c14-69c5-453e-80b2-29051492c0e0","{""num_scrambled_semantic"":""8"",""num_scrambled_causal"":""4"",""num_scrambled_schematic"":""4"",""participantId"":""2CD4ED90AEAA4DBC9CC50FF108FD34A2"",""assignmentId"":""ecd11fa1-ba7b-4f13-a647-d8608a2d27ee"",""projectId"":""ba640c14-69c5-453e-80b2-29051492c0e0""}","https://test12345.live/?num_scrambled_semantic=8&num_scrambled_causal=4&num_scrambled_schematic=4&participantId=2CD4ED90AEAA4DBC9CC50FF108FD34A2&assignmentId=ecd11fa1-ba7b-4f13-a647-d8608a2d27ee&projectId=ba640c14-69c5-453e-80b2-29051492c0e0","2CD4ED90AEAA4DBC9CC50FF108FD34A2-2025-05-14-21-03-46","","800","","images/causal_sequence/saving_a_cat_causal/saving_a_cat_causal_8.png","0","",""
"","","","","","image-button-response","80","402004","0.0-12.0-1.0-2.7","2CD4ED90AEAA4DBC9CC50FF108FD34A2","2CD4ED90AEAA4DBC9CC50FF108FD34A2","ecd11fa1-ba7b-4f13-a647-d8608a2d27ee","ba640c14-69c5-453e-80b2-29051492c0e0","{""num_scrambled_semantic"":""8"",""num_scrambled_causal"":""4"",""num_scrambled_schematic"":""4"",""participantId"":""2CD4ED90AEAA4DBC9CC50FF108FD34A2"",""assignmentId"":""ecd11fa1-ba7b-4f13-a647-d8608a2d27ee"",""projectId"":""ba640c14-69c5-453e-80b2-29051492c0e0""}","https://test12345.live/?num_scrambled_semantic=8&num_scrambled_causal=4&num_scrambled_schematic=4&participantId=2CD4ED90AEAA4DBC9CC50FF108FD34A2&assignmentId=ecd11fa1-ba7b-4f13-a647-d8608a2d27ee&projectId=ba640c14-69c5-453e-80b2-29051492c0e0","2CD4ED90AEAA4DBC9CC50FF108FD34A2-2025-05-14-21-03-46","","null","","[]","null","",""
"","","","","","image-button-response","81","406515","0.0-12.0-1.0-0.8","2CD4ED90AEAA4DBC9CC50FF108FD34A2","2CD4ED90AEAA4DBC9CC50FF108FD34A2","ecd11fa1-ba7b-4f13-a647-d8608a2d27ee","ba640c14-69c5-453e-80b2-29051492c0e0","{""num_scrambled_semantic"":""8"",""num_scrambled_causal"":""4"",""num_scrambled_schematic"":""4"",""participantId"":""2CD4ED90AEAA4DBC9CC50FF108FD34A2"",""assignmentId"":""ecd11fa1-ba7b-4f13-a647-d8608a2d27ee"",""projectId"":""ba640c14-69c5-453e-80b2-29051492c0e0""}","https://test12345.live/?num_scrambled_semantic=8&num_scrambled_causal=4&num_scrambled_schematic=4&participantId=2CD4ED90AEAA4DBC9CC50FF108FD34A2&assignmentId=ecd11fa1-ba7b-4f13-a647-d8608a2d27ee&projectId=ba640c14-69c5-453e-80b2-29051492c0e0","2CD4ED90AEAA4DBC9CC50FF108FD34A2-2025-05-14-21-03-46","","null","","images/causal_sequence/saving_a_cat_causal/saving_a_cat_causal_9.png","null","",""
"","","","","","image-button-response","82","407546","0.0-12.0-1.0-1.8","2CD4ED90AEAA4DBC9CC50FF108FD34A2","2CD4ED90AEAA4DBC9CC50FF108FD34A2","ecd11fa1-ba7b-4f13-a647-d8608a2d27ee","ba640c14-69c5-453e-80b2-29051492c0e0","{""num_scrambled_semantic"":""8"",""num_scrambled_causal"":""4"",""num_scrambled_schematic"":""4"",""participantId"":""2CD4ED90AEAA4DBC9CC50FF108FD34A2"",""assignmentId"":""ecd11fa1-ba7b-4f13-a647-d8608a2d27ee"",""projectId"":""ba640c14-69c5-453e-80b2-29051492c0e0""}","https://test12345.live/?num_scrambled_semantic=8&num_scrambled_causal=4&num_scrambled_schematic=4&participantId=2CD4ED90AEAA4DBC9CC50FF108FD34A2&assignmentId=ecd11fa1-ba7b-4f13-a647-d8608a2d27ee&projectId=ba640c14-69c5-453e-80b2-29051492c0e0","2CD4ED90AEAA4DBC9CC50FF108FD34A2-2025-05-14-21-03-46","","1030","","images/causal_sequence/saving_a_cat_causal/saving_a_cat_causal_9.png","0","",""
"","","","","","image-button-response","83","409356","0.0-12.0-1.0-2.8","2CD4ED90AEAA4DBC9CC50FF108FD34A2","2CD4ED90AEAA4DBC9CC50FF108FD34A2","ecd11fa1-ba7b-4f13-a647-d8608a2d27ee","ba640c14-69c5-453e-80b2-29051492c0e0","{""num_scrambled_semantic"":""8"",""num_scrambled_causal"":""4"",""num_scrambled_schematic"":""4"",""participantId"":""2CD4ED90AEAA4DBC9CC50FF108FD34A2"",""assignmentId"":""ecd11fa1-ba7b-4f13-a647-d8608a2d27ee"",""projectId"":""ba640c14-69c5-453e-80b2-29051492c0e0""}","https://test12345.live/?num_scrambled_semantic=8&num_scrambled_causal=4&num_scrambled_schematic=4&participantId=2CD4ED90AEAA4DBC9CC50FF108FD34A2&assignmentId=ecd11fa1-ba7b-4f13-a647-d8608a2d27ee&projectId=ba640c14-69c5-453e-80b2-29051492c0e0","2CD4ED90AEAA4DBC9CC50FF108FD34A2-2025-05-14-21-03-46","","null","","[]","null","",""
"","","","","","image-button-response","84","413858","0.0-12.0-1.0-0.9","2CD4ED90AEAA4DBC9CC50FF108FD34A2","2CD4ED90AEAA4DBC9CC50FF108FD34A2","ecd11fa1-ba7b-4f13-a647-d8608a2d27ee","ba640c14-69c5-453e-80b2-29051492c0e0","{""num_scrambled_semantic"":""8"",""num_scrambled_causal"":""4"",""num_scrambled_schematic"":""4"",""participantId"":""2CD4ED90AEAA4DBC9CC50FF108FD34A2"",""assignmentId"":""ecd11fa1-ba7b-4f13-a647-d8608a2d27ee"",""projectId"":""ba640c14-69c5-453e-80b2-29051492c0e0""}","https://test12345.live/?num_scrambled_semantic=8&num_scrambled_causal=4&num_scrambled_schematic=4&participantId=2CD4ED90AEAA4DBC9CC50FF108FD34A2&assignmentId=ecd11fa1-ba7b-4f13-a647-d8608a2d27ee&projectId=ba640c14-69c5-453e-80b2-29051492c0e0","2CD4ED90AEAA4DBC9CC50FF108FD34A2-2025-05-14-21-03-46","","null","","images/causal_sequence/saving_a_cat_causal/saving_a_cat_causal_ten.png","null","",""
"","","","","","image-button-response","85","415016","0.0-12.0-1.0-1.9","2CD4ED90AEAA4DBC9CC50FF108FD34A2","2CD4ED90AEAA4DBC9CC50FF108FD34A2","ecd11fa1-ba7b-4f13-a647-d8608a2d27ee","ba640c14-69c5-453e-80b2-29051492c0e0","{""num_scrambled_semantic"":""8"",""num_scrambled_causal"":""4"",""num_scrambled_schematic"":""4"",""participantId"":""2CD4ED90AEAA4DBC9CC50FF108FD34A2"",""assignmentId"":""ecd11fa1-ba7b-4f13-a647-d8608a2d27ee"",""projectId"":""ba640c14-69c5-453e-80b2-29051492c0e0""}","https://test12345.live/?num_scrambled_semantic=8&num_scrambled_causal=4&num_scrambled_schematic=4&participantId=2CD4ED90AEAA4DBC9CC50FF108FD34A2&assignmentId=ecd11fa1-ba7b-4f13-a647-d8608a2d27ee&projectId=ba640c14-69c5-453e-80b2-29051492c0e0","2CD4ED90AEAA4DBC9CC50FF108FD34A2-2025-05-14-21-03-46","","1157","","images/causal_sequence/saving_a_cat_causal/saving_a_cat_causal_ten.png","0","",""
"","","","","","image-button-response","86","416828","0.0-12.0-1.0-2.9","2CD4ED90AEAA4DBC9CC50FF108FD34A2","2CD4ED90AEAA4DBC9CC50FF108FD34A2","ecd11fa1-ba7b-4f13-a647-d8608a2d27ee","ba640c14-69c5-453e-80b2-29051492c0e0","{""num_scrambled_semantic"":""8"",""num_scrambled_causal"":""4"",""num_scrambled_schematic"":""4"",""participantId"":""2CD4ED90AEAA4DBC9CC50FF108FD34A2"",""assignmentId"":""ecd11fa1-ba7b-4f13-a647-d8608a2d27ee"",""projectId"":""ba640c14-69c5-453e-80b2-29051492c0e0""}","https://test12345.live/?num_scrambled_semantic=8&num_scrambled_causal=4&num_scrambled_schematic=4&participantId=2CD4ED90AEAA4DBC9CC50FF108FD34A2&assignmentId=ecd11fa1-ba7b-4f13-a647-d8608a2d27ee&projectId=ba640c14-69c5-453e-80b2-29051492c0e0","2CD4ED90AEAA4DBC9CC50FF108FD34A2-2025-05-14-21-03-46","","null","","[]","null","",""
"","","","","","html-audio-response","87","453707","0.0-13.0","2CD4ED90AEAA4DBC9CC50FF108FD34A2","2CD4ED90AEAA4DBC9CC50FF108FD34A2","ecd11fa1-ba7b-4f13-a647-d8608a2d27ee","ba640c14-69c5-453e-80b2-29051492c0e0","{""num_scrambled_semantic"":""8"",""num_scrambled_causal"":""4"",""num_scrambled_schematic"":""4"",""participantId"":""2CD4ED90AEAA4DBC9CC50FF108FD34A2"",""assignmentId"":""ecd11fa1-ba7b-4f13-a647-d8608a2d27ee"",""projectId"":""ba640c14-69c5-453e-80b2-29051492c0e0""}","https://test12345.live/?num_scrambled_semantic=8&num_scrambled_causal=4&num_scrambled_schematic=4&participantId=2CD4ED90AEAA4DBC9CC50FF108FD34A2&assignmentId=ecd11fa1-ba7b-4f13-a647-d8608a2d27ee&projectId=ba640c14-69c5-453e-80b2-29051492c0e0","2CD4ED90AEAA4DBC9CC50FF108FD34A2-2025-05-14-21-03-46","","35822","","[""<span style=\""color: red; font-size: 24px\""> NOW RECORDING</span><p>Please say out loud all the images you saw, as many as you can remember. The images can be said in any order.</p>""]","","1","saving_a_cat_causal"
"","","","","","image-button-response","88","459721","0.0-14.0-0.0","2CD4ED90AEAA4DBC9CC50FF108FD34A2","2CD4ED90AEAA4DBC9CC50FF108FD34A2","ecd11fa1-ba7b-4f13-a647-d8608a2d27ee","ba640c14-69c5-453e-80b2-29051492c0e0","{""num_scrambled_semantic"":""8"",""num_scrambled_causal"":""4"",""num_scrambled_schematic"":""4"",""participantId"":""2CD4ED90AEAA4DBC9CC50FF108FD34A2"",""assignmentId"":""ecd11fa1-ba7b-4f13-a647-d8608a2d27ee"",""projectId"":""ba640c14-69c5-453e-80b2-29051492c0e0""}","https://test12345.live/?num_scrambled_semantic=8&num_scrambled_causal=4&num_scrambled_schematic=4&participantId=2CD4ED90AEAA4DBC9CC50FF108FD34A2&assignmentId=ecd11fa1-ba7b-4f13-a647-d8608a2d27ee&projectId=ba640c14-69c5-453e-80b2-29051492c0e0","2CD4ED90AEAA4DBC9CC50FF108FD34A2-2025-05-14-21-03-46","","null","","images/semantic_sequence/cat_care_semantic/cat_care_semantic_0.png","null","",""
"","","","","","image-button-response","89","464236","0.0-14.0-1.0-0.0","2CD4ED90AEAA4DBC9CC50FF108FD34A2","2CD4ED90AEAA4DBC9CC50FF108FD34A2","ecd11fa1-ba7b-4f13-a647-d8608a2d27ee","ba640c14-69c5-453e-80b2-29051492c0e0","{""num_scrambled_semantic"":""8"",""num_scrambled_causal"":""4"",""num_scrambled_schematic"":""4"",""participantId"":""2CD4ED90AEAA4DBC9CC50FF108FD34A2"",""assignmentId"":""ecd11fa1-ba7b-4f13-a647-d8608a2d27ee"",""projectId"":""ba640c14-69c5-453e-80b2-29051492c0e0""}","https://test12345.live/?num_scrambled_semantic=8&num_scrambled_causal=4&num_scrambled_schematic=4&participantId=2CD4ED90AEAA4DBC9CC50FF108FD34A2&assignmentId=ecd11fa1-ba7b-4f13-a647-d8608a2d27ee&projectId=ba640c14-69c5-453e-80b2-29051492c0e0","2CD4ED90AEAA4DBC9CC50FF108FD34A2-2025-05-14-21-03-46","","null","","images/semantic_sequence/cat_care_semantic/cat_care_semantic_1.png","null","",""
"","","","","","image-button-response","90","466060","0.0-14.0-1.0-1.0","2CD4ED90AEAA4DBC9CC50FF108FD34A2","2CD4ED90AEAA4DBC9CC50FF108FD34A2","ecd11fa1-ba7b-4f13-a647-d8608a2d27ee","ba640c14-69c5-453e-80b2-29051492c0e0","{""num_scrambled_semantic"":""8"",""num_scrambled_causal"":""4"",""num_scrambled_schematic"":""4"",""participantId"":""2CD4ED90AEAA4DBC9CC50FF108FD34A2"",""assignmentId"":""ecd11fa1-ba7b-4f13-a647-d8608a2d27ee"",""projectId"":""ba640c14-69c5-453e-80b2-29051492c0e0""}","https://test12345.live/?num_scrambled_semantic=8&num_scrambled_causal=4&num_scrambled_schematic=4&participantId=2CD4ED90AEAA4DBC9CC50FF108FD34A2&assignmentId=ecd11fa1-ba7b-4f13-a647-d8608a2d27ee&projectId=ba640c14-69c5-453e-80b2-29051492c0e0","2CD4ED90AEAA4DBC9CC50FF108FD34A2-2025-05-14-21-03-46","","1822","","images/semantic_sequence/cat_care_semantic/cat_care_semantic_1.png","0","",""
"","","","","","image-button-response","91","467877","0.0-14.0-1.0-2.0","2CD4ED90AEAA4DBC9CC50FF108FD34A2","2CD4ED90AEAA4DBC9CC50FF108FD34A2","ecd11fa1-ba7b-4f13-a647-d8608a2d27ee","ba640c14-69c5-453e-80b2-29051492c0e0","{""num_scrambled_semantic"":""8"",""num_scrambled_causal"":""4"",""num_scrambled_schematic"":""4"",""participantId"":""2CD4ED90AEAA4DBC9CC50FF108FD34A2"",""assignmentId"":""ecd11fa1-ba7b-4f13-a647-d8608a2d27ee"",""projectId"":""ba640c14-69c5-453e-80b2-29051492c0e0""}","https://test12345.live/?num_scrambled_semantic=8&num_scrambled_causal=4&num_scrambled_schematic=4&participantId=2CD4ED90AEAA4DBC9CC50FF108FD34A2&assignmentId=ecd11fa1-ba7b-4f13-a647-d8608a2d27ee&projectId=ba640c14-69c5-453e-80b2-29051492c0e0","2CD4ED90AEAA4DBC9CC50FF108FD34A2-2025-05-14-21-03-46","","null","","[]","null","",""
"","","","","","image-button-response","92","472382","0.0-14.0-1.0-0.1","2CD4ED90AEAA4DBC9CC50FF108FD34A2","2CD4ED90AEAA4DBC9CC50FF108FD34A2","ecd11fa1-ba7b-4f13-a647-d8608a2d27ee","ba640c14-69c5-453e-80b2-29051492c0e0","{""num_scrambled_semantic"":""8"",""num_scrambled_causal"":""4"",""num_scrambled_schematic"":""4"",""participantId"":""2CD4ED90AEAA4DBC9CC50FF108FD34A2"",""assignmentId"":""ecd11fa1-ba7b-4f13-a647-d8608a2d27ee"",""projectId"":""ba640c14-69c5-453e-80b2-29051492c0e0""}","https://test12345.live/?num_scrambled_semantic=8&num_scrambled_causal=4&num_scrambled_schematic=4&participantId=2CD4ED90AEAA4DBC9CC50FF108FD34A2&assignmentId=ecd11fa1-ba7b-4f13-a647-d8608a2d27ee&projectId=ba640c14-69c5-453e-80b2-29051492c0e0","2CD4ED90AEAA4DBC9CC50FF108FD34A2-2025-05-14-21-03-46","","null","","images/semantic_sequence/cat_care_semantic/cat_care_semantic_2.png","null","",""
"","","","","","image-button-response","93","474052","0.0-14.0-1.0-1.1","2CD4ED90AEAA4DBC9CC50FF108FD34A2","2CD4ED90AEAA4DBC9CC50FF108FD34A2","ecd11fa1-ba7b-4f13-a647-d8608a2d27ee","ba640c14-69c5-453e-80b2-29051492c0e0","{""num_scrambled_semantic"":""8"",""num_scrambled_causal"":""4"",""num_scrambled_schematic"":""4"",""participantId"":""2CD4ED90AEAA4DBC9CC50FF108FD34A2"",""assignmentId"":""ecd11fa1-ba7b-4f13-a647-d8608a2d27ee"",""projectId"":""ba640c14-69c5-453e-80b2-29051492c0e0""}","https://test12345.live/?num_scrambled_semantic=8&num_scrambled_causal=4&num_scrambled_schematic=4&participantId=2CD4ED90AEAA4DBC9CC50FF108FD34A2&assignmentId=ecd11fa1-ba7b-4f13-a647-d8608a2d27ee&projectId=ba640c14-69c5-453e-80b2-29051492c0e0","2CD4ED90AEAA4DBC9CC50FF108FD34A2-2025-05-14-21-03-46","","1669","","images/semantic_sequence/cat_care_semantic/cat_care_semantic_2.png","0","",""
"","","","","","image-button-response","94","475873","0.0-14.0-1.0-2.1","2CD4ED90AEAA4DBC9CC50FF108FD34A2","2CD4ED90AEAA4DBC9CC50FF108FD34A2","ecd11fa1-ba7b-4f13-a647-d8608a2d27ee","ba640c14-69c5-453e-80b2-29051492c0e0","{""num_scrambled_semantic"":""8"",""num_scrambled_causal"":""4"",""num_scrambled_schematic"":""4"",""participantId"":""2CD4ED90AEAA4DBC9CC50FF108FD34A2"",""assignmentId"":""ecd11fa1-ba7b-4f13-a647-d8608a2d27ee"",""projectId"":""ba640c14-69c5-453e-80b2-29051492c0e0""}","https://test12345.live/?num_scrambled_semantic=8&num_scrambled_causal=4&num_scrambled_schematic=4&participantId=2CD4ED90AEAA4DBC9CC50FF108FD34A2&assignmentId=ecd11fa1-ba7b-4f13-a647-d8608a2d27ee&projectId=ba640c14-69c5-453e-80b2-29051492c0e0","2CD4ED90AEAA4DBC9CC50FF108FD34A2-2025-05-14-21-03-46","","null","","[]","null","",""
"","","","","","image-button-response","95","480392","0.0-14.0-1.0-0.2","2CD4ED90AEAA4DBC9CC50FF108FD34A2","2CD4ED90AEAA4DBC9CC50FF108FD34A2","ecd11fa1-ba7b-4f13-a647-d8608a2d27ee","ba640c14-69c5-453e-80b2-29051492c0e0","{""num_scrambled_semantic"":""8"",""num_scrambled_causal"":""4"",""num_scrambled_schematic"":""4"",""participantId"":""2CD4ED90AEAA4DBC9CC50FF108FD34A2"",""assignmentId"":""ecd11fa1-ba7b-4f13-a647-d8608a2d27ee"",""projectId"":""ba640c14-69c5-453e-80b2-29051492c0e0""}","https://test12345.live/?num_scrambled_semantic=8&num_scrambled_causal=4&num_scrambled_schematic=4&participantId=2CD4ED90AEAA4DBC9CC50FF108FD34A2&assignmentId=ecd11fa1-ba7b-4f13-a647-d8608a2d27ee&projectId=ba640c14-69c5-453e-80b2-29051492c0e0","2CD4ED90AEAA4DBC9CC50FF108FD34A2-2025-05-14-21-03-46","","null","","images/semantic_sequence/cat_care_semantic/cat_care_semantic_3.png","null","",""
"","","","","","image-button-response","96","481831","0.0-14.0-1.0-1.2","2CD4ED90AEAA4DBC9CC50FF108FD34A2","2CD4ED90AEAA4DBC9CC50FF108FD34A2","ecd11fa1-ba7b-4f13-a647-d8608a2d27ee","ba640c14-69c5-453e-80b2-29051492c0e0","{""num_scrambled_semantic"":""8"",""num_scrambled_causal"":""4"",""num_scrambled_schematic"":""4"",""participantId"":""2CD4ED90AEAA4DBC9CC50FF108FD34A2"",""assignmentId"":""ecd11fa1-ba7b-4f13-a647-d8608a2d27ee"",""projectId"":""ba640c14-69c5-453e-80b2-29051492c0e0""}","https://test12345.live/?num_scrambled_semantic=8&num_scrambled_causal=4&num_scrambled_schematic=4&participantId=2CD4ED90AEAA4DBC9CC50FF108FD34A2&assignmentId=ecd11fa1-ba7b-4f13-a647-d8608a2d27ee&projectId=ba640c14-69c5-453e-80b2-29051492c0e0","2CD4ED90AEAA4DBC9CC50FF108FD34A2-2025-05-14-21-03-46","","1437","","images/semantic_sequence/cat_care_semantic/cat_care_semantic_3.png","0","",""
"","","","","","image-button-response","97","483645","0.0-14.0-1.0-2.2","2CD4ED90AEAA4DBC9CC50FF108FD34A2","2CD4ED90AEAA4DBC9CC50FF108FD34A2","ecd11fa1-ba7b-4f13-a647-d8608a2d27ee","ba640c14-69c5-453e-80b2-29051492c0e0","{""num_scrambled_semantic"":""8"",""num_scrambled_causal"":""4"",""num_scrambled_schematic"":""4"",""participantId"":""2CD4ED90AEAA4DBC9CC50FF108FD34A2"",""assignmentId"":""ecd11fa1-ba7b-4f13-a647-d8608a2d27ee"",""projectId"":""ba640c14-69c5-453e-80b2-29051492c0e0""}","https://test12345.live/?num_scrambled_semantic=8&num_scrambled_causal=4&num_scrambled_schematic=4&participantId=2CD4ED90AEAA4DBC9CC50FF108FD34A2&assignmentId=ecd11fa1-ba7b-4f13-a647-d8608a2d27ee&projectId=ba640c14-69c5-453e-80b2-29051492c0e0","2CD4ED90AEAA4DBC9CC50FF108FD34A2-2025-05-14-21-03-46","","null","","[]","null","",""
"","","","","","image-button-response","98","488148","0.0-14.0-1.0-0.3","2CD4ED90AEAA4DBC9CC50FF108FD34A2","2CD4ED90AEAA4DBC9CC50FF108FD34A2","ecd11fa1-ba7b-4f13-a647-d8608a2d27ee","ba640c14-69c5-453e-80b2-29051492c0e0","{""num_scrambled_semantic"":""8"",""num_scrambled_causal"":""4"",""num_scrambled_schematic"":""4"",""participantId"":""2CD4ED90AEAA4DBC9CC50FF108FD34A2"",""assignmentId"":""ecd11fa1-ba7b-4f13-a647-d8608a2d27ee"",""projectId"":""ba640c14-69c5-453e-80b2-29051492c0e0""}","https://test12345.live/?num_scrambled_semantic=8&num_scrambled_causal=4&num_scrambled_schematic=4&participantId=2CD4ED90AEAA4DBC9CC50FF108FD34A2&assignmentId=ecd11fa1-ba7b-4f13-a647-d8608a2d27ee&projectId=ba640c14-69c5-453e-80b2-29051492c0e0","2CD4ED90AEAA4DBC9CC50FF108FD34A2-2025-05-14-21-03-46","","null","","images/semantic_sequence/cat_care_semantic/cat_care_semantic_4.png","null","",""
"","","","","","image-button-response","99","489289","0.0-14.0-1.0-1.3","2CD4ED90AEAA4DBC9CC50FF108FD34A2","2CD4ED90AEAA4DBC9CC50FF108FD34A2","ecd11fa1-ba7b-4f13-a647-d8608a2d27ee","ba640c14-69c5-453e-80b2-29051492c0e0","{""num_scrambled_semantic"":""8"",""num_scrambled_causal"":""4"",""num_scrambled_schematic"":""4"",""participantId"":""2CD4ED90AEAA4DBC9CC50FF108FD34A2"",""assignmentId"":""ecd11fa1-ba7b-4f13-a647-d8608a2d27ee"",""projectId"":""ba640c14-69c5-453e-80b2-29051492c0e0""}","https://test12345.live/?num_scrambled_semantic=8&num_scrambled_causal=4&num_scrambled_schematic=4&participantId=2CD4ED90AEAA4DBC9CC50FF108FD34A2&assignmentId=ecd11fa1-ba7b-4f13-a647-d8608a2d27ee&projectId=ba640c14-69c5-453e-80b2-29051492c0e0","2CD4ED90AEAA4DBC9CC50FF108FD34A2-2025-05-14-21-03-46","","1139","","images/semantic_sequence/cat_care_semantic/cat_care_semantic_4.png","0","",""
"","","","","","image-button-response","100","491092","0.0-14.0-1.0-2.3","2CD4ED90AEAA4DBC9CC50FF108FD34A2","2CD4ED90AEAA4DBC9CC50FF108FD34A2","ecd11fa1-ba7b-4f13-a647-d8608a2d27ee","ba640c14-69c5-453e-80b2-29051492c0e0","{""num_scrambled_semantic"":""8"",""num_scrambled_causal"":""4"",""num_scrambled_schematic"":""4"",""participantId"":""2CD4ED90AEAA4DBC9CC50FF108FD34A2"",""assignmentId"":""ecd11fa1-ba7b-4f13-a647-d8608a2d27ee"",""projectId"":""ba640c14-69c5-453e-80b2-29051492c0e0""}","https://test12345.live/?num_scrambled_semantic=8&num_scrambled_causal=4&num_scrambled_schematic=4&participantId=2CD4ED90AEAA4DBC9CC50FF108FD34A2&assignmentId=ecd11fa1-ba7b-4f13-a647-d8608a2d27ee&projectId=ba640c14-69c5-453e-80b2-29051492c0e0","2CD4ED90AEAA4DBC9CC50FF108FD34A2-2025-05-14-21-03-46","","null","","[]","null","",""
"","","","","","image-button-response","101","495594","0.0-14.0-1.0-0.4","2CD4ED90AEAA4DBC9CC50FF108FD34A2","2CD4ED90AEAA4DBC9CC50FF108FD34A2","ecd11fa1-ba7b-4f13-a647-d8608a2d27ee","ba640c14-69c5-453e-80b2-29051492c0e0","{""num_scrambled_semantic"":""8"",""num_scrambled_causal"":""4"",""num_scrambled_schematic"":""4"",""participantId"":""2CD4ED90AEAA4DBC9CC50FF108FD34A2"",""assignmentId"":""ecd11fa1-ba7b-4f13-a647-d8608a2d27ee"",""projectId"":""ba640c14-69c5-453e-80b2-29051492c0e0""}","https://test12345.live/?num_scrambled_semantic=8&num_scrambled_causal=4&num_scrambled_schematic=4&participantId=2CD4ED90AEAA4DBC9CC50FF108FD34A2&assignmentId=ecd11fa1-ba7b-4f13-a647-d8608a2d27ee&projectId=ba640c14-69c5-453e-80b2-29051492c0e0","2CD4ED90AEAA4DBC9CC50FF108FD34A2-2025-05-14-21-03-46","","null","","images/semantic_sequence/cat_care_semantic/cat_care_semantic_5.png","null","",""
"","","","","","image-button-response","102","496501","0.0-14.0-1.0-1.4","2CD4ED90AEAA4DBC9CC50FF108FD34A2","2CD4ED90AEAA4DBC9CC50FF108FD34A2","ecd11fa1-ba7b-4f13-a647-d8608a2d27ee","ba640c14-69c5-453e-80b2-29051492c0e0","{""num_scrambled_semantic"":""8"",""num_scrambled_causal"":""4"",""num_scrambled_schematic"":""4"",""participantId"":""2CD4ED90AEAA4DBC9CC50FF108FD34A2"",""assignmentId"":""ecd11fa1-ba7b-4f13-a647-d8608a2d27ee"",""projectId"":""ba640c14-69c5-453e-80b2-29051492c0e0""}","https://test12345.live/?num_scrambled_semantic=8&num_scrambled_causal=4&num_scrambled_schematic=4&participantId=2CD4ED90AEAA4DBC9CC50FF108FD34A2&assignmentId=ecd11fa1-ba7b-4f13-a647-d8608a2d27ee&projectId=ba640c14-69c5-453e-80b2-29051492c0e0","2CD4ED90AEAA4DBC9CC50FF108FD34A2-2025-05-14-21-03-46","","905","","images/semantic_sequence/cat_care_semantic/cat_care_semantic_5.png","0","",""
"","","","","","image-button-response","103","498315","0.0-14.0-1.0-2.4","2CD4ED90AEAA4DBC9CC50FF108FD34A2","2CD4ED90AEAA4DBC9CC50FF108FD34A2","ecd11fa1-ba7b-4f13-a647-d8608a2d27ee","ba640c14-69c5-453e-80b2-29051492c0e0","{""num_scrambled_semantic"":""8"",""num_scrambled_causal"":""4"",""num_scrambled_schematic"":""4"",""participantId"":""2CD4ED90AEAA4DBC9CC50FF108FD34A2"",""assignmentId"":""ecd11fa1-ba7b-4f13-a647-d8608a2d27ee"",""projectId"":""ba640c14-69c5-453e-80b2-29051492c0e0""}","https://test12345.live/?num_scrambled_semantic=8&num_scrambled_causal=4&num_scrambled_schematic=4&participantId=2CD4ED90AEAA4DBC9CC50FF108FD34A2&assignmentId=ecd11fa1-ba7b-4f13-a647-d8608a2d27ee&projectId=ba640c14-69c5-453e-80b2-29051492c0e0","2CD4ED90AEAA4DBC9CC50FF108FD34A2-2025-05-14-21-03-46","","null","","[]","null","",""
"","","","","","image-button-response","104","502833","0.0-14.0-1.0-0.5","2CD4ED90AEAA4DBC9CC50FF108FD34A2","2CD4ED90AEAA4DBC9CC50FF108FD34A2","ecd11fa1-ba7b-4f13-a647-d8608a2d27ee","ba640c14-69c5-453e-80b2-29051492c0e0","{""num_scrambled_semantic"":""8"",""num_scrambled_causal"":""4"",""num_scrambled_schematic"":""4"",""participantId"":""2CD4ED90AEAA4DBC9CC50FF108FD34A2"",""assignmentId"":""ecd11fa1-ba7b-4f13-a647-d8608a2d27ee"",""projectId"":""ba640c14-69c5-453e-80b2-29051492c0e0""}","https://test12345.live/?num_scrambled_semantic=8&num_scrambled_causal=4&num_scrambled_schematic=4&participantId=2CD4ED90AEAA4DBC9CC50FF108FD34A2&assignmentId=ecd11fa1-ba7b-4f13-a647-d8608a2d27ee&projectId=ba640c14-69c5-453e-80b2-29051492c0e0","2CD4ED90AEAA4DBC9CC50FF108FD34A2-2025-05-14-21-03-46","","null","","images/semantic_sequence/cat_care_semantic/cat_care_semantic_6.png","null","",""
"","","","","","image-button-response","105","503651","0.0-14.0-1.0-1.5","2CD4ED90AEAA4DBC9CC50FF108FD34A2","2CD4ED90AEAA4DBC9CC50FF108FD34A2","ecd11fa1-ba7b-4f13-a647-d8608a2d27ee","ba640c14-69c5-453e-80b2-29051492c0e0","{""num_scrambled_semantic"":""8"",""num_scrambled_causal"":""4"",""num_scrambled_schematic"":""4"",""participantId"":""2CD4ED90AEAA4DBC9CC50FF108FD34A2"",""assignmentId"":""ecd11fa1-ba7b-4f13-a647-d8608a2d27ee"",""projectId"":""ba640c14-69c5-453e-80b2-29051492c0e0""}","https://test12345.live/?num_scrambled_semantic=8&num_scrambled_causal=4&num_scrambled_schematic=4&participantId=2CD4ED90AEAA4DBC9CC50FF108FD34A2&assignmentId=ecd11fa1-ba7b-4f13-a647-d8608a2d27ee&projectId=ba640c14-69c5-453e-80b2-29051492c0e0","2CD4ED90AEAA4DBC9CC50FF108FD34A2-2025-05-14-21-03-46","","816","","images/semantic_sequence/cat_care_semantic/cat_care_semantic_6.png","0","",""
"","","","","","image-button-response","106","505454","0.0-14.0-1.0-2.5","2CD4ED90AEAA4DBC9CC50FF108FD34A2","2CD4ED90AEAA4DBC9CC50FF108FD34A2","ecd11fa1-ba7b-4f13-a647-d8608a2d27ee","ba640c14-69c5-453e-80b2-29051492c0e0","{""num_scrambled_semantic"":""8"",""num_scrambled_causal"":""4"",""num_scrambled_schematic"":""4"",""participantId"":""2CD4ED90AEAA4DBC9CC50FF108FD34A2"",""assignmentId"":""ecd11fa1-ba7b-4f13-a647-d8608a2d27ee"",""projectId"":""ba640c14-69c5-453e-80b2-29051492c0e0""}","https://test12345.live/?num_scrambled_semantic=8&num_scrambled_causal=4&num_scrambled_schematic=4&participantId=2CD4ED90AEAA4DBC9CC50FF108FD34A2&assignmentId=ecd11fa1-ba7b-4f13-a647-d8608a2d27ee&projectId=ba640c14-69c5-453e-80b2-29051492c0e0","2CD4ED90AEAA4DBC9CC50FF108FD34A2-2025-05-14-21-03-46","","null","","[]","null","",""
"","","","","","image-button-response","107","509959","0.0-14.0-1.0-0.6","2CD4ED90AEAA4DBC9CC50FF108FD34A2","2CD4ED90AEAA4DBC9CC50FF108FD34A2","ecd11fa1-ba7b-4f13-a647-d8608a2d27ee","ba640c14-69c5-453e-80b2-29051492c0e0","{""num_scrambled_semantic"":""8"",""num_scrambled_causal"":""4"",""num_scrambled_schematic"":""4"",""participantId"":""2CD4ED90AEAA4DBC9CC50FF108FD34A2"",""assignmentId"":""ecd11fa1-ba7b-4f13-a647-d8608a2d27ee"",""projectId"":""ba640c14-69c5-453e-80b2-29051492c0e0""}","https://test12345.live/?num_scrambled_semantic=8&num_scrambled_causal=4&num_scrambled_schematic=4&participantId=2CD4ED90AEAA4DBC9CC50FF108FD34A2&assignmentId=ecd11fa1-ba7b-4f13-a647-d8608a2d27ee&projectId=ba640c14-69c5-453e-80b2-29051492c0e0","2CD4ED90AEAA4DBC9CC50FF108FD34A2-2025-05-14-21-03-46","","null","","images/semantic_sequence/cat_care_semantic/cat_care_semantic_7.png","null","",""
"","","","","","image-button-response","108","513574","0.0-14.0-1.0-1.6","2CD4ED90AEAA4DBC9CC50FF108FD34A2","2CD4ED90AEAA4DBC9CC50FF108FD34A2","ecd11fa1-ba7b-4f13-a647-d8608a2d27ee","ba640c14-69c5-453e-80b2-29051492c0e0","{""num_scrambled_semantic"":""8"",""num_scrambled_causal"":""4"",""num_scrambled_schematic"":""4"",""participantId"":""2CD4ED90AEAA4DBC9CC50FF108FD34A2"",""assignmentId"":""ecd11fa1-ba7b-4f13-a647-d8608a2d27ee"",""projectId"":""ba640c14-69c5-453e-80b2-29051492c0e0""}","https://test12345.live/?num_scrambled_semantic=8&num_scrambled_causal=4&num_scrambled_schematic=4&participantId=2CD4ED90AEAA4DBC9CC50FF108FD34A2&assignmentId=ecd11fa1-ba7b-4f13-a647-d8608a2d27ee&projectId=ba640c14-69c5-453e-80b2-29051492c0e0","2CD4ED90AEAA4DBC9CC50FF108FD34A2-2025-05-14-21-03-46","","3614","","images/semantic_sequence/cat_care_semantic/cat_care_semantic_7.png","0","",""
"","","","","","image-button-response","109","515385","0.0-14.0-1.0-2.6","2CD4ED90AEAA4DBC9CC50FF108FD34A2","2CD4ED90AEAA4DBC9CC50FF108FD34A2","ecd11fa1-ba7b-4f13-a647-d8608a2d27ee","ba640c14-69c5-453e-80b2-29051492c0e0","{""num_scrambled_semantic"":""8"",""num_scrambled_causal"":""4"",""num_scrambled_schematic"":""4"",""participantId"":""2CD4ED90AEAA4DBC9CC50FF108FD34A2"",""assignmentId"":""ecd11fa1-ba7b-4f13-a647-d8608a2d27ee"",""projectId"":""ba640c14-69c5-453e-80b2-29051492c0e0""}","https://test12345.live/?num_scrambled_semantic=8&num_scrambled_causal=4&num_scrambled_schematic=4&participantId=2CD4ED90AEAA4DBC9CC50FF108FD34A2&assignmentId=ecd11fa1-ba7b-4f13-a647-d8608a2d27ee&projectId=ba640c14-69c5-453e-80b2-29051492c0e0","2CD4ED90AEAA4DBC9CC50FF108FD34A2-2025-05-14-21-03-46","","null","","[]","null","",""
"","","","","","image-button-response","110","519896","0.0-14.0-1.0-0.7","2CD4ED90AEAA4DBC9CC50FF108FD34A2","2CD4ED90AEAA4DBC9CC50FF108FD34A2","ecd11fa1-ba7b-4f13-a647-d8608a2d27ee","ba640c14-69c5-453e-80b2-29051492c0e0","{""num_scrambled_semantic"":""8"",""num_scrambled_causal"":""4"",""num_scrambled_schematic"":""4"",""participantId"":""2CD4ED90AEAA4DBC9CC50FF108FD34A2"",""assignmentId"":""ecd11fa1-ba7b-4f13-a647-d8608a2d27ee"",""projectId"":""ba640c14-69c5-453e-80b2-29051492c0e0""}","https://test12345.live/?num_scrambled_semantic=8&num_scrambled_causal=4&num_scrambled_schematic=4&participantId=2CD4ED90AEAA4DBC9CC50FF108FD34A2&assignmentId=ecd11fa1-ba7b-4f13-a647-d8608a2d27ee&projectId=ba640c14-69c5-453e-80b2-29051492c0e0","2CD4ED90AEAA4DBC9CC50FF108FD34A2-2025-05-14-21-03-46","","null","","images/semantic_sequence/cat_care_semantic/cat_care_semantic_8.png","null","",""
"","","","","","image-button-response","111","520923","0.0-14.0-1.0-1.7","2CD4ED90AEAA4DBC9CC50FF108FD34A2","2CD4ED90AEAA4DBC9CC50FF108FD34A2","ecd11fa1-ba7b-4f13-a647-d8608a2d27ee","ba640c14-69c5-453e-80b2-29051492c0e0","{""num_scrambled_semantic"":""8"",""num_scrambled_causal"":""4"",""num_scrambled_schematic"":""4"",""participantId"":""2CD4ED90AEAA4DBC9CC50FF108FD34A2"",""assignmentId"":""ecd11fa1-ba7b-4f13-a647-d8608a2d27ee"",""projectId"":""ba640c14-69c5-453e-80b2-29051492c0e0""}","https://test12345.live/?num_scrambled_semantic=8&num_scrambled_causal=4&num_scrambled_schematic=4&participantId=2CD4ED90AEAA4DBC9CC50FF108FD34A2&assignmentId=ecd11fa1-ba7b-4f13-a647-d8608a2d27ee&projectId=ba640c14-69c5-453e-80b2-29051492c0e0","2CD4ED90AEAA4DBC9CC50FF108FD34A2-2025-05-14-21-03-46","","1025","","images/semantic_sequence/cat_care_semantic/cat_care_semantic_8.png","0","",""
"","","","","","image-button-response","112","522724","0.0-14.0-1.0-2.7","2CD4ED90AEAA4DBC9CC50FF108FD34A2","2CD4ED90AEAA4DBC9CC50FF108FD34A2","ecd11fa1-ba7b-4f13-a647-d8608a2d27ee","ba640c14-69c5-453e-80b2-29051492c0e0","{""num_scrambled_semantic"":""8"",""num_scrambled_causal"":""4"",""num_scrambled_schematic"":""4"",""participantId"":""2CD4ED90AEAA4DBC9CC50FF108FD34A2"",""assignmentId"":""ecd11fa1-ba7b-4f13-a647-d8608a2d27ee"",""projectId"":""ba640c14-69c5-453e-80b2-29051492c0e0""}","https://test12345.live/?num_scrambled_semantic=8&num_scrambled_causal=4&num_scrambled_schematic=4&participantId=2CD4ED90AEAA4DBC9CC50FF108FD34A2&assignmentId=ecd11fa1-ba7b-4f13-a647-d8608a2d27ee&projectId=ba640c14-69c5-453e-80b2-29051492c0e0","2CD4ED90AEAA4DBC9CC50FF108FD34A2-2025-05-14-21-03-46","","null","","[]","null","",""
"","","","","","image-button-response","113","527238","0.0-14.0-1.0-0.8","2CD4ED90AEAA4DBC9CC50FF108FD34A2","2CD4ED90AEAA4DBC9CC50FF108FD34A2","ecd11fa1-ba7b-4f13-a647-d8608a2d27ee","ba640c14-69c5-453e-80b2-29051492c0e0","{""num_scrambled_semantic"":""8"",""num_scrambled_causal"":""4"",""num_scrambled_schematic"":""4"",""participantId"":""2CD4ED90AEAA4DBC9CC50FF108FD34A2"",""assignmentId"":""ecd11fa1-ba7b-4f13-a647-d8608a2d27ee"",""projectId"":""ba640c14-69c5-453e-80b2-29051492c0e0""}","https://test12345.live/?num_scrambled_semantic=8&num_scrambled_causal=4&num_scrambled_schematic=4&participantId=2CD4ED90AEAA4DBC9CC50FF108FD34A2&assignmentId=ecd11fa1-ba7b-4f13-a647-d8608a2d27ee&projectId=ba640c14-69c5-453e-80b2-29051492c0e0","2CD4ED90AEAA4DBC9CC50FF108FD34A2-2025-05-14-21-03-46","","null","","images/semantic_sequence/cat_care_semantic/cat_care_semantic_9.png","null","",""
