"success","timeout","failed_images","failed_audio","failed_video","trial_type","trial_index","time_elapsed","internal_node_id","subject","subject_id","study_id","session_id","urlvar","current_url","audio_id","view_history","rt","device_id","stimulus","response","estimated_stimulus_onset","seq_name"
"true","false","[]","[]","[]","preload","0","3875","0.0-0.0","2D9786E199F44AAC9ACE66F0BA86C347","2D9786E199F44AAC9ACE66F0BA86C347","ac03e295-b2fc-48b6-ba89-4585c2b62f86","a9f3d40c-5730-405c-b25e-1034c4c56f3f","{""num_scrambled_semantic"":""8"",""num_scrambled_causal"":""4"",""num_scrambled_schematic"":""4"",""participantId"":""2D9786E199F44AAC9ACE66F0BA86C347"",""assignmentId"":""ac03e295-b2fc-48b6-ba89-4585c2b62f86"",""projectId"":""a9f3d40c-5730-405c-b25e-1034c4c56f3f""}","https://test12345.live/?num_scrambled_semantic=8&num_scrambled_causal=4&num_scrambled_schematic=4&participantId=2D9786E199F44AAC9ACE66F0BA86C347&assignmentId=ac03e295-b2fc-48b6-ba89-4585c2b62f86&projectId=a9f3d40c-5730-405c-b25e-1034c4c56f3f","2D9786E199F44AAC9ACE66F0BA86C347-2025-08-07-19-18-04","","","","","","",""
"","","","","","instructions","1","45749","0.0-1.0","2D9786E199F44AAC9ACE66F0BA86C347","2D9786E199F44AAC9ACE66F0BA86C347","ac03e295-b2fc-48b6-ba89-4585c2b62f86","a9f3d40c-5730-405c-b25e-1034c4c56f3f","{""num_scrambled_semantic"":""8"",""num_scrambled_causal"":""4"",""num_scrambled_schematic"":""4"",""participantId"":""2D9786E199F44AAC9ACE66F0BA86C347"",""assignmentId"":""ac03e295-b2fc-48b6-ba89-4585c2b62f86"",""projectId"":""a9f3d40c-5730-405c-b25e-1034c4c56f3f""}","https://test12345.live/?num_scrambled_semantic=8&num_scrambled_causal=4&num_scrambled_schematic=4&participantId=2D9786E199F44AAC9ACE66F0BA86C347&assignmentId=ac03e295-b2fc-48b6-ba89-4585c2b62f86&projectId=a9f3d40c-5730-405c-b25e-1034c4c56f3f","2D9786E199F44AAC9ACE66F0BA86C347-2025-08-07-19-18-04","[{""page_index"":0,""viewing_time"":41873}]","41874","","","","",""
"","","","","","instructions","2","48814","0.0-2.0","2D9786E199F44AAC9ACE66F0BA86C347","2D9786E199F44AAC9ACE66F0BA86C347","ac03e295-b2fc-48b6-ba89-4585c2b62f86","a9f3d40c-5730-405c-b25e-1034c4c56f3f","{""num_scrambled_semantic"":""8"",""num_scrambled_causal"":""4"",""num_scrambled_schematic"":""4"",""participantId"":""2D9786E199F44AAC9ACE66F0BA86C347"",""assignmentId"":""ac03e295-b2fc-48b6-ba89-4585c2b62f86"",""projectId"":""a9f3d40c-5730-405c-b25e-1034c4c56f3f""}","https://test12345.live/?num_scrambled_semantic=8&num_scrambled_causal=4&num_scrambled_schematic=4&participantId=2D9786E199F44AAC9ACE66F0BA86C347&assignmentId=ac03e295-b2fc-48b6-ba89-4585c2b62f86&projectId=a9f3d40c-5730-405c-b25e-1034c4c56f3f","2D9786E199F44AAC9ACE66F0BA86C347-2025-08-07-19-18-04","[{""page_index"":0,""viewing_time"":3064}]","3064","","","","",""
"true","","","","","fullscreen","3","51170","0.0-3.0","2D9786E199F44AAC9ACE66F0BA86C347","2D9786E199F44AAC9ACE66F0BA86C347","ac03e295-b2fc-48b6-ba89-4585c2b62f86","a9f3d40c-5730-405c-b25e-1034c4c56f3f","{""num_scrambled_semantic"":""8"",""num_scrambled_causal"":""4"",""num_scrambled_schematic"":""4"",""participantId"":""2D9786E199F44AAC9ACE66F0BA86C347"",""assignmentId"":""ac03e295-b2fc-48b6-ba89-4585c2b62f86"",""projectId"":""a9f3d40c-5730-405c-b25e-1034c4c56f3f""}","https://test12345.live/?num_scrambled_semantic=8&num_scrambled_causal=4&num_scrambled_schematic=4&participantId=2D9786E199F44AAC9ACE66F0BA86C347&assignmentId=ac03e295-b2fc-48b6-ba89-4585c2b62f86&projectId=a9f3d40c-5730-405c-b25e-1034c4c56f3f","2D9786E199F44AAC9ACE66F0BA86C347-2025-08-07-19-18-04","","1350","","","","",""
"","","","","","initialize-microphone","4","58340","0.0-4.0-0.0","2D9786E199F44AAC9ACE66F0BA86C347","2D9786E199F44AAC9ACE66F0BA86C347","ac03e295-b2fc-48b6-ba89-4585c2b62f86","a9f3d40c-5730-405c-b25e-1034c4c56f3f","{""num_scrambled_semantic"":""8"",""num_scrambled_causal"":""4"",""num_scrambled_schematic"":""4"",""participantId"":""2D9786E199F44AAC9ACE66F0BA86C347"",""assignmentId"":""ac03e295-b2fc-48b6-ba89-4585c2b62f86"",""projectId"":""a9f3d40c-5730-405c-b25e-1034c4c56f3f""}","https://test12345.live/?num_scrambled_semantic=8&num_scrambled_causal=4&num_scrambled_schematic=4&participantId=2D9786E199F44AAC9ACE66F0BA86C347&assignmentId=ac03e295-b2fc-48b6-ba89-4585c2b62f86&projectId=a9f3d40c-5730-405c-b25e-1034c4c56f3f","2D9786E199F44AAC9ACE66F0BA86C347-2025-08-07-19-18-04","","","513c73350da312a8dfe8f7e2cf4d04b739f52b024811d03fc399eb214b910c9a","","","",""
"","","","","","html-audio-response","5","64579","0.0-4.0-1.0","2D9786E199F44AAC9ACE66F0BA86C347","2D9786E199F44AAC9ACE66F0BA86C347","ac03e295-b2fc-48b6-ba89-4585c2b62f86","a9f3d40c-5730-405c-b25e-1034c4c56f3f","{""num_scrambled_semantic"":""8"",""num_scrambled_causal"":""4"",""num_scrambled_schematic"":""4"",""participantId"":""2D9786E199F44AAC9ACE66F0BA86C347"",""assignmentId"":""ac03e295-b2fc-48b6-ba89-4585c2b62f86"",""projectId"":""a9f3d40c-5730-405c-b25e-1034c4c56f3f""}","https://test12345.live/?num_scrambled_semantic=8&num_scrambled_causal=4&num_scrambled_schematic=4&participantId=2D9786E199F44AAC9ACE66F0BA86C347&assignmentId=ac03e295-b2fc-48b6-ba89-4585c2b62f86&projectId=a9f3d40c-5730-405c-b25e-1034c4c56f3f","2D9786E199F44AAC9ACE66F0BA86C347-2025-08-07-19-18-04","","2831","","<span style=""color: red; font-size: 24px""> NOW RECORDING</span>
        <p>Please test Microphone</p>","","1",""
"","","","","","html-button-response","6","65858","0.0-4.0-2.0","2D9786E199F44AAC9ACE66F0BA86C347","2D9786E199F44AAC9ACE66F0BA86C347","ac03e295-b2fc-48b6-ba89-4585c2b62f86","a9f3d40c-5730-405c-b25e-1034c4c56f3f","{""num_scrambled_semantic"":""8"",""num_scrambled_causal"":""4"",""num_scrambled_schematic"":""4"",""participantId"":""2D9786E199F44AAC9ACE66F0BA86C347"",""assignmentId"":""ac03e295-b2fc-48b6-ba89-4585c2b62f86"",""projectId"":""a9f3d40c-5730-405c-b25e-1034c4c56f3f""}","https://test12345.live/?num_scrambled_semantic=8&num_scrambled_causal=4&num_scrambled_schematic=4&participantId=2D9786E199F44AAC9ACE66F0BA86C347&assignmentId=ac03e295-b2fc-48b6-ba89-4585c2b62f86&projectId=a9f3d40c-5730-405c-b25e-1034c4c56f3f","2D9786E199F44AAC9ACE66F0BA86C347-2025-08-07-19-18-04","","1278","","<p style=""font-size:48px; color:red;"">Is Microphone OK?</p>","1","",""
"","","","","","instructions","7","73574","0.0-5.0","2D9786E199F44AAC9ACE66F0BA86C347","2D9786E199F44AAC9ACE66F0BA86C347","ac03e295-b2fc-48b6-ba89-4585c2b62f86","a9f3d40c-5730-405c-b25e-1034c4c56f3f","{""num_scrambled_semantic"":""8"",""num_scrambled_causal"":""4"",""num_scrambled_schematic"":""4"",""participantId"":""2D9786E199F44AAC9ACE66F0BA86C347"",""assignmentId"":""ac03e295-b2fc-48b6-ba89-4585c2b62f86"",""projectId"":""a9f3d40c-5730-405c-b25e-1034c4c56f3f""}","https://test12345.live/?num_scrambled_semantic=8&num_scrambled_causal=4&num_scrambled_schematic=4&participantId=2D9786E199F44AAC9ACE66F0BA86C347&assignmentId=ac03e295-b2fc-48b6-ba89-4585c2b62f86&projectId=a9f3d40c-5730-405c-b25e-1034c4c56f3f","2D9786E199F44AAC9ACE66F0BA86C347-2025-08-07-19-18-04","[{""page_index"":0,""viewing_time"":3245},{""page_index"":1,""viewing_time"":4471}]","7716","","","","",""
"","","","","","image-button-response","8","79577","0.0-6.0-0.0","2D9786E199F44AAC9ACE66F0BA86C347","2D9786E199F44AAC9ACE66F0BA86C347","ac03e295-b2fc-48b6-ba89-4585c2b62f86","a9f3d40c-5730-405c-b25e-1034c4c56f3f","{""num_scrambled_semantic"":""8"",""num_scrambled_causal"":""4"",""num_scrambled_schematic"":""4"",""participantId"":""2D9786E199F44AAC9ACE66F0BA86C347"",""assignmentId"":""ac03e295-b2fc-48b6-ba89-4585c2b62f86"",""projectId"":""a9f3d40c-5730-405c-b25e-1034c4c56f3f""}","https://test12345.live/?num_scrambled_semantic=8&num_scrambled_causal=4&num_scrambled_schematic=4&participantId=2D9786E199F44AAC9ACE66F0BA86C347&assignmentId=ac03e295-b2fc-48b6-ba89-4585c2b62f86&projectId=a9f3d40c-5730-405c-b25e-1034c4c56f3f","2D9786E199F44AAC9ACE66F0BA86C347-2025-08-07-19-18-04","","null","","images/instructions/movie_0.png","null","",""
"","","","","","image-button-response","9","84083","0.0-6.0-1.0-0.0","2D9786E199F44AAC9ACE66F0BA86C347","2D9786E199F44AAC9ACE66F0BA86C347","ac03e295-b2fc-48b6-ba89-4585c2b62f86","a9f3d40c-5730-405c-b25e-1034c4c56f3f","{""num_scrambled_semantic"":""8"",""num_scrambled_causal"":""4"",""num_scrambled_schematic"":""4"",""participantId"":""2D9786E199F44AAC9ACE66F0BA86C347"",""assignmentId"":""ac03e295-b2fc-48b6-ba89-4585c2b62f86"",""projectId"":""a9f3d40c-5730-405c-b25e-1034c4c56f3f""}","https://test12345.live/?num_scrambled_semantic=8&num_scrambled_causal=4&num_scrambled_schematic=4&participantId=2D9786E199F44AAC9ACE66F0BA86C347&assignmentId=ac03e295-b2fc-48b6-ba89-4585c2b62f86&projectId=a9f3d40c-5730-405c-b25e-1034c4c56f3f","2D9786E199F44AAC9ACE66F0BA86C347-2025-08-07-19-18-04","","null","","images/instructions/movie_1.png","null","",""
"","","","","","image-button-response","10","85975","0.0-6.0-1.0-1.0","2D9786E199F44AAC9ACE66F0BA86C347","2D9786E199F44AAC9ACE66F0BA86C347","ac03e295-b2fc-48b6-ba89-4585c2b62f86","a9f3d40c-5730-405c-b25e-1034c4c56f3f","{""num_scrambled_semantic"":""8"",""num_scrambled_causal"":""4"",""num_scrambled_schematic"":""4"",""participantId"":""2D9786E199F44AAC9ACE66F0BA86C347"",""assignmentId"":""ac03e295-b2fc-48b6-ba89-4585c2b62f86"",""projectId"":""a9f3d40c-5730-405c-b25e-1034c4c56f3f""}","https://test12345.live/?num_scrambled_semantic=8&num_scrambled_causal=4&num_scrambled_schematic=4&participantId=2D9786E199F44AAC9ACE66F0BA86C347&assignmentId=ac03e295-b2fc-48b6-ba89-4585c2b62f86&projectId=a9f3d40c-5730-405c-b25e-1034c4c56f3f","2D9786E199F44AAC9ACE66F0BA86C347-2025-08-07-19-18-04","","1887","","images/instructions/movie_1.png","0","",""
"","","","","","image-button-response","11","87779","0.0-6.0-1.0-2.0","2D9786E199F44AAC9ACE66F0BA86C347","2D9786E199F44AAC9ACE66F0BA86C347","ac03e295-b2fc-48b6-ba89-4585c2b62f86","a9f3d40c-5730-405c-b25e-1034c4c56f3f","{""num_scrambled_semantic"":""8"",""num_scrambled_causal"":""4"",""num_scrambled_schematic"":""4"",""participantId"":""2D9786E199F44AAC9ACE66F0BA86C347"",""assignmentId"":""ac03e295-b2fc-48b6-ba89-4585c2b62f86"",""projectId"":""a9f3d40c-5730-405c-b25e-1034c4c56f3f""}","https://test12345.live/?num_scrambled_semantic=8&num_scrambled_causal=4&num_scrambled_schematic=4&participantId=2D9786E199F44AAC9ACE66F0BA86C347&assignmentId=ac03e295-b2fc-48b6-ba89-4585c2b62f86&projectId=a9f3d40c-5730-405c-b25e-1034c4c56f3f","2D9786E199F44AAC9ACE66F0BA86C347-2025-08-07-19-18-04","","null","","[]","null","",""
"","","","","","image-button-response","12","92287","0.0-6.0-1.0-0.1","2D9786E199F44AAC9ACE66F0BA86C347","2D9786E199F44AAC9ACE66F0BA86C347","ac03e295-b2fc-48b6-ba89-4585c2b62f86","a9f3d40c-5730-405c-b25e-1034c4c56f3f","{""num_scrambled_semantic"":""8"",""num_scrambled_causal"":""4"",""num_scrambled_schematic"":""4"",""participantId"":""2D9786E199F44AAC9ACE66F0BA86C347"",""assignmentId"":""ac03e295-b2fc-48b6-ba89-4585c2b62f86"",""projectId"":""a9f3d40c-5730-405c-b25e-1034c4c56f3f""}","https://test12345.live/?num_scrambled_semantic=8&num_scrambled_causal=4&num_scrambled_schematic=4&participantId=2D9786E199F44AAC9ACE66F0BA86C347&assignmentId=ac03e295-b2fc-48b6-ba89-4585c2b62f86&projectId=a9f3d40c-5730-405c-b25e-1034c4c56f3f","2D9786E199F44AAC9ACE66F0BA86C347-2025-08-07-19-18-04","","null","","images/instructions/movie_2.png","null","",""
"","","","","","image-button-response","13","94503","0.0-6.0-1.0-1.1","2D9786E199F44AAC9ACE66F0BA86C347","2D9786E199F44AAC9ACE66F0BA86C347","ac03e295-b2fc-48b6-ba89-4585c2b62f86","a9f3d40c-5730-405c-b25e-1034c4c56f3f","{""num_scrambled_semantic"":""8"",""num_scrambled_causal"":""4"",""num_scrambled_schematic"":""4"",""participantId"":""2D9786E199F44AAC9ACE66F0BA86C347"",""assignmentId"":""ac03e295-b2fc-48b6-ba89-4585c2b62f86"",""projectId"":""a9f3d40c-5730-405c-b25e-1034c4c56f3f""}","https://test12345.live/?num_scrambled_semantic=8&num_scrambled_causal=4&num_scrambled_schematic=4&participantId=2D9786E199F44AAC9ACE66F0BA86C347&assignmentId=ac03e295-b2fc-48b6-ba89-4585c2b62f86&projectId=a9f3d40c-5730-405c-b25e-1034c4c56f3f","2D9786E199F44AAC9ACE66F0BA86C347-2025-08-07-19-18-04","","2213","","images/instructions/movie_2.png","0","",""
"","","","","","image-button-response","14","96306","0.0-6.0-1.0-2.1","2D9786E199F44AAC9ACE66F0BA86C347","2D9786E199F44AAC9ACE66F0BA86C347","ac03e295-b2fc-48b6-ba89-4585c2b62f86","a9f3d40c-5730-405c-b25e-1034c4c56f3f","{""num_scrambled_semantic"":""8"",""num_scrambled_causal"":""4"",""num_scrambled_schematic"":""4"",""participantId"":""2D9786E199F44AAC9ACE66F0BA86C347"",""assignmentId"":""ac03e295-b2fc-48b6-ba89-4585c2b62f86"",""projectId"":""a9f3d40c-5730-405c-b25e-1034c4c56f3f""}","https://test12345.live/?num_scrambled_semantic=8&num_scrambled_causal=4&num_scrambled_schematic=4&participantId=2D9786E199F44AAC9ACE66F0BA86C347&assignmentId=ac03e295-b2fc-48b6-ba89-4585c2b62f86&projectId=a9f3d40c-5730-405c-b25e-1034c4c56f3f","2D9786E199F44AAC9ACE66F0BA86C347-2025-08-07-19-18-04","","null","","[]","null","",""
"","","","","","image-button-response","15","100810","0.0-6.0-1.0-0.2","2D9786E199F44AAC9ACE66F0BA86C347","2D9786E199F44AAC9ACE66F0BA86C347","ac03e295-b2fc-48b6-ba89-4585c2b62f86","a9f3d40c-5730-405c-b25e-1034c4c56f3f","{""num_scrambled_semantic"":""8"",""num_scrambled_causal"":""4"",""num_scrambled_schematic"":""4"",""participantId"":""2D9786E199F44AAC9ACE66F0BA86C347"",""assignmentId"":""ac03e295-b2fc-48b6-ba89-4585c2b62f86"",""projectId"":""a9f3d40c-5730-405c-b25e-1034c4c56f3f""}","https://test12345.live/?num_scrambled_semantic=8&num_scrambled_causal=4&num_scrambled_schematic=4&participantId=2D9786E199F44AAC9ACE66F0BA86C347&assignmentId=ac03e295-b2fc-48b6-ba89-4585c2b62f86&projectId=a9f3d40c-5730-405c-b25e-1034c4c56f3f","2D9786E199F44AAC9ACE66F0BA86C347-2025-08-07-19-18-04","","null","","images/instructions/movie_3.png","null","",""
"","","","","","image-button-response","16","101528","0.0-6.0-1.0-1.2","2D9786E199F44AAC9ACE66F0BA86C347","2D9786E199F44AAC9ACE66F0BA86C347","ac03e295-b2fc-48b6-ba89-4585c2b62f86","a9f3d40c-5730-405c-b25e-1034c4c56f3f","{""num_scrambled_semantic"":""8"",""num_scrambled_causal"":""4"",""num_scrambled_schematic"":""4"",""participantId"":""2D9786E199F44AAC9ACE66F0BA86C347"",""assignmentId"":""ac03e295-b2fc-48b6-ba89-4585c2b62f86"",""projectId"":""a9f3d40c-5730-405c-b25e-1034c4c56f3f""}","https://test12345.live/?num_scrambled_semantic=8&num_scrambled_causal=4&num_scrambled_schematic=4&participantId=2D9786E199F44AAC9ACE66F0BA86C347&assignmentId=ac03e295-b2fc-48b6-ba89-4585c2b62f86&projectId=a9f3d40c-5730-405c-b25e-1034c4c56f3f","2D9786E199F44AAC9ACE66F0BA86C347-2025-08-07-19-18-04","","716","","images/instructions/movie_3.png","0","",""
"","","","","","image-button-response","17","103332","0.0-6.0-1.0-2.2","2D9786E199F44AAC9ACE66F0BA86C347","2D9786E199F44AAC9ACE66F0BA86C347","ac03e295-b2fc-48b6-ba89-4585c2b62f86","a9f3d40c-5730-405c-b25e-1034c4c56f3f","{""num_scrambled_semantic"":""8"",""num_scrambled_causal"":""4"",""num_scrambled_schematic"":""4"",""participantId"":""2D9786E199F44AAC9ACE66F0BA86C347"",""assignmentId"":""ac03e295-b2fc-48b6-ba89-4585c2b62f86"",""projectId"":""a9f3d40c-5730-405c-b25e-1034c4c56f3f""}","https://test12345.live/?num_scrambled_semantic=8&num_scrambled_causal=4&num_scrambled_schematic=4&participantId=2D9786E199F44AAC9ACE66F0BA86C347&assignmentId=ac03e295-b2fc-48b6-ba89-4585c2b62f86&projectId=a9f3d40c-5730-405c-b25e-1034c4c56f3f","2D9786E199F44AAC9ACE66F0BA86C347-2025-08-07-19-18-04","","null","","[]","null","",""
"","","","","","image-button-response","18","107838","0.0-6.0-1.0-0.3","2D9786E199F44AAC9ACE66F0BA86C347","2D9786E199F44AAC9ACE66F0BA86C347","ac03e295-b2fc-48b6-ba89-4585c2b62f86","a9f3d40c-5730-405c-b25e-1034c4c56f3f","{""num_scrambled_semantic"":""8"",""num_scrambled_causal"":""4"",""num_scrambled_schematic"":""4"",""participantId"":""2D9786E199F44AAC9ACE66F0BA86C347"",""assignmentId"":""ac03e295-b2fc-48b6-ba89-4585c2b62f86"",""projectId"":""a9f3d40c-5730-405c-b25e-1034c4c56f3f""}","https://test12345.live/?num_scrambled_semantic=8&num_scrambled_causal=4&num_scrambled_schematic=4&participantId=2D9786E199F44AAC9ACE66F0BA86C347&assignmentId=ac03e295-b2fc-48b6-ba89-4585c2b62f86&projectId=a9f3d40c-5730-405c-b25e-1034c4c56f3f","2D9786E199F44AAC9ACE66F0BA86C347-2025-08-07-19-18-04","","null","","images/instructions/movie_4.png","null","",""
"","","","","","image-button-response","19","108686","0.0-6.0-1.0-1.3","2D9786E199F44AAC9ACE66F0BA86C347","2D9786E199F44AAC9ACE66F0BA86C347","ac03e295-b2fc-48b6-ba89-4585c2b62f86","a9f3d40c-5730-405c-b25e-1034c4c56f3f","{""num_scrambled_semantic"":""8"",""num_scrambled_causal"":""4"",""num_scrambled_schematic"":""4"",""participantId"":""2D9786E199F44AAC9ACE66F0BA86C347"",""assignmentId"":""ac03e295-b2fc-48b6-ba89-4585c2b62f86"",""projectId"":""a9f3d40c-5730-405c-b25e-1034c4c56f3f""}","https://test12345.live/?num_scrambled_semantic=8&num_scrambled_causal=4&num_scrambled_schematic=4&participantId=2D9786E199F44AAC9ACE66F0BA86C347&assignmentId=ac03e295-b2fc-48b6-ba89-4585c2b62f86&projectId=a9f3d40c-5730-405c-b25e-1034c4c56f3f","2D9786E199F44AAC9ACE66F0BA86C347-2025-08-07-19-18-04","","844","","images/instructions/movie_4.png","0","",""
"","","","","","image-button-response","20","110494","0.0-6.0-1.0-2.3","2D9786E199F44AAC9ACE66F0BA86C347","2D9786E199F44AAC9ACE66F0BA86C347","ac03e295-b2fc-48b6-ba89-4585c2b62f86","a9f3d40c-5730-405c-b25e-1034c4c56f3f","{""num_scrambled_semantic"":""8"",""num_scrambled_causal"":""4"",""num_scrambled_schematic"":""4"",""participantId"":""2D9786E199F44AAC9ACE66F0BA86C347"",""assignmentId"":""ac03e295-b2fc-48b6-ba89-4585c2b62f86"",""projectId"":""a9f3d40c-5730-405c-b25e-1034c4c56f3f""}","https://test12345.live/?num_scrambled_semantic=8&num_scrambled_causal=4&num_scrambled_schematic=4&participantId=2D9786E199F44AAC9ACE66F0BA86C347&assignmentId=ac03e295-b2fc-48b6-ba89-4585c2b62f86&projectId=a9f3d40c-5730-405c-b25e-1034c4c56f3f","2D9786E199F44AAC9ACE66F0BA86C347-2025-08-07-19-18-04","","null","","[]","null","",""
"","","","","","instructions","21","115106","0.0-7.0","2D9786E199F44AAC9ACE66F0BA86C347","2D9786E199F44AAC9ACE66F0BA86C347","ac03e295-b2fc-48b6-ba89-4585c2b62f86","a9f3d40c-5730-405c-b25e-1034c4c56f3f","{""num_scrambled_semantic"":""8"",""num_scrambled_causal"":""4"",""num_scrambled_schematic"":""4"",""participantId"":""2D9786E199F44AAC9ACE66F0BA86C347"",""assignmentId"":""ac03e295-b2fc-48b6-ba89-4585c2b62f86"",""projectId"":""a9f3d40c-5730-405c-b25e-1034c4c56f3f""}","https://test12345.live/?num_scrambled_semantic=8&num_scrambled_causal=4&num_scrambled_schematic=4&participantId=2D9786E199F44AAC9ACE66F0BA86C347&assignmentId=ac03e295-b2fc-48b6-ba89-4585c2b62f86&projectId=a9f3d40c-5730-405c-b25e-1034c4c56f3f","2D9786E199F44AAC9ACE66F0BA86C347-2025-08-07-19-18-04","[{""page_index"":0,""viewing_time"":3484},{""page_index"":1,""viewing_time"":1127}]","4612","","","","",""
"","","","","","html-audio-response","22","137182","0.0-8.0","2D9786E199F44AAC9ACE66F0BA86C347","2D9786E199F44AAC9ACE66F0BA86C347","ac03e295-b2fc-48b6-ba89-4585c2b62f86","a9f3d40c-5730-405c-b25e-1034c4c56f3f","{""num_scrambled_semantic"":""8"",""num_scrambled_causal"":""4"",""num_scrambled_schematic"":""4"",""participantId"":""2D9786E199F44AAC9ACE66F0BA86C347"",""assignmentId"":""ac03e295-b2fc-48b6-ba89-4585c2b62f86"",""projectId"":""a9f3d40c-5730-405c-b25e-1034c4c56f3f""}","https://test12345.live/?num_scrambled_semantic=8&num_scrambled_causal=4&num_scrambled_schematic=4&participantId=2D9786E199F44AAC9ACE66F0BA86C347&assignmentId=ac03e295-b2fc-48b6-ba89-4585c2b62f86&projectId=a9f3d40c-5730-405c-b25e-1034c4c56f3f","2D9786E199F44AAC9ACE66F0BA86C347-2025-08-07-19-18-04","","15678","","[""<span style=\""color: red; font-size: 24px\""> NOW RECORDING</span><p>Please say out loud all the images you saw, as many as you can remember. The images can be said in any order.</p>""]","","2",""
"","","","","","instructions","23","138362","0.0-9.0","2D9786E199F44AAC9ACE66F0BA86C347","2D9786E199F44AAC9ACE66F0BA86C347","ac03e295-b2fc-48b6-ba89-4585c2b62f86","a9f3d40c-5730-405c-b25e-1034c4c56f3f","{""num_scrambled_semantic"":""8"",""num_scrambled_causal"":""4"",""num_scrambled_schematic"":""4"",""participantId"":""2D9786E199F44AAC9ACE66F0BA86C347"",""assignmentId"":""ac03e295-b2fc-48b6-ba89-4585c2b62f86"",""projectId"":""a9f3d40c-5730-405c-b25e-1034c4c56f3f""}","https://test12345.live/?num_scrambled_semantic=8&num_scrambled_causal=4&num_scrambled_schematic=4&participantId=2D9786E199F44AAC9ACE66F0BA86C347&assignmentId=ac03e295-b2fc-48b6-ba89-4585c2b62f86&projectId=a9f3d40c-5730-405c-b25e-1034c4c56f3f","2D9786E199F44AAC9ACE66F0BA86C347-2025-08-07-19-18-04","[{""page_index"":0,""viewing_time"":1177}]","1177","","","","",""
"","","","","","image-button-response","24","144369","0.0-10.0-0.0","2D9786E199F44AAC9ACE66F0BA86C347","2D9786E199F44AAC9ACE66F0BA86C347","ac03e295-b2fc-48b6-ba89-4585c2b62f86","a9f3d40c-5730-405c-b25e-1034c4c56f3f","{""num_scrambled_semantic"":""8"",""num_scrambled_causal"":""4"",""num_scrambled_schematic"":""4"",""participantId"":""2D9786E199F44AAC9ACE66F0BA86C347"",""assignmentId"":""ac03e295-b2fc-48b6-ba89-4585c2b62f86"",""projectId"":""a9f3d40c-5730-405c-b25e-1034c4c56f3f""}","https://test12345.live/?num_scrambled_semantic=8&num_scrambled_causal=4&num_scrambled_schematic=4&participantId=2D9786E199F44AAC9ACE66F0BA86C347&assignmentId=ac03e295-b2fc-48b6-ba89-4585c2b62f86&projectId=a9f3d40c-5730-405c-b25e-1034c4c56f3f","2D9786E199F44AAC9ACE66F0BA86C347-2025-08-07-19-18-04","","null","","images/semantic_sequence/housework_semantic/housework_semantic_0.png","null","",""
"","","","","","image-button-response","25","148876","0.0-10.0-1.0-0.0","2D9786E199F44AAC9ACE66F0BA86C347","2D9786E199F44AAC9ACE66F0BA86C347","ac03e295-b2fc-48b6-ba89-4585c2b62f86","a9f3d40c-5730-405c-b25e-1034c4c56f3f","{""num_scrambled_semantic"":""8"",""num_scrambled_causal"":""4"",""num_scrambled_schematic"":""4"",""participantId"":""2D9786E199F44AAC9ACE66F0BA86C347"",""assignmentId"":""ac03e295-b2fc-48b6-ba89-4585c2b62f86"",""projectId"":""a9f3d40c-5730-405c-b25e-1034c4c56f3f""}","https://test12345.live/?num_scrambled_semantic=8&num_scrambled_causal=4&num_scrambled_schematic=4&participantId=2D9786E199F44AAC9ACE66F0BA86C347&assignmentId=ac03e295-b2fc-48b6-ba89-4585c2b62f86&projectId=a9f3d40c-5730-405c-b25e-1034c4c56f3f","2D9786E199F44AAC9ACE66F0BA86C347-2025-08-07-19-18-04","","null","","images/semantic_sequence/housework_semantic/housework_semantic_3.png","null","",""
"","","","","","image-button-response","26","150974","0.0-10.0-1.0-1.0","2D9786E199F44AAC9ACE66F0BA86C347","2D9786E199F44AAC9ACE66F0BA86C347","ac03e295-b2fc-48b6-ba89-4585c2b62f86","a9f3d40c-5730-405c-b25e-1034c4c56f3f","{""num_scrambled_semantic"":""8"",""num_scrambled_causal"":""4"",""num_scrambled_schematic"":""4"",""participantId"":""2D9786E199F44AAC9ACE66F0BA86C347"",""assignmentId"":""ac03e295-b2fc-48b6-ba89-4585c2b62f86"",""projectId"":""a9f3d40c-5730-405c-b25e-1034c4c56f3f""}","https://test12345.live/?num_scrambled_semantic=8&num_scrambled_causal=4&num_scrambled_schematic=4&participantId=2D9786E199F44AAC9ACE66F0BA86C347&assignmentId=ac03e295-b2fc-48b6-ba89-4585c2b62f86&projectId=a9f3d40c-5730-405c-b25e-1034c4c56f3f","2D9786E199F44AAC9ACE66F0BA86C347-2025-08-07-19-18-04","","2095","","images/semantic_sequence/housework_semantic/housework_semantic_3.png","0","",""
"","","","","","image-button-response","27","152776","0.0-10.0-1.0-2.0","2D9786E199F44AAC9ACE66F0BA86C347","2D9786E199F44AAC9ACE66F0BA86C347","ac03e295-b2fc-48b6-ba89-4585c2b62f86","a9f3d40c-5730-405c-b25e-1034c4c56f3f","{""num_scrambled_semantic"":""8"",""num_scrambled_causal"":""4"",""num_scrambled_schematic"":""4"",""participantId"":""2D9786E199F44AAC9ACE66F0BA86C347"",""assignmentId"":""ac03e295-b2fc-48b6-ba89-4585c2b62f86"",""projectId"":""a9f3d40c-5730-405c-b25e-1034c4c56f3f""}","https://test12345.live/?num_scrambled_semantic=8&num_scrambled_causal=4&num_scrambled_schematic=4&participantId=2D9786E199F44AAC9ACE66F0BA86C347&assignmentId=ac03e295-b2fc-48b6-ba89-4585c2b62f86&projectId=a9f3d40c-5730-405c-b25e-1034c4c56f3f","2D9786E199F44AAC9ACE66F0BA86C347-2025-08-07-19-18-04","","null","","[]","null","",""
"","","","","","image-button-response","28","157281","0.0-10.0-1.0-0.1","2D9786E199F44AAC9ACE66F0BA86C347","2D9786E199F44AAC9ACE66F0BA86C347","ac03e295-b2fc-48b6-ba89-4585c2b62f86","a9f3d40c-5730-405c-b25e-1034c4c56f3f","{""num_scrambled_semantic"":""8"",""num_scrambled_causal"":""4"",""num_scrambled_schematic"":""4"",""participantId"":""2D9786E199F44AAC9ACE66F0BA86C347"",""assignmentId"":""ac03e295-b2fc-48b6-ba89-4585c2b62f86"",""projectId"":""a9f3d40c-5730-405c-b25e-1034c4c56f3f""}","https://test12345.live/?num_scrambled_semantic=8&num_scrambled_causal=4&num_scrambled_schematic=4&participantId=2D9786E199F44AAC9ACE66F0BA86C347&assignmentId=ac03e295-b2fc-48b6-ba89-4585c2b62f86&projectId=a9f3d40c-5730-405c-b25e-1034c4c56f3f","2D9786E199F44AAC9ACE66F0BA86C347-2025-08-07-19-18-04","","null","","images/semantic_sequence/housework_semantic/housework_semantic_ten.png","null","",""
"","","","","","image-button-response","29","158478","0.0-10.0-1.0-1.1","2D9786E199F44AAC9ACE66F0BA86C347","2D9786E199F44AAC9ACE66F0BA86C347","ac03e295-b2fc-48b6-ba89-4585c2b62f86","a9f3d40c-5730-405c-b25e-1034c4c56f3f","{""num_scrambled_semantic"":""8"",""num_scrambled_causal"":""4"",""num_scrambled_schematic"":""4"",""participantId"":""2D9786E199F44AAC9ACE66F0BA86C347"",""assignmentId"":""ac03e295-b2fc-48b6-ba89-4585c2b62f86"",""projectId"":""a9f3d40c-5730-405c-b25e-1034c4c56f3f""}","https://test12345.live/?num_scrambled_semantic=8&num_scrambled_causal=4&num_scrambled_schematic=4&participantId=2D9786E199F44AAC9ACE66F0BA86C347&assignmentId=ac03e295-b2fc-48b6-ba89-4585c2b62f86&projectId=a9f3d40c-5730-405c-b25e-1034c4c56f3f","2D9786E199F44AAC9ACE66F0BA86C347-2025-08-07-19-18-04","","1195","","images/semantic_sequence/housework_semantic/housework_semantic_ten.png","0","",""
"","","","","","image-button-response","30","160281","0.0-10.0-1.0-2.1","2D9786E199F44AAC9ACE66F0BA86C347","2D9786E199F44AAC9ACE66F0BA86C347","ac03e295-b2fc-48b6-ba89-4585c2b62f86","a9f3d40c-5730-405c-b25e-1034c4c56f3f","{""num_scrambled_semantic"":""8"",""num_scrambled_causal"":""4"",""num_scrambled_schematic"":""4"",""participantId"":""2D9786E199F44AAC9ACE66F0BA86C347"",""assignmentId"":""ac03e295-b2fc-48b6-ba89-4585c2b62f86"",""projectId"":""a9f3d40c-5730-405c-b25e-1034c4c56f3f""}","https://test12345.live/?num_scrambled_semantic=8&num_scrambled_causal=4&num_scrambled_schematic=4&participantId=2D9786E199F44AAC9ACE66F0BA86C347&assignmentId=ac03e295-b2fc-48b6-ba89-4585c2b62f86&projectId=a9f3d40c-5730-405c-b25e-1034c4c56f3f","2D9786E199F44AAC9ACE66F0BA86C347-2025-08-07-19-18-04","","null","","[]","null","",""
"","","","","","image-button-response","31","164786","0.0-10.0-1.0-0.2","2D9786E199F44AAC9ACE66F0BA86C347","2D9786E199F44AAC9ACE66F0BA86C347","ac03e295-b2fc-48b6-ba89-4585c2b62f86","a9f3d40c-5730-405c-b25e-1034c4c56f3f","{""num_scrambled_semantic"":""8"",""num_scrambled_causal"":""4"",""num_scrambled_schematic"":""4"",""participantId"":""2D9786E199F44AAC9ACE66F0BA86C347"",""assignmentId"":""ac03e295-b2fc-48b6-ba89-4585c2b62f86"",""projectId"":""a9f3d40c-5730-405c-b25e-1034c4c56f3f""}","https://test12345.live/?num_scrambled_semantic=8&num_scrambled_causal=4&num_scrambled_schematic=4&participantId=2D9786E199F44AAC9ACE66F0BA86C347&assignmentId=ac03e295-b2fc-48b6-ba89-4585c2b62f86&projectId=a9f3d40c-5730-405c-b25e-1034c4c56f3f","2D9786E199F44AAC9ACE66F0BA86C347-2025-08-07-19-18-04","","null","","images/semantic_sequence/housework_semantic/housework_semantic_2.png","null","",""
"","","","","","image-button-response","32","165739","0.0-10.0-1.0-1.2","2D9786E199F44AAC9ACE66F0BA86C347","2D9786E199F44AAC9ACE66F0BA86C347","ac03e295-b2fc-48b6-ba89-4585c2b62f86","a9f3d40c-5730-405c-b25e-1034c4c56f3f","{""num_scrambled_semantic"":""8"",""num_scrambled_causal"":""4"",""num_scrambled_schematic"":""4"",""participantId"":""2D9786E199F44AAC9ACE66F0BA86C347"",""assignmentId"":""ac03e295-b2fc-48b6-ba89-4585c2b62f86"",""projectId"":""a9f3d40c-5730-405c-b25e-1034c4c56f3f""}","https://test12345.live/?num_scrambled_semantic=8&num_scrambled_causal=4&num_scrambled_schematic=4&participantId=2D9786E199F44AAC9ACE66F0BA86C347&assignmentId=ac03e295-b2fc-48b6-ba89-4585c2b62f86&projectId=a9f3d40c-5730-405c-b25e-1034c4c56f3f","2D9786E199F44AAC9ACE66F0BA86C347-2025-08-07-19-18-04","","950","","images/semantic_sequence/housework_semantic/housework_semantic_2.png","0","",""
"","","","","","image-button-response","33","167546","0.0-10.0-1.0-2.2","2D9786E199F44AAC9ACE66F0BA86C347","2D9786E199F44AAC9ACE66F0BA86C347","ac03e295-b2fc-48b6-ba89-4585c2b62f86","a9f3d40c-5730-405c-b25e-1034c4c56f3f","{""num_scrambled_semantic"":""8"",""num_scrambled_causal"":""4"",""num_scrambled_schematic"":""4"",""participantId"":""2D9786E199F44AAC9ACE66F0BA86C347"",""assignmentId"":""ac03e295-b2fc-48b6-ba89-4585c2b62f86"",""projectId"":""a9f3d40c-5730-405c-b25e-1034c4c56f3f""}","https://test12345.live/?num_scrambled_semantic=8&num_scrambled_causal=4&num_scrambled_schematic=4&participantId=2D9786E199F44AAC9ACE66F0BA86C347&assignmentId=ac03e295-b2fc-48b6-ba89-4585c2b62f86&projectId=a9f3d40c-5730-405c-b25e-1034c4c56f3f","2D9786E199F44AAC9ACE66F0BA86C347-2025-08-07-19-18-04","","null","","[]","null","",""
"","","","","","image-button-response","34","172052","0.0-10.0-1.0-0.3","2D9786E199F44AAC9ACE66F0BA86C347","2D9786E199F44AAC9ACE66F0BA86C347","ac03e295-b2fc-48b6-ba89-4585c2b62f86","a9f3d40c-5730-405c-b25e-1034c4c56f3f","{""num_scrambled_semantic"":""8"",""num_scrambled_causal"":""4"",""num_scrambled_schematic"":""4"",""participantId"":""2D9786E199F44AAC9ACE66F0BA86C347"",""assignmentId"":""ac03e295-b2fc-48b6-ba89-4585c2b62f86"",""projectId"":""a9f3d40c-5730-405c-b25e-1034c4c56f3f""}","https://test12345.live/?num_scrambled_semantic=8&num_scrambled_causal=4&num_scrambled_schematic=4&participantId=2D9786E199F44AAC9ACE66F0BA86C347&assignmentId=ac03e295-b2fc-48b6-ba89-4585c2b62f86&projectId=a9f3d40c-5730-405c-b25e-1034c4c56f3f","2D9786E199F44AAC9ACE66F0BA86C347-2025-08-07-19-18-04","","null","","images/semantic_sequence/housework_semantic/housework_semantic_1.png","null","",""
"","","","","","image-button-response","35","174249","0.0-10.0-1.0-1.3","2D9786E199F44AAC9ACE66F0BA86C347","2D9786E199F44AAC9ACE66F0BA86C347","ac03e295-b2fc-48b6-ba89-4585c2b62f86","a9f3d40c-5730-405c-b25e-1034c4c56f3f","{""num_scrambled_semantic"":""8"",""num_scrambled_causal"":""4"",""num_scrambled_schematic"":""4"",""participantId"":""2D9786E199F44AAC9ACE66F0BA86C347"",""assignmentId"":""ac03e295-b2fc-48b6-ba89-4585c2b62f86"",""projectId"":""a9f3d40c-5730-405c-b25e-1034c4c56f3f""}","https://test12345.live/?num_scrambled_semantic=8&num_scrambled_causal=4&num_scrambled_schematic=4&participantId=2D9786E199F44AAC9ACE66F0BA86C347&assignmentId=ac03e295-b2fc-48b6-ba89-4585c2b62f86&projectId=a9f3d40c-5730-405c-b25e-1034c4c56f3f","2D9786E199F44AAC9ACE66F0BA86C347-2025-08-07-19-18-04","","2194","","images/semantic_sequence/housework_semantic/housework_semantic_1.png","1","",""
"","","","","","image-button-response","36","176058","0.0-10.0-1.0-2.3","2D9786E199F44AAC9ACE66F0BA86C347","2D9786E199F44AAC9ACE66F0BA86C347","ac03e295-b2fc-48b6-ba89-4585c2b62f86","a9f3d40c-5730-405c-b25e-1034c4c56f3f","{""num_scrambled_semantic"":""8"",""num_scrambled_causal"":""4"",""num_scrambled_schematic"":""4"",""participantId"":""2D9786E199F44AAC9ACE66F0BA86C347"",""assignmentId"":""ac03e295-b2fc-48b6-ba89-4585c2b62f86"",""projectId"":""a9f3d40c-5730-405c-b25e-1034c4c56f3f""}","https://test12345.live/?num_scrambled_semantic=8&num_scrambled_causal=4&num_scrambled_schematic=4&participantId=2D9786E199F44AAC9ACE66F0BA86C347&assignmentId=ac03e295-b2fc-48b6-ba89-4585c2b62f86&projectId=a9f3d40c-5730-405c-b25e-1034c4c56f3f","2D9786E199F44AAC9ACE66F0BA86C347-2025-08-07-19-18-04","","null","","[]","null","",""
"","","","","","image-button-response","37","180566","0.0-10.0-1.0-0.4","2D9786E199F44AAC9ACE66F0BA86C347","2D9786E199F44AAC9ACE66F0BA86C347","ac03e295-b2fc-48b6-ba89-4585c2b62f86","a9f3d40c-5730-405c-b25e-1034c4c56f3f","{""num_scrambled_semantic"":""8"",""num_scrambled_causal"":""4"",""num_scrambled_schematic"":""4"",""participantId"":""2D9786E199F44AAC9ACE66F0BA86C347"",""assignmentId"":""ac03e295-b2fc-48b6-ba89-4585c2b62f86"",""projectId"":""a9f3d40c-5730-405c-b25e-1034c4c56f3f""}","https://test12345.live/?num_scrambled_semantic=8&num_scrambled_causal=4&num_scrambled_schematic=4&participantId=2D9786E199F44AAC9ACE66F0BA86C347&assignmentId=ac03e295-b2fc-48b6-ba89-4585c2b62f86&projectId=a9f3d40c-5730-405c-b25e-1034c4c56f3f","2D9786E199F44AAC9ACE66F0BA86C347-2025-08-07-19-18-04","","null","","images/semantic_sequence/housework_semantic/housework_semantic_6.png","null","",""
"","","","","","image-button-response","38","183777","0.0-10.0-1.0-1.4","2D9786E199F44AAC9ACE66F0BA86C347","2D9786E199F44AAC9ACE66F0BA86C347","ac03e295-b2fc-48b6-ba89-4585c2b62f86","a9f3d40c-5730-405c-b25e-1034c4c56f3f","{""num_scrambled_semantic"":""8"",""num_scrambled_causal"":""4"",""num_scrambled_schematic"":""4"",""participantId"":""2D9786E199F44AAC9ACE66F0BA86C347"",""assignmentId"":""ac03e295-b2fc-48b6-ba89-4585c2b62f86"",""projectId"":""a9f3d40c-5730-405c-b25e-1034c4c56f3f""}","https://test12345.live/?num_scrambled_semantic=8&num_scrambled_causal=4&num_scrambled_schematic=4&participantId=2D9786E199F44AAC9ACE66F0BA86C347&assignmentId=ac03e295-b2fc-48b6-ba89-4585c2b62f86&projectId=a9f3d40c-5730-405c-b25e-1034c4c56f3f","2D9786E199F44AAC9ACE66F0BA86C347-2025-08-07-19-18-04","","3207","","images/semantic_sequence/housework_semantic/housework_semantic_6.png","0","",""
"","","","","","image-button-response","39","185586","0.0-10.0-1.0-2.4","2D9786E199F44AAC9ACE66F0BA86C347","2D9786E199F44AAC9ACE66F0BA86C347","ac03e295-b2fc-48b6-ba89-4585c2b62f86","a9f3d40c-5730-405c-b25e-1034c4c56f3f","{""num_scrambled_semantic"":""8"",""num_scrambled_causal"":""4"",""num_scrambled_schematic"":""4"",""participantId"":""2D9786E199F44AAC9ACE66F0BA86C347"",""assignmentId"":""ac03e295-b2fc-48b6-ba89-4585c2b62f86"",""projectId"":""a9f3d40c-5730-405c-b25e-1034c4c56f3f""}","https://test12345.live/?num_scrambled_semantic=8&num_scrambled_causal=4&num_scrambled_schematic=4&participantId=2D9786E199F44AAC9ACE66F0BA86C347&assignmentId=ac03e295-b2fc-48b6-ba89-4585c2b62f86&projectId=a9f3d40c-5730-405c-b25e-1034c4c56f3f","2D9786E199F44AAC9ACE66F0BA86C347-2025-08-07-19-18-04","","null","","[]","null","",""
"","","","","","image-button-response","40","190092","0.0-10.0-1.0-0.5","2D9786E199F44AAC9ACE66F0BA86C347","2D9786E199F44AAC9ACE66F0BA86C347","ac03e295-b2fc-48b6-ba89-4585c2b62f86","a9f3d40c-5730-405c-b25e-1034c4c56f3f","{""num_scrambled_semantic"":""8"",""num_scrambled_causal"":""4"",""num_scrambled_schematic"":""4"",""participantId"":""2D9786E199F44AAC9ACE66F0BA86C347"",""assignmentId"":""ac03e295-b2fc-48b6-ba89-4585c2b62f86"",""projectId"":""a9f3d40c-5730-405c-b25e-1034c4c56f3f""}","https://test12345.live/?num_scrambled_semantic=8&num_scrambled_causal=4&num_scrambled_schematic=4&participantId=2D9786E199F44AAC9ACE66F0BA86C347&assignmentId=ac03e295-b2fc-48b6-ba89-4585c2b62f86&projectId=a9f3d40c-5730-405c-b25e-1034c4c56f3f","2D9786E199F44AAC9ACE66F0BA86C347-2025-08-07-19-18-04","","null","","images/semantic_sequence/housework_semantic/housework_semantic_9.png","null","",""
"","","","","","image-button-response","41","191098","0.0-10.0-1.0-1.5","2D9786E199F44AAC9ACE66F0BA86C347","2D9786E199F44AAC9ACE66F0BA86C347","ac03e295-b2fc-48b6-ba89-4585c2b62f86","a9f3d40c-5730-405c-b25e-1034c4c56f3f","{""num_scrambled_semantic"":""8"",""num_scrambled_causal"":""4"",""num_scrambled_schematic"":""4"",""participantId"":""2D9786E199F44AAC9ACE66F0BA86C347"",""assignmentId"":""ac03e295-b2fc-48b6-ba89-4585c2b62f86"",""projectId"":""a9f3d40c-5730-405c-b25e-1034c4c56f3f""}","https://test12345.live/?num_scrambled_semantic=8&num_scrambled_causal=4&num_scrambled_schematic=4&participantId=2D9786E199F44AAC9ACE66F0BA86C347&assignmentId=ac03e295-b2fc-48b6-ba89-4585c2b62f86&projectId=a9f3d40c-5730-405c-b25e-1034c4c56f3f","2D9786E199F44AAC9ACE66F0BA86C347-2025-08-07-19-18-04","","1003","","images/semantic_sequence/housework_semantic/housework_semantic_9.png","0","",""
"","","","","","image-button-response","42","192906","0.0-10.0-1.0-2.5","2D9786E199F44AAC9ACE66F0BA86C347","2D9786E199F44AAC9ACE66F0BA86C347","ac03e295-b2fc-48b6-ba89-4585c2b62f86","a9f3d40c-5730-405c-b25e-1034c4c56f3f","{""num_scrambled_semantic"":""8"",""num_scrambled_causal"":""4"",""num_scrambled_schematic"":""4"",""participantId"":""2D9786E199F44AAC9ACE66F0BA86C347"",""assignmentId"":""ac03e295-b2fc-48b6-ba89-4585c2b62f86"",""projectId"":""a9f3d40c-5730-405c-b25e-1034c4c56f3f""}","https://test12345.live/?num_scrambled_semantic=8&num_scrambled_causal=4&num_scrambled_schematic=4&participantId=2D9786E199F44AAC9ACE66F0BA86C347&assignmentId=ac03e295-b2fc-48b6-ba89-4585c2b62f86&projectId=a9f3d40c-5730-405c-b25e-1034c4c56f3f","2D9786E199F44AAC9ACE66F0BA86C347-2025-08-07-19-18-04","","null","","[]","null","",""
"","","","","","image-button-response","43","197412","0.0-10.0-1.0-0.6","2D9786E199F44AAC9ACE66F0BA86C347","2D9786E199F44AAC9ACE66F0BA86C347","ac03e295-b2fc-48b6-ba89-4585c2b62f86","a9f3d40c-5730-405c-b25e-1034c4c56f3f","{""num_scrambled_semantic"":""8"",""num_scrambled_causal"":""4"",""num_scrambled_schematic"":""4"",""participantId"":""2D9786E199F44AAC9ACE66F0BA86C347"",""assignmentId"":""ac03e295-b2fc-48b6-ba89-4585c2b62f86"",""projectId"":""a9f3d40c-5730-405c-b25e-1034c4c56f3f""}","https://test12345.live/?num_scrambled_semantic=8&num_scrambled_causal=4&num_scrambled_schematic=4&participantId=2D9786E199F44AAC9ACE66F0BA86C347&assignmentId=ac03e295-b2fc-48b6-ba89-4585c2b62f86&projectId=a9f3d40c-5730-405c-b25e-1034c4c56f3f","2D9786E199F44AAC9ACE66F0BA86C347-2025-08-07-19-18-04","","null","","images/semantic_sequence/housework_semantic/housework_semantic_7.png","null","",""
"","","","","","image-button-response","44","198216","0.0-10.0-1.0-1.6","2D9786E199F44AAC9ACE66F0BA86C347","2D9786E199F44AAC9ACE66F0BA86C347","ac03e295-b2fc-48b6-ba89-4585c2b62f86","a9f3d40c-5730-405c-b25e-1034c4c56f3f","{""num_scrambled_semantic"":""8"",""num_scrambled_causal"":""4"",""num_scrambled_schematic"":""4"",""participantId"":""2D9786E199F44AAC9ACE66F0BA86C347"",""assignmentId"":""ac03e295-b2fc-48b6-ba89-4585c2b62f86"",""projectId"":""a9f3d40c-5730-405c-b25e-1034c4c56f3f""}","https://test12345.live/?num_scrambled_semantic=8&num_scrambled_causal=4&num_scrambled_schematic=4&participantId=2D9786E199F44AAC9ACE66F0BA86C347&assignmentId=ac03e295-b2fc-48b6-ba89-4585c2b62f86&projectId=a9f3d40c-5730-405c-b25e-1034c4c56f3f","2D9786E199F44AAC9ACE66F0BA86C347-2025-08-07-19-18-04","","802","","images/semantic_sequence/housework_semantic/housework_semantic_7.png","0","",""
"","","","","","image-button-response","45","200023","0.0-10.0-1.0-2.6","2D9786E199F44AAC9ACE66F0BA86C347","2D9786E199F44AAC9ACE66F0BA86C347","ac03e295-b2fc-48b6-ba89-4585c2b62f86","a9f3d40c-5730-405c-b25e-1034c4c56f3f","{""num_scrambled_semantic"":""8"",""num_scrambled_causal"":""4"",""num_scrambled_schematic"":""4"",""participantId"":""2D9786E199F44AAC9ACE66F0BA86C347"",""assignmentId"":""ac03e295-b2fc-48b6-ba89-4585c2b62f86"",""projectId"":""a9f3d40c-5730-405c-b25e-1034c4c56f3f""}","https://test12345.live/?num_scrambled_semantic=8&num_scrambled_causal=4&num_scrambled_schematic=4&participantId=2D9786E199F44AAC9ACE66F0BA86C347&assignmentId=ac03e295-b2fc-48b6-ba89-4585c2b62f86&projectId=a9f3d40c-5730-405c-b25e-1034c4c56f3f","2D9786E199F44AAC9ACE66F0BA86C347-2025-08-07-19-18-04","","null","","[]","null","",""
"","","","","","image-button-response","46","204531","0.0-10.0-1.0-0.7","2D9786E199F44AAC9ACE66F0BA86C347","2D9786E199F44AAC9ACE66F0BA86C347","ac03e295-b2fc-48b6-ba89-4585c2b62f86","a9f3d40c-5730-405c-b25e-1034c4c56f3f","{""num_scrambled_semantic"":""8"",""num_scrambled_causal"":""4"",""num_scrambled_schematic"":""4"",""participantId"":""2D9786E199F44AAC9ACE66F0BA86C347"",""assignmentId"":""ac03e295-b2fc-48b6-ba89-4585c2b62f86"",""projectId"":""a9f3d40c-5730-405c-b25e-1034c4c56f3f""}","https://test12345.live/?num_scrambled_semantic=8&num_scrambled_causal=4&num_scrambled_schematic=4&participantId=2D9786E199F44AAC9ACE66F0BA86C347&assignmentId=ac03e295-b2fc-48b6-ba89-4585c2b62f86&projectId=a9f3d40c-5730-405c-b25e-1034c4c56f3f","2D9786E199F44AAC9ACE66F0BA86C347-2025-08-07-19-18-04","","null","","images/semantic_sequence/housework_semantic/housework_semantic_4.png","null","",""
"","","","","","image-button-response","47","205746","0.0-10.0-1.0-1.7","2D9786E199F44AAC9ACE66F0BA86C347","2D9786E199F44AAC9ACE66F0BA86C347","ac03e295-b2fc-48b6-ba89-4585c2b62f86","a9f3d40c-5730-405c-b25e-1034c4c56f3f","{""num_scrambled_semantic"":""8"",""num_scrambled_causal"":""4"",""num_scrambled_schematic"":""4"",""participantId"":""2D9786E199F44AAC9ACE66F0BA86C347"",""assignmentId"":""ac03e295-b2fc-48b6-ba89-4585c2b62f86"",""projectId"":""a9f3d40c-5730-405c-b25e-1034c4c56f3f""}","https://test12345.live/?num_scrambled_semantic=8&num_scrambled_causal=4&num_scrambled_schematic=4&participantId=2D9786E199F44AAC9ACE66F0BA86C347&assignmentId=ac03e295-b2fc-48b6-ba89-4585c2b62f86&projectId=a9f3d40c-5730-405c-b25e-1034c4c56f3f","2D9786E199F44AAC9ACE66F0BA86C347-2025-08-07-19-18-04","","1209","","images/semantic_sequence/housework_semantic/housework_semantic_4.png","0","",""
"","","","","","image-button-response","48","207551","0.0-10.0-1.0-2.7","2D9786E199F44AAC9ACE66F0BA86C347","2D9786E199F44AAC9ACE66F0BA86C347","ac03e295-b2fc-48b6-ba89-4585c2b62f86","a9f3d40c-5730-405c-b25e-1034c4c56f3f","{""num_scrambled_semantic"":""8"",""num_scrambled_causal"":""4"",""num_scrambled_schematic"":""4"",""participantId"":""2D9786E199F44AAC9ACE66F0BA86C347"",""assignmentId"":""ac03e295-b2fc-48b6-ba89-4585c2b62f86"",""projectId"":""a9f3d40c-5730-405c-b25e-1034c4c56f3f""}","https://test12345.live/?num_scrambled_semantic=8&num_scrambled_causal=4&num_scrambled_schematic=4&participantId=2D9786E199F44AAC9ACE66F0BA86C347&assignmentId=ac03e295-b2fc-48b6-ba89-4585c2b62f86&projectId=a9f3d40c-5730-405c-b25e-1034c4c56f3f","2D9786E199F44AAC9ACE66F0BA86C347-2025-08-07-19-18-04","","null","","[]","null","",""
"","","","","","image-button-response","49","212056","0.0-10.0-1.0-0.8","2D9786E199F44AAC9ACE66F0BA86C347","2D9786E199F44AAC9ACE66F0BA86C347","ac03e295-b2fc-48b6-ba89-4585c2b62f86","a9f3d40c-5730-405c-b25e-1034c4c56f3f","{""num_scrambled_semantic"":""8"",""num_scrambled_causal"":""4"",""num_scrambled_schematic"":""4"",""participantId"":""2D9786E199F44AAC9ACE66F0BA86C347"",""assignmentId"":""ac03e295-b2fc-48b6-ba89-4585c2b62f86"",""projectId"":""a9f3d40c-5730-405c-b25e-1034c4c56f3f""}","https://test12345.live/?num_scrambled_semantic=8&num_scrambled_causal=4&num_scrambled_schematic=4&participantId=2D9786E199F44AAC9ACE66F0BA86C347&assignmentId=ac03e295-b2fc-48b6-ba89-4585c2b62f86&projectId=a9f3d40c-5730-405c-b25e-1034c4c56f3f","2D9786E199F44AAC9ACE66F0BA86C347-2025-08-07-19-18-04","","null","","images/semantic_sequence/housework_semantic/housework_semantic_8.png","null","",""
"","","","","","image-button-response","50","212889","0.0-10.0-1.0-1.8","2D9786E199F44AAC9ACE66F0BA86C347","2D9786E199F44AAC9ACE66F0BA86C347","ac03e295-b2fc-48b6-ba89-4585c2b62f86","a9f3d40c-5730-405c-b25e-1034c4c56f3f","{""num_scrambled_semantic"":""8"",""num_scrambled_causal"":""4"",""num_scrambled_schematic"":""4"",""participantId"":""2D9786E199F44AAC9ACE66F0BA86C347"",""assignmentId"":""ac03e295-b2fc-48b6-ba89-4585c2b62f86"",""projectId"":""a9f3d40c-5730-405c-b25e-1034c4c56f3f""}","https://test12345.live/?num_scrambled_semantic=8&num_scrambled_causal=4&num_scrambled_schematic=4&participantId=2D9786E199F44AAC9ACE66F0BA86C347&assignmentId=ac03e295-b2fc-48b6-ba89-4585c2b62f86&projectId=a9f3d40c-5730-405c-b25e-1034c4c56f3f","2D9786E199F44AAC9ACE66F0BA86C347-2025-08-07-19-18-04","","830","","images/semantic_sequence/housework_semantic/housework_semantic_8.png","0","",""
"","","","","","image-button-response","51","214697","0.0-10.0-1.0-2.8","2D9786E199F44AAC9ACE66F0BA86C347","2D9786E199F44AAC9ACE66F0BA86C347","ac03e295-b2fc-48b6-ba89-4585c2b62f86","a9f3d40c-5730-405c-b25e-1034c4c56f3f","{""num_scrambled_semantic"":""8"",""num_scrambled_causal"":""4"",""num_scrambled_schematic"":""4"",""participantId"":""2D9786E199F44AAC9ACE66F0BA86C347"",""assignmentId"":""ac03e295-b2fc-48b6-ba89-4585c2b62f86"",""projectId"":""a9f3d40c-5730-405c-b25e-1034c4c56f3f""}","https://test12345.live/?num_scrambled_semantic=8&num_scrambled_causal=4&num_scrambled_schematic=4&participantId=2D9786E199F44AAC9ACE66F0BA86C347&assignmentId=ac03e295-b2fc-48b6-ba89-4585c2b62f86&projectId=a9f3d40c-5730-405c-b25e-1034c4c56f3f","2D9786E199F44AAC9ACE66F0BA86C347-2025-08-07-19-18-04","","null","","[]","null","",""
"","","","","","image-button-response","52","219201","0.0-10.0-1.0-0.9","2D9786E199F44AAC9ACE66F0BA86C347","2D9786E199F44AAC9ACE66F0BA86C347","ac03e295-b2fc-48b6-ba89-4585c2b62f86","a9f3d40c-5730-405c-b25e-1034c4c56f3f","{""num_scrambled_semantic"":""8"",""num_scrambled_causal"":""4"",""num_scrambled_schematic"":""4"",""participantId"":""2D9786E199F44AAC9ACE66F0BA86C347"",""assignmentId"":""ac03e295-b2fc-48b6-ba89-4585c2b62f86"",""projectId"":""a9f3d40c-5730-405c-b25e-1034c4c56f3f""}","https://test12345.live/?num_scrambled_semantic=8&num_scrambled_causal=4&num_scrambled_schematic=4&participantId=2D9786E199F44AAC9ACE66F0BA86C347&assignmentId=ac03e295-b2fc-48b6-ba89-4585c2b62f86&projectId=a9f3d40c-5730-405c-b25e-1034c4c56f3f","2D9786E199F44AAC9ACE66F0BA86C347-2025-08-07-19-18-04","","null","","images/semantic_sequence/housework_semantic/housework_semantic_5.png","null","",""
"","","","","","image-button-response","53","220301","0.0-10.0-1.0-1.9","2D9786E199F44AAC9ACE66F0BA86C347","2D9786E199F44AAC9ACE66F0BA86C347","ac03e295-b2fc-48b6-ba89-4585c2b62f86","a9f3d40c-5730-405c-b25e-1034c4c56f3f","{""num_scrambled_semantic"":""8"",""num_scrambled_causal"":""4"",""num_scrambled_schematic"":""4"",""participantId"":""2D9786E199F44AAC9ACE66F0BA86C347"",""assignmentId"":""ac03e295-b2fc-48b6-ba89-4585c2b62f86"",""projectId"":""a9f3d40c-5730-405c-b25e-1034c4c56f3f""}","https://test12345.live/?num_scrambled_semantic=8&num_scrambled_causal=4&num_scrambled_schematic=4&participantId=2D9786E199F44AAC9ACE66F0BA86C347&assignmentId=ac03e295-b2fc-48b6-ba89-4585c2b62f86&projectId=a9f3d40c-5730-405c-b25e-1034c4c56f3f","2D9786E199F44AAC9ACE66F0BA86C347-2025-08-07-19-18-04","","1097","","images/semantic_sequence/housework_semantic/housework_semantic_5.png","0","",""
"","","","","","image-button-response","54","222108","0.0-10.0-1.0-2.9","2D9786E199F44AAC9ACE66F0BA86C347","2D9786E199F44AAC9ACE66F0BA86C347","ac03e295-b2fc-48b6-ba89-4585c2b62f86","a9f3d40c-5730-405c-b25e-1034c4c56f3f","{""num_scrambled_semantic"":""8"",""num_scrambled_causal"":""4"",""num_scrambled_schematic"":""4"",""participantId"":""2D9786E199F44AAC9ACE66F0BA86C347"",""assignmentId"":""ac03e295-b2fc-48b6-ba89-4585c2b62f86"",""projectId"":""a9f3d40c-5730-405c-b25e-1034c4c56f3f""}","https://test12345.live/?num_scrambled_semantic=8&num_scrambled_causal=4&num_scrambled_schematic=4&participantId=2D9786E199F44AAC9ACE66F0BA86C347&assignmentId=ac03e295-b2fc-48b6-ba89-4585c2b62f86&projectId=a9f3d40c-5730-405c-b25e-1034c4c56f3f","2D9786E199F44AAC9ACE66F0BA86C347-2025-08-07-19-18-04","","null","","[]","null","",""
"","","","","","html-audio-response","55","240352","0.0-11.0","2D9786E199F44AAC9ACE66F0BA86C347","2D9786E199F44AAC9ACE66F0BA86C347","ac03e295-b2fc-48b6-ba89-4585c2b62f86","a9f3d40c-5730-405c-b25e-1034c4c56f3f","{""num_scrambled_semantic"":""8"",""num_scrambled_causal"":""4"",""num_scrambled_schematic"":""4"",""participantId"":""2D9786E199F44AAC9ACE66F0BA86C347"",""assignmentId"":""ac03e295-b2fc-48b6-ba89-4585c2b62f86"",""projectId"":""a9f3d40c-5730-405c-b25e-1034c4c56f3f""}","https://test12345.live/?num_scrambled_semantic=8&num_scrambled_causal=4&num_scrambled_schematic=4&participantId=2D9786E199F44AAC9ACE66F0BA86C347&assignmentId=ac03e295-b2fc-48b6-ba89-4585c2b62f86&projectId=a9f3d40c-5730-405c-b25e-1034c4c56f3f","2D9786E199F44AAC9ACE66F0BA86C347-2025-08-07-19-18-04","","17138","","[""<span style=\""color: red; font-size: 24px\""> NOW RECORDING</span><p>Please say out loud all the images you saw, as many as you can remember. The images can be said in any order.</p>""]","","3","housework_semantic"
"","","","","","image-button-response","56","246360","0.0-12.0-0.0","2D9786E199F44AAC9ACE66F0BA86C347","2D9786E199F44AAC9ACE66F0BA86C347","ac03e295-b2fc-48b6-ba89-4585c2b62f86","a9f3d40c-5730-405c-b25e-1034c4c56f3f","{""num_scrambled_semantic"":""8"",""num_scrambled_causal"":""4"",""num_scrambled_schematic"":""4"",""participantId"":""2D9786E199F44AAC9ACE66F0BA86C347"",""assignmentId"":""ac03e295-b2fc-48b6-ba89-4585c2b62f86"",""projectId"":""a9f3d40c-5730-405c-b25e-1034c4c56f3f""}","https://test12345.live/?num_scrambled_semantic=8&num_scrambled_causal=4&num_scrambled_schematic=4&participantId=2D9786E199F44AAC9ACE66F0BA86C347&assignmentId=ac03e295-b2fc-48b6-ba89-4585c2b62f86&projectId=a9f3d40c-5730-405c-b25e-1034c4c56f3f","2D9786E199F44AAC9ACE66F0BA86C347-2025-08-07-19-18-04","","null","","images/semantic_sequence/physical_activity_semantic/physical_activity_semantic_0.png","null","",""
"","","","","","image-button-response","57","250865","0.0-12.0-1.0-0.0","2D9786E199F44AAC9ACE66F0BA86C347","2D9786E199F44AAC9ACE66F0BA86C347","ac03e295-b2fc-48b6-ba89-4585c2b62f86","a9f3d40c-5730-405c-b25e-1034c4c56f3f","{""num_scrambled_semantic"":""8"",""num_scrambled_causal"":""4"",""num_scrambled_schematic"":""4"",""participantId"":""2D9786E199F44AAC9ACE66F0BA86C347"",""assignmentId"":""ac03e295-b2fc-48b6-ba89-4585c2b62f86"",""projectId"":""a9f3d40c-5730-405c-b25e-1034c4c56f3f""}","https://test12345.live/?num_scrambled_semantic=8&num_scrambled_causal=4&num_scrambled_schematic=4&participantId=2D9786E199F44AAC9ACE66F0BA86C347&assignmentId=ac03e295-b2fc-48b6-ba89-4585c2b62f86&projectId=a9f3d40c-5730-405c-b25e-1034c4c56f3f","2D9786E199F44AAC9ACE66F0BA86C347-2025-08-07-19-18-04","","null","","images/semantic_sequence/physical_activity_semantic/physical_activity_semantic_ten.png","null","",""
"","","","","","image-button-response","58","251405","0.0-12.0-1.0-1.0","2D9786E199F44AAC9ACE66F0BA86C347","2D9786E199F44AAC9ACE66F0BA86C347","ac03e295-b2fc-48b6-ba89-4585c2b62f86","a9f3d40c-5730-405c-b25e-1034c4c56f3f","{""num_scrambled_semantic"":""8"",""num_scrambled_causal"":""4"",""num_scrambled_schematic"":""4"",""participantId"":""2D9786E199F44AAC9ACE66F0BA86C347"",""assignmentId"":""ac03e295-b2fc-48b6-ba89-4585c2b62f86"",""projectId"":""a9f3d40c-5730-405c-b25e-1034c4c56f3f""}","https://test12345.live/?num_scrambled_semantic=8&num_scrambled_causal=4&num_scrambled_schematic=4&participantId=2D9786E199F44AAC9ACE66F0BA86C347&assignmentId=ac03e295-b2fc-48b6-ba89-4585c2b62f86&projectId=a9f3d40c-5730-405c-b25e-1034c4c56f3f","2D9786E199F44AAC9ACE66F0BA86C347-2025-08-07-19-18-04","","537","","images/semantic_sequence/physical_activity_semantic/physical_activity_semantic_ten.png","0","",""
"","","","","","image-button-response","59","253211","0.0-12.0-1.0-2.0","2D9786E199F44AAC9ACE66F0BA86C347","2D9786E199F44AAC9ACE66F0BA86C347","ac03e295-b2fc-48b6-ba89-4585c2b62f86","a9f3d40c-5730-405c-b25e-1034c4c56f3f","{""num_scrambled_semantic"":""8"",""num_scrambled_causal"":""4"",""num_scrambled_schematic"":""4"",""participantId"":""2D9786E199F44AAC9ACE66F0BA86C347"",""assignmentId"":""ac03e295-b2fc-48b6-ba89-4585c2b62f86"",""projectId"":""a9f3d40c-5730-405c-b25e-1034c4c56f3f""}","https://test12345.live/?num_scrambled_semantic=8&num_scrambled_causal=4&num_scrambled_schematic=4&participantId=2D9786E199F44AAC9ACE66F0BA86C347&assignmentId=ac03e295-b2fc-48b6-ba89-4585c2b62f86&projectId=a9f3d40c-5730-405c-b25e-1034c4c56f3f","2D9786E199F44AAC9ACE66F0BA86C347-2025-08-07-19-18-04","","null","","[]","null","",""
"","","","","","image-button-response","60","257716","0.0-12.0-1.0-0.1","2D9786E199F44AAC9ACE66F0BA86C347","2D9786E199F44AAC9ACE66F0BA86C347","ac03e295-b2fc-48b6-ba89-4585c2b62f86","a9f3d40c-5730-405c-b25e-1034c4c56f3f","{""num_scrambled_semantic"":""8"",""num_scrambled_causal"":""4"",""num_scrambled_schematic"":""4"",""participantId"":""2D9786E199F44AAC9ACE66F0BA86C347"",""assignmentId"":""ac03e295-b2fc-48b6-ba89-4585c2b62f86"",""projectId"":""a9f3d40c-5730-405c-b25e-1034c4c56f3f""}","https://test12345.live/?num_scrambled_semantic=8&num_scrambled_causal=4&num_scrambled_schematic=4&participantId=2D9786E199F44AAC9ACE66F0BA86C347&assignmentId=ac03e295-b2fc-48b6-ba89-4585c2b62f86&projectId=a9f3d40c-5730-405c-b25e-1034c4c56f3f","2D9786E199F44AAC9ACE66F0BA86C347-2025-08-07-19-18-04","","null","","images/semantic_sequence/physical_activity_semantic/physical_activity_semantic_6.png","null","",""
"","","","","","image-button-response","61","258322","0.0-12.0-1.0-1.1","2D9786E199F44AAC9ACE66F0BA86C347","2D9786E199F44AAC9ACE66F0BA86C347","ac03e295-b2fc-48b6-ba89-4585c2b62f86","a9f3d40c-5730-405c-b25e-1034c4c56f3f","{""num_scrambled_semantic"":""8"",""num_scrambled_causal"":""4"",""num_scrambled_schematic"":""4"",""participantId"":""2D9786E199F44AAC9ACE66F0BA86C347"",""assignmentId"":""ac03e295-b2fc-48b6-ba89-4585c2b62f86"",""projectId"":""a9f3d40c-5730-405c-b25e-1034c4c56f3f""}","https://test12345.live/?num_scrambled_semantic=8&num_scrambled_causal=4&num_scrambled_schematic=4&participantId=2D9786E199F44AAC9ACE66F0BA86C347&assignmentId=ac03e295-b2fc-48b6-ba89-4585c2b62f86&projectId=a9f3d40c-5730-405c-b25e-1034c4c56f3f","2D9786E199F44AAC9ACE66F0BA86C347-2025-08-07-19-18-04","","602","","images/semantic_sequence/physical_activity_semantic/physical_activity_semantic_6.png","0","",""
"","","","","","image-button-response","62","260125","0.0-12.0-1.0-2.1","2D9786E199F44AAC9ACE66F0BA86C347","2D9786E199F44AAC9ACE66F0BA86C347","ac03e295-b2fc-48b6-ba89-4585c2b62f86","a9f3d40c-5730-405c-b25e-1034c4c56f3f","{""num_scrambled_semantic"":""8"",""num_scrambled_causal"":""4"",""num_scrambled_schematic"":""4"",""participantId"":""2D9786E199F44AAC9ACE66F0BA86C347"",""assignmentId"":""ac03e295-b2fc-48b6-ba89-4585c2b62f86"",""projectId"":""a9f3d40c-5730-405c-b25e-1034c4c56f3f""}","https://test12345.live/?num_scrambled_semantic=8&num_scrambled_causal=4&num_scrambled_schematic=4&participantId=2D9786E199F44AAC9ACE66F0BA86C347&assignmentId=ac03e295-b2fc-48b6-ba89-4585c2b62f86&projectId=a9f3d40c-5730-405c-b25e-1034c4c56f3f","2D9786E199F44AAC9ACE66F0BA86C347-2025-08-07-19-18-04","","null","","[]","null","",""
"","","","","","image-button-response","63","264630","0.0-12.0-1.0-0.2","2D9786E199F44AAC9ACE66F0BA86C347","2D9786E199F44AAC9ACE66F0BA86C347","ac03e295-b2fc-48b6-ba89-4585c2b62f86","a9f3d40c-5730-405c-b25e-1034c4c56f3f","{""num_scrambled_semantic"":""8"",""num_scrambled_causal"":""4"",""num_scrambled_schematic"":""4"",""participantId"":""2D9786E199F44AAC9ACE66F0BA86C347"",""assignmentId"":""ac03e295-b2fc-48b6-ba89-4585c2b62f86"",""projectId"":""a9f3d40c-5730-405c-b25e-1034c4c56f3f""}","https://test12345.live/?num_scrambled_semantic=8&num_scrambled_causal=4&num_scrambled_schematic=4&participantId=2D9786E199F44AAC9ACE66F0BA86C347&assignmentId=ac03e295-b2fc-48b6-ba89-4585c2b62f86&projectId=a9f3d40c-5730-405c-b25e-1034c4c56f3f","2D9786E199F44AAC9ACE66F0BA86C347-2025-08-07-19-18-04","","null","","images/semantic_sequence/physical_activity_semantic/physical_activity_semantic_4.png","null","",""
"","","","","","image-button-response","64","265143","0.0-12.0-1.0-1.2","2D9786E199F44AAC9ACE66F0BA86C347","2D9786E199F44AAC9ACE66F0BA86C347","ac03e295-b2fc-48b6-ba89-4585c2b62f86","a9f3d40c-5730-405c-b25e-1034c4c56f3f","{""num_scrambled_semantic"":""8"",""num_scrambled_causal"":""4"",""num_scrambled_schematic"":""4"",""participantId"":""2D9786E199F44AAC9ACE66F0BA86C347"",""assignmentId"":""ac03e295-b2fc-48b6-ba89-4585c2b62f86"",""projectId"":""a9f3d40c-5730-405c-b25e-1034c4c56f3f""}","https://test12345.live/?num_scrambled_semantic=8&num_scrambled_causal=4&num_scrambled_schematic=4&participantId=2D9786E199F44AAC9ACE66F0BA86C347&assignmentId=ac03e295-b2fc-48b6-ba89-4585c2b62f86&projectId=a9f3d40c-5730-405c-b25e-1034c4c56f3f","2D9786E199F44AAC9ACE66F0BA86C347-2025-08-07-19-18-04","","510","","images/semantic_sequence/physical_activity_semantic/physical_activity_semantic_4.png","0","",""
"","","","","","image-button-response","65","266950","0.0-12.0-1.0-2.2","2D9786E199F44AAC9ACE66F0BA86C347","2D9786E199F44AAC9ACE66F0BA86C347","ac03e295-b2fc-48b6-ba89-4585c2b62f86","a9f3d40c-5730-405c-b25e-1034c4c56f3f","{""num_scrambled_semantic"":""8"",""num_scrambled_causal"":""4"",""num_scrambled_schematic"":""4"",""participantId"":""2D9786E199F44AAC9ACE66F0BA86C347"",""assignmentId"":""ac03e295-b2fc-48b6-ba89-4585c2b62f86"",""projectId"":""a9f3d40c-5730-405c-b25e-1034c4c56f3f""}","https://test12345.live/?num_scrambled_semantic=8&num_scrambled_causal=4&num_scrambled_schematic=4&participantId=2D9786E199F44AAC9ACE66F0BA86C347&assignmentId=ac03e295-b2fc-48b6-ba89-4585c2b62f86&projectId=a9f3d40c-5730-405c-b25e-1034c4c56f3f","2D9786E199F44AAC9ACE66F0BA86C347-2025-08-07-19-18-04","","null","","[]","null","",""
"","","","","","image-button-response","66","271455","0.0-12.0-1.0-0.3","2D9786E199F44AAC9ACE66F0BA86C347","2D9786E199F44AAC9ACE66F0BA86C347","ac03e295-b2fc-48b6-ba89-4585c2b62f86","a9f3d40c-5730-405c-b25e-1034c4c56f3f","{""num_scrambled_semantic"":""8"",""num_scrambled_causal"":""4"",""num_scrambled_schematic"":""4"",""participantId"":""2D9786E199F44AAC9ACE66F0BA86C347"",""assignmentId"":""ac03e295-b2fc-48b6-ba89-4585c2b62f86"",""projectId"":""a9f3d40c-5730-405c-b25e-1034c4c56f3f""}","https://test12345.live/?num_scrambled_semantic=8&num_scrambled_causal=4&num_scrambled_schematic=4&participantId=2D9786E199F44AAC9ACE66F0BA86C347&assignmentId=ac03e295-b2fc-48b6-ba89-4585c2b62f86&projectId=a9f3d40c-5730-405c-b25e-1034c4c56f3f","2D9786E199F44AAC9ACE66F0BA86C347-2025-08-07-19-18-04","","null","","images/semantic_sequence/physical_activity_semantic/physical_activity_semantic_2.png","null","",""
"","","","","","image-button-response","67","271913","0.0-12.0-1.0-1.3","2D9786E199F44AAC9ACE66F0BA86C347","2D9786E199F44AAC9ACE66F0BA86C347","ac03e295-b2fc-48b6-ba89-4585c2b62f86","a9f3d40c-5730-405c-b25e-1034c4c56f3f","{""num_scrambled_semantic"":""8"",""num_scrambled_causal"":""4"",""num_scrambled_schematic"":""4"",""participantId"":""2D9786E199F44AAC9ACE66F0BA86C347"",""assignmentId"":""ac03e295-b2fc-48b6-ba89-4585c2b62f86"",""projectId"":""a9f3d40c-5730-405c-b25e-1034c4c56f3f""}","https://test12345.live/?num_scrambled_semantic=8&num_scrambled_causal=4&num_scrambled_schematic=4&participantId=2D9786E199F44AAC9ACE66F0BA86C347&assignmentId=ac03e295-b2fc-48b6-ba89-4585c2b62f86&projectId=a9f3d40c-5730-405c-b25e-1034c4c56f3f","2D9786E199F44AAC9ACE66F0BA86C347-2025-08-07-19-18-04","","454","","images/semantic_sequence/physical_activity_semantic/physical_activity_semantic_2.png","0","",""
"","","","","","image-button-response","68","273720","0.0-12.0-1.0-2.3","2D9786E199F44AAC9ACE66F0BA86C347","2D9786E199F44AAC9ACE66F0BA86C347","ac03e295-b2fc-48b6-ba89-4585c2b62f86","a9f3d40c-5730-405c-b25e-1034c4c56f3f","{""num_scrambled_semantic"":""8"",""num_scrambled_causal"":""4"",""num_scrambled_schematic"":""4"",""participantId"":""2D9786E199F44AAC9ACE66F0BA86C347"",""assignmentId"":""ac03e295-b2fc-48b6-ba89-4585c2b62f86"",""projectId"":""a9f3d40c-5730-405c-b25e-1034c4c56f3f""}","https://test12345.live/?num_scrambled_semantic=8&num_scrambled_causal=4&num_scrambled_schematic=4&participantId=2D9786E199F44AAC9ACE66F0BA86C347&assignmentId=ac03e295-b2fc-48b6-ba89-4585c2b62f86&projectId=a9f3d40c-5730-405c-b25e-1034c4c56f3f","2D9786E199F44AAC9ACE66F0BA86C347-2025-08-07-19-18-04","","null","","[]","null","",""
"","","","","","image-button-response","69","278225","0.0-12.0-1.0-0.4","2D9786E199F44AAC9ACE66F0BA86C347","2D9786E199F44AAC9ACE66F0BA86C347","ac03e295-b2fc-48b6-ba89-4585c2b62f86","a9f3d40c-5730-405c-b25e-1034c4c56f3f","{""num_scrambled_semantic"":""8"",""num_scrambled_causal"":""4"",""num_scrambled_schematic"":""4"",""participantId"":""2D9786E199F44AAC9ACE66F0BA86C347"",""assignmentId"":""ac03e295-b2fc-48b6-ba89-4585c2b62f86"",""projectId"":""a9f3d40c-5730-405c-b25e-1034c4c56f3f""}","https://test12345.live/?num_scrambled_semantic=8&num_scrambled_causal=4&num_scrambled_schematic=4&participantId=2D9786E199F44AAC9ACE66F0BA86C347&assignmentId=ac03e295-b2fc-48b6-ba89-4585c2b62f86&projectId=a9f3d40c-5730-405c-b25e-1034c4c56f3f","2D9786E199F44AAC9ACE66F0BA86C347-2025-08-07-19-18-04","","null","","images/semantic_sequence/physical_activity_semantic/physical_activity_semantic_8.png","null","",""
"","","","","","image-button-response","70","278802","0.0-12.0-1.0-1.4","2D9786E199F44AAC9ACE66F0BA86C347","2D9786E199F44AAC9ACE66F0BA86C347","ac03e295-b2fc-48b6-ba89-4585c2b62f86","a9f3d40c-5730-405c-b25e-1034c4c56f3f","{""num_scrambled_semantic"":""8"",""num_scrambled_causal"":""4"",""num_scrambled_schematic"":""4"",""participantId"":""2D9786E199F44AAC9ACE66F0BA86C347"",""assignmentId"":""ac03e295-b2fc-48b6-ba89-4585c2b62f86"",""projectId"":""a9f3d40c-5730-405c-b25e-1034c4c56f3f""}","https://test12345.live/?num_scrambled_semantic=8&num_scrambled_causal=4&num_scrambled_schematic=4&participantId=2D9786E199F44AAC9ACE66F0BA86C347&assignmentId=ac03e295-b2fc-48b6-ba89-4585c2b62f86&projectId=a9f3d40c-5730-405c-b25e-1034c4c56f3f","2D9786E199F44AAC9ACE66F0BA86C347-2025-08-07-19-18-04","","573","","images/semantic_sequence/physical_activity_semantic/physical_activity_semantic_8.png","0","",""
"","","","","","image-button-response","71","280605","0.0-12.0-1.0-2.4","2D9786E199F44AAC9ACE66F0BA86C347","2D9786E199F44AAC9ACE66F0BA86C347","ac03e295-b2fc-48b6-ba89-4585c2b62f86","a9f3d40c-5730-405c-b25e-1034c4c56f3f","{""num_scrambled_semantic"":""8"",""num_scrambled_causal"":""4"",""num_scrambled_schematic"":""4"",""participantId"":""2D9786E199F44AAC9ACE66F0BA86C347"",""assignmentId"":""ac03e295-b2fc-48b6-ba89-4585c2b62f86"",""projectId"":""a9f3d40c-5730-405c-b25e-1034c4c56f3f""}","https://test12345.live/?num_scrambled_semantic=8&num_scrambled_causal=4&num_scrambled_schematic=4&participantId=2D9786E199F44AAC9ACE66F0BA86C347&assignmentId=ac03e295-b2fc-48b6-ba89-4585c2b62f86&projectId=a9f3d40c-5730-405c-b25e-1034c4c56f3f","2D9786E199F44AAC9ACE66F0BA86C347-2025-08-07-19-18-04","","null","","[]","null","",""
"","","","","","image-button-response","72","285110","0.0-12.0-1.0-0.5","2D9786E199F44AAC9ACE66F0BA86C347","2D9786E199F44AAC9ACE66F0BA86C347","ac03e295-b2fc-48b6-ba89-4585c2b62f86","a9f3d40c-5730-405c-b25e-1034c4c56f3f","{""num_scrambled_semantic"":""8"",""num_scrambled_causal"":""4"",""num_scrambled_schematic"":""4"",""participantId"":""2D9786E199F44AAC9ACE66F0BA86C347"",""assignmentId"":""ac03e295-b2fc-48b6-ba89-4585c2b62f86"",""projectId"":""a9f3d40c-5730-405c-b25e-1034c4c56f3f""}","https://test12345.live/?num_scrambled_semantic=8&num_scrambled_causal=4&num_scrambled_schematic=4&participantId=2D9786E199F44AAC9ACE66F0BA86C347&assignmentId=ac03e295-b2fc-48b6-ba89-4585c2b62f86&projectId=a9f3d40c-5730-405c-b25e-1034c4c56f3f","2D9786E199F44AAC9ACE66F0BA86C347-2025-08-07-19-18-04","","null","","images/semantic_sequence/physical_activity_semantic/physical_activity_semantic_5.png","null","",""
"","","","","","image-button-response","73","285743","0.0-12.0-1.0-1.5","2D9786E199F44AAC9ACE66F0BA86C347","2D9786E199F44AAC9ACE66F0BA86C347","ac03e295-b2fc-48b6-ba89-4585c2b62f86","a9f3d40c-5730-405c-b25e-1034c4c56f3f","{""num_scrambled_semantic"":""8"",""num_scrambled_causal"":""4"",""num_scrambled_schematic"":""4"",""participantId"":""2D9786E199F44AAC9ACE66F0BA86C347"",""assignmentId"":""ac03e295-b2fc-48b6-ba89-4585c2b62f86"",""projectId"":""a9f3d40c-5730-405c-b25e-1034c4c56f3f""}","https://test12345.live/?num_scrambled_semantic=8&num_scrambled_causal=4&num_scrambled_schematic=4&participantId=2D9786E199F44AAC9ACE66F0BA86C347&assignmentId=ac03e295-b2fc-48b6-ba89-4585c2b62f86&projectId=a9f3d40c-5730-405c-b25e-1034c4c56f3f","2D9786E199F44AAC9ACE66F0BA86C347-2025-08-07-19-18-04","","629","","images/semantic_sequence/physical_activity_semantic/physical_activity_semantic_5.png","0","",""
"","","","","","image-button-response","74","287550","0.0-12.0-1.0-2.5","2D9786E199F44AAC9ACE66F0BA86C347","2D9786E199F44AAC9ACE66F0BA86C347","ac03e295-b2fc-48b6-ba89-4585c2b62f86","a9f3d40c-5730-405c-b25e-1034c4c56f3f","{""num_scrambled_semantic"":""8"",""num_scrambled_causal"":""4"",""num_scrambled_schematic"":""4"",""participantId"":""2D9786E199F44AAC9ACE66F0BA86C347"",""assignmentId"":""ac03e295-b2fc-48b6-ba89-4585c2b62f86"",""projectId"":""a9f3d40c-5730-405c-b25e-1034c4c56f3f""}","https://test12345.live/?num_scrambled_semantic=8&num_scrambled_causal=4&num_scrambled_schematic=4&participantId=2D9786E199F44AAC9ACE66F0BA86C347&assignmentId=ac03e295-b2fc-48b6-ba89-4585c2b62f86&projectId=a9f3d40c-5730-405c-b25e-1034c4c56f3f","2D9786E199F44AAC9ACE66F0BA86C347-2025-08-07-19-18-04","","null","","[]","null","",""
"","","","","","image-button-response","75","292055","0.0-12.0-1.0-0.6","2D9786E199F44AAC9ACE66F0BA86C347","2D9786E199F44AAC9ACE66F0BA86C347","ac03e295-b2fc-48b6-ba89-4585c2b62f86","a9f3d40c-5730-405c-b25e-1034c4c56f3f","{""num_scrambled_semantic"":""8"",""num_scrambled_causal"":""4"",""num_scrambled_schematic"":""4"",""participantId"":""2D9786E199F44AAC9ACE66F0BA86C347"",""assignmentId"":""ac03e295-b2fc-48b6-ba89-4585c2b62f86"",""projectId"":""a9f3d40c-5730-405c-b25e-1034c4c56f3f""}","https://test12345.live/?num_scrambled_semantic=8&num_scrambled_causal=4&num_scrambled_schematic=4&participantId=2D9786E199F44AAC9ACE66F0BA86C347&assignmentId=ac03e295-b2fc-48b6-ba89-4585c2b62f86&projectId=a9f3d40c-5730-405c-b25e-1034c4c56f3f","2D9786E199F44AAC9ACE66F0BA86C347-2025-08-07-19-18-04","","null","","images/semantic_sequence/physical_activity_semantic/physical_activity_semantic_1.png","null","",""
"","","","","","image-button-response","76","292700","0.0-12.0-1.0-1.6","2D9786E199F44AAC9ACE66F0BA86C347","2D9786E199F44AAC9ACE66F0BA86C347","ac03e295-b2fc-48b6-ba89-4585c2b62f86","a9f3d40c-5730-405c-b25e-1034c4c56f3f","{""num_scrambled_semantic"":""8"",""num_scrambled_causal"":""4"",""num_scrambled_schematic"":""4"",""participantId"":""2D9786E199F44AAC9ACE66F0BA86C347"",""assignmentId"":""ac03e295-b2fc-48b6-ba89-4585c2b62f86"",""projectId"":""a9f3d40c-5730-405c-b25e-1034c4c56f3f""}","https://test12345.live/?num_scrambled_semantic=8&num_scrambled_causal=4&num_scrambled_schematic=4&participantId=2D9786E199F44AAC9ACE66F0BA86C347&assignmentId=ac03e295-b2fc-48b6-ba89-4585c2b62f86&projectId=a9f3d40c-5730-405c-b25e-1034c4c56f3f","2D9786E199F44AAC9ACE66F0BA86C347-2025-08-07-19-18-04","","643","","images/semantic_sequence/physical_activity_semantic/physical_activity_semantic_1.png","0","",""
"","","","","","image-button-response","77","294505","0.0-12.0-1.0-2.6","2D9786E199F44AAC9ACE66F0BA86C347","2D9786E199F44AAC9ACE66F0BA86C347","ac03e295-b2fc-48b6-ba89-4585c2b62f86","a9f3d40c-5730-405c-b25e-1034c4c56f3f","{""num_scrambled_semantic"":""8"",""num_scrambled_causal"":""4"",""num_scrambled_schematic"":""4"",""participantId"":""2D9786E199F44AAC9ACE66F0BA86C347"",""assignmentId"":""ac03e295-b2fc-48b6-ba89-4585c2b62f86"",""projectId"":""a9f3d40c-5730-405c-b25e-1034c4c56f3f""}","https://test12345.live/?num_scrambled_semantic=8&num_scrambled_causal=4&num_scrambled_schematic=4&participantId=2D9786E199F44AAC9ACE66F0BA86C347&assignmentId=ac03e295-b2fc-48b6-ba89-4585c2b62f86&projectId=a9f3d40c-5730-405c-b25e-1034c4c56f3f","2D9786E199F44AAC9ACE66F0BA86C347-2025-08-07-19-18-04","","null","","[]","null","",""
"","","","","","image-button-response","78","299013","0.0-12.0-1.0-0.7","2D9786E199F44AAC9ACE66F0BA86C347","2D9786E199F44AAC9ACE66F0BA86C347","ac03e295-b2fc-48b6-ba89-4585c2b62f86","a9f3d40c-5730-405c-b25e-1034c4c56f3f","{""num_scrambled_semantic"":""8"",""num_scrambled_causal"":""4"",""num_scrambled_schematic"":""4"",""participantId"":""2D9786E199F44AAC9ACE66F0BA86C347"",""assignmentId"":""ac03e295-b2fc-48b6-ba89-4585c2b62f86"",""projectId"":""a9f3d40c-5730-405c-b25e-1034c4c56f3f""}","https://test12345.live/?num_scrambled_semantic=8&num_scrambled_causal=4&num_scrambled_schematic=4&participantId=2D9786E199F44AAC9ACE66F0BA86C347&assignmentId=ac03e295-b2fc-48b6-ba89-4585c2b62f86&projectId=a9f3d40c-5730-405c-b25e-1034c4c56f3f","2D9786E199F44AAC9ACE66F0BA86C347-2025-08-07-19-18-04","","null","","images/semantic_sequence/physical_activity_semantic/physical_activity_semantic_9.png","null","",""
"","","","","","image-button-response","79","299459","0.0-12.0-1.0-1.7","2D9786E199F44AAC9ACE66F0BA86C347","2D9786E199F44AAC9ACE66F0BA86C347","ac03e295-b2fc-48b6-ba89-4585c2b62f86","a9f3d40c-5730-405c-b25e-1034c4c56f3f","{""num_scrambled_semantic"":""8"",""num_scrambled_causal"":""4"",""num_scrambled_schematic"":""4"",""participantId"":""2D9786E199F44AAC9ACE66F0BA86C347"",""assignmentId"":""ac03e295-b2fc-48b6-ba89-4585c2b62f86"",""projectId"":""a9f3d40c-5730-405c-b25e-1034c4c56f3f""}","https://test12345.live/?num_scrambled_semantic=8&num_scrambled_causal=4&num_scrambled_schematic=4&participantId=2D9786E199F44AAC9ACE66F0BA86C347&assignmentId=ac03e295-b2fc-48b6-ba89-4585c2b62f86&projectId=a9f3d40c-5730-405c-b25e-1034c4c56f3f","2D9786E199F44AAC9ACE66F0BA86C347-2025-08-07-19-18-04","","442","","images/semantic_sequence/physical_activity_semantic/physical_activity_semantic_9.png","0","",""
"","","","","","image-button-response","80","301265","0.0-12.0-1.0-2.7","2D9786E199F44AAC9ACE66F0BA86C347","2D9786E199F44AAC9ACE66F0BA86C347","ac03e295-b2fc-48b6-ba89-4585c2b62f86","a9f3d40c-5730-405c-b25e-1034c4c56f3f","{""num_scrambled_semantic"":""8"",""num_scrambled_causal"":""4"",""num_scrambled_schematic"":""4"",""participantId"":""2D9786E199F44AAC9ACE66F0BA86C347"",""assignmentId"":""ac03e295-b2fc-48b6-ba89-4585c2b62f86"",""projectId"":""a9f3d40c-5730-405c-b25e-1034c4c56f3f""}","https://test12345.live/?num_scrambled_semantic=8&num_scrambled_causal=4&num_scrambled_schematic=4&participantId=2D9786E199F44AAC9ACE66F0BA86C347&assignmentId=ac03e295-b2fc-48b6-ba89-4585c2b62f86&projectId=a9f3d40c-5730-405c-b25e-1034c4c56f3f","2D9786E199F44AAC9ACE66F0BA86C347-2025-08-07-19-18-04","","null","","[]","null","",""
"","","","","","image-button-response","81","305772","0.0-12.0-1.0-0.8","2D9786E199F44AAC9ACE66F0BA86C347","2D9786E199F44AAC9ACE66F0BA86C347","ac03e295-b2fc-48b6-ba89-4585c2b62f86","a9f3d40c-5730-405c-b25e-1034c4c56f3f","{""num_scrambled_semantic"":""8"",""num_scrambled_causal"":""4"",""num_scrambled_schematic"":""4"",""participantId"":""2D9786E199F44AAC9ACE66F0BA86C347"",""assignmentId"":""ac03e295-b2fc-48b6-ba89-4585c2b62f86"",""projectId"":""a9f3d40c-5730-405c-b25e-1034c4c56f3f""}","https://test12345.live/?num_scrambled_semantic=8&num_scrambled_causal=4&num_scrambled_schematic=4&participantId=2D9786E199F44AAC9ACE66F0BA86C347&assignmentId=ac03e295-b2fc-48b6-ba89-4585c2b62f86&projectId=a9f3d40c-5730-405c-b25e-1034c4c56f3f","2D9786E199F44AAC9ACE66F0BA86C347-2025-08-07-19-18-04","","null","","images/semantic_sequence/physical_activity_semantic/physical_activity_semantic_7.png","null","",""
"","","","","","image-button-response","82","306210","0.0-12.0-1.0-1.8","2D9786E199F44AAC9ACE66F0BA86C347","2D9786E199F44AAC9ACE66F0BA86C347","ac03e295-b2fc-48b6-ba89-4585c2b62f86","a9f3d40c-5730-405c-b25e-1034c4c56f3f","{""num_scrambled_semantic"":""8"",""num_scrambled_causal"":""4"",""num_scrambled_schematic"":""4"",""participantId"":""2D9786E199F44AAC9ACE66F0BA86C347"",""assignmentId"":""ac03e295-b2fc-48b6-ba89-4585c2b62f86"",""projectId"":""a9f3d40c-5730-405c-b25e-1034c4c56f3f""}","https://test12345.live/?num_scrambled_semantic=8&num_scrambled_causal=4&num_scrambled_schematic=4&participantId=2D9786E199F44AAC9ACE66F0BA86C347&assignmentId=ac03e295-b2fc-48b6-ba89-4585c2b62f86&projectId=a9f3d40c-5730-405c-b25e-1034c4c56f3f","2D9786E199F44AAC9ACE66F0BA86C347-2025-08-07-19-18-04","","433","","images/semantic_sequence/physical_activity_semantic/physical_activity_semantic_7.png","0","",""
"","","","","","image-button-response","83","308016","0.0-12.0-1.0-2.8","2D9786E199F44AAC9ACE66F0BA86C347","2D9786E199F44AAC9ACE66F0BA86C347","ac03e295-b2fc-48b6-ba89-4585c2b62f86","a9f3d40c-5730-405c-b25e-1034c4c56f3f","{""num_scrambled_semantic"":""8"",""num_scrambled_causal"":""4"",""num_scrambled_schematic"":""4"",""participantId"":""2D9786E199F44AAC9ACE66F0BA86C347"",""assignmentId"":""ac03e295-b2fc-48b6-ba89-4585c2b62f86"",""projectId"":""a9f3d40c-5730-405c-b25e-1034c4c56f3f""}","https://test12345.live/?num_scrambled_semantic=8&num_scrambled_causal=4&num_scrambled_schematic=4&participantId=2D9786E199F44AAC9ACE66F0BA86C347&assignmentId=ac03e295-b2fc-48b6-ba89-4585c2b62f86&projectId=a9f3d40c-5730-405c-b25e-1034c4c56f3f","2D9786E199F44AAC9ACE66F0BA86C347-2025-08-07-19-18-04","","null","","[]","null","",""
"","","","","","image-button-response","84","312525","0.0-12.0-1.0-0.9","2D9786E199F44AAC9ACE66F0BA86C347","2D9786E199F44AAC9ACE66F0BA86C347","ac03e295-b2fc-48b6-ba89-4585c2b62f86","a9f3d40c-5730-405c-b25e-1034c4c56f3f","{""num_scrambled_semantic"":""8"",""num_scrambled_causal"":""4"",""num_scrambled_schematic"":""4"",""participantId"":""2D9786E199F44AAC9ACE66F0BA86C347"",""assignmentId"":""ac03e295-b2fc-48b6-ba89-4585c2b62f86"",""projectId"":""a9f3d40c-5730-405c-b25e-1034c4c56f3f""}","https://test12345.live/?num_scrambled_semantic=8&num_scrambled_causal=4&num_scrambled_schematic=4&participantId=2D9786E199F44AAC9ACE66F0BA86C347&assignmentId=ac03e295-b2fc-48b6-ba89-4585c2b62f86&projectId=a9f3d40c-5730-405c-b25e-1034c4c56f3f","2D9786E199F44AAC9ACE66F0BA86C347-2025-08-07-19-18-04","","null","","images/semantic_sequence/physical_activity_semantic/physical_activity_semantic_3.png","null","",""
"","","","","","image-button-response","85","313004","0.0-12.0-1.0-1.9","2D9786E199F44AAC9ACE66F0BA86C347","2D9786E199F44AAC9ACE66F0BA86C347","ac03e295-b2fc-48b6-ba89-4585c2b62f86","a9f3d40c-5730-405c-b25e-1034c4c56f3f","{""num_scrambled_semantic"":""8"",""num_scrambled_causal"":""4"",""num_scrambled_schematic"":""4"",""participantId"":""2D9786E199F44AAC9ACE66F0BA86C347"",""assignmentId"":""ac03e295-b2fc-48b6-ba89-4585c2b62f86"",""projectId"":""a9f3d40c-5730-405c-b25e-1034c4c56f3f""}","https://test12345.live/?num_scrambled_semantic=8&num_scrambled_causal=4&num_scrambled_schematic=4&participantId=2D9786E199F44AAC9ACE66F0BA86C347&assignmentId=ac03e295-b2fc-48b6-ba89-4585c2b62f86&projectId=a9f3d40c-5730-405c-b25e-1034c4c56f3f","2D9786E199F44AAC9ACE66F0BA86C347-2025-08-07-19-18-04","","477","","images/semantic_sequence/physical_activity_semantic/physical_activity_semantic_3.png","0","",""
"","","","","","image-button-response","86","314811","0.0-12.0-1.0-2.9","2D9786E199F44AAC9ACE66F0BA86C347","2D9786E199F44AAC9ACE66F0BA86C347","ac03e295-b2fc-48b6-ba89-4585c2b62f86","a9f3d40c-5730-405c-b25e-1034c4c56f3f","{""num_scrambled_semantic"":""8"",""num_scrambled_causal"":""4"",""num_scrambled_schematic"":""4"",""participantId"":""2D9786E199F44AAC9ACE66F0BA86C347"",""assignmentId"":""ac03e295-b2fc-48b6-ba89-4585c2b62f86"",""projectId"":""a9f3d40c-5730-405c-b25e-1034c4c56f3f""}","https://test12345.live/?num_scrambled_semantic=8&num_scrambled_causal=4&num_scrambled_schematic=4&participantId=2D9786E199F44AAC9ACE66F0BA86C347&assignmentId=ac03e295-b2fc-48b6-ba89-4585c2b62f86&projectId=a9f3d40c-5730-405c-b25e-1034c4c56f3f","2D9786E199F44AAC9ACE66F0BA86C347-2025-08-07-19-18-04","","null","","[]","null","",""
"","","","","","html-audio-response","87","324962","0.0-13.0","2D9786E199F44AAC9ACE66F0BA86C347","2D9786E199F44AAC9ACE66F0BA86C347","ac03e295-b2fc-48b6-ba89-4585c2b62f86","a9f3d40c-5730-405c-b25e-1034c4c56f3f","{""num_scrambled_semantic"":""8"",""num_scrambled_causal"":""4"",""num_scrambled_schematic"":""4"",""participantId"":""2D9786E199F44AAC9ACE66F0BA86C347"",""assignmentId"":""ac03e295-b2fc-48b6-ba89-4585c2b62f86"",""projectId"":""a9f3d40c-5730-405c-b25e-1034c4c56f3f""}","https://test12345.live/?num_scrambled_semantic=8&num_scrambled_causal=4&num_scrambled_schematic=4&participantId=2D9786E199F44AAC9ACE66F0BA86C347&assignmentId=ac03e295-b2fc-48b6-ba89-4585c2b62f86&projectId=a9f3d40c-5730-405c-b25e-1034c4c56f3f","2D9786E199F44AAC9ACE66F0BA86C347-2025-08-07-19-18-04","","9347","","[""<span style=\""color: red; font-size: 24px\""> NOW RECORDING</span><p>Please say out loud all the images you saw, as many as you can remember. The images can be said in any order.</p>""]","","2","physical_activity_semantic"
"","","","","","image-button-response","88","330971","0.0-14.0-0.0","2D9786E199F44AAC9ACE66F0BA86C347","2D9786E199F44AAC9ACE66F0BA86C347","ac03e295-b2fc-48b6-ba89-4585c2b62f86","a9f3d40c-5730-405c-b25e-1034c4c56f3f","{""num_scrambled_semantic"":""8"",""num_scrambled_causal"":""4"",""num_scrambled_schematic"":""4"",""participantId"":""2D9786E199F44AAC9ACE66F0BA86C347"",""assignmentId"":""ac03e295-b2fc-48b6-ba89-4585c2b62f86"",""projectId"":""a9f3d40c-5730-405c-b25e-1034c4c56f3f""}","https://test12345.live/?num_scrambled_semantic=8&num_scrambled_causal=4&num_scrambled_schematic=4&participantId=2D9786E199F44AAC9ACE66F0BA86C347&assignmentId=ac03e295-b2fc-48b6-ba89-4585c2b62f86&projectId=a9f3d40c-5730-405c-b25e-1034c4c56f3f","2D9786E199F44AAC9ACE66F0BA86C347-2025-08-07-19-18-04","","null","","images/causal_sequence/package_causal/package_causal_0.png","null","",""
"","","","","","image-button-response","89","335475","0.0-14.0-1.0-0.0","2D9786E199F44AAC9ACE66F0BA86C347","2D9786E199F44AAC9ACE66F0BA86C347","ac03e295-b2fc-48b6-ba89-4585c2b62f86","a9f3d40c-5730-405c-b25e-1034c4c56f3f","{""num_scrambled_semantic"":""8"",""num_scrambled_causal"":""4"",""num_scrambled_schematic"":""4"",""participantId"":""2D9786E199F44AAC9ACE66F0BA86C347"",""assignmentId"":""ac03e295-b2fc-48b6-ba89-4585c2b62f86"",""projectId"":""a9f3d40c-5730-405c-b25e-1034c4c56f3f""}","https://test12345.live/?num_scrambled_semantic=8&num_scrambled_causal=4&num_scrambled_schematic=4&participantId=2D9786E199F44AAC9ACE66F0BA86C347&assignmentId=ac03e295-b2fc-48b6-ba89-4585c2b62f86&projectId=a9f3d40c-5730-405c-b25e-1034c4c56f3f","2D9786E199F44AAC9ACE66F0BA86C347-2025-08-07-19-18-04","","null","","images/causal_sequence/package_causal/package_causal_6.png","null","",""
"","","","","","image-button-response","90","336179","0.0-14.0-1.0-1.0","2D9786E199F44AAC9ACE66F0BA86C347","2D9786E199F44AAC9ACE66F0BA86C347","ac03e295-b2fc-48b6-ba89-4585c2b62f86","a9f3d40c-5730-405c-b25e-1034c4c56f3f","{""num_scrambled_semantic"":""8"",""num_scrambled_causal"":""4"",""num_scrambled_schematic"":""4"",""participantId"":""2D9786E199F44AAC9ACE66F0BA86C347"",""assignmentId"":""ac03e295-b2fc-48b6-ba89-4585c2b62f86"",""projectId"":""a9f3d40c-5730-405c-b25e-1034c4c56f3f""}","https://test12345.live/?num_scrambled_semantic=8&num_scrambled_causal=4&num_scrambled_schematic=4&participantId=2D9786E199F44AAC9ACE66F0BA86C347&assignmentId=ac03e295-b2fc-48b6-ba89-4585c2b62f86&projectId=a9f3d40c-5730-405c-b25e-1034c4c56f3f","2D9786E199F44AAC9ACE66F0BA86C347-2025-08-07-19-18-04","","701","","images/causal_sequence/package_causal/package_causal_6.png","0","",""
"","","","","","image-button-response","91","337984","0.0-14.0-1.0-2.0","2D9786E199F44AAC9ACE66F0BA86C347","2D9786E199F44AAC9ACE66F0BA86C347","ac03e295-b2fc-48b6-ba89-4585c2b62f86","a9f3d40c-5730-405c-b25e-1034c4c56f3f","{""num_scrambled_semantic"":""8"",""num_scrambled_causal"":""4"",""num_scrambled_schematic"":""4"",""participantId"":""2D9786E199F44AAC9ACE66F0BA86C347"",""assignmentId"":""ac03e295-b2fc-48b6-ba89-4585c2b62f86"",""projectId"":""a9f3d40c-5730-405c-b25e-1034c4c56f3f""}","https://test12345.live/?num_scrambled_semantic=8&num_scrambled_causal=4&num_scrambled_schematic=4&participantId=2D9786E199F44AAC9ACE66F0BA86C347&assignmentId=ac03e295-b2fc-48b6-ba89-4585c2b62f86&projectId=a9f3d40c-5730-405c-b25e-1034c4c56f3f","2D9786E199F44AAC9ACE66F0BA86C347-2025-08-07-19-18-04","","null","","[]","null","",""
"","","","","","image-button-response","92","342489","0.0-14.0-1.0-0.1","2D9786E199F44AAC9ACE66F0BA86C347","2D9786E199F44AAC9ACE66F0BA86C347","ac03e295-b2fc-48b6-ba89-4585c2b62f86","a9f3d40c-5730-405c-b25e-1034c4c56f3f","{""num_scrambled_semantic"":""8"",""num_scrambled_causal"":""4"",""num_scrambled_schematic"":""4"",""participantId"":""2D9786E199F44AAC9ACE66F0BA86C347"",""assignmentId"":""ac03e295-b2fc-48b6-ba89-4585c2b62f86"",""projectId"":""a9f3d40c-5730-405c-b25e-1034c4c56f3f""}","https://test12345.live/?num_scrambled_semantic=8&num_scrambled_causal=4&num_scrambled_schematic=4&participantId=2D9786E199F44AAC9ACE66F0BA86C347&assignmentId=ac03e295-b2fc-48b6-ba89-4585c2b62f86&projectId=a9f3d40c-5730-405c-b25e-1034c4c56f3f","2D9786E199F44AAC9ACE66F0BA86C347-2025-08-07-19-18-04","","null","","images/causal_sequence/package_causal/package_causal_9.png","null","",""
"","","","","","image-button-response","93","343059","0.0-14.0-1.0-1.1","2D9786E199F44AAC9ACE66F0BA86C347","2D9786E199F44AAC9ACE66F0BA86C347","ac03e295-b2fc-48b6-ba89-4585c2b62f86","a9f3d40c-5730-405c-b25e-1034c4c56f3f","{""num_scrambled_semantic"":""8"",""num_scrambled_causal"":""4"",""num_scrambled_schematic"":""4"",""participantId"":""2D9786E199F44AAC9ACE66F0BA86C347"",""assignmentId"":""ac03e295-b2fc-48b6-ba89-4585c2b62f86"",""projectId"":""a9f3d40c-5730-405c-b25e-1034c4c56f3f""}","https://test12345.live/?num_scrambled_semantic=8&num_scrambled_causal=4&num_scrambled_schematic=4&participantId=2D9786E199F44AAC9ACE66F0BA86C347&assignmentId=ac03e295-b2fc-48b6-ba89-4585c2b62f86&projectId=a9f3d40c-5730-405c-b25e-1034c4c56f3f","2D9786E199F44AAC9ACE66F0BA86C347-2025-08-07-19-18-04","","566","","images/causal_sequence/package_causal/package_causal_9.png","0","",""
"","","","","","image-button-response","94","344861","0.0-14.0-1.0-2.1","2D9786E199F44AAC9ACE66F0BA86C347","2D9786E199F44AAC9ACE66F0BA86C347","ac03e295-b2fc-48b6-ba89-4585c2b62f86","a9f3d40c-5730-405c-b25e-1034c4c56f3f","{""num_scrambled_semantic"":""8"",""num_scrambled_causal"":""4"",""num_scrambled_schematic"":""4"",""participantId"":""2D9786E199F44AAC9ACE66F0BA86C347"",""assignmentId"":""ac03e295-b2fc-48b6-ba89-4585c2b62f86"",""projectId"":""a9f3d40c-5730-405c-b25e-1034c4c56f3f""}","https://test12345.live/?num_scrambled_semantic=8&num_scrambled_causal=4&num_scrambled_schematic=4&participantId=2D9786E199F44AAC9ACE66F0BA86C347&assignmentId=ac03e295-b2fc-48b6-ba89-4585c2b62f86&projectId=a9f3d40c-5730-405c-b25e-1034c4c56f3f","2D9786E199F44AAC9ACE66F0BA86C347-2025-08-07-19-18-04","","null","","[]","null","",""
"","","","","","image-button-response","95","349369","0.0-14.0-1.0-0.2","2D9786E199F44AAC9ACE66F0BA86C347","2D9786E199F44AAC9ACE66F0BA86C347","ac03e295-b2fc-48b6-ba89-4585c2b62f86","a9f3d40c-5730-405c-b25e-1034c4c56f3f","{""num_scrambled_semantic"":""8"",""num_scrambled_causal"":""4"",""num_scrambled_schematic"":""4"",""participantId"":""2D9786E199F44AAC9ACE66F0BA86C347"",""assignmentId"":""ac03e295-b2fc-48b6-ba89-4585c2b62f86"",""projectId"":""a9f3d40c-5730-405c-b25e-1034c4c56f3f""}","https://test12345.live/?num_scrambled_semantic=8&num_scrambled_causal=4&num_scrambled_schematic=4&participantId=2D9786E199F44AAC9ACE66F0BA86C347&assignmentId=ac03e295-b2fc-48b6-ba89-4585c2b62f86&projectId=a9f3d40c-5730-405c-b25e-1034c4c56f3f","2D9786E199F44AAC9ACE66F0BA86C347-2025-08-07-19-18-04","","null","","images/causal_sequence/package_causal/package_causal_5.png","null","",""
"","","","","","image-button-response","96","350742","0.0-14.0-1.0-1.2","2D9786E199F44AAC9ACE66F0BA86C347","2D9786E199F44AAC9ACE66F0BA86C347","ac03e295-b2fc-48b6-ba89-4585c2b62f86","a9f3d40c-5730-405c-b25e-1034c4c56f3f","{""num_scrambled_semantic"":""8"",""num_scrambled_causal"":""4"",""num_scrambled_schematic"":""4"",""participantId"":""2D9786E199F44AAC9ACE66F0BA86C347"",""assignmentId"":""ac03e295-b2fc-48b6-ba89-4585c2b62f86"",""projectId"":""a9f3d40c-5730-405c-b25e-1034c4c56f3f""}","https://test12345.live/?num_scrambled_semantic=8&num_scrambled_causal=4&num_scrambled_schematic=4&participantId=2D9786E199F44AAC9ACE66F0BA86C347&assignmentId=ac03e295-b2fc-48b6-ba89-4585c2b62f86&projectId=a9f3d40c-5730-405c-b25e-1034c4c56f3f","2D9786E199F44AAC9ACE66F0BA86C347-2025-08-07-19-18-04","","1370","","images/causal_sequence/package_causal/package_causal_5.png","0","",""
"","","","","","image-button-response","97","352549","0.0-14.0-1.0-2.2","2D9786E199F44AAC9ACE66F0BA86C347","2D9786E199F44AAC9ACE66F0BA86C347","ac03e295-b2fc-48b6-ba89-4585c2b62f86","a9f3d40c-5730-405c-b25e-1034c4c56f3f","{""num_scrambled_semantic"":""8"",""num_scrambled_causal"":""4"",""num_scrambled_schematic"":""4"",""participantId"":""2D9786E199F44AAC9ACE66F0BA86C347"",""assignmentId"":""ac03e295-b2fc-48b6-ba89-4585c2b62f86"",""projectId"":""a9f3d40c-5730-405c-b25e-1034c4c56f3f""}","https://test12345.live/?num_scrambled_semantic=8&num_scrambled_causal=4&num_scrambled_schematic=4&participantId=2D9786E199F44AAC9ACE66F0BA86C347&assignmentId=ac03e295-b2fc-48b6-ba89-4585c2b62f86&projectId=a9f3d40c-5730-405c-b25e-1034c4c56f3f","2D9786E199F44AAC9ACE66F0BA86C347-2025-08-07-19-18-04","","null","","[]","null","",""
"","","","","","image-button-response","98","357058","0.0-14.0-1.0-0.3","2D9786E199F44AAC9ACE66F0BA86C347","2D9786E199F44AAC9ACE66F0BA86C347","ac03e295-b2fc-48b6-ba89-4585c2b62f86","a9f3d40c-5730-405c-b25e-1034c4c56f3f","{""num_scrambled_semantic"":""8"",""num_scrambled_causal"":""4"",""num_scrambled_schematic"":""4"",""participantId"":""2D9786E199F44AAC9ACE66F0BA86C347"",""assignmentId"":""ac03e295-b2fc-48b6-ba89-4585c2b62f86"",""projectId"":""a9f3d40c-5730-405c-b25e-1034c4c56f3f""}","https://test12345.live/?num_scrambled_semantic=8&num_scrambled_causal=4&num_scrambled_schematic=4&participantId=2D9786E199F44AAC9ACE66F0BA86C347&assignmentId=ac03e295-b2fc-48b6-ba89-4585c2b62f86&projectId=a9f3d40c-5730-405c-b25e-1034c4c56f3f","2D9786E199F44AAC9ACE66F0BA86C347-2025-08-07-19-18-04","","null","","images/causal_sequence/package_causal/package_causal_ten.png","null","",""
"","","","","","image-button-response","99","357592","0.0-14.0-1.0-1.3","2D9786E199F44AAC9ACE66F0BA86C347","2D9786E199F44AAC9ACE66F0BA86C347","ac03e295-b2fc-48b6-ba89-4585c2b62f86","a9f3d40c-5730-405c-b25e-1034c4c56f3f","{""num_scrambled_semantic"":""8"",""num_scrambled_causal"":""4"",""num_scrambled_schematic"":""4"",""participantId"":""2D9786E199F44AAC9ACE66F0BA86C347"",""assignmentId"":""ac03e295-b2fc-48b6-ba89-4585c2b62f86"",""projectId"":""a9f3d40c-5730-405c-b25e-1034c4c56f3f""}","https://test12345.live/?num_scrambled_semantic=8&num_scrambled_causal=4&num_scrambled_schematic=4&participantId=2D9786E199F44AAC9ACE66F0BA86C347&assignmentId=ac03e295-b2fc-48b6-ba89-4585c2b62f86&projectId=a9f3d40c-5730-405c-b25e-1034c4c56f3f","2D9786E199F44AAC9ACE66F0BA86C347-2025-08-07-19-18-04","","532","","images/causal_sequence/package_causal/package_causal_ten.png","0","",""
"","","","","","image-button-response","100","359399","0.0-14.0-1.0-2.3","2D9786E199F44AAC9ACE66F0BA86C347","2D9786E199F44AAC9ACE66F0BA86C347","ac03e295-b2fc-48b6-ba89-4585c2b62f86","a9f3d40c-5730-405c-b25e-1034c4c56f3f","{""num_scrambled_semantic"":""8"",""num_scrambled_causal"":""4"",""num_scrambled_schematic"":""4"",""participantId"":""2D9786E199F44AAC9ACE66F0BA86C347"",""assignmentId"":""ac03e295-b2fc-48b6-ba89-4585c2b62f86"",""projectId"":""a9f3d40c-5730-405c-b25e-1034c4c56f3f""}","https://test12345.live/?num_scrambled_semantic=8&num_scrambled_causal=4&num_scrambled_schematic=4&participantId=2D9786E199F44AAC9ACE66F0BA86C347&assignmentId=ac03e295-b2fc-48b6-ba89-4585c2b62f86&projectId=a9f3d40c-5730-405c-b25e-1034c4c56f3f","2D9786E199F44AAC9ACE66F0BA86C347-2025-08-07-19-18-04","","null","","[]","null","",""
"","","","","","image-button-response","101","363906","0.0-14.0-1.0-0.4","2D9786E199F44AAC9ACE66F0BA86C347","2D9786E199F44AAC9ACE66F0BA86C347","ac03e295-b2fc-48b6-ba89-4585c2b62f86","a9f3d40c-5730-405c-b25e-1034c4c56f3f","{""num_scrambled_semantic"":""8"",""num_scrambled_causal"":""4"",""num_scrambled_schematic"":""4"",""participantId"":""2D9786E199F44AAC9ACE66F0BA86C347"",""assignmentId"":""ac03e295-b2fc-48b6-ba89-4585c2b62f86"",""projectId"":""a9f3d40c-5730-405c-b25e-1034c4c56f3f""}","https://test12345.live/?num_scrambled_semantic=8&num_scrambled_causal=4&num_scrambled_schematic=4&participantId=2D9786E199F44AAC9ACE66F0BA86C347&assignmentId=ac03e295-b2fc-48b6-ba89-4585c2b62f86&projectId=a9f3d40c-5730-405c-b25e-1034c4c56f3f","2D9786E199F44AAC9ACE66F0BA86C347-2025-08-07-19-18-04","","null","","images/causal_sequence/package_causal/package_causal_3.png","null","",""
"","","","","","image-button-response","102","365117","0.0-14.0-1.0-1.4","2D9786E199F44AAC9ACE66F0BA86C347","2D9786E199F44AAC9ACE66F0BA86C347","ac03e295-b2fc-48b6-ba89-4585c2b62f86","a9f3d40c-5730-405c-b25e-1034c4c56f3f","{""num_scrambled_semantic"":""8"",""num_scrambled_causal"":""4"",""num_scrambled_schematic"":""4"",""participantId"":""2D9786E199F44AAC9ACE66F0BA86C347"",""assignmentId"":""ac03e295-b2fc-48b6-ba89-4585c2b62f86"",""projectId"":""a9f3d40c-5730-405c-b25e-1034c4c56f3f""}","https://test12345.live/?num_scrambled_semantic=8&num_scrambled_causal=4&num_scrambled_schematic=4&participantId=2D9786E199F44AAC9ACE66F0BA86C347&assignmentId=ac03e295-b2fc-48b6-ba89-4585c2b62f86&projectId=a9f3d40c-5730-405c-b25e-1034c4c56f3f","2D9786E199F44AAC9ACE66F0BA86C347-2025-08-07-19-18-04","","1207","","images/causal_sequence/package_causal/package_causal_3.png","0","",""
"","","","","","image-button-response","103","366919","0.0-14.0-1.0-2.4","2D9786E199F44AAC9ACE66F0BA86C347","2D9786E199F44AAC9ACE66F0BA86C347","ac03e295-b2fc-48b6-ba89-4585c2b62f86","a9f3d40c-5730-405c-b25e-1034c4c56f3f","{""num_scrambled_semantic"":""8"",""num_scrambled_causal"":""4"",""num_scrambled_schematic"":""4"",""participantId"":""2D9786E199F44AAC9ACE66F0BA86C347"",""assignmentId"":""ac03e295-b2fc-48b6-ba89-4585c2b62f86"",""projectId"":""a9f3d40c-5730-405c-b25e-1034c4c56f3f""}","https://test12345.live/?num_scrambled_semantic=8&num_scrambled_causal=4&num_scrambled_schematic=4&participantId=2D9786E199F44AAC9ACE66F0BA86C347&assignmentId=ac03e295-b2fc-48b6-ba89-4585c2b62f86&projectId=a9f3d40c-5730-405c-b25e-1034c4c56f3f","2D9786E199F44AAC9ACE66F0BA86C347-2025-08-07-19-18-04","","null","","[]","null","",""
"","","","","","image-button-response","104","371424","0.0-14.0-1.0-0.5","2D9786E199F44AAC9ACE66F0BA86C347","2D9786E199F44AAC9ACE66F0BA86C347","ac03e295-b2fc-48b6-ba89-4585c2b62f86","a9f3d40c-5730-405c-b25e-1034c4c56f3f","{""num_scrambled_semantic"":""8"",""num_scrambled_causal"":""4"",""num_scrambled_schematic"":""4"",""participantId"":""2D9786E199F44AAC9ACE66F0BA86C347"",""assignmentId"":""ac03e295-b2fc-48b6-ba89-4585c2b62f86"",""projectId"":""a9f3d40c-5730-405c-b25e-1034c4c56f3f""}","https://test12345.live/?num_scrambled_semantic=8&num_scrambled_causal=4&num_scrambled_schematic=4&participantId=2D9786E199F44AAC9ACE66F0BA86C347&assignmentId=ac03e295-b2fc-48b6-ba89-4585c2b62f86&projectId=a9f3d40c-5730-405c-b25e-1034c4c56f3f","2D9786E199F44AAC9ACE66F0BA86C347-2025-08-07-19-18-04","","null","","images/causal_sequence/package_causal/package_causal_2.png","null","",""
"","","","","","image-button-response","105","371897","0.0-14.0-1.0-1.5","2D9786E199F44AAC9ACE66F0BA86C347","2D9786E199F44AAC9ACE66F0BA86C347","ac03e295-b2fc-48b6-ba89-4585c2b62f86","a9f3d40c-5730-405c-b25e-1034c4c56f3f","{""num_scrambled_semantic"":""8"",""num_scrambled_causal"":""4"",""num_scrambled_schematic"":""4"",""participantId"":""2D9786E199F44AAC9ACE66F0BA86C347"",""assignmentId"":""ac03e295-b2fc-48b6-ba89-4585c2b62f86"",""projectId"":""a9f3d40c-5730-405c-b25e-1034c4c56f3f""}","https://test12345.live/?num_scrambled_semantic=8&num_scrambled_causal=4&num_scrambled_schematic=4&participantId=2D9786E199F44AAC9ACE66F0BA86C347&assignmentId=ac03e295-b2fc-48b6-ba89-4585c2b62f86&projectId=a9f3d40c-5730-405c-b25e-1034c4c56f3f","2D9786E199F44AAC9ACE66F0BA86C347-2025-08-07-19-18-04","","469","","images/causal_sequence/package_causal/package_causal_2.png","0","",""
"","","","","","image-button-response","106","373704","0.0-14.0-1.0-2.5","2D9786E199F44AAC9ACE66F0BA86C347","2D9786E199F44AAC9ACE66F0BA86C347","ac03e295-b2fc-48b6-ba89-4585c2b62f86","a9f3d40c-5730-405c-b25e-1034c4c56f3f","{""num_scrambled_semantic"":""8"",""num_scrambled_causal"":""4"",""num_scrambled_schematic"":""4"",""participantId"":""2D9786E199F44AAC9ACE66F0BA86C347"",""assignmentId"":""ac03e295-b2fc-48b6-ba89-4585c2b62f86"",""projectId"":""a9f3d40c-5730-405c-b25e-1034c4c56f3f""}","https://test12345.live/?num_scrambled_semantic=8&num_scrambled_causal=4&num_scrambled_schematic=4&participantId=2D9786E199F44AAC9ACE66F0BA86C347&assignmentId=ac03e295-b2fc-48b6-ba89-4585c2b62f86&projectId=a9f3d40c-5730-405c-b25e-1034c4c56f3f","2D9786E199F44AAC9ACE66F0BA86C347-2025-08-07-19-18-04","","null","","[]","null","",""
"","","","","","image-button-response","107","378211","0.0-14.0-1.0-0.6","2D9786E199F44AAC9ACE66F0BA86C347","2D9786E199F44AAC9ACE66F0BA86C347","ac03e295-b2fc-48b6-ba89-4585c2b62f86","a9f3d40c-5730-405c-b25e-1034c4c56f3f","{""num_scrambled_semantic"":""8"",""num_scrambled_causal"":""4"",""num_scrambled_schematic"":""4"",""participantId"":""2D9786E199F44AAC9ACE66F0BA86C347"",""assignmentId"":""ac03e295-b2fc-48b6-ba89-4585c2b62f86"",""projectId"":""a9f3d40c-5730-405c-b25e-1034c4c56f3f""}","https://test12345.live/?num_scrambled_semantic=8&num_scrambled_causal=4&num_scrambled_schematic=4&participantId=2D9786E199F44AAC9ACE66F0BA86C347&assignmentId=ac03e295-b2fc-48b6-ba89-4585c2b62f86&projectId=a9f3d40c-5730-405c-b25e-1034c4c56f3f","2D9786E199F44AAC9ACE66F0BA86C347-2025-08-07-19-18-04","","null","","images/causal_sequence/package_causal/package_causal_8.png","null","",""
"","","","","","image-button-response","108","378959","0.0-14.0-1.0-1.6","2D9786E199F44AAC9ACE66F0BA86C347","2D9786E199F44AAC9ACE66F0BA86C347","ac03e295-b2fc-48b6-ba89-4585c2b62f86","a9f3d40c-5730-405c-b25e-1034c4c56f3f","{""num_scrambled_semantic"":""8"",""num_scrambled_causal"":""4"",""num_scrambled_schematic"":""4"",""participantId"":""2D9786E199F44AAC9ACE66F0BA86C347"",""assignmentId"":""ac03e295-b2fc-48b6-ba89-4585c2b62f86"",""projectId"":""a9f3d40c-5730-405c-b25e-1034c4c56f3f""}","https://test12345.live/?num_scrambled_semantic=8&num_scrambled_causal=4&num_scrambled_schematic=4&participantId=2D9786E199F44AAC9ACE66F0BA86C347&assignmentId=ac03e295-b2fc-48b6-ba89-4585c2b62f86&projectId=a9f3d40c-5730-405c-b25e-1034c4c56f3f","2D9786E199F44AAC9ACE66F0BA86C347-2025-08-07-19-18-04","","745","","images/causal_sequence/package_causal/package_causal_8.png","0","",""
"","","","","","image-button-response","109","380765","0.0-14.0-1.0-2.6","2D9786E199F44AAC9ACE66F0BA86C347","2D9786E199F44AAC9ACE66F0BA86C347","ac03e295-b2fc-48b6-ba89-4585c2b62f86","a9f3d40c-5730-405c-b25e-1034c4c56f3f","{""num_scrambled_semantic"":""8"",""num_scrambled_causal"":""4"",""num_scrambled_schematic"":""4"",""participantId"":""2D9786E199F44AAC9ACE66F0BA86C347"",""assignmentId"":""ac03e295-b2fc-48b6-ba89-4585c2b62f86"",""projectId"":""a9f3d40c-5730-405c-b25e-1034c4c56f3f""}","https://test12345.live/?num_scrambled_semantic=8&num_scrambled_causal=4&num_scrambled_schematic=4&participantId=2D9786E199F44AAC9ACE66F0BA86C347&assignmentId=ac03e295-b2fc-48b6-ba89-4585c2b62f86&projectId=a9f3d40c-5730-405c-b25e-1034c4c56f3f","2D9786E199F44AAC9ACE66F0BA86C347-2025-08-07-19-18-04","","null","","[]","null","",""
"","","","","","image-button-response","110","385273","0.0-14.0-1.0-0.7","2D9786E199F44AAC9ACE66F0BA86C347","2D9786E199F44AAC9ACE66F0BA86C347","ac03e295-b2fc-48b6-ba89-4585c2b62f86","a9f3d40c-5730-405c-b25e-1034c4c56f3f","{""num_scrambled_semantic"":""8"",""num_scrambled_causal"":""4"",""num_scrambled_schematic"":""4"",""participantId"":""2D9786E199F44AAC9ACE66F0BA86C347"",""assignmentId"":""ac03e295-b2fc-48b6-ba89-4585c2b62f86"",""projectId"":""a9f3d40c-5730-405c-b25e-1034c4c56f3f""}","https://test12345.live/?num_scrambled_semantic=8&num_scrambled_causal=4&num_scrambled_schematic=4&participantId=2D9786E199F44AAC9ACE66F0BA86C347&assignmentId=ac03e295-b2fc-48b6-ba89-4585c2b62f86&projectId=a9f3d40c-5730-405c-b25e-1034c4c56f3f","2D9786E199F44AAC9ACE66F0BA86C347-2025-08-07-19-18-04","","null","","images/causal_sequence/package_causal/package_causal_7.png","null","",""
"","","","","","image-button-response","111","386087","0.0-14.0-1.0-1.7","2D9786E199F44AAC9ACE66F0BA86C347","2D9786E199F44AAC9ACE66F0BA86C347","ac03e295-b2fc-48b6-ba89-4585c2b62f86","a9f3d40c-5730-405c-b25e-1034c4c56f3f","{""num_scrambled_semantic"":""8"",""num_scrambled_causal"":""4"",""num_scrambled_schematic"":""4"",""participantId"":""2D9786E199F44AAC9ACE66F0BA86C347"",""assignmentId"":""ac03e295-b2fc-48b6-ba89-4585c2b62f86"",""projectId"":""a9f3d40c-5730-405c-b25e-1034c4c56f3f""}","https://test12345.live/?num_scrambled_semantic=8&num_scrambled_causal=4&num_scrambled_schematic=4&participantId=2D9786E199F44AAC9ACE66F0BA86C347&assignmentId=ac03e295-b2fc-48b6-ba89-4585c2b62f86&projectId=a9f3d40c-5730-405c-b25e-1034c4c56f3f","2D9786E199F44AAC9ACE66F0BA86C347-2025-08-07-19-18-04","","813","","images/causal_sequence/package_causal/package_causal_7.png","0","",""
"","","","","","image-button-response","112","387894","0.0-14.0-1.0-2.7","2D9786E199F44AAC9ACE66F0BA86C347","2D9786E199F44AAC9ACE66F0BA86C347","ac03e295-b2fc-48b6-ba89-4585c2b62f86","a9f3d40c-5730-405c-b25e-1034c4c56f3f","{""num_scrambled_semantic"":""8"",""num_scrambled_causal"":""4"",""num_scrambled_schematic"":""4"",""participantId"":""2D9786E199F44AAC9ACE66F0BA86C347"",""assignmentId"":""ac03e295-b2fc-48b6-ba89-4585c2b62f86"",""projectId"":""a9f3d40c-5730-405c-b25e-1034c4c56f3f""}","https://test12345.live/?num_scrambled_semantic=8&num_scrambled_causal=4&num_scrambled_schematic=4&participantId=2D9786E199F44AAC9ACE66F0BA86C347&assignmentId=ac03e295-b2fc-48b6-ba89-4585c2b62f86&projectId=a9f3d40c-5730-405c-b25e-1034c4c56f3f","2D9786E199F44AAC9ACE66F0BA86C347-2025-08-07-19-18-04","","null","","[]","null","",""
"","","","","","image-button-response","113","392399","0.0-14.0-1.0-0.8","2D9786E199F44AAC9ACE66F0BA86C347","2D9786E199F44AAC9ACE66F0BA86C347","ac03e295-b2fc-48b6-ba89-4585c2b62f86","a9f3d40c-5730-405c-b25e-1034c4c56f3f","{""num_scrambled_semantic"":""8"",""num_scrambled_causal"":""4"",""num_scrambled_schematic"":""4"",""participantId"":""2D9786E199F44AAC9ACE66F0BA86C347"",""assignmentId"":""ac03e295-b2fc-48b6-ba89-4585c2b62f86"",""projectId"":""a9f3d40c-5730-405c-b25e-1034c4c56f3f""}","https://test12345.live/?num_scrambled_semantic=8&num_scrambled_causal=4&num_scrambled_schematic=4&participantId=2D9786E199F44AAC9ACE66F0BA86C347&assignmentId=ac03e295-b2fc-48b6-ba89-4585c2b62f86&projectId=a9f3d40c-5730-405c-b25e-1034c4c56f3f","2D9786E199F44AAC9ACE66F0BA86C347-2025-08-07-19-18-04","","null","","images/causal_sequence/package_causal/package_causal_1.png","null","",""
"","","","","","image-button-response","114","392943","0.0-14.0-1.0-1.8","2D9786E199F44AAC9ACE66F0BA86C347","2D9786E199F44AAC9ACE66F0BA86C347","ac03e295-b2fc-48b6-ba89-4585c2b62f86","a9f3d40c-5730-405c-b25e-1034c4c56f3f","{""num_scrambled_semantic"":""8"",""num_scrambled_causal"":""4"",""num_scrambled_schematic"":""4"",""participantId"":""2D9786E199F44AAC9ACE66F0BA86C347"",""assignmentId"":""ac03e295-b2fc-48b6-ba89-4585c2b62f86"",""projectId"":""a9f3d40c-5730-405c-b25e-1034c4c56f3f""}","https://test12345.live/?num_scrambled_semantic=8&num_scrambled_causal=4&num_scrambled_schematic=4&participantId=2D9786E199F44AAC9ACE66F0BA86C347&assignmentId=ac03e295-b2fc-48b6-ba89-4585c2b62f86&projectId=a9f3d40c-5730-405c-b25e-1034c4c56f3f","2D9786E199F44AAC9ACE66F0BA86C347-2025-08-07-19-18-04","","541","","images/causal_sequence/package_causal/package_causal_1.png","0","",""
