"success","timeout","failed_images","failed_audio","failed_video","trial_type","trial_index","time_elapsed","internal_node_id","subject","subject_id","study_id","session_id","urlvar","current_url","audio_id","view_history","rt","device_id","stimulus","response","estimated_stimulus_onset","seq_name"
"true","false","[]","[]","[]","preload","0","4453","0.0-0.0","2DF42B5DF725435CA8D5DDD1F62096E0","2DF42B5DF725435CA8D5DDD1F62096E0","0198eedb-1f58-7746-81d7-b17f5b2a5326","0198ee3c-27ac-7803-a9ea-f3b4ad4ad678","{""num_scrambled_semantic"":""8"",""num_scrambled_causal"":""4"",""num_scrambled_schematic"":""4"",""participantId"":""2DF42B5DF725435CA8D5DDD1F62096E0"",""assignmentId"":""0198eedb-1f58-7746-81d7-b17f5b2a5326"",""projectId"":""0198ee3c-27ac-7803-a9ea-f3b4ad4ad678""}","https://test12345.live/?num_scrambled_semantic=8&num_scrambled_causal=4&num_scrambled_schematic=4&participantId=2DF42B5DF725435CA8D5DDD1F62096E0&assignmentId=0198eedb-1f58-7746-81d7-b17f5b2a5326&projectId=0198ee3c-27ac-7803-a9ea-f3b4ad4ad678","2DF42B5DF725435CA8D5DDD1F62096E0-2025-08-28-04-58-42","","","","","","",""
"","","","","","instructions","1","23621","0.0-1.0","2DF42B5DF725435CA8D5DDD1F62096E0","2DF42B5DF725435CA8D5DDD1F62096E0","0198eedb-1f58-7746-81d7-b17f5b2a5326","0198ee3c-27ac-7803-a9ea-f3b4ad4ad678","{""num_scrambled_semantic"":""8"",""num_scrambled_causal"":""4"",""num_scrambled_schematic"":""4"",""participantId"":""2DF42B5DF725435CA8D5DDD1F62096E0"",""assignmentId"":""0198eedb-1f58-7746-81d7-b17f5b2a5326"",""projectId"":""0198ee3c-27ac-7803-a9ea-f3b4ad4ad678""}","https://test12345.live/?num_scrambled_semantic=8&num_scrambled_causal=4&num_scrambled_schematic=4&participantId=2DF42B5DF725435CA8D5DDD1F62096E0&assignmentId=0198eedb-1f58-7746-81d7-b17f5b2a5326&projectId=0198ee3c-27ac-7803-a9ea-f3b4ad4ad678","2DF42B5DF725435CA8D5DDD1F62096E0-2025-08-28-04-58-42","[{""page_index"":0,""viewing_time"":19167}]","19167","","","","",""
"","","","","","instructions","2","28118","0.0-2.0","2DF42B5DF725435CA8D5DDD1F62096E0","2DF42B5DF725435CA8D5DDD1F62096E0","0198eedb-1f58-7746-81d7-b17f5b2a5326","0198ee3c-27ac-7803-a9ea-f3b4ad4ad678","{""num_scrambled_semantic"":""8"",""num_scrambled_causal"":""4"",""num_scrambled_schematic"":""4"",""participantId"":""2DF42B5DF725435CA8D5DDD1F62096E0"",""assignmentId"":""0198eedb-1f58-7746-81d7-b17f5b2a5326"",""projectId"":""0198ee3c-27ac-7803-a9ea-f3b4ad4ad678""}","https://test12345.live/?num_scrambled_semantic=8&num_scrambled_causal=4&num_scrambled_schematic=4&participantId=2DF42B5DF725435CA8D5DDD1F62096E0&assignmentId=0198eedb-1f58-7746-81d7-b17f5b2a5326&projectId=0198ee3c-27ac-7803-a9ea-f3b4ad4ad678","2DF42B5DF725435CA8D5DDD1F62096E0-2025-08-28-04-58-42","[{""page_index"":0,""viewing_time"":4496}]","4497","","","","",""
"true","","","","","fullscreen","3","30992","0.0-3.0","2DF42B5DF725435CA8D5DDD1F62096E0","2DF42B5DF725435CA8D5DDD1F62096E0","0198eedb-1f58-7746-81d7-b17f5b2a5326","0198ee3c-27ac-7803-a9ea-f3b4ad4ad678","{""num_scrambled_semantic"":""8"",""num_scrambled_causal"":""4"",""num_scrambled_schematic"":""4"",""participantId"":""2DF42B5DF725435CA8D5DDD1F62096E0"",""assignmentId"":""0198eedb-1f58-7746-81d7-b17f5b2a5326"",""projectId"":""0198ee3c-27ac-7803-a9ea-f3b4ad4ad678""}","https://test12345.live/?num_scrambled_semantic=8&num_scrambled_causal=4&num_scrambled_schematic=4&participantId=2DF42B5DF725435CA8D5DDD1F62096E0&assignmentId=0198eedb-1f58-7746-81d7-b17f5b2a5326&projectId=0198ee3c-27ac-7803-a9ea-f3b4ad4ad678","2DF42B5DF725435CA8D5DDD1F62096E0-2025-08-28-04-58-42","","1869","","","","",""
"","","","","","initialize-microphone","4","38140","0.0-4.0-0.0","2DF42B5DF725435CA8D5DDD1F62096E0","2DF42B5DF725435CA8D5DDD1F62096E0","0198eedb-1f58-7746-81d7-b17f5b2a5326","0198ee3c-27ac-7803-a9ea-f3b4ad4ad678","{""num_scrambled_semantic"":""8"",""num_scrambled_causal"":""4"",""num_scrambled_schematic"":""4"",""participantId"":""2DF42B5DF725435CA8D5DDD1F62096E0"",""assignmentId"":""0198eedb-1f58-7746-81d7-b17f5b2a5326"",""projectId"":""0198ee3c-27ac-7803-a9ea-f3b4ad4ad678""}","https://test12345.live/?num_scrambled_semantic=8&num_scrambled_causal=4&num_scrambled_schematic=4&participantId=2DF42B5DF725435CA8D5DDD1F62096E0&assignmentId=0198eedb-1f58-7746-81d7-b17f5b2a5326&projectId=0198ee3c-27ac-7803-a9ea-f3b4ad4ad678","2DF42B5DF725435CA8D5DDD1F62096E0-2025-08-28-04-58-42","","","19mERetAJwWm9yvQqu2efGUaq4fL2DsyHPn5cFwWdBg=","","","",""
"","","","","","html-audio-response","5","50275","0.0-4.0-1.0","2DF42B5DF725435CA8D5DDD1F62096E0","2DF42B5DF725435CA8D5DDD1F62096E0","0198eedb-1f58-7746-81d7-b17f5b2a5326","0198ee3c-27ac-7803-a9ea-f3b4ad4ad678","{""num_scrambled_semantic"":""8"",""num_scrambled_causal"":""4"",""num_scrambled_schematic"":""4"",""participantId"":""2DF42B5DF725435CA8D5DDD1F62096E0"",""assignmentId"":""0198eedb-1f58-7746-81d7-b17f5b2a5326"",""projectId"":""0198ee3c-27ac-7803-a9ea-f3b4ad4ad678""}","https://test12345.live/?num_scrambled_semantic=8&num_scrambled_causal=4&num_scrambled_schematic=4&participantId=2DF42B5DF725435CA8D5DDD1F62096E0&assignmentId=0198eedb-1f58-7746-81d7-b17f5b2a5326&projectId=0198ee3c-27ac-7803-a9ea-f3b4ad4ad678","2DF42B5DF725435CA8D5DDD1F62096E0-2025-08-28-04-58-42","","4296","","<span style=""color: red; font-size: 24px""> NOW RECORDING</span>
        <p>Please test Microphone</p>","","3",""
"","","","","","html-button-response","6","53082","0.0-4.0-2.0","2DF42B5DF725435CA8D5DDD1F62096E0","2DF42B5DF725435CA8D5DDD1F62096E0","0198eedb-1f58-7746-81d7-b17f5b2a5326","0198ee3c-27ac-7803-a9ea-f3b4ad4ad678","{""num_scrambled_semantic"":""8"",""num_scrambled_causal"":""4"",""num_scrambled_schematic"":""4"",""participantId"":""2DF42B5DF725435CA8D5DDD1F62096E0"",""assignmentId"":""0198eedb-1f58-7746-81d7-b17f5b2a5326"",""projectId"":""0198ee3c-27ac-7803-a9ea-f3b4ad4ad678""}","https://test12345.live/?num_scrambled_semantic=8&num_scrambled_causal=4&num_scrambled_schematic=4&participantId=2DF42B5DF725435CA8D5DDD1F62096E0&assignmentId=0198eedb-1f58-7746-81d7-b17f5b2a5326&projectId=0198ee3c-27ac-7803-a9ea-f3b4ad4ad678","2DF42B5DF725435CA8D5DDD1F62096E0-2025-08-28-04-58-42","","2806","","<p style=""font-size:48px; color:red;"">Is Microphone OK?</p>","1","",""
"","","","","","instructions","7","68035","0.0-5.0","2DF42B5DF725435CA8D5DDD1F62096E0","2DF42B5DF725435CA8D5DDD1F62096E0","0198eedb-1f58-7746-81d7-b17f5b2a5326","0198ee3c-27ac-7803-a9ea-f3b4ad4ad678","{""num_scrambled_semantic"":""8"",""num_scrambled_causal"":""4"",""num_scrambled_schematic"":""4"",""participantId"":""2DF42B5DF725435CA8D5DDD1F62096E0"",""assignmentId"":""0198eedb-1f58-7746-81d7-b17f5b2a5326"",""projectId"":""0198ee3c-27ac-7803-a9ea-f3b4ad4ad678""}","https://test12345.live/?num_scrambled_semantic=8&num_scrambled_causal=4&num_scrambled_schematic=4&participantId=2DF42B5DF725435CA8D5DDD1F62096E0&assignmentId=0198eedb-1f58-7746-81d7-b17f5b2a5326&projectId=0198ee3c-27ac-7803-a9ea-f3b4ad4ad678","2DF42B5DF725435CA8D5DDD1F62096E0-2025-08-28-04-58-42","[{""page_index"":0,""viewing_time"":3736},{""page_index"":1,""viewing_time"":11217}]","14953","","","","",""
"","","","","","image-button-response","8","74052","0.0-6.0-0.0","2DF42B5DF725435CA8D5DDD1F62096E0","2DF42B5DF725435CA8D5DDD1F62096E0","0198eedb-1f58-7746-81d7-b17f5b2a5326","0198ee3c-27ac-7803-a9ea-f3b4ad4ad678","{""num_scrambled_semantic"":""8"",""num_scrambled_causal"":""4"",""num_scrambled_schematic"":""4"",""participantId"":""2DF42B5DF725435CA8D5DDD1F62096E0"",""assignmentId"":""0198eedb-1f58-7746-81d7-b17f5b2a5326"",""projectId"":""0198ee3c-27ac-7803-a9ea-f3b4ad4ad678""}","https://test12345.live/?num_scrambled_semantic=8&num_scrambled_causal=4&num_scrambled_schematic=4&participantId=2DF42B5DF725435CA8D5DDD1F62096E0&assignmentId=0198eedb-1f58-7746-81d7-b17f5b2a5326&projectId=0198ee3c-27ac-7803-a9ea-f3b4ad4ad678","2DF42B5DF725435CA8D5DDD1F62096E0-2025-08-28-04-58-42","","null","","images/instructions/movie_0.png","null","",""
"","","","","","image-button-response","9","78578","0.0-6.0-1.0-0.0","2DF42B5DF725435CA8D5DDD1F62096E0","2DF42B5DF725435CA8D5DDD1F62096E0","0198eedb-1f58-7746-81d7-b17f5b2a5326","0198ee3c-27ac-7803-a9ea-f3b4ad4ad678","{""num_scrambled_semantic"":""8"",""num_scrambled_causal"":""4"",""num_scrambled_schematic"":""4"",""participantId"":""2DF42B5DF725435CA8D5DDD1F62096E0"",""assignmentId"":""0198eedb-1f58-7746-81d7-b17f5b2a5326"",""projectId"":""0198ee3c-27ac-7803-a9ea-f3b4ad4ad678""}","https://test12345.live/?num_scrambled_semantic=8&num_scrambled_causal=4&num_scrambled_schematic=4&participantId=2DF42B5DF725435CA8D5DDD1F62096E0&assignmentId=0198eedb-1f58-7746-81d7-b17f5b2a5326&projectId=0198ee3c-27ac-7803-a9ea-f3b4ad4ad678","2DF42B5DF725435CA8D5DDD1F62096E0-2025-08-28-04-58-42","","null","","images/instructions/movie_1.png","null","",""
"","","","","","image-button-response","10","80341","0.0-6.0-1.0-1.0","2DF42B5DF725435CA8D5DDD1F62096E0","2DF42B5DF725435CA8D5DDD1F62096E0","0198eedb-1f58-7746-81d7-b17f5b2a5326","0198ee3c-27ac-7803-a9ea-f3b4ad4ad678","{""num_scrambled_semantic"":""8"",""num_scrambled_causal"":""4"",""num_scrambled_schematic"":""4"",""participantId"":""2DF42B5DF725435CA8D5DDD1F62096E0"",""assignmentId"":""0198eedb-1f58-7746-81d7-b17f5b2a5326"",""projectId"":""0198ee3c-27ac-7803-a9ea-f3b4ad4ad678""}","https://test12345.live/?num_scrambled_semantic=8&num_scrambled_causal=4&num_scrambled_schematic=4&participantId=2DF42B5DF725435CA8D5DDD1F62096E0&assignmentId=0198eedb-1f58-7746-81d7-b17f5b2a5326&projectId=0198ee3c-27ac-7803-a9ea-f3b4ad4ad678","2DF42B5DF725435CA8D5DDD1F62096E0-2025-08-28-04-58-42","","1761","","images/instructions/movie_1.png","0","",""
"","","","","","image-button-response","11","82156","0.0-6.0-1.0-2.0","2DF42B5DF725435CA8D5DDD1F62096E0","2DF42B5DF725435CA8D5DDD1F62096E0","0198eedb-1f58-7746-81d7-b17f5b2a5326","0198ee3c-27ac-7803-a9ea-f3b4ad4ad678","{""num_scrambled_semantic"":""8"",""num_scrambled_causal"":""4"",""num_scrambled_schematic"":""4"",""participantId"":""2DF42B5DF725435CA8D5DDD1F62096E0"",""assignmentId"":""0198eedb-1f58-7746-81d7-b17f5b2a5326"",""projectId"":""0198ee3c-27ac-7803-a9ea-f3b4ad4ad678""}","https://test12345.live/?num_scrambled_semantic=8&num_scrambled_causal=4&num_scrambled_schematic=4&participantId=2DF42B5DF725435CA8D5DDD1F62096E0&assignmentId=0198eedb-1f58-7746-81d7-b17f5b2a5326&projectId=0198ee3c-27ac-7803-a9ea-f3b4ad4ad678","2DF42B5DF725435CA8D5DDD1F62096E0-2025-08-28-04-58-42","","null","","[]","null","",""
"","","","","","image-button-response","12","86677","0.0-6.0-1.0-0.1","2DF42B5DF725435CA8D5DDD1F62096E0","2DF42B5DF725435CA8D5DDD1F62096E0","0198eedb-1f58-7746-81d7-b17f5b2a5326","0198ee3c-27ac-7803-a9ea-f3b4ad4ad678","{""num_scrambled_semantic"":""8"",""num_scrambled_causal"":""4"",""num_scrambled_schematic"":""4"",""participantId"":""2DF42B5DF725435CA8D5DDD1F62096E0"",""assignmentId"":""0198eedb-1f58-7746-81d7-b17f5b2a5326"",""projectId"":""0198ee3c-27ac-7803-a9ea-f3b4ad4ad678""}","https://test12345.live/?num_scrambled_semantic=8&num_scrambled_causal=4&num_scrambled_schematic=4&participantId=2DF42B5DF725435CA8D5DDD1F62096E0&assignmentId=0198eedb-1f58-7746-81d7-b17f5b2a5326&projectId=0198ee3c-27ac-7803-a9ea-f3b4ad4ad678","2DF42B5DF725435CA8D5DDD1F62096E0-2025-08-28-04-58-42","","null","","images/instructions/movie_2.png","null","",""
"","","","","","image-button-response","13","87636","0.0-6.0-1.0-1.1","2DF42B5DF725435CA8D5DDD1F62096E0","2DF42B5DF725435CA8D5DDD1F62096E0","0198eedb-1f58-7746-81d7-b17f5b2a5326","0198ee3c-27ac-7803-a9ea-f3b4ad4ad678","{""num_scrambled_semantic"":""8"",""num_scrambled_causal"":""4"",""num_scrambled_schematic"":""4"",""participantId"":""2DF42B5DF725435CA8D5DDD1F62096E0"",""assignmentId"":""0198eedb-1f58-7746-81d7-b17f5b2a5326"",""projectId"":""0198ee3c-27ac-7803-a9ea-f3b4ad4ad678""}","https://test12345.live/?num_scrambled_semantic=8&num_scrambled_causal=4&num_scrambled_schematic=4&participantId=2DF42B5DF725435CA8D5DDD1F62096E0&assignmentId=0198eedb-1f58-7746-81d7-b17f5b2a5326&projectId=0198ee3c-27ac-7803-a9ea-f3b4ad4ad678","2DF42B5DF725435CA8D5DDD1F62096E0-2025-08-28-04-58-42","","959","","images/instructions/movie_2.png","1","",""
"","","","","","image-button-response","14","89448","0.0-6.0-1.0-2.1","2DF42B5DF725435CA8D5DDD1F62096E0","2DF42B5DF725435CA8D5DDD1F62096E0","0198eedb-1f58-7746-81d7-b17f5b2a5326","0198ee3c-27ac-7803-a9ea-f3b4ad4ad678","{""num_scrambled_semantic"":""8"",""num_scrambled_causal"":""4"",""num_scrambled_schematic"":""4"",""participantId"":""2DF42B5DF725435CA8D5DDD1F62096E0"",""assignmentId"":""0198eedb-1f58-7746-81d7-b17f5b2a5326"",""projectId"":""0198ee3c-27ac-7803-a9ea-f3b4ad4ad678""}","https://test12345.live/?num_scrambled_semantic=8&num_scrambled_causal=4&num_scrambled_schematic=4&participantId=2DF42B5DF725435CA8D5DDD1F62096E0&assignmentId=0198eedb-1f58-7746-81d7-b17f5b2a5326&projectId=0198ee3c-27ac-7803-a9ea-f3b4ad4ad678","2DF42B5DF725435CA8D5DDD1F62096E0-2025-08-28-04-58-42","","null","","[]","null","",""
"","","","","","image-button-response","15","94106","0.0-6.0-1.0-0.2","2DF42B5DF725435CA8D5DDD1F62096E0","2DF42B5DF725435CA8D5DDD1F62096E0","0198eedb-1f58-7746-81d7-b17f5b2a5326","0198ee3c-27ac-7803-a9ea-f3b4ad4ad678","{""num_scrambled_semantic"":""8"",""num_scrambled_causal"":""4"",""num_scrambled_schematic"":""4"",""participantId"":""2DF42B5DF725435CA8D5DDD1F62096E0"",""assignmentId"":""0198eedb-1f58-7746-81d7-b17f5b2a5326"",""projectId"":""0198ee3c-27ac-7803-a9ea-f3b4ad4ad678""}","https://test12345.live/?num_scrambled_semantic=8&num_scrambled_causal=4&num_scrambled_schematic=4&participantId=2DF42B5DF725435CA8D5DDD1F62096E0&assignmentId=0198eedb-1f58-7746-81d7-b17f5b2a5326&projectId=0198ee3c-27ac-7803-a9ea-f3b4ad4ad678","2DF42B5DF725435CA8D5DDD1F62096E0-2025-08-28-04-58-42","","null","","images/instructions/movie_3.png","null","",""
"","","","","","image-button-response","16","94933","0.0-6.0-1.0-1.2","2DF42B5DF725435CA8D5DDD1F62096E0","2DF42B5DF725435CA8D5DDD1F62096E0","0198eedb-1f58-7746-81d7-b17f5b2a5326","0198ee3c-27ac-7803-a9ea-f3b4ad4ad678","{""num_scrambled_semantic"":""8"",""num_scrambled_causal"":""4"",""num_scrambled_schematic"":""4"",""participantId"":""2DF42B5DF725435CA8D5DDD1F62096E0"",""assignmentId"":""0198eedb-1f58-7746-81d7-b17f5b2a5326"",""projectId"":""0198ee3c-27ac-7803-a9ea-f3b4ad4ad678""}","https://test12345.live/?num_scrambled_semantic=8&num_scrambled_causal=4&num_scrambled_schematic=4&participantId=2DF42B5DF725435CA8D5DDD1F62096E0&assignmentId=0198eedb-1f58-7746-81d7-b17f5b2a5326&projectId=0198ee3c-27ac-7803-a9ea-f3b4ad4ad678","2DF42B5DF725435CA8D5DDD1F62096E0-2025-08-28-04-58-42","","825","","images/instructions/movie_3.png","0","",""
"","","","","","image-button-response","17","96954","0.0-6.0-1.0-2.2","2DF42B5DF725435CA8D5DDD1F62096E0","2DF42B5DF725435CA8D5DDD1F62096E0","0198eedb-1f58-7746-81d7-b17f5b2a5326","0198ee3c-27ac-7803-a9ea-f3b4ad4ad678","{""num_scrambled_semantic"":""8"",""num_scrambled_causal"":""4"",""num_scrambled_schematic"":""4"",""participantId"":""2DF42B5DF725435CA8D5DDD1F62096E0"",""assignmentId"":""0198eedb-1f58-7746-81d7-b17f5b2a5326"",""projectId"":""0198ee3c-27ac-7803-a9ea-f3b4ad4ad678""}","https://test12345.live/?num_scrambled_semantic=8&num_scrambled_causal=4&num_scrambled_schematic=4&participantId=2DF42B5DF725435CA8D5DDD1F62096E0&assignmentId=0198eedb-1f58-7746-81d7-b17f5b2a5326&projectId=0198ee3c-27ac-7803-a9ea-f3b4ad4ad678","2DF42B5DF725435CA8D5DDD1F62096E0-2025-08-28-04-58-42","","null","","[]","null","",""
"","","","","","image-button-response","18","101976","0.0-6.0-1.0-0.3","2DF42B5DF725435CA8D5DDD1F62096E0","2DF42B5DF725435CA8D5DDD1F62096E0","0198eedb-1f58-7746-81d7-b17f5b2a5326","0198ee3c-27ac-7803-a9ea-f3b4ad4ad678","{""num_scrambled_semantic"":""8"",""num_scrambled_causal"":""4"",""num_scrambled_schematic"":""4"",""participantId"":""2DF42B5DF725435CA8D5DDD1F62096E0"",""assignmentId"":""0198eedb-1f58-7746-81d7-b17f5b2a5326"",""projectId"":""0198ee3c-27ac-7803-a9ea-f3b4ad4ad678""}","https://test12345.live/?num_scrambled_semantic=8&num_scrambled_causal=4&num_scrambled_schematic=4&participantId=2DF42B5DF725435CA8D5DDD1F62096E0&assignmentId=0198eedb-1f58-7746-81d7-b17f5b2a5326&projectId=0198ee3c-27ac-7803-a9ea-f3b4ad4ad678","2DF42B5DF725435CA8D5DDD1F62096E0-2025-08-28-04-58-42","","null","","images/instructions/movie_4.png","null","",""
"","","","","","image-button-response","19","102908","0.0-6.0-1.0-1.3","2DF42B5DF725435CA8D5DDD1F62096E0","2DF42B5DF725435CA8D5DDD1F62096E0","0198eedb-1f58-7746-81d7-b17f5b2a5326","0198ee3c-27ac-7803-a9ea-f3b4ad4ad678","{""num_scrambled_semantic"":""8"",""num_scrambled_causal"":""4"",""num_scrambled_schematic"":""4"",""participantId"":""2DF42B5DF725435CA8D5DDD1F62096E0"",""assignmentId"":""0198eedb-1f58-7746-81d7-b17f5b2a5326"",""projectId"":""0198ee3c-27ac-7803-a9ea-f3b4ad4ad678""}","https://test12345.live/?num_scrambled_semantic=8&num_scrambled_causal=4&num_scrambled_schematic=4&participantId=2DF42B5DF725435CA8D5DDD1F62096E0&assignmentId=0198eedb-1f58-7746-81d7-b17f5b2a5326&projectId=0198ee3c-27ac-7803-a9ea-f3b4ad4ad678","2DF42B5DF725435CA8D5DDD1F62096E0-2025-08-28-04-58-42","","932","","images/instructions/movie_4.png","0","",""
"","","","","","image-button-response","20","104721","0.0-6.0-1.0-2.3","2DF42B5DF725435CA8D5DDD1F62096E0","2DF42B5DF725435CA8D5DDD1F62096E0","0198eedb-1f58-7746-81d7-b17f5b2a5326","0198ee3c-27ac-7803-a9ea-f3b4ad4ad678","{""num_scrambled_semantic"":""8"",""num_scrambled_causal"":""4"",""num_scrambled_schematic"":""4"",""participantId"":""2DF42B5DF725435CA8D5DDD1F62096E0"",""assignmentId"":""0198eedb-1f58-7746-81d7-b17f5b2a5326"",""projectId"":""0198ee3c-27ac-7803-a9ea-f3b4ad4ad678""}","https://test12345.live/?num_scrambled_semantic=8&num_scrambled_causal=4&num_scrambled_schematic=4&participantId=2DF42B5DF725435CA8D5DDD1F62096E0&assignmentId=0198eedb-1f58-7746-81d7-b17f5b2a5326&projectId=0198ee3c-27ac-7803-a9ea-f3b4ad4ad678","2DF42B5DF725435CA8D5DDD1F62096E0-2025-08-28-04-58-42","","null","","[]","null","",""
"","","","","","instructions","21","115088","0.0-7.0","2DF42B5DF725435CA8D5DDD1F62096E0","2DF42B5DF725435CA8D5DDD1F62096E0","0198eedb-1f58-7746-81d7-b17f5b2a5326","0198ee3c-27ac-7803-a9ea-f3b4ad4ad678","{""num_scrambled_semantic"":""8"",""num_scrambled_causal"":""4"",""num_scrambled_schematic"":""4"",""participantId"":""2DF42B5DF725435CA8D5DDD1F62096E0"",""assignmentId"":""0198eedb-1f58-7746-81d7-b17f5b2a5326"",""projectId"":""0198ee3c-27ac-7803-a9ea-f3b4ad4ad678""}","https://test12345.live/?num_scrambled_semantic=8&num_scrambled_causal=4&num_scrambled_schematic=4&participantId=2DF42B5DF725435CA8D5DDD1F62096E0&assignmentId=0198eedb-1f58-7746-81d7-b17f5b2a5326&projectId=0198ee3c-27ac-7803-a9ea-f3b4ad4ad678","2DF42B5DF725435CA8D5DDD1F62096E0-2025-08-28-04-58-42","[{""page_index"":0,""viewing_time"":10367}]","10367","","","","",""
"","","","","","html-audio-response","22","143611","0.0-8.0","2DF42B5DF725435CA8D5DDD1F62096E0","2DF42B5DF725435CA8D5DDD1F62096E0","0198eedb-1f58-7746-81d7-b17f5b2a5326","0198ee3c-27ac-7803-a9ea-f3b4ad4ad678","{""num_scrambled_semantic"":""8"",""num_scrambled_causal"":""4"",""num_scrambled_schematic"":""4"",""participantId"":""2DF42B5DF725435CA8D5DDD1F62096E0"",""assignmentId"":""0198eedb-1f58-7746-81d7-b17f5b2a5326"",""projectId"":""0198ee3c-27ac-7803-a9ea-f3b4ad4ad678""}","https://test12345.live/?num_scrambled_semantic=8&num_scrambled_causal=4&num_scrambled_schematic=4&participantId=2DF42B5DF725435CA8D5DDD1F62096E0&assignmentId=0198eedb-1f58-7746-81d7-b17f5b2a5326&projectId=0198ee3c-27ac-7803-a9ea-f3b4ad4ad678","2DF42B5DF725435CA8D5DDD1F62096E0-2025-08-28-04-58-42","","13745","","[""<span style=\""color: red; font-size: 24px\""> NOW RECORDING</span><p>Please say out loud all the images you saw, in the order of the story they create. Try to recall the sequence of events as they appeared in the story, not necessarily the order they were presented on the screen.</p>""]","","4",""
"","","","","","instructions","23","145635","0.0-9.0","2DF42B5DF725435CA8D5DDD1F62096E0","2DF42B5DF725435CA8D5DDD1F62096E0","0198eedb-1f58-7746-81d7-b17f5b2a5326","0198ee3c-27ac-7803-a9ea-f3b4ad4ad678","{""num_scrambled_semantic"":""8"",""num_scrambled_causal"":""4"",""num_scrambled_schematic"":""4"",""participantId"":""2DF42B5DF725435CA8D5DDD1F62096E0"",""assignmentId"":""0198eedb-1f58-7746-81d7-b17f5b2a5326"",""projectId"":""0198ee3c-27ac-7803-a9ea-f3b4ad4ad678""}","https://test12345.live/?num_scrambled_semantic=8&num_scrambled_causal=4&num_scrambled_schematic=4&participantId=2DF42B5DF725435CA8D5DDD1F62096E0&assignmentId=0198eedb-1f58-7746-81d7-b17f5b2a5326&projectId=0198ee3c-27ac-7803-a9ea-f3b4ad4ad678","2DF42B5DF725435CA8D5DDD1F62096E0-2025-08-28-04-58-42","[{""page_index"":0,""viewing_time"":2020}]","2020","","","","",""
"","","","","","image-button-response","24","151658","0.0-10.0-0.0","2DF42B5DF725435CA8D5DDD1F62096E0","2DF42B5DF725435CA8D5DDD1F62096E0","0198eedb-1f58-7746-81d7-b17f5b2a5326","0198ee3c-27ac-7803-a9ea-f3b4ad4ad678","{""num_scrambled_semantic"":""8"",""num_scrambled_causal"":""4"",""num_scrambled_schematic"":""4"",""participantId"":""2DF42B5DF725435CA8D5DDD1F62096E0"",""assignmentId"":""0198eedb-1f58-7746-81d7-b17f5b2a5326"",""projectId"":""0198ee3c-27ac-7803-a9ea-f3b4ad4ad678""}","https://test12345.live/?num_scrambled_semantic=8&num_scrambled_causal=4&num_scrambled_schematic=4&participantId=2DF42B5DF725435CA8D5DDD1F62096E0&assignmentId=0198eedb-1f58-7746-81d7-b17f5b2a5326&projectId=0198ee3c-27ac-7803-a9ea-f3b4ad4ad678","2DF42B5DF725435CA8D5DDD1F62096E0-2025-08-28-04-58-42","","null","","images/semantic_sequence/maintaining_a_car_semantic/maintaining_a_car_semantic_0.png","null","",""
"","","","","","image-button-response","25","156182","0.0-10.0-1.0-0.0","2DF42B5DF725435CA8D5DDD1F62096E0","2DF42B5DF725435CA8D5DDD1F62096E0","0198eedb-1f58-7746-81d7-b17f5b2a5326","0198ee3c-27ac-7803-a9ea-f3b4ad4ad678","{""num_scrambled_semantic"":""8"",""num_scrambled_causal"":""4"",""num_scrambled_schematic"":""4"",""participantId"":""2DF42B5DF725435CA8D5DDD1F62096E0"",""assignmentId"":""0198eedb-1f58-7746-81d7-b17f5b2a5326"",""projectId"":""0198ee3c-27ac-7803-a9ea-f3b4ad4ad678""}","https://test12345.live/?num_scrambled_semantic=8&num_scrambled_causal=4&num_scrambled_schematic=4&participantId=2DF42B5DF725435CA8D5DDD1F62096E0&assignmentId=0198eedb-1f58-7746-81d7-b17f5b2a5326&projectId=0198ee3c-27ac-7803-a9ea-f3b4ad4ad678","2DF42B5DF725435CA8D5DDD1F62096E0-2025-08-28-04-58-42","","null","","images/semantic_sequence/maintaining_a_car_semantic/maintaining_a_car_semantic_ten.png","null","",""
"","","","","","image-button-response","26","157712","0.0-10.0-1.0-1.0","2DF42B5DF725435CA8D5DDD1F62096E0","2DF42B5DF725435CA8D5DDD1F62096E0","0198eedb-1f58-7746-81d7-b17f5b2a5326","0198ee3c-27ac-7803-a9ea-f3b4ad4ad678","{""num_scrambled_semantic"":""8"",""num_scrambled_causal"":""4"",""num_scrambled_schematic"":""4"",""participantId"":""2DF42B5DF725435CA8D5DDD1F62096E0"",""assignmentId"":""0198eedb-1f58-7746-81d7-b17f5b2a5326"",""projectId"":""0198ee3c-27ac-7803-a9ea-f3b4ad4ad678""}","https://test12345.live/?num_scrambled_semantic=8&num_scrambled_causal=4&num_scrambled_schematic=4&participantId=2DF42B5DF725435CA8D5DDD1F62096E0&assignmentId=0198eedb-1f58-7746-81d7-b17f5b2a5326&projectId=0198ee3c-27ac-7803-a9ea-f3b4ad4ad678","2DF42B5DF725435CA8D5DDD1F62096E0-2025-08-28-04-58-42","","1528","","images/semantic_sequence/maintaining_a_car_semantic/maintaining_a_car_semantic_ten.png","0","",""
"","","","","","image-button-response","27","159722","0.0-10.0-1.0-2.0","2DF42B5DF725435CA8D5DDD1F62096E0","2DF42B5DF725435CA8D5DDD1F62096E0","0198eedb-1f58-7746-81d7-b17f5b2a5326","0198ee3c-27ac-7803-a9ea-f3b4ad4ad678","{""num_scrambled_semantic"":""8"",""num_scrambled_causal"":""4"",""num_scrambled_schematic"":""4"",""participantId"":""2DF42B5DF725435CA8D5DDD1F62096E0"",""assignmentId"":""0198eedb-1f58-7746-81d7-b17f5b2a5326"",""projectId"":""0198ee3c-27ac-7803-a9ea-f3b4ad4ad678""}","https://test12345.live/?num_scrambled_semantic=8&num_scrambled_causal=4&num_scrambled_schematic=4&participantId=2DF42B5DF725435CA8D5DDD1F62096E0&assignmentId=0198eedb-1f58-7746-81d7-b17f5b2a5326&projectId=0198ee3c-27ac-7803-a9ea-f3b4ad4ad678","2DF42B5DF725435CA8D5DDD1F62096E0-2025-08-28-04-58-42","","null","","[]","null","",""
"","","","","","image-button-response","28","164311","0.0-10.0-1.0-0.1","2DF42B5DF725435CA8D5DDD1F62096E0","2DF42B5DF725435CA8D5DDD1F62096E0","0198eedb-1f58-7746-81d7-b17f5b2a5326","0198ee3c-27ac-7803-a9ea-f3b4ad4ad678","{""num_scrambled_semantic"":""8"",""num_scrambled_causal"":""4"",""num_scrambled_schematic"":""4"",""participantId"":""2DF42B5DF725435CA8D5DDD1F62096E0"",""assignmentId"":""0198eedb-1f58-7746-81d7-b17f5b2a5326"",""projectId"":""0198ee3c-27ac-7803-a9ea-f3b4ad4ad678""}","https://test12345.live/?num_scrambled_semantic=8&num_scrambled_causal=4&num_scrambled_schematic=4&participantId=2DF42B5DF725435CA8D5DDD1F62096E0&assignmentId=0198eedb-1f58-7746-81d7-b17f5b2a5326&projectId=0198ee3c-27ac-7803-a9ea-f3b4ad4ad678","2DF42B5DF725435CA8D5DDD1F62096E0-2025-08-28-04-58-42","","null","","images/semantic_sequence/maintaining_a_car_semantic/maintaining_a_car_semantic_4.png","null","",""
"","","","","","image-button-response","29","164982","0.0-10.0-1.0-1.1","2DF42B5DF725435CA8D5DDD1F62096E0","2DF42B5DF725435CA8D5DDD1F62096E0","0198eedb-1f58-7746-81d7-b17f5b2a5326","0198ee3c-27ac-7803-a9ea-f3b4ad4ad678","{""num_scrambled_semantic"":""8"",""num_scrambled_causal"":""4"",""num_scrambled_schematic"":""4"",""participantId"":""2DF42B5DF725435CA8D5DDD1F62096E0"",""assignmentId"":""0198eedb-1f58-7746-81d7-b17f5b2a5326"",""projectId"":""0198ee3c-27ac-7803-a9ea-f3b4ad4ad678""}","https://test12345.live/?num_scrambled_semantic=8&num_scrambled_causal=4&num_scrambled_schematic=4&participantId=2DF42B5DF725435CA8D5DDD1F62096E0&assignmentId=0198eedb-1f58-7746-81d7-b17f5b2a5326&projectId=0198ee3c-27ac-7803-a9ea-f3b4ad4ad678","2DF42B5DF725435CA8D5DDD1F62096E0-2025-08-28-04-58-42","","672","","images/semantic_sequence/maintaining_a_car_semantic/maintaining_a_car_semantic_4.png","0","",""
"","","","","","image-button-response","30","166784","0.0-10.0-1.0-2.1","2DF42B5DF725435CA8D5DDD1F62096E0","2DF42B5DF725435CA8D5DDD1F62096E0","0198eedb-1f58-7746-81d7-b17f5b2a5326","0198ee3c-27ac-7803-a9ea-f3b4ad4ad678","{""num_scrambled_semantic"":""8"",""num_scrambled_causal"":""4"",""num_scrambled_schematic"":""4"",""participantId"":""2DF42B5DF725435CA8D5DDD1F62096E0"",""assignmentId"":""0198eedb-1f58-7746-81d7-b17f5b2a5326"",""projectId"":""0198ee3c-27ac-7803-a9ea-f3b4ad4ad678""}","https://test12345.live/?num_scrambled_semantic=8&num_scrambled_causal=4&num_scrambled_schematic=4&participantId=2DF42B5DF725435CA8D5DDD1F62096E0&assignmentId=0198eedb-1f58-7746-81d7-b17f5b2a5326&projectId=0198ee3c-27ac-7803-a9ea-f3b4ad4ad678","2DF42B5DF725435CA8D5DDD1F62096E0-2025-08-28-04-58-42","","null","","[]","null","",""
"","","","","","image-button-response","31","171403","0.0-10.0-1.0-0.2","2DF42B5DF725435CA8D5DDD1F62096E0","2DF42B5DF725435CA8D5DDD1F62096E0","0198eedb-1f58-7746-81d7-b17f5b2a5326","0198ee3c-27ac-7803-a9ea-f3b4ad4ad678","{""num_scrambled_semantic"":""8"",""num_scrambled_causal"":""4"",""num_scrambled_schematic"":""4"",""participantId"":""2DF42B5DF725435CA8D5DDD1F62096E0"",""assignmentId"":""0198eedb-1f58-7746-81d7-b17f5b2a5326"",""projectId"":""0198ee3c-27ac-7803-a9ea-f3b4ad4ad678""}","https://test12345.live/?num_scrambled_semantic=8&num_scrambled_causal=4&num_scrambled_schematic=4&participantId=2DF42B5DF725435CA8D5DDD1F62096E0&assignmentId=0198eedb-1f58-7746-81d7-b17f5b2a5326&projectId=0198ee3c-27ac-7803-a9ea-f3b4ad4ad678","2DF42B5DF725435CA8D5DDD1F62096E0-2025-08-28-04-58-42","","null","","images/semantic_sequence/maintaining_a_car_semantic/maintaining_a_car_semantic_9.png","null","",""
"","","","","","image-button-response","32","172224","0.0-10.0-1.0-1.2","2DF42B5DF725435CA8D5DDD1F62096E0","2DF42B5DF725435CA8D5DDD1F62096E0","0198eedb-1f58-7746-81d7-b17f5b2a5326","0198ee3c-27ac-7803-a9ea-f3b4ad4ad678","{""num_scrambled_semantic"":""8"",""num_scrambled_causal"":""4"",""num_scrambled_schematic"":""4"",""participantId"":""2DF42B5DF725435CA8D5DDD1F62096E0"",""assignmentId"":""0198eedb-1f58-7746-81d7-b17f5b2a5326"",""projectId"":""0198ee3c-27ac-7803-a9ea-f3b4ad4ad678""}","https://test12345.live/?num_scrambled_semantic=8&num_scrambled_causal=4&num_scrambled_schematic=4&participantId=2DF42B5DF725435CA8D5DDD1F62096E0&assignmentId=0198eedb-1f58-7746-81d7-b17f5b2a5326&projectId=0198ee3c-27ac-7803-a9ea-f3b4ad4ad678","2DF42B5DF725435CA8D5DDD1F62096E0-2025-08-28-04-58-42","","821","","images/semantic_sequence/maintaining_a_car_semantic/maintaining_a_car_semantic_9.png","0","",""
"","","","","","image-button-response","33","174255","0.0-10.0-1.0-2.2","2DF42B5DF725435CA8D5DDD1F62096E0","2DF42B5DF725435CA8D5DDD1F62096E0","0198eedb-1f58-7746-81d7-b17f5b2a5326","0198ee3c-27ac-7803-a9ea-f3b4ad4ad678","{""num_scrambled_semantic"":""8"",""num_scrambled_causal"":""4"",""num_scrambled_schematic"":""4"",""participantId"":""2DF42B5DF725435CA8D5DDD1F62096E0"",""assignmentId"":""0198eedb-1f58-7746-81d7-b17f5b2a5326"",""projectId"":""0198ee3c-27ac-7803-a9ea-f3b4ad4ad678""}","https://test12345.live/?num_scrambled_semantic=8&num_scrambled_causal=4&num_scrambled_schematic=4&participantId=2DF42B5DF725435CA8D5DDD1F62096E0&assignmentId=0198eedb-1f58-7746-81d7-b17f5b2a5326&projectId=0198ee3c-27ac-7803-a9ea-f3b4ad4ad678","2DF42B5DF725435CA8D5DDD1F62096E0-2025-08-28-04-58-42","","null","","[]","null","",""
"","","","","","image-button-response","34","178874","0.0-10.0-1.0-0.3","2DF42B5DF725435CA8D5DDD1F62096E0","2DF42B5DF725435CA8D5DDD1F62096E0","0198eedb-1f58-7746-81d7-b17f5b2a5326","0198ee3c-27ac-7803-a9ea-f3b4ad4ad678","{""num_scrambled_semantic"":""8"",""num_scrambled_causal"":""4"",""num_scrambled_schematic"":""4"",""participantId"":""2DF42B5DF725435CA8D5DDD1F62096E0"",""assignmentId"":""0198eedb-1f58-7746-81d7-b17f5b2a5326"",""projectId"":""0198ee3c-27ac-7803-a9ea-f3b4ad4ad678""}","https://test12345.live/?num_scrambled_semantic=8&num_scrambled_causal=4&num_scrambled_schematic=4&participantId=2DF42B5DF725435CA8D5DDD1F62096E0&assignmentId=0198eedb-1f58-7746-81d7-b17f5b2a5326&projectId=0198ee3c-27ac-7803-a9ea-f3b4ad4ad678","2DF42B5DF725435CA8D5DDD1F62096E0-2025-08-28-04-58-42","","null","","images/semantic_sequence/maintaining_a_car_semantic/maintaining_a_car_semantic_7.png","null","",""
"","","","","","image-button-response","35","179766","0.0-10.0-1.0-1.3","2DF42B5DF725435CA8D5DDD1F62096E0","2DF42B5DF725435CA8D5DDD1F62096E0","0198eedb-1f58-7746-81d7-b17f5b2a5326","0198ee3c-27ac-7803-a9ea-f3b4ad4ad678","{""num_scrambled_semantic"":""8"",""num_scrambled_causal"":""4"",""num_scrambled_schematic"":""4"",""participantId"":""2DF42B5DF725435CA8D5DDD1F62096E0"",""assignmentId"":""0198eedb-1f58-7746-81d7-b17f5b2a5326"",""projectId"":""0198ee3c-27ac-7803-a9ea-f3b4ad4ad678""}","https://test12345.live/?num_scrambled_semantic=8&num_scrambled_causal=4&num_scrambled_schematic=4&participantId=2DF42B5DF725435CA8D5DDD1F62096E0&assignmentId=0198eedb-1f58-7746-81d7-b17f5b2a5326&projectId=0198ee3c-27ac-7803-a9ea-f3b4ad4ad678","2DF42B5DF725435CA8D5DDD1F62096E0-2025-08-28-04-58-42","","891","","images/semantic_sequence/maintaining_a_car_semantic/maintaining_a_car_semantic_7.png","0","",""
"","","","","","image-button-response","36","181567","0.0-10.0-1.0-2.3","2DF42B5DF725435CA8D5DDD1F62096E0","2DF42B5DF725435CA8D5DDD1F62096E0","0198eedb-1f58-7746-81d7-b17f5b2a5326","0198ee3c-27ac-7803-a9ea-f3b4ad4ad678","{""num_scrambled_semantic"":""8"",""num_scrambled_causal"":""4"",""num_scrambled_schematic"":""4"",""participantId"":""2DF42B5DF725435CA8D5DDD1F62096E0"",""assignmentId"":""0198eedb-1f58-7746-81d7-b17f5b2a5326"",""projectId"":""0198ee3c-27ac-7803-a9ea-f3b4ad4ad678""}","https://test12345.live/?num_scrambled_semantic=8&num_scrambled_causal=4&num_scrambled_schematic=4&participantId=2DF42B5DF725435CA8D5DDD1F62096E0&assignmentId=0198eedb-1f58-7746-81d7-b17f5b2a5326&projectId=0198ee3c-27ac-7803-a9ea-f3b4ad4ad678","2DF42B5DF725435CA8D5DDD1F62096E0-2025-08-28-04-58-42","","null","","[]","null","",""
"","","","","","image-button-response","37","186094","0.0-10.0-1.0-0.4","2DF42B5DF725435CA8D5DDD1F62096E0","2DF42B5DF725435CA8D5DDD1F62096E0","0198eedb-1f58-7746-81d7-b17f5b2a5326","0198ee3c-27ac-7803-a9ea-f3b4ad4ad678","{""num_scrambled_semantic"":""8"",""num_scrambled_causal"":""4"",""num_scrambled_schematic"":""4"",""participantId"":""2DF42B5DF725435CA8D5DDD1F62096E0"",""assignmentId"":""0198eedb-1f58-7746-81d7-b17f5b2a5326"",""projectId"":""0198ee3c-27ac-7803-a9ea-f3b4ad4ad678""}","https://test12345.live/?num_scrambled_semantic=8&num_scrambled_causal=4&num_scrambled_schematic=4&participantId=2DF42B5DF725435CA8D5DDD1F62096E0&assignmentId=0198eedb-1f58-7746-81d7-b17f5b2a5326&projectId=0198ee3c-27ac-7803-a9ea-f3b4ad4ad678","2DF42B5DF725435CA8D5DDD1F62096E0-2025-08-28-04-58-42","","null","","images/semantic_sequence/maintaining_a_car_semantic/maintaining_a_car_semantic_6.png","null","",""
"","","","","","image-button-response","38","187037","0.0-10.0-1.0-1.4","2DF42B5DF725435CA8D5DDD1F62096E0","2DF42B5DF725435CA8D5DDD1F62096E0","0198eedb-1f58-7746-81d7-b17f5b2a5326","0198ee3c-27ac-7803-a9ea-f3b4ad4ad678","{""num_scrambled_semantic"":""8"",""num_scrambled_causal"":""4"",""num_scrambled_schematic"":""4"",""participantId"":""2DF42B5DF725435CA8D5DDD1F62096E0"",""assignmentId"":""0198eedb-1f58-7746-81d7-b17f5b2a5326"",""projectId"":""0198ee3c-27ac-7803-a9ea-f3b4ad4ad678""}","https://test12345.live/?num_scrambled_semantic=8&num_scrambled_causal=4&num_scrambled_schematic=4&participantId=2DF42B5DF725435CA8D5DDD1F62096E0&assignmentId=0198eedb-1f58-7746-81d7-b17f5b2a5326&projectId=0198ee3c-27ac-7803-a9ea-f3b4ad4ad678","2DF42B5DF725435CA8D5DDD1F62096E0-2025-08-28-04-58-42","","943","","images/semantic_sequence/maintaining_a_car_semantic/maintaining_a_car_semantic_6.png","0","",""
"","","","","","image-button-response","39","188839","0.0-10.0-1.0-2.4","2DF42B5DF725435CA8D5DDD1F62096E0","2DF42B5DF725435CA8D5DDD1F62096E0","0198eedb-1f58-7746-81d7-b17f5b2a5326","0198ee3c-27ac-7803-a9ea-f3b4ad4ad678","{""num_scrambled_semantic"":""8"",""num_scrambled_causal"":""4"",""num_scrambled_schematic"":""4"",""participantId"":""2DF42B5DF725435CA8D5DDD1F62096E0"",""assignmentId"":""0198eedb-1f58-7746-81d7-b17f5b2a5326"",""projectId"":""0198ee3c-27ac-7803-a9ea-f3b4ad4ad678""}","https://test12345.live/?num_scrambled_semantic=8&num_scrambled_causal=4&num_scrambled_schematic=4&participantId=2DF42B5DF725435CA8D5DDD1F62096E0&assignmentId=0198eedb-1f58-7746-81d7-b17f5b2a5326&projectId=0198ee3c-27ac-7803-a9ea-f3b4ad4ad678","2DF42B5DF725435CA8D5DDD1F62096E0-2025-08-28-04-58-42","","null","","[]","null","",""
"","","","","","image-button-response","40","193367","0.0-10.0-1.0-0.5","2DF42B5DF725435CA8D5DDD1F62096E0","2DF42B5DF725435CA8D5DDD1F62096E0","0198eedb-1f58-7746-81d7-b17f5b2a5326","0198ee3c-27ac-7803-a9ea-f3b4ad4ad678","{""num_scrambled_semantic"":""8"",""num_scrambled_causal"":""4"",""num_scrambled_schematic"":""4"",""participantId"":""2DF42B5DF725435CA8D5DDD1F62096E0"",""assignmentId"":""0198eedb-1f58-7746-81d7-b17f5b2a5326"",""projectId"":""0198ee3c-27ac-7803-a9ea-f3b4ad4ad678""}","https://test12345.live/?num_scrambled_semantic=8&num_scrambled_causal=4&num_scrambled_schematic=4&participantId=2DF42B5DF725435CA8D5DDD1F62096E0&assignmentId=0198eedb-1f58-7746-81d7-b17f5b2a5326&projectId=0198ee3c-27ac-7803-a9ea-f3b4ad4ad678","2DF42B5DF725435CA8D5DDD1F62096E0-2025-08-28-04-58-42","","null","","images/semantic_sequence/maintaining_a_car_semantic/maintaining_a_car_semantic_5.png","null","",""
"","","","","","image-button-response","41","194631","0.0-10.0-1.0-1.5","2DF42B5DF725435CA8D5DDD1F62096E0","2DF42B5DF725435CA8D5DDD1F62096E0","0198eedb-1f58-7746-81d7-b17f5b2a5326","0198ee3c-27ac-7803-a9ea-f3b4ad4ad678","{""num_scrambled_semantic"":""8"",""num_scrambled_causal"":""4"",""num_scrambled_schematic"":""4"",""participantId"":""2DF42B5DF725435CA8D5DDD1F62096E0"",""assignmentId"":""0198eedb-1f58-7746-81d7-b17f5b2a5326"",""projectId"":""0198ee3c-27ac-7803-a9ea-f3b4ad4ad678""}","https://test12345.live/?num_scrambled_semantic=8&num_scrambled_causal=4&num_scrambled_schematic=4&participantId=2DF42B5DF725435CA8D5DDD1F62096E0&assignmentId=0198eedb-1f58-7746-81d7-b17f5b2a5326&projectId=0198ee3c-27ac-7803-a9ea-f3b4ad4ad678","2DF42B5DF725435CA8D5DDD1F62096E0-2025-08-28-04-58-42","","1265","","images/semantic_sequence/maintaining_a_car_semantic/maintaining_a_car_semantic_5.png","0","",""
"","","","","","image-button-response","42","196447","0.0-10.0-1.0-2.5","2DF42B5DF725435CA8D5DDD1F62096E0","2DF42B5DF725435CA8D5DDD1F62096E0","0198eedb-1f58-7746-81d7-b17f5b2a5326","0198ee3c-27ac-7803-a9ea-f3b4ad4ad678","{""num_scrambled_semantic"":""8"",""num_scrambled_causal"":""4"",""num_scrambled_schematic"":""4"",""participantId"":""2DF42B5DF725435CA8D5DDD1F62096E0"",""assignmentId"":""0198eedb-1f58-7746-81d7-b17f5b2a5326"",""projectId"":""0198ee3c-27ac-7803-a9ea-f3b4ad4ad678""}","https://test12345.live/?num_scrambled_semantic=8&num_scrambled_causal=4&num_scrambled_schematic=4&participantId=2DF42B5DF725435CA8D5DDD1F62096E0&assignmentId=0198eedb-1f58-7746-81d7-b17f5b2a5326&projectId=0198ee3c-27ac-7803-a9ea-f3b4ad4ad678","2DF42B5DF725435CA8D5DDD1F62096E0-2025-08-28-04-58-42","","null","","[]","null","",""
"","","","","","image-button-response","43","201452","0.0-10.0-1.0-0.6","2DF42B5DF725435CA8D5DDD1F62096E0","2DF42B5DF725435CA8D5DDD1F62096E0","0198eedb-1f58-7746-81d7-b17f5b2a5326","0198ee3c-27ac-7803-a9ea-f3b4ad4ad678","{""num_scrambled_semantic"":""8"",""num_scrambled_causal"":""4"",""num_scrambled_schematic"":""4"",""participantId"":""2DF42B5DF725435CA8D5DDD1F62096E0"",""assignmentId"":""0198eedb-1f58-7746-81d7-b17f5b2a5326"",""projectId"":""0198ee3c-27ac-7803-a9ea-f3b4ad4ad678""}","https://test12345.live/?num_scrambled_semantic=8&num_scrambled_causal=4&num_scrambled_schematic=4&participantId=2DF42B5DF725435CA8D5DDD1F62096E0&assignmentId=0198eedb-1f58-7746-81d7-b17f5b2a5326&projectId=0198ee3c-27ac-7803-a9ea-f3b4ad4ad678","2DF42B5DF725435CA8D5DDD1F62096E0-2025-08-28-04-58-42","","null","","images/semantic_sequence/maintaining_a_car_semantic/maintaining_a_car_semantic_1.png","null","",""
"","","","","","image-button-response","44","202480","0.0-10.0-1.0-1.6","2DF42B5DF725435CA8D5DDD1F62096E0","2DF42B5DF725435CA8D5DDD1F62096E0","0198eedb-1f58-7746-81d7-b17f5b2a5326","0198ee3c-27ac-7803-a9ea-f3b4ad4ad678","{""num_scrambled_semantic"":""8"",""num_scrambled_causal"":""4"",""num_scrambled_schematic"":""4"",""participantId"":""2DF42B5DF725435CA8D5DDD1F62096E0"",""assignmentId"":""0198eedb-1f58-7746-81d7-b17f5b2a5326"",""projectId"":""0198ee3c-27ac-7803-a9ea-f3b4ad4ad678""}","https://test12345.live/?num_scrambled_semantic=8&num_scrambled_causal=4&num_scrambled_schematic=4&participantId=2DF42B5DF725435CA8D5DDD1F62096E0&assignmentId=0198eedb-1f58-7746-81d7-b17f5b2a5326&projectId=0198ee3c-27ac-7803-a9ea-f3b4ad4ad678","2DF42B5DF725435CA8D5DDD1F62096E0-2025-08-28-04-58-42","","1027","","images/semantic_sequence/maintaining_a_car_semantic/maintaining_a_car_semantic_1.png","0","",""
"","","","","","image-button-response","45","204294","0.0-10.0-1.0-2.6","2DF42B5DF725435CA8D5DDD1F62096E0","2DF42B5DF725435CA8D5DDD1F62096E0","0198eedb-1f58-7746-81d7-b17f5b2a5326","0198ee3c-27ac-7803-a9ea-f3b4ad4ad678","{""num_scrambled_semantic"":""8"",""num_scrambled_causal"":""4"",""num_scrambled_schematic"":""4"",""participantId"":""2DF42B5DF725435CA8D5DDD1F62096E0"",""assignmentId"":""0198eedb-1f58-7746-81d7-b17f5b2a5326"",""projectId"":""0198ee3c-27ac-7803-a9ea-f3b4ad4ad678""}","https://test12345.live/?num_scrambled_semantic=8&num_scrambled_causal=4&num_scrambled_schematic=4&participantId=2DF42B5DF725435CA8D5DDD1F62096E0&assignmentId=0198eedb-1f58-7746-81d7-b17f5b2a5326&projectId=0198ee3c-27ac-7803-a9ea-f3b4ad4ad678","2DF42B5DF725435CA8D5DDD1F62096E0-2025-08-28-04-58-42","","null","","[]","null","",""
"","","","","","image-button-response","46","208817","0.0-10.0-1.0-0.7","2DF42B5DF725435CA8D5DDD1F62096E0","2DF42B5DF725435CA8D5DDD1F62096E0","0198eedb-1f58-7746-81d7-b17f5b2a5326","0198ee3c-27ac-7803-a9ea-f3b4ad4ad678","{""num_scrambled_semantic"":""8"",""num_scrambled_causal"":""4"",""num_scrambled_schematic"":""4"",""participantId"":""2DF42B5DF725435CA8D5DDD1F62096E0"",""assignmentId"":""0198eedb-1f58-7746-81d7-b17f5b2a5326"",""projectId"":""0198ee3c-27ac-7803-a9ea-f3b4ad4ad678""}","https://test12345.live/?num_scrambled_semantic=8&num_scrambled_causal=4&num_scrambled_schematic=4&participantId=2DF42B5DF725435CA8D5DDD1F62096E0&assignmentId=0198eedb-1f58-7746-81d7-b17f5b2a5326&projectId=0198ee3c-27ac-7803-a9ea-f3b4ad4ad678","2DF42B5DF725435CA8D5DDD1F62096E0-2025-08-28-04-58-42","","null","","images/semantic_sequence/maintaining_a_car_semantic/maintaining_a_car_semantic_8.png","null","",""
"","","","","","image-button-response","47","209769","0.0-10.0-1.0-1.7","2DF42B5DF725435CA8D5DDD1F62096E0","2DF42B5DF725435CA8D5DDD1F62096E0","0198eedb-1f58-7746-81d7-b17f5b2a5326","0198ee3c-27ac-7803-a9ea-f3b4ad4ad678","{""num_scrambled_semantic"":""8"",""num_scrambled_causal"":""4"",""num_scrambled_schematic"":""4"",""participantId"":""2DF42B5DF725435CA8D5DDD1F62096E0"",""assignmentId"":""0198eedb-1f58-7746-81d7-b17f5b2a5326"",""projectId"":""0198ee3c-27ac-7803-a9ea-f3b4ad4ad678""}","https://test12345.live/?num_scrambled_semantic=8&num_scrambled_causal=4&num_scrambled_schematic=4&participantId=2DF42B5DF725435CA8D5DDD1F62096E0&assignmentId=0198eedb-1f58-7746-81d7-b17f5b2a5326&projectId=0198ee3c-27ac-7803-a9ea-f3b4ad4ad678","2DF42B5DF725435CA8D5DDD1F62096E0-2025-08-28-04-58-42","","950","","images/semantic_sequence/maintaining_a_car_semantic/maintaining_a_car_semantic_8.png","0","",""
"","","","","","image-button-response","48","211649","0.0-10.0-1.0-2.7","2DF42B5DF725435CA8D5DDD1F62096E0","2DF42B5DF725435CA8D5DDD1F62096E0","0198eedb-1f58-7746-81d7-b17f5b2a5326","0198ee3c-27ac-7803-a9ea-f3b4ad4ad678","{""num_scrambled_semantic"":""8"",""num_scrambled_causal"":""4"",""num_scrambled_schematic"":""4"",""participantId"":""2DF42B5DF725435CA8D5DDD1F62096E0"",""assignmentId"":""0198eedb-1f58-7746-81d7-b17f5b2a5326"",""projectId"":""0198ee3c-27ac-7803-a9ea-f3b4ad4ad678""}","https://test12345.live/?num_scrambled_semantic=8&num_scrambled_causal=4&num_scrambled_schematic=4&participantId=2DF42B5DF725435CA8D5DDD1F62096E0&assignmentId=0198eedb-1f58-7746-81d7-b17f5b2a5326&projectId=0198ee3c-27ac-7803-a9ea-f3b4ad4ad678","2DF42B5DF725435CA8D5DDD1F62096E0-2025-08-28-04-58-42","","null","","[]","null","",""
"","","","","","image-button-response","49","216388","0.0-10.0-1.0-0.8","2DF42B5DF725435CA8D5DDD1F62096E0","2DF42B5DF725435CA8D5DDD1F62096E0","0198eedb-1f58-7746-81d7-b17f5b2a5326","0198ee3c-27ac-7803-a9ea-f3b4ad4ad678","{""num_scrambled_semantic"":""8"",""num_scrambled_causal"":""4"",""num_scrambled_schematic"":""4"",""participantId"":""2DF42B5DF725435CA8D5DDD1F62096E0"",""assignmentId"":""0198eedb-1f58-7746-81d7-b17f5b2a5326"",""projectId"":""0198ee3c-27ac-7803-a9ea-f3b4ad4ad678""}","https://test12345.live/?num_scrambled_semantic=8&num_scrambled_causal=4&num_scrambled_schematic=4&participantId=2DF42B5DF725435CA8D5DDD1F62096E0&assignmentId=0198eedb-1f58-7746-81d7-b17f5b2a5326&projectId=0198ee3c-27ac-7803-a9ea-f3b4ad4ad678","2DF42B5DF725435CA8D5DDD1F62096E0-2025-08-28-04-58-42","","null","","images/semantic_sequence/maintaining_a_car_semantic/maintaining_a_car_semantic_2.png","null","",""
"","","","","","image-button-response","50","217265","0.0-10.0-1.0-1.8","2DF42B5DF725435CA8D5DDD1F62096E0","2DF42B5DF725435CA8D5DDD1F62096E0","0198eedb-1f58-7746-81d7-b17f5b2a5326","0198ee3c-27ac-7803-a9ea-f3b4ad4ad678","{""num_scrambled_semantic"":""8"",""num_scrambled_causal"":""4"",""num_scrambled_schematic"":""4"",""participantId"":""2DF42B5DF725435CA8D5DDD1F62096E0"",""assignmentId"":""0198eedb-1f58-7746-81d7-b17f5b2a5326"",""projectId"":""0198ee3c-27ac-7803-a9ea-f3b4ad4ad678""}","https://test12345.live/?num_scrambled_semantic=8&num_scrambled_causal=4&num_scrambled_schematic=4&participantId=2DF42B5DF725435CA8D5DDD1F62096E0&assignmentId=0198eedb-1f58-7746-81d7-b17f5b2a5326&projectId=0198ee3c-27ac-7803-a9ea-f3b4ad4ad678","2DF42B5DF725435CA8D5DDD1F62096E0-2025-08-28-04-58-42","","876","","images/semantic_sequence/maintaining_a_car_semantic/maintaining_a_car_semantic_2.png","0","",""
"","","","","","image-button-response","51","219282","0.0-10.0-1.0-2.8","2DF42B5DF725435CA8D5DDD1F62096E0","2DF42B5DF725435CA8D5DDD1F62096E0","0198eedb-1f58-7746-81d7-b17f5b2a5326","0198ee3c-27ac-7803-a9ea-f3b4ad4ad678","{""num_scrambled_semantic"":""8"",""num_scrambled_causal"":""4"",""num_scrambled_schematic"":""4"",""participantId"":""2DF42B5DF725435CA8D5DDD1F62096E0"",""assignmentId"":""0198eedb-1f58-7746-81d7-b17f5b2a5326"",""projectId"":""0198ee3c-27ac-7803-a9ea-f3b4ad4ad678""}","https://test12345.live/?num_scrambled_semantic=8&num_scrambled_causal=4&num_scrambled_schematic=4&participantId=2DF42B5DF725435CA8D5DDD1F62096E0&assignmentId=0198eedb-1f58-7746-81d7-b17f5b2a5326&projectId=0198ee3c-27ac-7803-a9ea-f3b4ad4ad678","2DF42B5DF725435CA8D5DDD1F62096E0-2025-08-28-04-58-42","","null","","[]","null","",""
"","","","","","image-button-response","52","224010","0.0-10.0-1.0-0.9","2DF42B5DF725435CA8D5DDD1F62096E0","2DF42B5DF725435CA8D5DDD1F62096E0","0198eedb-1f58-7746-81d7-b17f5b2a5326","0198ee3c-27ac-7803-a9ea-f3b4ad4ad678","{""num_scrambled_semantic"":""8"",""num_scrambled_causal"":""4"",""num_scrambled_schematic"":""4"",""participantId"":""2DF42B5DF725435CA8D5DDD1F62096E0"",""assignmentId"":""0198eedb-1f58-7746-81d7-b17f5b2a5326"",""projectId"":""0198ee3c-27ac-7803-a9ea-f3b4ad4ad678""}","https://test12345.live/?num_scrambled_semantic=8&num_scrambled_causal=4&num_scrambled_schematic=4&participantId=2DF42B5DF725435CA8D5DDD1F62096E0&assignmentId=0198eedb-1f58-7746-81d7-b17f5b2a5326&projectId=0198ee3c-27ac-7803-a9ea-f3b4ad4ad678","2DF42B5DF725435CA8D5DDD1F62096E0-2025-08-28-04-58-42","","null","","images/semantic_sequence/maintaining_a_car_semantic/maintaining_a_car_semantic_3.png","null","",""
"","","","","","image-button-response","53","224817","0.0-10.0-1.0-1.9","2DF42B5DF725435CA8D5DDD1F62096E0","2DF42B5DF725435CA8D5DDD1F62096E0","0198eedb-1f58-7746-81d7-b17f5b2a5326","0198ee3c-27ac-7803-a9ea-f3b4ad4ad678","{""num_scrambled_semantic"":""8"",""num_scrambled_causal"":""4"",""num_scrambled_schematic"":""4"",""participantId"":""2DF42B5DF725435CA8D5DDD1F62096E0"",""assignmentId"":""0198eedb-1f58-7746-81d7-b17f5b2a5326"",""projectId"":""0198ee3c-27ac-7803-a9ea-f3b4ad4ad678""}","https://test12345.live/?num_scrambled_semantic=8&num_scrambled_causal=4&num_scrambled_schematic=4&participantId=2DF42B5DF725435CA8D5DDD1F62096E0&assignmentId=0198eedb-1f58-7746-81d7-b17f5b2a5326&projectId=0198ee3c-27ac-7803-a9ea-f3b4ad4ad678","2DF42B5DF725435CA8D5DDD1F62096E0-2025-08-28-04-58-42","","805","","images/semantic_sequence/maintaining_a_car_semantic/maintaining_a_car_semantic_3.png","0","",""
"","","","","","image-button-response","54","226845","0.0-10.0-1.0-2.9","2DF42B5DF725435CA8D5DDD1F62096E0","2DF42B5DF725435CA8D5DDD1F62096E0","0198eedb-1f58-7746-81d7-b17f5b2a5326","0198ee3c-27ac-7803-a9ea-f3b4ad4ad678","{""num_scrambled_semantic"":""8"",""num_scrambled_causal"":""4"",""num_scrambled_schematic"":""4"",""participantId"":""2DF42B5DF725435CA8D5DDD1F62096E0"",""assignmentId"":""0198eedb-1f58-7746-81d7-b17f5b2a5326"",""projectId"":""0198ee3c-27ac-7803-a9ea-f3b4ad4ad678""}","https://test12345.live/?num_scrambled_semantic=8&num_scrambled_causal=4&num_scrambled_schematic=4&participantId=2DF42B5DF725435CA8D5DDD1F62096E0&assignmentId=0198eedb-1f58-7746-81d7-b17f5b2a5326&projectId=0198ee3c-27ac-7803-a9ea-f3b4ad4ad678","2DF42B5DF725435CA8D5DDD1F62096E0-2025-08-28-04-58-42","","null","","[]","null","",""
"","","","","","html-audio-response","55","267517","0.0-11.0","2DF42B5DF725435CA8D5DDD1F62096E0","2DF42B5DF725435CA8D5DDD1F62096E0","0198eedb-1f58-7746-81d7-b17f5b2a5326","0198ee3c-27ac-7803-a9ea-f3b4ad4ad678","{""num_scrambled_semantic"":""8"",""num_scrambled_causal"":""4"",""num_scrambled_schematic"":""4"",""participantId"":""2DF42B5DF725435CA8D5DDD1F62096E0"",""assignmentId"":""0198eedb-1f58-7746-81d7-b17f5b2a5326"",""projectId"":""0198ee3c-27ac-7803-a9ea-f3b4ad4ad678""}","https://test12345.live/?num_scrambled_semantic=8&num_scrambled_causal=4&num_scrambled_schematic=4&participantId=2DF42B5DF725435CA8D5DDD1F62096E0&assignmentId=0198eedb-1f58-7746-81d7-b17f5b2a5326&projectId=0198ee3c-27ac-7803-a9ea-f3b4ad4ad678","2DF42B5DF725435CA8D5DDD1F62096E0-2025-08-28-04-58-42","","37073","","[""<span style=\""color: red; font-size: 24px\""> NOW RECORDING</span><p>Please say out loud all the images you saw, in the order of the story they create. Try to recall the sequence of events as they appeared in the story, not necessarily the order they were presented on the screen.</p>""]","","0","maintaining_a_car_semantic"
"","","","","","image-button-response","56","273543","0.0-12.0-0.0","2DF42B5DF725435CA8D5DDD1F62096E0","2DF42B5DF725435CA8D5DDD1F62096E0","0198eedb-1f58-7746-81d7-b17f5b2a5326","0198ee3c-27ac-7803-a9ea-f3b4ad4ad678","{""num_scrambled_semantic"":""8"",""num_scrambled_causal"":""4"",""num_scrambled_schematic"":""4"",""participantId"":""2DF42B5DF725435CA8D5DDD1F62096E0"",""assignmentId"":""0198eedb-1f58-7746-81d7-b17f5b2a5326"",""projectId"":""0198ee3c-27ac-7803-a9ea-f3b4ad4ad678""}","https://test12345.live/?num_scrambled_semantic=8&num_scrambled_causal=4&num_scrambled_schematic=4&participantId=2DF42B5DF725435CA8D5DDD1F62096E0&assignmentId=0198eedb-1f58-7746-81d7-b17f5b2a5326&projectId=0198ee3c-27ac-7803-a9ea-f3b4ad4ad678","2DF42B5DF725435CA8D5DDD1F62096E0-2025-08-28-04-58-42","","null","","images/semantic_sequence/self_care_activities_semantic/self_care_activities_semantic_0.png","null","",""
"","","","","","image-button-response","57","278081","0.0-12.0-1.0-0.0","2DF42B5DF725435CA8D5DDD1F62096E0","2DF42B5DF725435CA8D5DDD1F62096E0","0198eedb-1f58-7746-81d7-b17f5b2a5326","0198ee3c-27ac-7803-a9ea-f3b4ad4ad678","{""num_scrambled_semantic"":""8"",""num_scrambled_causal"":""4"",""num_scrambled_schematic"":""4"",""participantId"":""2DF42B5DF725435CA8D5DDD1F62096E0"",""assignmentId"":""0198eedb-1f58-7746-81d7-b17f5b2a5326"",""projectId"":""0198ee3c-27ac-7803-a9ea-f3b4ad4ad678""}","https://test12345.live/?num_scrambled_semantic=8&num_scrambled_causal=4&num_scrambled_schematic=4&participantId=2DF42B5DF725435CA8D5DDD1F62096E0&assignmentId=0198eedb-1f58-7746-81d7-b17f5b2a5326&projectId=0198ee3c-27ac-7803-a9ea-f3b4ad4ad678","2DF42B5DF725435CA8D5DDD1F62096E0-2025-08-28-04-58-42","","null","","images/semantic_sequence/self_care_activities_semantic/self_care_activities_semantic_1.png","null","",""
"","","","","","image-button-response","58","279283","0.0-12.0-1.0-1.0","2DF42B5DF725435CA8D5DDD1F62096E0","2DF42B5DF725435CA8D5DDD1F62096E0","0198eedb-1f58-7746-81d7-b17f5b2a5326","0198ee3c-27ac-7803-a9ea-f3b4ad4ad678","{""num_scrambled_semantic"":""8"",""num_scrambled_causal"":""4"",""num_scrambled_schematic"":""4"",""participantId"":""2DF42B5DF725435CA8D5DDD1F62096E0"",""assignmentId"":""0198eedb-1f58-7746-81d7-b17f5b2a5326"",""projectId"":""0198ee3c-27ac-7803-a9ea-f3b4ad4ad678""}","https://test12345.live/?num_scrambled_semantic=8&num_scrambled_causal=4&num_scrambled_schematic=4&participantId=2DF42B5DF725435CA8D5DDD1F62096E0&assignmentId=0198eedb-1f58-7746-81d7-b17f5b2a5326&projectId=0198ee3c-27ac-7803-a9ea-f3b4ad4ad678","2DF42B5DF725435CA8D5DDD1F62096E0-2025-08-28-04-58-42","","1201","","images/semantic_sequence/self_care_activities_semantic/self_care_activities_semantic_1.png","0","",""
"","","","","","image-button-response","59","281109","0.0-12.0-1.0-2.0","2DF42B5DF725435CA8D5DDD1F62096E0","2DF42B5DF725435CA8D5DDD1F62096E0","0198eedb-1f58-7746-81d7-b17f5b2a5326","0198ee3c-27ac-7803-a9ea-f3b4ad4ad678","{""num_scrambled_semantic"":""8"",""num_scrambled_causal"":""4"",""num_scrambled_schematic"":""4"",""participantId"":""2DF42B5DF725435CA8D5DDD1F62096E0"",""assignmentId"":""0198eedb-1f58-7746-81d7-b17f5b2a5326"",""projectId"":""0198ee3c-27ac-7803-a9ea-f3b4ad4ad678""}","https://test12345.live/?num_scrambled_semantic=8&num_scrambled_causal=4&num_scrambled_schematic=4&participantId=2DF42B5DF725435CA8D5DDD1F62096E0&assignmentId=0198eedb-1f58-7746-81d7-b17f5b2a5326&projectId=0198ee3c-27ac-7803-a9ea-f3b4ad4ad678","2DF42B5DF725435CA8D5DDD1F62096E0-2025-08-28-04-58-42","","null","","[]","null","",""
"","","","","","image-button-response","60","285656","0.0-12.0-1.0-0.1","2DF42B5DF725435CA8D5DDD1F62096E0","2DF42B5DF725435CA8D5DDD1F62096E0","0198eedb-1f58-7746-81d7-b17f5b2a5326","0198ee3c-27ac-7803-a9ea-f3b4ad4ad678","{""num_scrambled_semantic"":""8"",""num_scrambled_causal"":""4"",""num_scrambled_schematic"":""4"",""participantId"":""2DF42B5DF725435CA8D5DDD1F62096E0"",""assignmentId"":""0198eedb-1f58-7746-81d7-b17f5b2a5326"",""projectId"":""0198ee3c-27ac-7803-a9ea-f3b4ad4ad678""}","https://test12345.live/?num_scrambled_semantic=8&num_scrambled_causal=4&num_scrambled_schematic=4&participantId=2DF42B5DF725435CA8D5DDD1F62096E0&assignmentId=0198eedb-1f58-7746-81d7-b17f5b2a5326&projectId=0198ee3c-27ac-7803-a9ea-f3b4ad4ad678","2DF42B5DF725435CA8D5DDD1F62096E0-2025-08-28-04-58-42","","null","","images/semantic_sequence/self_care_activities_semantic/self_care_activities_semantic_2.png","null","",""
"","","","","","image-button-response","61","286271","0.0-12.0-1.0-1.1","2DF42B5DF725435CA8D5DDD1F62096E0","2DF42B5DF725435CA8D5DDD1F62096E0","0198eedb-1f58-7746-81d7-b17f5b2a5326","0198ee3c-27ac-7803-a9ea-f3b4ad4ad678","{""num_scrambled_semantic"":""8"",""num_scrambled_causal"":""4"",""num_scrambled_schematic"":""4"",""participantId"":""2DF42B5DF725435CA8D5DDD1F62096E0"",""assignmentId"":""0198eedb-1f58-7746-81d7-b17f5b2a5326"",""projectId"":""0198ee3c-27ac-7803-a9ea-f3b4ad4ad678""}","https://test12345.live/?num_scrambled_semantic=8&num_scrambled_causal=4&num_scrambled_schematic=4&participantId=2DF42B5DF725435CA8D5DDD1F62096E0&assignmentId=0198eedb-1f58-7746-81d7-b17f5b2a5326&projectId=0198ee3c-27ac-7803-a9ea-f3b4ad4ad678","2DF42B5DF725435CA8D5DDD1F62096E0-2025-08-28-04-58-42","","614","","images/semantic_sequence/self_care_activities_semantic/self_care_activities_semantic_2.png","0","",""
"","","","","","image-button-response","62","288072","0.0-12.0-1.0-2.1","2DF42B5DF725435CA8D5DDD1F62096E0","2DF42B5DF725435CA8D5DDD1F62096E0","0198eedb-1f58-7746-81d7-b17f5b2a5326","0198ee3c-27ac-7803-a9ea-f3b4ad4ad678","{""num_scrambled_semantic"":""8"",""num_scrambled_causal"":""4"",""num_scrambled_schematic"":""4"",""participantId"":""2DF42B5DF725435CA8D5DDD1F62096E0"",""assignmentId"":""0198eedb-1f58-7746-81d7-b17f5b2a5326"",""projectId"":""0198ee3c-27ac-7803-a9ea-f3b4ad4ad678""}","https://test12345.live/?num_scrambled_semantic=8&num_scrambled_causal=4&num_scrambled_schematic=4&participantId=2DF42B5DF725435CA8D5DDD1F62096E0&assignmentId=0198eedb-1f58-7746-81d7-b17f5b2a5326&projectId=0198ee3c-27ac-7803-a9ea-f3b4ad4ad678","2DF42B5DF725435CA8D5DDD1F62096E0-2025-08-28-04-58-42","","null","","[]","null","",""
"","","","","","image-button-response","63","292597","0.0-12.0-1.0-0.2","2DF42B5DF725435CA8D5DDD1F62096E0","2DF42B5DF725435CA8D5DDD1F62096E0","0198eedb-1f58-7746-81d7-b17f5b2a5326","0198ee3c-27ac-7803-a9ea-f3b4ad4ad678","{""num_scrambled_semantic"":""8"",""num_scrambled_causal"":""4"",""num_scrambled_schematic"":""4"",""participantId"":""2DF42B5DF725435CA8D5DDD1F62096E0"",""assignmentId"":""0198eedb-1f58-7746-81d7-b17f5b2a5326"",""projectId"":""0198ee3c-27ac-7803-a9ea-f3b4ad4ad678""}","https://test12345.live/?num_scrambled_semantic=8&num_scrambled_causal=4&num_scrambled_schematic=4&participantId=2DF42B5DF725435CA8D5DDD1F62096E0&assignmentId=0198eedb-1f58-7746-81d7-b17f5b2a5326&projectId=0198ee3c-27ac-7803-a9ea-f3b4ad4ad678","2DF42B5DF725435CA8D5DDD1F62096E0-2025-08-28-04-58-42","","null","","images/semantic_sequence/self_care_activities_semantic/self_care_activities_semantic_3.png","null","",""
"","","","","","image-button-response","64","293759","0.0-12.0-1.0-1.2","2DF42B5DF725435CA8D5DDD1F62096E0","2DF42B5DF725435CA8D5DDD1F62096E0","0198eedb-1f58-7746-81d7-b17f5b2a5326","0198ee3c-27ac-7803-a9ea-f3b4ad4ad678","{""num_scrambled_semantic"":""8"",""num_scrambled_causal"":""4"",""num_scrambled_schematic"":""4"",""participantId"":""2DF42B5DF725435CA8D5DDD1F62096E0"",""assignmentId"":""0198eedb-1f58-7746-81d7-b17f5b2a5326"",""projectId"":""0198ee3c-27ac-7803-a9ea-f3b4ad4ad678""}","https://test12345.live/?num_scrambled_semantic=8&num_scrambled_causal=4&num_scrambled_schematic=4&participantId=2DF42B5DF725435CA8D5DDD1F62096E0&assignmentId=0198eedb-1f58-7746-81d7-b17f5b2a5326&projectId=0198ee3c-27ac-7803-a9ea-f3b4ad4ad678","2DF42B5DF725435CA8D5DDD1F62096E0-2025-08-28-04-58-42","","1162","","images/semantic_sequence/self_care_activities_semantic/self_care_activities_semantic_3.png","0","",""
"","","","","","image-button-response","65","295569","0.0-12.0-1.0-2.2","2DF42B5DF725435CA8D5DDD1F62096E0","2DF42B5DF725435CA8D5DDD1F62096E0","0198eedb-1f58-7746-81d7-b17f5b2a5326","0198ee3c-27ac-7803-a9ea-f3b4ad4ad678","{""num_scrambled_semantic"":""8"",""num_scrambled_causal"":""4"",""num_scrambled_schematic"":""4"",""participantId"":""2DF42B5DF725435CA8D5DDD1F62096E0"",""assignmentId"":""0198eedb-1f58-7746-81d7-b17f5b2a5326"",""projectId"":""0198ee3c-27ac-7803-a9ea-f3b4ad4ad678""}","https://test12345.live/?num_scrambled_semantic=8&num_scrambled_causal=4&num_scrambled_schematic=4&participantId=2DF42B5DF725435CA8D5DDD1F62096E0&assignmentId=0198eedb-1f58-7746-81d7-b17f5b2a5326&projectId=0198ee3c-27ac-7803-a9ea-f3b4ad4ad678","2DF42B5DF725435CA8D5DDD1F62096E0-2025-08-28-04-58-42","","null","","[]","null","",""
"","","","","","image-button-response","66","300085","0.0-12.0-1.0-0.3","2DF42B5DF725435CA8D5DDD1F62096E0","2DF42B5DF725435CA8D5DDD1F62096E0","0198eedb-1f58-7746-81d7-b17f5b2a5326","0198ee3c-27ac-7803-a9ea-f3b4ad4ad678","{""num_scrambled_semantic"":""8"",""num_scrambled_causal"":""4"",""num_scrambled_schematic"":""4"",""participantId"":""2DF42B5DF725435CA8D5DDD1F62096E0"",""assignmentId"":""0198eedb-1f58-7746-81d7-b17f5b2a5326"",""projectId"":""0198ee3c-27ac-7803-a9ea-f3b4ad4ad678""}","https://test12345.live/?num_scrambled_semantic=8&num_scrambled_causal=4&num_scrambled_schematic=4&participantId=2DF42B5DF725435CA8D5DDD1F62096E0&assignmentId=0198eedb-1f58-7746-81d7-b17f5b2a5326&projectId=0198ee3c-27ac-7803-a9ea-f3b4ad4ad678","2DF42B5DF725435CA8D5DDD1F62096E0-2025-08-28-04-58-42","","null","","images/semantic_sequence/self_care_activities_semantic/self_care_activities_semantic_4.png","null","",""
"","","","","","image-button-response","67","300581","0.0-12.0-1.0-1.3","2DF42B5DF725435CA8D5DDD1F62096E0","2DF42B5DF725435CA8D5DDD1F62096E0","0198eedb-1f58-7746-81d7-b17f5b2a5326","0198ee3c-27ac-7803-a9ea-f3b4ad4ad678","{""num_scrambled_semantic"":""8"",""num_scrambled_causal"":""4"",""num_scrambled_schematic"":""4"",""participantId"":""2DF42B5DF725435CA8D5DDD1F62096E0"",""assignmentId"":""0198eedb-1f58-7746-81d7-b17f5b2a5326"",""projectId"":""0198ee3c-27ac-7803-a9ea-f3b4ad4ad678""}","https://test12345.live/?num_scrambled_semantic=8&num_scrambled_causal=4&num_scrambled_schematic=4&participantId=2DF42B5DF725435CA8D5DDD1F62096E0&assignmentId=0198eedb-1f58-7746-81d7-b17f5b2a5326&projectId=0198ee3c-27ac-7803-a9ea-f3b4ad4ad678","2DF42B5DF725435CA8D5DDD1F62096E0-2025-08-28-04-58-42","","495","","images/semantic_sequence/self_care_activities_semantic/self_care_activities_semantic_4.png","0","",""
"","","","","","image-button-response","68","302607","0.0-12.0-1.0-2.3","2DF42B5DF725435CA8D5DDD1F62096E0","2DF42B5DF725435CA8D5DDD1F62096E0","0198eedb-1f58-7746-81d7-b17f5b2a5326","0198ee3c-27ac-7803-a9ea-f3b4ad4ad678","{""num_scrambled_semantic"":""8"",""num_scrambled_causal"":""4"",""num_scrambled_schematic"":""4"",""participantId"":""2DF42B5DF725435CA8D5DDD1F62096E0"",""assignmentId"":""0198eedb-1f58-7746-81d7-b17f5b2a5326"",""projectId"":""0198ee3c-27ac-7803-a9ea-f3b4ad4ad678""}","https://test12345.live/?num_scrambled_semantic=8&num_scrambled_causal=4&num_scrambled_schematic=4&participantId=2DF42B5DF725435CA8D5DDD1F62096E0&assignmentId=0198eedb-1f58-7746-81d7-b17f5b2a5326&projectId=0198ee3c-27ac-7803-a9ea-f3b4ad4ad678","2DF42B5DF725435CA8D5DDD1F62096E0-2025-08-28-04-58-42","","null","","[]","null","",""
"","","","","","image-button-response","69","307134","0.0-12.0-1.0-0.4","2DF42B5DF725435CA8D5DDD1F62096E0","2DF42B5DF725435CA8D5DDD1F62096E0","0198eedb-1f58-7746-81d7-b17f5b2a5326","0198ee3c-27ac-7803-a9ea-f3b4ad4ad678","{""num_scrambled_semantic"":""8"",""num_scrambled_causal"":""4"",""num_scrambled_schematic"":""4"",""participantId"":""2DF42B5DF725435CA8D5DDD1F62096E0"",""assignmentId"":""0198eedb-1f58-7746-81d7-b17f5b2a5326"",""projectId"":""0198ee3c-27ac-7803-a9ea-f3b4ad4ad678""}","https://test12345.live/?num_scrambled_semantic=8&num_scrambled_causal=4&num_scrambled_schematic=4&participantId=2DF42B5DF725435CA8D5DDD1F62096E0&assignmentId=0198eedb-1f58-7746-81d7-b17f5b2a5326&projectId=0198ee3c-27ac-7803-a9ea-f3b4ad4ad678","2DF42B5DF725435CA8D5DDD1F62096E0-2025-08-28-04-58-42","","null","","images/semantic_sequence/self_care_activities_semantic/self_care_activities_semantic_5.png","null","",""
"","","","","","image-button-response","70","307973","0.0-12.0-1.0-1.4","2DF42B5DF725435CA8D5DDD1F62096E0","2DF42B5DF725435CA8D5DDD1F62096E0","0198eedb-1f58-7746-81d7-b17f5b2a5326","0198ee3c-27ac-7803-a9ea-f3b4ad4ad678","{""num_scrambled_semantic"":""8"",""num_scrambled_causal"":""4"",""num_scrambled_schematic"":""4"",""participantId"":""2DF42B5DF725435CA8D5DDD1F62096E0"",""assignmentId"":""0198eedb-1f58-7746-81d7-b17f5b2a5326"",""projectId"":""0198ee3c-27ac-7803-a9ea-f3b4ad4ad678""}","https://test12345.live/?num_scrambled_semantic=8&num_scrambled_causal=4&num_scrambled_schematic=4&participantId=2DF42B5DF725435CA8D5DDD1F62096E0&assignmentId=0198eedb-1f58-7746-81d7-b17f5b2a5326&projectId=0198ee3c-27ac-7803-a9ea-f3b4ad4ad678","2DF42B5DF725435CA8D5DDD1F62096E0-2025-08-28-04-58-42","","837","","images/semantic_sequence/self_care_activities_semantic/self_care_activities_semantic_5.png","0","",""
"","","","","","image-button-response","71","309991","0.0-12.0-1.0-2.4","2DF42B5DF725435CA8D5DDD1F62096E0","2DF42B5DF725435CA8D5DDD1F62096E0","0198eedb-1f58-7746-81d7-b17f5b2a5326","0198ee3c-27ac-7803-a9ea-f3b4ad4ad678","{""num_scrambled_semantic"":""8"",""num_scrambled_causal"":""4"",""num_scrambled_schematic"":""4"",""participantId"":""2DF42B5DF725435CA8D5DDD1F62096E0"",""assignmentId"":""0198eedb-1f58-7746-81d7-b17f5b2a5326"",""projectId"":""0198ee3c-27ac-7803-a9ea-f3b4ad4ad678""}","https://test12345.live/?num_scrambled_semantic=8&num_scrambled_causal=4&num_scrambled_schematic=4&participantId=2DF42B5DF725435CA8D5DDD1F62096E0&assignmentId=0198eedb-1f58-7746-81d7-b17f5b2a5326&projectId=0198ee3c-27ac-7803-a9ea-f3b4ad4ad678","2DF42B5DF725435CA8D5DDD1F62096E0-2025-08-28-04-58-42","","null","","[]","null","",""
"","","","","","image-button-response","72","314608","0.0-12.0-1.0-0.5","2DF42B5DF725435CA8D5DDD1F62096E0","2DF42B5DF725435CA8D5DDD1F62096E0","0198eedb-1f58-7746-81d7-b17f5b2a5326","0198ee3c-27ac-7803-a9ea-f3b4ad4ad678","{""num_scrambled_semantic"":""8"",""num_scrambled_causal"":""4"",""num_scrambled_schematic"":""4"",""participantId"":""2DF42B5DF725435CA8D5DDD1F62096E0"",""assignmentId"":""0198eedb-1f58-7746-81d7-b17f5b2a5326"",""projectId"":""0198ee3c-27ac-7803-a9ea-f3b4ad4ad678""}","https://test12345.live/?num_scrambled_semantic=8&num_scrambled_causal=4&num_scrambled_schematic=4&participantId=2DF42B5DF725435CA8D5DDD1F62096E0&assignmentId=0198eedb-1f58-7746-81d7-b17f5b2a5326&projectId=0198ee3c-27ac-7803-a9ea-f3b4ad4ad678","2DF42B5DF725435CA8D5DDD1F62096E0-2025-08-28-04-58-42","","null","","images/semantic_sequence/self_care_activities_semantic/self_care_activities_semantic_6.png","null","",""
"","","","","","image-button-response","73","316230","0.0-12.0-1.0-1.5","2DF42B5DF725435CA8D5DDD1F62096E0","2DF42B5DF725435CA8D5DDD1F62096E0","0198eedb-1f58-7746-81d7-b17f5b2a5326","0198ee3c-27ac-7803-a9ea-f3b4ad4ad678","{""num_scrambled_semantic"":""8"",""num_scrambled_causal"":""4"",""num_scrambled_schematic"":""4"",""participantId"":""2DF42B5DF725435CA8D5DDD1F62096E0"",""assignmentId"":""0198eedb-1f58-7746-81d7-b17f5b2a5326"",""projectId"":""0198ee3c-27ac-7803-a9ea-f3b4ad4ad678""}","https://test12345.live/?num_scrambled_semantic=8&num_scrambled_causal=4&num_scrambled_schematic=4&participantId=2DF42B5DF725435CA8D5DDD1F62096E0&assignmentId=0198eedb-1f58-7746-81d7-b17f5b2a5326&projectId=0198ee3c-27ac-7803-a9ea-f3b4ad4ad678","2DF42B5DF725435CA8D5DDD1F62096E0-2025-08-28-04-58-42","","1621","","images/semantic_sequence/self_care_activities_semantic/self_care_activities_semantic_6.png","1","",""
"","","","","","image-button-response","74","318065","0.0-12.0-1.0-2.5","2DF42B5DF725435CA8D5DDD1F62096E0","2DF42B5DF725435CA8D5DDD1F62096E0","0198eedb-1f58-7746-81d7-b17f5b2a5326","0198ee3c-27ac-7803-a9ea-f3b4ad4ad678","{""num_scrambled_semantic"":""8"",""num_scrambled_causal"":""4"",""num_scrambled_schematic"":""4"",""participantId"":""2DF42B5DF725435CA8D5DDD1F62096E0"",""assignmentId"":""0198eedb-1f58-7746-81d7-b17f5b2a5326"",""projectId"":""0198ee3c-27ac-7803-a9ea-f3b4ad4ad678""}","https://test12345.live/?num_scrambled_semantic=8&num_scrambled_causal=4&num_scrambled_schematic=4&participantId=2DF42B5DF725435CA8D5DDD1F62096E0&assignmentId=0198eedb-1f58-7746-81d7-b17f5b2a5326&projectId=0198ee3c-27ac-7803-a9ea-f3b4ad4ad678","2DF42B5DF725435CA8D5DDD1F62096E0-2025-08-28-04-58-42","","null","","[]","null","",""
"","","","","","image-button-response","75","322581","0.0-12.0-1.0-0.6","2DF42B5DF725435CA8D5DDD1F62096E0","2DF42B5DF725435CA8D5DDD1F62096E0","0198eedb-1f58-7746-81d7-b17f5b2a5326","0198ee3c-27ac-7803-a9ea-f3b4ad4ad678","{""num_scrambled_semantic"":""8"",""num_scrambled_causal"":""4"",""num_scrambled_schematic"":""4"",""participantId"":""2DF42B5DF725435CA8D5DDD1F62096E0"",""assignmentId"":""0198eedb-1f58-7746-81d7-b17f5b2a5326"",""projectId"":""0198ee3c-27ac-7803-a9ea-f3b4ad4ad678""}","https://test12345.live/?num_scrambled_semantic=8&num_scrambled_causal=4&num_scrambled_schematic=4&participantId=2DF42B5DF725435CA8D5DDD1F62096E0&assignmentId=0198eedb-1f58-7746-81d7-b17f5b2a5326&projectId=0198ee3c-27ac-7803-a9ea-f3b4ad4ad678","2DF42B5DF725435CA8D5DDD1F62096E0-2025-08-28-04-58-42","","null","","images/semantic_sequence/self_care_activities_semantic/self_care_activities_semantic_7.png","null","",""
"","","","","","image-button-response","76","323447","0.0-12.0-1.0-1.6","2DF42B5DF725435CA8D5DDD1F62096E0","2DF42B5DF725435CA8D5DDD1F62096E0","0198eedb-1f58-7746-81d7-b17f5b2a5326","0198ee3c-27ac-7803-a9ea-f3b4ad4ad678","{""num_scrambled_semantic"":""8"",""num_scrambled_causal"":""4"",""num_scrambled_schematic"":""4"",""participantId"":""2DF42B5DF725435CA8D5DDD1F62096E0"",""assignmentId"":""0198eedb-1f58-7746-81d7-b17f5b2a5326"",""projectId"":""0198ee3c-27ac-7803-a9ea-f3b4ad4ad678""}","https://test12345.live/?num_scrambled_semantic=8&num_scrambled_causal=4&num_scrambled_schematic=4&participantId=2DF42B5DF725435CA8D5DDD1F62096E0&assignmentId=0198eedb-1f58-7746-81d7-b17f5b2a5326&projectId=0198ee3c-27ac-7803-a9ea-f3b4ad4ad678","2DF42B5DF725435CA8D5DDD1F62096E0-2025-08-28-04-58-42","","866","","images/semantic_sequence/self_care_activities_semantic/self_care_activities_semantic_7.png","0","",""
"","","","","","image-button-response","77","325475","0.0-12.0-1.0-2.6","2DF42B5DF725435CA8D5DDD1F62096E0","2DF42B5DF725435CA8D5DDD1F62096E0","0198eedb-1f58-7746-81d7-b17f5b2a5326","0198ee3c-27ac-7803-a9ea-f3b4ad4ad678","{""num_scrambled_semantic"":""8"",""num_scrambled_causal"":""4"",""num_scrambled_schematic"":""4"",""participantId"":""2DF42B5DF725435CA8D5DDD1F62096E0"",""assignmentId"":""0198eedb-1f58-7746-81d7-b17f5b2a5326"",""projectId"":""0198ee3c-27ac-7803-a9ea-f3b4ad4ad678""}","https://test12345.live/?num_scrambled_semantic=8&num_scrambled_causal=4&num_scrambled_schematic=4&participantId=2DF42B5DF725435CA8D5DDD1F62096E0&assignmentId=0198eedb-1f58-7746-81d7-b17f5b2a5326&projectId=0198ee3c-27ac-7803-a9ea-f3b4ad4ad678","2DF42B5DF725435CA8D5DDD1F62096E0-2025-08-28-04-58-42","","null","","[]","null","",""
"","","","","","image-button-response","78","329993","0.0-12.0-1.0-0.7","2DF42B5DF725435CA8D5DDD1F62096E0","2DF42B5DF725435CA8D5DDD1F62096E0","0198eedb-1f58-7746-81d7-b17f5b2a5326","0198ee3c-27ac-7803-a9ea-f3b4ad4ad678","{""num_scrambled_semantic"":""8"",""num_scrambled_causal"":""4"",""num_scrambled_schematic"":""4"",""participantId"":""2DF42B5DF725435CA8D5DDD1F62096E0"",""assignmentId"":""0198eedb-1f58-7746-81d7-b17f5b2a5326"",""projectId"":""0198ee3c-27ac-7803-a9ea-f3b4ad4ad678""}","https://test12345.live/?num_scrambled_semantic=8&num_scrambled_causal=4&num_scrambled_schematic=4&participantId=2DF42B5DF725435CA8D5DDD1F62096E0&assignmentId=0198eedb-1f58-7746-81d7-b17f5b2a5326&projectId=0198ee3c-27ac-7803-a9ea-f3b4ad4ad678","2DF42B5DF725435CA8D5DDD1F62096E0-2025-08-28-04-58-42","","null","","images/semantic_sequence/self_care_activities_semantic/self_care_activities_semantic_8.png","null","",""
"","","","","","image-button-response","79","332460","0.0-12.0-1.0-1.7","2DF42B5DF725435CA8D5DDD1F62096E0","2DF42B5DF725435CA8D5DDD1F62096E0","0198eedb-1f58-7746-81d7-b17f5b2a5326","0198ee3c-27ac-7803-a9ea-f3b4ad4ad678","{""num_scrambled_semantic"":""8"",""num_scrambled_causal"":""4"",""num_scrambled_schematic"":""4"",""participantId"":""2DF42B5DF725435CA8D5DDD1F62096E0"",""assignmentId"":""0198eedb-1f58-7746-81d7-b17f5b2a5326"",""projectId"":""0198ee3c-27ac-7803-a9ea-f3b4ad4ad678""}","https://test12345.live/?num_scrambled_semantic=8&num_scrambled_causal=4&num_scrambled_schematic=4&participantId=2DF42B5DF725435CA8D5DDD1F62096E0&assignmentId=0198eedb-1f58-7746-81d7-b17f5b2a5326&projectId=0198ee3c-27ac-7803-a9ea-f3b4ad4ad678","2DF42B5DF725435CA8D5DDD1F62096E0-2025-08-28-04-58-42","","2466","","images/semantic_sequence/self_care_activities_semantic/self_care_activities_semantic_8.png","0","",""
"","","","","","image-button-response","80","334487","0.0-12.0-1.0-2.7","2DF42B5DF725435CA8D5DDD1F62096E0","2DF42B5DF725435CA8D5DDD1F62096E0","0198eedb-1f58-7746-81d7-b17f5b2a5326","0198ee3c-27ac-7803-a9ea-f3b4ad4ad678","{""num_scrambled_semantic"":""8"",""num_scrambled_causal"":""4"",""num_scrambled_schematic"":""4"",""participantId"":""2DF42B5DF725435CA8D5DDD1F62096E0"",""assignmentId"":""0198eedb-1f58-7746-81d7-b17f5b2a5326"",""projectId"":""0198ee3c-27ac-7803-a9ea-f3b4ad4ad678""}","https://test12345.live/?num_scrambled_semantic=8&num_scrambled_causal=4&num_scrambled_schematic=4&participantId=2DF42B5DF725435CA8D5DDD1F62096E0&assignmentId=0198eedb-1f58-7746-81d7-b17f5b2a5326&projectId=0198ee3c-27ac-7803-a9ea-f3b4ad4ad678","2DF42B5DF725435CA8D5DDD1F62096E0-2025-08-28-04-58-42","","null","","[]","null","",""
"","","","","","image-button-response","81","339016","0.0-12.0-1.0-0.8","2DF42B5DF725435CA8D5DDD1F62096E0","2DF42B5DF725435CA8D5DDD1F62096E0","0198eedb-1f58-7746-81d7-b17f5b2a5326","0198ee3c-27ac-7803-a9ea-f3b4ad4ad678","{""num_scrambled_semantic"":""8"",""num_scrambled_causal"":""4"",""num_scrambled_schematic"":""4"",""participantId"":""2DF42B5DF725435CA8D5DDD1F62096E0"",""assignmentId"":""0198eedb-1f58-7746-81d7-b17f5b2a5326"",""projectId"":""0198ee3c-27ac-7803-a9ea-f3b4ad4ad678""}","https://test12345.live/?num_scrambled_semantic=8&num_scrambled_causal=4&num_scrambled_schematic=4&participantId=2DF42B5DF725435CA8D5DDD1F62096E0&assignmentId=0198eedb-1f58-7746-81d7-b17f5b2a5326&projectId=0198ee3c-27ac-7803-a9ea-f3b4ad4ad678","2DF42B5DF725435CA8D5DDD1F62096E0-2025-08-28-04-58-42","","null","","images/semantic_sequence/self_care_activities_semantic/self_care_activities_semantic_9.png","null","",""
"","","","","","image-button-response","82","340483","0.0-12.0-1.0-1.8","2DF42B5DF725435CA8D5DDD1F62096E0","2DF42B5DF725435CA8D5DDD1F62096E0","0198eedb-1f58-7746-81d7-b17f5b2a5326","0198ee3c-27ac-7803-a9ea-f3b4ad4ad678","{""num_scrambled_semantic"":""8"",""num_scrambled_causal"":""4"",""num_scrambled_schematic"":""4"",""participantId"":""2DF42B5DF725435CA8D5DDD1F62096E0"",""assignmentId"":""0198eedb-1f58-7746-81d7-b17f5b2a5326"",""projectId"":""0198ee3c-27ac-7803-a9ea-f3b4ad4ad678""}","https://test12345.live/?num_scrambled_semantic=8&num_scrambled_causal=4&num_scrambled_schematic=4&participantId=2DF42B5DF725435CA8D5DDD1F62096E0&assignmentId=0198eedb-1f58-7746-81d7-b17f5b2a5326&projectId=0198ee3c-27ac-7803-a9ea-f3b4ad4ad678","2DF42B5DF725435CA8D5DDD1F62096E0-2025-08-28-04-58-42","","1465","","images/semantic_sequence/self_care_activities_semantic/self_care_activities_semantic_9.png","0","",""
"","","","","","image-button-response","83","342284","0.0-12.0-1.0-2.8","2DF42B5DF725435CA8D5DDD1F62096E0","2DF42B5DF725435CA8D5DDD1F62096E0","0198eedb-1f58-7746-81d7-b17f5b2a5326","0198ee3c-27ac-7803-a9ea-f3b4ad4ad678","{""num_scrambled_semantic"":""8"",""num_scrambled_causal"":""4"",""num_scrambled_schematic"":""4"",""participantId"":""2DF42B5DF725435CA8D5DDD1F62096E0"",""assignmentId"":""0198eedb-1f58-7746-81d7-b17f5b2a5326"",""projectId"":""0198ee3c-27ac-7803-a9ea-f3b4ad4ad678""}","https://test12345.live/?num_scrambled_semantic=8&num_scrambled_causal=4&num_scrambled_schematic=4&participantId=2DF42B5DF725435CA8D5DDD1F62096E0&assignmentId=0198eedb-1f58-7746-81d7-b17f5b2a5326&projectId=0198ee3c-27ac-7803-a9ea-f3b4ad4ad678","2DF42B5DF725435CA8D5DDD1F62096E0-2025-08-28-04-58-42","","null","","[]","null","",""
"","","","","","image-button-response","84","346801","0.0-12.0-1.0-0.9","2DF42B5DF725435CA8D5DDD1F62096E0","2DF42B5DF725435CA8D5DDD1F62096E0","0198eedb-1f58-7746-81d7-b17f5b2a5326","0198ee3c-27ac-7803-a9ea-f3b4ad4ad678","{""num_scrambled_semantic"":""8"",""num_scrambled_causal"":""4"",""num_scrambled_schematic"":""4"",""participantId"":""2DF42B5DF725435CA8D5DDD1F62096E0"",""assignmentId"":""0198eedb-1f58-7746-81d7-b17f5b2a5326"",""projectId"":""0198ee3c-27ac-7803-a9ea-f3b4ad4ad678""}","https://test12345.live/?num_scrambled_semantic=8&num_scrambled_causal=4&num_scrambled_schematic=4&participantId=2DF42B5DF725435CA8D5DDD1F62096E0&assignmentId=0198eedb-1f58-7746-81d7-b17f5b2a5326&projectId=0198ee3c-27ac-7803-a9ea-f3b4ad4ad678","2DF42B5DF725435CA8D5DDD1F62096E0-2025-08-28-04-58-42","","null","","images/semantic_sequence/self_care_activities_semantic/self_care_activities_semantic_ten.png","null","",""
"","","","","","image-button-response","85","348104","0.0-12.0-1.0-1.9","2DF42B5DF725435CA8D5DDD1F62096E0","2DF42B5DF725435CA8D5DDD1F62096E0","0198eedb-1f58-7746-81d7-b17f5b2a5326","0198ee3c-27ac-7803-a9ea-f3b4ad4ad678","{""num_scrambled_semantic"":""8"",""num_scrambled_causal"":""4"",""num_scrambled_schematic"":""4"",""participantId"":""2DF42B5DF725435CA8D5DDD1F62096E0"",""assignmentId"":""0198eedb-1f58-7746-81d7-b17f5b2a5326"",""projectId"":""0198ee3c-27ac-7803-a9ea-f3b4ad4ad678""}","https://test12345.live/?num_scrambled_semantic=8&num_scrambled_causal=4&num_scrambled_schematic=4&participantId=2DF42B5DF725435CA8D5DDD1F62096E0&assignmentId=0198eedb-1f58-7746-81d7-b17f5b2a5326&projectId=0198ee3c-27ac-7803-a9ea-f3b4ad4ad678","2DF42B5DF725435CA8D5DDD1F62096E0-2025-08-28-04-58-42","","1301","","images/semantic_sequence/self_care_activities_semantic/self_care_activities_semantic_ten.png","0","",""
"","","","","","image-button-response","86","349905","0.0-12.0-1.0-2.9","2DF42B5DF725435CA8D5DDD1F62096E0","2DF42B5DF725435CA8D5DDD1F62096E0","0198eedb-1f58-7746-81d7-b17f5b2a5326","0198ee3c-27ac-7803-a9ea-f3b4ad4ad678","{""num_scrambled_semantic"":""8"",""num_scrambled_causal"":""4"",""num_scrambled_schematic"":""4"",""participantId"":""2DF42B5DF725435CA8D5DDD1F62096E0"",""assignmentId"":""0198eedb-1f58-7746-81d7-b17f5b2a5326"",""projectId"":""0198ee3c-27ac-7803-a9ea-f3b4ad4ad678""}","https://test12345.live/?num_scrambled_semantic=8&num_scrambled_causal=4&num_scrambled_schematic=4&participantId=2DF42B5DF725435CA8D5DDD1F62096E0&assignmentId=0198eedb-1f58-7746-81d7-b17f5b2a5326&projectId=0198ee3c-27ac-7803-a9ea-f3b4ad4ad678","2DF42B5DF725435CA8D5DDD1F62096E0-2025-08-28-04-58-42","","null","","[]","null","",""
"","","","","","html-audio-response","87","391472","0.0-13.0","2DF42B5DF725435CA8D5DDD1F62096E0","2DF42B5DF725435CA8D5DDD1F62096E0","0198eedb-1f58-7746-81d7-b17f5b2a5326","0198ee3c-27ac-7803-a9ea-f3b4ad4ad678","{""num_scrambled_semantic"":""8"",""num_scrambled_causal"":""4"",""num_scrambled_schematic"":""4"",""participantId"":""2DF42B5DF725435CA8D5DDD1F62096E0"",""assignmentId"":""0198eedb-1f58-7746-81d7-b17f5b2a5326"",""projectId"":""0198ee3c-27ac-7803-a9ea-f3b4ad4ad678""}","https://test12345.live/?num_scrambled_semantic=8&num_scrambled_causal=4&num_scrambled_schematic=4&participantId=2DF42B5DF725435CA8D5DDD1F62096E0&assignmentId=0198eedb-1f58-7746-81d7-b17f5b2a5326&projectId=0198ee3c-27ac-7803-a9ea-f3b4ad4ad678","2DF42B5DF725435CA8D5DDD1F62096E0-2025-08-28-04-58-42","","27719","","[""<span style=\""color: red; font-size: 24px\""> NOW RECORDING</span><p>Please say out loud all the images you saw, in the order of the story they create. Try to recall the sequence of events as they appeared in the story, not necessarily the order they were presented on the screen.</p>""]","","1","self_care_activities_semantic"
"","","","","","image-button-response","88","397601","0.0-14.0-0.0","2DF42B5DF725435CA8D5DDD1F62096E0","2DF42B5DF725435CA8D5DDD1F62096E0","0198eedb-1f58-7746-81d7-b17f5b2a5326","0198ee3c-27ac-7803-a9ea-f3b4ad4ad678","{""num_scrambled_semantic"":""8"",""num_scrambled_causal"":""4"",""num_scrambled_schematic"":""4"",""participantId"":""2DF42B5DF725435CA8D5DDD1F62096E0"",""assignmentId"":""0198eedb-1f58-7746-81d7-b17f5b2a5326"",""projectId"":""0198ee3c-27ac-7803-a9ea-f3b4ad4ad678""}","https://test12345.live/?num_scrambled_semantic=8&num_scrambled_causal=4&num_scrambled_schematic=4&participantId=2DF42B5DF725435CA8D5DDD1F62096E0&assignmentId=0198eedb-1f58-7746-81d7-b17f5b2a5326&projectId=0198ee3c-27ac-7803-a9ea-f3b4ad4ad678","2DF42B5DF725435CA8D5DDD1F62096E0-2025-08-28-04-58-42","","null","","images/schematic_sequence/hotel_scheme/hotel_scheme_0.png","null","",""
"","","","","","image-button-response","89","402135","0.0-14.0-1.0-0.0","2DF42B5DF725435CA8D5DDD1F62096E0","2DF42B5DF725435CA8D5DDD1F62096E0","0198eedb-1f58-7746-81d7-b17f5b2a5326","0198ee3c-27ac-7803-a9ea-f3b4ad4ad678","{""num_scrambled_semantic"":""8"",""num_scrambled_causal"":""4"",""num_scrambled_schematic"":""4"",""participantId"":""2DF42B5DF725435CA8D5DDD1F62096E0"",""assignmentId"":""0198eedb-1f58-7746-81d7-b17f5b2a5326"",""projectId"":""0198ee3c-27ac-7803-a9ea-f3b4ad4ad678""}","https://test12345.live/?num_scrambled_semantic=8&num_scrambled_causal=4&num_scrambled_schematic=4&participantId=2DF42B5DF725435CA8D5DDD1F62096E0&assignmentId=0198eedb-1f58-7746-81d7-b17f5b2a5326&projectId=0198ee3c-27ac-7803-a9ea-f3b4ad4ad678","2DF42B5DF725435CA8D5DDD1F62096E0-2025-08-28-04-58-42","","null","","images/schematic_sequence/hotel_scheme/hotel_scheme_1.png","null","",""
"","","","","","image-button-response","90","404321","0.0-14.0-1.0-1.0","2DF42B5DF725435CA8D5DDD1F62096E0","2DF42B5DF725435CA8D5DDD1F62096E0","0198eedb-1f58-7746-81d7-b17f5b2a5326","0198ee3c-27ac-7803-a9ea-f3b4ad4ad678","{""num_scrambled_semantic"":""8"",""num_scrambled_causal"":""4"",""num_scrambled_schematic"":""4"",""participantId"":""2DF42B5DF725435CA8D5DDD1F62096E0"",""assignmentId"":""0198eedb-1f58-7746-81d7-b17f5b2a5326"",""projectId"":""0198ee3c-27ac-7803-a9ea-f3b4ad4ad678""}","https://test12345.live/?num_scrambled_semantic=8&num_scrambled_causal=4&num_scrambled_schematic=4&participantId=2DF42B5DF725435CA8D5DDD1F62096E0&assignmentId=0198eedb-1f58-7746-81d7-b17f5b2a5326&projectId=0198ee3c-27ac-7803-a9ea-f3b4ad4ad678","2DF42B5DF725435CA8D5DDD1F62096E0-2025-08-28-04-58-42","","2183","","images/schematic_sequence/hotel_scheme/hotel_scheme_1.png","1","",""
"","","","","","image-button-response","91","406133","0.0-14.0-1.0-2.0","2DF42B5DF725435CA8D5DDD1F62096E0","2DF42B5DF725435CA8D5DDD1F62096E0","0198eedb-1f58-7746-81d7-b17f5b2a5326","0198ee3c-27ac-7803-a9ea-f3b4ad4ad678","{""num_scrambled_semantic"":""8"",""num_scrambled_causal"":""4"",""num_scrambled_schematic"":""4"",""participantId"":""2DF42B5DF725435CA8D5DDD1F62096E0"",""assignmentId"":""0198eedb-1f58-7746-81d7-b17f5b2a5326"",""projectId"":""0198ee3c-27ac-7803-a9ea-f3b4ad4ad678""}","https://test12345.live/?num_scrambled_semantic=8&num_scrambled_causal=4&num_scrambled_schematic=4&participantId=2DF42B5DF725435CA8D5DDD1F62096E0&assignmentId=0198eedb-1f58-7746-81d7-b17f5b2a5326&projectId=0198ee3c-27ac-7803-a9ea-f3b4ad4ad678","2DF42B5DF725435CA8D5DDD1F62096E0-2025-08-28-04-58-42","","null","","[]","null","",""
"","","","","","image-button-response","92","410889","0.0-14.0-1.0-0.1","2DF42B5DF725435CA8D5DDD1F62096E0","2DF42B5DF725435CA8D5DDD1F62096E0","0198eedb-1f58-7746-81d7-b17f5b2a5326","0198ee3c-27ac-7803-a9ea-f3b4ad4ad678","{""num_scrambled_semantic"":""8"",""num_scrambled_causal"":""4"",""num_scrambled_schematic"":""4"",""participantId"":""2DF42B5DF725435CA8D5DDD1F62096E0"",""assignmentId"":""0198eedb-1f58-7746-81d7-b17f5b2a5326"",""projectId"":""0198ee3c-27ac-7803-a9ea-f3b4ad4ad678""}","https://test12345.live/?num_scrambled_semantic=8&num_scrambled_causal=4&num_scrambled_schematic=4&participantId=2DF42B5DF725435CA8D5DDD1F62096E0&assignmentId=0198eedb-1f58-7746-81d7-b17f5b2a5326&projectId=0198ee3c-27ac-7803-a9ea-f3b4ad4ad678","2DF42B5DF725435CA8D5DDD1F62096E0-2025-08-28-04-58-42","","null","","images/schematic_sequence/hotel_scheme/hotel_scheme_2.png","null","",""
"","","","","","image-button-response","93","411906","0.0-14.0-1.0-1.1","2DF42B5DF725435CA8D5DDD1F62096E0","2DF42B5DF725435CA8D5DDD1F62096E0","0198eedb-1f58-7746-81d7-b17f5b2a5326","0198ee3c-27ac-7803-a9ea-f3b4ad4ad678","{""num_scrambled_semantic"":""8"",""num_scrambled_causal"":""4"",""num_scrambled_schematic"":""4"",""participantId"":""2DF42B5DF725435CA8D5DDD1F62096E0"",""assignmentId"":""0198eedb-1f58-7746-81d7-b17f5b2a5326"",""projectId"":""0198ee3c-27ac-7803-a9ea-f3b4ad4ad678""}","https://test12345.live/?num_scrambled_semantic=8&num_scrambled_causal=4&num_scrambled_schematic=4&participantId=2DF42B5DF725435CA8D5DDD1F62096E0&assignmentId=0198eedb-1f58-7746-81d7-b17f5b2a5326&projectId=0198ee3c-27ac-7803-a9ea-f3b4ad4ad678","2DF42B5DF725435CA8D5DDD1F62096E0-2025-08-28-04-58-42","","1015","","images/schematic_sequence/hotel_scheme/hotel_scheme_2.png","0","",""
"","","","","","image-button-response","94","413924","0.0-14.0-1.0-2.1","2DF42B5DF725435CA8D5DDD1F62096E0","2DF42B5DF725435CA8D5DDD1F62096E0","0198eedb-1f58-7746-81d7-b17f5b2a5326","0198ee3c-27ac-7803-a9ea-f3b4ad4ad678","{""num_scrambled_semantic"":""8"",""num_scrambled_causal"":""4"",""num_scrambled_schematic"":""4"",""participantId"":""2DF42B5DF725435CA8D5DDD1F62096E0"",""assignmentId"":""0198eedb-1f58-7746-81d7-b17f5b2a5326"",""projectId"":""0198ee3c-27ac-7803-a9ea-f3b4ad4ad678""}","https://test12345.live/?num_scrambled_semantic=8&num_scrambled_causal=4&num_scrambled_schematic=4&participantId=2DF42B5DF725435CA8D5DDD1F62096E0&assignmentId=0198eedb-1f58-7746-81d7-b17f5b2a5326&projectId=0198ee3c-27ac-7803-a9ea-f3b4ad4ad678","2DF42B5DF725435CA8D5DDD1F62096E0-2025-08-28-04-58-42","","null","","[]","null","",""
"","","","","","image-button-response","95","418794","0.0-14.0-1.0-0.2","2DF42B5DF725435CA8D5DDD1F62096E0","2DF42B5DF725435CA8D5DDD1F62096E0","0198eedb-1f58-7746-81d7-b17f5b2a5326","0198ee3c-27ac-7803-a9ea-f3b4ad4ad678","{""num_scrambled_semantic"":""8"",""num_scrambled_causal"":""4"",""num_scrambled_schematic"":""4"",""participantId"":""2DF42B5DF725435CA8D5DDD1F62096E0"",""assignmentId"":""0198eedb-1f58-7746-81d7-b17f5b2a5326"",""projectId"":""0198ee3c-27ac-7803-a9ea-f3b4ad4ad678""}","https://test12345.live/?num_scrambled_semantic=8&num_scrambled_causal=4&num_scrambled_schematic=4&participantId=2DF42B5DF725435CA8D5DDD1F62096E0&assignmentId=0198eedb-1f58-7746-81d7-b17f5b2a5326&projectId=0198ee3c-27ac-7803-a9ea-f3b4ad4ad678","2DF42B5DF725435CA8D5DDD1F62096E0-2025-08-28-04-58-42","","null","","images/schematic_sequence/hotel_scheme/hotel_scheme_3.png","null","",""
"","","","","","image-button-response","96","419352","0.0-14.0-1.0-1.2","2DF42B5DF725435CA8D5DDD1F62096E0","2DF42B5DF725435CA8D5DDD1F62096E0","0198eedb-1f58-7746-81d7-b17f5b2a5326","0198ee3c-27ac-7803-a9ea-f3b4ad4ad678","{""num_scrambled_semantic"":""8"",""num_scrambled_causal"":""4"",""num_scrambled_schematic"":""4"",""participantId"":""2DF42B5DF725435CA8D5DDD1F62096E0"",""assignmentId"":""0198eedb-1f58-7746-81d7-b17f5b2a5326"",""projectId"":""0198ee3c-27ac-7803-a9ea-f3b4ad4ad678""}","https://test12345.live/?num_scrambled_semantic=8&num_scrambled_causal=4&num_scrambled_schematic=4&participantId=2DF42B5DF725435CA8D5DDD1F62096E0&assignmentId=0198eedb-1f58-7746-81d7-b17f5b2a5326&projectId=0198ee3c-27ac-7803-a9ea-f3b4ad4ad678","2DF42B5DF725435CA8D5DDD1F62096E0-2025-08-28-04-58-42","","557","","images/schematic_sequence/hotel_scheme/hotel_scheme_3.png","0","",""
"","","","","","image-button-response","97","421378","0.0-14.0-1.0-2.2","2DF42B5DF725435CA8D5DDD1F62096E0","2DF42B5DF725435CA8D5DDD1F62096E0","0198eedb-1f58-7746-81d7-b17f5b2a5326","0198ee3c-27ac-7803-a9ea-f3b4ad4ad678","{""num_scrambled_semantic"":""8"",""num_scrambled_causal"":""4"",""num_scrambled_schematic"":""4"",""participantId"":""2DF42B5DF725435CA8D5DDD1F62096E0"",""assignmentId"":""0198eedb-1f58-7746-81d7-b17f5b2a5326"",""projectId"":""0198ee3c-27ac-7803-a9ea-f3b4ad4ad678""}","https://test12345.live/?num_scrambled_semantic=8&num_scrambled_causal=4&num_scrambled_schematic=4&participantId=2DF42B5DF725435CA8D5DDD1F62096E0&assignmentId=0198eedb-1f58-7746-81d7-b17f5b2a5326&projectId=0198ee3c-27ac-7803-a9ea-f3b4ad4ad678","2DF42B5DF725435CA8D5DDD1F62096E0-2025-08-28-04-58-42","","null","","[]","null","",""
"","","","","","image-button-response","98","426074","0.0-14.0-1.0-0.3","2DF42B5DF725435CA8D5DDD1F62096E0","2DF42B5DF725435CA8D5DDD1F62096E0","0198eedb-1f58-7746-81d7-b17f5b2a5326","0198ee3c-27ac-7803-a9ea-f3b4ad4ad678","{""num_scrambled_semantic"":""8"",""num_scrambled_causal"":""4"",""num_scrambled_schematic"":""4"",""participantId"":""2DF42B5DF725435CA8D5DDD1F62096E0"",""assignmentId"":""0198eedb-1f58-7746-81d7-b17f5b2a5326"",""projectId"":""0198ee3c-27ac-7803-a9ea-f3b4ad4ad678""}","https://test12345.live/?num_scrambled_semantic=8&num_scrambled_causal=4&num_scrambled_schematic=4&participantId=2DF42B5DF725435CA8D5DDD1F62096E0&assignmentId=0198eedb-1f58-7746-81d7-b17f5b2a5326&projectId=0198ee3c-27ac-7803-a9ea-f3b4ad4ad678","2DF42B5DF725435CA8D5DDD1F62096E0-2025-08-28-04-58-42","","null","","images/schematic_sequence/hotel_scheme/hotel_scheme_4.png","null","",""
"","","","","","image-button-response","99","427327","0.0-14.0-1.0-1.3","2DF42B5DF725435CA8D5DDD1F62096E0","2DF42B5DF725435CA8D5DDD1F62096E0","0198eedb-1f58-7746-81d7-b17f5b2a5326","0198ee3c-27ac-7803-a9ea-f3b4ad4ad678","{""num_scrambled_semantic"":""8"",""num_scrambled_causal"":""4"",""num_scrambled_schematic"":""4"",""participantId"":""2DF42B5DF725435CA8D5DDD1F62096E0"",""assignmentId"":""0198eedb-1f58-7746-81d7-b17f5b2a5326"",""projectId"":""0198ee3c-27ac-7803-a9ea-f3b4ad4ad678""}","https://test12345.live/?num_scrambled_semantic=8&num_scrambled_causal=4&num_scrambled_schematic=4&participantId=2DF42B5DF725435CA8D5DDD1F62096E0&assignmentId=0198eedb-1f58-7746-81d7-b17f5b2a5326&projectId=0198ee3c-27ac-7803-a9ea-f3b4ad4ad678","2DF42B5DF725435CA8D5DDD1F62096E0-2025-08-28-04-58-42","","1252","","images/schematic_sequence/hotel_scheme/hotel_scheme_4.png","1","",""
"","","","","","image-button-response","100","429138","0.0-14.0-1.0-2.3","2DF42B5DF725435CA8D5DDD1F62096E0","2DF42B5DF725435CA8D5DDD1F62096E0","0198eedb-1f58-7746-81d7-b17f5b2a5326","0198ee3c-27ac-7803-a9ea-f3b4ad4ad678","{""num_scrambled_semantic"":""8"",""num_scrambled_causal"":""4"",""num_scrambled_schematic"":""4"",""participantId"":""2DF42B5DF725435CA8D5DDD1F62096E0"",""assignmentId"":""0198eedb-1f58-7746-81d7-b17f5b2a5326"",""projectId"":""0198ee3c-27ac-7803-a9ea-f3b4ad4ad678""}","https://test12345.live/?num_scrambled_semantic=8&num_scrambled_causal=4&num_scrambled_schematic=4&participantId=2DF42B5DF725435CA8D5DDD1F62096E0&assignmentId=0198eedb-1f58-7746-81d7-b17f5b2a5326&projectId=0198ee3c-27ac-7803-a9ea-f3b4ad4ad678","2DF42B5DF725435CA8D5DDD1F62096E0-2025-08-28-04-58-42","","null","","[]","null","",""
"","","","","","image-button-response","101","433670","0.0-14.0-1.0-0.4","2DF42B5DF725435CA8D5DDD1F62096E0","2DF42B5DF725435CA8D5DDD1F62096E0","0198eedb-1f58-7746-81d7-b17f5b2a5326","0198ee3c-27ac-7803-a9ea-f3b4ad4ad678","{""num_scrambled_semantic"":""8"",""num_scrambled_causal"":""4"",""num_scrambled_schematic"":""4"",""participantId"":""2DF42B5DF725435CA8D5DDD1F62096E0"",""assignmentId"":""0198eedb-1f58-7746-81d7-b17f5b2a5326"",""projectId"":""0198ee3c-27ac-7803-a9ea-f3b4ad4ad678""}","https://test12345.live/?num_scrambled_semantic=8&num_scrambled_causal=4&num_scrambled_schematic=4&participantId=2DF42B5DF725435CA8D5DDD1F62096E0&assignmentId=0198eedb-1f58-7746-81d7-b17f5b2a5326&projectId=0198ee3c-27ac-7803-a9ea-f3b4ad4ad678","2DF42B5DF725435CA8D5DDD1F62096E0-2025-08-28-04-58-42","","null","","images/schematic_sequence/hotel_scheme/hotel_scheme_5.png","null","",""
"","","","","","image-button-response","102","434947","0.0-14.0-1.0-1.4","2DF42B5DF725435CA8D5DDD1F62096E0","2DF42B5DF725435CA8D5DDD1F62096E0","0198eedb-1f58-7746-81d7-b17f5b2a5326","0198ee3c-27ac-7803-a9ea-f3b4ad4ad678","{""num_scrambled_semantic"":""8"",""num_scrambled_causal"":""4"",""num_scrambled_schematic"":""4"",""participantId"":""2DF42B5DF725435CA8D5DDD1F62096E0"",""assignmentId"":""0198eedb-1f58-7746-81d7-b17f5b2a5326"",""projectId"":""0198ee3c-27ac-7803-a9ea-f3b4ad4ad678""}","https://test12345.live/?num_scrambled_semantic=8&num_scrambled_causal=4&num_scrambled_schematic=4&participantId=2DF42B5DF725435CA8D5DDD1F62096E0&assignmentId=0198eedb-1f58-7746-81d7-b17f5b2a5326&projectId=0198ee3c-27ac-7803-a9ea-f3b4ad4ad678","2DF42B5DF725435CA8D5DDD1F62096E0-2025-08-28-04-58-42","","1277","","images/schematic_sequence/hotel_scheme/hotel_scheme_5.png","0","",""
"","","","","","image-button-response","103","436792","0.0-14.0-1.0-2.4","2DF42B5DF725435CA8D5DDD1F62096E0","2DF42B5DF725435CA8D5DDD1F62096E0","0198eedb-1f58-7746-81d7-b17f5b2a5326","0198ee3c-27ac-7803-a9ea-f3b4ad4ad678","{""num_scrambled_semantic"":""8"",""num_scrambled_causal"":""4"",""num_scrambled_schematic"":""4"",""participantId"":""2DF42B5DF725435CA8D5DDD1F62096E0"",""assignmentId"":""0198eedb-1f58-7746-81d7-b17f5b2a5326"",""projectId"":""0198ee3c-27ac-7803-a9ea-f3b4ad4ad678""}","https://test12345.live/?num_scrambled_semantic=8&num_scrambled_causal=4&num_scrambled_schematic=4&participantId=2DF42B5DF725435CA8D5DDD1F62096E0&assignmentId=0198eedb-1f58-7746-81d7-b17f5b2a5326&projectId=0198ee3c-27ac-7803-a9ea-f3b4ad4ad678","2DF42B5DF725435CA8D5DDD1F62096E0-2025-08-28-04-58-42","","null","","[]","null","",""
"","","","","","image-button-response","104","441321","0.0-14.0-1.0-0.5","2DF42B5DF725435CA8D5DDD1F62096E0","2DF42B5DF725435CA8D5DDD1F62096E0","0198eedb-1f58-7746-81d7-b17f5b2a5326","0198ee3c-27ac-7803-a9ea-f3b4ad4ad678","{""num_scrambled_semantic"":""8"",""num_scrambled_causal"":""4"",""num_scrambled_schematic"":""4"",""participantId"":""2DF42B5DF725435CA8D5DDD1F62096E0"",""assignmentId"":""0198eedb-1f58-7746-81d7-b17f5b2a5326"",""projectId"":""0198ee3c-27ac-7803-a9ea-f3b4ad4ad678""}","https://test12345.live/?num_scrambled_semantic=8&num_scrambled_causal=4&num_scrambled_schematic=4&participantId=2DF42B5DF725435CA8D5DDD1F62096E0&assignmentId=0198eedb-1f58-7746-81d7-b17f5b2a5326&projectId=0198ee3c-27ac-7803-a9ea-f3b4ad4ad678","2DF42B5DF725435CA8D5DDD1F62096E0-2025-08-28-04-58-42","","null","","images/schematic_sequence/hotel_scheme/hotel_scheme_6.png","null","",""
"","","","","","image-button-response","105","441965","0.0-14.0-1.0-1.5","2DF42B5DF725435CA8D5DDD1F62096E0","2DF42B5DF725435CA8D5DDD1F62096E0","0198eedb-1f58-7746-81d7-b17f5b2a5326","0198ee3c-27ac-7803-a9ea-f3b4ad4ad678","{""num_scrambled_semantic"":""8"",""num_scrambled_causal"":""4"",""num_scrambled_schematic"":""4"",""participantId"":""2DF42B5DF725435CA8D5DDD1F62096E0"",""assignmentId"":""0198eedb-1f58-7746-81d7-b17f5b2a5326"",""projectId"":""0198ee3c-27ac-7803-a9ea-f3b4ad4ad678""}","https://test12345.live/?num_scrambled_semantic=8&num_scrambled_causal=4&num_scrambled_schematic=4&participantId=2DF42B5DF725435CA8D5DDD1F62096E0&assignmentId=0198eedb-1f58-7746-81d7-b17f5b2a5326&projectId=0198ee3c-27ac-7803-a9ea-f3b4ad4ad678","2DF42B5DF725435CA8D5DDD1F62096E0-2025-08-28-04-58-42","","643","","images/schematic_sequence/hotel_scheme/hotel_scheme_6.png","0","",""
"","","","","","image-button-response","106","443780","0.0-14.0-1.0-2.5","2DF42B5DF725435CA8D5DDD1F62096E0","2DF42B5DF725435CA8D5DDD1F62096E0","0198eedb-1f58-7746-81d7-b17f5b2a5326","0198ee3c-27ac-7803-a9ea-f3b4ad4ad678","{""num_scrambled_semantic"":""8"",""num_scrambled_causal"":""4"",""num_scrambled_schematic"":""4"",""participantId"":""2DF42B5DF725435CA8D5DDD1F62096E0"",""assignmentId"":""0198eedb-1f58-7746-81d7-b17f5b2a5326"",""projectId"":""0198ee3c-27ac-7803-a9ea-f3b4ad4ad678""}","https://test12345.live/?num_scrambled_semantic=8&num_scrambled_causal=4&num_scrambled_schematic=4&participantId=2DF42B5DF725435CA8D5DDD1F62096E0&assignmentId=0198eedb-1f58-7746-81d7-b17f5b2a5326&projectId=0198ee3c-27ac-7803-a9ea-f3b4ad4ad678","2DF42B5DF725435CA8D5DDD1F62096E0-2025-08-28-04-58-42","","null","","[]","null","",""
"","","","","","image-button-response","107","448314","0.0-14.0-1.0-0.6","2DF42B5DF725435CA8D5DDD1F62096E0","2DF42B5DF725435CA8D5DDD1F62096E0","0198eedb-1f58-7746-81d7-b17f5b2a5326","0198ee3c-27ac-7803-a9ea-f3b4ad4ad678","{""num_scrambled_semantic"":""8"",""num_scrambled_causal"":""4"",""num_scrambled_schematic"":""4"",""participantId"":""2DF42B5DF725435CA8D5DDD1F62096E0"",""assignmentId"":""0198eedb-1f58-7746-81d7-b17f5b2a5326"",""projectId"":""0198ee3c-27ac-7803-a9ea-f3b4ad4ad678""}","https://test12345.live/?num_scrambled_semantic=8&num_scrambled_causal=4&num_scrambled_schematic=4&participantId=2DF42B5DF725435CA8D5DDD1F62096E0&assignmentId=0198eedb-1f58-7746-81d7-b17f5b2a5326&projectId=0198ee3c-27ac-7803-a9ea-f3b4ad4ad678","2DF42B5DF725435CA8D5DDD1F62096E0-2025-08-28-04-58-42","","null","","images/schematic_sequence/hotel_scheme/hotel_scheme_7.png","null","",""
"","","","","","image-button-response","108","449068","0.0-14.0-1.0-1.6","2DF42B5DF725435CA8D5DDD1F62096E0","2DF42B5DF725435CA8D5DDD1F62096E0","0198eedb-1f58-7746-81d7-b17f5b2a5326","0198ee3c-27ac-7803-a9ea-f3b4ad4ad678","{""num_scrambled_semantic"":""8"",""num_scrambled_causal"":""4"",""num_scrambled_schematic"":""4"",""participantId"":""2DF42B5DF725435CA8D5DDD1F62096E0"",""assignmentId"":""0198eedb-1f58-7746-81d7-b17f5b2a5326"",""projectId"":""0198ee3c-27ac-7803-a9ea-f3b4ad4ad678""}","https://test12345.live/?num_scrambled_semantic=8&num_scrambled_causal=4&num_scrambled_schematic=4&participantId=2DF42B5DF725435CA8D5DDD1F62096E0&assignmentId=0198eedb-1f58-7746-81d7-b17f5b2a5326&projectId=0198ee3c-27ac-7803-a9ea-f3b4ad4ad678","2DF42B5DF725435CA8D5DDD1F62096E0-2025-08-28-04-58-42","","753","","images/schematic_sequence/hotel_scheme/hotel_scheme_7.png","0","",""
"","","","","","image-button-response","109","450876","0.0-14.0-1.0-2.6","2DF42B5DF725435CA8D5DDD1F62096E0","2DF42B5DF725435CA8D5DDD1F62096E0","0198eedb-1f58-7746-81d7-b17f5b2a5326","0198ee3c-27ac-7803-a9ea-f3b4ad4ad678","{""num_scrambled_semantic"":""8"",""num_scrambled_causal"":""4"",""num_scrambled_schematic"":""4"",""participantId"":""2DF42B5DF725435CA8D5DDD1F62096E0"",""assignmentId"":""0198eedb-1f58-7746-81d7-b17f5b2a5326"",""projectId"":""0198ee3c-27ac-7803-a9ea-f3b4ad4ad678""}","https://test12345.live/?num_scrambled_semantic=8&num_scrambled_causal=4&num_scrambled_schematic=4&participantId=2DF42B5DF725435CA8D5DDD1F62096E0&assignmentId=0198eedb-1f58-7746-81d7-b17f5b2a5326&projectId=0198ee3c-27ac-7803-a9ea-f3b4ad4ad678","2DF42B5DF725435CA8D5DDD1F62096E0-2025-08-28-04-58-42","","null","","[]","null","",""
"","","","","","image-button-response","110","455403","0.0-14.0-1.0-0.7","2DF42B5DF725435CA8D5DDD1F62096E0","2DF42B5DF725435CA8D5DDD1F62096E0","0198eedb-1f58-7746-81d7-b17f5b2a5326","0198ee3c-27ac-7803-a9ea-f3b4ad4ad678","{""num_scrambled_semantic"":""8"",""num_scrambled_causal"":""4"",""num_scrambled_schematic"":""4"",""participantId"":""2DF42B5DF725435CA8D5DDD1F62096E0"",""assignmentId"":""0198eedb-1f58-7746-81d7-b17f5b2a5326"",""projectId"":""0198ee3c-27ac-7803-a9ea-f3b4ad4ad678""}","https://test12345.live/?num_scrambled_semantic=8&num_scrambled_causal=4&num_scrambled_schematic=4&participantId=2DF42B5DF725435CA8D5DDD1F62096E0&assignmentId=0198eedb-1f58-7746-81d7-b17f5b2a5326&projectId=0198ee3c-27ac-7803-a9ea-f3b4ad4ad678","2DF42B5DF725435CA8D5DDD1F62096E0-2025-08-28-04-58-42","","null","","images/schematic_sequence/hotel_scheme/hotel_scheme_8.png","null","",""
"","","","","","image-button-response","111","456268","0.0-14.0-1.0-1.7","2DF42B5DF725435CA8D5DDD1F62096E0","2DF42B5DF725435CA8D5DDD1F62096E0","0198eedb-1f58-7746-81d7-b17f5b2a5326","0198ee3c-27ac-7803-a9ea-f3b4ad4ad678","{""num_scrambled_semantic"":""8"",""num_scrambled_causal"":""4"",""num_scrambled_schematic"":""4"",""participantId"":""2DF42B5DF725435CA8D5DDD1F62096E0"",""assignmentId"":""0198eedb-1f58-7746-81d7-b17f5b2a5326"",""projectId"":""0198ee3c-27ac-7803-a9ea-f3b4ad4ad678""}","https://test12345.live/?num_scrambled_semantic=8&num_scrambled_causal=4&num_scrambled_schematic=4&participantId=2DF42B5DF725435CA8D5DDD1F62096E0&assignmentId=0198eedb-1f58-7746-81d7-b17f5b2a5326&projectId=0198ee3c-27ac-7803-a9ea-f3b4ad4ad678","2DF42B5DF725435CA8D5DDD1F62096E0-2025-08-28-04-58-42","","864","","images/schematic_sequence/hotel_scheme/hotel_scheme_8.png","0","",""
"","","","","","image-button-response","112","458284","0.0-14.0-1.0-2.7","2DF42B5DF725435CA8D5DDD1F62096E0","2DF42B5DF725435CA8D5DDD1F62096E0","0198eedb-1f58-7746-81d7-b17f5b2a5326","0198ee3c-27ac-7803-a9ea-f3b4ad4ad678","{""num_scrambled_semantic"":""8"",""num_scrambled_causal"":""4"",""num_scrambled_schematic"":""4"",""participantId"":""2DF42B5DF725435CA8D5DDD1F62096E0"",""assignmentId"":""0198eedb-1f58-7746-81d7-b17f5b2a5326"",""projectId"":""0198ee3c-27ac-7803-a9ea-f3b4ad4ad678""}","https://test12345.live/?num_scrambled_semantic=8&num_scrambled_causal=4&num_scrambled_schematic=4&participantId=2DF42B5DF725435CA8D5DDD1F62096E0&assignmentId=0198eedb-1f58-7746-81d7-b17f5b2a5326&projectId=0198ee3c-27ac-7803-a9ea-f3b4ad4ad678","2DF42B5DF725435CA8D5DDD1F62096E0-2025-08-28-04-58-42","","null","","[]","null","",""
"","","","","","image-button-response","113","462863","0.0-14.0-1.0-0.8","2DF42B5DF725435CA8D5DDD1F62096E0","2DF42B5DF725435CA8D5DDD1F62096E0","0198eedb-1f58-7746-81d7-b17f5b2a5326","0198ee3c-27ac-7803-a9ea-f3b4ad4ad678","{""num_scrambled_semantic"":""8"",""num_scrambled_causal"":""4"",""num_scrambled_schematic"":""4"",""participantId"":""2DF42B5DF725435CA8D5DDD1F62096E0"",""assignmentId"":""0198eedb-1f58-7746-81d7-b17f5b2a5326"",""projectId"":""0198ee3c-27ac-7803-a9ea-f3b4ad4ad678""}","https://test12345.live/?num_scrambled_semantic=8&num_scrambled_causal=4&num_scrambled_schematic=4&participantId=2DF42B5DF725435CA8D5DDD1F62096E0&assignmentId=0198eedb-1f58-7746-81d7-b17f5b2a5326&projectId=0198ee3c-27ac-7803-a9ea-f3b4ad4ad678","2DF42B5DF725435CA8D5DDD1F62096E0-2025-08-28-04-58-42","","null","","images/schematic_sequence/hotel_scheme/hotel_scheme_9.png","null","",""
