"success","timeout","failed_images","failed_audio","failed_video","trial_type","trial_index","time_elapsed","internal_node_id","subject","subject_id","study_id","session_id","urlvar","current_url","audio_id","view_history","rt","device_id","stimulus","response","estimated_stimulus_onset","seq_name"
"true","false","[]","[]","[]","preload","0","6970","0.0-0.0","2F795F16481849E2B708A280E5C075B8","2F795F16481849E2B708A280E5C075B8","d0bf9b98-d52c-4cea-861b-36ccdbcc92b9","a0a8f18c-a66e-4ba7-a170-23efbdc67501","{""participantId"":""2F795F16481849E2B708A280E5C075B8"",""assignmentId"":""d0bf9b98-d52c-4cea-861b-36ccdbcc92b9"",""projectId"":""a0a8f18c-a66e-4ba7-a170-23efbdc67501""}","https://test12345.live/?participantId=2F795F16481849E2B708A280E5C075B8&assignmentId=d0bf9b98-d52c-4cea-861b-36ccdbcc92b9&projectId=a0a8f18c-a66e-4ba7-a170-23efbdc67501","2F795F16481849E2B708A280E5C075B8-2024-11-24-18-58-34","","","","","","",""
"","","","","","instructions","1","21693","0.0-1.0","2F795F16481849E2B708A280E5C075B8","2F795F16481849E2B708A280E5C075B8","d0bf9b98-d52c-4cea-861b-36ccdbcc92b9","a0a8f18c-a66e-4ba7-a170-23efbdc67501","{""participantId"":""2F795F16481849E2B708A280E5C075B8"",""assignmentId"":""d0bf9b98-d52c-4cea-861b-36ccdbcc92b9"",""projectId"":""a0a8f18c-a66e-4ba7-a170-23efbdc67501""}","https://test12345.live/?participantId=2F795F16481849E2B708A280E5C075B8&assignmentId=d0bf9b98-d52c-4cea-861b-36ccdbcc92b9&projectId=a0a8f18c-a66e-4ba7-a170-23efbdc67501","2F795F16481849E2B708A280E5C075B8-2024-11-24-18-58-34","[{""page_index"":0,""viewing_time"":14723}]","14723","","","","",""
"","","","","","instructions","2","23958","0.0-2.0","2F795F16481849E2B708A280E5C075B8","2F795F16481849E2B708A280E5C075B8","d0bf9b98-d52c-4cea-861b-36ccdbcc92b9","a0a8f18c-a66e-4ba7-a170-23efbdc67501","{""participantId"":""2F795F16481849E2B708A280E5C075B8"",""assignmentId"":""d0bf9b98-d52c-4cea-861b-36ccdbcc92b9"",""projectId"":""a0a8f18c-a66e-4ba7-a170-23efbdc67501""}","https://test12345.live/?participantId=2F795F16481849E2B708A280E5C075B8&assignmentId=d0bf9b98-d52c-4cea-861b-36ccdbcc92b9&projectId=a0a8f18c-a66e-4ba7-a170-23efbdc67501","2F795F16481849E2B708A280E5C075B8-2024-11-24-18-58-34","[{""page_index"":0,""viewing_time"":2264}]","2265","","","","",""
"true","","","","","fullscreen","3","26357","0.0-3.0","2F795F16481849E2B708A280E5C075B8","2F795F16481849E2B708A280E5C075B8","d0bf9b98-d52c-4cea-861b-36ccdbcc92b9","a0a8f18c-a66e-4ba7-a170-23efbdc67501","{""participantId"":""2F795F16481849E2B708A280E5C075B8"",""assignmentId"":""d0bf9b98-d52c-4cea-861b-36ccdbcc92b9"",""projectId"":""a0a8f18c-a66e-4ba7-a170-23efbdc67501""}","https://test12345.live/?participantId=2F795F16481849E2B708A280E5C075B8&assignmentId=d0bf9b98-d52c-4cea-861b-36ccdbcc92b9&projectId=a0a8f18c-a66e-4ba7-a170-23efbdc67501","2F795F16481849E2B708A280E5C075B8-2024-11-24-18-58-34","","1395","","","","",""
"","","","","","initialize-microphone","4","37039","0.0-4.0-0.0","2F795F16481849E2B708A280E5C075B8","2F795F16481849E2B708A280E5C075B8","d0bf9b98-d52c-4cea-861b-36ccdbcc92b9","a0a8f18c-a66e-4ba7-a170-23efbdc67501","{""participantId"":""2F795F16481849E2B708A280E5C075B8"",""assignmentId"":""d0bf9b98-d52c-4cea-861b-36ccdbcc92b9"",""projectId"":""a0a8f18c-a66e-4ba7-a170-23efbdc67501""}","https://test12345.live/?participantId=2F795F16481849E2B708A280E5C075B8&assignmentId=d0bf9b98-d52c-4cea-861b-36ccdbcc92b9&projectId=a0a8f18c-a66e-4ba7-a170-23efbdc67501","2F795F16481849E2B708A280E5C075B8-2024-11-24-18-58-34","","","db72b7f9c77878d5079a0f9d26465cc4c52a7f9a9b4051c8e838086a2b0d2809","","","",""
"","","","","","html-audio-response","5","52921","0.0-4.0-1.0","2F795F16481849E2B708A280E5C075B8","2F795F16481849E2B708A280E5C075B8","d0bf9b98-d52c-4cea-861b-36ccdbcc92b9","a0a8f18c-a66e-4ba7-a170-23efbdc67501","{""participantId"":""2F795F16481849E2B708A280E5C075B8"",""assignmentId"":""d0bf9b98-d52c-4cea-861b-36ccdbcc92b9"",""projectId"":""a0a8f18c-a66e-4ba7-a170-23efbdc67501""}","https://test12345.live/?participantId=2F795F16481849E2B708A280E5C075B8&assignmentId=d0bf9b98-d52c-4cea-861b-36ccdbcc92b9&projectId=a0a8f18c-a66e-4ba7-a170-23efbdc67501","2F795F16481849E2B708A280E5C075B8-2024-11-24-18-58-34","","6528","","<span style=""color: red; font-size: 24px""> NOW RECORDING</span>
        <p>Please test Microphone</p>","","1",""
"","","","","","html-button-response","6","54719","0.0-4.0-2.0","2F795F16481849E2B708A280E5C075B8","2F795F16481849E2B708A280E5C075B8","d0bf9b98-d52c-4cea-861b-36ccdbcc92b9","a0a8f18c-a66e-4ba7-a170-23efbdc67501","{""participantId"":""2F795F16481849E2B708A280E5C075B8"",""assignmentId"":""d0bf9b98-d52c-4cea-861b-36ccdbcc92b9"",""projectId"":""a0a8f18c-a66e-4ba7-a170-23efbdc67501""}","https://test12345.live/?participantId=2F795F16481849E2B708A280E5C075B8&assignmentId=d0bf9b98-d52c-4cea-861b-36ccdbcc92b9&projectId=a0a8f18c-a66e-4ba7-a170-23efbdc67501","2F795F16481849E2B708A280E5C075B8-2024-11-24-18-58-34","","1797","","<p style=""font-size:48px; color:red;"">Is Microphone OK?</p>","1","",""
"","","","","","instructions","7","69047","0.0-5.0","2F795F16481849E2B708A280E5C075B8","2F795F16481849E2B708A280E5C075B8","d0bf9b98-d52c-4cea-861b-36ccdbcc92b9","a0a8f18c-a66e-4ba7-a170-23efbdc67501","{""participantId"":""2F795F16481849E2B708A280E5C075B8"",""assignmentId"":""d0bf9b98-d52c-4cea-861b-36ccdbcc92b9"",""projectId"":""a0a8f18c-a66e-4ba7-a170-23efbdc67501""}","https://test12345.live/?participantId=2F795F16481849E2B708A280E5C075B8&assignmentId=d0bf9b98-d52c-4cea-861b-36ccdbcc92b9&projectId=a0a8f18c-a66e-4ba7-a170-23efbdc67501","2F795F16481849E2B708A280E5C075B8-2024-11-24-18-58-34","[{""page_index"":0,""viewing_time"":6652},{""page_index"":1,""viewing_time"":7676}]","14328","","","","",""
"","","","","","image-button-response","8","75054","0.0-6.0-0.0","2F795F16481849E2B708A280E5C075B8","2F795F16481849E2B708A280E5C075B8","d0bf9b98-d52c-4cea-861b-36ccdbcc92b9","a0a8f18c-a66e-4ba7-a170-23efbdc67501","{""participantId"":""2F795F16481849E2B708A280E5C075B8"",""assignmentId"":""d0bf9b98-d52c-4cea-861b-36ccdbcc92b9"",""projectId"":""a0a8f18c-a66e-4ba7-a170-23efbdc67501""}","https://test12345.live/?participantId=2F795F16481849E2B708A280E5C075B8&assignmentId=d0bf9b98-d52c-4cea-861b-36ccdbcc92b9&projectId=a0a8f18c-a66e-4ba7-a170-23efbdc67501","2F795F16481849E2B708A280E5C075B8-2024-11-24-18-58-34","","null","","images/instructions/movie_0.png","null","",""
"","","","","","image-button-response","9","79561","0.0-6.0-1.0-0.0","2F795F16481849E2B708A280E5C075B8","2F795F16481849E2B708A280E5C075B8","d0bf9b98-d52c-4cea-861b-36ccdbcc92b9","a0a8f18c-a66e-4ba7-a170-23efbdc67501","{""participantId"":""2F795F16481849E2B708A280E5C075B8"",""assignmentId"":""d0bf9b98-d52c-4cea-861b-36ccdbcc92b9"",""projectId"":""a0a8f18c-a66e-4ba7-a170-23efbdc67501""}","https://test12345.live/?participantId=2F795F16481849E2B708A280E5C075B8&assignmentId=d0bf9b98-d52c-4cea-861b-36ccdbcc92b9&projectId=a0a8f18c-a66e-4ba7-a170-23efbdc67501","2F795F16481849E2B708A280E5C075B8-2024-11-24-18-58-34","","null","","images/instructions/movie_1.png","null","",""
"","","","","","image-button-response","10","81958","0.0-6.0-1.0-1.0","2F795F16481849E2B708A280E5C075B8","2F795F16481849E2B708A280E5C075B8","d0bf9b98-d52c-4cea-861b-36ccdbcc92b9","a0a8f18c-a66e-4ba7-a170-23efbdc67501","{""participantId"":""2F795F16481849E2B708A280E5C075B8"",""assignmentId"":""d0bf9b98-d52c-4cea-861b-36ccdbcc92b9"",""projectId"":""a0a8f18c-a66e-4ba7-a170-23efbdc67501""}","https://test12345.live/?participantId=2F795F16481849E2B708A280E5C075B8&assignmentId=d0bf9b98-d52c-4cea-861b-36ccdbcc92b9&projectId=a0a8f18c-a66e-4ba7-a170-23efbdc67501","2F795F16481849E2B708A280E5C075B8-2024-11-24-18-58-34","","2394","","images/instructions/movie_1.png","0","",""
"","","","","","image-button-response","11","83765","0.0-6.0-1.0-2.0","2F795F16481849E2B708A280E5C075B8","2F795F16481849E2B708A280E5C075B8","d0bf9b98-d52c-4cea-861b-36ccdbcc92b9","a0a8f18c-a66e-4ba7-a170-23efbdc67501","{""participantId"":""2F795F16481849E2B708A280E5C075B8"",""assignmentId"":""d0bf9b98-d52c-4cea-861b-36ccdbcc92b9"",""projectId"":""a0a8f18c-a66e-4ba7-a170-23efbdc67501""}","https://test12345.live/?participantId=2F795F16481849E2B708A280E5C075B8&assignmentId=d0bf9b98-d52c-4cea-861b-36ccdbcc92b9&projectId=a0a8f18c-a66e-4ba7-a170-23efbdc67501","2F795F16481849E2B708A280E5C075B8-2024-11-24-18-58-34","","null","","[]","null","",""
"","","","","","image-button-response","12","88271","0.0-6.0-1.0-0.1","2F795F16481849E2B708A280E5C075B8","2F795F16481849E2B708A280E5C075B8","d0bf9b98-d52c-4cea-861b-36ccdbcc92b9","a0a8f18c-a66e-4ba7-a170-23efbdc67501","{""participantId"":""2F795F16481849E2B708A280E5C075B8"",""assignmentId"":""d0bf9b98-d52c-4cea-861b-36ccdbcc92b9"",""projectId"":""a0a8f18c-a66e-4ba7-a170-23efbdc67501""}","https://test12345.live/?participantId=2F795F16481849E2B708A280E5C075B8&assignmentId=d0bf9b98-d52c-4cea-861b-36ccdbcc92b9&projectId=a0a8f18c-a66e-4ba7-a170-23efbdc67501","2F795F16481849E2B708A280E5C075B8-2024-11-24-18-58-34","","null","","images/instructions/movie_2.png","null","",""
"","","","","","image-button-response","13","89349","0.0-6.0-1.0-1.1","2F795F16481849E2B708A280E5C075B8","2F795F16481849E2B708A280E5C075B8","d0bf9b98-d52c-4cea-861b-36ccdbcc92b9","a0a8f18c-a66e-4ba7-a170-23efbdc67501","{""participantId"":""2F795F16481849E2B708A280E5C075B8"",""assignmentId"":""d0bf9b98-d52c-4cea-861b-36ccdbcc92b9"",""projectId"":""a0a8f18c-a66e-4ba7-a170-23efbdc67501""}","https://test12345.live/?participantId=2F795F16481849E2B708A280E5C075B8&assignmentId=d0bf9b98-d52c-4cea-861b-36ccdbcc92b9&projectId=a0a8f18c-a66e-4ba7-a170-23efbdc67501","2F795F16481849E2B708A280E5C075B8-2024-11-24-18-58-34","","1076","","images/instructions/movie_2.png","1","",""
"","","","","","image-button-response","14","91151","0.0-6.0-1.0-2.1","2F795F16481849E2B708A280E5C075B8","2F795F16481849E2B708A280E5C075B8","d0bf9b98-d52c-4cea-861b-36ccdbcc92b9","a0a8f18c-a66e-4ba7-a170-23efbdc67501","{""participantId"":""2F795F16481849E2B708A280E5C075B8"",""assignmentId"":""d0bf9b98-d52c-4cea-861b-36ccdbcc92b9"",""projectId"":""a0a8f18c-a66e-4ba7-a170-23efbdc67501""}","https://test12345.live/?participantId=2F795F16481849E2B708A280E5C075B8&assignmentId=d0bf9b98-d52c-4cea-861b-36ccdbcc92b9&projectId=a0a8f18c-a66e-4ba7-a170-23efbdc67501","2F795F16481849E2B708A280E5C075B8-2024-11-24-18-58-34","","null","","[]","null","",""
"","","","","","image-button-response","15","95655","0.0-6.0-1.0-0.2","2F795F16481849E2B708A280E5C075B8","2F795F16481849E2B708A280E5C075B8","d0bf9b98-d52c-4cea-861b-36ccdbcc92b9","a0a8f18c-a66e-4ba7-a170-23efbdc67501","{""participantId"":""2F795F16481849E2B708A280E5C075B8"",""assignmentId"":""d0bf9b98-d52c-4cea-861b-36ccdbcc92b9"",""projectId"":""a0a8f18c-a66e-4ba7-a170-23efbdc67501""}","https://test12345.live/?participantId=2F795F16481849E2B708A280E5C075B8&assignmentId=d0bf9b98-d52c-4cea-861b-36ccdbcc92b9&projectId=a0a8f18c-a66e-4ba7-a170-23efbdc67501","2F795F16481849E2B708A280E5C075B8-2024-11-24-18-58-34","","null","","images/instructions/movie_3.png","null","",""
"","","","","","image-button-response","16","96300","0.0-6.0-1.0-1.2","2F795F16481849E2B708A280E5C075B8","2F795F16481849E2B708A280E5C075B8","d0bf9b98-d52c-4cea-861b-36ccdbcc92b9","a0a8f18c-a66e-4ba7-a170-23efbdc67501","{""participantId"":""2F795F16481849E2B708A280E5C075B8"",""assignmentId"":""d0bf9b98-d52c-4cea-861b-36ccdbcc92b9"",""projectId"":""a0a8f18c-a66e-4ba7-a170-23efbdc67501""}","https://test12345.live/?participantId=2F795F16481849E2B708A280E5C075B8&assignmentId=d0bf9b98-d52c-4cea-861b-36ccdbcc92b9&projectId=a0a8f18c-a66e-4ba7-a170-23efbdc67501","2F795F16481849E2B708A280E5C075B8-2024-11-24-18-58-34","","641","","images/instructions/movie_3.png","0","",""
"","","","","","image-button-response","17","98104","0.0-6.0-1.0-2.2","2F795F16481849E2B708A280E5C075B8","2F795F16481849E2B708A280E5C075B8","d0bf9b98-d52c-4cea-861b-36ccdbcc92b9","a0a8f18c-a66e-4ba7-a170-23efbdc67501","{""participantId"":""2F795F16481849E2B708A280E5C075B8"",""assignmentId"":""d0bf9b98-d52c-4cea-861b-36ccdbcc92b9"",""projectId"":""a0a8f18c-a66e-4ba7-a170-23efbdc67501""}","https://test12345.live/?participantId=2F795F16481849E2B708A280E5C075B8&assignmentId=d0bf9b98-d52c-4cea-861b-36ccdbcc92b9&projectId=a0a8f18c-a66e-4ba7-a170-23efbdc67501","2F795F16481849E2B708A280E5C075B8-2024-11-24-18-58-34","","null","","[]","null","",""
"","","","","","image-button-response","18","102611","0.0-6.0-1.0-0.3","2F795F16481849E2B708A280E5C075B8","2F795F16481849E2B708A280E5C075B8","d0bf9b98-d52c-4cea-861b-36ccdbcc92b9","a0a8f18c-a66e-4ba7-a170-23efbdc67501","{""participantId"":""2F795F16481849E2B708A280E5C075B8"",""assignmentId"":""d0bf9b98-d52c-4cea-861b-36ccdbcc92b9"",""projectId"":""a0a8f18c-a66e-4ba7-a170-23efbdc67501""}","https://test12345.live/?participantId=2F795F16481849E2B708A280E5C075B8&assignmentId=d0bf9b98-d52c-4cea-861b-36ccdbcc92b9&projectId=a0a8f18c-a66e-4ba7-a170-23efbdc67501","2F795F16481849E2B708A280E5C075B8-2024-11-24-18-58-34","","null","","images/instructions/movie_4.png","null","",""
"","","","","","image-button-response","19","104615","0.0-6.0-1.0-1.3","2F795F16481849E2B708A280E5C075B8","2F795F16481849E2B708A280E5C075B8","d0bf9b98-d52c-4cea-861b-36ccdbcc92b9","a0a8f18c-a66e-4ba7-a170-23efbdc67501","{""participantId"":""2F795F16481849E2B708A280E5C075B8"",""assignmentId"":""d0bf9b98-d52c-4cea-861b-36ccdbcc92b9"",""projectId"":""a0a8f18c-a66e-4ba7-a170-23efbdc67501""}","https://test12345.live/?participantId=2F795F16481849E2B708A280E5C075B8&assignmentId=d0bf9b98-d52c-4cea-861b-36ccdbcc92b9&projectId=a0a8f18c-a66e-4ba7-a170-23efbdc67501","2F795F16481849E2B708A280E5C075B8-2024-11-24-18-58-34","","2001","","images/instructions/movie_4.png","0","",""
"","","","","","image-button-response","20","106422","0.0-6.0-1.0-2.3","2F795F16481849E2B708A280E5C075B8","2F795F16481849E2B708A280E5C075B8","d0bf9b98-d52c-4cea-861b-36ccdbcc92b9","a0a8f18c-a66e-4ba7-a170-23efbdc67501","{""participantId"":""2F795F16481849E2B708A280E5C075B8"",""assignmentId"":""d0bf9b98-d52c-4cea-861b-36ccdbcc92b9"",""projectId"":""a0a8f18c-a66e-4ba7-a170-23efbdc67501""}","https://test12345.live/?participantId=2F795F16481849E2B708A280E5C075B8&assignmentId=d0bf9b98-d52c-4cea-861b-36ccdbcc92b9&projectId=a0a8f18c-a66e-4ba7-a170-23efbdc67501","2F795F16481849E2B708A280E5C075B8-2024-11-24-18-58-34","","null","","[]","null","",""
"","","","","","instructions","21","114591","0.0-7.0","2F795F16481849E2B708A280E5C075B8","2F795F16481849E2B708A280E5C075B8","d0bf9b98-d52c-4cea-861b-36ccdbcc92b9","a0a8f18c-a66e-4ba7-a170-23efbdc67501","{""participantId"":""2F795F16481849E2B708A280E5C075B8"",""assignmentId"":""d0bf9b98-d52c-4cea-861b-36ccdbcc92b9"",""projectId"":""a0a8f18c-a66e-4ba7-a170-23efbdc67501""}","https://test12345.live/?participantId=2F795F16481849E2B708A280E5C075B8&assignmentId=d0bf9b98-d52c-4cea-861b-36ccdbcc92b9&projectId=a0a8f18c-a66e-4ba7-a170-23efbdc67501","2F795F16481849E2B708A280E5C075B8-2024-11-24-18-58-34","[{""page_index"":0,""viewing_time"":7030},{""page_index"":1,""viewing_time"":1138}]","8169","","","","",""
"","","","","","html-audio-response","22","197607","0.0-8.0","2F795F16481849E2B708A280E5C075B8","2F795F16481849E2B708A280E5C075B8","d0bf9b98-d52c-4cea-861b-36ccdbcc92b9","a0a8f18c-a66e-4ba7-a170-23efbdc67501","{""participantId"":""2F795F16481849E2B708A280E5C075B8"",""assignmentId"":""d0bf9b98-d52c-4cea-861b-36ccdbcc92b9"",""projectId"":""a0a8f18c-a66e-4ba7-a170-23efbdc67501""}","https://test12345.live/?participantId=2F795F16481849E2B708A280E5C075B8&assignmentId=d0bf9b98-d52c-4cea-861b-36ccdbcc92b9&projectId=a0a8f18c-a66e-4ba7-a170-23efbdc67501","2F795F16481849E2B708A280E5C075B8-2024-11-24-18-58-34","","17623","","[""<span style=\""color: red; font-size: 24px\""> NOW RECORDING</span><p>Please say out loud all the images you saw, as many as you can remember. The images can be said in any order.</p>""]","","2",""
"","","","","","instructions","23","198502","0.0-9.0","2F795F16481849E2B708A280E5C075B8","2F795F16481849E2B708A280E5C075B8","d0bf9b98-d52c-4cea-861b-36ccdbcc92b9","a0a8f18c-a66e-4ba7-a170-23efbdc67501","{""participantId"":""2F795F16481849E2B708A280E5C075B8"",""assignmentId"":""d0bf9b98-d52c-4cea-861b-36ccdbcc92b9"",""projectId"":""a0a8f18c-a66e-4ba7-a170-23efbdc67501""}","https://test12345.live/?participantId=2F795F16481849E2B708A280E5C075B8&assignmentId=d0bf9b98-d52c-4cea-861b-36ccdbcc92b9&projectId=a0a8f18c-a66e-4ba7-a170-23efbdc67501","2F795F16481849E2B708A280E5C075B8-2024-11-24-18-58-34","[{""page_index"":0,""viewing_time"":890}]","890","","","","",""
"","","","","","image-button-response","24","204507","0.0-10.0-0.0","2F795F16481849E2B708A280E5C075B8","2F795F16481849E2B708A280E5C075B8","d0bf9b98-d52c-4cea-861b-36ccdbcc92b9","a0a8f18c-a66e-4ba7-a170-23efbdc67501","{""participantId"":""2F795F16481849E2B708A280E5C075B8"",""assignmentId"":""d0bf9b98-d52c-4cea-861b-36ccdbcc92b9"",""projectId"":""a0a8f18c-a66e-4ba7-a170-23efbdc67501""}","https://test12345.live/?participantId=2F795F16481849E2B708A280E5C075B8&assignmentId=d0bf9b98-d52c-4cea-861b-36ccdbcc92b9&projectId=a0a8f18c-a66e-4ba7-a170-23efbdc67501","2F795F16481849E2B708A280E5C075B8-2024-11-24-18-58-34","","null","","images/causal_sequence/dog_causal/dog_causal_0.png","null","",""
"","","","","","image-button-response","25","209014","0.0-10.0-1.0-0.0","2F795F16481849E2B708A280E5C075B8","2F795F16481849E2B708A280E5C075B8","d0bf9b98-d52c-4cea-861b-36ccdbcc92b9","a0a8f18c-a66e-4ba7-a170-23efbdc67501","{""participantId"":""2F795F16481849E2B708A280E5C075B8"",""assignmentId"":""d0bf9b98-d52c-4cea-861b-36ccdbcc92b9"",""projectId"":""a0a8f18c-a66e-4ba7-a170-23efbdc67501""}","https://test12345.live/?participantId=2F795F16481849E2B708A280E5C075B8&assignmentId=d0bf9b98-d52c-4cea-861b-36ccdbcc92b9&projectId=a0a8f18c-a66e-4ba7-a170-23efbdc67501","2F795F16481849E2B708A280E5C075B8-2024-11-24-18-58-34","","null","","images/causal_sequence/dog_causal/dog_causal_5.png","null","",""
"","","","","","image-button-response","26","210485","0.0-10.0-1.0-1.0","2F795F16481849E2B708A280E5C075B8","2F795F16481849E2B708A280E5C075B8","d0bf9b98-d52c-4cea-861b-36ccdbcc92b9","a0a8f18c-a66e-4ba7-a170-23efbdc67501","{""participantId"":""2F795F16481849E2B708A280E5C075B8"",""assignmentId"":""d0bf9b98-d52c-4cea-861b-36ccdbcc92b9"",""projectId"":""a0a8f18c-a66e-4ba7-a170-23efbdc67501""}","https://test12345.live/?participantId=2F795F16481849E2B708A280E5C075B8&assignmentId=d0bf9b98-d52c-4cea-861b-36ccdbcc92b9&projectId=a0a8f18c-a66e-4ba7-a170-23efbdc67501","2F795F16481849E2B708A280E5C075B8-2024-11-24-18-58-34","","1469","","images/causal_sequence/dog_causal/dog_causal_5.png","0","",""
"","","","","","image-button-response","27","212290","0.0-10.0-1.0-2.0","2F795F16481849E2B708A280E5C075B8","2F795F16481849E2B708A280E5C075B8","d0bf9b98-d52c-4cea-861b-36ccdbcc92b9","a0a8f18c-a66e-4ba7-a170-23efbdc67501","{""participantId"":""2F795F16481849E2B708A280E5C075B8"",""assignmentId"":""d0bf9b98-d52c-4cea-861b-36ccdbcc92b9"",""projectId"":""a0a8f18c-a66e-4ba7-a170-23efbdc67501""}","https://test12345.live/?participantId=2F795F16481849E2B708A280E5C075B8&assignmentId=d0bf9b98-d52c-4cea-861b-36ccdbcc92b9&projectId=a0a8f18c-a66e-4ba7-a170-23efbdc67501","2F795F16481849E2B708A280E5C075B8-2024-11-24-18-58-34","","null","","[]","null","",""
"","","","","","image-button-response","28","216793","0.0-10.0-1.0-0.1","2F795F16481849E2B708A280E5C075B8","2F795F16481849E2B708A280E5C075B8","d0bf9b98-d52c-4cea-861b-36ccdbcc92b9","a0a8f18c-a66e-4ba7-a170-23efbdc67501","{""participantId"":""2F795F16481849E2B708A280E5C075B8"",""assignmentId"":""d0bf9b98-d52c-4cea-861b-36ccdbcc92b9"",""projectId"":""a0a8f18c-a66e-4ba7-a170-23efbdc67501""}","https://test12345.live/?participantId=2F795F16481849E2B708A280E5C075B8&assignmentId=d0bf9b98-d52c-4cea-861b-36ccdbcc92b9&projectId=a0a8f18c-a66e-4ba7-a170-23efbdc67501","2F795F16481849E2B708A280E5C075B8-2024-11-24-18-58-34","","null","","images/causal_sequence/dog_causal/dog_causal_1.png","null","",""
"","","","","","image-button-response","29","220800","0.0-10.0-1.0-1.1","2F795F16481849E2B708A280E5C075B8","2F795F16481849E2B708A280E5C075B8","d0bf9b98-d52c-4cea-861b-36ccdbcc92b9","a0a8f18c-a66e-4ba7-a170-23efbdc67501","{""participantId"":""2F795F16481849E2B708A280E5C075B8"",""assignmentId"":""d0bf9b98-d52c-4cea-861b-36ccdbcc92b9"",""projectId"":""a0a8f18c-a66e-4ba7-a170-23efbdc67501""}","https://test12345.live/?participantId=2F795F16481849E2B708A280E5C075B8&assignmentId=d0bf9b98-d52c-4cea-861b-36ccdbcc92b9&projectId=a0a8f18c-a66e-4ba7-a170-23efbdc67501","2F795F16481849E2B708A280E5C075B8-2024-11-24-18-58-34","","null","","images/causal_sequence/dog_causal/dog_causal_1.png","null","",""
"","","","","","image-button-response","30","222606","0.0-10.0-1.0-2.1","2F795F16481849E2B708A280E5C075B8","2F795F16481849E2B708A280E5C075B8","d0bf9b98-d52c-4cea-861b-36ccdbcc92b9","a0a8f18c-a66e-4ba7-a170-23efbdc67501","{""participantId"":""2F795F16481849E2B708A280E5C075B8"",""assignmentId"":""d0bf9b98-d52c-4cea-861b-36ccdbcc92b9"",""projectId"":""a0a8f18c-a66e-4ba7-a170-23efbdc67501""}","https://test12345.live/?participantId=2F795F16481849E2B708A280E5C075B8&assignmentId=d0bf9b98-d52c-4cea-861b-36ccdbcc92b9&projectId=a0a8f18c-a66e-4ba7-a170-23efbdc67501","2F795F16481849E2B708A280E5C075B8-2024-11-24-18-58-34","","null","","[]","null","",""
"","","","","","image-button-response","31","227108","0.0-10.0-1.0-0.2","2F795F16481849E2B708A280E5C075B8","2F795F16481849E2B708A280E5C075B8","d0bf9b98-d52c-4cea-861b-36ccdbcc92b9","a0a8f18c-a66e-4ba7-a170-23efbdc67501","{""participantId"":""2F795F16481849E2B708A280E5C075B8"",""assignmentId"":""d0bf9b98-d52c-4cea-861b-36ccdbcc92b9"",""projectId"":""a0a8f18c-a66e-4ba7-a170-23efbdc67501""}","https://test12345.live/?participantId=2F795F16481849E2B708A280E5C075B8&assignmentId=d0bf9b98-d52c-4cea-861b-36ccdbcc92b9&projectId=a0a8f18c-a66e-4ba7-a170-23efbdc67501","2F795F16481849E2B708A280E5C075B8-2024-11-24-18-58-34","","null","","images/causal_sequence/dog_causal/dog_causal_2.png","null","",""
"","","","","","image-button-response","32","229456","0.0-10.0-1.0-1.2","2F795F16481849E2B708A280E5C075B8","2F795F16481849E2B708A280E5C075B8","d0bf9b98-d52c-4cea-861b-36ccdbcc92b9","a0a8f18c-a66e-4ba7-a170-23efbdc67501","{""participantId"":""2F795F16481849E2B708A280E5C075B8"",""assignmentId"":""d0bf9b98-d52c-4cea-861b-36ccdbcc92b9"",""projectId"":""a0a8f18c-a66e-4ba7-a170-23efbdc67501""}","https://test12345.live/?participantId=2F795F16481849E2B708A280E5C075B8&assignmentId=d0bf9b98-d52c-4cea-861b-36ccdbcc92b9&projectId=a0a8f18c-a66e-4ba7-a170-23efbdc67501","2F795F16481849E2B708A280E5C075B8-2024-11-24-18-58-34","","2348","","images/causal_sequence/dog_causal/dog_causal_2.png","0","",""
"","","","","","image-button-response","33","231262","0.0-10.0-1.0-2.2","2F795F16481849E2B708A280E5C075B8","2F795F16481849E2B708A280E5C075B8","d0bf9b98-d52c-4cea-861b-36ccdbcc92b9","a0a8f18c-a66e-4ba7-a170-23efbdc67501","{""participantId"":""2F795F16481849E2B708A280E5C075B8"",""assignmentId"":""d0bf9b98-d52c-4cea-861b-36ccdbcc92b9"",""projectId"":""a0a8f18c-a66e-4ba7-a170-23efbdc67501""}","https://test12345.live/?participantId=2F795F16481849E2B708A280E5C075B8&assignmentId=d0bf9b98-d52c-4cea-861b-36ccdbcc92b9&projectId=a0a8f18c-a66e-4ba7-a170-23efbdc67501","2F795F16481849E2B708A280E5C075B8-2024-11-24-18-58-34","","null","","[]","null","",""
"","","","","","image-button-response","34","235769","0.0-10.0-1.0-0.3","2F795F16481849E2B708A280E5C075B8","2F795F16481849E2B708A280E5C075B8","d0bf9b98-d52c-4cea-861b-36ccdbcc92b9","a0a8f18c-a66e-4ba7-a170-23efbdc67501","{""participantId"":""2F795F16481849E2B708A280E5C075B8"",""assignmentId"":""d0bf9b98-d52c-4cea-861b-36ccdbcc92b9"",""projectId"":""a0a8f18c-a66e-4ba7-a170-23efbdc67501""}","https://test12345.live/?participantId=2F795F16481849E2B708A280E5C075B8&assignmentId=d0bf9b98-d52c-4cea-861b-36ccdbcc92b9&projectId=a0a8f18c-a66e-4ba7-a170-23efbdc67501","2F795F16481849E2B708A280E5C075B8-2024-11-24-18-58-34","","null","","images/causal_sequence/dog_causal/dog_causal_8.png","null","",""
"","","","","","image-button-response","35","236828","0.0-10.0-1.0-1.3","2F795F16481849E2B708A280E5C075B8","2F795F16481849E2B708A280E5C075B8","d0bf9b98-d52c-4cea-861b-36ccdbcc92b9","a0a8f18c-a66e-4ba7-a170-23efbdc67501","{""participantId"":""2F795F16481849E2B708A280E5C075B8"",""assignmentId"":""d0bf9b98-d52c-4cea-861b-36ccdbcc92b9"",""projectId"":""a0a8f18c-a66e-4ba7-a170-23efbdc67501""}","https://test12345.live/?participantId=2F795F16481849E2B708A280E5C075B8&assignmentId=d0bf9b98-d52c-4cea-861b-36ccdbcc92b9&projectId=a0a8f18c-a66e-4ba7-a170-23efbdc67501","2F795F16481849E2B708A280E5C075B8-2024-11-24-18-58-34","","1057","","images/causal_sequence/dog_causal/dog_causal_8.png","0","",""
"","","","","","image-button-response","36","238635","0.0-10.0-1.0-2.3","2F795F16481849E2B708A280E5C075B8","2F795F16481849E2B708A280E5C075B8","d0bf9b98-d52c-4cea-861b-36ccdbcc92b9","a0a8f18c-a66e-4ba7-a170-23efbdc67501","{""participantId"":""2F795F16481849E2B708A280E5C075B8"",""assignmentId"":""d0bf9b98-d52c-4cea-861b-36ccdbcc92b9"",""projectId"":""a0a8f18c-a66e-4ba7-a170-23efbdc67501""}","https://test12345.live/?participantId=2F795F16481849E2B708A280E5C075B8&assignmentId=d0bf9b98-d52c-4cea-861b-36ccdbcc92b9&projectId=a0a8f18c-a66e-4ba7-a170-23efbdc67501","2F795F16481849E2B708A280E5C075B8-2024-11-24-18-58-34","","null","","[]","null","",""
"","","","","","image-button-response","37","243141","0.0-10.0-1.0-0.4","2F795F16481849E2B708A280E5C075B8","2F795F16481849E2B708A280E5C075B8","d0bf9b98-d52c-4cea-861b-36ccdbcc92b9","a0a8f18c-a66e-4ba7-a170-23efbdc67501","{""participantId"":""2F795F16481849E2B708A280E5C075B8"",""assignmentId"":""d0bf9b98-d52c-4cea-861b-36ccdbcc92b9"",""projectId"":""a0a8f18c-a66e-4ba7-a170-23efbdc67501""}","https://test12345.live/?participantId=2F795F16481849E2B708A280E5C075B8&assignmentId=d0bf9b98-d52c-4cea-861b-36ccdbcc92b9&projectId=a0a8f18c-a66e-4ba7-a170-23efbdc67501","2F795F16481849E2B708A280E5C075B8-2024-11-24-18-58-34","","null","","images/causal_sequence/dog_causal/dog_causal_4.png","null","",""
"","","","","","image-button-response","38","244208","0.0-10.0-1.0-1.4","2F795F16481849E2B708A280E5C075B8","2F795F16481849E2B708A280E5C075B8","d0bf9b98-d52c-4cea-861b-36ccdbcc92b9","a0a8f18c-a66e-4ba7-a170-23efbdc67501","{""participantId"":""2F795F16481849E2B708A280E5C075B8"",""assignmentId"":""d0bf9b98-d52c-4cea-861b-36ccdbcc92b9"",""projectId"":""a0a8f18c-a66e-4ba7-a170-23efbdc67501""}","https://test12345.live/?participantId=2F795F16481849E2B708A280E5C075B8&assignmentId=d0bf9b98-d52c-4cea-861b-36ccdbcc92b9&projectId=a0a8f18c-a66e-4ba7-a170-23efbdc67501","2F795F16481849E2B708A280E5C075B8-2024-11-24-18-58-34","","1065","","images/causal_sequence/dog_causal/dog_causal_4.png","0","",""
"","","","","","image-button-response","39","246012","0.0-10.0-1.0-2.4","2F795F16481849E2B708A280E5C075B8","2F795F16481849E2B708A280E5C075B8","d0bf9b98-d52c-4cea-861b-36ccdbcc92b9","a0a8f18c-a66e-4ba7-a170-23efbdc67501","{""participantId"":""2F795F16481849E2B708A280E5C075B8"",""assignmentId"":""d0bf9b98-d52c-4cea-861b-36ccdbcc92b9"",""projectId"":""a0a8f18c-a66e-4ba7-a170-23efbdc67501""}","https://test12345.live/?participantId=2F795F16481849E2B708A280E5C075B8&assignmentId=d0bf9b98-d52c-4cea-861b-36ccdbcc92b9&projectId=a0a8f18c-a66e-4ba7-a170-23efbdc67501","2F795F16481849E2B708A280E5C075B8-2024-11-24-18-58-34","","null","","[]","null","",""
"","","","","","image-button-response","40","250519","0.0-10.0-1.0-0.5","2F795F16481849E2B708A280E5C075B8","2F795F16481849E2B708A280E5C075B8","d0bf9b98-d52c-4cea-861b-36ccdbcc92b9","a0a8f18c-a66e-4ba7-a170-23efbdc67501","{""participantId"":""2F795F16481849E2B708A280E5C075B8"",""assignmentId"":""d0bf9b98-d52c-4cea-861b-36ccdbcc92b9"",""projectId"":""a0a8f18c-a66e-4ba7-a170-23efbdc67501""}","https://test12345.live/?participantId=2F795F16481849E2B708A280E5C075B8&assignmentId=d0bf9b98-d52c-4cea-861b-36ccdbcc92b9&projectId=a0a8f18c-a66e-4ba7-a170-23efbdc67501","2F795F16481849E2B708A280E5C075B8-2024-11-24-18-58-34","","null","","images/causal_sequence/dog_causal/dog_causal_6.png","null","",""
"","","","","","image-button-response","41","251640","0.0-10.0-1.0-1.5","2F795F16481849E2B708A280E5C075B8","2F795F16481849E2B708A280E5C075B8","d0bf9b98-d52c-4cea-861b-36ccdbcc92b9","a0a8f18c-a66e-4ba7-a170-23efbdc67501","{""participantId"":""2F795F16481849E2B708A280E5C075B8"",""assignmentId"":""d0bf9b98-d52c-4cea-861b-36ccdbcc92b9"",""projectId"":""a0a8f18c-a66e-4ba7-a170-23efbdc67501""}","https://test12345.live/?participantId=2F795F16481849E2B708A280E5C075B8&assignmentId=d0bf9b98-d52c-4cea-861b-36ccdbcc92b9&projectId=a0a8f18c-a66e-4ba7-a170-23efbdc67501","2F795F16481849E2B708A280E5C075B8-2024-11-24-18-58-34","","1119","","images/causal_sequence/dog_causal/dog_causal_6.png","0","",""
"","","","","","image-button-response","42","253446","0.0-10.0-1.0-2.5","2F795F16481849E2B708A280E5C075B8","2F795F16481849E2B708A280E5C075B8","d0bf9b98-d52c-4cea-861b-36ccdbcc92b9","a0a8f18c-a66e-4ba7-a170-23efbdc67501","{""participantId"":""2F795F16481849E2B708A280E5C075B8"",""assignmentId"":""d0bf9b98-d52c-4cea-861b-36ccdbcc92b9"",""projectId"":""a0a8f18c-a66e-4ba7-a170-23efbdc67501""}","https://test12345.live/?participantId=2F795F16481849E2B708A280E5C075B8&assignmentId=d0bf9b98-d52c-4cea-861b-36ccdbcc92b9&projectId=a0a8f18c-a66e-4ba7-a170-23efbdc67501","2F795F16481849E2B708A280E5C075B8-2024-11-24-18-58-34","","null","","[]","null","",""
"","","","","","image-button-response","43","257952","0.0-10.0-1.0-0.6","2F795F16481849E2B708A280E5C075B8","2F795F16481849E2B708A280E5C075B8","d0bf9b98-d52c-4cea-861b-36ccdbcc92b9","a0a8f18c-a66e-4ba7-a170-23efbdc67501","{""participantId"":""2F795F16481849E2B708A280E5C075B8"",""assignmentId"":""d0bf9b98-d52c-4cea-861b-36ccdbcc92b9"",""projectId"":""a0a8f18c-a66e-4ba7-a170-23efbdc67501""}","https://test12345.live/?participantId=2F795F16481849E2B708A280E5C075B8&assignmentId=d0bf9b98-d52c-4cea-861b-36ccdbcc92b9&projectId=a0a8f18c-a66e-4ba7-a170-23efbdc67501","2F795F16481849E2B708A280E5C075B8-2024-11-24-18-58-34","","null","","images/causal_sequence/dog_causal/dog_causal_7.png","null","",""
"","","","","","image-button-response","44","258795","0.0-10.0-1.0-1.6","2F795F16481849E2B708A280E5C075B8","2F795F16481849E2B708A280E5C075B8","d0bf9b98-d52c-4cea-861b-36ccdbcc92b9","a0a8f18c-a66e-4ba7-a170-23efbdc67501","{""participantId"":""2F795F16481849E2B708A280E5C075B8"",""assignmentId"":""d0bf9b98-d52c-4cea-861b-36ccdbcc92b9"",""projectId"":""a0a8f18c-a66e-4ba7-a170-23efbdc67501""}","https://test12345.live/?participantId=2F795F16481849E2B708A280E5C075B8&assignmentId=d0bf9b98-d52c-4cea-861b-36ccdbcc92b9&projectId=a0a8f18c-a66e-4ba7-a170-23efbdc67501","2F795F16481849E2B708A280E5C075B8-2024-11-24-18-58-34","","842","","images/causal_sequence/dog_causal/dog_causal_7.png","0","",""
"","","","","","image-button-response","45","260601","0.0-10.0-1.0-2.6","2F795F16481849E2B708A280E5C075B8","2F795F16481849E2B708A280E5C075B8","d0bf9b98-d52c-4cea-861b-36ccdbcc92b9","a0a8f18c-a66e-4ba7-a170-23efbdc67501","{""participantId"":""2F795F16481849E2B708A280E5C075B8"",""assignmentId"":""d0bf9b98-d52c-4cea-861b-36ccdbcc92b9"",""projectId"":""a0a8f18c-a66e-4ba7-a170-23efbdc67501""}","https://test12345.live/?participantId=2F795F16481849E2B708A280E5C075B8&assignmentId=d0bf9b98-d52c-4cea-861b-36ccdbcc92b9&projectId=a0a8f18c-a66e-4ba7-a170-23efbdc67501","2F795F16481849E2B708A280E5C075B8-2024-11-24-18-58-34","","null","","[]","null","",""
"","","","","","image-button-response","46","265108","0.0-10.0-1.0-0.7","2F795F16481849E2B708A280E5C075B8","2F795F16481849E2B708A280E5C075B8","d0bf9b98-d52c-4cea-861b-36ccdbcc92b9","a0a8f18c-a66e-4ba7-a170-23efbdc67501","{""participantId"":""2F795F16481849E2B708A280E5C075B8"",""assignmentId"":""d0bf9b98-d52c-4cea-861b-36ccdbcc92b9"",""projectId"":""a0a8f18c-a66e-4ba7-a170-23efbdc67501""}","https://test12345.live/?participantId=2F795F16481849E2B708A280E5C075B8&assignmentId=d0bf9b98-d52c-4cea-861b-36ccdbcc92b9&projectId=a0a8f18c-a66e-4ba7-a170-23efbdc67501","2F795F16481849E2B708A280E5C075B8-2024-11-24-18-58-34","","null","","images/causal_sequence/dog_causal/dog_causal_9.png","null","",""
"","","","","","image-button-response","47","265709","0.0-10.0-1.0-1.7","2F795F16481849E2B708A280E5C075B8","2F795F16481849E2B708A280E5C075B8","d0bf9b98-d52c-4cea-861b-36ccdbcc92b9","a0a8f18c-a66e-4ba7-a170-23efbdc67501","{""participantId"":""2F795F16481849E2B708A280E5C075B8"",""assignmentId"":""d0bf9b98-d52c-4cea-861b-36ccdbcc92b9"",""projectId"":""a0a8f18c-a66e-4ba7-a170-23efbdc67501""}","https://test12345.live/?participantId=2F795F16481849E2B708A280E5C075B8&assignmentId=d0bf9b98-d52c-4cea-861b-36ccdbcc92b9&projectId=a0a8f18c-a66e-4ba7-a170-23efbdc67501","2F795F16481849E2B708A280E5C075B8-2024-11-24-18-58-34","","599","","images/causal_sequence/dog_causal/dog_causal_9.png","0","",""
"","","","","","image-button-response","48","267513","0.0-10.0-1.0-2.7","2F795F16481849E2B708A280E5C075B8","2F795F16481849E2B708A280E5C075B8","d0bf9b98-d52c-4cea-861b-36ccdbcc92b9","a0a8f18c-a66e-4ba7-a170-23efbdc67501","{""participantId"":""2F795F16481849E2B708A280E5C075B8"",""assignmentId"":""d0bf9b98-d52c-4cea-861b-36ccdbcc92b9"",""projectId"":""a0a8f18c-a66e-4ba7-a170-23efbdc67501""}","https://test12345.live/?participantId=2F795F16481849E2B708A280E5C075B8&assignmentId=d0bf9b98-d52c-4cea-861b-36ccdbcc92b9&projectId=a0a8f18c-a66e-4ba7-a170-23efbdc67501","2F795F16481849E2B708A280E5C075B8-2024-11-24-18-58-34","","null","","[]","null","",""
"","","","","","image-button-response","49","272015","0.0-10.0-1.0-0.8","2F795F16481849E2B708A280E5C075B8","2F795F16481849E2B708A280E5C075B8","d0bf9b98-d52c-4cea-861b-36ccdbcc92b9","a0a8f18c-a66e-4ba7-a170-23efbdc67501","{""participantId"":""2F795F16481849E2B708A280E5C075B8"",""assignmentId"":""d0bf9b98-d52c-4cea-861b-36ccdbcc92b9"",""projectId"":""a0a8f18c-a66e-4ba7-a170-23efbdc67501""}","https://test12345.live/?participantId=2F795F16481849E2B708A280E5C075B8&assignmentId=d0bf9b98-d52c-4cea-861b-36ccdbcc92b9&projectId=a0a8f18c-a66e-4ba7-a170-23efbdc67501","2F795F16481849E2B708A280E5C075B8-2024-11-24-18-58-34","","null","","images/causal_sequence/dog_causal/dog_causal_3.png","null","",""
"","","","","","image-button-response","50","272779","0.0-10.0-1.0-1.8","2F795F16481849E2B708A280E5C075B8","2F795F16481849E2B708A280E5C075B8","d0bf9b98-d52c-4cea-861b-36ccdbcc92b9","a0a8f18c-a66e-4ba7-a170-23efbdc67501","{""participantId"":""2F795F16481849E2B708A280E5C075B8"",""assignmentId"":""d0bf9b98-d52c-4cea-861b-36ccdbcc92b9"",""projectId"":""a0a8f18c-a66e-4ba7-a170-23efbdc67501""}","https://test12345.live/?participantId=2F795F16481849E2B708A280E5C075B8&assignmentId=d0bf9b98-d52c-4cea-861b-36ccdbcc92b9&projectId=a0a8f18c-a66e-4ba7-a170-23efbdc67501","2F795F16481849E2B708A280E5C075B8-2024-11-24-18-58-34","","763","","images/causal_sequence/dog_causal/dog_causal_3.png","0","",""
"","","","","","image-button-response","51","274585","0.0-10.0-1.0-2.8","2F795F16481849E2B708A280E5C075B8","2F795F16481849E2B708A280E5C075B8","d0bf9b98-d52c-4cea-861b-36ccdbcc92b9","a0a8f18c-a66e-4ba7-a170-23efbdc67501","{""participantId"":""2F795F16481849E2B708A280E5C075B8"",""assignmentId"":""d0bf9b98-d52c-4cea-861b-36ccdbcc92b9"",""projectId"":""a0a8f18c-a66e-4ba7-a170-23efbdc67501""}","https://test12345.live/?participantId=2F795F16481849E2B708A280E5C075B8&assignmentId=d0bf9b98-d52c-4cea-861b-36ccdbcc92b9&projectId=a0a8f18c-a66e-4ba7-a170-23efbdc67501","2F795F16481849E2B708A280E5C075B8-2024-11-24-18-58-34","","null","","[]","null","",""
"","","","","","image-button-response","52","279091","0.0-10.0-1.0-0.9","2F795F16481849E2B708A280E5C075B8","2F795F16481849E2B708A280E5C075B8","d0bf9b98-d52c-4cea-861b-36ccdbcc92b9","a0a8f18c-a66e-4ba7-a170-23efbdc67501","{""participantId"":""2F795F16481849E2B708A280E5C075B8"",""assignmentId"":""d0bf9b98-d52c-4cea-861b-36ccdbcc92b9"",""projectId"":""a0a8f18c-a66e-4ba7-a170-23efbdc67501""}","https://test12345.live/?participantId=2F795F16481849E2B708A280E5C075B8&assignmentId=d0bf9b98-d52c-4cea-861b-36ccdbcc92b9&projectId=a0a8f18c-a66e-4ba7-a170-23efbdc67501","2F795F16481849E2B708A280E5C075B8-2024-11-24-18-58-34","","null","","images/causal_sequence/dog_causal/dog_causal_ten.png","null","",""
"","","","","","image-button-response","53","279530","0.0-10.0-1.0-1.9","2F795F16481849E2B708A280E5C075B8","2F795F16481849E2B708A280E5C075B8","d0bf9b98-d52c-4cea-861b-36ccdbcc92b9","a0a8f18c-a66e-4ba7-a170-23efbdc67501","{""participantId"":""2F795F16481849E2B708A280E5C075B8"",""assignmentId"":""d0bf9b98-d52c-4cea-861b-36ccdbcc92b9"",""projectId"":""a0a8f18c-a66e-4ba7-a170-23efbdc67501""}","https://test12345.live/?participantId=2F795F16481849E2B708A280E5C075B8&assignmentId=d0bf9b98-d52c-4cea-861b-36ccdbcc92b9&projectId=a0a8f18c-a66e-4ba7-a170-23efbdc67501","2F795F16481849E2B708A280E5C075B8-2024-11-24-18-58-34","","437","","images/causal_sequence/dog_causal/dog_causal_ten.png","0","",""
"","","","","","image-button-response","54","281333","0.0-10.0-1.0-2.9","2F795F16481849E2B708A280E5C075B8","2F795F16481849E2B708A280E5C075B8","d0bf9b98-d52c-4cea-861b-36ccdbcc92b9","a0a8f18c-a66e-4ba7-a170-23efbdc67501","{""participantId"":""2F795F16481849E2B708A280E5C075B8"",""assignmentId"":""d0bf9b98-d52c-4cea-861b-36ccdbcc92b9"",""projectId"":""a0a8f18c-a66e-4ba7-a170-23efbdc67501""}","https://test12345.live/?participantId=2F795F16481849E2B708A280E5C075B8&assignmentId=d0bf9b98-d52c-4cea-861b-36ccdbcc92b9&projectId=a0a8f18c-a66e-4ba7-a170-23efbdc67501","2F795F16481849E2B708A280E5C075B8-2024-11-24-18-58-34","","null","","[]","null","",""
"","","","","","html-audio-response","55","359593","0.0-11.0","2F795F16481849E2B708A280E5C075B8","2F795F16481849E2B708A280E5C075B8","d0bf9b98-d52c-4cea-861b-36ccdbcc92b9","a0a8f18c-a66e-4ba7-a170-23efbdc67501","{""participantId"":""2F795F16481849E2B708A280E5C075B8"",""assignmentId"":""d0bf9b98-d52c-4cea-861b-36ccdbcc92b9"",""projectId"":""a0a8f18c-a66e-4ba7-a170-23efbdc67501""}","https://test12345.live/?participantId=2F795F16481849E2B708A280E5C075B8&assignmentId=d0bf9b98-d52c-4cea-861b-36ccdbcc92b9&projectId=a0a8f18c-a66e-4ba7-a170-23efbdc67501","2F795F16481849E2B708A280E5C075B8-2024-11-24-18-58-34","","29400","","[""<span style=\""color: red; font-size: 24px\""> NOW RECORDING</span><p>Please say out loud all the images you saw, as many as you can remember. The images can be said in any order.</p>""]","","3","dog_causal"
"","","","","","image-button-response","56","365606","0.0-12.0-0.0","2F795F16481849E2B708A280E5C075B8","2F795F16481849E2B708A280E5C075B8","d0bf9b98-d52c-4cea-861b-36ccdbcc92b9","a0a8f18c-a66e-4ba7-a170-23efbdc67501","{""participantId"":""2F795F16481849E2B708A280E5C075B8"",""assignmentId"":""d0bf9b98-d52c-4cea-861b-36ccdbcc92b9"",""projectId"":""a0a8f18c-a66e-4ba7-a170-23efbdc67501""}","https://test12345.live/?participantId=2F795F16481849E2B708A280E5C075B8&assignmentId=d0bf9b98-d52c-4cea-861b-36ccdbcc92b9&projectId=a0a8f18c-a66e-4ba7-a170-23efbdc67501","2F795F16481849E2B708A280E5C075B8-2024-11-24-18-58-34","","null","","images/semantic_sequence/physical_activity_semantic/physical_activity_semantic_0.png","null","",""
"","","","","","image-button-response","57","370112","0.0-12.0-1.0-0.0","2F795F16481849E2B708A280E5C075B8","2F795F16481849E2B708A280E5C075B8","d0bf9b98-d52c-4cea-861b-36ccdbcc92b9","a0a8f18c-a66e-4ba7-a170-23efbdc67501","{""participantId"":""2F795F16481849E2B708A280E5C075B8"",""assignmentId"":""d0bf9b98-d52c-4cea-861b-36ccdbcc92b9"",""projectId"":""a0a8f18c-a66e-4ba7-a170-23efbdc67501""}","https://test12345.live/?participantId=2F795F16481849E2B708A280E5C075B8&assignmentId=d0bf9b98-d52c-4cea-861b-36ccdbcc92b9&projectId=a0a8f18c-a66e-4ba7-a170-23efbdc67501","2F795F16481849E2B708A280E5C075B8-2024-11-24-18-58-34","","null","","images/semantic_sequence/physical_activity_semantic/physical_activity_semantic_1.png","null","",""
"","","","","","image-button-response","58","374114","0.0-12.0-1.0-1.0","2F795F16481849E2B708A280E5C075B8","2F795F16481849E2B708A280E5C075B8","d0bf9b98-d52c-4cea-861b-36ccdbcc92b9","a0a8f18c-a66e-4ba7-a170-23efbdc67501","{""participantId"":""2F795F16481849E2B708A280E5C075B8"",""assignmentId"":""d0bf9b98-d52c-4cea-861b-36ccdbcc92b9"",""projectId"":""a0a8f18c-a66e-4ba7-a170-23efbdc67501""}","https://test12345.live/?participantId=2F795F16481849E2B708A280E5C075B8&assignmentId=d0bf9b98-d52c-4cea-861b-36ccdbcc92b9&projectId=a0a8f18c-a66e-4ba7-a170-23efbdc67501","2F795F16481849E2B708A280E5C075B8-2024-11-24-18-58-34","","null","","images/semantic_sequence/physical_activity_semantic/physical_activity_semantic_1.png","null","",""
"","","","","","image-button-response","59","375916","0.0-12.0-1.0-2.0","2F795F16481849E2B708A280E5C075B8","2F795F16481849E2B708A280E5C075B8","d0bf9b98-d52c-4cea-861b-36ccdbcc92b9","a0a8f18c-a66e-4ba7-a170-23efbdc67501","{""participantId"":""2F795F16481849E2B708A280E5C075B8"",""assignmentId"":""d0bf9b98-d52c-4cea-861b-36ccdbcc92b9"",""projectId"":""a0a8f18c-a66e-4ba7-a170-23efbdc67501""}","https://test12345.live/?participantId=2F795F16481849E2B708A280E5C075B8&assignmentId=d0bf9b98-d52c-4cea-861b-36ccdbcc92b9&projectId=a0a8f18c-a66e-4ba7-a170-23efbdc67501","2F795F16481849E2B708A280E5C075B8-2024-11-24-18-58-34","","null","","[]","null","",""
"","","","","","image-button-response","60","380422","0.0-12.0-1.0-0.1","2F795F16481849E2B708A280E5C075B8","2F795F16481849E2B708A280E5C075B8","d0bf9b98-d52c-4cea-861b-36ccdbcc92b9","a0a8f18c-a66e-4ba7-a170-23efbdc67501","{""participantId"":""2F795F16481849E2B708A280E5C075B8"",""assignmentId"":""d0bf9b98-d52c-4cea-861b-36ccdbcc92b9"",""projectId"":""a0a8f18c-a66e-4ba7-a170-23efbdc67501""}","https://test12345.live/?participantId=2F795F16481849E2B708A280E5C075B8&assignmentId=d0bf9b98-d52c-4cea-861b-36ccdbcc92b9&projectId=a0a8f18c-a66e-4ba7-a170-23efbdc67501","2F795F16481849E2B708A280E5C075B8-2024-11-24-18-58-34","","null","","images/semantic_sequence/physical_activity_semantic/physical_activity_semantic_2.png","null","",""
"","","","","","image-button-response","61","382003","0.0-12.0-1.0-1.1","2F795F16481849E2B708A280E5C075B8","2F795F16481849E2B708A280E5C075B8","d0bf9b98-d52c-4cea-861b-36ccdbcc92b9","a0a8f18c-a66e-4ba7-a170-23efbdc67501","{""participantId"":""2F795F16481849E2B708A280E5C075B8"",""assignmentId"":""d0bf9b98-d52c-4cea-861b-36ccdbcc92b9"",""projectId"":""a0a8f18c-a66e-4ba7-a170-23efbdc67501""}","https://test12345.live/?participantId=2F795F16481849E2B708A280E5C075B8&assignmentId=d0bf9b98-d52c-4cea-861b-36ccdbcc92b9&projectId=a0a8f18c-a66e-4ba7-a170-23efbdc67501","2F795F16481849E2B708A280E5C075B8-2024-11-24-18-58-34","","1579","","images/semantic_sequence/physical_activity_semantic/physical_activity_semantic_2.png","0","",""
"","","","","","image-button-response","62","383807","0.0-12.0-1.0-2.1","2F795F16481849E2B708A280E5C075B8","2F795F16481849E2B708A280E5C075B8","d0bf9b98-d52c-4cea-861b-36ccdbcc92b9","a0a8f18c-a66e-4ba7-a170-23efbdc67501","{""participantId"":""2F795F16481849E2B708A280E5C075B8"",""assignmentId"":""d0bf9b98-d52c-4cea-861b-36ccdbcc92b9"",""projectId"":""a0a8f18c-a66e-4ba7-a170-23efbdc67501""}","https://test12345.live/?participantId=2F795F16481849E2B708A280E5C075B8&assignmentId=d0bf9b98-d52c-4cea-861b-36ccdbcc92b9&projectId=a0a8f18c-a66e-4ba7-a170-23efbdc67501","2F795F16481849E2B708A280E5C075B8-2024-11-24-18-58-34","","null","","[]","null","",""
"","","","","","image-button-response","63","388314","0.0-12.0-1.0-0.2","2F795F16481849E2B708A280E5C075B8","2F795F16481849E2B708A280E5C075B8","d0bf9b98-d52c-4cea-861b-36ccdbcc92b9","a0a8f18c-a66e-4ba7-a170-23efbdc67501","{""participantId"":""2F795F16481849E2B708A280E5C075B8"",""assignmentId"":""d0bf9b98-d52c-4cea-861b-36ccdbcc92b9"",""projectId"":""a0a8f18c-a66e-4ba7-a170-23efbdc67501""}","https://test12345.live/?participantId=2F795F16481849E2B708A280E5C075B8&assignmentId=d0bf9b98-d52c-4cea-861b-36ccdbcc92b9&projectId=a0a8f18c-a66e-4ba7-a170-23efbdc67501","2F795F16481849E2B708A280E5C075B8-2024-11-24-18-58-34","","null","","images/semantic_sequence/physical_activity_semantic/physical_activity_semantic_3.png","null","",""
"","","","","","image-button-response","64","388855","0.0-12.0-1.0-1.2","2F795F16481849E2B708A280E5C075B8","2F795F16481849E2B708A280E5C075B8","d0bf9b98-d52c-4cea-861b-36ccdbcc92b9","a0a8f18c-a66e-4ba7-a170-23efbdc67501","{""participantId"":""2F795F16481849E2B708A280E5C075B8"",""assignmentId"":""d0bf9b98-d52c-4cea-861b-36ccdbcc92b9"",""projectId"":""a0a8f18c-a66e-4ba7-a170-23efbdc67501""}","https://test12345.live/?participantId=2F795F16481849E2B708A280E5C075B8&assignmentId=d0bf9b98-d52c-4cea-861b-36ccdbcc92b9&projectId=a0a8f18c-a66e-4ba7-a170-23efbdc67501","2F795F16481849E2B708A280E5C075B8-2024-11-24-18-58-34","","538","","images/semantic_sequence/physical_activity_semantic/physical_activity_semantic_3.png","0","",""
"","","","","","image-button-response","65","390661","0.0-12.0-1.0-2.2","2F795F16481849E2B708A280E5C075B8","2F795F16481849E2B708A280E5C075B8","d0bf9b98-d52c-4cea-861b-36ccdbcc92b9","a0a8f18c-a66e-4ba7-a170-23efbdc67501","{""participantId"":""2F795F16481849E2B708A280E5C075B8"",""assignmentId"":""d0bf9b98-d52c-4cea-861b-36ccdbcc92b9"",""projectId"":""a0a8f18c-a66e-4ba7-a170-23efbdc67501""}","https://test12345.live/?participantId=2F795F16481849E2B708A280E5C075B8&assignmentId=d0bf9b98-d52c-4cea-861b-36ccdbcc92b9&projectId=a0a8f18c-a66e-4ba7-a170-23efbdc67501","2F795F16481849E2B708A280E5C075B8-2024-11-24-18-58-34","","null","","[]","null","",""
"","","","","","image-button-response","66","395167","0.0-12.0-1.0-0.3","2F795F16481849E2B708A280E5C075B8","2F795F16481849E2B708A280E5C075B8","d0bf9b98-d52c-4cea-861b-36ccdbcc92b9","a0a8f18c-a66e-4ba7-a170-23efbdc67501","{""participantId"":""2F795F16481849E2B708A280E5C075B8"",""assignmentId"":""d0bf9b98-d52c-4cea-861b-36ccdbcc92b9"",""projectId"":""a0a8f18c-a66e-4ba7-a170-23efbdc67501""}","https://test12345.live/?participantId=2F795F16481849E2B708A280E5C075B8&assignmentId=d0bf9b98-d52c-4cea-861b-36ccdbcc92b9&projectId=a0a8f18c-a66e-4ba7-a170-23efbdc67501","2F795F16481849E2B708A280E5C075B8-2024-11-24-18-58-34","","null","","images/semantic_sequence/physical_activity_semantic/physical_activity_semantic_4.png","null","",""
"","","","","","image-button-response","67","395633","0.0-12.0-1.0-1.3","2F795F16481849E2B708A280E5C075B8","2F795F16481849E2B708A280E5C075B8","d0bf9b98-d52c-4cea-861b-36ccdbcc92b9","a0a8f18c-a66e-4ba7-a170-23efbdc67501","{""participantId"":""2F795F16481849E2B708A280E5C075B8"",""assignmentId"":""d0bf9b98-d52c-4cea-861b-36ccdbcc92b9"",""projectId"":""a0a8f18c-a66e-4ba7-a170-23efbdc67501""}","https://test12345.live/?participantId=2F795F16481849E2B708A280E5C075B8&assignmentId=d0bf9b98-d52c-4cea-861b-36ccdbcc92b9&projectId=a0a8f18c-a66e-4ba7-a170-23efbdc67501","2F795F16481849E2B708A280E5C075B8-2024-11-24-18-58-34","","464","","images/semantic_sequence/physical_activity_semantic/physical_activity_semantic_4.png","0","",""
"","","","","","image-button-response","68","397438","0.0-12.0-1.0-2.3","2F795F16481849E2B708A280E5C075B8","2F795F16481849E2B708A280E5C075B8","d0bf9b98-d52c-4cea-861b-36ccdbcc92b9","a0a8f18c-a66e-4ba7-a170-23efbdc67501","{""participantId"":""2F795F16481849E2B708A280E5C075B8"",""assignmentId"":""d0bf9b98-d52c-4cea-861b-36ccdbcc92b9"",""projectId"":""a0a8f18c-a66e-4ba7-a170-23efbdc67501""}","https://test12345.live/?participantId=2F795F16481849E2B708A280E5C075B8&assignmentId=d0bf9b98-d52c-4cea-861b-36ccdbcc92b9&projectId=a0a8f18c-a66e-4ba7-a170-23efbdc67501","2F795F16481849E2B708A280E5C075B8-2024-11-24-18-58-34","","null","","[]","null","",""
"","","","","","image-button-response","69","401944","0.0-12.0-1.0-0.4","2F795F16481849E2B708A280E5C075B8","2F795F16481849E2B708A280E5C075B8","d0bf9b98-d52c-4cea-861b-36ccdbcc92b9","a0a8f18c-a66e-4ba7-a170-23efbdc67501","{""participantId"":""2F795F16481849E2B708A280E5C075B8"",""assignmentId"":""d0bf9b98-d52c-4cea-861b-36ccdbcc92b9"",""projectId"":""a0a8f18c-a66e-4ba7-a170-23efbdc67501""}","https://test12345.live/?participantId=2F795F16481849E2B708A280E5C075B8&assignmentId=d0bf9b98-d52c-4cea-861b-36ccdbcc92b9&projectId=a0a8f18c-a66e-4ba7-a170-23efbdc67501","2F795F16481849E2B708A280E5C075B8-2024-11-24-18-58-34","","null","","images/semantic_sequence/physical_activity_semantic/physical_activity_semantic_5.png","null","",""
"","","","","","image-button-response","70","402757","0.0-12.0-1.0-1.4","2F795F16481849E2B708A280E5C075B8","2F795F16481849E2B708A280E5C075B8","d0bf9b98-d52c-4cea-861b-36ccdbcc92b9","a0a8f18c-a66e-4ba7-a170-23efbdc67501","{""participantId"":""2F795F16481849E2B708A280E5C075B8"",""assignmentId"":""d0bf9b98-d52c-4cea-861b-36ccdbcc92b9"",""projectId"":""a0a8f18c-a66e-4ba7-a170-23efbdc67501""}","https://test12345.live/?participantId=2F795F16481849E2B708A280E5C075B8&assignmentId=d0bf9b98-d52c-4cea-861b-36ccdbcc92b9&projectId=a0a8f18c-a66e-4ba7-a170-23efbdc67501","2F795F16481849E2B708A280E5C075B8-2024-11-24-18-58-34","","810","","images/semantic_sequence/physical_activity_semantic/physical_activity_semantic_5.png","0","",""
"","","","","","image-button-response","71","404562","0.0-12.0-1.0-2.4","2F795F16481849E2B708A280E5C075B8","2F795F16481849E2B708A280E5C075B8","d0bf9b98-d52c-4cea-861b-36ccdbcc92b9","a0a8f18c-a66e-4ba7-a170-23efbdc67501","{""participantId"":""2F795F16481849E2B708A280E5C075B8"",""assignmentId"":""d0bf9b98-d52c-4cea-861b-36ccdbcc92b9"",""projectId"":""a0a8f18c-a66e-4ba7-a170-23efbdc67501""}","https://test12345.live/?participantId=2F795F16481849E2B708A280E5C075B8&assignmentId=d0bf9b98-d52c-4cea-861b-36ccdbcc92b9&projectId=a0a8f18c-a66e-4ba7-a170-23efbdc67501","2F795F16481849E2B708A280E5C075B8-2024-11-24-18-58-34","","null","","[]","null","",""
"","","","","","image-button-response","72","409065","0.0-12.0-1.0-0.5","2F795F16481849E2B708A280E5C075B8","2F795F16481849E2B708A280E5C075B8","d0bf9b98-d52c-4cea-861b-36ccdbcc92b9","a0a8f18c-a66e-4ba7-a170-23efbdc67501","{""participantId"":""2F795F16481849E2B708A280E5C075B8"",""assignmentId"":""d0bf9b98-d52c-4cea-861b-36ccdbcc92b9"",""projectId"":""a0a8f18c-a66e-4ba7-a170-23efbdc67501""}","https://test12345.live/?participantId=2F795F16481849E2B708A280E5C075B8&assignmentId=d0bf9b98-d52c-4cea-861b-36ccdbcc92b9&projectId=a0a8f18c-a66e-4ba7-a170-23efbdc67501","2F795F16481849E2B708A280E5C075B8-2024-11-24-18-58-34","","null","","images/semantic_sequence/physical_activity_semantic/physical_activity_semantic_6.png","null","",""
"","","","","","image-button-response","73","409570","0.0-12.0-1.0-1.5","2F795F16481849E2B708A280E5C075B8","2F795F16481849E2B708A280E5C075B8","d0bf9b98-d52c-4cea-861b-36ccdbcc92b9","a0a8f18c-a66e-4ba7-a170-23efbdc67501","{""participantId"":""2F795F16481849E2B708A280E5C075B8"",""assignmentId"":""d0bf9b98-d52c-4cea-861b-36ccdbcc92b9"",""projectId"":""a0a8f18c-a66e-4ba7-a170-23efbdc67501""}","https://test12345.live/?participantId=2F795F16481849E2B708A280E5C075B8&assignmentId=d0bf9b98-d52c-4cea-861b-36ccdbcc92b9&projectId=a0a8f18c-a66e-4ba7-a170-23efbdc67501","2F795F16481849E2B708A280E5C075B8-2024-11-24-18-58-34","","504","","images/semantic_sequence/physical_activity_semantic/physical_activity_semantic_6.png","0","",""
"","","","","","image-button-response","74","411374","0.0-12.0-1.0-2.5","2F795F16481849E2B708A280E5C075B8","2F795F16481849E2B708A280E5C075B8","d0bf9b98-d52c-4cea-861b-36ccdbcc92b9","a0a8f18c-a66e-4ba7-a170-23efbdc67501","{""participantId"":""2F795F16481849E2B708A280E5C075B8"",""assignmentId"":""d0bf9b98-d52c-4cea-861b-36ccdbcc92b9"",""projectId"":""a0a8f18c-a66e-4ba7-a170-23efbdc67501""}","https://test12345.live/?participantId=2F795F16481849E2B708A280E5C075B8&assignmentId=d0bf9b98-d52c-4cea-861b-36ccdbcc92b9&projectId=a0a8f18c-a66e-4ba7-a170-23efbdc67501","2F795F16481849E2B708A280E5C075B8-2024-11-24-18-58-34","","null","","[]","null","",""
"","","","","","image-button-response","75","415876","0.0-12.0-1.0-0.6","2F795F16481849E2B708A280E5C075B8","2F795F16481849E2B708A280E5C075B8","d0bf9b98-d52c-4cea-861b-36ccdbcc92b9","a0a8f18c-a66e-4ba7-a170-23efbdc67501","{""participantId"":""2F795F16481849E2B708A280E5C075B8"",""assignmentId"":""d0bf9b98-d52c-4cea-861b-36ccdbcc92b9"",""projectId"":""a0a8f18c-a66e-4ba7-a170-23efbdc67501""}","https://test12345.live/?participantId=2F795F16481849E2B708A280E5C075B8&assignmentId=d0bf9b98-d52c-4cea-861b-36ccdbcc92b9&projectId=a0a8f18c-a66e-4ba7-a170-23efbdc67501","2F795F16481849E2B708A280E5C075B8-2024-11-24-18-58-34","","null","","images/semantic_sequence/physical_activity_semantic/physical_activity_semantic_7.png","null","",""
"","","","","","image-button-response","76","416841","0.0-12.0-1.0-1.6","2F795F16481849E2B708A280E5C075B8","2F795F16481849E2B708A280E5C075B8","d0bf9b98-d52c-4cea-861b-36ccdbcc92b9","a0a8f18c-a66e-4ba7-a170-23efbdc67501","{""participantId"":""2F795F16481849E2B708A280E5C075B8"",""assignmentId"":""d0bf9b98-d52c-4cea-861b-36ccdbcc92b9"",""projectId"":""a0a8f18c-a66e-4ba7-a170-23efbdc67501""}","https://test12345.live/?participantId=2F795F16481849E2B708A280E5C075B8&assignmentId=d0bf9b98-d52c-4cea-861b-36ccdbcc92b9&projectId=a0a8f18c-a66e-4ba7-a170-23efbdc67501","2F795F16481849E2B708A280E5C075B8-2024-11-24-18-58-34","","964","","images/semantic_sequence/physical_activity_semantic/physical_activity_semantic_7.png","0","",""
"","","","","","image-button-response","77","418646","0.0-12.0-1.0-2.6","2F795F16481849E2B708A280E5C075B8","2F795F16481849E2B708A280E5C075B8","d0bf9b98-d52c-4cea-861b-36ccdbcc92b9","a0a8f18c-a66e-4ba7-a170-23efbdc67501","{""participantId"":""2F795F16481849E2B708A280E5C075B8"",""assignmentId"":""d0bf9b98-d52c-4cea-861b-36ccdbcc92b9"",""projectId"":""a0a8f18c-a66e-4ba7-a170-23efbdc67501""}","https://test12345.live/?participantId=2F795F16481849E2B708A280E5C075B8&assignmentId=d0bf9b98-d52c-4cea-861b-36ccdbcc92b9&projectId=a0a8f18c-a66e-4ba7-a170-23efbdc67501","2F795F16481849E2B708A280E5C075B8-2024-11-24-18-58-34","","null","","[]","null","",""
"","","","","","image-button-response","78","423152","0.0-12.0-1.0-0.7","2F795F16481849E2B708A280E5C075B8","2F795F16481849E2B708A280E5C075B8","d0bf9b98-d52c-4cea-861b-36ccdbcc92b9","a0a8f18c-a66e-4ba7-a170-23efbdc67501","{""participantId"":""2F795F16481849E2B708A280E5C075B8"",""assignmentId"":""d0bf9b98-d52c-4cea-861b-36ccdbcc92b9"",""projectId"":""a0a8f18c-a66e-4ba7-a170-23efbdc67501""}","https://test12345.live/?participantId=2F795F16481849E2B708A280E5C075B8&assignmentId=d0bf9b98-d52c-4cea-861b-36ccdbcc92b9&projectId=a0a8f18c-a66e-4ba7-a170-23efbdc67501","2F795F16481849E2B708A280E5C075B8-2024-11-24-18-58-34","","null","","images/semantic_sequence/physical_activity_semantic/physical_activity_semantic_8.png","null","",""
"","","","","","image-button-response","79","423545","0.0-12.0-1.0-1.7","2F795F16481849E2B708A280E5C075B8","2F795F16481849E2B708A280E5C075B8","d0bf9b98-d52c-4cea-861b-36ccdbcc92b9","a0a8f18c-a66e-4ba7-a170-23efbdc67501","{""participantId"":""2F795F16481849E2B708A280E5C075B8"",""assignmentId"":""d0bf9b98-d52c-4cea-861b-36ccdbcc92b9"",""projectId"":""a0a8f18c-a66e-4ba7-a170-23efbdc67501""}","https://test12345.live/?participantId=2F795F16481849E2B708A280E5C075B8&assignmentId=d0bf9b98-d52c-4cea-861b-36ccdbcc92b9&projectId=a0a8f18c-a66e-4ba7-a170-23efbdc67501","2F795F16481849E2B708A280E5C075B8-2024-11-24-18-58-34","","391","","images/semantic_sequence/physical_activity_semantic/physical_activity_semantic_8.png","0","",""
"","","","","","image-button-response","80","425349","0.0-12.0-1.0-2.7","2F795F16481849E2B708A280E5C075B8","2F795F16481849E2B708A280E5C075B8","d0bf9b98-d52c-4cea-861b-36ccdbcc92b9","a0a8f18c-a66e-4ba7-a170-23efbdc67501","{""participantId"":""2F795F16481849E2B708A280E5C075B8"",""assignmentId"":""d0bf9b98-d52c-4cea-861b-36ccdbcc92b9"",""projectId"":""a0a8f18c-a66e-4ba7-a170-23efbdc67501""}","https://test12345.live/?participantId=2F795F16481849E2B708A280E5C075B8&assignmentId=d0bf9b98-d52c-4cea-861b-36ccdbcc92b9&projectId=a0a8f18c-a66e-4ba7-a170-23efbdc67501","2F795F16481849E2B708A280E5C075B8-2024-11-24-18-58-34","","null","","[]","null","",""
"","","","","","image-button-response","81","429855","0.0-12.0-1.0-0.8","2F795F16481849E2B708A280E5C075B8","2F795F16481849E2B708A280E5C075B8","d0bf9b98-d52c-4cea-861b-36ccdbcc92b9","a0a8f18c-a66e-4ba7-a170-23efbdc67501","{""participantId"":""2F795F16481849E2B708A280E5C075B8"",""assignmentId"":""d0bf9b98-d52c-4cea-861b-36ccdbcc92b9"",""projectId"":""a0a8f18c-a66e-4ba7-a170-23efbdc67501""}","https://test12345.live/?participantId=2F795F16481849E2B708A280E5C075B8&assignmentId=d0bf9b98-d52c-4cea-861b-36ccdbcc92b9&projectId=a0a8f18c-a66e-4ba7-a170-23efbdc67501","2F795F16481849E2B708A280E5C075B8-2024-11-24-18-58-34","","null","","images/semantic_sequence/physical_activity_semantic/physical_activity_semantic_9.png","null","",""
"","","","","","image-button-response","82","430211","0.0-12.0-1.0-1.8","2F795F16481849E2B708A280E5C075B8","2F795F16481849E2B708A280E5C075B8","d0bf9b98-d52c-4cea-861b-36ccdbcc92b9","a0a8f18c-a66e-4ba7-a170-23efbdc67501","{""participantId"":""2F795F16481849E2B708A280E5C075B8"",""assignmentId"":""d0bf9b98-d52c-4cea-861b-36ccdbcc92b9"",""projectId"":""a0a8f18c-a66e-4ba7-a170-23efbdc67501""}","https://test12345.live/?participantId=2F795F16481849E2B708A280E5C075B8&assignmentId=d0bf9b98-d52c-4cea-861b-36ccdbcc92b9&projectId=a0a8f18c-a66e-4ba7-a170-23efbdc67501","2F795F16481849E2B708A280E5C075B8-2024-11-24-18-58-34","","356","","images/semantic_sequence/physical_activity_semantic/physical_activity_semantic_9.png","0","",""
"","","","","","image-button-response","83","432015","0.0-12.0-1.0-2.8","2F795F16481849E2B708A280E5C075B8","2F795F16481849E2B708A280E5C075B8","d0bf9b98-d52c-4cea-861b-36ccdbcc92b9","a0a8f18c-a66e-4ba7-a170-23efbdc67501","{""participantId"":""2F795F16481849E2B708A280E5C075B8"",""assignmentId"":""d0bf9b98-d52c-4cea-861b-36ccdbcc92b9"",""projectId"":""a0a8f18c-a66e-4ba7-a170-23efbdc67501""}","https://test12345.live/?participantId=2F795F16481849E2B708A280E5C075B8&assignmentId=d0bf9b98-d52c-4cea-861b-36ccdbcc92b9&projectId=a0a8f18c-a66e-4ba7-a170-23efbdc67501","2F795F16481849E2B708A280E5C075B8-2024-11-24-18-58-34","","null","","[]","null","",""
"","","","","","image-button-response","84","436521","0.0-12.0-1.0-0.9","2F795F16481849E2B708A280E5C075B8","2F795F16481849E2B708A280E5C075B8","d0bf9b98-d52c-4cea-861b-36ccdbcc92b9","a0a8f18c-a66e-4ba7-a170-23efbdc67501","{""participantId"":""2F795F16481849E2B708A280E5C075B8"",""assignmentId"":""d0bf9b98-d52c-4cea-861b-36ccdbcc92b9"",""projectId"":""a0a8f18c-a66e-4ba7-a170-23efbdc67501""}","https://test12345.live/?participantId=2F795F16481849E2B708A280E5C075B8&assignmentId=d0bf9b98-d52c-4cea-861b-36ccdbcc92b9&projectId=a0a8f18c-a66e-4ba7-a170-23efbdc67501","2F795F16481849E2B708A280E5C075B8-2024-11-24-18-58-34","","null","","images/semantic_sequence/physical_activity_semantic/physical_activity_semantic_ten.png","null","",""
"","","","","","image-button-response","85","438173","0.0-12.0-1.0-1.9","2F795F16481849E2B708A280E5C075B8","2F795F16481849E2B708A280E5C075B8","d0bf9b98-d52c-4cea-861b-36ccdbcc92b9","a0a8f18c-a66e-4ba7-a170-23efbdc67501","{""participantId"":""2F795F16481849E2B708A280E5C075B8"",""assignmentId"":""d0bf9b98-d52c-4cea-861b-36ccdbcc92b9"",""projectId"":""a0a8f18c-a66e-4ba7-a170-23efbdc67501""}","https://test12345.live/?participantId=2F795F16481849E2B708A280E5C075B8&assignmentId=d0bf9b98-d52c-4cea-861b-36ccdbcc92b9&projectId=a0a8f18c-a66e-4ba7-a170-23efbdc67501","2F795F16481849E2B708A280E5C075B8-2024-11-24-18-58-34","","1650","","images/semantic_sequence/physical_activity_semantic/physical_activity_semantic_ten.png","0","",""
"","","","","","image-button-response","86","439979","0.0-12.0-1.0-2.9","2F795F16481849E2B708A280E5C075B8","2F795F16481849E2B708A280E5C075B8","d0bf9b98-d52c-4cea-861b-36ccdbcc92b9","a0a8f18c-a66e-4ba7-a170-23efbdc67501","{""participantId"":""2F795F16481849E2B708A280E5C075B8"",""assignmentId"":""d0bf9b98-d52c-4cea-861b-36ccdbcc92b9"",""projectId"":""a0a8f18c-a66e-4ba7-a170-23efbdc67501""}","https://test12345.live/?participantId=2F795F16481849E2B708A280E5C075B8&assignmentId=d0bf9b98-d52c-4cea-861b-36ccdbcc92b9&projectId=a0a8f18c-a66e-4ba7-a170-23efbdc67501","2F795F16481849E2B708A280E5C075B8-2024-11-24-18-58-34","","null","","[]","null","",""
"","","","","","html-audio-response","87","606633","0.0-13.0","2F795F16481849E2B708A280E5C075B8","2F795F16481849E2B708A280E5C075B8","d0bf9b98-d52c-4cea-861b-36ccdbcc92b9","a0a8f18c-a66e-4ba7-a170-23efbdc67501","{""participantId"":""2F795F16481849E2B708A280E5C075B8"",""assignmentId"":""d0bf9b98-d52c-4cea-861b-36ccdbcc92b9"",""projectId"":""a0a8f18c-a66e-4ba7-a170-23efbdc67501""}","https://test12345.live/?participantId=2F795F16481849E2B708A280E5C075B8&assignmentId=d0bf9b98-d52c-4cea-861b-36ccdbcc92b9&projectId=a0a8f18c-a66e-4ba7-a170-23efbdc67501","2F795F16481849E2B708A280E5C075B8-2024-11-24-18-58-34","","16447","","[""<span style=\""color: red; font-size: 24px\""> NOW RECORDING</span><p>Please say out loud all the images you saw, as many as you can remember. The images can be said in any order.</p>""]","","2","physical_activity_semantic"
"","","","","","image-button-response","88","612639","0.0-14.0-0.0","2F795F16481849E2B708A280E5C075B8","2F795F16481849E2B708A280E5C075B8","d0bf9b98-d52c-4cea-861b-36ccdbcc92b9","a0a8f18c-a66e-4ba7-a170-23efbdc67501","{""participantId"":""2F795F16481849E2B708A280E5C075B8"",""assignmentId"":""d0bf9b98-d52c-4cea-861b-36ccdbcc92b9"",""projectId"":""a0a8f18c-a66e-4ba7-a170-23efbdc67501""}","https://test12345.live/?participantId=2F795F16481849E2B708A280E5C075B8&assignmentId=d0bf9b98-d52c-4cea-861b-36ccdbcc92b9&projectId=a0a8f18c-a66e-4ba7-a170-23efbdc67501","2F795F16481849E2B708A280E5C075B8-2024-11-24-18-58-34","","null","","images/schematic_sequence/flight_scheme/flight_scheme_0.png","null","",""
"","","","","","image-button-response","89","617143","0.0-14.0-1.0-0.0","2F795F16481849E2B708A280E5C075B8","2F795F16481849E2B708A280E5C075B8","d0bf9b98-d52c-4cea-861b-36ccdbcc92b9","a0a8f18c-a66e-4ba7-a170-23efbdc67501","{""participantId"":""2F795F16481849E2B708A280E5C075B8"",""assignmentId"":""d0bf9b98-d52c-4cea-861b-36ccdbcc92b9"",""projectId"":""a0a8f18c-a66e-4ba7-a170-23efbdc67501""}","https://test12345.live/?participantId=2F795F16481849E2B708A280E5C075B8&assignmentId=d0bf9b98-d52c-4cea-861b-36ccdbcc92b9&projectId=a0a8f18c-a66e-4ba7-a170-23efbdc67501","2F795F16481849E2B708A280E5C075B8-2024-11-24-18-58-34","","null","","images/schematic_sequence/flight_scheme/flight_scheme_1.png","null","",""
"","","","","","image-button-response","90","621150","0.0-14.0-1.0-1.0","2F795F16481849E2B708A280E5C075B8","2F795F16481849E2B708A280E5C075B8","d0bf9b98-d52c-4cea-861b-36ccdbcc92b9","a0a8f18c-a66e-4ba7-a170-23efbdc67501","{""participantId"":""2F795F16481849E2B708A280E5C075B8"",""assignmentId"":""d0bf9b98-d52c-4cea-861b-36ccdbcc92b9"",""projectId"":""a0a8f18c-a66e-4ba7-a170-23efbdc67501""}","https://test12345.live/?participantId=2F795F16481849E2B708A280E5C075B8&assignmentId=d0bf9b98-d52c-4cea-861b-36ccdbcc92b9&projectId=a0a8f18c-a66e-4ba7-a170-23efbdc67501","2F795F16481849E2B708A280E5C075B8-2024-11-24-18-58-34","","null","","images/schematic_sequence/flight_scheme/flight_scheme_1.png","null","",""
"","","","","","image-button-response","91","622956","0.0-14.0-1.0-2.0","2F795F16481849E2B708A280E5C075B8","2F795F16481849E2B708A280E5C075B8","d0bf9b98-d52c-4cea-861b-36ccdbcc92b9","a0a8f18c-a66e-4ba7-a170-23efbdc67501","{""participantId"":""2F795F16481849E2B708A280E5C075B8"",""assignmentId"":""d0bf9b98-d52c-4cea-861b-36ccdbcc92b9"",""projectId"":""a0a8f18c-a66e-4ba7-a170-23efbdc67501""}","https://test12345.live/?participantId=2F795F16481849E2B708A280E5C075B8&assignmentId=d0bf9b98-d52c-4cea-861b-36ccdbcc92b9&projectId=a0a8f18c-a66e-4ba7-a170-23efbdc67501","2F795F16481849E2B708A280E5C075B8-2024-11-24-18-58-34","","null","","[]","null","",""
"","","","","","image-button-response","92","627460","0.0-14.0-1.0-0.1","2F795F16481849E2B708A280E5C075B8","2F795F16481849E2B708A280E5C075B8","d0bf9b98-d52c-4cea-861b-36ccdbcc92b9","a0a8f18c-a66e-4ba7-a170-23efbdc67501","{""participantId"":""2F795F16481849E2B708A280E5C075B8"",""assignmentId"":""d0bf9b98-d52c-4cea-861b-36ccdbcc92b9"",""projectId"":""a0a8f18c-a66e-4ba7-a170-23efbdc67501""}","https://test12345.live/?participantId=2F795F16481849E2B708A280E5C075B8&assignmentId=d0bf9b98-d52c-4cea-861b-36ccdbcc92b9&projectId=a0a8f18c-a66e-4ba7-a170-23efbdc67501","2F795F16481849E2B708A280E5C075B8-2024-11-24-18-58-34","","null","","images/schematic_sequence/flight_scheme/flight_scheme_2.png","null","",""
"","","","","","image-button-response","93","628152","0.0-14.0-1.0-1.1","2F795F16481849E2B708A280E5C075B8","2F795F16481849E2B708A280E5C075B8","d0bf9b98-d52c-4cea-861b-36ccdbcc92b9","a0a8f18c-a66e-4ba7-a170-23efbdc67501","{""participantId"":""2F795F16481849E2B708A280E5C075B8"",""assignmentId"":""d0bf9b98-d52c-4cea-861b-36ccdbcc92b9"",""projectId"":""a0a8f18c-a66e-4ba7-a170-23efbdc67501""}","https://test12345.live/?participantId=2F795F16481849E2B708A280E5C075B8&assignmentId=d0bf9b98-d52c-4cea-861b-36ccdbcc92b9&projectId=a0a8f18c-a66e-4ba7-a170-23efbdc67501","2F795F16481849E2B708A280E5C075B8-2024-11-24-18-58-34","","691","","images/schematic_sequence/flight_scheme/flight_scheme_2.png","1","",""
"","","","","","image-button-response","94","629957","0.0-14.0-1.0-2.1","2F795F16481849E2B708A280E5C075B8","2F795F16481849E2B708A280E5C075B8","d0bf9b98-d52c-4cea-861b-36ccdbcc92b9","a0a8f18c-a66e-4ba7-a170-23efbdc67501","{""participantId"":""2F795F16481849E2B708A280E5C075B8"",""assignmentId"":""d0bf9b98-d52c-4cea-861b-36ccdbcc92b9"",""projectId"":""a0a8f18c-a66e-4ba7-a170-23efbdc67501""}","https://test12345.live/?participantId=2F795F16481849E2B708A280E5C075B8&assignmentId=d0bf9b98-d52c-4cea-861b-36ccdbcc92b9&projectId=a0a8f18c-a66e-4ba7-a170-23efbdc67501","2F795F16481849E2B708A280E5C075B8-2024-11-24-18-58-34","","null","","[]","null","",""
"","","","","","image-button-response","95","634461","0.0-14.0-1.0-0.2","2F795F16481849E2B708A280E5C075B8","2F795F16481849E2B708A280E5C075B8","d0bf9b98-d52c-4cea-861b-36ccdbcc92b9","a0a8f18c-a66e-4ba7-a170-23efbdc67501","{""participantId"":""2F795F16481849E2B708A280E5C075B8"",""assignmentId"":""d0bf9b98-d52c-4cea-861b-36ccdbcc92b9"",""projectId"":""a0a8f18c-a66e-4ba7-a170-23efbdc67501""}","https://test12345.live/?participantId=2F795F16481849E2B708A280E5C075B8&assignmentId=d0bf9b98-d52c-4cea-861b-36ccdbcc92b9&projectId=a0a8f18c-a66e-4ba7-a170-23efbdc67501","2F795F16481849E2B708A280E5C075B8-2024-11-24-18-58-34","","null","","images/schematic_sequence/flight_scheme/flight_scheme_3.png","null","",""
"","","","","","image-button-response","96","634945","0.0-14.0-1.0-1.2","2F795F16481849E2B708A280E5C075B8","2F795F16481849E2B708A280E5C075B8","d0bf9b98-d52c-4cea-861b-36ccdbcc92b9","a0a8f18c-a66e-4ba7-a170-23efbdc67501","{""participantId"":""2F795F16481849E2B708A280E5C075B8"",""assignmentId"":""d0bf9b98-d52c-4cea-861b-36ccdbcc92b9"",""projectId"":""a0a8f18c-a66e-4ba7-a170-23efbdc67501""}","https://test12345.live/?participantId=2F795F16481849E2B708A280E5C075B8&assignmentId=d0bf9b98-d52c-4cea-861b-36ccdbcc92b9&projectId=a0a8f18c-a66e-4ba7-a170-23efbdc67501","2F795F16481849E2B708A280E5C075B8-2024-11-24-18-58-34","","482","","images/schematic_sequence/flight_scheme/flight_scheme_3.png","0","",""
"","","","","","image-button-response","97","636751","0.0-14.0-1.0-2.2","2F795F16481849E2B708A280E5C075B8","2F795F16481849E2B708A280E5C075B8","d0bf9b98-d52c-4cea-861b-36ccdbcc92b9","a0a8f18c-a66e-4ba7-a170-23efbdc67501","{""participantId"":""2F795F16481849E2B708A280E5C075B8"",""assignmentId"":""d0bf9b98-d52c-4cea-861b-36ccdbcc92b9"",""projectId"":""a0a8f18c-a66e-4ba7-a170-23efbdc67501""}","https://test12345.live/?participantId=2F795F16481849E2B708A280E5C075B8&assignmentId=d0bf9b98-d52c-4cea-861b-36ccdbcc92b9&projectId=a0a8f18c-a66e-4ba7-a170-23efbdc67501","2F795F16481849E2B708A280E5C075B8-2024-11-24-18-58-34","","null","","[]","null","",""
"","","","","","image-button-response","98","641256","0.0-14.0-1.0-0.3","2F795F16481849E2B708A280E5C075B8","2F795F16481849E2B708A280E5C075B8","d0bf9b98-d52c-4cea-861b-36ccdbcc92b9","a0a8f18c-a66e-4ba7-a170-23efbdc67501","{""participantId"":""2F795F16481849E2B708A280E5C075B8"",""assignmentId"":""d0bf9b98-d52c-4cea-861b-36ccdbcc92b9"",""projectId"":""a0a8f18c-a66e-4ba7-a170-23efbdc67501""}","https://test12345.live/?participantId=2F795F16481849E2B708A280E5C075B8&assignmentId=d0bf9b98-d52c-4cea-861b-36ccdbcc92b9&projectId=a0a8f18c-a66e-4ba7-a170-23efbdc67501","2F795F16481849E2B708A280E5C075B8-2024-11-24-18-58-34","","null","","images/schematic_sequence/flight_scheme/flight_scheme_4.png","null","",""
"","","","","","image-button-response","99","642004","0.0-14.0-1.0-1.3","2F795F16481849E2B708A280E5C075B8","2F795F16481849E2B708A280E5C075B8","d0bf9b98-d52c-4cea-861b-36ccdbcc92b9","a0a8f18c-a66e-4ba7-a170-23efbdc67501","{""participantId"":""2F795F16481849E2B708A280E5C075B8"",""assignmentId"":""d0bf9b98-d52c-4cea-861b-36ccdbcc92b9"",""projectId"":""a0a8f18c-a66e-4ba7-a170-23efbdc67501""}","https://test12345.live/?participantId=2F795F16481849E2B708A280E5C075B8&assignmentId=d0bf9b98-d52c-4cea-861b-36ccdbcc92b9&projectId=a0a8f18c-a66e-4ba7-a170-23efbdc67501","2F795F16481849E2B708A280E5C075B8-2024-11-24-18-58-34","","746","","images/schematic_sequence/flight_scheme/flight_scheme_4.png","0","",""
"","","","","","image-button-response","100","643812","0.0-14.0-1.0-2.3","2F795F16481849E2B708A280E5C075B8","2F795F16481849E2B708A280E5C075B8","d0bf9b98-d52c-4cea-861b-36ccdbcc92b9","a0a8f18c-a66e-4ba7-a170-23efbdc67501","{""participantId"":""2F795F16481849E2B708A280E5C075B8"",""assignmentId"":""d0bf9b98-d52c-4cea-861b-36ccdbcc92b9"",""projectId"":""a0a8f18c-a66e-4ba7-a170-23efbdc67501""}","https://test12345.live/?participantId=2F795F16481849E2B708A280E5C075B8&assignmentId=d0bf9b98-d52c-4cea-861b-36ccdbcc92b9&projectId=a0a8f18c-a66e-4ba7-a170-23efbdc67501","2F795F16481849E2B708A280E5C075B8-2024-11-24-18-58-34","","null","","[]","null","",""
"","","","","","image-button-response","101","648316","0.0-14.0-1.0-0.4","2F795F16481849E2B708A280E5C075B8","2F795F16481849E2B708A280E5C075B8","d0bf9b98-d52c-4cea-861b-36ccdbcc92b9","a0a8f18c-a66e-4ba7-a170-23efbdc67501","{""participantId"":""2F795F16481849E2B708A280E5C075B8"",""assignmentId"":""d0bf9b98-d52c-4cea-861b-36ccdbcc92b9"",""projectId"":""a0a8f18c-a66e-4ba7-a170-23efbdc67501""}","https://test12345.live/?participantId=2F795F16481849E2B708A280E5C075B8&assignmentId=d0bf9b98-d52c-4cea-861b-36ccdbcc92b9&projectId=a0a8f18c-a66e-4ba7-a170-23efbdc67501","2F795F16481849E2B708A280E5C075B8-2024-11-24-18-58-34","","null","","images/schematic_sequence/flight_scheme/flight_scheme_5.png","null","",""
"","","","","","image-button-response","102","651237","0.0-14.0-1.0-1.4","2F795F16481849E2B708A280E5C075B8","2F795F16481849E2B708A280E5C075B8","d0bf9b98-d52c-4cea-861b-36ccdbcc92b9","a0a8f18c-a66e-4ba7-a170-23efbdc67501","{""participantId"":""2F795F16481849E2B708A280E5C075B8"",""assignmentId"":""d0bf9b98-d52c-4cea-861b-36ccdbcc92b9"",""projectId"":""a0a8f18c-a66e-4ba7-a170-23efbdc67501""}","https://test12345.live/?participantId=2F795F16481849E2B708A280E5C075B8&assignmentId=d0bf9b98-d52c-4cea-861b-36ccdbcc92b9&projectId=a0a8f18c-a66e-4ba7-a170-23efbdc67501","2F795F16481849E2B708A280E5C075B8-2024-11-24-18-58-34","","2918","","images/schematic_sequence/flight_scheme/flight_scheme_5.png","0","",""
"","","","","","image-button-response","103","653042","0.0-14.0-1.0-2.4","2F795F16481849E2B708A280E5C075B8","2F795F16481849E2B708A280E5C075B8","d0bf9b98-d52c-4cea-861b-36ccdbcc92b9","a0a8f18c-a66e-4ba7-a170-23efbdc67501","{""participantId"":""2F795F16481849E2B708A280E5C075B8"",""assignmentId"":""d0bf9b98-d52c-4cea-861b-36ccdbcc92b9"",""projectId"":""a0a8f18c-a66e-4ba7-a170-23efbdc67501""}","https://test12345.live/?participantId=2F795F16481849E2B708A280E5C075B8&assignmentId=d0bf9b98-d52c-4cea-861b-36ccdbcc92b9&projectId=a0a8f18c-a66e-4ba7-a170-23efbdc67501","2F795F16481849E2B708A280E5C075B8-2024-11-24-18-58-34","","null","","[]","null","",""
"","","","","","image-button-response","104","657546","0.0-14.0-1.0-0.5","2F795F16481849E2B708A280E5C075B8","2F795F16481849E2B708A280E5C075B8","d0bf9b98-d52c-4cea-861b-36ccdbcc92b9","a0a8f18c-a66e-4ba7-a170-23efbdc67501","{""participantId"":""2F795F16481849E2B708A280E5C075B8"",""assignmentId"":""d0bf9b98-d52c-4cea-861b-36ccdbcc92b9"",""projectId"":""a0a8f18c-a66e-4ba7-a170-23efbdc67501""}","https://test12345.live/?participantId=2F795F16481849E2B708A280E5C075B8&assignmentId=d0bf9b98-d52c-4cea-861b-36ccdbcc92b9&projectId=a0a8f18c-a66e-4ba7-a170-23efbdc67501","2F795F16481849E2B708A280E5C075B8-2024-11-24-18-58-34","","null","","images/schematic_sequence/flight_scheme/flight_scheme_6.png","null","",""
"","","","","","image-button-response","105","658768","0.0-14.0-1.0-1.5","2F795F16481849E2B708A280E5C075B8","2F795F16481849E2B708A280E5C075B8","d0bf9b98-d52c-4cea-861b-36ccdbcc92b9","a0a8f18c-a66e-4ba7-a170-23efbdc67501","{""participantId"":""2F795F16481849E2B708A280E5C075B8"",""assignmentId"":""d0bf9b98-d52c-4cea-861b-36ccdbcc92b9"",""projectId"":""a0a8f18c-a66e-4ba7-a170-23efbdc67501""}","https://test12345.live/?participantId=2F795F16481849E2B708A280E5C075B8&assignmentId=d0bf9b98-d52c-4cea-861b-36ccdbcc92b9&projectId=a0a8f18c-a66e-4ba7-a170-23efbdc67501","2F795F16481849E2B708A280E5C075B8-2024-11-24-18-58-34","","1219","","images/schematic_sequence/flight_scheme/flight_scheme_6.png","0","",""
"","","","","","image-button-response","106","660575","0.0-14.0-1.0-2.5","2F795F16481849E2B708A280E5C075B8","2F795F16481849E2B708A280E5C075B8","d0bf9b98-d52c-4cea-861b-36ccdbcc92b9","a0a8f18c-a66e-4ba7-a170-23efbdc67501","{""participantId"":""2F795F16481849E2B708A280E5C075B8"",""assignmentId"":""d0bf9b98-d52c-4cea-861b-36ccdbcc92b9"",""projectId"":""a0a8f18c-a66e-4ba7-a170-23efbdc67501""}","https://test12345.live/?participantId=2F795F16481849E2B708A280E5C075B8&assignmentId=d0bf9b98-d52c-4cea-861b-36ccdbcc92b9&projectId=a0a8f18c-a66e-4ba7-a170-23efbdc67501","2F795F16481849E2B708A280E5C075B8-2024-11-24-18-58-34","","null","","[]","null","",""
"","","","","","image-button-response","107","665078","0.0-14.0-1.0-0.6","2F795F16481849E2B708A280E5C075B8","2F795F16481849E2B708A280E5C075B8","d0bf9b98-d52c-4cea-861b-36ccdbcc92b9","a0a8f18c-a66e-4ba7-a170-23efbdc67501","{""participantId"":""2F795F16481849E2B708A280E5C075B8"",""assignmentId"":""d0bf9b98-d52c-4cea-861b-36ccdbcc92b9"",""projectId"":""a0a8f18c-a66e-4ba7-a170-23efbdc67501""}","https://test12345.live/?participantId=2F795F16481849E2B708A280E5C075B8&assignmentId=d0bf9b98-d52c-4cea-861b-36ccdbcc92b9&projectId=a0a8f18c-a66e-4ba7-a170-23efbdc67501","2F795F16481849E2B708A280E5C075B8-2024-11-24-18-58-34","","null","","images/schematic_sequence/flight_scheme/flight_scheme_7.png","null","",""
"","","","","","image-button-response","108","667949","0.0-14.0-1.0-1.6","2F795F16481849E2B708A280E5C075B8","2F795F16481849E2B708A280E5C075B8","d0bf9b98-d52c-4cea-861b-36ccdbcc92b9","a0a8f18c-a66e-4ba7-a170-23efbdc67501","{""participantId"":""2F795F16481849E2B708A280E5C075B8"",""assignmentId"":""d0bf9b98-d52c-4cea-861b-36ccdbcc92b9"",""projectId"":""a0a8f18c-a66e-4ba7-a170-23efbdc67501""}","https://test12345.live/?participantId=2F795F16481849E2B708A280E5C075B8&assignmentId=d0bf9b98-d52c-4cea-861b-36ccdbcc92b9&projectId=a0a8f18c-a66e-4ba7-a170-23efbdc67501","2F795F16481849E2B708A280E5C075B8-2024-11-24-18-58-34","","2869","","images/schematic_sequence/flight_scheme/flight_scheme_7.png","0","",""
"","","","","","image-button-response","109","669755","0.0-14.0-1.0-2.6","2F795F16481849E2B708A280E5C075B8","2F795F16481849E2B708A280E5C075B8","d0bf9b98-d52c-4cea-861b-36ccdbcc92b9","a0a8f18c-a66e-4ba7-a170-23efbdc67501","{""participantId"":""2F795F16481849E2B708A280E5C075B8"",""assignmentId"":""d0bf9b98-d52c-4cea-861b-36ccdbcc92b9"",""projectId"":""a0a8f18c-a66e-4ba7-a170-23efbdc67501""}","https://test12345.live/?participantId=2F795F16481849E2B708A280E5C075B8&assignmentId=d0bf9b98-d52c-4cea-861b-36ccdbcc92b9&projectId=a0a8f18c-a66e-4ba7-a170-23efbdc67501","2F795F16481849E2B708A280E5C075B8-2024-11-24-18-58-34","","null","","[]","null","",""
"","","","","","image-button-response","110","674259","0.0-14.0-1.0-0.7","2F795F16481849E2B708A280E5C075B8","2F795F16481849E2B708A280E5C075B8","d0bf9b98-d52c-4cea-861b-36ccdbcc92b9","a0a8f18c-a66e-4ba7-a170-23efbdc67501","{""participantId"":""2F795F16481849E2B708A280E5C075B8"",""assignmentId"":""d0bf9b98-d52c-4cea-861b-36ccdbcc92b9"",""projectId"":""a0a8f18c-a66e-4ba7-a170-23efbdc67501""}","https://test12345.live/?participantId=2F795F16481849E2B708A280E5C075B8&assignmentId=d0bf9b98-d52c-4cea-861b-36ccdbcc92b9&projectId=a0a8f18c-a66e-4ba7-a170-23efbdc67501","2F795F16481849E2B708A280E5C075B8-2024-11-24-18-58-34","","null","","images/schematic_sequence/flight_scheme/flight_scheme_8.png","null","",""
"","","","","","image-button-response","111","676112","0.0-14.0-1.0-1.7","2F795F16481849E2B708A280E5C075B8","2F795F16481849E2B708A280E5C075B8","d0bf9b98-d52c-4cea-861b-36ccdbcc92b9","a0a8f18c-a66e-4ba7-a170-23efbdc67501","{""participantId"":""2F795F16481849E2B708A280E5C075B8"",""assignmentId"":""d0bf9b98-d52c-4cea-861b-36ccdbcc92b9"",""projectId"":""a0a8f18c-a66e-4ba7-a170-23efbdc67501""}","https://test12345.live/?participantId=2F795F16481849E2B708A280E5C075B8&assignmentId=d0bf9b98-d52c-4cea-861b-36ccdbcc92b9&projectId=a0a8f18c-a66e-4ba7-a170-23efbdc67501","2F795F16481849E2B708A280E5C075B8-2024-11-24-18-58-34","","1852","","images/schematic_sequence/flight_scheme/flight_scheme_8.png","1","",""
"","","","","","image-button-response","112","677915","0.0-14.0-1.0-2.7","2F795F16481849E2B708A280E5C075B8","2F795F16481849E2B708A280E5C075B8","d0bf9b98-d52c-4cea-861b-36ccdbcc92b9","a0a8f18c-a66e-4ba7-a170-23efbdc67501","{""participantId"":""2F795F16481849E2B708A280E5C075B8"",""assignmentId"":""d0bf9b98-d52c-4cea-861b-36ccdbcc92b9"",""projectId"":""a0a8f18c-a66e-4ba7-a170-23efbdc67501""}","https://test12345.live/?participantId=2F795F16481849E2B708A280E5C075B8&assignmentId=d0bf9b98-d52c-4cea-861b-36ccdbcc92b9&projectId=a0a8f18c-a66e-4ba7-a170-23efbdc67501","2F795F16481849E2B708A280E5C075B8-2024-11-24-18-58-34","","null","","[]","null","",""
"","","","","","image-button-response","113","682421","0.0-14.0-1.0-0.8","2F795F16481849E2B708A280E5C075B8","2F795F16481849E2B708A280E5C075B8","d0bf9b98-d52c-4cea-861b-36ccdbcc92b9","a0a8f18c-a66e-4ba7-a170-23efbdc67501","{""participantId"":""2F795F16481849E2B708A280E5C075B8"",""assignmentId"":""d0bf9b98-d52c-4cea-861b-36ccdbcc92b9"",""projectId"":""a0a8f18c-a66e-4ba7-a170-23efbdc67501""}","https://test12345.live/?participantId=2F795F16481849E2B708A280E5C075B8&assignmentId=d0bf9b98-d52c-4cea-861b-36ccdbcc92b9&projectId=a0a8f18c-a66e-4ba7-a170-23efbdc67501","2F795F16481849E2B708A280E5C075B8-2024-11-24-18-58-34","","null","","images/schematic_sequence/flight_scheme/flight_scheme_9.png","null","",""
"","","","","","image-button-response","114","684362","0.0-14.0-1.0-1.8","2F795F16481849E2B708A280E5C075B8","2F795F16481849E2B708A280E5C075B8","d0bf9b98-d52c-4cea-861b-36ccdbcc92b9","a0a8f18c-a66e-4ba7-a170-23efbdc67501","{""participantId"":""2F795F16481849E2B708A280E5C075B8"",""assignmentId"":""d0bf9b98-d52c-4cea-861b-36ccdbcc92b9"",""projectId"":""a0a8f18c-a66e-4ba7-a170-23efbdc67501""}","https://test12345.live/?participantId=2F795F16481849E2B708A280E5C075B8&assignmentId=d0bf9b98-d52c-4cea-861b-36ccdbcc92b9&projectId=a0a8f18c-a66e-4ba7-a170-23efbdc67501","2F795F16481849E2B708A280E5C075B8-2024-11-24-18-58-34","","1938","","images/schematic_sequence/flight_scheme/flight_scheme_9.png","0","",""
"","","","","","image-button-response","115","686168","0.0-14.0-1.0-2.8","2F795F16481849E2B708A280E5C075B8","2F795F16481849E2B708A280E5C075B8","d0bf9b98-d52c-4cea-861b-36ccdbcc92b9","a0a8f18c-a66e-4ba7-a170-23efbdc67501","{""participantId"":""2F795F16481849E2B708A280E5C075B8"",""assignmentId"":""d0bf9b98-d52c-4cea-861b-36ccdbcc92b9"",""projectId"":""a0a8f18c-a66e-4ba7-a170-23efbdc67501""}","https://test12345.live/?participantId=2F795F16481849E2B708A280E5C075B8&assignmentId=d0bf9b98-d52c-4cea-861b-36ccdbcc92b9&projectId=a0a8f18c-a66e-4ba7-a170-23efbdc67501","2F795F16481849E2B708A280E5C075B8-2024-11-24-18-58-34","","null","","[]","null","",""
"","","","","","image-button-response","116","690674","0.0-14.0-1.0-0.9","2F795F16481849E2B708A280E5C075B8","2F795F16481849E2B708A280E5C075B8","d0bf9b98-d52c-4cea-861b-36ccdbcc92b9","a0a8f18c-a66e-4ba7-a170-23efbdc67501","{""participantId"":""2F795F16481849E2B708A280E5C075B8"",""assignmentId"":""d0bf9b98-d52c-4cea-861b-36ccdbcc92b9"",""projectId"":""a0a8f18c-a66e-4ba7-a170-23efbdc67501""}","https://test12345.live/?participantId=2F795F16481849E2B708A280E5C075B8&assignmentId=d0bf9b98-d52c-4cea-861b-36ccdbcc92b9&projectId=a0a8f18c-a66e-4ba7-a170-23efbdc67501","2F795F16481849E2B708A280E5C075B8-2024-11-24-18-58-34","","null","","images/schematic_sequence/flight_scheme/flight_scheme_ten.png","null","",""
"","","","","","image-button-response","117","691370","0.0-14.0-1.0-1.9","2F795F16481849E2B708A280E5C075B8","2F795F16481849E2B708A280E5C075B8","d0bf9b98-d52c-4cea-861b-36ccdbcc92b9","a0a8f18c-a66e-4ba7-a170-23efbdc67501","{""participantId"":""2F795F16481849E2B708A280E5C075B8"",""assignmentId"":""d0bf9b98-d52c-4cea-861b-36ccdbcc92b9"",""projectId"":""a0a8f18c-a66e-4ba7-a170-23efbdc67501""}","https://test12345.live/?participantId=2F795F16481849E2B708A280E5C075B8&assignmentId=d0bf9b98-d52c-4cea-861b-36ccdbcc92b9&projectId=a0a8f18c-a66e-4ba7-a170-23efbdc67501","2F795F16481849E2B708A280E5C075B8-2024-11-24-18-58-34","","695","","images/schematic_sequence/flight_scheme/flight_scheme_ten.png","0","",""
"","","","","","image-button-response","118","693177","0.0-14.0-1.0-2.9","2F795F16481849E2B708A280E5C075B8","2F795F16481849E2B708A280E5C075B8","d0bf9b98-d52c-4cea-861b-36ccdbcc92b9","a0a8f18c-a66e-4ba7-a170-23efbdc67501","{""participantId"":""2F795F16481849E2B708A280E5C075B8"",""assignmentId"":""d0bf9b98-d52c-4cea-861b-36ccdbcc92b9"",""projectId"":""a0a8f18c-a66e-4ba7-a170-23efbdc67501""}","https://test12345.live/?participantId=2F795F16481849E2B708A280E5C075B8&assignmentId=d0bf9b98-d52c-4cea-861b-36ccdbcc92b9&projectId=a0a8f18c-a66e-4ba7-a170-23efbdc67501","2F795F16481849E2B708A280E5C075B8-2024-11-24-18-58-34","","null","","[]","null","",""
"","","","","","html-audio-response","119","1157213","0.0-15.0","2F795F16481849E2B708A280E5C075B8","2F795F16481849E2B708A280E5C075B8","d0bf9b98-d52c-4cea-861b-36ccdbcc92b9","a0a8f18c-a66e-4ba7-a170-23efbdc67501","{""participantId"":""2F795F16481849E2B708A280E5C075B8"",""assignmentId"":""d0bf9b98-d52c-4cea-861b-36ccdbcc92b9"",""projectId"":""a0a8f18c-a66e-4ba7-a170-23efbdc67501""}","https://test12345.live/?participantId=2F795F16481849E2B708A280E5C075B8&assignmentId=d0bf9b98-d52c-4cea-861b-36ccdbcc92b9&projectId=a0a8f18c-a66e-4ba7-a170-23efbdc67501","2F795F16481849E2B708A280E5C075B8-2024-11-24-18-58-34","","21014","","[""<span style=\""color: red; font-size: 24px\""> NOW RECORDING</span><p>Please say out loud all the images you saw, as many as you can remember. The images can be said in any order.</p>""]","","5","flight_scheme"
"","","","","","image-button-response","120","1163223","0.0-16.0-0.0","2F795F16481849E2B708A280E5C075B8","2F795F16481849E2B708A280E5C075B8","d0bf9b98-d52c-4cea-861b-36ccdbcc92b9","a0a8f18c-a66e-4ba7-a170-23efbdc67501","{""participantId"":""2F795F16481849E2B708A280E5C075B8"",""assignmentId"":""d0bf9b98-d52c-4cea-861b-36ccdbcc92b9"",""projectId"":""a0a8f18c-a66e-4ba7-a170-23efbdc67501""}","https://test12345.live/?participantId=2F795F16481849E2B708A280E5C075B8&assignmentId=d0bf9b98-d52c-4cea-861b-36ccdbcc92b9&projectId=a0a8f18c-a66e-4ba7-a170-23efbdc67501","2F795F16481849E2B708A280E5C075B8-2024-11-24-18-58-34","","null","","images/causal_sequence/museum_causal/museum_causal_0.png","null","",""
"","","","","","image-button-response","121","1167728","0.0-16.0-1.0-0.0","2F795F16481849E2B708A280E5C075B8","2F795F16481849E2B708A280E5C075B8","d0bf9b98-d52c-4cea-861b-36ccdbcc92b9","a0a8f18c-a66e-4ba7-a170-23efbdc67501","{""participantId"":""2F795F16481849E2B708A280E5C075B8"",""assignmentId"":""d0bf9b98-d52c-4cea-861b-36ccdbcc92b9"",""projectId"":""a0a8f18c-a66e-4ba7-a170-23efbdc67501""}","https://test12345.live/?participantId=2F795F16481849E2B708A280E5C075B8&assignmentId=d0bf9b98-d52c-4cea-861b-36ccdbcc92b9&projectId=a0a8f18c-a66e-4ba7-a170-23efbdc67501","2F795F16481849E2B708A280E5C075B8-2024-11-24-18-58-34","","null","","images/causal_sequence/museum_causal/museum_causal_1.png","null","",""
"","","","","","image-button-response","122","1169963","0.0-16.0-1.0-1.0","2F795F16481849E2B708A280E5C075B8","2F795F16481849E2B708A280E5C075B8","d0bf9b98-d52c-4cea-861b-36ccdbcc92b9","a0a8f18c-a66e-4ba7-a170-23efbdc67501","{""participantId"":""2F795F16481849E2B708A280E5C075B8"",""assignmentId"":""d0bf9b98-d52c-4cea-861b-36ccdbcc92b9"",""projectId"":""a0a8f18c-a66e-4ba7-a170-23efbdc67501""}","https://test12345.live/?participantId=2F795F16481849E2B708A280E5C075B8&assignmentId=d0bf9b98-d52c-4cea-861b-36ccdbcc92b9&projectId=a0a8f18c-a66e-4ba7-a170-23efbdc67501","2F795F16481849E2B708A280E5C075B8-2024-11-24-18-58-34","","2234","","images/causal_sequence/museum_causal/museum_causal_1.png","0","",""
"","","","","","image-button-response","123","1171767","0.0-16.0-1.0-2.0","2F795F16481849E2B708A280E5C075B8","2F795F16481849E2B708A280E5C075B8","d0bf9b98-d52c-4cea-861b-36ccdbcc92b9","a0a8f18c-a66e-4ba7-a170-23efbdc67501","{""participantId"":""2F795F16481849E2B708A280E5C075B8"",""assignmentId"":""d0bf9b98-d52c-4cea-861b-36ccdbcc92b9"",""projectId"":""a0a8f18c-a66e-4ba7-a170-23efbdc67501""}","https://test12345.live/?participantId=2F795F16481849E2B708A280E5C075B8&assignmentId=d0bf9b98-d52c-4cea-861b-36ccdbcc92b9&projectId=a0a8f18c-a66e-4ba7-a170-23efbdc67501","2F795F16481849E2B708A280E5C075B8-2024-11-24-18-58-34","","null","","[]","null","",""
"","","","","","image-button-response","124","1176273","0.0-16.0-1.0-0.1","2F795F16481849E2B708A280E5C075B8","2F795F16481849E2B708A280E5C075B8","d0bf9b98-d52c-4cea-861b-36ccdbcc92b9","a0a8f18c-a66e-4ba7-a170-23efbdc67501","{""participantId"":""2F795F16481849E2B708A280E5C075B8"",""assignmentId"":""d0bf9b98-d52c-4cea-861b-36ccdbcc92b9"",""projectId"":""a0a8f18c-a66e-4ba7-a170-23efbdc67501""}","https://test12345.live/?participantId=2F795F16481849E2B708A280E5C075B8&assignmentId=d0bf9b98-d52c-4cea-861b-36ccdbcc92b9&projectId=a0a8f18c-a66e-4ba7-a170-23efbdc67501","2F795F16481849E2B708A280E5C075B8-2024-11-24-18-58-34","","null","","images/causal_sequence/museum_causal/museum_causal_2.png","null","",""
"","","","","","image-button-response","125","1176981","0.0-16.0-1.0-1.1","2F795F16481849E2B708A280E5C075B8","2F795F16481849E2B708A280E5C075B8","d0bf9b98-d52c-4cea-861b-36ccdbcc92b9","a0a8f18c-a66e-4ba7-a170-23efbdc67501","{""participantId"":""2F795F16481849E2B708A280E5C075B8"",""assignmentId"":""d0bf9b98-d52c-4cea-861b-36ccdbcc92b9"",""projectId"":""a0a8f18c-a66e-4ba7-a170-23efbdc67501""}","https://test12345.live/?participantId=2F795F16481849E2B708A280E5C075B8&assignmentId=d0bf9b98-d52c-4cea-861b-36ccdbcc92b9&projectId=a0a8f18c-a66e-4ba7-a170-23efbdc67501","2F795F16481849E2B708A280E5C075B8-2024-11-24-18-58-34","","706","","images/causal_sequence/museum_causal/museum_causal_2.png","1","",""
"","","","","","image-button-response","126","1178788","0.0-16.0-1.0-2.1","2F795F16481849E2B708A280E5C075B8","2F795F16481849E2B708A280E5C075B8","d0bf9b98-d52c-4cea-861b-36ccdbcc92b9","a0a8f18c-a66e-4ba7-a170-23efbdc67501","{""participantId"":""2F795F16481849E2B708A280E5C075B8"",""assignmentId"":""d0bf9b98-d52c-4cea-861b-36ccdbcc92b9"",""projectId"":""a0a8f18c-a66e-4ba7-a170-23efbdc67501""}","https://test12345.live/?participantId=2F795F16481849E2B708A280E5C075B8&assignmentId=d0bf9b98-d52c-4cea-861b-36ccdbcc92b9&projectId=a0a8f18c-a66e-4ba7-a170-23efbdc67501","2F795F16481849E2B708A280E5C075B8-2024-11-24-18-58-34","","null","","[]","null","",""
"","","","","","image-button-response","127","1183295","0.0-16.0-1.0-0.2","2F795F16481849E2B708A280E5C075B8","2F795F16481849E2B708A280E5C075B8","d0bf9b98-d52c-4cea-861b-36ccdbcc92b9","a0a8f18c-a66e-4ba7-a170-23efbdc67501","{""participantId"":""2F795F16481849E2B708A280E5C075B8"",""assignmentId"":""d0bf9b98-d52c-4cea-861b-36ccdbcc92b9"",""projectId"":""a0a8f18c-a66e-4ba7-a170-23efbdc67501""}","https://test12345.live/?participantId=2F795F16481849E2B708A280E5C075B8&assignmentId=d0bf9b98-d52c-4cea-861b-36ccdbcc92b9&projectId=a0a8f18c-a66e-4ba7-a170-23efbdc67501","2F795F16481849E2B708A280E5C075B8-2024-11-24-18-58-34","","null","","images/causal_sequence/museum_causal/museum_causal_3.png","null","",""
"","","","","","image-button-response","128","1184002","0.0-16.0-1.0-1.2","2F795F16481849E2B708A280E5C075B8","2F795F16481849E2B708A280E5C075B8","d0bf9b98-d52c-4cea-861b-36ccdbcc92b9","a0a8f18c-a66e-4ba7-a170-23efbdc67501","{""participantId"":""2F795F16481849E2B708A280E5C075B8"",""assignmentId"":""d0bf9b98-d52c-4cea-861b-36ccdbcc92b9"",""projectId"":""a0a8f18c-a66e-4ba7-a170-23efbdc67501""}","https://test12345.live/?participantId=2F795F16481849E2B708A280E5C075B8&assignmentId=d0bf9b98-d52c-4cea-861b-36ccdbcc92b9&projectId=a0a8f18c-a66e-4ba7-a170-23efbdc67501","2F795F16481849E2B708A280E5C075B8-2024-11-24-18-58-34","","706","","images/causal_sequence/museum_causal/museum_causal_3.png","0","",""
"","","","","","image-button-response","129","1185808","0.0-16.0-1.0-2.2","2F795F16481849E2B708A280E5C075B8","2F795F16481849E2B708A280E5C075B8","d0bf9b98-d52c-4cea-861b-36ccdbcc92b9","a0a8f18c-a66e-4ba7-a170-23efbdc67501","{""participantId"":""2F795F16481849E2B708A280E5C075B8"",""assignmentId"":""d0bf9b98-d52c-4cea-861b-36ccdbcc92b9"",""projectId"":""a0a8f18c-a66e-4ba7-a170-23efbdc67501""}","https://test12345.live/?participantId=2F795F16481849E2B708A280E5C075B8&assignmentId=d0bf9b98-d52c-4cea-861b-36ccdbcc92b9&projectId=a0a8f18c-a66e-4ba7-a170-23efbdc67501","2F795F16481849E2B708A280E5C075B8-2024-11-24-18-58-34","","null","","[]","null","",""
"","","","","","image-button-response","130","1190314","0.0-16.0-1.0-0.3","2F795F16481849E2B708A280E5C075B8","2F795F16481849E2B708A280E5C075B8","d0bf9b98-d52c-4cea-861b-36ccdbcc92b9","a0a8f18c-a66e-4ba7-a170-23efbdc67501","{""participantId"":""2F795F16481849E2B708A280E5C075B8"",""assignmentId"":""d0bf9b98-d52c-4cea-861b-36ccdbcc92b9"",""projectId"":""a0a8f18c-a66e-4ba7-a170-23efbdc67501""}","https://test12345.live/?participantId=2F795F16481849E2B708A280E5C075B8&assignmentId=d0bf9b98-d52c-4cea-861b-36ccdbcc92b9&projectId=a0a8f18c-a66e-4ba7-a170-23efbdc67501","2F795F16481849E2B708A280E5C075B8-2024-11-24-18-58-34","","null","","images/causal_sequence/museum_causal/museum_causal_4.png","null","",""
"","","","","","image-button-response","131","1192292","0.0-16.0-1.0-1.3","2F795F16481849E2B708A280E5C075B8","2F795F16481849E2B708A280E5C075B8","d0bf9b98-d52c-4cea-861b-36ccdbcc92b9","a0a8f18c-a66e-4ba7-a170-23efbdc67501","{""participantId"":""2F795F16481849E2B708A280E5C075B8"",""assignmentId"":""d0bf9b98-d52c-4cea-861b-36ccdbcc92b9"",""projectId"":""a0a8f18c-a66e-4ba7-a170-23efbdc67501""}","https://test12345.live/?participantId=2F795F16481849E2B708A280E5C075B8&assignmentId=d0bf9b98-d52c-4cea-861b-36ccdbcc92b9&projectId=a0a8f18c-a66e-4ba7-a170-23efbdc67501","2F795F16481849E2B708A280E5C075B8-2024-11-24-18-58-34","","1976","","images/causal_sequence/museum_causal/museum_causal_4.png","1","",""
"","","","","","image-button-response","132","1194098","0.0-16.0-1.0-2.3","2F795F16481849E2B708A280E5C075B8","2F795F16481849E2B708A280E5C075B8","d0bf9b98-d52c-4cea-861b-36ccdbcc92b9","a0a8f18c-a66e-4ba7-a170-23efbdc67501","{""participantId"":""2F795F16481849E2B708A280E5C075B8"",""assignmentId"":""d0bf9b98-d52c-4cea-861b-36ccdbcc92b9"",""projectId"":""a0a8f18c-a66e-4ba7-a170-23efbdc67501""}","https://test12345.live/?participantId=2F795F16481849E2B708A280E5C075B8&assignmentId=d0bf9b98-d52c-4cea-861b-36ccdbcc92b9&projectId=a0a8f18c-a66e-4ba7-a170-23efbdc67501","2F795F16481849E2B708A280E5C075B8-2024-11-24-18-58-34","","null","","[]","null","",""
"","","","","","image-button-response","133","1198605","0.0-16.0-1.0-0.4","2F795F16481849E2B708A280E5C075B8","2F795F16481849E2B708A280E5C075B8","d0bf9b98-d52c-4cea-861b-36ccdbcc92b9","a0a8f18c-a66e-4ba7-a170-23efbdc67501","{""participantId"":""2F795F16481849E2B708A280E5C075B8"",""assignmentId"":""d0bf9b98-d52c-4cea-861b-36ccdbcc92b9"",""projectId"":""a0a8f18c-a66e-4ba7-a170-23efbdc67501""}","https://test12345.live/?participantId=2F795F16481849E2B708A280E5C075B8&assignmentId=d0bf9b98-d52c-4cea-861b-36ccdbcc92b9&projectId=a0a8f18c-a66e-4ba7-a170-23efbdc67501","2F795F16481849E2B708A280E5C075B8-2024-11-24-18-58-34","","null","","images/causal_sequence/museum_causal/museum_causal_5.png","null","",""
"","","","","","image-button-response","134","1199796","0.0-16.0-1.0-1.4","2F795F16481849E2B708A280E5C075B8","2F795F16481849E2B708A280E5C075B8","d0bf9b98-d52c-4cea-861b-36ccdbcc92b9","a0a8f18c-a66e-4ba7-a170-23efbdc67501","{""participantId"":""2F795F16481849E2B708A280E5C075B8"",""assignmentId"":""d0bf9b98-d52c-4cea-861b-36ccdbcc92b9"",""projectId"":""a0a8f18c-a66e-4ba7-a170-23efbdc67501""}","https://test12345.live/?participantId=2F795F16481849E2B708A280E5C075B8&assignmentId=d0bf9b98-d52c-4cea-861b-36ccdbcc92b9&projectId=a0a8f18c-a66e-4ba7-a170-23efbdc67501","2F795F16481849E2B708A280E5C075B8-2024-11-24-18-58-34","","1188","","images/causal_sequence/museum_causal/museum_causal_5.png","0","",""
"","","","","","image-button-response","135","1201601","0.0-16.0-1.0-2.4","2F795F16481849E2B708A280E5C075B8","2F795F16481849E2B708A280E5C075B8","d0bf9b98-d52c-4cea-861b-36ccdbcc92b9","a0a8f18c-a66e-4ba7-a170-23efbdc67501","{""participantId"":""2F795F16481849E2B708A280E5C075B8"",""assignmentId"":""d0bf9b98-d52c-4cea-861b-36ccdbcc92b9"",""projectId"":""a0a8f18c-a66e-4ba7-a170-23efbdc67501""}","https://test12345.live/?participantId=2F795F16481849E2B708A280E5C075B8&assignmentId=d0bf9b98-d52c-4cea-861b-36ccdbcc92b9&projectId=a0a8f18c-a66e-4ba7-a170-23efbdc67501","2F795F16481849E2B708A280E5C075B8-2024-11-24-18-58-34","","null","","[]","null","",""
"","","","","","image-button-response","136","1206103","0.0-16.0-1.0-0.5","2F795F16481849E2B708A280E5C075B8","2F795F16481849E2B708A280E5C075B8","d0bf9b98-d52c-4cea-861b-36ccdbcc92b9","a0a8f18c-a66e-4ba7-a170-23efbdc67501","{""participantId"":""2F795F16481849E2B708A280E5C075B8"",""assignmentId"":""d0bf9b98-d52c-4cea-861b-36ccdbcc92b9"",""projectId"":""a0a8f18c-a66e-4ba7-a170-23efbdc67501""}","https://test12345.live/?participantId=2F795F16481849E2B708A280E5C075B8&assignmentId=d0bf9b98-d52c-4cea-861b-36ccdbcc92b9&projectId=a0a8f18c-a66e-4ba7-a170-23efbdc67501","2F795F16481849E2B708A280E5C075B8-2024-11-24-18-58-34","","null","","images/causal_sequence/museum_causal/museum_causal_6.png","null","",""
"","","","","","image-button-response","137","1207660","0.0-16.0-1.0-1.5","2F795F16481849E2B708A280E5C075B8","2F795F16481849E2B708A280E5C075B8","d0bf9b98-d52c-4cea-861b-36ccdbcc92b9","a0a8f18c-a66e-4ba7-a170-23efbdc67501","{""participantId"":""2F795F16481849E2B708A280E5C075B8"",""assignmentId"":""d0bf9b98-d52c-4cea-861b-36ccdbcc92b9"",""projectId"":""a0a8f18c-a66e-4ba7-a170-23efbdc67501""}","https://test12345.live/?participantId=2F795F16481849E2B708A280E5C075B8&assignmentId=d0bf9b98-d52c-4cea-861b-36ccdbcc92b9&projectId=a0a8f18c-a66e-4ba7-a170-23efbdc67501","2F795F16481849E2B708A280E5C075B8-2024-11-24-18-58-34","","1555","","images/causal_sequence/museum_causal/museum_causal_6.png","0","",""
"","","","","","image-button-response","138","1209466","0.0-16.0-1.0-2.5","2F795F16481849E2B708A280E5C075B8","2F795F16481849E2B708A280E5C075B8","d0bf9b98-d52c-4cea-861b-36ccdbcc92b9","a0a8f18c-a66e-4ba7-a170-23efbdc67501","{""participantId"":""2F795F16481849E2B708A280E5C075B8"",""assignmentId"":""d0bf9b98-d52c-4cea-861b-36ccdbcc92b9"",""projectId"":""a0a8f18c-a66e-4ba7-a170-23efbdc67501""}","https://test12345.live/?participantId=2F795F16481849E2B708A280E5C075B8&assignmentId=d0bf9b98-d52c-4cea-861b-36ccdbcc92b9&projectId=a0a8f18c-a66e-4ba7-a170-23efbdc67501","2F795F16481849E2B708A280E5C075B8-2024-11-24-18-58-34","","null","","[]","null","",""
"","","","","","image-button-response","139","1213970","0.0-16.0-1.0-0.6","2F795F16481849E2B708A280E5C075B8","2F795F16481849E2B708A280E5C075B8","d0bf9b98-d52c-4cea-861b-36ccdbcc92b9","a0a8f18c-a66e-4ba7-a170-23efbdc67501","{""participantId"":""2F795F16481849E2B708A280E5C075B8"",""assignmentId"":""d0bf9b98-d52c-4cea-861b-36ccdbcc92b9"",""projectId"":""a0a8f18c-a66e-4ba7-a170-23efbdc67501""}","https://test12345.live/?participantId=2F795F16481849E2B708A280E5C075B8&assignmentId=d0bf9b98-d52c-4cea-861b-36ccdbcc92b9&projectId=a0a8f18c-a66e-4ba7-a170-23efbdc67501","2F795F16481849E2B708A280E5C075B8-2024-11-24-18-58-34","","null","","images/causal_sequence/museum_causal/museum_causal_7.png","null","",""
"","","","","","image-button-response","140","1214712","0.0-16.0-1.0-1.6","2F795F16481849E2B708A280E5C075B8","2F795F16481849E2B708A280E5C075B8","d0bf9b98-d52c-4cea-861b-36ccdbcc92b9","a0a8f18c-a66e-4ba7-a170-23efbdc67501","{""participantId"":""2F795F16481849E2B708A280E5C075B8"",""assignmentId"":""d0bf9b98-d52c-4cea-861b-36ccdbcc92b9"",""projectId"":""a0a8f18c-a66e-4ba7-a170-23efbdc67501""}","https://test12345.live/?participantId=2F795F16481849E2B708A280E5C075B8&assignmentId=d0bf9b98-d52c-4cea-861b-36ccdbcc92b9&projectId=a0a8f18c-a66e-4ba7-a170-23efbdc67501","2F795F16481849E2B708A280E5C075B8-2024-11-24-18-58-34","","740","","images/causal_sequence/museum_causal/museum_causal_7.png","0","",""
"","","","","","image-button-response","141","1216519","0.0-16.0-1.0-2.6","2F795F16481849E2B708A280E5C075B8","2F795F16481849E2B708A280E5C075B8","d0bf9b98-d52c-4cea-861b-36ccdbcc92b9","a0a8f18c-a66e-4ba7-a170-23efbdc67501","{""participantId"":""2F795F16481849E2B708A280E5C075B8"",""assignmentId"":""d0bf9b98-d52c-4cea-861b-36ccdbcc92b9"",""projectId"":""a0a8f18c-a66e-4ba7-a170-23efbdc67501""}","https://test12345.live/?participantId=2F795F16481849E2B708A280E5C075B8&assignmentId=d0bf9b98-d52c-4cea-861b-36ccdbcc92b9&projectId=a0a8f18c-a66e-4ba7-a170-23efbdc67501","2F795F16481849E2B708A280E5C075B8-2024-11-24-18-58-34","","null","","[]","null","",""
"","","","","","image-button-response","142","1221025","0.0-16.0-1.0-0.7","2F795F16481849E2B708A280E5C075B8","2F795F16481849E2B708A280E5C075B8","d0bf9b98-d52c-4cea-861b-36ccdbcc92b9","a0a8f18c-a66e-4ba7-a170-23efbdc67501","{""participantId"":""2F795F16481849E2B708A280E5C075B8"",""assignmentId"":""d0bf9b98-d52c-4cea-861b-36ccdbcc92b9"",""projectId"":""a0a8f18c-a66e-4ba7-a170-23efbdc67501""}","https://test12345.live/?participantId=2F795F16481849E2B708A280E5C075B8&assignmentId=d0bf9b98-d52c-4cea-861b-36ccdbcc92b9&projectId=a0a8f18c-a66e-4ba7-a170-23efbdc67501","2F795F16481849E2B708A280E5C075B8-2024-11-24-18-58-34","","null","","images/causal_sequence/museum_causal/museum_causal_8.png","null","",""
"","","","","","image-button-response","143","1221512","0.0-16.0-1.0-1.7","2F795F16481849E2B708A280E5C075B8","2F795F16481849E2B708A280E5C075B8","d0bf9b98-d52c-4cea-861b-36ccdbcc92b9","a0a8f18c-a66e-4ba7-a170-23efbdc67501","{""participantId"":""2F795F16481849E2B708A280E5C075B8"",""assignmentId"":""d0bf9b98-d52c-4cea-861b-36ccdbcc92b9"",""projectId"":""a0a8f18c-a66e-4ba7-a170-23efbdc67501""}","https://test12345.live/?participantId=2F795F16481849E2B708A280E5C075B8&assignmentId=d0bf9b98-d52c-4cea-861b-36ccdbcc92b9&projectId=a0a8f18c-a66e-4ba7-a170-23efbdc67501","2F795F16481849E2B708A280E5C075B8-2024-11-24-18-58-34","","484","","images/causal_sequence/museum_causal/museum_causal_8.png","0","",""
