"success","timeout","failed_images","failed_audio","failed_video","trial_type","trial_index","time_elapsed","internal_node_id","subject","subject_id","study_id","session_id","urlvar","current_url","audio_id","view_history","rt","device_id","stimulus","response","estimated_stimulus_onset","seq_name"
"true","false","[]","[]","[]","preload","0","10809","0.0-0.0","3131700C1BDF401D84290275315C9AD4","3131700C1BDF401D84290275315C9AD4","d0a1cc27-282b-4479-8d44-176c420b6604","5e631737-0fa4-44a6-b227-7ba1d7345015","{""num_scrambled_semantic"":""8"",""num_scrambled_causal"":""4"",""num_scrambled_schematic"":""4"",""participantId"":""3131700C1BDF401D84290275315C9AD4"",""assignmentId"":""d0a1cc27-282b-4479-8d44-176c420b6604"",""projectId"":""5e631737-0fa4-44a6-b227-7ba1d7345015""}","https://test12345.live/?num_scrambled_semantic=8&num_scrambled_causal=4&num_scrambled_schematic=4&participantId=3131700C1BDF401D84290275315C9AD4&assignmentId=d0a1cc27-282b-4479-8d44-176c420b6604&projectId=5e631737-0fa4-44a6-b227-7ba1d7345015","3131700C1BDF401D84290275315C9AD4-2025-05-27-18-49-13","","","","","","",""
"","","","","","instructions","1","31591","0.0-1.0","3131700C1BDF401D84290275315C9AD4","3131700C1BDF401D84290275315C9AD4","d0a1cc27-282b-4479-8d44-176c420b6604","5e631737-0fa4-44a6-b227-7ba1d7345015","{""num_scrambled_semantic"":""8"",""num_scrambled_causal"":""4"",""num_scrambled_schematic"":""4"",""participantId"":""3131700C1BDF401D84290275315C9AD4"",""assignmentId"":""d0a1cc27-282b-4479-8d44-176c420b6604"",""projectId"":""5e631737-0fa4-44a6-b227-7ba1d7345015""}","https://test12345.live/?num_scrambled_semantic=8&num_scrambled_causal=4&num_scrambled_schematic=4&participantId=3131700C1BDF401D84290275315C9AD4&assignmentId=d0a1cc27-282b-4479-8d44-176c420b6604&projectId=5e631737-0fa4-44a6-b227-7ba1d7345015","3131700C1BDF401D84290275315C9AD4-2025-05-27-18-49-13","[{""page_index"":0,""viewing_time"":20782}]","20782","","","","",""
"","","","","","instructions","2","36307","0.0-2.0","3131700C1BDF401D84290275315C9AD4","3131700C1BDF401D84290275315C9AD4","d0a1cc27-282b-4479-8d44-176c420b6604","5e631737-0fa4-44a6-b227-7ba1d7345015","{""num_scrambled_semantic"":""8"",""num_scrambled_causal"":""4"",""num_scrambled_schematic"":""4"",""participantId"":""3131700C1BDF401D84290275315C9AD4"",""assignmentId"":""d0a1cc27-282b-4479-8d44-176c420b6604"",""projectId"":""5e631737-0fa4-44a6-b227-7ba1d7345015""}","https://test12345.live/?num_scrambled_semantic=8&num_scrambled_causal=4&num_scrambled_schematic=4&participantId=3131700C1BDF401D84290275315C9AD4&assignmentId=d0a1cc27-282b-4479-8d44-176c420b6604&projectId=5e631737-0fa4-44a6-b227-7ba1d7345015","3131700C1BDF401D84290275315C9AD4-2025-05-27-18-49-13","[{""page_index"":0,""viewing_time"":4715}]","4715","","","","",""
"true","","","","","fullscreen","3","39823","0.0-3.0","3131700C1BDF401D84290275315C9AD4","3131700C1BDF401D84290275315C9AD4","d0a1cc27-282b-4479-8d44-176c420b6604","5e631737-0fa4-44a6-b227-7ba1d7345015","{""num_scrambled_semantic"":""8"",""num_scrambled_causal"":""4"",""num_scrambled_schematic"":""4"",""participantId"":""3131700C1BDF401D84290275315C9AD4"",""assignmentId"":""d0a1cc27-282b-4479-8d44-176c420b6604"",""projectId"":""5e631737-0fa4-44a6-b227-7ba1d7345015""}","https://test12345.live/?num_scrambled_semantic=8&num_scrambled_causal=4&num_scrambled_schematic=4&participantId=3131700C1BDF401D84290275315C9AD4&assignmentId=d0a1cc27-282b-4479-8d44-176c420b6604&projectId=5e631737-0fa4-44a6-b227-7ba1d7345015","3131700C1BDF401D84290275315C9AD4-2025-05-27-18-49-13","","2501","","","","",""
"","","","","","initialize-microphone","4","53044","0.0-4.0-0.0","3131700C1BDF401D84290275315C9AD4","3131700C1BDF401D84290275315C9AD4","d0a1cc27-282b-4479-8d44-176c420b6604","5e631737-0fa4-44a6-b227-7ba1d7345015","{""num_scrambled_semantic"":""8"",""num_scrambled_causal"":""4"",""num_scrambled_schematic"":""4"",""participantId"":""3131700C1BDF401D84290275315C9AD4"",""assignmentId"":""d0a1cc27-282b-4479-8d44-176c420b6604"",""projectId"":""5e631737-0fa4-44a6-b227-7ba1d7345015""}","https://test12345.live/?num_scrambled_semantic=8&num_scrambled_causal=4&num_scrambled_schematic=4&participantId=3131700C1BDF401D84290275315C9AD4&assignmentId=d0a1cc27-282b-4479-8d44-176c420b6604&projectId=5e631737-0fa4-44a6-b227-7ba1d7345015","3131700C1BDF401D84290275315C9AD4-2025-05-27-18-49-13","","","7e4029cb75c09ca3da886558be4b07221bbab7f3eeb74ce8bde4cdca69259429","","","",""
"","","","","","html-audio-response","5","68746","0.0-4.0-1.0","3131700C1BDF401D84290275315C9AD4","3131700C1BDF401D84290275315C9AD4","d0a1cc27-282b-4479-8d44-176c420b6604","5e631737-0fa4-44a6-b227-7ba1d7345015","{""num_scrambled_semantic"":""8"",""num_scrambled_causal"":""4"",""num_scrambled_schematic"":""4"",""participantId"":""3131700C1BDF401D84290275315C9AD4"",""assignmentId"":""d0a1cc27-282b-4479-8d44-176c420b6604"",""projectId"":""5e631737-0fa4-44a6-b227-7ba1d7345015""}","https://test12345.live/?num_scrambled_semantic=8&num_scrambled_causal=4&num_scrambled_schematic=4&participantId=3131700C1BDF401D84290275315C9AD4&assignmentId=d0a1cc27-282b-4479-8d44-176c420b6604&projectId=5e631737-0fa4-44a6-b227-7ba1d7345015","3131700C1BDF401D84290275315C9AD4-2025-05-27-18-49-13","","2827","","<span style=""color: red; font-size: 24px""> NOW RECORDING</span>
        <p>Please test Microphone</p>","","3",""
"","","","","","html-button-response","6","70821","0.0-4.0-2.0","3131700C1BDF401D84290275315C9AD4","3131700C1BDF401D84290275315C9AD4","d0a1cc27-282b-4479-8d44-176c420b6604","5e631737-0fa4-44a6-b227-7ba1d7345015","{""num_scrambled_semantic"":""8"",""num_scrambled_causal"":""4"",""num_scrambled_schematic"":""4"",""participantId"":""3131700C1BDF401D84290275315C9AD4"",""assignmentId"":""d0a1cc27-282b-4479-8d44-176c420b6604"",""projectId"":""5e631737-0fa4-44a6-b227-7ba1d7345015""}","https://test12345.live/?num_scrambled_semantic=8&num_scrambled_causal=4&num_scrambled_schematic=4&participantId=3131700C1BDF401D84290275315C9AD4&assignmentId=d0a1cc27-282b-4479-8d44-176c420b6604&projectId=5e631737-0fa4-44a6-b227-7ba1d7345015","3131700C1BDF401D84290275315C9AD4-2025-05-27-18-49-13","","2074","","<p style=""font-size:48px; color:red;"">Is Microphone OK?</p>","1","",""
"","","","","","instructions","7","91377","0.0-5.0","3131700C1BDF401D84290275315C9AD4","3131700C1BDF401D84290275315C9AD4","d0a1cc27-282b-4479-8d44-176c420b6604","5e631737-0fa4-44a6-b227-7ba1d7345015","{""num_scrambled_semantic"":""8"",""num_scrambled_causal"":""4"",""num_scrambled_schematic"":""4"",""participantId"":""3131700C1BDF401D84290275315C9AD4"",""assignmentId"":""d0a1cc27-282b-4479-8d44-176c420b6604"",""projectId"":""5e631737-0fa4-44a6-b227-7ba1d7345015""}","https://test12345.live/?num_scrambled_semantic=8&num_scrambled_causal=4&num_scrambled_schematic=4&participantId=3131700C1BDF401D84290275315C9AD4&assignmentId=d0a1cc27-282b-4479-8d44-176c420b6604&projectId=5e631737-0fa4-44a6-b227-7ba1d7345015","3131700C1BDF401D84290275315C9AD4-2025-05-27-18-49-13","[{""page_index"":0,""viewing_time"":5788},{""page_index"":1,""viewing_time"":14768}]","20556","","","","",""
"","","","","","image-button-response","8","97391","0.0-6.0-0.0","3131700C1BDF401D84290275315C9AD4","3131700C1BDF401D84290275315C9AD4","d0a1cc27-282b-4479-8d44-176c420b6604","5e631737-0fa4-44a6-b227-7ba1d7345015","{""num_scrambled_semantic"":""8"",""num_scrambled_causal"":""4"",""num_scrambled_schematic"":""4"",""participantId"":""3131700C1BDF401D84290275315C9AD4"",""assignmentId"":""d0a1cc27-282b-4479-8d44-176c420b6604"",""projectId"":""5e631737-0fa4-44a6-b227-7ba1d7345015""}","https://test12345.live/?num_scrambled_semantic=8&num_scrambled_causal=4&num_scrambled_schematic=4&participantId=3131700C1BDF401D84290275315C9AD4&assignmentId=d0a1cc27-282b-4479-8d44-176c420b6604&projectId=5e631737-0fa4-44a6-b227-7ba1d7345015","3131700C1BDF401D84290275315C9AD4-2025-05-27-18-49-13","","null","","images/instructions/movie_0.png","null","",""
"","","","","","image-button-response","9","101901","0.0-6.0-1.0-0.0","3131700C1BDF401D84290275315C9AD4","3131700C1BDF401D84290275315C9AD4","d0a1cc27-282b-4479-8d44-176c420b6604","5e631737-0fa4-44a6-b227-7ba1d7345015","{""num_scrambled_semantic"":""8"",""num_scrambled_causal"":""4"",""num_scrambled_schematic"":""4"",""participantId"":""3131700C1BDF401D84290275315C9AD4"",""assignmentId"":""d0a1cc27-282b-4479-8d44-176c420b6604"",""projectId"":""5e631737-0fa4-44a6-b227-7ba1d7345015""}","https://test12345.live/?num_scrambled_semantic=8&num_scrambled_causal=4&num_scrambled_schematic=4&participantId=3131700C1BDF401D84290275315C9AD4&assignmentId=d0a1cc27-282b-4479-8d44-176c420b6604&projectId=5e631737-0fa4-44a6-b227-7ba1d7345015","3131700C1BDF401D84290275315C9AD4-2025-05-27-18-49-13","","null","","images/instructions/movie_1.png","null","",""
"","","","","","image-button-response","10","105915","0.0-6.0-1.0-1.0","3131700C1BDF401D84290275315C9AD4","3131700C1BDF401D84290275315C9AD4","d0a1cc27-282b-4479-8d44-176c420b6604","5e631737-0fa4-44a6-b227-7ba1d7345015","{""num_scrambled_semantic"":""8"",""num_scrambled_causal"":""4"",""num_scrambled_schematic"":""4"",""participantId"":""3131700C1BDF401D84290275315C9AD4"",""assignmentId"":""d0a1cc27-282b-4479-8d44-176c420b6604"",""projectId"":""5e631737-0fa4-44a6-b227-7ba1d7345015""}","https://test12345.live/?num_scrambled_semantic=8&num_scrambled_causal=4&num_scrambled_schematic=4&participantId=3131700C1BDF401D84290275315C9AD4&assignmentId=d0a1cc27-282b-4479-8d44-176c420b6604&projectId=5e631737-0fa4-44a6-b227-7ba1d7345015","3131700C1BDF401D84290275315C9AD4-2025-05-27-18-49-13","","null","","images/instructions/movie_1.png","null","",""
"","","","","","image-button-response","11","107731","0.0-6.0-1.0-2.0","3131700C1BDF401D84290275315C9AD4","3131700C1BDF401D84290275315C9AD4","d0a1cc27-282b-4479-8d44-176c420b6604","5e631737-0fa4-44a6-b227-7ba1d7345015","{""num_scrambled_semantic"":""8"",""num_scrambled_causal"":""4"",""num_scrambled_schematic"":""4"",""participantId"":""3131700C1BDF401D84290275315C9AD4"",""assignmentId"":""d0a1cc27-282b-4479-8d44-176c420b6604"",""projectId"":""5e631737-0fa4-44a6-b227-7ba1d7345015""}","https://test12345.live/?num_scrambled_semantic=8&num_scrambled_causal=4&num_scrambled_schematic=4&participantId=3131700C1BDF401D84290275315C9AD4&assignmentId=d0a1cc27-282b-4479-8d44-176c420b6604&projectId=5e631737-0fa4-44a6-b227-7ba1d7345015","3131700C1BDF401D84290275315C9AD4-2025-05-27-18-49-13","","null","","[]","null","",""
"","","","","","image-button-response","12","112237","0.0-6.0-1.0-0.1","3131700C1BDF401D84290275315C9AD4","3131700C1BDF401D84290275315C9AD4","d0a1cc27-282b-4479-8d44-176c420b6604","5e631737-0fa4-44a6-b227-7ba1d7345015","{""num_scrambled_semantic"":""8"",""num_scrambled_causal"":""4"",""num_scrambled_schematic"":""4"",""participantId"":""3131700C1BDF401D84290275315C9AD4"",""assignmentId"":""d0a1cc27-282b-4479-8d44-176c420b6604"",""projectId"":""5e631737-0fa4-44a6-b227-7ba1d7345015""}","https://test12345.live/?num_scrambled_semantic=8&num_scrambled_causal=4&num_scrambled_schematic=4&participantId=3131700C1BDF401D84290275315C9AD4&assignmentId=d0a1cc27-282b-4479-8d44-176c420b6604&projectId=5e631737-0fa4-44a6-b227-7ba1d7345015","3131700C1BDF401D84290275315C9AD4-2025-05-27-18-49-13","","null","","images/instructions/movie_2.png","null","",""
"","","","","","image-button-response","13","113697","0.0-6.0-1.0-1.1","3131700C1BDF401D84290275315C9AD4","3131700C1BDF401D84290275315C9AD4","d0a1cc27-282b-4479-8d44-176c420b6604","5e631737-0fa4-44a6-b227-7ba1d7345015","{""num_scrambled_semantic"":""8"",""num_scrambled_causal"":""4"",""num_scrambled_schematic"":""4"",""participantId"":""3131700C1BDF401D84290275315C9AD4"",""assignmentId"":""d0a1cc27-282b-4479-8d44-176c420b6604"",""projectId"":""5e631737-0fa4-44a6-b227-7ba1d7345015""}","https://test12345.live/?num_scrambled_semantic=8&num_scrambled_causal=4&num_scrambled_schematic=4&participantId=3131700C1BDF401D84290275315C9AD4&assignmentId=d0a1cc27-282b-4479-8d44-176c420b6604&projectId=5e631737-0fa4-44a6-b227-7ba1d7345015","3131700C1BDF401D84290275315C9AD4-2025-05-27-18-49-13","","1459","","images/instructions/movie_2.png","0","",""
"","","","","","image-button-response","14","115509","0.0-6.0-1.0-2.1","3131700C1BDF401D84290275315C9AD4","3131700C1BDF401D84290275315C9AD4","d0a1cc27-282b-4479-8d44-176c420b6604","5e631737-0fa4-44a6-b227-7ba1d7345015","{""num_scrambled_semantic"":""8"",""num_scrambled_causal"":""4"",""num_scrambled_schematic"":""4"",""participantId"":""3131700C1BDF401D84290275315C9AD4"",""assignmentId"":""d0a1cc27-282b-4479-8d44-176c420b6604"",""projectId"":""5e631737-0fa4-44a6-b227-7ba1d7345015""}","https://test12345.live/?num_scrambled_semantic=8&num_scrambled_causal=4&num_scrambled_schematic=4&participantId=3131700C1BDF401D84290275315C9AD4&assignmentId=d0a1cc27-282b-4479-8d44-176c420b6604&projectId=5e631737-0fa4-44a6-b227-7ba1d7345015","3131700C1BDF401D84290275315C9AD4-2025-05-27-18-49-13","","null","","[]","null","",""
"","","","","","image-button-response","15","120011","0.0-6.0-1.0-0.2","3131700C1BDF401D84290275315C9AD4","3131700C1BDF401D84290275315C9AD4","d0a1cc27-282b-4479-8d44-176c420b6604","5e631737-0fa4-44a6-b227-7ba1d7345015","{""num_scrambled_semantic"":""8"",""num_scrambled_causal"":""4"",""num_scrambled_schematic"":""4"",""participantId"":""3131700C1BDF401D84290275315C9AD4"",""assignmentId"":""d0a1cc27-282b-4479-8d44-176c420b6604"",""projectId"":""5e631737-0fa4-44a6-b227-7ba1d7345015""}","https://test12345.live/?num_scrambled_semantic=8&num_scrambled_causal=4&num_scrambled_schematic=4&participantId=3131700C1BDF401D84290275315C9AD4&assignmentId=d0a1cc27-282b-4479-8d44-176c420b6604&projectId=5e631737-0fa4-44a6-b227-7ba1d7345015","3131700C1BDF401D84290275315C9AD4-2025-05-27-18-49-13","","null","","images/instructions/movie_3.png","null","",""
"","","","","","image-button-response","16","120719","0.0-6.0-1.0-1.2","3131700C1BDF401D84290275315C9AD4","3131700C1BDF401D84290275315C9AD4","d0a1cc27-282b-4479-8d44-176c420b6604","5e631737-0fa4-44a6-b227-7ba1d7345015","{""num_scrambled_semantic"":""8"",""num_scrambled_causal"":""4"",""num_scrambled_schematic"":""4"",""participantId"":""3131700C1BDF401D84290275315C9AD4"",""assignmentId"":""d0a1cc27-282b-4479-8d44-176c420b6604"",""projectId"":""5e631737-0fa4-44a6-b227-7ba1d7345015""}","https://test12345.live/?num_scrambled_semantic=8&num_scrambled_causal=4&num_scrambled_schematic=4&participantId=3131700C1BDF401D84290275315C9AD4&assignmentId=d0a1cc27-282b-4479-8d44-176c420b6604&projectId=5e631737-0fa4-44a6-b227-7ba1d7345015","3131700C1BDF401D84290275315C9AD4-2025-05-27-18-49-13","","707","","images/instructions/movie_3.png","0","",""
"","","","","","image-button-response","17","122530","0.0-6.0-1.0-2.2","3131700C1BDF401D84290275315C9AD4","3131700C1BDF401D84290275315C9AD4","d0a1cc27-282b-4479-8d44-176c420b6604","5e631737-0fa4-44a6-b227-7ba1d7345015","{""num_scrambled_semantic"":""8"",""num_scrambled_causal"":""4"",""num_scrambled_schematic"":""4"",""participantId"":""3131700C1BDF401D84290275315C9AD4"",""assignmentId"":""d0a1cc27-282b-4479-8d44-176c420b6604"",""projectId"":""5e631737-0fa4-44a6-b227-7ba1d7345015""}","https://test12345.live/?num_scrambled_semantic=8&num_scrambled_causal=4&num_scrambled_schematic=4&participantId=3131700C1BDF401D84290275315C9AD4&assignmentId=d0a1cc27-282b-4479-8d44-176c420b6604&projectId=5e631737-0fa4-44a6-b227-7ba1d7345015","3131700C1BDF401D84290275315C9AD4-2025-05-27-18-49-13","","null","","[]","null","",""
"","","","","","image-button-response","18","127043","0.0-6.0-1.0-0.3","3131700C1BDF401D84290275315C9AD4","3131700C1BDF401D84290275315C9AD4","d0a1cc27-282b-4479-8d44-176c420b6604","5e631737-0fa4-44a6-b227-7ba1d7345015","{""num_scrambled_semantic"":""8"",""num_scrambled_causal"":""4"",""num_scrambled_schematic"":""4"",""participantId"":""3131700C1BDF401D84290275315C9AD4"",""assignmentId"":""d0a1cc27-282b-4479-8d44-176c420b6604"",""projectId"":""5e631737-0fa4-44a6-b227-7ba1d7345015""}","https://test12345.live/?num_scrambled_semantic=8&num_scrambled_causal=4&num_scrambled_schematic=4&participantId=3131700C1BDF401D84290275315C9AD4&assignmentId=d0a1cc27-282b-4479-8d44-176c420b6604&projectId=5e631737-0fa4-44a6-b227-7ba1d7345015","3131700C1BDF401D84290275315C9AD4-2025-05-27-18-49-13","","null","","images/instructions/movie_4.png","null","",""
"","","","","","image-button-response","19","128720","0.0-6.0-1.0-1.3","3131700C1BDF401D84290275315C9AD4","3131700C1BDF401D84290275315C9AD4","d0a1cc27-282b-4479-8d44-176c420b6604","5e631737-0fa4-44a6-b227-7ba1d7345015","{""num_scrambled_semantic"":""8"",""num_scrambled_causal"":""4"",""num_scrambled_schematic"":""4"",""participantId"":""3131700C1BDF401D84290275315C9AD4"",""assignmentId"":""d0a1cc27-282b-4479-8d44-176c420b6604"",""projectId"":""5e631737-0fa4-44a6-b227-7ba1d7345015""}","https://test12345.live/?num_scrambled_semantic=8&num_scrambled_causal=4&num_scrambled_schematic=4&participantId=3131700C1BDF401D84290275315C9AD4&assignmentId=d0a1cc27-282b-4479-8d44-176c420b6604&projectId=5e631737-0fa4-44a6-b227-7ba1d7345015","3131700C1BDF401D84290275315C9AD4-2025-05-27-18-49-13","","1676","","images/instructions/movie_4.png","0","",""
"","","","","","image-button-response","20","130523","0.0-6.0-1.0-2.3","3131700C1BDF401D84290275315C9AD4","3131700C1BDF401D84290275315C9AD4","d0a1cc27-282b-4479-8d44-176c420b6604","5e631737-0fa4-44a6-b227-7ba1d7345015","{""num_scrambled_semantic"":""8"",""num_scrambled_causal"":""4"",""num_scrambled_schematic"":""4"",""participantId"":""3131700C1BDF401D84290275315C9AD4"",""assignmentId"":""d0a1cc27-282b-4479-8d44-176c420b6604"",""projectId"":""5e631737-0fa4-44a6-b227-7ba1d7345015""}","https://test12345.live/?num_scrambled_semantic=8&num_scrambled_causal=4&num_scrambled_schematic=4&participantId=3131700C1BDF401D84290275315C9AD4&assignmentId=d0a1cc27-282b-4479-8d44-176c420b6604&projectId=5e631737-0fa4-44a6-b227-7ba1d7345015","3131700C1BDF401D84290275315C9AD4-2025-05-27-18-49-13","","null","","[]","null","",""
"","","","","","instructions","21","147675","0.0-7.0","3131700C1BDF401D84290275315C9AD4","3131700C1BDF401D84290275315C9AD4","d0a1cc27-282b-4479-8d44-176c420b6604","5e631737-0fa4-44a6-b227-7ba1d7345015","{""num_scrambled_semantic"":""8"",""num_scrambled_causal"":""4"",""num_scrambled_schematic"":""4"",""participantId"":""3131700C1BDF401D84290275315C9AD4"",""assignmentId"":""d0a1cc27-282b-4479-8d44-176c420b6604"",""projectId"":""5e631737-0fa4-44a6-b227-7ba1d7345015""}","https://test12345.live/?num_scrambled_semantic=8&num_scrambled_causal=4&num_scrambled_schematic=4&participantId=3131700C1BDF401D84290275315C9AD4&assignmentId=d0a1cc27-282b-4479-8d44-176c420b6604&projectId=5e631737-0fa4-44a6-b227-7ba1d7345015","3131700C1BDF401D84290275315C9AD4-2025-05-27-18-49-13","[{""page_index"":0,""viewing_time"":15824},{""page_index"":1,""viewing_time"":1328}]","17152","","","","",""
"","","","","","html-audio-response","22","181725","0.0-8.0","3131700C1BDF401D84290275315C9AD4","3131700C1BDF401D84290275315C9AD4","d0a1cc27-282b-4479-8d44-176c420b6604","5e631737-0fa4-44a6-b227-7ba1d7345015","{""num_scrambled_semantic"":""8"",""num_scrambled_causal"":""4"",""num_scrambled_schematic"":""4"",""participantId"":""3131700C1BDF401D84290275315C9AD4"",""assignmentId"":""d0a1cc27-282b-4479-8d44-176c420b6604"",""projectId"":""5e631737-0fa4-44a6-b227-7ba1d7345015""}","https://test12345.live/?num_scrambled_semantic=8&num_scrambled_causal=4&num_scrambled_schematic=4&participantId=3131700C1BDF401D84290275315C9AD4&assignmentId=d0a1cc27-282b-4479-8d44-176c420b6604&projectId=5e631737-0fa4-44a6-b227-7ba1d7345015","3131700C1BDF401D84290275315C9AD4-2025-05-27-18-49-13","","15495","","[""<span style=\""color: red; font-size: 24px\""> NOW RECORDING</span><p>Please say out loud all the images you saw in the exact order you saw them. Try to recall as many images as you can, but remember: getting the order right is more important than the number of images you recall.</p>""]","","2",""
"","","","","","instructions","23","184345","0.0-9.0","3131700C1BDF401D84290275315C9AD4","3131700C1BDF401D84290275315C9AD4","d0a1cc27-282b-4479-8d44-176c420b6604","5e631737-0fa4-44a6-b227-7ba1d7345015","{""num_scrambled_semantic"":""8"",""num_scrambled_causal"":""4"",""num_scrambled_schematic"":""4"",""participantId"":""3131700C1BDF401D84290275315C9AD4"",""assignmentId"":""d0a1cc27-282b-4479-8d44-176c420b6604"",""projectId"":""5e631737-0fa4-44a6-b227-7ba1d7345015""}","https://test12345.live/?num_scrambled_semantic=8&num_scrambled_causal=4&num_scrambled_schematic=4&participantId=3131700C1BDF401D84290275315C9AD4&assignmentId=d0a1cc27-282b-4479-8d44-176c420b6604&projectId=5e631737-0fa4-44a6-b227-7ba1d7345015","3131700C1BDF401D84290275315C9AD4-2025-05-27-18-49-13","[{""page_index"":0,""viewing_time"":2616}]","2616","","","","",""
"","","","","","image-button-response","24","190354","0.0-10.0-0.0","3131700C1BDF401D84290275315C9AD4","3131700C1BDF401D84290275315C9AD4","d0a1cc27-282b-4479-8d44-176c420b6604","5e631737-0fa4-44a6-b227-7ba1d7345015","{""num_scrambled_semantic"":""8"",""num_scrambled_causal"":""4"",""num_scrambled_schematic"":""4"",""participantId"":""3131700C1BDF401D84290275315C9AD4"",""assignmentId"":""d0a1cc27-282b-4479-8d44-176c420b6604"",""projectId"":""5e631737-0fa4-44a6-b227-7ba1d7345015""}","https://test12345.live/?num_scrambled_semantic=8&num_scrambled_causal=4&num_scrambled_schematic=4&participantId=3131700C1BDF401D84290275315C9AD4&assignmentId=d0a1cc27-282b-4479-8d44-176c420b6604&projectId=5e631737-0fa4-44a6-b227-7ba1d7345015","3131700C1BDF401D84290275315C9AD4-2025-05-27-18-49-13","","null","","images/causal_sequence/package_causal/package_causal_0.png","null","",""
"","","","","","image-button-response","25","194861","0.0-10.0-1.0-0.0","3131700C1BDF401D84290275315C9AD4","3131700C1BDF401D84290275315C9AD4","d0a1cc27-282b-4479-8d44-176c420b6604","5e631737-0fa4-44a6-b227-7ba1d7345015","{""num_scrambled_semantic"":""8"",""num_scrambled_causal"":""4"",""num_scrambled_schematic"":""4"",""participantId"":""3131700C1BDF401D84290275315C9AD4"",""assignmentId"":""d0a1cc27-282b-4479-8d44-176c420b6604"",""projectId"":""5e631737-0fa4-44a6-b227-7ba1d7345015""}","https://test12345.live/?num_scrambled_semantic=8&num_scrambled_causal=4&num_scrambled_schematic=4&participantId=3131700C1BDF401D84290275315C9AD4&assignmentId=d0a1cc27-282b-4479-8d44-176c420b6604&projectId=5e631737-0fa4-44a6-b227-7ba1d7345015","3131700C1BDF401D84290275315C9AD4-2025-05-27-18-49-13","","null","","images/causal_sequence/package_causal/package_causal_1.png","null","",""
"","","","","","image-button-response","26","196273","0.0-10.0-1.0-1.0","3131700C1BDF401D84290275315C9AD4","3131700C1BDF401D84290275315C9AD4","d0a1cc27-282b-4479-8d44-176c420b6604","5e631737-0fa4-44a6-b227-7ba1d7345015","{""num_scrambled_semantic"":""8"",""num_scrambled_causal"":""4"",""num_scrambled_schematic"":""4"",""participantId"":""3131700C1BDF401D84290275315C9AD4"",""assignmentId"":""d0a1cc27-282b-4479-8d44-176c420b6604"",""projectId"":""5e631737-0fa4-44a6-b227-7ba1d7345015""}","https://test12345.live/?num_scrambled_semantic=8&num_scrambled_causal=4&num_scrambled_schematic=4&participantId=3131700C1BDF401D84290275315C9AD4&assignmentId=d0a1cc27-282b-4479-8d44-176c420b6604&projectId=5e631737-0fa4-44a6-b227-7ba1d7345015","3131700C1BDF401D84290275315C9AD4-2025-05-27-18-49-13","","1410","","images/causal_sequence/package_causal/package_causal_1.png","0","",""
"","","","","","image-button-response","27","198078","0.0-10.0-1.0-2.0","3131700C1BDF401D84290275315C9AD4","3131700C1BDF401D84290275315C9AD4","d0a1cc27-282b-4479-8d44-176c420b6604","5e631737-0fa4-44a6-b227-7ba1d7345015","{""num_scrambled_semantic"":""8"",""num_scrambled_causal"":""4"",""num_scrambled_schematic"":""4"",""participantId"":""3131700C1BDF401D84290275315C9AD4"",""assignmentId"":""d0a1cc27-282b-4479-8d44-176c420b6604"",""projectId"":""5e631737-0fa4-44a6-b227-7ba1d7345015""}","https://test12345.live/?num_scrambled_semantic=8&num_scrambled_causal=4&num_scrambled_schematic=4&participantId=3131700C1BDF401D84290275315C9AD4&assignmentId=d0a1cc27-282b-4479-8d44-176c420b6604&projectId=5e631737-0fa4-44a6-b227-7ba1d7345015","3131700C1BDF401D84290275315C9AD4-2025-05-27-18-49-13","","null","","[]","null","",""
"","","","","","image-button-response","28","202593","0.0-10.0-1.0-0.1","3131700C1BDF401D84290275315C9AD4","3131700C1BDF401D84290275315C9AD4","d0a1cc27-282b-4479-8d44-176c420b6604","5e631737-0fa4-44a6-b227-7ba1d7345015","{""num_scrambled_semantic"":""8"",""num_scrambled_causal"":""4"",""num_scrambled_schematic"":""4"",""participantId"":""3131700C1BDF401D84290275315C9AD4"",""assignmentId"":""d0a1cc27-282b-4479-8d44-176c420b6604"",""projectId"":""5e631737-0fa4-44a6-b227-7ba1d7345015""}","https://test12345.live/?num_scrambled_semantic=8&num_scrambled_causal=4&num_scrambled_schematic=4&participantId=3131700C1BDF401D84290275315C9AD4&assignmentId=d0a1cc27-282b-4479-8d44-176c420b6604&projectId=5e631737-0fa4-44a6-b227-7ba1d7345015","3131700C1BDF401D84290275315C9AD4-2025-05-27-18-49-13","","null","","images/causal_sequence/package_causal/package_causal_2.png","null","",""
"","","","","","image-button-response","29","204975","0.0-10.0-1.0-1.1","3131700C1BDF401D84290275315C9AD4","3131700C1BDF401D84290275315C9AD4","d0a1cc27-282b-4479-8d44-176c420b6604","5e631737-0fa4-44a6-b227-7ba1d7345015","{""num_scrambled_semantic"":""8"",""num_scrambled_causal"":""4"",""num_scrambled_schematic"":""4"",""participantId"":""3131700C1BDF401D84290275315C9AD4"",""assignmentId"":""d0a1cc27-282b-4479-8d44-176c420b6604"",""projectId"":""5e631737-0fa4-44a6-b227-7ba1d7345015""}","https://test12345.live/?num_scrambled_semantic=8&num_scrambled_causal=4&num_scrambled_schematic=4&participantId=3131700C1BDF401D84290275315C9AD4&assignmentId=d0a1cc27-282b-4479-8d44-176c420b6604&projectId=5e631737-0fa4-44a6-b227-7ba1d7345015","3131700C1BDF401D84290275315C9AD4-2025-05-27-18-49-13","","2381","","images/causal_sequence/package_causal/package_causal_2.png","0","",""
"","","","","","image-button-response","30","206777","0.0-10.0-1.0-2.1","3131700C1BDF401D84290275315C9AD4","3131700C1BDF401D84290275315C9AD4","d0a1cc27-282b-4479-8d44-176c420b6604","5e631737-0fa4-44a6-b227-7ba1d7345015","{""num_scrambled_semantic"":""8"",""num_scrambled_causal"":""4"",""num_scrambled_schematic"":""4"",""participantId"":""3131700C1BDF401D84290275315C9AD4"",""assignmentId"":""d0a1cc27-282b-4479-8d44-176c420b6604"",""projectId"":""5e631737-0fa4-44a6-b227-7ba1d7345015""}","https://test12345.live/?num_scrambled_semantic=8&num_scrambled_causal=4&num_scrambled_schematic=4&participantId=3131700C1BDF401D84290275315C9AD4&assignmentId=d0a1cc27-282b-4479-8d44-176c420b6604&projectId=5e631737-0fa4-44a6-b227-7ba1d7345015","3131700C1BDF401D84290275315C9AD4-2025-05-27-18-49-13","","null","","[]","null","",""
"","","","","","image-button-response","31","211294","0.0-10.0-1.0-0.2","3131700C1BDF401D84290275315C9AD4","3131700C1BDF401D84290275315C9AD4","d0a1cc27-282b-4479-8d44-176c420b6604","5e631737-0fa4-44a6-b227-7ba1d7345015","{""num_scrambled_semantic"":""8"",""num_scrambled_causal"":""4"",""num_scrambled_schematic"":""4"",""participantId"":""3131700C1BDF401D84290275315C9AD4"",""assignmentId"":""d0a1cc27-282b-4479-8d44-176c420b6604"",""projectId"":""5e631737-0fa4-44a6-b227-7ba1d7345015""}","https://test12345.live/?num_scrambled_semantic=8&num_scrambled_causal=4&num_scrambled_schematic=4&participantId=3131700C1BDF401D84290275315C9AD4&assignmentId=d0a1cc27-282b-4479-8d44-176c420b6604&projectId=5e631737-0fa4-44a6-b227-7ba1d7345015","3131700C1BDF401D84290275315C9AD4-2025-05-27-18-49-13","","null","","images/causal_sequence/package_causal/package_causal_3.png","null","",""
"","","","","","image-button-response","32","212959","0.0-10.0-1.0-1.2","3131700C1BDF401D84290275315C9AD4","3131700C1BDF401D84290275315C9AD4","d0a1cc27-282b-4479-8d44-176c420b6604","5e631737-0fa4-44a6-b227-7ba1d7345015","{""num_scrambled_semantic"":""8"",""num_scrambled_causal"":""4"",""num_scrambled_schematic"":""4"",""participantId"":""3131700C1BDF401D84290275315C9AD4"",""assignmentId"":""d0a1cc27-282b-4479-8d44-176c420b6604"",""projectId"":""5e631737-0fa4-44a6-b227-7ba1d7345015""}","https://test12345.live/?num_scrambled_semantic=8&num_scrambled_causal=4&num_scrambled_schematic=4&participantId=3131700C1BDF401D84290275315C9AD4&assignmentId=d0a1cc27-282b-4479-8d44-176c420b6604&projectId=5e631737-0fa4-44a6-b227-7ba1d7345015","3131700C1BDF401D84290275315C9AD4-2025-05-27-18-49-13","","1664","","images/causal_sequence/package_causal/package_causal_3.png","0","",""
"","","","","","image-button-response","33","214771","0.0-10.0-1.0-2.2","3131700C1BDF401D84290275315C9AD4","3131700C1BDF401D84290275315C9AD4","d0a1cc27-282b-4479-8d44-176c420b6604","5e631737-0fa4-44a6-b227-7ba1d7345015","{""num_scrambled_semantic"":""8"",""num_scrambled_causal"":""4"",""num_scrambled_schematic"":""4"",""participantId"":""3131700C1BDF401D84290275315C9AD4"",""assignmentId"":""d0a1cc27-282b-4479-8d44-176c420b6604"",""projectId"":""5e631737-0fa4-44a6-b227-7ba1d7345015""}","https://test12345.live/?num_scrambled_semantic=8&num_scrambled_causal=4&num_scrambled_schematic=4&participantId=3131700C1BDF401D84290275315C9AD4&assignmentId=d0a1cc27-282b-4479-8d44-176c420b6604&projectId=5e631737-0fa4-44a6-b227-7ba1d7345015","3131700C1BDF401D84290275315C9AD4-2025-05-27-18-49-13","","null","","[]","null","",""
"","","","","","image-button-response","34","219284","0.0-10.0-1.0-0.3","3131700C1BDF401D84290275315C9AD4","3131700C1BDF401D84290275315C9AD4","d0a1cc27-282b-4479-8d44-176c420b6604","5e631737-0fa4-44a6-b227-7ba1d7345015","{""num_scrambled_semantic"":""8"",""num_scrambled_causal"":""4"",""num_scrambled_schematic"":""4"",""participantId"":""3131700C1BDF401D84290275315C9AD4"",""assignmentId"":""d0a1cc27-282b-4479-8d44-176c420b6604"",""projectId"":""5e631737-0fa4-44a6-b227-7ba1d7345015""}","https://test12345.live/?num_scrambled_semantic=8&num_scrambled_causal=4&num_scrambled_schematic=4&participantId=3131700C1BDF401D84290275315C9AD4&assignmentId=d0a1cc27-282b-4479-8d44-176c420b6604&projectId=5e631737-0fa4-44a6-b227-7ba1d7345015","3131700C1BDF401D84290275315C9AD4-2025-05-27-18-49-13","","null","","images/causal_sequence/package_causal/package_causal_4.png","null","",""
"","","","","","image-button-response","35","221252","0.0-10.0-1.0-1.3","3131700C1BDF401D84290275315C9AD4","3131700C1BDF401D84290275315C9AD4","d0a1cc27-282b-4479-8d44-176c420b6604","5e631737-0fa4-44a6-b227-7ba1d7345015","{""num_scrambled_semantic"":""8"",""num_scrambled_causal"":""4"",""num_scrambled_schematic"":""4"",""participantId"":""3131700C1BDF401D84290275315C9AD4"",""assignmentId"":""d0a1cc27-282b-4479-8d44-176c420b6604"",""projectId"":""5e631737-0fa4-44a6-b227-7ba1d7345015""}","https://test12345.live/?num_scrambled_semantic=8&num_scrambled_causal=4&num_scrambled_schematic=4&participantId=3131700C1BDF401D84290275315C9AD4&assignmentId=d0a1cc27-282b-4479-8d44-176c420b6604&projectId=5e631737-0fa4-44a6-b227-7ba1d7345015","3131700C1BDF401D84290275315C9AD4-2025-05-27-18-49-13","","1967","","images/causal_sequence/package_causal/package_causal_4.png","1","",""
"","","","","","image-button-response","36","223059","0.0-10.0-1.0-2.3","3131700C1BDF401D84290275315C9AD4","3131700C1BDF401D84290275315C9AD4","d0a1cc27-282b-4479-8d44-176c420b6604","5e631737-0fa4-44a6-b227-7ba1d7345015","{""num_scrambled_semantic"":""8"",""num_scrambled_causal"":""4"",""num_scrambled_schematic"":""4"",""participantId"":""3131700C1BDF401D84290275315C9AD4"",""assignmentId"":""d0a1cc27-282b-4479-8d44-176c420b6604"",""projectId"":""5e631737-0fa4-44a6-b227-7ba1d7345015""}","https://test12345.live/?num_scrambled_semantic=8&num_scrambled_causal=4&num_scrambled_schematic=4&participantId=3131700C1BDF401D84290275315C9AD4&assignmentId=d0a1cc27-282b-4479-8d44-176c420b6604&projectId=5e631737-0fa4-44a6-b227-7ba1d7345015","3131700C1BDF401D84290275315C9AD4-2025-05-27-18-49-13","","null","","[]","null","",""
"","","","","","image-button-response","37","227570","0.0-10.0-1.0-0.4","3131700C1BDF401D84290275315C9AD4","3131700C1BDF401D84290275315C9AD4","d0a1cc27-282b-4479-8d44-176c420b6604","5e631737-0fa4-44a6-b227-7ba1d7345015","{""num_scrambled_semantic"":""8"",""num_scrambled_causal"":""4"",""num_scrambled_schematic"":""4"",""participantId"":""3131700C1BDF401D84290275315C9AD4"",""assignmentId"":""d0a1cc27-282b-4479-8d44-176c420b6604"",""projectId"":""5e631737-0fa4-44a6-b227-7ba1d7345015""}","https://test12345.live/?num_scrambled_semantic=8&num_scrambled_causal=4&num_scrambled_schematic=4&participantId=3131700C1BDF401D84290275315C9AD4&assignmentId=d0a1cc27-282b-4479-8d44-176c420b6604&projectId=5e631737-0fa4-44a6-b227-7ba1d7345015","3131700C1BDF401D84290275315C9AD4-2025-05-27-18-49-13","","null","","images/causal_sequence/package_causal/package_causal_5.png","null","",""
"","","","","","image-button-response","38","229975","0.0-10.0-1.0-1.4","3131700C1BDF401D84290275315C9AD4","3131700C1BDF401D84290275315C9AD4","d0a1cc27-282b-4479-8d44-176c420b6604","5e631737-0fa4-44a6-b227-7ba1d7345015","{""num_scrambled_semantic"":""8"",""num_scrambled_causal"":""4"",""num_scrambled_schematic"":""4"",""participantId"":""3131700C1BDF401D84290275315C9AD4"",""assignmentId"":""d0a1cc27-282b-4479-8d44-176c420b6604"",""projectId"":""5e631737-0fa4-44a6-b227-7ba1d7345015""}","https://test12345.live/?num_scrambled_semantic=8&num_scrambled_causal=4&num_scrambled_schematic=4&participantId=3131700C1BDF401D84290275315C9AD4&assignmentId=d0a1cc27-282b-4479-8d44-176c420b6604&projectId=5e631737-0fa4-44a6-b227-7ba1d7345015","3131700C1BDF401D84290275315C9AD4-2025-05-27-18-49-13","","2404","","images/causal_sequence/package_causal/package_causal_5.png","0","",""
"","","","","","image-button-response","39","231779","0.0-10.0-1.0-2.4","3131700C1BDF401D84290275315C9AD4","3131700C1BDF401D84290275315C9AD4","d0a1cc27-282b-4479-8d44-176c420b6604","5e631737-0fa4-44a6-b227-7ba1d7345015","{""num_scrambled_semantic"":""8"",""num_scrambled_causal"":""4"",""num_scrambled_schematic"":""4"",""participantId"":""3131700C1BDF401D84290275315C9AD4"",""assignmentId"":""d0a1cc27-282b-4479-8d44-176c420b6604"",""projectId"":""5e631737-0fa4-44a6-b227-7ba1d7345015""}","https://test12345.live/?num_scrambled_semantic=8&num_scrambled_causal=4&num_scrambled_schematic=4&participantId=3131700C1BDF401D84290275315C9AD4&assignmentId=d0a1cc27-282b-4479-8d44-176c420b6604&projectId=5e631737-0fa4-44a6-b227-7ba1d7345015","3131700C1BDF401D84290275315C9AD4-2025-05-27-18-49-13","","null","","[]","null","",""
"","","","","","image-button-response","40","236287","0.0-10.0-1.0-0.5","3131700C1BDF401D84290275315C9AD4","3131700C1BDF401D84290275315C9AD4","d0a1cc27-282b-4479-8d44-176c420b6604","5e631737-0fa4-44a6-b227-7ba1d7345015","{""num_scrambled_semantic"":""8"",""num_scrambled_causal"":""4"",""num_scrambled_schematic"":""4"",""participantId"":""3131700C1BDF401D84290275315C9AD4"",""assignmentId"":""d0a1cc27-282b-4479-8d44-176c420b6604"",""projectId"":""5e631737-0fa4-44a6-b227-7ba1d7345015""}","https://test12345.live/?num_scrambled_semantic=8&num_scrambled_causal=4&num_scrambled_schematic=4&participantId=3131700C1BDF401D84290275315C9AD4&assignmentId=d0a1cc27-282b-4479-8d44-176c420b6604&projectId=5e631737-0fa4-44a6-b227-7ba1d7345015","3131700C1BDF401D84290275315C9AD4-2025-05-27-18-49-13","","null","","images/causal_sequence/package_causal/package_causal_6.png","null","",""
"","","","","","image-button-response","41","237021","0.0-10.0-1.0-1.5","3131700C1BDF401D84290275315C9AD4","3131700C1BDF401D84290275315C9AD4","d0a1cc27-282b-4479-8d44-176c420b6604","5e631737-0fa4-44a6-b227-7ba1d7345015","{""num_scrambled_semantic"":""8"",""num_scrambled_causal"":""4"",""num_scrambled_schematic"":""4"",""participantId"":""3131700C1BDF401D84290275315C9AD4"",""assignmentId"":""d0a1cc27-282b-4479-8d44-176c420b6604"",""projectId"":""5e631737-0fa4-44a6-b227-7ba1d7345015""}","https://test12345.live/?num_scrambled_semantic=8&num_scrambled_causal=4&num_scrambled_schematic=4&participantId=3131700C1BDF401D84290275315C9AD4&assignmentId=d0a1cc27-282b-4479-8d44-176c420b6604&projectId=5e631737-0fa4-44a6-b227-7ba1d7345015","3131700C1BDF401D84290275315C9AD4-2025-05-27-18-49-13","","732","","images/causal_sequence/package_causal/package_causal_6.png","0","",""
"","","","","","image-button-response","42","238830","0.0-10.0-1.0-2.5","3131700C1BDF401D84290275315C9AD4","3131700C1BDF401D84290275315C9AD4","d0a1cc27-282b-4479-8d44-176c420b6604","5e631737-0fa4-44a6-b227-7ba1d7345015","{""num_scrambled_semantic"":""8"",""num_scrambled_causal"":""4"",""num_scrambled_schematic"":""4"",""participantId"":""3131700C1BDF401D84290275315C9AD4"",""assignmentId"":""d0a1cc27-282b-4479-8d44-176c420b6604"",""projectId"":""5e631737-0fa4-44a6-b227-7ba1d7345015""}","https://test12345.live/?num_scrambled_semantic=8&num_scrambled_causal=4&num_scrambled_schematic=4&participantId=3131700C1BDF401D84290275315C9AD4&assignmentId=d0a1cc27-282b-4479-8d44-176c420b6604&projectId=5e631737-0fa4-44a6-b227-7ba1d7345015","3131700C1BDF401D84290275315C9AD4-2025-05-27-18-49-13","","null","","[]","null","",""
"","","","","","image-button-response","43","243332","0.0-10.0-1.0-0.6","3131700C1BDF401D84290275315C9AD4","3131700C1BDF401D84290275315C9AD4","d0a1cc27-282b-4479-8d44-176c420b6604","5e631737-0fa4-44a6-b227-7ba1d7345015","{""num_scrambled_semantic"":""8"",""num_scrambled_causal"":""4"",""num_scrambled_schematic"":""4"",""participantId"":""3131700C1BDF401D84290275315C9AD4"",""assignmentId"":""d0a1cc27-282b-4479-8d44-176c420b6604"",""projectId"":""5e631737-0fa4-44a6-b227-7ba1d7345015""}","https://test12345.live/?num_scrambled_semantic=8&num_scrambled_causal=4&num_scrambled_schematic=4&participantId=3131700C1BDF401D84290275315C9AD4&assignmentId=d0a1cc27-282b-4479-8d44-176c420b6604&projectId=5e631737-0fa4-44a6-b227-7ba1d7345015","3131700C1BDF401D84290275315C9AD4-2025-05-27-18-49-13","","null","","images/causal_sequence/package_causal/package_causal_7.png","null","",""
"","","","","","image-button-response","44","244419","0.0-10.0-1.0-1.6","3131700C1BDF401D84290275315C9AD4","3131700C1BDF401D84290275315C9AD4","d0a1cc27-282b-4479-8d44-176c420b6604","5e631737-0fa4-44a6-b227-7ba1d7345015","{""num_scrambled_semantic"":""8"",""num_scrambled_causal"":""4"",""num_scrambled_schematic"":""4"",""participantId"":""3131700C1BDF401D84290275315C9AD4"",""assignmentId"":""d0a1cc27-282b-4479-8d44-176c420b6604"",""projectId"":""5e631737-0fa4-44a6-b227-7ba1d7345015""}","https://test12345.live/?num_scrambled_semantic=8&num_scrambled_causal=4&num_scrambled_schematic=4&participantId=3131700C1BDF401D84290275315C9AD4&assignmentId=d0a1cc27-282b-4479-8d44-176c420b6604&projectId=5e631737-0fa4-44a6-b227-7ba1d7345015","3131700C1BDF401D84290275315C9AD4-2025-05-27-18-49-13","","1086","","images/causal_sequence/package_causal/package_causal_7.png","0","",""
"","","","","","image-button-response","45","246233","0.0-10.0-1.0-2.6","3131700C1BDF401D84290275315C9AD4","3131700C1BDF401D84290275315C9AD4","d0a1cc27-282b-4479-8d44-176c420b6604","5e631737-0fa4-44a6-b227-7ba1d7345015","{""num_scrambled_semantic"":""8"",""num_scrambled_causal"":""4"",""num_scrambled_schematic"":""4"",""participantId"":""3131700C1BDF401D84290275315C9AD4"",""assignmentId"":""d0a1cc27-282b-4479-8d44-176c420b6604"",""projectId"":""5e631737-0fa4-44a6-b227-7ba1d7345015""}","https://test12345.live/?num_scrambled_semantic=8&num_scrambled_causal=4&num_scrambled_schematic=4&participantId=3131700C1BDF401D84290275315C9AD4&assignmentId=d0a1cc27-282b-4479-8d44-176c420b6604&projectId=5e631737-0fa4-44a6-b227-7ba1d7345015","3131700C1BDF401D84290275315C9AD4-2025-05-27-18-49-13","","null","","[]","null","",""
"","","","","","image-button-response","46","250742","0.0-10.0-1.0-0.7","3131700C1BDF401D84290275315C9AD4","3131700C1BDF401D84290275315C9AD4","d0a1cc27-282b-4479-8d44-176c420b6604","5e631737-0fa4-44a6-b227-7ba1d7345015","{""num_scrambled_semantic"":""8"",""num_scrambled_causal"":""4"",""num_scrambled_schematic"":""4"",""participantId"":""3131700C1BDF401D84290275315C9AD4"",""assignmentId"":""d0a1cc27-282b-4479-8d44-176c420b6604"",""projectId"":""5e631737-0fa4-44a6-b227-7ba1d7345015""}","https://test12345.live/?num_scrambled_semantic=8&num_scrambled_causal=4&num_scrambled_schematic=4&participantId=3131700C1BDF401D84290275315C9AD4&assignmentId=d0a1cc27-282b-4479-8d44-176c420b6604&projectId=5e631737-0fa4-44a6-b227-7ba1d7345015","3131700C1BDF401D84290275315C9AD4-2025-05-27-18-49-13","","null","","images/causal_sequence/package_causal/package_causal_8.png","null","",""
"","","","","","image-button-response","47","254329","0.0-10.0-1.0-1.7","3131700C1BDF401D84290275315C9AD4","3131700C1BDF401D84290275315C9AD4","d0a1cc27-282b-4479-8d44-176c420b6604","5e631737-0fa4-44a6-b227-7ba1d7345015","{""num_scrambled_semantic"":""8"",""num_scrambled_causal"":""4"",""num_scrambled_schematic"":""4"",""participantId"":""3131700C1BDF401D84290275315C9AD4"",""assignmentId"":""d0a1cc27-282b-4479-8d44-176c420b6604"",""projectId"":""5e631737-0fa4-44a6-b227-7ba1d7345015""}","https://test12345.live/?num_scrambled_semantic=8&num_scrambled_causal=4&num_scrambled_schematic=4&participantId=3131700C1BDF401D84290275315C9AD4&assignmentId=d0a1cc27-282b-4479-8d44-176c420b6604&projectId=5e631737-0fa4-44a6-b227-7ba1d7345015","3131700C1BDF401D84290275315C9AD4-2025-05-27-18-49-13","","3586","","images/causal_sequence/package_causal/package_causal_8.png","0","",""
"","","","","","image-button-response","48","256131","0.0-10.0-1.0-2.7","3131700C1BDF401D84290275315C9AD4","3131700C1BDF401D84290275315C9AD4","d0a1cc27-282b-4479-8d44-176c420b6604","5e631737-0fa4-44a6-b227-7ba1d7345015","{""num_scrambled_semantic"":""8"",""num_scrambled_causal"":""4"",""num_scrambled_schematic"":""4"",""participantId"":""3131700C1BDF401D84290275315C9AD4"",""assignmentId"":""d0a1cc27-282b-4479-8d44-176c420b6604"",""projectId"":""5e631737-0fa4-44a6-b227-7ba1d7345015""}","https://test12345.live/?num_scrambled_semantic=8&num_scrambled_causal=4&num_scrambled_schematic=4&participantId=3131700C1BDF401D84290275315C9AD4&assignmentId=d0a1cc27-282b-4479-8d44-176c420b6604&projectId=5e631737-0fa4-44a6-b227-7ba1d7345015","3131700C1BDF401D84290275315C9AD4-2025-05-27-18-49-13","","null","","[]","null","",""
"","","","","","image-button-response","49","260642","0.0-10.0-1.0-0.8","3131700C1BDF401D84290275315C9AD4","3131700C1BDF401D84290275315C9AD4","d0a1cc27-282b-4479-8d44-176c420b6604","5e631737-0fa4-44a6-b227-7ba1d7345015","{""num_scrambled_semantic"":""8"",""num_scrambled_causal"":""4"",""num_scrambled_schematic"":""4"",""participantId"":""3131700C1BDF401D84290275315C9AD4"",""assignmentId"":""d0a1cc27-282b-4479-8d44-176c420b6604"",""projectId"":""5e631737-0fa4-44a6-b227-7ba1d7345015""}","https://test12345.live/?num_scrambled_semantic=8&num_scrambled_causal=4&num_scrambled_schematic=4&participantId=3131700C1BDF401D84290275315C9AD4&assignmentId=d0a1cc27-282b-4479-8d44-176c420b6604&projectId=5e631737-0fa4-44a6-b227-7ba1d7345015","3131700C1BDF401D84290275315C9AD4-2025-05-27-18-49-13","","null","","images/causal_sequence/package_causal/package_causal_9.png","null","",""
"","","","","","image-button-response","50","262383","0.0-10.0-1.0-1.8","3131700C1BDF401D84290275315C9AD4","3131700C1BDF401D84290275315C9AD4","d0a1cc27-282b-4479-8d44-176c420b6604","5e631737-0fa4-44a6-b227-7ba1d7345015","{""num_scrambled_semantic"":""8"",""num_scrambled_causal"":""4"",""num_scrambled_schematic"":""4"",""participantId"":""3131700C1BDF401D84290275315C9AD4"",""assignmentId"":""d0a1cc27-282b-4479-8d44-176c420b6604"",""projectId"":""5e631737-0fa4-44a6-b227-7ba1d7345015""}","https://test12345.live/?num_scrambled_semantic=8&num_scrambled_causal=4&num_scrambled_schematic=4&participantId=3131700C1BDF401D84290275315C9AD4&assignmentId=d0a1cc27-282b-4479-8d44-176c420b6604&projectId=5e631737-0fa4-44a6-b227-7ba1d7345015","3131700C1BDF401D84290275315C9AD4-2025-05-27-18-49-13","","1740","","images/causal_sequence/package_causal/package_causal_9.png","0","",""
"","","","","","image-button-response","51","264199","0.0-10.0-1.0-2.8","3131700C1BDF401D84290275315C9AD4","3131700C1BDF401D84290275315C9AD4","d0a1cc27-282b-4479-8d44-176c420b6604","5e631737-0fa4-44a6-b227-7ba1d7345015","{""num_scrambled_semantic"":""8"",""num_scrambled_causal"":""4"",""num_scrambled_schematic"":""4"",""participantId"":""3131700C1BDF401D84290275315C9AD4"",""assignmentId"":""d0a1cc27-282b-4479-8d44-176c420b6604"",""projectId"":""5e631737-0fa4-44a6-b227-7ba1d7345015""}","https://test12345.live/?num_scrambled_semantic=8&num_scrambled_causal=4&num_scrambled_schematic=4&participantId=3131700C1BDF401D84290275315C9AD4&assignmentId=d0a1cc27-282b-4479-8d44-176c420b6604&projectId=5e631737-0fa4-44a6-b227-7ba1d7345015","3131700C1BDF401D84290275315C9AD4-2025-05-27-18-49-13","","null","","[]","null","",""
"","","","","","image-button-response","52","268710","0.0-10.0-1.0-0.9","3131700C1BDF401D84290275315C9AD4","3131700C1BDF401D84290275315C9AD4","d0a1cc27-282b-4479-8d44-176c420b6604","5e631737-0fa4-44a6-b227-7ba1d7345015","{""num_scrambled_semantic"":""8"",""num_scrambled_causal"":""4"",""num_scrambled_schematic"":""4"",""participantId"":""3131700C1BDF401D84290275315C9AD4"",""assignmentId"":""d0a1cc27-282b-4479-8d44-176c420b6604"",""projectId"":""5e631737-0fa4-44a6-b227-7ba1d7345015""}","https://test12345.live/?num_scrambled_semantic=8&num_scrambled_causal=4&num_scrambled_schematic=4&participantId=3131700C1BDF401D84290275315C9AD4&assignmentId=d0a1cc27-282b-4479-8d44-176c420b6604&projectId=5e631737-0fa4-44a6-b227-7ba1d7345015","3131700C1BDF401D84290275315C9AD4-2025-05-27-18-49-13","","null","","images/causal_sequence/package_causal/package_causal_ten.png","null","",""
"","","","","","image-button-response","53","269620","0.0-10.0-1.0-1.9","3131700C1BDF401D84290275315C9AD4","3131700C1BDF401D84290275315C9AD4","d0a1cc27-282b-4479-8d44-176c420b6604","5e631737-0fa4-44a6-b227-7ba1d7345015","{""num_scrambled_semantic"":""8"",""num_scrambled_causal"":""4"",""num_scrambled_schematic"":""4"",""participantId"":""3131700C1BDF401D84290275315C9AD4"",""assignmentId"":""d0a1cc27-282b-4479-8d44-176c420b6604"",""projectId"":""5e631737-0fa4-44a6-b227-7ba1d7345015""}","https://test12345.live/?num_scrambled_semantic=8&num_scrambled_causal=4&num_scrambled_schematic=4&participantId=3131700C1BDF401D84290275315C9AD4&assignmentId=d0a1cc27-282b-4479-8d44-176c420b6604&projectId=5e631737-0fa4-44a6-b227-7ba1d7345015","3131700C1BDF401D84290275315C9AD4-2025-05-27-18-49-13","","909","","images/causal_sequence/package_causal/package_causal_ten.png","0","",""
"","","","","","image-button-response","54","271437","0.0-10.0-1.0-2.9","3131700C1BDF401D84290275315C9AD4","3131700C1BDF401D84290275315C9AD4","d0a1cc27-282b-4479-8d44-176c420b6604","5e631737-0fa4-44a6-b227-7ba1d7345015","{""num_scrambled_semantic"":""8"",""num_scrambled_causal"":""4"",""num_scrambled_schematic"":""4"",""participantId"":""3131700C1BDF401D84290275315C9AD4"",""assignmentId"":""d0a1cc27-282b-4479-8d44-176c420b6604"",""projectId"":""5e631737-0fa4-44a6-b227-7ba1d7345015""}","https://test12345.live/?num_scrambled_semantic=8&num_scrambled_causal=4&num_scrambled_schematic=4&participantId=3131700C1BDF401D84290275315C9AD4&assignmentId=d0a1cc27-282b-4479-8d44-176c420b6604&projectId=5e631737-0fa4-44a6-b227-7ba1d7345015","3131700C1BDF401D84290275315C9AD4-2025-05-27-18-49-13","","null","","[]","null","",""
"","","","","","html-audio-response","55","339089","0.0-11.0","3131700C1BDF401D84290275315C9AD4","3131700C1BDF401D84290275315C9AD4","d0a1cc27-282b-4479-8d44-176c420b6604","5e631737-0fa4-44a6-b227-7ba1d7345015","{""num_scrambled_semantic"":""8"",""num_scrambled_causal"":""4"",""num_scrambled_schematic"":""4"",""participantId"":""3131700C1BDF401D84290275315C9AD4"",""assignmentId"":""d0a1cc27-282b-4479-8d44-176c420b6604"",""projectId"":""5e631737-0fa4-44a6-b227-7ba1d7345015""}","https://test12345.live/?num_scrambled_semantic=8&num_scrambled_causal=4&num_scrambled_schematic=4&participantId=3131700C1BDF401D84290275315C9AD4&assignmentId=d0a1cc27-282b-4479-8d44-176c420b6604&projectId=5e631737-0fa4-44a6-b227-7ba1d7345015","3131700C1BDF401D84290275315C9AD4-2025-05-27-18-49-13","","31971","","[""<span style=\""color: red; font-size: 24px\""> NOW RECORDING</span><p>Please say out loud all the images you saw, in the exact order you saw them. Try to recall as many images as you can, but remember: getting the order right is more important than the number of images you recall.</p>""]","","1","package_causal"
"","","","","","image-button-response","56","345098","0.0-12.0-0.0","3131700C1BDF401D84290275315C9AD4","3131700C1BDF401D84290275315C9AD4","d0a1cc27-282b-4479-8d44-176c420b6604","5e631737-0fa4-44a6-b227-7ba1d7345015","{""num_scrambled_semantic"":""8"",""num_scrambled_causal"":""4"",""num_scrambled_schematic"":""4"",""participantId"":""3131700C1BDF401D84290275315C9AD4"",""assignmentId"":""d0a1cc27-282b-4479-8d44-176c420b6604"",""projectId"":""5e631737-0fa4-44a6-b227-7ba1d7345015""}","https://test12345.live/?num_scrambled_semantic=8&num_scrambled_causal=4&num_scrambled_schematic=4&participantId=3131700C1BDF401D84290275315C9AD4&assignmentId=d0a1cc27-282b-4479-8d44-176c420b6604&projectId=5e631737-0fa4-44a6-b227-7ba1d7345015","3131700C1BDF401D84290275315C9AD4-2025-05-27-18-49-13","","null","","images/semantic_sequence/redecorating_semantic/redecorating_semantic_0.png","null","",""
"","","","","","image-button-response","57","349609","0.0-12.0-1.0-0.0","3131700C1BDF401D84290275315C9AD4","3131700C1BDF401D84290275315C9AD4","d0a1cc27-282b-4479-8d44-176c420b6604","5e631737-0fa4-44a6-b227-7ba1d7345015","{""num_scrambled_semantic"":""8"",""num_scrambled_causal"":""4"",""num_scrambled_schematic"":""4"",""participantId"":""3131700C1BDF401D84290275315C9AD4"",""assignmentId"":""d0a1cc27-282b-4479-8d44-176c420b6604"",""projectId"":""5e631737-0fa4-44a6-b227-7ba1d7345015""}","https://test12345.live/?num_scrambled_semantic=8&num_scrambled_causal=4&num_scrambled_schematic=4&participantId=3131700C1BDF401D84290275315C9AD4&assignmentId=d0a1cc27-282b-4479-8d44-176c420b6604&projectId=5e631737-0fa4-44a6-b227-7ba1d7345015","3131700C1BDF401D84290275315C9AD4-2025-05-27-18-49-13","","null","","images/semantic_sequence/redecorating_semantic/redecorating_semantic_2.png","null","",""
"","","","","","image-button-response","58","351407","0.0-12.0-1.0-1.0","3131700C1BDF401D84290275315C9AD4","3131700C1BDF401D84290275315C9AD4","d0a1cc27-282b-4479-8d44-176c420b6604","5e631737-0fa4-44a6-b227-7ba1d7345015","{""num_scrambled_semantic"":""8"",""num_scrambled_causal"":""4"",""num_scrambled_schematic"":""4"",""participantId"":""3131700C1BDF401D84290275315C9AD4"",""assignmentId"":""d0a1cc27-282b-4479-8d44-176c420b6604"",""projectId"":""5e631737-0fa4-44a6-b227-7ba1d7345015""}","https://test12345.live/?num_scrambled_semantic=8&num_scrambled_causal=4&num_scrambled_schematic=4&participantId=3131700C1BDF401D84290275315C9AD4&assignmentId=d0a1cc27-282b-4479-8d44-176c420b6604&projectId=5e631737-0fa4-44a6-b227-7ba1d7345015","3131700C1BDF401D84290275315C9AD4-2025-05-27-18-49-13","","1795","","images/semantic_sequence/redecorating_semantic/redecorating_semantic_2.png","0","",""
"","","","","","image-button-response","59","353210","0.0-12.0-1.0-2.0","3131700C1BDF401D84290275315C9AD4","3131700C1BDF401D84290275315C9AD4","d0a1cc27-282b-4479-8d44-176c420b6604","5e631737-0fa4-44a6-b227-7ba1d7345015","{""num_scrambled_semantic"":""8"",""num_scrambled_causal"":""4"",""num_scrambled_schematic"":""4"",""participantId"":""3131700C1BDF401D84290275315C9AD4"",""assignmentId"":""d0a1cc27-282b-4479-8d44-176c420b6604"",""projectId"":""5e631737-0fa4-44a6-b227-7ba1d7345015""}","https://test12345.live/?num_scrambled_semantic=8&num_scrambled_causal=4&num_scrambled_schematic=4&participantId=3131700C1BDF401D84290275315C9AD4&assignmentId=d0a1cc27-282b-4479-8d44-176c420b6604&projectId=5e631737-0fa4-44a6-b227-7ba1d7345015","3131700C1BDF401D84290275315C9AD4-2025-05-27-18-49-13","","null","","[]","null","",""
"","","","","","image-button-response","60","357712","0.0-12.0-1.0-0.1","3131700C1BDF401D84290275315C9AD4","3131700C1BDF401D84290275315C9AD4","d0a1cc27-282b-4479-8d44-176c420b6604","5e631737-0fa4-44a6-b227-7ba1d7345015","{""num_scrambled_semantic"":""8"",""num_scrambled_causal"":""4"",""num_scrambled_schematic"":""4"",""participantId"":""3131700C1BDF401D84290275315C9AD4"",""assignmentId"":""d0a1cc27-282b-4479-8d44-176c420b6604"",""projectId"":""5e631737-0fa4-44a6-b227-7ba1d7345015""}","https://test12345.live/?num_scrambled_semantic=8&num_scrambled_causal=4&num_scrambled_schematic=4&participantId=3131700C1BDF401D84290275315C9AD4&assignmentId=d0a1cc27-282b-4479-8d44-176c420b6604&projectId=5e631737-0fa4-44a6-b227-7ba1d7345015","3131700C1BDF401D84290275315C9AD4-2025-05-27-18-49-13","","null","","images/semantic_sequence/redecorating_semantic/redecorating_semantic_7.png","null","",""
"","","","","","image-button-response","61","358409","0.0-12.0-1.0-1.1","3131700C1BDF401D84290275315C9AD4","3131700C1BDF401D84290275315C9AD4","d0a1cc27-282b-4479-8d44-176c420b6604","5e631737-0fa4-44a6-b227-7ba1d7345015","{""num_scrambled_semantic"":""8"",""num_scrambled_causal"":""4"",""num_scrambled_schematic"":""4"",""participantId"":""3131700C1BDF401D84290275315C9AD4"",""assignmentId"":""d0a1cc27-282b-4479-8d44-176c420b6604"",""projectId"":""5e631737-0fa4-44a6-b227-7ba1d7345015""}","https://test12345.live/?num_scrambled_semantic=8&num_scrambled_causal=4&num_scrambled_schematic=4&participantId=3131700C1BDF401D84290275315C9AD4&assignmentId=d0a1cc27-282b-4479-8d44-176c420b6604&projectId=5e631737-0fa4-44a6-b227-7ba1d7345015","3131700C1BDF401D84290275315C9AD4-2025-05-27-18-49-13","","696","","images/semantic_sequence/redecorating_semantic/redecorating_semantic_7.png","0","",""
"","","","","","image-button-response","62","360225","0.0-12.0-1.0-2.1","3131700C1BDF401D84290275315C9AD4","3131700C1BDF401D84290275315C9AD4","d0a1cc27-282b-4479-8d44-176c420b6604","5e631737-0fa4-44a6-b227-7ba1d7345015","{""num_scrambled_semantic"":""8"",""num_scrambled_causal"":""4"",""num_scrambled_schematic"":""4"",""participantId"":""3131700C1BDF401D84290275315C9AD4"",""assignmentId"":""d0a1cc27-282b-4479-8d44-176c420b6604"",""projectId"":""5e631737-0fa4-44a6-b227-7ba1d7345015""}","https://test12345.live/?num_scrambled_semantic=8&num_scrambled_causal=4&num_scrambled_schematic=4&participantId=3131700C1BDF401D84290275315C9AD4&assignmentId=d0a1cc27-282b-4479-8d44-176c420b6604&projectId=5e631737-0fa4-44a6-b227-7ba1d7345015","3131700C1BDF401D84290275315C9AD4-2025-05-27-18-49-13","","null","","[]","null","",""
"","","","","","image-button-response","63","364730","0.0-12.0-1.0-0.2","3131700C1BDF401D84290275315C9AD4","3131700C1BDF401D84290275315C9AD4","d0a1cc27-282b-4479-8d44-176c420b6604","5e631737-0fa4-44a6-b227-7ba1d7345015","{""num_scrambled_semantic"":""8"",""num_scrambled_causal"":""4"",""num_scrambled_schematic"":""4"",""participantId"":""3131700C1BDF401D84290275315C9AD4"",""assignmentId"":""d0a1cc27-282b-4479-8d44-176c420b6604"",""projectId"":""5e631737-0fa4-44a6-b227-7ba1d7345015""}","https://test12345.live/?num_scrambled_semantic=8&num_scrambled_causal=4&num_scrambled_schematic=4&participantId=3131700C1BDF401D84290275315C9AD4&assignmentId=d0a1cc27-282b-4479-8d44-176c420b6604&projectId=5e631737-0fa4-44a6-b227-7ba1d7345015","3131700C1BDF401D84290275315C9AD4-2025-05-27-18-49-13","","null","","images/semantic_sequence/redecorating_semantic/redecorating_semantic_9.png","null","",""
"","","","","","image-button-response","64","365831","0.0-12.0-1.0-1.2","3131700C1BDF401D84290275315C9AD4","3131700C1BDF401D84290275315C9AD4","d0a1cc27-282b-4479-8d44-176c420b6604","5e631737-0fa4-44a6-b227-7ba1d7345015","{""num_scrambled_semantic"":""8"",""num_scrambled_causal"":""4"",""num_scrambled_schematic"":""4"",""participantId"":""3131700C1BDF401D84290275315C9AD4"",""assignmentId"":""d0a1cc27-282b-4479-8d44-176c420b6604"",""projectId"":""5e631737-0fa4-44a6-b227-7ba1d7345015""}","https://test12345.live/?num_scrambled_semantic=8&num_scrambled_causal=4&num_scrambled_schematic=4&participantId=3131700C1BDF401D84290275315C9AD4&assignmentId=d0a1cc27-282b-4479-8d44-176c420b6604&projectId=5e631737-0fa4-44a6-b227-7ba1d7345015","3131700C1BDF401D84290275315C9AD4-2025-05-27-18-49-13","","1100","","images/semantic_sequence/redecorating_semantic/redecorating_semantic_9.png","0","",""
"","","","","","image-button-response","65","367639","0.0-12.0-1.0-2.2","3131700C1BDF401D84290275315C9AD4","3131700C1BDF401D84290275315C9AD4","d0a1cc27-282b-4479-8d44-176c420b6604","5e631737-0fa4-44a6-b227-7ba1d7345015","{""num_scrambled_semantic"":""8"",""num_scrambled_causal"":""4"",""num_scrambled_schematic"":""4"",""participantId"":""3131700C1BDF401D84290275315C9AD4"",""assignmentId"":""d0a1cc27-282b-4479-8d44-176c420b6604"",""projectId"":""5e631737-0fa4-44a6-b227-7ba1d7345015""}","https://test12345.live/?num_scrambled_semantic=8&num_scrambled_causal=4&num_scrambled_schematic=4&participantId=3131700C1BDF401D84290275315C9AD4&assignmentId=d0a1cc27-282b-4479-8d44-176c420b6604&projectId=5e631737-0fa4-44a6-b227-7ba1d7345015","3131700C1BDF401D84290275315C9AD4-2025-05-27-18-49-13","","null","","[]","null","",""
"","","","","","image-button-response","66","372141","0.0-12.0-1.0-0.3","3131700C1BDF401D84290275315C9AD4","3131700C1BDF401D84290275315C9AD4","d0a1cc27-282b-4479-8d44-176c420b6604","5e631737-0fa4-44a6-b227-7ba1d7345015","{""num_scrambled_semantic"":""8"",""num_scrambled_causal"":""4"",""num_scrambled_schematic"":""4"",""participantId"":""3131700C1BDF401D84290275315C9AD4"",""assignmentId"":""d0a1cc27-282b-4479-8d44-176c420b6604"",""projectId"":""5e631737-0fa4-44a6-b227-7ba1d7345015""}","https://test12345.live/?num_scrambled_semantic=8&num_scrambled_causal=4&num_scrambled_schematic=4&participantId=3131700C1BDF401D84290275315C9AD4&assignmentId=d0a1cc27-282b-4479-8d44-176c420b6604&projectId=5e631737-0fa4-44a6-b227-7ba1d7345015","3131700C1BDF401D84290275315C9AD4-2025-05-27-18-49-13","","null","","images/semantic_sequence/redecorating_semantic/redecorating_semantic_8.png","null","",""
"","","","","","image-button-response","67","372807","0.0-12.0-1.0-1.3","3131700C1BDF401D84290275315C9AD4","3131700C1BDF401D84290275315C9AD4","d0a1cc27-282b-4479-8d44-176c420b6604","5e631737-0fa4-44a6-b227-7ba1d7345015","{""num_scrambled_semantic"":""8"",""num_scrambled_causal"":""4"",""num_scrambled_schematic"":""4"",""participantId"":""3131700C1BDF401D84290275315C9AD4"",""assignmentId"":""d0a1cc27-282b-4479-8d44-176c420b6604"",""projectId"":""5e631737-0fa4-44a6-b227-7ba1d7345015""}","https://test12345.live/?num_scrambled_semantic=8&num_scrambled_causal=4&num_scrambled_schematic=4&participantId=3131700C1BDF401D84290275315C9AD4&assignmentId=d0a1cc27-282b-4479-8d44-176c420b6604&projectId=5e631737-0fa4-44a6-b227-7ba1d7345015","3131700C1BDF401D84290275315C9AD4-2025-05-27-18-49-13","","665","","images/semantic_sequence/redecorating_semantic/redecorating_semantic_8.png","0","",""
"","","","","","image-button-response","68","374608","0.0-12.0-1.0-2.3","3131700C1BDF401D84290275315C9AD4","3131700C1BDF401D84290275315C9AD4","d0a1cc27-282b-4479-8d44-176c420b6604","5e631737-0fa4-44a6-b227-7ba1d7345015","{""num_scrambled_semantic"":""8"",""num_scrambled_causal"":""4"",""num_scrambled_schematic"":""4"",""participantId"":""3131700C1BDF401D84290275315C9AD4"",""assignmentId"":""d0a1cc27-282b-4479-8d44-176c420b6604"",""projectId"":""5e631737-0fa4-44a6-b227-7ba1d7345015""}","https://test12345.live/?num_scrambled_semantic=8&num_scrambled_causal=4&num_scrambled_schematic=4&participantId=3131700C1BDF401D84290275315C9AD4&assignmentId=d0a1cc27-282b-4479-8d44-176c420b6604&projectId=5e631737-0fa4-44a6-b227-7ba1d7345015","3131700C1BDF401D84290275315C9AD4-2025-05-27-18-49-13","","null","","[]","null","",""
"","","","","","image-button-response","69","379122","0.0-12.0-1.0-0.4","3131700C1BDF401D84290275315C9AD4","3131700C1BDF401D84290275315C9AD4","d0a1cc27-282b-4479-8d44-176c420b6604","5e631737-0fa4-44a6-b227-7ba1d7345015","{""num_scrambled_semantic"":""8"",""num_scrambled_causal"":""4"",""num_scrambled_schematic"":""4"",""participantId"":""3131700C1BDF401D84290275315C9AD4"",""assignmentId"":""d0a1cc27-282b-4479-8d44-176c420b6604"",""projectId"":""5e631737-0fa4-44a6-b227-7ba1d7345015""}","https://test12345.live/?num_scrambled_semantic=8&num_scrambled_causal=4&num_scrambled_schematic=4&participantId=3131700C1BDF401D84290275315C9AD4&assignmentId=d0a1cc27-282b-4479-8d44-176c420b6604&projectId=5e631737-0fa4-44a6-b227-7ba1d7345015","3131700C1BDF401D84290275315C9AD4-2025-05-27-18-49-13","","null","","images/semantic_sequence/redecorating_semantic/redecorating_semantic_6.png","null","",""
"","","","","","image-button-response","70","379893","0.0-12.0-1.0-1.4","3131700C1BDF401D84290275315C9AD4","3131700C1BDF401D84290275315C9AD4","d0a1cc27-282b-4479-8d44-176c420b6604","5e631737-0fa4-44a6-b227-7ba1d7345015","{""num_scrambled_semantic"":""8"",""num_scrambled_causal"":""4"",""num_scrambled_schematic"":""4"",""participantId"":""3131700C1BDF401D84290275315C9AD4"",""assignmentId"":""d0a1cc27-282b-4479-8d44-176c420b6604"",""projectId"":""5e631737-0fa4-44a6-b227-7ba1d7345015""}","https://test12345.live/?num_scrambled_semantic=8&num_scrambled_causal=4&num_scrambled_schematic=4&participantId=3131700C1BDF401D84290275315C9AD4&assignmentId=d0a1cc27-282b-4479-8d44-176c420b6604&projectId=5e631737-0fa4-44a6-b227-7ba1d7345015","3131700C1BDF401D84290275315C9AD4-2025-05-27-18-49-13","","769","","images/semantic_sequence/redecorating_semantic/redecorating_semantic_6.png","0","",""
"","","","","","image-button-response","71","381708","0.0-12.0-1.0-2.4","3131700C1BDF401D84290275315C9AD4","3131700C1BDF401D84290275315C9AD4","d0a1cc27-282b-4479-8d44-176c420b6604","5e631737-0fa4-44a6-b227-7ba1d7345015","{""num_scrambled_semantic"":""8"",""num_scrambled_causal"":""4"",""num_scrambled_schematic"":""4"",""participantId"":""3131700C1BDF401D84290275315C9AD4"",""assignmentId"":""d0a1cc27-282b-4479-8d44-176c420b6604"",""projectId"":""5e631737-0fa4-44a6-b227-7ba1d7345015""}","https://test12345.live/?num_scrambled_semantic=8&num_scrambled_causal=4&num_scrambled_schematic=4&participantId=3131700C1BDF401D84290275315C9AD4&assignmentId=d0a1cc27-282b-4479-8d44-176c420b6604&projectId=5e631737-0fa4-44a6-b227-7ba1d7345015","3131700C1BDF401D84290275315C9AD4-2025-05-27-18-49-13","","null","","[]","null","",""
"","","","","","image-button-response","72","386215","0.0-12.0-1.0-0.5","3131700C1BDF401D84290275315C9AD4","3131700C1BDF401D84290275315C9AD4","d0a1cc27-282b-4479-8d44-176c420b6604","5e631737-0fa4-44a6-b227-7ba1d7345015","{""num_scrambled_semantic"":""8"",""num_scrambled_causal"":""4"",""num_scrambled_schematic"":""4"",""participantId"":""3131700C1BDF401D84290275315C9AD4"",""assignmentId"":""d0a1cc27-282b-4479-8d44-176c420b6604"",""projectId"":""5e631737-0fa4-44a6-b227-7ba1d7345015""}","https://test12345.live/?num_scrambled_semantic=8&num_scrambled_causal=4&num_scrambled_schematic=4&participantId=3131700C1BDF401D84290275315C9AD4&assignmentId=d0a1cc27-282b-4479-8d44-176c420b6604&projectId=5e631737-0fa4-44a6-b227-7ba1d7345015","3131700C1BDF401D84290275315C9AD4-2025-05-27-18-49-13","","null","","images/semantic_sequence/redecorating_semantic/redecorating_semantic_5.png","null","",""
"","","","","","image-button-response","73","386879","0.0-12.0-1.0-1.5","3131700C1BDF401D84290275315C9AD4","3131700C1BDF401D84290275315C9AD4","d0a1cc27-282b-4479-8d44-176c420b6604","5e631737-0fa4-44a6-b227-7ba1d7345015","{""num_scrambled_semantic"":""8"",""num_scrambled_causal"":""4"",""num_scrambled_schematic"":""4"",""participantId"":""3131700C1BDF401D84290275315C9AD4"",""assignmentId"":""d0a1cc27-282b-4479-8d44-176c420b6604"",""projectId"":""5e631737-0fa4-44a6-b227-7ba1d7345015""}","https://test12345.live/?num_scrambled_semantic=8&num_scrambled_causal=4&num_scrambled_schematic=4&participantId=3131700C1BDF401D84290275315C9AD4&assignmentId=d0a1cc27-282b-4479-8d44-176c420b6604&projectId=5e631737-0fa4-44a6-b227-7ba1d7345015","3131700C1BDF401D84290275315C9AD4-2025-05-27-18-49-13","","663","","images/semantic_sequence/redecorating_semantic/redecorating_semantic_5.png","0","",""
"","","","","","image-button-response","74","388684","0.0-12.0-1.0-2.5","3131700C1BDF401D84290275315C9AD4","3131700C1BDF401D84290275315C9AD4","d0a1cc27-282b-4479-8d44-176c420b6604","5e631737-0fa4-44a6-b227-7ba1d7345015","{""num_scrambled_semantic"":""8"",""num_scrambled_causal"":""4"",""num_scrambled_schematic"":""4"",""participantId"":""3131700C1BDF401D84290275315C9AD4"",""assignmentId"":""d0a1cc27-282b-4479-8d44-176c420b6604"",""projectId"":""5e631737-0fa4-44a6-b227-7ba1d7345015""}","https://test12345.live/?num_scrambled_semantic=8&num_scrambled_causal=4&num_scrambled_schematic=4&participantId=3131700C1BDF401D84290275315C9AD4&assignmentId=d0a1cc27-282b-4479-8d44-176c420b6604&projectId=5e631737-0fa4-44a6-b227-7ba1d7345015","3131700C1BDF401D84290275315C9AD4-2025-05-27-18-49-13","","null","","[]","null","",""
"","","","","","image-button-response","75","393189","0.0-12.0-1.0-0.6","3131700C1BDF401D84290275315C9AD4","3131700C1BDF401D84290275315C9AD4","d0a1cc27-282b-4479-8d44-176c420b6604","5e631737-0fa4-44a6-b227-7ba1d7345015","{""num_scrambled_semantic"":""8"",""num_scrambled_causal"":""4"",""num_scrambled_schematic"":""4"",""participantId"":""3131700C1BDF401D84290275315C9AD4"",""assignmentId"":""d0a1cc27-282b-4479-8d44-176c420b6604"",""projectId"":""5e631737-0fa4-44a6-b227-7ba1d7345015""}","https://test12345.live/?num_scrambled_semantic=8&num_scrambled_causal=4&num_scrambled_schematic=4&participantId=3131700C1BDF401D84290275315C9AD4&assignmentId=d0a1cc27-282b-4479-8d44-176c420b6604&projectId=5e631737-0fa4-44a6-b227-7ba1d7345015","3131700C1BDF401D84290275315C9AD4-2025-05-27-18-49-13","","null","","images/semantic_sequence/redecorating_semantic/redecorating_semantic_4.png","null","",""
"","","","","","image-button-response","76","394201","0.0-12.0-1.0-1.6","3131700C1BDF401D84290275315C9AD4","3131700C1BDF401D84290275315C9AD4","d0a1cc27-282b-4479-8d44-176c420b6604","5e631737-0fa4-44a6-b227-7ba1d7345015","{""num_scrambled_semantic"":""8"",""num_scrambled_causal"":""4"",""num_scrambled_schematic"":""4"",""participantId"":""3131700C1BDF401D84290275315C9AD4"",""assignmentId"":""d0a1cc27-282b-4479-8d44-176c420b6604"",""projectId"":""5e631737-0fa4-44a6-b227-7ba1d7345015""}","https://test12345.live/?num_scrambled_semantic=8&num_scrambled_causal=4&num_scrambled_schematic=4&participantId=3131700C1BDF401D84290275315C9AD4&assignmentId=d0a1cc27-282b-4479-8d44-176c420b6604&projectId=5e631737-0fa4-44a6-b227-7ba1d7345015","3131700C1BDF401D84290275315C9AD4-2025-05-27-18-49-13","","1011","","images/semantic_sequence/redecorating_semantic/redecorating_semantic_4.png","0","",""
"","","","","","image-button-response","77","396008","0.0-12.0-1.0-2.6","3131700C1BDF401D84290275315C9AD4","3131700C1BDF401D84290275315C9AD4","d0a1cc27-282b-4479-8d44-176c420b6604","5e631737-0fa4-44a6-b227-7ba1d7345015","{""num_scrambled_semantic"":""8"",""num_scrambled_causal"":""4"",""num_scrambled_schematic"":""4"",""participantId"":""3131700C1BDF401D84290275315C9AD4"",""assignmentId"":""d0a1cc27-282b-4479-8d44-176c420b6604"",""projectId"":""5e631737-0fa4-44a6-b227-7ba1d7345015""}","https://test12345.live/?num_scrambled_semantic=8&num_scrambled_causal=4&num_scrambled_schematic=4&participantId=3131700C1BDF401D84290275315C9AD4&assignmentId=d0a1cc27-282b-4479-8d44-176c420b6604&projectId=5e631737-0fa4-44a6-b227-7ba1d7345015","3131700C1BDF401D84290275315C9AD4-2025-05-27-18-49-13","","null","","[]","null","",""
"","","","","","image-button-response","78","400523","0.0-12.0-1.0-0.7","3131700C1BDF401D84290275315C9AD4","3131700C1BDF401D84290275315C9AD4","d0a1cc27-282b-4479-8d44-176c420b6604","5e631737-0fa4-44a6-b227-7ba1d7345015","{""num_scrambled_semantic"":""8"",""num_scrambled_causal"":""4"",""num_scrambled_schematic"":""4"",""participantId"":""3131700C1BDF401D84290275315C9AD4"",""assignmentId"":""d0a1cc27-282b-4479-8d44-176c420b6604"",""projectId"":""5e631737-0fa4-44a6-b227-7ba1d7345015""}","https://test12345.live/?num_scrambled_semantic=8&num_scrambled_causal=4&num_scrambled_schematic=4&participantId=3131700C1BDF401D84290275315C9AD4&assignmentId=d0a1cc27-282b-4479-8d44-176c420b6604&projectId=5e631737-0fa4-44a6-b227-7ba1d7345015","3131700C1BDF401D84290275315C9AD4-2025-05-27-18-49-13","","null","","images/semantic_sequence/redecorating_semantic/redecorating_semantic_3.png","null","",""
"","","","","","image-button-response","79","401587","0.0-12.0-1.0-1.7","3131700C1BDF401D84290275315C9AD4","3131700C1BDF401D84290275315C9AD4","d0a1cc27-282b-4479-8d44-176c420b6604","5e631737-0fa4-44a6-b227-7ba1d7345015","{""num_scrambled_semantic"":""8"",""num_scrambled_causal"":""4"",""num_scrambled_schematic"":""4"",""participantId"":""3131700C1BDF401D84290275315C9AD4"",""assignmentId"":""d0a1cc27-282b-4479-8d44-176c420b6604"",""projectId"":""5e631737-0fa4-44a6-b227-7ba1d7345015""}","https://test12345.live/?num_scrambled_semantic=8&num_scrambled_causal=4&num_scrambled_schematic=4&participantId=3131700C1BDF401D84290275315C9AD4&assignmentId=d0a1cc27-282b-4479-8d44-176c420b6604&projectId=5e631737-0fa4-44a6-b227-7ba1d7345015","3131700C1BDF401D84290275315C9AD4-2025-05-27-18-49-13","","1063","","images/semantic_sequence/redecorating_semantic/redecorating_semantic_3.png","0","",""
"","","","","","image-button-response","80","403389","0.0-12.0-1.0-2.7","3131700C1BDF401D84290275315C9AD4","3131700C1BDF401D84290275315C9AD4","d0a1cc27-282b-4479-8d44-176c420b6604","5e631737-0fa4-44a6-b227-7ba1d7345015","{""num_scrambled_semantic"":""8"",""num_scrambled_causal"":""4"",""num_scrambled_schematic"":""4"",""participantId"":""3131700C1BDF401D84290275315C9AD4"",""assignmentId"":""d0a1cc27-282b-4479-8d44-176c420b6604"",""projectId"":""5e631737-0fa4-44a6-b227-7ba1d7345015""}","https://test12345.live/?num_scrambled_semantic=8&num_scrambled_causal=4&num_scrambled_schematic=4&participantId=3131700C1BDF401D84290275315C9AD4&assignmentId=d0a1cc27-282b-4479-8d44-176c420b6604&projectId=5e631737-0fa4-44a6-b227-7ba1d7345015","3131700C1BDF401D84290275315C9AD4-2025-05-27-18-49-13","","null","","[]","null","",""
"","","","","","image-button-response","81","407892","0.0-12.0-1.0-0.8","3131700C1BDF401D84290275315C9AD4","3131700C1BDF401D84290275315C9AD4","d0a1cc27-282b-4479-8d44-176c420b6604","5e631737-0fa4-44a6-b227-7ba1d7345015","{""num_scrambled_semantic"":""8"",""num_scrambled_causal"":""4"",""num_scrambled_schematic"":""4"",""participantId"":""3131700C1BDF401D84290275315C9AD4"",""assignmentId"":""d0a1cc27-282b-4479-8d44-176c420b6604"",""projectId"":""5e631737-0fa4-44a6-b227-7ba1d7345015""}","https://test12345.live/?num_scrambled_semantic=8&num_scrambled_causal=4&num_scrambled_schematic=4&participantId=3131700C1BDF401D84290275315C9AD4&assignmentId=d0a1cc27-282b-4479-8d44-176c420b6604&projectId=5e631737-0fa4-44a6-b227-7ba1d7345015","3131700C1BDF401D84290275315C9AD4-2025-05-27-18-49-13","","null","","images/semantic_sequence/redecorating_semantic/redecorating_semantic_1.png","null","",""
"","","","","","image-button-response","82","408477","0.0-12.0-1.0-1.8","3131700C1BDF401D84290275315C9AD4","3131700C1BDF401D84290275315C9AD4","d0a1cc27-282b-4479-8d44-176c420b6604","5e631737-0fa4-44a6-b227-7ba1d7345015","{""num_scrambled_semantic"":""8"",""num_scrambled_causal"":""4"",""num_scrambled_schematic"":""4"",""participantId"":""3131700C1BDF401D84290275315C9AD4"",""assignmentId"":""d0a1cc27-282b-4479-8d44-176c420b6604"",""projectId"":""5e631737-0fa4-44a6-b227-7ba1d7345015""}","https://test12345.live/?num_scrambled_semantic=8&num_scrambled_causal=4&num_scrambled_schematic=4&participantId=3131700C1BDF401D84290275315C9AD4&assignmentId=d0a1cc27-282b-4479-8d44-176c420b6604&projectId=5e631737-0fa4-44a6-b227-7ba1d7345015","3131700C1BDF401D84290275315C9AD4-2025-05-27-18-49-13","","583","","images/semantic_sequence/redecorating_semantic/redecorating_semantic_1.png","0","",""
"","","","","","image-button-response","83","410279","0.0-12.0-1.0-2.8","3131700C1BDF401D84290275315C9AD4","3131700C1BDF401D84290275315C9AD4","d0a1cc27-282b-4479-8d44-176c420b6604","5e631737-0fa4-44a6-b227-7ba1d7345015","{""num_scrambled_semantic"":""8"",""num_scrambled_causal"":""4"",""num_scrambled_schematic"":""4"",""participantId"":""3131700C1BDF401D84290275315C9AD4"",""assignmentId"":""d0a1cc27-282b-4479-8d44-176c420b6604"",""projectId"":""5e631737-0fa4-44a6-b227-7ba1d7345015""}","https://test12345.live/?num_scrambled_semantic=8&num_scrambled_causal=4&num_scrambled_schematic=4&participantId=3131700C1BDF401D84290275315C9AD4&assignmentId=d0a1cc27-282b-4479-8d44-176c420b6604&projectId=5e631737-0fa4-44a6-b227-7ba1d7345015","3131700C1BDF401D84290275315C9AD4-2025-05-27-18-49-13","","null","","[]","null","",""
"","","","","","image-button-response","84","414781","0.0-12.0-1.0-0.9","3131700C1BDF401D84290275315C9AD4","3131700C1BDF401D84290275315C9AD4","d0a1cc27-282b-4479-8d44-176c420b6604","5e631737-0fa4-44a6-b227-7ba1d7345015","{""num_scrambled_semantic"":""8"",""num_scrambled_causal"":""4"",""num_scrambled_schematic"":""4"",""participantId"":""3131700C1BDF401D84290275315C9AD4"",""assignmentId"":""d0a1cc27-282b-4479-8d44-176c420b6604"",""projectId"":""5e631737-0fa4-44a6-b227-7ba1d7345015""}","https://test12345.live/?num_scrambled_semantic=8&num_scrambled_causal=4&num_scrambled_schematic=4&participantId=3131700C1BDF401D84290275315C9AD4&assignmentId=d0a1cc27-282b-4479-8d44-176c420b6604&projectId=5e631737-0fa4-44a6-b227-7ba1d7345015","3131700C1BDF401D84290275315C9AD4-2025-05-27-18-49-13","","null","","images/semantic_sequence/redecorating_semantic/redecorating_semantic_ten.png","null","",""
"","","","","","image-button-response","85","415353","0.0-12.0-1.0-1.9","3131700C1BDF401D84290275315C9AD4","3131700C1BDF401D84290275315C9AD4","d0a1cc27-282b-4479-8d44-176c420b6604","5e631737-0fa4-44a6-b227-7ba1d7345015","{""num_scrambled_semantic"":""8"",""num_scrambled_causal"":""4"",""num_scrambled_schematic"":""4"",""participantId"":""3131700C1BDF401D84290275315C9AD4"",""assignmentId"":""d0a1cc27-282b-4479-8d44-176c420b6604"",""projectId"":""5e631737-0fa4-44a6-b227-7ba1d7345015""}","https://test12345.live/?num_scrambled_semantic=8&num_scrambled_causal=4&num_scrambled_schematic=4&participantId=3131700C1BDF401D84290275315C9AD4&assignmentId=d0a1cc27-282b-4479-8d44-176c420b6604&projectId=5e631737-0fa4-44a6-b227-7ba1d7345015","3131700C1BDF401D84290275315C9AD4-2025-05-27-18-49-13","","571","","images/semantic_sequence/redecorating_semantic/redecorating_semantic_ten.png","0","",""
"","","","","","image-button-response","86","417157","0.0-12.0-1.0-2.9","3131700C1BDF401D84290275315C9AD4","3131700C1BDF401D84290275315C9AD4","d0a1cc27-282b-4479-8d44-176c420b6604","5e631737-0fa4-44a6-b227-7ba1d7345015","{""num_scrambled_semantic"":""8"",""num_scrambled_causal"":""4"",""num_scrambled_schematic"":""4"",""participantId"":""3131700C1BDF401D84290275315C9AD4"",""assignmentId"":""d0a1cc27-282b-4479-8d44-176c420b6604"",""projectId"":""5e631737-0fa4-44a6-b227-7ba1d7345015""}","https://test12345.live/?num_scrambled_semantic=8&num_scrambled_causal=4&num_scrambled_schematic=4&participantId=3131700C1BDF401D84290275315C9AD4&assignmentId=d0a1cc27-282b-4479-8d44-176c420b6604&projectId=5e631737-0fa4-44a6-b227-7ba1d7345015","3131700C1BDF401D84290275315C9AD4-2025-05-27-18-49-13","","null","","[]","null","",""
"","","","","","html-audio-response","87","451171","0.0-13.0","3131700C1BDF401D84290275315C9AD4","3131700C1BDF401D84290275315C9AD4","d0a1cc27-282b-4479-8d44-176c420b6604","5e631737-0fa4-44a6-b227-7ba1d7345015","{""num_scrambled_semantic"":""8"",""num_scrambled_causal"":""4"",""num_scrambled_schematic"":""4"",""participantId"":""3131700C1BDF401D84290275315C9AD4"",""assignmentId"":""d0a1cc27-282b-4479-8d44-176c420b6604"",""projectId"":""5e631737-0fa4-44a6-b227-7ba1d7345015""}","https://test12345.live/?num_scrambled_semantic=8&num_scrambled_causal=4&num_scrambled_schematic=4&participantId=3131700C1BDF401D84290275315C9AD4&assignmentId=d0a1cc27-282b-4479-8d44-176c420b6604&projectId=5e631737-0fa4-44a6-b227-7ba1d7345015","3131700C1BDF401D84290275315C9AD4-2025-05-27-18-49-13","","32425","","[""<span style=\""color: red; font-size: 24px\""> NOW RECORDING</span><p>Please say out loud all the images you saw, in the exact order you saw them. Try to recall as many images as you can, but remember: getting the order right is more important than the number of images you recall.</p>""]","","2","redecorating_semantic"
"","","","","","image-button-response","88","457188","0.0-14.0-0.0","3131700C1BDF401D84290275315C9AD4","3131700C1BDF401D84290275315C9AD4","d0a1cc27-282b-4479-8d44-176c420b6604","5e631737-0fa4-44a6-b227-7ba1d7345015","{""num_scrambled_semantic"":""8"",""num_scrambled_causal"":""4"",""num_scrambled_schematic"":""4"",""participantId"":""3131700C1BDF401D84290275315C9AD4"",""assignmentId"":""d0a1cc27-282b-4479-8d44-176c420b6604"",""projectId"":""5e631737-0fa4-44a6-b227-7ba1d7345015""}","https://test12345.live/?num_scrambled_semantic=8&num_scrambled_causal=4&num_scrambled_schematic=4&participantId=3131700C1BDF401D84290275315C9AD4&assignmentId=d0a1cc27-282b-4479-8d44-176c420b6604&projectId=5e631737-0fa4-44a6-b227-7ba1d7345015","3131700C1BDF401D84290275315C9AD4-2025-05-27-18-49-13","","null","","images/causal_sequence/museum_causal/museum_causal_0.png","null","",""
"","","","","","image-button-response","89","461696","0.0-14.0-1.0-0.0","3131700C1BDF401D84290275315C9AD4","3131700C1BDF401D84290275315C9AD4","d0a1cc27-282b-4479-8d44-176c420b6604","5e631737-0fa4-44a6-b227-7ba1d7345015","{""num_scrambled_semantic"":""8"",""num_scrambled_causal"":""4"",""num_scrambled_schematic"":""4"",""participantId"":""3131700C1BDF401D84290275315C9AD4"",""assignmentId"":""d0a1cc27-282b-4479-8d44-176c420b6604"",""projectId"":""5e631737-0fa4-44a6-b227-7ba1d7345015""}","https://test12345.live/?num_scrambled_semantic=8&num_scrambled_causal=4&num_scrambled_schematic=4&participantId=3131700C1BDF401D84290275315C9AD4&assignmentId=d0a1cc27-282b-4479-8d44-176c420b6604&projectId=5e631737-0fa4-44a6-b227-7ba1d7345015","3131700C1BDF401D84290275315C9AD4-2025-05-27-18-49-13","","null","","images/causal_sequence/museum_causal/museum_causal_8.png","null","",""
"","","","","","image-button-response","90","464213","0.0-14.0-1.0-1.0","3131700C1BDF401D84290275315C9AD4","3131700C1BDF401D84290275315C9AD4","d0a1cc27-282b-4479-8d44-176c420b6604","5e631737-0fa4-44a6-b227-7ba1d7345015","{""num_scrambled_semantic"":""8"",""num_scrambled_causal"":""4"",""num_scrambled_schematic"":""4"",""participantId"":""3131700C1BDF401D84290275315C9AD4"",""assignmentId"":""d0a1cc27-282b-4479-8d44-176c420b6604"",""projectId"":""5e631737-0fa4-44a6-b227-7ba1d7345015""}","https://test12345.live/?num_scrambled_semantic=8&num_scrambled_causal=4&num_scrambled_schematic=4&participantId=3131700C1BDF401D84290275315C9AD4&assignmentId=d0a1cc27-282b-4479-8d44-176c420b6604&projectId=5e631737-0fa4-44a6-b227-7ba1d7345015","3131700C1BDF401D84290275315C9AD4-2025-05-27-18-49-13","","2517","","images/causal_sequence/museum_causal/museum_causal_8.png","0","",""
"","","","","","image-button-response","91","466019","0.0-14.0-1.0-2.0","3131700C1BDF401D84290275315C9AD4","3131700C1BDF401D84290275315C9AD4","d0a1cc27-282b-4479-8d44-176c420b6604","5e631737-0fa4-44a6-b227-7ba1d7345015","{""num_scrambled_semantic"":""8"",""num_scrambled_causal"":""4"",""num_scrambled_schematic"":""4"",""participantId"":""3131700C1BDF401D84290275315C9AD4"",""assignmentId"":""d0a1cc27-282b-4479-8d44-176c420b6604"",""projectId"":""5e631737-0fa4-44a6-b227-7ba1d7345015""}","https://test12345.live/?num_scrambled_semantic=8&num_scrambled_causal=4&num_scrambled_schematic=4&participantId=3131700C1BDF401D84290275315C9AD4&assignmentId=d0a1cc27-282b-4479-8d44-176c420b6604&projectId=5e631737-0fa4-44a6-b227-7ba1d7345015","3131700C1BDF401D84290275315C9AD4-2025-05-27-18-49-13","","null","","[]","null","",""
"","","","","","image-button-response","92","470526","0.0-14.0-1.0-0.1","3131700C1BDF401D84290275315C9AD4","3131700C1BDF401D84290275315C9AD4","d0a1cc27-282b-4479-8d44-176c420b6604","5e631737-0fa4-44a6-b227-7ba1d7345015","{""num_scrambled_semantic"":""8"",""num_scrambled_causal"":""4"",""num_scrambled_schematic"":""4"",""participantId"":""3131700C1BDF401D84290275315C9AD4"",""assignmentId"":""d0a1cc27-282b-4479-8d44-176c420b6604"",""projectId"":""5e631737-0fa4-44a6-b227-7ba1d7345015""}","https://test12345.live/?num_scrambled_semantic=8&num_scrambled_causal=4&num_scrambled_schematic=4&participantId=3131700C1BDF401D84290275315C9AD4&assignmentId=d0a1cc27-282b-4479-8d44-176c420b6604&projectId=5e631737-0fa4-44a6-b227-7ba1d7345015","3131700C1BDF401D84290275315C9AD4-2025-05-27-18-49-13","","null","","images/causal_sequence/museum_causal/museum_causal_3.png","null","",""
"","","","","","image-button-response","93","471909","0.0-14.0-1.0-1.1","3131700C1BDF401D84290275315C9AD4","3131700C1BDF401D84290275315C9AD4","d0a1cc27-282b-4479-8d44-176c420b6604","5e631737-0fa4-44a6-b227-7ba1d7345015","{""num_scrambled_semantic"":""8"",""num_scrambled_causal"":""4"",""num_scrambled_schematic"":""4"",""participantId"":""3131700C1BDF401D84290275315C9AD4"",""assignmentId"":""d0a1cc27-282b-4479-8d44-176c420b6604"",""projectId"":""5e631737-0fa4-44a6-b227-7ba1d7345015""}","https://test12345.live/?num_scrambled_semantic=8&num_scrambled_causal=4&num_scrambled_schematic=4&participantId=3131700C1BDF401D84290275315C9AD4&assignmentId=d0a1cc27-282b-4479-8d44-176c420b6604&projectId=5e631737-0fa4-44a6-b227-7ba1d7345015","3131700C1BDF401D84290275315C9AD4-2025-05-27-18-49-13","","1382","","images/causal_sequence/museum_causal/museum_causal_3.png","0","",""
"","","","","","image-button-response","94","473721","0.0-14.0-1.0-2.1","3131700C1BDF401D84290275315C9AD4","3131700C1BDF401D84290275315C9AD4","d0a1cc27-282b-4479-8d44-176c420b6604","5e631737-0fa4-44a6-b227-7ba1d7345015","{""num_scrambled_semantic"":""8"",""num_scrambled_causal"":""4"",""num_scrambled_schematic"":""4"",""participantId"":""3131700C1BDF401D84290275315C9AD4"",""assignmentId"":""d0a1cc27-282b-4479-8d44-176c420b6604"",""projectId"":""5e631737-0fa4-44a6-b227-7ba1d7345015""}","https://test12345.live/?num_scrambled_semantic=8&num_scrambled_causal=4&num_scrambled_schematic=4&participantId=3131700C1BDF401D84290275315C9AD4&assignmentId=d0a1cc27-282b-4479-8d44-176c420b6604&projectId=5e631737-0fa4-44a6-b227-7ba1d7345015","3131700C1BDF401D84290275315C9AD4-2025-05-27-18-49-13","","null","","[]","null","",""
"","","","","","image-button-response","95","478234","0.0-14.0-1.0-0.2","3131700C1BDF401D84290275315C9AD4","3131700C1BDF401D84290275315C9AD4","d0a1cc27-282b-4479-8d44-176c420b6604","5e631737-0fa4-44a6-b227-7ba1d7345015","{""num_scrambled_semantic"":""8"",""num_scrambled_causal"":""4"",""num_scrambled_schematic"":""4"",""participantId"":""3131700C1BDF401D84290275315C9AD4"",""assignmentId"":""d0a1cc27-282b-4479-8d44-176c420b6604"",""projectId"":""5e631737-0fa4-44a6-b227-7ba1d7345015""}","https://test12345.live/?num_scrambled_semantic=8&num_scrambled_causal=4&num_scrambled_schematic=4&participantId=3131700C1BDF401D84290275315C9AD4&assignmentId=d0a1cc27-282b-4479-8d44-176c420b6604&projectId=5e631737-0fa4-44a6-b227-7ba1d7345015","3131700C1BDF401D84290275315C9AD4-2025-05-27-18-49-13","","null","","images/causal_sequence/museum_causal/museum_causal_ten.png","null","",""
"","","","","","image-button-response","96","479208","0.0-14.0-1.0-1.2","3131700C1BDF401D84290275315C9AD4","3131700C1BDF401D84290275315C9AD4","d0a1cc27-282b-4479-8d44-176c420b6604","5e631737-0fa4-44a6-b227-7ba1d7345015","{""num_scrambled_semantic"":""8"",""num_scrambled_causal"":""4"",""num_scrambled_schematic"":""4"",""participantId"":""3131700C1BDF401D84290275315C9AD4"",""assignmentId"":""d0a1cc27-282b-4479-8d44-176c420b6604"",""projectId"":""5e631737-0fa4-44a6-b227-7ba1d7345015""}","https://test12345.live/?num_scrambled_semantic=8&num_scrambled_causal=4&num_scrambled_schematic=4&participantId=3131700C1BDF401D84290275315C9AD4&assignmentId=d0a1cc27-282b-4479-8d44-176c420b6604&projectId=5e631737-0fa4-44a6-b227-7ba1d7345015","3131700C1BDF401D84290275315C9AD4-2025-05-27-18-49-13","","973","","images/causal_sequence/museum_causal/museum_causal_ten.png","0","",""
"","","","","","image-button-response","97","481019","0.0-14.0-1.0-2.2","3131700C1BDF401D84290275315C9AD4","3131700C1BDF401D84290275315C9AD4","d0a1cc27-282b-4479-8d44-176c420b6604","5e631737-0fa4-44a6-b227-7ba1d7345015","{""num_scrambled_semantic"":""8"",""num_scrambled_causal"":""4"",""num_scrambled_schematic"":""4"",""participantId"":""3131700C1BDF401D84290275315C9AD4"",""assignmentId"":""d0a1cc27-282b-4479-8d44-176c420b6604"",""projectId"":""5e631737-0fa4-44a6-b227-7ba1d7345015""}","https://test12345.live/?num_scrambled_semantic=8&num_scrambled_causal=4&num_scrambled_schematic=4&participantId=3131700C1BDF401D84290275315C9AD4&assignmentId=d0a1cc27-282b-4479-8d44-176c420b6604&projectId=5e631737-0fa4-44a6-b227-7ba1d7345015","3131700C1BDF401D84290275315C9AD4-2025-05-27-18-49-13","","null","","[]","null","",""
"","","","","","image-button-response","98","485535","0.0-14.0-1.0-0.3","3131700C1BDF401D84290275315C9AD4","3131700C1BDF401D84290275315C9AD4","d0a1cc27-282b-4479-8d44-176c420b6604","5e631737-0fa4-44a6-b227-7ba1d7345015","{""num_scrambled_semantic"":""8"",""num_scrambled_causal"":""4"",""num_scrambled_schematic"":""4"",""participantId"":""3131700C1BDF401D84290275315C9AD4"",""assignmentId"":""d0a1cc27-282b-4479-8d44-176c420b6604"",""projectId"":""5e631737-0fa4-44a6-b227-7ba1d7345015""}","https://test12345.live/?num_scrambled_semantic=8&num_scrambled_causal=4&num_scrambled_schematic=4&participantId=3131700C1BDF401D84290275315C9AD4&assignmentId=d0a1cc27-282b-4479-8d44-176c420b6604&projectId=5e631737-0fa4-44a6-b227-7ba1d7345015","3131700C1BDF401D84290275315C9AD4-2025-05-27-18-49-13","","null","","images/causal_sequence/museum_causal/museum_causal_2.png","null","",""
"","","","","","image-button-response","99","487811","0.0-14.0-1.0-1.3","3131700C1BDF401D84290275315C9AD4","3131700C1BDF401D84290275315C9AD4","d0a1cc27-282b-4479-8d44-176c420b6604","5e631737-0fa4-44a6-b227-7ba1d7345015","{""num_scrambled_semantic"":""8"",""num_scrambled_causal"":""4"",""num_scrambled_schematic"":""4"",""participantId"":""3131700C1BDF401D84290275315C9AD4"",""assignmentId"":""d0a1cc27-282b-4479-8d44-176c420b6604"",""projectId"":""5e631737-0fa4-44a6-b227-7ba1d7345015""}","https://test12345.live/?num_scrambled_semantic=8&num_scrambled_causal=4&num_scrambled_schematic=4&participantId=3131700C1BDF401D84290275315C9AD4&assignmentId=d0a1cc27-282b-4479-8d44-176c420b6604&projectId=5e631737-0fa4-44a6-b227-7ba1d7345015","3131700C1BDF401D84290275315C9AD4-2025-05-27-18-49-13","","2275","","images/causal_sequence/museum_causal/museum_causal_2.png","1","",""
"","","","","","image-button-response","100","489624","0.0-14.0-1.0-2.3","3131700C1BDF401D84290275315C9AD4","3131700C1BDF401D84290275315C9AD4","d0a1cc27-282b-4479-8d44-176c420b6604","5e631737-0fa4-44a6-b227-7ba1d7345015","{""num_scrambled_semantic"":""8"",""num_scrambled_causal"":""4"",""num_scrambled_schematic"":""4"",""participantId"":""3131700C1BDF401D84290275315C9AD4"",""assignmentId"":""d0a1cc27-282b-4479-8d44-176c420b6604"",""projectId"":""5e631737-0fa4-44a6-b227-7ba1d7345015""}","https://test12345.live/?num_scrambled_semantic=8&num_scrambled_causal=4&num_scrambled_schematic=4&participantId=3131700C1BDF401D84290275315C9AD4&assignmentId=d0a1cc27-282b-4479-8d44-176c420b6604&projectId=5e631737-0fa4-44a6-b227-7ba1d7345015","3131700C1BDF401D84290275315C9AD4-2025-05-27-18-49-13","","null","","[]","null","",""
"","","","","","image-button-response","101","494139","0.0-14.0-1.0-0.4","3131700C1BDF401D84290275315C9AD4","3131700C1BDF401D84290275315C9AD4","d0a1cc27-282b-4479-8d44-176c420b6604","5e631737-0fa4-44a6-b227-7ba1d7345015","{""num_scrambled_semantic"":""8"",""num_scrambled_causal"":""4"",""num_scrambled_schematic"":""4"",""participantId"":""3131700C1BDF401D84290275315C9AD4"",""assignmentId"":""d0a1cc27-282b-4479-8d44-176c420b6604"",""projectId"":""5e631737-0fa4-44a6-b227-7ba1d7345015""}","https://test12345.live/?num_scrambled_semantic=8&num_scrambled_causal=4&num_scrambled_schematic=4&participantId=3131700C1BDF401D84290275315C9AD4&assignmentId=d0a1cc27-282b-4479-8d44-176c420b6604&projectId=5e631737-0fa4-44a6-b227-7ba1d7345015","3131700C1BDF401D84290275315C9AD4-2025-05-27-18-49-13","","null","","images/causal_sequence/museum_causal/museum_causal_4.png","null","",""
"","","","","","image-button-response","102","495221","0.0-14.0-1.0-1.4","3131700C1BDF401D84290275315C9AD4","3131700C1BDF401D84290275315C9AD4","d0a1cc27-282b-4479-8d44-176c420b6604","5e631737-0fa4-44a6-b227-7ba1d7345015","{""num_scrambled_semantic"":""8"",""num_scrambled_causal"":""4"",""num_scrambled_schematic"":""4"",""participantId"":""3131700C1BDF401D84290275315C9AD4"",""assignmentId"":""d0a1cc27-282b-4479-8d44-176c420b6604"",""projectId"":""5e631737-0fa4-44a6-b227-7ba1d7345015""}","https://test12345.live/?num_scrambled_semantic=8&num_scrambled_causal=4&num_scrambled_schematic=4&participantId=3131700C1BDF401D84290275315C9AD4&assignmentId=d0a1cc27-282b-4479-8d44-176c420b6604&projectId=5e631737-0fa4-44a6-b227-7ba1d7345015","3131700C1BDF401D84290275315C9AD4-2025-05-27-18-49-13","","1080","","images/causal_sequence/museum_causal/museum_causal_4.png","1","",""
"","","","","","image-button-response","103","497031","0.0-14.0-1.0-2.4","3131700C1BDF401D84290275315C9AD4","3131700C1BDF401D84290275315C9AD4","d0a1cc27-282b-4479-8d44-176c420b6604","5e631737-0fa4-44a6-b227-7ba1d7345015","{""num_scrambled_semantic"":""8"",""num_scrambled_causal"":""4"",""num_scrambled_schematic"":""4"",""participantId"":""3131700C1BDF401D84290275315C9AD4"",""assignmentId"":""d0a1cc27-282b-4479-8d44-176c420b6604"",""projectId"":""5e631737-0fa4-44a6-b227-7ba1d7345015""}","https://test12345.live/?num_scrambled_semantic=8&num_scrambled_causal=4&num_scrambled_schematic=4&participantId=3131700C1BDF401D84290275315C9AD4&assignmentId=d0a1cc27-282b-4479-8d44-176c420b6604&projectId=5e631737-0fa4-44a6-b227-7ba1d7345015","3131700C1BDF401D84290275315C9AD4-2025-05-27-18-49-13","","null","","[]","null","",""
"","","","","","image-button-response","104","501537","0.0-14.0-1.0-0.5","3131700C1BDF401D84290275315C9AD4","3131700C1BDF401D84290275315C9AD4","d0a1cc27-282b-4479-8d44-176c420b6604","5e631737-0fa4-44a6-b227-7ba1d7345015","{""num_scrambled_semantic"":""8"",""num_scrambled_causal"":""4"",""num_scrambled_schematic"":""4"",""participantId"":""3131700C1BDF401D84290275315C9AD4"",""assignmentId"":""d0a1cc27-282b-4479-8d44-176c420b6604"",""projectId"":""5e631737-0fa4-44a6-b227-7ba1d7345015""}","https://test12345.live/?num_scrambled_semantic=8&num_scrambled_causal=4&num_scrambled_schematic=4&participantId=3131700C1BDF401D84290275315C9AD4&assignmentId=d0a1cc27-282b-4479-8d44-176c420b6604&projectId=5e631737-0fa4-44a6-b227-7ba1d7345015","3131700C1BDF401D84290275315C9AD4-2025-05-27-18-49-13","","null","","images/causal_sequence/museum_causal/museum_causal_6.png","null","",""
"","","","","","image-button-response","105","502861","0.0-14.0-1.0-1.5","3131700C1BDF401D84290275315C9AD4","3131700C1BDF401D84290275315C9AD4","d0a1cc27-282b-4479-8d44-176c420b6604","5e631737-0fa4-44a6-b227-7ba1d7345015","{""num_scrambled_semantic"":""8"",""num_scrambled_causal"":""4"",""num_scrambled_schematic"":""4"",""participantId"":""3131700C1BDF401D84290275315C9AD4"",""assignmentId"":""d0a1cc27-282b-4479-8d44-176c420b6604"",""projectId"":""5e631737-0fa4-44a6-b227-7ba1d7345015""}","https://test12345.live/?num_scrambled_semantic=8&num_scrambled_causal=4&num_scrambled_schematic=4&participantId=3131700C1BDF401D84290275315C9AD4&assignmentId=d0a1cc27-282b-4479-8d44-176c420b6604&projectId=5e631737-0fa4-44a6-b227-7ba1d7345015","3131700C1BDF401D84290275315C9AD4-2025-05-27-18-49-13","","1323","","images/causal_sequence/museum_causal/museum_causal_6.png","0","",""
"","","","","","image-button-response","106","504662","0.0-14.0-1.0-2.5","3131700C1BDF401D84290275315C9AD4","3131700C1BDF401D84290275315C9AD4","d0a1cc27-282b-4479-8d44-176c420b6604","5e631737-0fa4-44a6-b227-7ba1d7345015","{""num_scrambled_semantic"":""8"",""num_scrambled_causal"":""4"",""num_scrambled_schematic"":""4"",""participantId"":""3131700C1BDF401D84290275315C9AD4"",""assignmentId"":""d0a1cc27-282b-4479-8d44-176c420b6604"",""projectId"":""5e631737-0fa4-44a6-b227-7ba1d7345015""}","https://test12345.live/?num_scrambled_semantic=8&num_scrambled_causal=4&num_scrambled_schematic=4&participantId=3131700C1BDF401D84290275315C9AD4&assignmentId=d0a1cc27-282b-4479-8d44-176c420b6604&projectId=5e631737-0fa4-44a6-b227-7ba1d7345015","3131700C1BDF401D84290275315C9AD4-2025-05-27-18-49-13","","null","","[]","null","",""
"","","","","","image-button-response","107","509168","0.0-14.0-1.0-0.6","3131700C1BDF401D84290275315C9AD4","3131700C1BDF401D84290275315C9AD4","d0a1cc27-282b-4479-8d44-176c420b6604","5e631737-0fa4-44a6-b227-7ba1d7345015","{""num_scrambled_semantic"":""8"",""num_scrambled_causal"":""4"",""num_scrambled_schematic"":""4"",""participantId"":""3131700C1BDF401D84290275315C9AD4"",""assignmentId"":""d0a1cc27-282b-4479-8d44-176c420b6604"",""projectId"":""5e631737-0fa4-44a6-b227-7ba1d7345015""}","https://test12345.live/?num_scrambled_semantic=8&num_scrambled_causal=4&num_scrambled_schematic=4&participantId=3131700C1BDF401D84290275315C9AD4&assignmentId=d0a1cc27-282b-4479-8d44-176c420b6604&projectId=5e631737-0fa4-44a6-b227-7ba1d7345015","3131700C1BDF401D84290275315C9AD4-2025-05-27-18-49-13","","null","","images/causal_sequence/museum_causal/museum_causal_9.png","null","",""
"","","","","","image-button-response","108","509861","0.0-14.0-1.0-1.6","3131700C1BDF401D84290275315C9AD4","3131700C1BDF401D84290275315C9AD4","d0a1cc27-282b-4479-8d44-176c420b6604","5e631737-0fa4-44a6-b227-7ba1d7345015","{""num_scrambled_semantic"":""8"",""num_scrambled_causal"":""4"",""num_scrambled_schematic"":""4"",""participantId"":""3131700C1BDF401D84290275315C9AD4"",""assignmentId"":""d0a1cc27-282b-4479-8d44-176c420b6604"",""projectId"":""5e631737-0fa4-44a6-b227-7ba1d7345015""}","https://test12345.live/?num_scrambled_semantic=8&num_scrambled_causal=4&num_scrambled_schematic=4&participantId=3131700C1BDF401D84290275315C9AD4&assignmentId=d0a1cc27-282b-4479-8d44-176c420b6604&projectId=5e631737-0fa4-44a6-b227-7ba1d7345015","3131700C1BDF401D84290275315C9AD4-2025-05-27-18-49-13","","691","","images/causal_sequence/museum_causal/museum_causal_9.png","1","",""
"","","","","","image-button-response","109","511667","0.0-14.0-1.0-2.6","3131700C1BDF401D84290275315C9AD4","3131700C1BDF401D84290275315C9AD4","d0a1cc27-282b-4479-8d44-176c420b6604","5e631737-0fa4-44a6-b227-7ba1d7345015","{""num_scrambled_semantic"":""8"",""num_scrambled_causal"":""4"",""num_scrambled_schematic"":""4"",""participantId"":""3131700C1BDF401D84290275315C9AD4"",""assignmentId"":""d0a1cc27-282b-4479-8d44-176c420b6604"",""projectId"":""5e631737-0fa4-44a6-b227-7ba1d7345015""}","https://test12345.live/?num_scrambled_semantic=8&num_scrambled_causal=4&num_scrambled_schematic=4&participantId=3131700C1BDF401D84290275315C9AD4&assignmentId=d0a1cc27-282b-4479-8d44-176c420b6604&projectId=5e631737-0fa4-44a6-b227-7ba1d7345015","3131700C1BDF401D84290275315C9AD4-2025-05-27-18-49-13","","null","","[]","null","",""
"","","","","","image-button-response","110","516181","0.0-14.0-1.0-0.7","3131700C1BDF401D84290275315C9AD4","3131700C1BDF401D84290275315C9AD4","d0a1cc27-282b-4479-8d44-176c420b6604","5e631737-0fa4-44a6-b227-7ba1d7345015","{""num_scrambled_semantic"":""8"",""num_scrambled_causal"":""4"",""num_scrambled_schematic"":""4"",""participantId"":""3131700C1BDF401D84290275315C9AD4"",""assignmentId"":""d0a1cc27-282b-4479-8d44-176c420b6604"",""projectId"":""5e631737-0fa4-44a6-b227-7ba1d7345015""}","https://test12345.live/?num_scrambled_semantic=8&num_scrambled_causal=4&num_scrambled_schematic=4&participantId=3131700C1BDF401D84290275315C9AD4&assignmentId=d0a1cc27-282b-4479-8d44-176c420b6604&projectId=5e631737-0fa4-44a6-b227-7ba1d7345015","3131700C1BDF401D84290275315C9AD4-2025-05-27-18-49-13","","null","","images/causal_sequence/museum_causal/museum_causal_5.png","null","",""
"","","","","","image-button-response","111","517787","0.0-14.0-1.0-1.7","3131700C1BDF401D84290275315C9AD4","3131700C1BDF401D84290275315C9AD4","d0a1cc27-282b-4479-8d44-176c420b6604","5e631737-0fa4-44a6-b227-7ba1d7345015","{""num_scrambled_semantic"":""8"",""num_scrambled_causal"":""4"",""num_scrambled_schematic"":""4"",""participantId"":""3131700C1BDF401D84290275315C9AD4"",""assignmentId"":""d0a1cc27-282b-4479-8d44-176c420b6604"",""projectId"":""5e631737-0fa4-44a6-b227-7ba1d7345015""}","https://test12345.live/?num_scrambled_semantic=8&num_scrambled_causal=4&num_scrambled_schematic=4&participantId=3131700C1BDF401D84290275315C9AD4&assignmentId=d0a1cc27-282b-4479-8d44-176c420b6604&projectId=5e631737-0fa4-44a6-b227-7ba1d7345015","3131700C1BDF401D84290275315C9AD4-2025-05-27-18-49-13","","1606","","images/causal_sequence/museum_causal/museum_causal_5.png","0","",""
"","","","","","image-button-response","112","519599","0.0-14.0-1.0-2.7","3131700C1BDF401D84290275315C9AD4","3131700C1BDF401D84290275315C9AD4","d0a1cc27-282b-4479-8d44-176c420b6604","5e631737-0fa4-44a6-b227-7ba1d7345015","{""num_scrambled_semantic"":""8"",""num_scrambled_causal"":""4"",""num_scrambled_schematic"":""4"",""participantId"":""3131700C1BDF401D84290275315C9AD4"",""assignmentId"":""d0a1cc27-282b-4479-8d44-176c420b6604"",""projectId"":""5e631737-0fa4-44a6-b227-7ba1d7345015""}","https://test12345.live/?num_scrambled_semantic=8&num_scrambled_causal=4&num_scrambled_schematic=4&participantId=3131700C1BDF401D84290275315C9AD4&assignmentId=d0a1cc27-282b-4479-8d44-176c420b6604&projectId=5e631737-0fa4-44a6-b227-7ba1d7345015","3131700C1BDF401D84290275315C9AD4-2025-05-27-18-49-13","","null","","[]","null","",""
"","","","","","image-button-response","113","524102","0.0-14.0-1.0-0.8","3131700C1BDF401D84290275315C9AD4","3131700C1BDF401D84290275315C9AD4","d0a1cc27-282b-4479-8d44-176c420b6604","5e631737-0fa4-44a6-b227-7ba1d7345015","{""num_scrambled_semantic"":""8"",""num_scrambled_causal"":""4"",""num_scrambled_schematic"":""4"",""participantId"":""3131700C1BDF401D84290275315C9AD4"",""assignmentId"":""d0a1cc27-282b-4479-8d44-176c420b6604"",""projectId"":""5e631737-0fa4-44a6-b227-7ba1d7345015""}","https://test12345.live/?num_scrambled_semantic=8&num_scrambled_causal=4&num_scrambled_schematic=4&participantId=3131700C1BDF401D84290275315C9AD4&assignmentId=d0a1cc27-282b-4479-8d44-176c420b6604&projectId=5e631737-0fa4-44a6-b227-7ba1d7345015","3131700C1BDF401D84290275315C9AD4-2025-05-27-18-49-13","","null","","images/causal_sequence/museum_causal/museum_causal_7.png","null","",""
"","","","","","image-button-response","114","524825","0.0-14.0-1.0-1.8","3131700C1BDF401D84290275315C9AD4","3131700C1BDF401D84290275315C9AD4","d0a1cc27-282b-4479-8d44-176c420b6604","5e631737-0fa4-44a6-b227-7ba1d7345015","{""num_scrambled_semantic"":""8"",""num_scrambled_causal"":""4"",""num_scrambled_schematic"":""4"",""participantId"":""3131700C1BDF401D84290275315C9AD4"",""assignmentId"":""d0a1cc27-282b-4479-8d44-176c420b6604"",""projectId"":""5e631737-0fa4-44a6-b227-7ba1d7345015""}","https://test12345.live/?num_scrambled_semantic=8&num_scrambled_causal=4&num_scrambled_schematic=4&participantId=3131700C1BDF401D84290275315C9AD4&assignmentId=d0a1cc27-282b-4479-8d44-176c420b6604&projectId=5e631737-0fa4-44a6-b227-7ba1d7345015","3131700C1BDF401D84290275315C9AD4-2025-05-27-18-49-13","","722","","images/causal_sequence/museum_causal/museum_causal_7.png","1","",""
