"success","timeout","failed_images","failed_audio","failed_video","trial_type","trial_index","time_elapsed","internal_node_id","subject","subject_id","study_id","session_id","urlvar","current_url","audio_id","view_history","rt","device_id","stimulus","response","estimated_stimulus_onset","seq_name"
"true","false","[]","[]","[]","preload","0","70008","0.0-0.0","322EA357F521434C8F534875C027C849","322EA357F521434C8F534875C027C849","0198ba0b-5619-760a-bc82-f31a8b20d17f","0198b9d0-29d4-7df3-8625-4b4515841beb","{""num_scrambled_semantic"":""8"",""num_scrambled_causal"":""4"",""num_scrambled_schematic"":""4"",""participantId"":""322EA357F521434C8F534875C027C849"",""assignmentId"":""0198ba0b-5619-760a-bc82-f31a8b20d17f"",""projectId"":""0198b9d0-29d4-7df3-8625-4b4515841beb""}","https://test12345.live/?num_scrambled_semantic=8&num_scrambled_causal=4&num_scrambled_schematic=4&participantId=322EA357F521434C8F534875C027C849&assignmentId=0198ba0b-5619-760a-bc82-f31a8b20d17f&projectId=0198b9d0-29d4-7df3-8625-4b4515841beb","322EA357F521434C8F534875C027C849-2025-08-17-22-35-31","","","","","","",""
"","","","","","instructions","1","82899","0.0-1.0","322EA357F521434C8F534875C027C849","322EA357F521434C8F534875C027C849","0198ba0b-5619-760a-bc82-f31a8b20d17f","0198b9d0-29d4-7df3-8625-4b4515841beb","{""num_scrambled_semantic"":""8"",""num_scrambled_causal"":""4"",""num_scrambled_schematic"":""4"",""participantId"":""322EA357F521434C8F534875C027C849"",""assignmentId"":""0198ba0b-5619-760a-bc82-f31a8b20d17f"",""projectId"":""0198b9d0-29d4-7df3-8625-4b4515841beb""}","https://test12345.live/?num_scrambled_semantic=8&num_scrambled_causal=4&num_scrambled_schematic=4&participantId=322EA357F521434C8F534875C027C849&assignmentId=0198ba0b-5619-760a-bc82-f31a8b20d17f&projectId=0198b9d0-29d4-7df3-8625-4b4515841beb","322EA357F521434C8F534875C027C849-2025-08-17-22-35-31","[{""page_index"":0,""viewing_time"":12888}]","12890","","","","",""
"","","","","","instructions","2","89078","0.0-2.0","322EA357F521434C8F534875C027C849","322EA357F521434C8F534875C027C849","0198ba0b-5619-760a-bc82-f31a8b20d17f","0198b9d0-29d4-7df3-8625-4b4515841beb","{""num_scrambled_semantic"":""8"",""num_scrambled_causal"":""4"",""num_scrambled_schematic"":""4"",""participantId"":""322EA357F521434C8F534875C027C849"",""assignmentId"":""0198ba0b-5619-760a-bc82-f31a8b20d17f"",""projectId"":""0198b9d0-29d4-7df3-8625-4b4515841beb""}","https://test12345.live/?num_scrambled_semantic=8&num_scrambled_causal=4&num_scrambled_schematic=4&participantId=322EA357F521434C8F534875C027C849&assignmentId=0198ba0b-5619-760a-bc82-f31a8b20d17f&projectId=0198b9d0-29d4-7df3-8625-4b4515841beb","322EA357F521434C8F534875C027C849-2025-08-17-22-35-31","[{""page_index"":0,""viewing_time"":6177}]","6177","","","","",""
"true","","","","","fullscreen","3","92180","0.0-3.0","322EA357F521434C8F534875C027C849","322EA357F521434C8F534875C027C849","0198ba0b-5619-760a-bc82-f31a8b20d17f","0198b9d0-29d4-7df3-8625-4b4515841beb","{""num_scrambled_semantic"":""8"",""num_scrambled_causal"":""4"",""num_scrambled_schematic"":""4"",""participantId"":""322EA357F521434C8F534875C027C849"",""assignmentId"":""0198ba0b-5619-760a-bc82-f31a8b20d17f"",""projectId"":""0198b9d0-29d4-7df3-8625-4b4515841beb""}","https://test12345.live/?num_scrambled_semantic=8&num_scrambled_causal=4&num_scrambled_schematic=4&participantId=322EA357F521434C8F534875C027C849&assignmentId=0198ba0b-5619-760a-bc82-f31a8b20d17f&projectId=0198b9d0-29d4-7df3-8625-4b4515841beb","322EA357F521434C8F534875C027C849-2025-08-17-22-35-31","","2094","","","","",""
"","","","","","initialize-microphone","4","100180","0.0-4.0-0.0","322EA357F521434C8F534875C027C849","322EA357F521434C8F534875C027C849","0198ba0b-5619-760a-bc82-f31a8b20d17f","0198b9d0-29d4-7df3-8625-4b4515841beb","{""num_scrambled_semantic"":""8"",""num_scrambled_causal"":""4"",""num_scrambled_schematic"":""4"",""participantId"":""322EA357F521434C8F534875C027C849"",""assignmentId"":""0198ba0b-5619-760a-bc82-f31a8b20d17f"",""projectId"":""0198b9d0-29d4-7df3-8625-4b4515841beb""}","https://test12345.live/?num_scrambled_semantic=8&num_scrambled_causal=4&num_scrambled_schematic=4&participantId=322EA357F521434C8F534875C027C849&assignmentId=0198ba0b-5619-760a-bc82-f31a8b20d17f&projectId=0198b9d0-29d4-7df3-8625-4b4515841beb","322EA357F521434C8F534875C027C849-2025-08-17-22-35-31","","","8c071ce93992d52632ad950cae1b39445d944af28db2c14f2d58f10a280f8037","","","",""
"","","","","","html-audio-response","5","106840","0.0-4.0-1.0","322EA357F521434C8F534875C027C849","322EA357F521434C8F534875C027C849","0198ba0b-5619-760a-bc82-f31a8b20d17f","0198b9d0-29d4-7df3-8625-4b4515841beb","{""num_scrambled_semantic"":""8"",""num_scrambled_causal"":""4"",""num_scrambled_schematic"":""4"",""participantId"":""322EA357F521434C8F534875C027C849"",""assignmentId"":""0198ba0b-5619-760a-bc82-f31a8b20d17f"",""projectId"":""0198b9d0-29d4-7df3-8625-4b4515841beb""}","https://test12345.live/?num_scrambled_semantic=8&num_scrambled_causal=4&num_scrambled_schematic=4&participantId=322EA357F521434C8F534875C027C849&assignmentId=0198ba0b-5619-760a-bc82-f31a8b20d17f&projectId=0198b9d0-29d4-7df3-8625-4b4515841beb","322EA357F521434C8F534875C027C849-2025-08-17-22-35-31","","2596","","<span style=""color: red; font-size: 24px""> NOW RECORDING</span>
        <p>Please test Microphone</p>","","7",""
"","","","","","html-button-response","6","108269","0.0-4.0-2.0","322EA357F521434C8F534875C027C849","322EA357F521434C8F534875C027C849","0198ba0b-5619-760a-bc82-f31a8b20d17f","0198b9d0-29d4-7df3-8625-4b4515841beb","{""num_scrambled_semantic"":""8"",""num_scrambled_causal"":""4"",""num_scrambled_schematic"":""4"",""participantId"":""322EA357F521434C8F534875C027C849"",""assignmentId"":""0198ba0b-5619-760a-bc82-f31a8b20d17f"",""projectId"":""0198b9d0-29d4-7df3-8625-4b4515841beb""}","https://test12345.live/?num_scrambled_semantic=8&num_scrambled_causal=4&num_scrambled_schematic=4&participantId=322EA357F521434C8F534875C027C849&assignmentId=0198ba0b-5619-760a-bc82-f31a8b20d17f&projectId=0198b9d0-29d4-7df3-8625-4b4515841beb","322EA357F521434C8F534875C027C849-2025-08-17-22-35-31","","1427","","<p style=""font-size:48px; color:red;"">Is Microphone OK?</p>","1","",""
"","","","","","instructions","7","110412","0.0-5.0","322EA357F521434C8F534875C027C849","322EA357F521434C8F534875C027C849","0198ba0b-5619-760a-bc82-f31a8b20d17f","0198b9d0-29d4-7df3-8625-4b4515841beb","{""num_scrambled_semantic"":""8"",""num_scrambled_causal"":""4"",""num_scrambled_schematic"":""4"",""participantId"":""322EA357F521434C8F534875C027C849"",""assignmentId"":""0198ba0b-5619-760a-bc82-f31a8b20d17f"",""projectId"":""0198b9d0-29d4-7df3-8625-4b4515841beb""}","https://test12345.live/?num_scrambled_semantic=8&num_scrambled_causal=4&num_scrambled_schematic=4&participantId=322EA357F521434C8F534875C027C849&assignmentId=0198ba0b-5619-760a-bc82-f31a8b20d17f&projectId=0198b9d0-29d4-7df3-8625-4b4515841beb","322EA357F521434C8F534875C027C849-2025-08-17-22-35-31","[{""page_index"":0,""viewing_time"":1163},{""page_index"":1,""viewing_time"":979}]","2142","","","","",""
"","","","","","image-button-response","8","116418","0.0-6.0-0.0","322EA357F521434C8F534875C027C849","322EA357F521434C8F534875C027C849","0198ba0b-5619-760a-bc82-f31a8b20d17f","0198b9d0-29d4-7df3-8625-4b4515841beb","{""num_scrambled_semantic"":""8"",""num_scrambled_causal"":""4"",""num_scrambled_schematic"":""4"",""participantId"":""322EA357F521434C8F534875C027C849"",""assignmentId"":""0198ba0b-5619-760a-bc82-f31a8b20d17f"",""projectId"":""0198b9d0-29d4-7df3-8625-4b4515841beb""}","https://test12345.live/?num_scrambled_semantic=8&num_scrambled_causal=4&num_scrambled_schematic=4&participantId=322EA357F521434C8F534875C027C849&assignmentId=0198ba0b-5619-760a-bc82-f31a8b20d17f&projectId=0198b9d0-29d4-7df3-8625-4b4515841beb","322EA357F521434C8F534875C027C849-2025-08-17-22-35-31","","null","","images/instructions/movie_0.png","null","",""
"","","","","","image-button-response","9","120921","0.0-6.0-1.0-0.0","322EA357F521434C8F534875C027C849","322EA357F521434C8F534875C027C849","0198ba0b-5619-760a-bc82-f31a8b20d17f","0198b9d0-29d4-7df3-8625-4b4515841beb","{""num_scrambled_semantic"":""8"",""num_scrambled_causal"":""4"",""num_scrambled_schematic"":""4"",""participantId"":""322EA357F521434C8F534875C027C849"",""assignmentId"":""0198ba0b-5619-760a-bc82-f31a8b20d17f"",""projectId"":""0198b9d0-29d4-7df3-8625-4b4515841beb""}","https://test12345.live/?num_scrambled_semantic=8&num_scrambled_causal=4&num_scrambled_schematic=4&participantId=322EA357F521434C8F534875C027C849&assignmentId=0198ba0b-5619-760a-bc82-f31a8b20d17f&projectId=0198b9d0-29d4-7df3-8625-4b4515841beb","322EA357F521434C8F534875C027C849-2025-08-17-22-35-31","","null","","images/instructions/movie_1.png","null","",""
"","","","","","image-button-response","10","123554","0.0-6.0-1.0-1.0","322EA357F521434C8F534875C027C849","322EA357F521434C8F534875C027C849","0198ba0b-5619-760a-bc82-f31a8b20d17f","0198b9d0-29d4-7df3-8625-4b4515841beb","{""num_scrambled_semantic"":""8"",""num_scrambled_causal"":""4"",""num_scrambled_schematic"":""4"",""participantId"":""322EA357F521434C8F534875C027C849"",""assignmentId"":""0198ba0b-5619-760a-bc82-f31a8b20d17f"",""projectId"":""0198b9d0-29d4-7df3-8625-4b4515841beb""}","https://test12345.live/?num_scrambled_semantic=8&num_scrambled_causal=4&num_scrambled_schematic=4&participantId=322EA357F521434C8F534875C027C849&assignmentId=0198ba0b-5619-760a-bc82-f31a8b20d17f&projectId=0198b9d0-29d4-7df3-8625-4b4515841beb","322EA357F521434C8F534875C027C849-2025-08-17-22-35-31","","2628","","images/instructions/movie_1.png","0","",""
"","","","","","image-button-response","11","128956","0.0-6.0-1.0-2.0","322EA357F521434C8F534875C027C849","322EA357F521434C8F534875C027C849","0198ba0b-5619-760a-bc82-f31a8b20d17f","0198b9d0-29d4-7df3-8625-4b4515841beb","{""num_scrambled_semantic"":""8"",""num_scrambled_causal"":""4"",""num_scrambled_schematic"":""4"",""participantId"":""322EA357F521434C8F534875C027C849"",""assignmentId"":""0198ba0b-5619-760a-bc82-f31a8b20d17f"",""projectId"":""0198b9d0-29d4-7df3-8625-4b4515841beb""}","https://test12345.live/?num_scrambled_semantic=8&num_scrambled_causal=4&num_scrambled_schematic=4&participantId=322EA357F521434C8F534875C027C849&assignmentId=0198ba0b-5619-760a-bc82-f31a8b20d17f&projectId=0198b9d0-29d4-7df3-8625-4b4515841beb","322EA357F521434C8F534875C027C849-2025-08-17-22-35-31","","null","","[]","null","",""
"","","","","","image-button-response","12","133462","0.0-6.0-1.0-0.1","322EA357F521434C8F534875C027C849","322EA357F521434C8F534875C027C849","0198ba0b-5619-760a-bc82-f31a8b20d17f","0198b9d0-29d4-7df3-8625-4b4515841beb","{""num_scrambled_semantic"":""8"",""num_scrambled_causal"":""4"",""num_scrambled_schematic"":""4"",""participantId"":""322EA357F521434C8F534875C027C849"",""assignmentId"":""0198ba0b-5619-760a-bc82-f31a8b20d17f"",""projectId"":""0198b9d0-29d4-7df3-8625-4b4515841beb""}","https://test12345.live/?num_scrambled_semantic=8&num_scrambled_causal=4&num_scrambled_schematic=4&participantId=322EA357F521434C8F534875C027C849&assignmentId=0198ba0b-5619-760a-bc82-f31a8b20d17f&projectId=0198b9d0-29d4-7df3-8625-4b4515841beb","322EA357F521434C8F534875C027C849-2025-08-17-22-35-31","","null","","images/instructions/movie_2.png","null","",""
"","","","","","image-button-response","13","137468","0.0-6.0-1.0-1.1","322EA357F521434C8F534875C027C849","322EA357F521434C8F534875C027C849","0198ba0b-5619-760a-bc82-f31a8b20d17f","0198b9d0-29d4-7df3-8625-4b4515841beb","{""num_scrambled_semantic"":""8"",""num_scrambled_causal"":""4"",""num_scrambled_schematic"":""4"",""participantId"":""322EA357F521434C8F534875C027C849"",""assignmentId"":""0198ba0b-5619-760a-bc82-f31a8b20d17f"",""projectId"":""0198b9d0-29d4-7df3-8625-4b4515841beb""}","https://test12345.live/?num_scrambled_semantic=8&num_scrambled_causal=4&num_scrambled_schematic=4&participantId=322EA357F521434C8F534875C027C849&assignmentId=0198ba0b-5619-760a-bc82-f31a8b20d17f&projectId=0198b9d0-29d4-7df3-8625-4b4515841beb","322EA357F521434C8F534875C027C849-2025-08-17-22-35-31","","null","","images/instructions/movie_2.png","null","",""
"","","","","","image-button-response","14","142871","0.0-6.0-1.0-2.1","322EA357F521434C8F534875C027C849","322EA357F521434C8F534875C027C849","0198ba0b-5619-760a-bc82-f31a8b20d17f","0198b9d0-29d4-7df3-8625-4b4515841beb","{""num_scrambled_semantic"":""8"",""num_scrambled_causal"":""4"",""num_scrambled_schematic"":""4"",""participantId"":""322EA357F521434C8F534875C027C849"",""assignmentId"":""0198ba0b-5619-760a-bc82-f31a8b20d17f"",""projectId"":""0198b9d0-29d4-7df3-8625-4b4515841beb""}","https://test12345.live/?num_scrambled_semantic=8&num_scrambled_causal=4&num_scrambled_schematic=4&participantId=322EA357F521434C8F534875C027C849&assignmentId=0198ba0b-5619-760a-bc82-f31a8b20d17f&projectId=0198b9d0-29d4-7df3-8625-4b4515841beb","322EA357F521434C8F534875C027C849-2025-08-17-22-35-31","","null","","[]","null","",""
"","","","","","image-button-response","15","147375","0.0-6.0-1.0-0.2","322EA357F521434C8F534875C027C849","322EA357F521434C8F534875C027C849","0198ba0b-5619-760a-bc82-f31a8b20d17f","0198b9d0-29d4-7df3-8625-4b4515841beb","{""num_scrambled_semantic"":""8"",""num_scrambled_causal"":""4"",""num_scrambled_schematic"":""4"",""participantId"":""322EA357F521434C8F534875C027C849"",""assignmentId"":""0198ba0b-5619-760a-bc82-f31a8b20d17f"",""projectId"":""0198b9d0-29d4-7df3-8625-4b4515841beb""}","https://test12345.live/?num_scrambled_semantic=8&num_scrambled_causal=4&num_scrambled_schematic=4&participantId=322EA357F521434C8F534875C027C849&assignmentId=0198ba0b-5619-760a-bc82-f31a8b20d17f&projectId=0198b9d0-29d4-7df3-8625-4b4515841beb","322EA357F521434C8F534875C027C849-2025-08-17-22-35-31","","null","","images/instructions/movie_3.png","null","",""
"","","","","","image-button-response","16","151383","0.0-6.0-1.0-1.2","322EA357F521434C8F534875C027C849","322EA357F521434C8F534875C027C849","0198ba0b-5619-760a-bc82-f31a8b20d17f","0198b9d0-29d4-7df3-8625-4b4515841beb","{""num_scrambled_semantic"":""8"",""num_scrambled_causal"":""4"",""num_scrambled_schematic"":""4"",""participantId"":""322EA357F521434C8F534875C027C849"",""assignmentId"":""0198ba0b-5619-760a-bc82-f31a8b20d17f"",""projectId"":""0198b9d0-29d4-7df3-8625-4b4515841beb""}","https://test12345.live/?num_scrambled_semantic=8&num_scrambled_causal=4&num_scrambled_schematic=4&participantId=322EA357F521434C8F534875C027C849&assignmentId=0198ba0b-5619-760a-bc82-f31a8b20d17f&projectId=0198b9d0-29d4-7df3-8625-4b4515841beb","322EA357F521434C8F534875C027C849-2025-08-17-22-35-31","","null","","images/instructions/movie_3.png","null","",""
"","","","","","image-button-response","17","156789","0.0-6.0-1.0-2.2","322EA357F521434C8F534875C027C849","322EA357F521434C8F534875C027C849","0198ba0b-5619-760a-bc82-f31a8b20d17f","0198b9d0-29d4-7df3-8625-4b4515841beb","{""num_scrambled_semantic"":""8"",""num_scrambled_causal"":""4"",""num_scrambled_schematic"":""4"",""participantId"":""322EA357F521434C8F534875C027C849"",""assignmentId"":""0198ba0b-5619-760a-bc82-f31a8b20d17f"",""projectId"":""0198b9d0-29d4-7df3-8625-4b4515841beb""}","https://test12345.live/?num_scrambled_semantic=8&num_scrambled_causal=4&num_scrambled_schematic=4&participantId=322EA357F521434C8F534875C027C849&assignmentId=0198ba0b-5619-760a-bc82-f31a8b20d17f&projectId=0198b9d0-29d4-7df3-8625-4b4515841beb","322EA357F521434C8F534875C027C849-2025-08-17-22-35-31","","null","","[]","null","",""
"","","","","","image-button-response","18","161293","0.0-6.0-1.0-0.3","322EA357F521434C8F534875C027C849","322EA357F521434C8F534875C027C849","0198ba0b-5619-760a-bc82-f31a8b20d17f","0198b9d0-29d4-7df3-8625-4b4515841beb","{""num_scrambled_semantic"":""8"",""num_scrambled_causal"":""4"",""num_scrambled_schematic"":""4"",""participantId"":""322EA357F521434C8F534875C027C849"",""assignmentId"":""0198ba0b-5619-760a-bc82-f31a8b20d17f"",""projectId"":""0198b9d0-29d4-7df3-8625-4b4515841beb""}","https://test12345.live/?num_scrambled_semantic=8&num_scrambled_causal=4&num_scrambled_schematic=4&participantId=322EA357F521434C8F534875C027C849&assignmentId=0198ba0b-5619-760a-bc82-f31a8b20d17f&projectId=0198b9d0-29d4-7df3-8625-4b4515841beb","322EA357F521434C8F534875C027C849-2025-08-17-22-35-31","","null","","images/instructions/movie_4.png","null","",""
"","","","","","image-button-response","19","165298","0.0-6.0-1.0-1.3","322EA357F521434C8F534875C027C849","322EA357F521434C8F534875C027C849","0198ba0b-5619-760a-bc82-f31a8b20d17f","0198b9d0-29d4-7df3-8625-4b4515841beb","{""num_scrambled_semantic"":""8"",""num_scrambled_causal"":""4"",""num_scrambled_schematic"":""4"",""participantId"":""322EA357F521434C8F534875C027C849"",""assignmentId"":""0198ba0b-5619-760a-bc82-f31a8b20d17f"",""projectId"":""0198b9d0-29d4-7df3-8625-4b4515841beb""}","https://test12345.live/?num_scrambled_semantic=8&num_scrambled_causal=4&num_scrambled_schematic=4&participantId=322EA357F521434C8F534875C027C849&assignmentId=0198ba0b-5619-760a-bc82-f31a8b20d17f&projectId=0198b9d0-29d4-7df3-8625-4b4515841beb","322EA357F521434C8F534875C027C849-2025-08-17-22-35-31","","null","","images/instructions/movie_4.png","null","",""
"","","","","","image-button-response","20","170701","0.0-6.0-1.0-2.3","322EA357F521434C8F534875C027C849","322EA357F521434C8F534875C027C849","0198ba0b-5619-760a-bc82-f31a8b20d17f","0198b9d0-29d4-7df3-8625-4b4515841beb","{""num_scrambled_semantic"":""8"",""num_scrambled_causal"":""4"",""num_scrambled_schematic"":""4"",""participantId"":""322EA357F521434C8F534875C027C849"",""assignmentId"":""0198ba0b-5619-760a-bc82-f31a8b20d17f"",""projectId"":""0198b9d0-29d4-7df3-8625-4b4515841beb""}","https://test12345.live/?num_scrambled_semantic=8&num_scrambled_causal=4&num_scrambled_schematic=4&participantId=322EA357F521434C8F534875C027C849&assignmentId=0198ba0b-5619-760a-bc82-f31a8b20d17f&projectId=0198b9d0-29d4-7df3-8625-4b4515841beb","322EA357F521434C8F534875C027C849-2025-08-17-22-35-31","","null","","[]","null","",""
"","","","","","instructions","21","172645","0.0-7.0","322EA357F521434C8F534875C027C849","322EA357F521434C8F534875C027C849","0198ba0b-5619-760a-bc82-f31a8b20d17f","0198b9d0-29d4-7df3-8625-4b4515841beb","{""num_scrambled_semantic"":""8"",""num_scrambled_causal"":""4"",""num_scrambled_schematic"":""4"",""participantId"":""322EA357F521434C8F534875C027C849"",""assignmentId"":""0198ba0b-5619-760a-bc82-f31a8b20d17f"",""projectId"":""0198b9d0-29d4-7df3-8625-4b4515841beb""}","https://test12345.live/?num_scrambled_semantic=8&num_scrambled_causal=4&num_scrambled_schematic=4&participantId=322EA357F521434C8F534875C027C849&assignmentId=0198ba0b-5619-760a-bc82-f31a8b20d17f&projectId=0198b9d0-29d4-7df3-8625-4b4515841beb","322EA357F521434C8F534875C027C849-2025-08-17-22-35-31","[{""page_index"":0,""viewing_time"":1155},{""page_index"":1,""viewing_time"":788}]","1944","","","","",""
"","","","","","html-audio-response","22","174703","0.0-8.0","322EA357F521434C8F534875C027C849","322EA357F521434C8F534875C027C849","0198ba0b-5619-760a-bc82-f31a8b20d17f","0198b9d0-29d4-7df3-8625-4b4515841beb","{""num_scrambled_semantic"":""8"",""num_scrambled_causal"":""4"",""num_scrambled_schematic"":""4"",""participantId"":""322EA357F521434C8F534875C027C849"",""assignmentId"":""0198ba0b-5619-760a-bc82-f31a8b20d17f"",""projectId"":""0198b9d0-29d4-7df3-8625-4b4515841beb""}","https://test12345.live/?num_scrambled_semantic=8&num_scrambled_causal=4&num_scrambled_schematic=4&participantId=322EA357F521434C8F534875C027C849&assignmentId=0198ba0b-5619-760a-bc82-f31a8b20d17f&projectId=0198b9d0-29d4-7df3-8625-4b4515841beb","322EA357F521434C8F534875C027C849-2025-08-17-22-35-31","","934","","[""<span style=\""color: red; font-size: 24px\""> NOW RECORDING</span><p>Please say out loud all the images you saw, as many as you can remember. The images can be said in any order.</p>""]","","8",""
"","","","","","instructions","23","175299","0.0-9.0","322EA357F521434C8F534875C027C849","322EA357F521434C8F534875C027C849","0198ba0b-5619-760a-bc82-f31a8b20d17f","0198b9d0-29d4-7df3-8625-4b4515841beb","{""num_scrambled_semantic"":""8"",""num_scrambled_causal"":""4"",""num_scrambled_schematic"":""4"",""participantId"":""322EA357F521434C8F534875C027C849"",""assignmentId"":""0198ba0b-5619-760a-bc82-f31a8b20d17f"",""projectId"":""0198b9d0-29d4-7df3-8625-4b4515841beb""}","https://test12345.live/?num_scrambled_semantic=8&num_scrambled_causal=4&num_scrambled_schematic=4&participantId=322EA357F521434C8F534875C027C849&assignmentId=0198ba0b-5619-760a-bc82-f31a8b20d17f&projectId=0198b9d0-29d4-7df3-8625-4b4515841beb","322EA357F521434C8F534875C027C849-2025-08-17-22-35-31","[{""page_index"":0,""viewing_time"":593}]","593","","","","",""
"","","","","","image-button-response","24","181302","0.0-10.0-0.0","322EA357F521434C8F534875C027C849","322EA357F521434C8F534875C027C849","0198ba0b-5619-760a-bc82-f31a8b20d17f","0198b9d0-29d4-7df3-8625-4b4515841beb","{""num_scrambled_semantic"":""8"",""num_scrambled_causal"":""4"",""num_scrambled_schematic"":""4"",""participantId"":""322EA357F521434C8F534875C027C849"",""assignmentId"":""0198ba0b-5619-760a-bc82-f31a8b20d17f"",""projectId"":""0198b9d0-29d4-7df3-8625-4b4515841beb""}","https://test12345.live/?num_scrambled_semantic=8&num_scrambled_causal=4&num_scrambled_schematic=4&participantId=322EA357F521434C8F534875C027C849&assignmentId=0198ba0b-5619-760a-bc82-f31a8b20d17f&projectId=0198b9d0-29d4-7df3-8625-4b4515841beb","322EA357F521434C8F534875C027C849-2025-08-17-22-35-31","","null","","images/semantic_sequence/physical_activity_semantic/physical_activity_semantic_0.png","null","",""
"","","","","","image-button-response","25","185806","0.0-10.0-1.0-0.0","322EA357F521434C8F534875C027C849","322EA357F521434C8F534875C027C849","0198ba0b-5619-760a-bc82-f31a8b20d17f","0198b9d0-29d4-7df3-8625-4b4515841beb","{""num_scrambled_semantic"":""8"",""num_scrambled_causal"":""4"",""num_scrambled_schematic"":""4"",""participantId"":""322EA357F521434C8F534875C027C849"",""assignmentId"":""0198ba0b-5619-760a-bc82-f31a8b20d17f"",""projectId"":""0198b9d0-29d4-7df3-8625-4b4515841beb""}","https://test12345.live/?num_scrambled_semantic=8&num_scrambled_causal=4&num_scrambled_schematic=4&participantId=322EA357F521434C8F534875C027C849&assignmentId=0198ba0b-5619-760a-bc82-f31a8b20d17f&projectId=0198b9d0-29d4-7df3-8625-4b4515841beb","322EA357F521434C8F534875C027C849-2025-08-17-22-35-31","","null","","images/semantic_sequence/physical_activity_semantic/physical_activity_semantic_4.png","null","",""
"","","","","","image-button-response","26","187275","0.0-10.0-1.0-1.0","322EA357F521434C8F534875C027C849","322EA357F521434C8F534875C027C849","0198ba0b-5619-760a-bc82-f31a8b20d17f","0198b9d0-29d4-7df3-8625-4b4515841beb","{""num_scrambled_semantic"":""8"",""num_scrambled_causal"":""4"",""num_scrambled_schematic"":""4"",""participantId"":""322EA357F521434C8F534875C027C849"",""assignmentId"":""0198ba0b-5619-760a-bc82-f31a8b20d17f"",""projectId"":""0198b9d0-29d4-7df3-8625-4b4515841beb""}","https://test12345.live/?num_scrambled_semantic=8&num_scrambled_causal=4&num_scrambled_schematic=4&participantId=322EA357F521434C8F534875C027C849&assignmentId=0198ba0b-5619-760a-bc82-f31a8b20d17f&projectId=0198b9d0-29d4-7df3-8625-4b4515841beb","322EA357F521434C8F534875C027C849-2025-08-17-22-35-31","","1467","","images/semantic_sequence/physical_activity_semantic/physical_activity_semantic_4.png","0","",""
"","","","","","image-button-response","27","192677","0.0-10.0-1.0-2.0","322EA357F521434C8F534875C027C849","322EA357F521434C8F534875C027C849","0198ba0b-5619-760a-bc82-f31a8b20d17f","0198b9d0-29d4-7df3-8625-4b4515841beb","{""num_scrambled_semantic"":""8"",""num_scrambled_causal"":""4"",""num_scrambled_schematic"":""4"",""participantId"":""322EA357F521434C8F534875C027C849"",""assignmentId"":""0198ba0b-5619-760a-bc82-f31a8b20d17f"",""projectId"":""0198b9d0-29d4-7df3-8625-4b4515841beb""}","https://test12345.live/?num_scrambled_semantic=8&num_scrambled_causal=4&num_scrambled_schematic=4&participantId=322EA357F521434C8F534875C027C849&assignmentId=0198ba0b-5619-760a-bc82-f31a8b20d17f&projectId=0198b9d0-29d4-7df3-8625-4b4515841beb","322EA357F521434C8F534875C027C849-2025-08-17-22-35-31","","null","","[]","null","",""
"","","","","","image-button-response","28","197181","0.0-10.0-1.0-0.1","322EA357F521434C8F534875C027C849","322EA357F521434C8F534875C027C849","0198ba0b-5619-760a-bc82-f31a8b20d17f","0198b9d0-29d4-7df3-8625-4b4515841beb","{""num_scrambled_semantic"":""8"",""num_scrambled_causal"":""4"",""num_scrambled_schematic"":""4"",""participantId"":""322EA357F521434C8F534875C027C849"",""assignmentId"":""0198ba0b-5619-760a-bc82-f31a8b20d17f"",""projectId"":""0198b9d0-29d4-7df3-8625-4b4515841beb""}","https://test12345.live/?num_scrambled_semantic=8&num_scrambled_causal=4&num_scrambled_schematic=4&participantId=322EA357F521434C8F534875C027C849&assignmentId=0198ba0b-5619-760a-bc82-f31a8b20d17f&projectId=0198b9d0-29d4-7df3-8625-4b4515841beb","322EA357F521434C8F534875C027C849-2025-08-17-22-35-31","","null","","images/semantic_sequence/physical_activity_semantic/physical_activity_semantic_1.png","null","",""
"","","","","","image-button-response","29","198517","0.0-10.0-1.0-1.1","322EA357F521434C8F534875C027C849","322EA357F521434C8F534875C027C849","0198ba0b-5619-760a-bc82-f31a8b20d17f","0198b9d0-29d4-7df3-8625-4b4515841beb","{""num_scrambled_semantic"":""8"",""num_scrambled_causal"":""4"",""num_scrambled_schematic"":""4"",""participantId"":""322EA357F521434C8F534875C027C849"",""assignmentId"":""0198ba0b-5619-760a-bc82-f31a8b20d17f"",""projectId"":""0198b9d0-29d4-7df3-8625-4b4515841beb""}","https://test12345.live/?num_scrambled_semantic=8&num_scrambled_causal=4&num_scrambled_schematic=4&participantId=322EA357F521434C8F534875C027C849&assignmentId=0198ba0b-5619-760a-bc82-f31a8b20d17f&projectId=0198b9d0-29d4-7df3-8625-4b4515841beb","322EA357F521434C8F534875C027C849-2025-08-17-22-35-31","","1333","","images/semantic_sequence/physical_activity_semantic/physical_activity_semantic_1.png","0","",""
"","","","","","image-button-response","30","203919","0.0-10.0-1.0-2.1","322EA357F521434C8F534875C027C849","322EA357F521434C8F534875C027C849","0198ba0b-5619-760a-bc82-f31a8b20d17f","0198b9d0-29d4-7df3-8625-4b4515841beb","{""num_scrambled_semantic"":""8"",""num_scrambled_causal"":""4"",""num_scrambled_schematic"":""4"",""participantId"":""322EA357F521434C8F534875C027C849"",""assignmentId"":""0198ba0b-5619-760a-bc82-f31a8b20d17f"",""projectId"":""0198b9d0-29d4-7df3-8625-4b4515841beb""}","https://test12345.live/?num_scrambled_semantic=8&num_scrambled_causal=4&num_scrambled_schematic=4&participantId=322EA357F521434C8F534875C027C849&assignmentId=0198ba0b-5619-760a-bc82-f31a8b20d17f&projectId=0198b9d0-29d4-7df3-8625-4b4515841beb","322EA357F521434C8F534875C027C849-2025-08-17-22-35-31","","null","","[]","null","",""
"","","","","","image-button-response","31","208425","0.0-10.0-1.0-0.2","322EA357F521434C8F534875C027C849","322EA357F521434C8F534875C027C849","0198ba0b-5619-760a-bc82-f31a8b20d17f","0198b9d0-29d4-7df3-8625-4b4515841beb","{""num_scrambled_semantic"":""8"",""num_scrambled_causal"":""4"",""num_scrambled_schematic"":""4"",""participantId"":""322EA357F521434C8F534875C027C849"",""assignmentId"":""0198ba0b-5619-760a-bc82-f31a8b20d17f"",""projectId"":""0198b9d0-29d4-7df3-8625-4b4515841beb""}","https://test12345.live/?num_scrambled_semantic=8&num_scrambled_causal=4&num_scrambled_schematic=4&participantId=322EA357F521434C8F534875C027C849&assignmentId=0198ba0b-5619-760a-bc82-f31a8b20d17f&projectId=0198b9d0-29d4-7df3-8625-4b4515841beb","322EA357F521434C8F534875C027C849-2025-08-17-22-35-31","","null","","images/semantic_sequence/physical_activity_semantic/physical_activity_semantic_8.png","null","",""
"","","","","","image-button-response","32","210438","0.0-10.0-1.0-1.2","322EA357F521434C8F534875C027C849","322EA357F521434C8F534875C027C849","0198ba0b-5619-760a-bc82-f31a8b20d17f","0198b9d0-29d4-7df3-8625-4b4515841beb","{""num_scrambled_semantic"":""8"",""num_scrambled_causal"":""4"",""num_scrambled_schematic"":""4"",""participantId"":""322EA357F521434C8F534875C027C849"",""assignmentId"":""0198ba0b-5619-760a-bc82-f31a8b20d17f"",""projectId"":""0198b9d0-29d4-7df3-8625-4b4515841beb""}","https://test12345.live/?num_scrambled_semantic=8&num_scrambled_causal=4&num_scrambled_schematic=4&participantId=322EA357F521434C8F534875C027C849&assignmentId=0198ba0b-5619-760a-bc82-f31a8b20d17f&projectId=0198b9d0-29d4-7df3-8625-4b4515841beb","322EA357F521434C8F534875C027C849-2025-08-17-22-35-31","","2009","","images/semantic_sequence/physical_activity_semantic/physical_activity_semantic_8.png","0","",""
"","","","","","image-button-response","33","215840","0.0-10.0-1.0-2.2","322EA357F521434C8F534875C027C849","322EA357F521434C8F534875C027C849","0198ba0b-5619-760a-bc82-f31a8b20d17f","0198b9d0-29d4-7df3-8625-4b4515841beb","{""num_scrambled_semantic"":""8"",""num_scrambled_causal"":""4"",""num_scrambled_schematic"":""4"",""participantId"":""322EA357F521434C8F534875C027C849"",""assignmentId"":""0198ba0b-5619-760a-bc82-f31a8b20d17f"",""projectId"":""0198b9d0-29d4-7df3-8625-4b4515841beb""}","https://test12345.live/?num_scrambled_semantic=8&num_scrambled_causal=4&num_scrambled_schematic=4&participantId=322EA357F521434C8F534875C027C849&assignmentId=0198ba0b-5619-760a-bc82-f31a8b20d17f&projectId=0198b9d0-29d4-7df3-8625-4b4515841beb","322EA357F521434C8F534875C027C849-2025-08-17-22-35-31","","null","","[]","null","",""
"","","","","","image-button-response","34","220345","0.0-10.0-1.0-0.3","322EA357F521434C8F534875C027C849","322EA357F521434C8F534875C027C849","0198ba0b-5619-760a-bc82-f31a8b20d17f","0198b9d0-29d4-7df3-8625-4b4515841beb","{""num_scrambled_semantic"":""8"",""num_scrambled_causal"":""4"",""num_scrambled_schematic"":""4"",""participantId"":""322EA357F521434C8F534875C027C849"",""assignmentId"":""0198ba0b-5619-760a-bc82-f31a8b20d17f"",""projectId"":""0198b9d0-29d4-7df3-8625-4b4515841beb""}","https://test12345.live/?num_scrambled_semantic=8&num_scrambled_causal=4&num_scrambled_schematic=4&participantId=322EA357F521434C8F534875C027C849&assignmentId=0198ba0b-5619-760a-bc82-f31a8b20d17f&projectId=0198b9d0-29d4-7df3-8625-4b4515841beb","322EA357F521434C8F534875C027C849-2025-08-17-22-35-31","","null","","images/semantic_sequence/physical_activity_semantic/physical_activity_semantic_7.png","null","",""
"","","","","","image-button-response","35","224214","0.0-10.0-1.0-1.3","322EA357F521434C8F534875C027C849","322EA357F521434C8F534875C027C849","0198ba0b-5619-760a-bc82-f31a8b20d17f","0198b9d0-29d4-7df3-8625-4b4515841beb","{""num_scrambled_semantic"":""8"",""num_scrambled_causal"":""4"",""num_scrambled_schematic"":""4"",""participantId"":""322EA357F521434C8F534875C027C849"",""assignmentId"":""0198ba0b-5619-760a-bc82-f31a8b20d17f"",""projectId"":""0198b9d0-29d4-7df3-8625-4b4515841beb""}","https://test12345.live/?num_scrambled_semantic=8&num_scrambled_causal=4&num_scrambled_schematic=4&participantId=322EA357F521434C8F534875C027C849&assignmentId=0198ba0b-5619-760a-bc82-f31a8b20d17f&projectId=0198b9d0-29d4-7df3-8625-4b4515841beb","322EA357F521434C8F534875C027C849-2025-08-17-22-35-31","","3864","","images/semantic_sequence/physical_activity_semantic/physical_activity_semantic_7.png","0","",""
"","","","","","image-button-response","36","229615","0.0-10.0-1.0-2.3","322EA357F521434C8F534875C027C849","322EA357F521434C8F534875C027C849","0198ba0b-5619-760a-bc82-f31a8b20d17f","0198b9d0-29d4-7df3-8625-4b4515841beb","{""num_scrambled_semantic"":""8"",""num_scrambled_causal"":""4"",""num_scrambled_schematic"":""4"",""participantId"":""322EA357F521434C8F534875C027C849"",""assignmentId"":""0198ba0b-5619-760a-bc82-f31a8b20d17f"",""projectId"":""0198b9d0-29d4-7df3-8625-4b4515841beb""}","https://test12345.live/?num_scrambled_semantic=8&num_scrambled_causal=4&num_scrambled_schematic=4&participantId=322EA357F521434C8F534875C027C849&assignmentId=0198ba0b-5619-760a-bc82-f31a8b20d17f&projectId=0198b9d0-29d4-7df3-8625-4b4515841beb","322EA357F521434C8F534875C027C849-2025-08-17-22-35-31","","null","","[]","null","",""
"","","","","","image-button-response","37","234121","0.0-10.0-1.0-0.4","322EA357F521434C8F534875C027C849","322EA357F521434C8F534875C027C849","0198ba0b-5619-760a-bc82-f31a8b20d17f","0198b9d0-29d4-7df3-8625-4b4515841beb","{""num_scrambled_semantic"":""8"",""num_scrambled_causal"":""4"",""num_scrambled_schematic"":""4"",""participantId"":""322EA357F521434C8F534875C027C849"",""assignmentId"":""0198ba0b-5619-760a-bc82-f31a8b20d17f"",""projectId"":""0198b9d0-29d4-7df3-8625-4b4515841beb""}","https://test12345.live/?num_scrambled_semantic=8&num_scrambled_causal=4&num_scrambled_schematic=4&participantId=322EA357F521434C8F534875C027C849&assignmentId=0198ba0b-5619-760a-bc82-f31a8b20d17f&projectId=0198b9d0-29d4-7df3-8625-4b4515841beb","322EA357F521434C8F534875C027C849-2025-08-17-22-35-31","","null","","images/semantic_sequence/physical_activity_semantic/physical_activity_semantic_9.png","null","",""
"","","","","","image-button-response","38","236717","0.0-10.0-1.0-1.4","322EA357F521434C8F534875C027C849","322EA357F521434C8F534875C027C849","0198ba0b-5619-760a-bc82-f31a8b20d17f","0198b9d0-29d4-7df3-8625-4b4515841beb","{""num_scrambled_semantic"":""8"",""num_scrambled_causal"":""4"",""num_scrambled_schematic"":""4"",""participantId"":""322EA357F521434C8F534875C027C849"",""assignmentId"":""0198ba0b-5619-760a-bc82-f31a8b20d17f"",""projectId"":""0198b9d0-29d4-7df3-8625-4b4515841beb""}","https://test12345.live/?num_scrambled_semantic=8&num_scrambled_causal=4&num_scrambled_schematic=4&participantId=322EA357F521434C8F534875C027C849&assignmentId=0198ba0b-5619-760a-bc82-f31a8b20d17f&projectId=0198b9d0-29d4-7df3-8625-4b4515841beb","322EA357F521434C8F534875C027C849-2025-08-17-22-35-31","","2592","","images/semantic_sequence/physical_activity_semantic/physical_activity_semantic_9.png","0","",""
"","","","","","image-button-response","39","242119","0.0-10.0-1.0-2.4","322EA357F521434C8F534875C027C849","322EA357F521434C8F534875C027C849","0198ba0b-5619-760a-bc82-f31a8b20d17f","0198b9d0-29d4-7df3-8625-4b4515841beb","{""num_scrambled_semantic"":""8"",""num_scrambled_causal"":""4"",""num_scrambled_schematic"":""4"",""participantId"":""322EA357F521434C8F534875C027C849"",""assignmentId"":""0198ba0b-5619-760a-bc82-f31a8b20d17f"",""projectId"":""0198b9d0-29d4-7df3-8625-4b4515841beb""}","https://test12345.live/?num_scrambled_semantic=8&num_scrambled_causal=4&num_scrambled_schematic=4&participantId=322EA357F521434C8F534875C027C849&assignmentId=0198ba0b-5619-760a-bc82-f31a8b20d17f&projectId=0198b9d0-29d4-7df3-8625-4b4515841beb","322EA357F521434C8F534875C027C849-2025-08-17-22-35-31","","null","","[]","null","",""
"","","","","","image-button-response","40","246625","0.0-10.0-1.0-0.5","322EA357F521434C8F534875C027C849","322EA357F521434C8F534875C027C849","0198ba0b-5619-760a-bc82-f31a8b20d17f","0198b9d0-29d4-7df3-8625-4b4515841beb","{""num_scrambled_semantic"":""8"",""num_scrambled_causal"":""4"",""num_scrambled_schematic"":""4"",""participantId"":""322EA357F521434C8F534875C027C849"",""assignmentId"":""0198ba0b-5619-760a-bc82-f31a8b20d17f"",""projectId"":""0198b9d0-29d4-7df3-8625-4b4515841beb""}","https://test12345.live/?num_scrambled_semantic=8&num_scrambled_causal=4&num_scrambled_schematic=4&participantId=322EA357F521434C8F534875C027C849&assignmentId=0198ba0b-5619-760a-bc82-f31a8b20d17f&projectId=0198b9d0-29d4-7df3-8625-4b4515841beb","322EA357F521434C8F534875C027C849-2025-08-17-22-35-31","","null","","images/semantic_sequence/physical_activity_semantic/physical_activity_semantic_2.png","null","",""
"","","","","","image-button-response","41","247603","0.0-10.0-1.0-1.5","322EA357F521434C8F534875C027C849","322EA357F521434C8F534875C027C849","0198ba0b-5619-760a-bc82-f31a8b20d17f","0198b9d0-29d4-7df3-8625-4b4515841beb","{""num_scrambled_semantic"":""8"",""num_scrambled_causal"":""4"",""num_scrambled_schematic"":""4"",""participantId"":""322EA357F521434C8F534875C027C849"",""assignmentId"":""0198ba0b-5619-760a-bc82-f31a8b20d17f"",""projectId"":""0198b9d0-29d4-7df3-8625-4b4515841beb""}","https://test12345.live/?num_scrambled_semantic=8&num_scrambled_causal=4&num_scrambled_schematic=4&participantId=322EA357F521434C8F534875C027C849&assignmentId=0198ba0b-5619-760a-bc82-f31a8b20d17f&projectId=0198b9d0-29d4-7df3-8625-4b4515841beb","322EA357F521434C8F534875C027C849-2025-08-17-22-35-31","","975","","images/semantic_sequence/physical_activity_semantic/physical_activity_semantic_2.png","0","",""
"","","","","","image-button-response","42","253007","0.0-10.0-1.0-2.5","322EA357F521434C8F534875C027C849","322EA357F521434C8F534875C027C849","0198ba0b-5619-760a-bc82-f31a8b20d17f","0198b9d0-29d4-7df3-8625-4b4515841beb","{""num_scrambled_semantic"":""8"",""num_scrambled_causal"":""4"",""num_scrambled_schematic"":""4"",""participantId"":""322EA357F521434C8F534875C027C849"",""assignmentId"":""0198ba0b-5619-760a-bc82-f31a8b20d17f"",""projectId"":""0198b9d0-29d4-7df3-8625-4b4515841beb""}","https://test12345.live/?num_scrambled_semantic=8&num_scrambled_causal=4&num_scrambled_schematic=4&participantId=322EA357F521434C8F534875C027C849&assignmentId=0198ba0b-5619-760a-bc82-f31a8b20d17f&projectId=0198b9d0-29d4-7df3-8625-4b4515841beb","322EA357F521434C8F534875C027C849-2025-08-17-22-35-31","","null","","[]","null","",""
"","","","","","image-button-response","43","257511","0.0-10.0-1.0-0.6","322EA357F521434C8F534875C027C849","322EA357F521434C8F534875C027C849","0198ba0b-5619-760a-bc82-f31a8b20d17f","0198b9d0-29d4-7df3-8625-4b4515841beb","{""num_scrambled_semantic"":""8"",""num_scrambled_causal"":""4"",""num_scrambled_schematic"":""4"",""participantId"":""322EA357F521434C8F534875C027C849"",""assignmentId"":""0198ba0b-5619-760a-bc82-f31a8b20d17f"",""projectId"":""0198b9d0-29d4-7df3-8625-4b4515841beb""}","https://test12345.live/?num_scrambled_semantic=8&num_scrambled_causal=4&num_scrambled_schematic=4&participantId=322EA357F521434C8F534875C027C849&assignmentId=0198ba0b-5619-760a-bc82-f31a8b20d17f&projectId=0198b9d0-29d4-7df3-8625-4b4515841beb","322EA357F521434C8F534875C027C849-2025-08-17-22-35-31","","null","","images/semantic_sequence/physical_activity_semantic/physical_activity_semantic_3.png","null","",""
"","","","","","image-button-response","44","261515","0.0-10.0-1.0-1.6","322EA357F521434C8F534875C027C849","322EA357F521434C8F534875C027C849","0198ba0b-5619-760a-bc82-f31a8b20d17f","0198b9d0-29d4-7df3-8625-4b4515841beb","{""num_scrambled_semantic"":""8"",""num_scrambled_causal"":""4"",""num_scrambled_schematic"":""4"",""participantId"":""322EA357F521434C8F534875C027C849"",""assignmentId"":""0198ba0b-5619-760a-bc82-f31a8b20d17f"",""projectId"":""0198b9d0-29d4-7df3-8625-4b4515841beb""}","https://test12345.live/?num_scrambled_semantic=8&num_scrambled_causal=4&num_scrambled_schematic=4&participantId=322EA357F521434C8F534875C027C849&assignmentId=0198ba0b-5619-760a-bc82-f31a8b20d17f&projectId=0198b9d0-29d4-7df3-8625-4b4515841beb","322EA357F521434C8F534875C027C849-2025-08-17-22-35-31","","null","","images/semantic_sequence/physical_activity_semantic/physical_activity_semantic_3.png","null","",""
"","","","","","image-button-response","45","266917","0.0-10.0-1.0-2.6","322EA357F521434C8F534875C027C849","322EA357F521434C8F534875C027C849","0198ba0b-5619-760a-bc82-f31a8b20d17f","0198b9d0-29d4-7df3-8625-4b4515841beb","{""num_scrambled_semantic"":""8"",""num_scrambled_causal"":""4"",""num_scrambled_schematic"":""4"",""participantId"":""322EA357F521434C8F534875C027C849"",""assignmentId"":""0198ba0b-5619-760a-bc82-f31a8b20d17f"",""projectId"":""0198b9d0-29d4-7df3-8625-4b4515841beb""}","https://test12345.live/?num_scrambled_semantic=8&num_scrambled_causal=4&num_scrambled_schematic=4&participantId=322EA357F521434C8F534875C027C849&assignmentId=0198ba0b-5619-760a-bc82-f31a8b20d17f&projectId=0198b9d0-29d4-7df3-8625-4b4515841beb","322EA357F521434C8F534875C027C849-2025-08-17-22-35-31","","null","","[]","null","",""
"","","","","","image-button-response","46","271420","0.0-10.0-1.0-0.7","322EA357F521434C8F534875C027C849","322EA357F521434C8F534875C027C849","0198ba0b-5619-760a-bc82-f31a8b20d17f","0198b9d0-29d4-7df3-8625-4b4515841beb","{""num_scrambled_semantic"":""8"",""num_scrambled_causal"":""4"",""num_scrambled_schematic"":""4"",""participantId"":""322EA357F521434C8F534875C027C849"",""assignmentId"":""0198ba0b-5619-760a-bc82-f31a8b20d17f"",""projectId"":""0198b9d0-29d4-7df3-8625-4b4515841beb""}","https://test12345.live/?num_scrambled_semantic=8&num_scrambled_causal=4&num_scrambled_schematic=4&participantId=322EA357F521434C8F534875C027C849&assignmentId=0198ba0b-5619-760a-bc82-f31a8b20d17f&projectId=0198b9d0-29d4-7df3-8625-4b4515841beb","322EA357F521434C8F534875C027C849-2025-08-17-22-35-31","","null","","images/semantic_sequence/physical_activity_semantic/physical_activity_semantic_ten.png","null","",""
"","","","","","image-button-response","47","274041","0.0-10.0-1.0-1.7","322EA357F521434C8F534875C027C849","322EA357F521434C8F534875C027C849","0198ba0b-5619-760a-bc82-f31a8b20d17f","0198b9d0-29d4-7df3-8625-4b4515841beb","{""num_scrambled_semantic"":""8"",""num_scrambled_causal"":""4"",""num_scrambled_schematic"":""4"",""participantId"":""322EA357F521434C8F534875C027C849"",""assignmentId"":""0198ba0b-5619-760a-bc82-f31a8b20d17f"",""projectId"":""0198b9d0-29d4-7df3-8625-4b4515841beb""}","https://test12345.live/?num_scrambled_semantic=8&num_scrambled_causal=4&num_scrambled_schematic=4&participantId=322EA357F521434C8F534875C027C849&assignmentId=0198ba0b-5619-760a-bc82-f31a8b20d17f&projectId=0198b9d0-29d4-7df3-8625-4b4515841beb","322EA357F521434C8F534875C027C849-2025-08-17-22-35-31","","2618","","images/semantic_sequence/physical_activity_semantic/physical_activity_semantic_ten.png","0","",""
"","","","","","image-button-response","48","279443","0.0-10.0-1.0-2.7","322EA357F521434C8F534875C027C849","322EA357F521434C8F534875C027C849","0198ba0b-5619-760a-bc82-f31a8b20d17f","0198b9d0-29d4-7df3-8625-4b4515841beb","{""num_scrambled_semantic"":""8"",""num_scrambled_causal"":""4"",""num_scrambled_schematic"":""4"",""participantId"":""322EA357F521434C8F534875C027C849"",""assignmentId"":""0198ba0b-5619-760a-bc82-f31a8b20d17f"",""projectId"":""0198b9d0-29d4-7df3-8625-4b4515841beb""}","https://test12345.live/?num_scrambled_semantic=8&num_scrambled_causal=4&num_scrambled_schematic=4&participantId=322EA357F521434C8F534875C027C849&assignmentId=0198ba0b-5619-760a-bc82-f31a8b20d17f&projectId=0198b9d0-29d4-7df3-8625-4b4515841beb","322EA357F521434C8F534875C027C849-2025-08-17-22-35-31","","null","","[]","null","",""
"","","","","","image-button-response","49","283948","0.0-10.0-1.0-0.8","322EA357F521434C8F534875C027C849","322EA357F521434C8F534875C027C849","0198ba0b-5619-760a-bc82-f31a8b20d17f","0198b9d0-29d4-7df3-8625-4b4515841beb","{""num_scrambled_semantic"":""8"",""num_scrambled_causal"":""4"",""num_scrambled_schematic"":""4"",""participantId"":""322EA357F521434C8F534875C027C849"",""assignmentId"":""0198ba0b-5619-760a-bc82-f31a8b20d17f"",""projectId"":""0198b9d0-29d4-7df3-8625-4b4515841beb""}","https://test12345.live/?num_scrambled_semantic=8&num_scrambled_causal=4&num_scrambled_schematic=4&participantId=322EA357F521434C8F534875C027C849&assignmentId=0198ba0b-5619-760a-bc82-f31a8b20d17f&projectId=0198b9d0-29d4-7df3-8625-4b4515841beb","322EA357F521434C8F534875C027C849-2025-08-17-22-35-31","","null","","images/semantic_sequence/physical_activity_semantic/physical_activity_semantic_6.png","null","",""
"","","","","","image-button-response","50","285397","0.0-10.0-1.0-1.8","322EA357F521434C8F534875C027C849","322EA357F521434C8F534875C027C849","0198ba0b-5619-760a-bc82-f31a8b20d17f","0198b9d0-29d4-7df3-8625-4b4515841beb","{""num_scrambled_semantic"":""8"",""num_scrambled_causal"":""4"",""num_scrambled_schematic"":""4"",""participantId"":""322EA357F521434C8F534875C027C849"",""assignmentId"":""0198ba0b-5619-760a-bc82-f31a8b20d17f"",""projectId"":""0198b9d0-29d4-7df3-8625-4b4515841beb""}","https://test12345.live/?num_scrambled_semantic=8&num_scrambled_causal=4&num_scrambled_schematic=4&participantId=322EA357F521434C8F534875C027C849&assignmentId=0198ba0b-5619-760a-bc82-f31a8b20d17f&projectId=0198b9d0-29d4-7df3-8625-4b4515841beb","322EA357F521434C8F534875C027C849-2025-08-17-22-35-31","","1448","","images/semantic_sequence/physical_activity_semantic/physical_activity_semantic_6.png","0","",""
"","","","","","image-button-response","51","290799","0.0-10.0-1.0-2.8","322EA357F521434C8F534875C027C849","322EA357F521434C8F534875C027C849","0198ba0b-5619-760a-bc82-f31a8b20d17f","0198b9d0-29d4-7df3-8625-4b4515841beb","{""num_scrambled_semantic"":""8"",""num_scrambled_causal"":""4"",""num_scrambled_schematic"":""4"",""participantId"":""322EA357F521434C8F534875C027C849"",""assignmentId"":""0198ba0b-5619-760a-bc82-f31a8b20d17f"",""projectId"":""0198b9d0-29d4-7df3-8625-4b4515841beb""}","https://test12345.live/?num_scrambled_semantic=8&num_scrambled_causal=4&num_scrambled_schematic=4&participantId=322EA357F521434C8F534875C027C849&assignmentId=0198ba0b-5619-760a-bc82-f31a8b20d17f&projectId=0198b9d0-29d4-7df3-8625-4b4515841beb","322EA357F521434C8F534875C027C849-2025-08-17-22-35-31","","null","","[]","null","",""
"","","","","","image-button-response","52","295303","0.0-10.0-1.0-0.9","322EA357F521434C8F534875C027C849","322EA357F521434C8F534875C027C849","0198ba0b-5619-760a-bc82-f31a8b20d17f","0198b9d0-29d4-7df3-8625-4b4515841beb","{""num_scrambled_semantic"":""8"",""num_scrambled_causal"":""4"",""num_scrambled_schematic"":""4"",""participantId"":""322EA357F521434C8F534875C027C849"",""assignmentId"":""0198ba0b-5619-760a-bc82-f31a8b20d17f"",""projectId"":""0198b9d0-29d4-7df3-8625-4b4515841beb""}","https://test12345.live/?num_scrambled_semantic=8&num_scrambled_causal=4&num_scrambled_schematic=4&participantId=322EA357F521434C8F534875C027C849&assignmentId=0198ba0b-5619-760a-bc82-f31a8b20d17f&projectId=0198b9d0-29d4-7df3-8625-4b4515841beb","322EA357F521434C8F534875C027C849-2025-08-17-22-35-31","","null","","images/semantic_sequence/physical_activity_semantic/physical_activity_semantic_5.png","null","",""
"","","","","","image-button-response","53","296297","0.0-10.0-1.0-1.9","322EA357F521434C8F534875C027C849","322EA357F521434C8F534875C027C849","0198ba0b-5619-760a-bc82-f31a8b20d17f","0198b9d0-29d4-7df3-8625-4b4515841beb","{""num_scrambled_semantic"":""8"",""num_scrambled_causal"":""4"",""num_scrambled_schematic"":""4"",""participantId"":""322EA357F521434C8F534875C027C849"",""assignmentId"":""0198ba0b-5619-760a-bc82-f31a8b20d17f"",""projectId"":""0198b9d0-29d4-7df3-8625-4b4515841beb""}","https://test12345.live/?num_scrambled_semantic=8&num_scrambled_causal=4&num_scrambled_schematic=4&participantId=322EA357F521434C8F534875C027C849&assignmentId=0198ba0b-5619-760a-bc82-f31a8b20d17f&projectId=0198b9d0-29d4-7df3-8625-4b4515841beb","322EA357F521434C8F534875C027C849-2025-08-17-22-35-31","","990","","images/semantic_sequence/physical_activity_semantic/physical_activity_semantic_5.png","0","",""
"","","","","","image-button-response","54","301700","0.0-10.0-1.0-2.9","322EA357F521434C8F534875C027C849","322EA357F521434C8F534875C027C849","0198ba0b-5619-760a-bc82-f31a8b20d17f","0198b9d0-29d4-7df3-8625-4b4515841beb","{""num_scrambled_semantic"":""8"",""num_scrambled_causal"":""4"",""num_scrambled_schematic"":""4"",""participantId"":""322EA357F521434C8F534875C027C849"",""assignmentId"":""0198ba0b-5619-760a-bc82-f31a8b20d17f"",""projectId"":""0198b9d0-29d4-7df3-8625-4b4515841beb""}","https://test12345.live/?num_scrambled_semantic=8&num_scrambled_causal=4&num_scrambled_schematic=4&participantId=322EA357F521434C8F534875C027C849&assignmentId=0198ba0b-5619-760a-bc82-f31a8b20d17f&projectId=0198b9d0-29d4-7df3-8625-4b4515841beb","322EA357F521434C8F534875C027C849-2025-08-17-22-35-31","","null","","[]","null","",""
"","","","","","html-audio-response","55","331233","0.0-11.0","322EA357F521434C8F534875C027C849","322EA357F521434C8F534875C027C849","0198ba0b-5619-760a-bc82-f31a8b20d17f","0198b9d0-29d4-7df3-8625-4b4515841beb","{""num_scrambled_semantic"":""8"",""num_scrambled_causal"":""4"",""num_scrambled_schematic"":""4"",""participantId"":""322EA357F521434C8F534875C027C849"",""assignmentId"":""0198ba0b-5619-760a-bc82-f31a8b20d17f"",""projectId"":""0198b9d0-29d4-7df3-8625-4b4515841beb""}","https://test12345.live/?num_scrambled_semantic=8&num_scrambled_causal=4&num_scrambled_schematic=4&participantId=322EA357F521434C8F534875C027C849&assignmentId=0198ba0b-5619-760a-bc82-f31a8b20d17f&projectId=0198b9d0-29d4-7df3-8625-4b4515841beb","322EA357F521434C8F534875C027C849-2025-08-17-22-35-31","","8159","","[""<span style=\""color: red; font-size: 24px\""> NOW RECORDING</span><p>Please say out loud all the images you saw, as many as you can remember. The images can be said in any order.</p>""]","","2","physical_activity_semantic"
"","","","","","image-button-response","56","337239","0.0-12.0-0.0","322EA357F521434C8F534875C027C849","322EA357F521434C8F534875C027C849","0198ba0b-5619-760a-bc82-f31a8b20d17f","0198b9d0-29d4-7df3-8625-4b4515841beb","{""num_scrambled_semantic"":""8"",""num_scrambled_causal"":""4"",""num_scrambled_schematic"":""4"",""participantId"":""322EA357F521434C8F534875C027C849"",""assignmentId"":""0198ba0b-5619-760a-bc82-f31a8b20d17f"",""projectId"":""0198b9d0-29d4-7df3-8625-4b4515841beb""}","https://test12345.live/?num_scrambled_semantic=8&num_scrambled_causal=4&num_scrambled_schematic=4&participantId=322EA357F521434C8F534875C027C849&assignmentId=0198ba0b-5619-760a-bc82-f31a8b20d17f&projectId=0198b9d0-29d4-7df3-8625-4b4515841beb","322EA357F521434C8F534875C027C849-2025-08-17-22-35-31","","null","","images/semantic_sequence/housework_semantic/housework_semantic_0.png","null","",""
"","","","","","image-button-response","57","341742","0.0-12.0-1.0-0.0","322EA357F521434C8F534875C027C849","322EA357F521434C8F534875C027C849","0198ba0b-5619-760a-bc82-f31a8b20d17f","0198b9d0-29d4-7df3-8625-4b4515841beb","{""num_scrambled_semantic"":""8"",""num_scrambled_causal"":""4"",""num_scrambled_schematic"":""4"",""participantId"":""322EA357F521434C8F534875C027C849"",""assignmentId"":""0198ba0b-5619-760a-bc82-f31a8b20d17f"",""projectId"":""0198b9d0-29d4-7df3-8625-4b4515841beb""}","https://test12345.live/?num_scrambled_semantic=8&num_scrambled_causal=4&num_scrambled_schematic=4&participantId=322EA357F521434C8F534875C027C849&assignmentId=0198ba0b-5619-760a-bc82-f31a8b20d17f&projectId=0198b9d0-29d4-7df3-8625-4b4515841beb","322EA357F521434C8F534875C027C849-2025-08-17-22-35-31","","null","","images/semantic_sequence/housework_semantic/housework_semantic_ten.png","null","",""
"","","","","","image-button-response","58","342414","0.0-12.0-1.0-1.0","322EA357F521434C8F534875C027C849","322EA357F521434C8F534875C027C849","0198ba0b-5619-760a-bc82-f31a8b20d17f","0198b9d0-29d4-7df3-8625-4b4515841beb","{""num_scrambled_semantic"":""8"",""num_scrambled_causal"":""4"",""num_scrambled_schematic"":""4"",""participantId"":""322EA357F521434C8F534875C027C849"",""assignmentId"":""0198ba0b-5619-760a-bc82-f31a8b20d17f"",""projectId"":""0198b9d0-29d4-7df3-8625-4b4515841beb""}","https://test12345.live/?num_scrambled_semantic=8&num_scrambled_causal=4&num_scrambled_schematic=4&participantId=322EA357F521434C8F534875C027C849&assignmentId=0198ba0b-5619-760a-bc82-f31a8b20d17f&projectId=0198b9d0-29d4-7df3-8625-4b4515841beb","322EA357F521434C8F534875C027C849-2025-08-17-22-35-31","","668","","images/semantic_sequence/housework_semantic/housework_semantic_ten.png","0","",""
"","","","","","image-button-response","59","347816","0.0-12.0-1.0-2.0","322EA357F521434C8F534875C027C849","322EA357F521434C8F534875C027C849","0198ba0b-5619-760a-bc82-f31a8b20d17f","0198b9d0-29d4-7df3-8625-4b4515841beb","{""num_scrambled_semantic"":""8"",""num_scrambled_causal"":""4"",""num_scrambled_schematic"":""4"",""participantId"":""322EA357F521434C8F534875C027C849"",""assignmentId"":""0198ba0b-5619-760a-bc82-f31a8b20d17f"",""projectId"":""0198b9d0-29d4-7df3-8625-4b4515841beb""}","https://test12345.live/?num_scrambled_semantic=8&num_scrambled_causal=4&num_scrambled_schematic=4&participantId=322EA357F521434C8F534875C027C849&assignmentId=0198ba0b-5619-760a-bc82-f31a8b20d17f&projectId=0198b9d0-29d4-7df3-8625-4b4515841beb","322EA357F521434C8F534875C027C849-2025-08-17-22-35-31","","null","","[]","null","",""
"","","","","","image-button-response","60","352320","0.0-12.0-1.0-0.1","322EA357F521434C8F534875C027C849","322EA357F521434C8F534875C027C849","0198ba0b-5619-760a-bc82-f31a8b20d17f","0198b9d0-29d4-7df3-8625-4b4515841beb","{""num_scrambled_semantic"":""8"",""num_scrambled_causal"":""4"",""num_scrambled_schematic"":""4"",""participantId"":""322EA357F521434C8F534875C027C849"",""assignmentId"":""0198ba0b-5619-760a-bc82-f31a8b20d17f"",""projectId"":""0198b9d0-29d4-7df3-8625-4b4515841beb""}","https://test12345.live/?num_scrambled_semantic=8&num_scrambled_causal=4&num_scrambled_schematic=4&participantId=322EA357F521434C8F534875C027C849&assignmentId=0198ba0b-5619-760a-bc82-f31a8b20d17f&projectId=0198b9d0-29d4-7df3-8625-4b4515841beb","322EA357F521434C8F534875C027C849-2025-08-17-22-35-31","","null","","images/semantic_sequence/housework_semantic/housework_semantic_1.png","null","",""
"","","","","","image-button-response","61","356327","0.0-12.0-1.0-1.1","322EA357F521434C8F534875C027C849","322EA357F521434C8F534875C027C849","0198ba0b-5619-760a-bc82-f31a8b20d17f","0198b9d0-29d4-7df3-8625-4b4515841beb","{""num_scrambled_semantic"":""8"",""num_scrambled_causal"":""4"",""num_scrambled_schematic"":""4"",""participantId"":""322EA357F521434C8F534875C027C849"",""assignmentId"":""0198ba0b-5619-760a-bc82-f31a8b20d17f"",""projectId"":""0198b9d0-29d4-7df3-8625-4b4515841beb""}","https://test12345.live/?num_scrambled_semantic=8&num_scrambled_causal=4&num_scrambled_schematic=4&participantId=322EA357F521434C8F534875C027C849&assignmentId=0198ba0b-5619-760a-bc82-f31a8b20d17f&projectId=0198b9d0-29d4-7df3-8625-4b4515841beb","322EA357F521434C8F534875C027C849-2025-08-17-22-35-31","","null","","images/semantic_sequence/housework_semantic/housework_semantic_1.png","null","",""
"","","","","","image-button-response","62","361731","0.0-12.0-1.0-2.1","322EA357F521434C8F534875C027C849","322EA357F521434C8F534875C027C849","0198ba0b-5619-760a-bc82-f31a8b20d17f","0198b9d0-29d4-7df3-8625-4b4515841beb","{""num_scrambled_semantic"":""8"",""num_scrambled_causal"":""4"",""num_scrambled_schematic"":""4"",""participantId"":""322EA357F521434C8F534875C027C849"",""assignmentId"":""0198ba0b-5619-760a-bc82-f31a8b20d17f"",""projectId"":""0198b9d0-29d4-7df3-8625-4b4515841beb""}","https://test12345.live/?num_scrambled_semantic=8&num_scrambled_causal=4&num_scrambled_schematic=4&participantId=322EA357F521434C8F534875C027C849&assignmentId=0198ba0b-5619-760a-bc82-f31a8b20d17f&projectId=0198b9d0-29d4-7df3-8625-4b4515841beb","322EA357F521434C8F534875C027C849-2025-08-17-22-35-31","","null","","[]","null","",""
"","","","","","image-button-response","63","366235","0.0-12.0-1.0-0.2","322EA357F521434C8F534875C027C849","322EA357F521434C8F534875C027C849","0198ba0b-5619-760a-bc82-f31a8b20d17f","0198b9d0-29d4-7df3-8625-4b4515841beb","{""num_scrambled_semantic"":""8"",""num_scrambled_causal"":""4"",""num_scrambled_schematic"":""4"",""participantId"":""322EA357F521434C8F534875C027C849"",""assignmentId"":""0198ba0b-5619-760a-bc82-f31a8b20d17f"",""projectId"":""0198b9d0-29d4-7df3-8625-4b4515841beb""}","https://test12345.live/?num_scrambled_semantic=8&num_scrambled_causal=4&num_scrambled_schematic=4&participantId=322EA357F521434C8F534875C027C849&assignmentId=0198ba0b-5619-760a-bc82-f31a8b20d17f&projectId=0198b9d0-29d4-7df3-8625-4b4515841beb","322EA357F521434C8F534875C027C849-2025-08-17-22-35-31","","null","","images/semantic_sequence/housework_semantic/housework_semantic_3.png","null","",""
"","","","","","image-button-response","64","368122","0.0-12.0-1.0-1.2","322EA357F521434C8F534875C027C849","322EA357F521434C8F534875C027C849","0198ba0b-5619-760a-bc82-f31a8b20d17f","0198b9d0-29d4-7df3-8625-4b4515841beb","{""num_scrambled_semantic"":""8"",""num_scrambled_causal"":""4"",""num_scrambled_schematic"":""4"",""participantId"":""322EA357F521434C8F534875C027C849"",""assignmentId"":""0198ba0b-5619-760a-bc82-f31a8b20d17f"",""projectId"":""0198b9d0-29d4-7df3-8625-4b4515841beb""}","https://test12345.live/?num_scrambled_semantic=8&num_scrambled_causal=4&num_scrambled_schematic=4&participantId=322EA357F521434C8F534875C027C849&assignmentId=0198ba0b-5619-760a-bc82-f31a8b20d17f&projectId=0198b9d0-29d4-7df3-8625-4b4515841beb","322EA357F521434C8F534875C027C849-2025-08-17-22-35-31","","1883","","images/semantic_sequence/housework_semantic/housework_semantic_3.png","0","",""
"","","","","","image-button-response","65","373526","0.0-12.0-1.0-2.2","322EA357F521434C8F534875C027C849","322EA357F521434C8F534875C027C849","0198ba0b-5619-760a-bc82-f31a8b20d17f","0198b9d0-29d4-7df3-8625-4b4515841beb","{""num_scrambled_semantic"":""8"",""num_scrambled_causal"":""4"",""num_scrambled_schematic"":""4"",""participantId"":""322EA357F521434C8F534875C027C849"",""assignmentId"":""0198ba0b-5619-760a-bc82-f31a8b20d17f"",""projectId"":""0198b9d0-29d4-7df3-8625-4b4515841beb""}","https://test12345.live/?num_scrambled_semantic=8&num_scrambled_causal=4&num_scrambled_schematic=4&participantId=322EA357F521434C8F534875C027C849&assignmentId=0198ba0b-5619-760a-bc82-f31a8b20d17f&projectId=0198b9d0-29d4-7df3-8625-4b4515841beb","322EA357F521434C8F534875C027C849-2025-08-17-22-35-31","","null","","[]","null","",""
"","","","","","image-button-response","66","378030","0.0-12.0-1.0-0.3","322EA357F521434C8F534875C027C849","322EA357F521434C8F534875C027C849","0198ba0b-5619-760a-bc82-f31a8b20d17f","0198b9d0-29d4-7df3-8625-4b4515841beb","{""num_scrambled_semantic"":""8"",""num_scrambled_causal"":""4"",""num_scrambled_schematic"":""4"",""participantId"":""322EA357F521434C8F534875C027C849"",""assignmentId"":""0198ba0b-5619-760a-bc82-f31a8b20d17f"",""projectId"":""0198b9d0-29d4-7df3-8625-4b4515841beb""}","https://test12345.live/?num_scrambled_semantic=8&num_scrambled_causal=4&num_scrambled_schematic=4&participantId=322EA357F521434C8F534875C027C849&assignmentId=0198ba0b-5619-760a-bc82-f31a8b20d17f&projectId=0198b9d0-29d4-7df3-8625-4b4515841beb","322EA357F521434C8F534875C027C849-2025-08-17-22-35-31","","null","","images/semantic_sequence/housework_semantic/housework_semantic_7.png","null","",""
"","","","","","image-button-response","67","378945","0.0-12.0-1.0-1.3","322EA357F521434C8F534875C027C849","322EA357F521434C8F534875C027C849","0198ba0b-5619-760a-bc82-f31a8b20d17f","0198b9d0-29d4-7df3-8625-4b4515841beb","{""num_scrambled_semantic"":""8"",""num_scrambled_causal"":""4"",""num_scrambled_schematic"":""4"",""participantId"":""322EA357F521434C8F534875C027C849"",""assignmentId"":""0198ba0b-5619-760a-bc82-f31a8b20d17f"",""projectId"":""0198b9d0-29d4-7df3-8625-4b4515841beb""}","https://test12345.live/?num_scrambled_semantic=8&num_scrambled_causal=4&num_scrambled_schematic=4&participantId=322EA357F521434C8F534875C027C849&assignmentId=0198ba0b-5619-760a-bc82-f31a8b20d17f&projectId=0198b9d0-29d4-7df3-8625-4b4515841beb","322EA357F521434C8F534875C027C849-2025-08-17-22-35-31","","911","","images/semantic_sequence/housework_semantic/housework_semantic_7.png","0","",""
"","","","","","image-button-response","68","384347","0.0-12.0-1.0-2.3","322EA357F521434C8F534875C027C849","322EA357F521434C8F534875C027C849","0198ba0b-5619-760a-bc82-f31a8b20d17f","0198b9d0-29d4-7df3-8625-4b4515841beb","{""num_scrambled_semantic"":""8"",""num_scrambled_causal"":""4"",""num_scrambled_schematic"":""4"",""participantId"":""322EA357F521434C8F534875C027C849"",""assignmentId"":""0198ba0b-5619-760a-bc82-f31a8b20d17f"",""projectId"":""0198b9d0-29d4-7df3-8625-4b4515841beb""}","https://test12345.live/?num_scrambled_semantic=8&num_scrambled_causal=4&num_scrambled_schematic=4&participantId=322EA357F521434C8F534875C027C849&assignmentId=0198ba0b-5619-760a-bc82-f31a8b20d17f&projectId=0198b9d0-29d4-7df3-8625-4b4515841beb","322EA357F521434C8F534875C027C849-2025-08-17-22-35-31","","null","","[]","null","",""
"","","","","","image-button-response","69","388852","0.0-12.0-1.0-0.4","322EA357F521434C8F534875C027C849","322EA357F521434C8F534875C027C849","0198ba0b-5619-760a-bc82-f31a8b20d17f","0198b9d0-29d4-7df3-8625-4b4515841beb","{""num_scrambled_semantic"":""8"",""num_scrambled_causal"":""4"",""num_scrambled_schematic"":""4"",""participantId"":""322EA357F521434C8F534875C027C849"",""assignmentId"":""0198ba0b-5619-760a-bc82-f31a8b20d17f"",""projectId"":""0198b9d0-29d4-7df3-8625-4b4515841beb""}","https://test12345.live/?num_scrambled_semantic=8&num_scrambled_causal=4&num_scrambled_schematic=4&participantId=322EA357F521434C8F534875C027C849&assignmentId=0198ba0b-5619-760a-bc82-f31a8b20d17f&projectId=0198b9d0-29d4-7df3-8625-4b4515841beb","322EA357F521434C8F534875C027C849-2025-08-17-22-35-31","","null","","images/semantic_sequence/housework_semantic/housework_semantic_5.png","null","",""
"","","","","","image-button-response","70","390016","0.0-12.0-1.0-1.4","322EA357F521434C8F534875C027C849","322EA357F521434C8F534875C027C849","0198ba0b-5619-760a-bc82-f31a8b20d17f","0198b9d0-29d4-7df3-8625-4b4515841beb","{""num_scrambled_semantic"":""8"",""num_scrambled_causal"":""4"",""num_scrambled_schematic"":""4"",""participantId"":""322EA357F521434C8F534875C027C849"",""assignmentId"":""0198ba0b-5619-760a-bc82-f31a8b20d17f"",""projectId"":""0198b9d0-29d4-7df3-8625-4b4515841beb""}","https://test12345.live/?num_scrambled_semantic=8&num_scrambled_causal=4&num_scrambled_schematic=4&participantId=322EA357F521434C8F534875C027C849&assignmentId=0198ba0b-5619-760a-bc82-f31a8b20d17f&projectId=0198b9d0-29d4-7df3-8625-4b4515841beb","322EA357F521434C8F534875C027C849-2025-08-17-22-35-31","","1160","","images/semantic_sequence/housework_semantic/housework_semantic_5.png","0","",""
"","","","","","image-button-response","71","395418","0.0-12.0-1.0-2.4","322EA357F521434C8F534875C027C849","322EA357F521434C8F534875C027C849","0198ba0b-5619-760a-bc82-f31a8b20d17f","0198b9d0-29d4-7df3-8625-4b4515841beb","{""num_scrambled_semantic"":""8"",""num_scrambled_causal"":""4"",""num_scrambled_schematic"":""4"",""participantId"":""322EA357F521434C8F534875C027C849"",""assignmentId"":""0198ba0b-5619-760a-bc82-f31a8b20d17f"",""projectId"":""0198b9d0-29d4-7df3-8625-4b4515841beb""}","https://test12345.live/?num_scrambled_semantic=8&num_scrambled_causal=4&num_scrambled_schematic=4&participantId=322EA357F521434C8F534875C027C849&assignmentId=0198ba0b-5619-760a-bc82-f31a8b20d17f&projectId=0198b9d0-29d4-7df3-8625-4b4515841beb","322EA357F521434C8F534875C027C849-2025-08-17-22-35-31","","null","","[]","null","",""
"","","","","","image-button-response","72","399923","0.0-12.0-1.0-0.5","322EA357F521434C8F534875C027C849","322EA357F521434C8F534875C027C849","0198ba0b-5619-760a-bc82-f31a8b20d17f","0198b9d0-29d4-7df3-8625-4b4515841beb","{""num_scrambled_semantic"":""8"",""num_scrambled_causal"":""4"",""num_scrambled_schematic"":""4"",""participantId"":""322EA357F521434C8F534875C027C849"",""assignmentId"":""0198ba0b-5619-760a-bc82-f31a8b20d17f"",""projectId"":""0198b9d0-29d4-7df3-8625-4b4515841beb""}","https://test12345.live/?num_scrambled_semantic=8&num_scrambled_causal=4&num_scrambled_schematic=4&participantId=322EA357F521434C8F534875C027C849&assignmentId=0198ba0b-5619-760a-bc82-f31a8b20d17f&projectId=0198b9d0-29d4-7df3-8625-4b4515841beb","322EA357F521434C8F534875C027C849-2025-08-17-22-35-31","","null","","images/semantic_sequence/housework_semantic/housework_semantic_2.png","null","",""
"","","","","","image-button-response","73","403927","0.0-12.0-1.0-1.5","322EA357F521434C8F534875C027C849","322EA357F521434C8F534875C027C849","0198ba0b-5619-760a-bc82-f31a8b20d17f","0198b9d0-29d4-7df3-8625-4b4515841beb","{""num_scrambled_semantic"":""8"",""num_scrambled_causal"":""4"",""num_scrambled_schematic"":""4"",""participantId"":""322EA357F521434C8F534875C027C849"",""assignmentId"":""0198ba0b-5619-760a-bc82-f31a8b20d17f"",""projectId"":""0198b9d0-29d4-7df3-8625-4b4515841beb""}","https://test12345.live/?num_scrambled_semantic=8&num_scrambled_causal=4&num_scrambled_schematic=4&participantId=322EA357F521434C8F534875C027C849&assignmentId=0198ba0b-5619-760a-bc82-f31a8b20d17f&projectId=0198b9d0-29d4-7df3-8625-4b4515841beb","322EA357F521434C8F534875C027C849-2025-08-17-22-35-31","","null","","images/semantic_sequence/housework_semantic/housework_semantic_2.png","null","",""
"","","","","","image-button-response","74","409331","0.0-12.0-1.0-2.5","322EA357F521434C8F534875C027C849","322EA357F521434C8F534875C027C849","0198ba0b-5619-760a-bc82-f31a8b20d17f","0198b9d0-29d4-7df3-8625-4b4515841beb","{""num_scrambled_semantic"":""8"",""num_scrambled_causal"":""4"",""num_scrambled_schematic"":""4"",""participantId"":""322EA357F521434C8F534875C027C849"",""assignmentId"":""0198ba0b-5619-760a-bc82-f31a8b20d17f"",""projectId"":""0198b9d0-29d4-7df3-8625-4b4515841beb""}","https://test12345.live/?num_scrambled_semantic=8&num_scrambled_causal=4&num_scrambled_schematic=4&participantId=322EA357F521434C8F534875C027C849&assignmentId=0198ba0b-5619-760a-bc82-f31a8b20d17f&projectId=0198b9d0-29d4-7df3-8625-4b4515841beb","322EA357F521434C8F534875C027C849-2025-08-17-22-35-31","","null","","[]","null","",""
"","","","","","image-button-response","75","413835","0.0-12.0-1.0-0.6","322EA357F521434C8F534875C027C849","322EA357F521434C8F534875C027C849","0198ba0b-5619-760a-bc82-f31a8b20d17f","0198b9d0-29d4-7df3-8625-4b4515841beb","{""num_scrambled_semantic"":""8"",""num_scrambled_causal"":""4"",""num_scrambled_schematic"":""4"",""participantId"":""322EA357F521434C8F534875C027C849"",""assignmentId"":""0198ba0b-5619-760a-bc82-f31a8b20d17f"",""projectId"":""0198b9d0-29d4-7df3-8625-4b4515841beb""}","https://test12345.live/?num_scrambled_semantic=8&num_scrambled_causal=4&num_scrambled_schematic=4&participantId=322EA357F521434C8F534875C027C849&assignmentId=0198ba0b-5619-760a-bc82-f31a8b20d17f&projectId=0198b9d0-29d4-7df3-8625-4b4515841beb","322EA357F521434C8F534875C027C849-2025-08-17-22-35-31","","null","","images/semantic_sequence/housework_semantic/housework_semantic_4.png","null","",""
"","","","","","image-button-response","76","417007","0.0-12.0-1.0-1.6","322EA357F521434C8F534875C027C849","322EA357F521434C8F534875C027C849","0198ba0b-5619-760a-bc82-f31a8b20d17f","0198b9d0-29d4-7df3-8625-4b4515841beb","{""num_scrambled_semantic"":""8"",""num_scrambled_causal"":""4"",""num_scrambled_schematic"":""4"",""participantId"":""322EA357F521434C8F534875C027C849"",""assignmentId"":""0198ba0b-5619-760a-bc82-f31a8b20d17f"",""projectId"":""0198b9d0-29d4-7df3-8625-4b4515841beb""}","https://test12345.live/?num_scrambled_semantic=8&num_scrambled_causal=4&num_scrambled_schematic=4&participantId=322EA357F521434C8F534875C027C849&assignmentId=0198ba0b-5619-760a-bc82-f31a8b20d17f&projectId=0198b9d0-29d4-7df3-8625-4b4515841beb","322EA357F521434C8F534875C027C849-2025-08-17-22-35-31","","3168","","images/semantic_sequence/housework_semantic/housework_semantic_4.png","0","",""
"","","","","","image-button-response","77","422409","0.0-12.0-1.0-2.6","322EA357F521434C8F534875C027C849","322EA357F521434C8F534875C027C849","0198ba0b-5619-760a-bc82-f31a8b20d17f","0198b9d0-29d4-7df3-8625-4b4515841beb","{""num_scrambled_semantic"":""8"",""num_scrambled_causal"":""4"",""num_scrambled_schematic"":""4"",""participantId"":""322EA357F521434C8F534875C027C849"",""assignmentId"":""0198ba0b-5619-760a-bc82-f31a8b20d17f"",""projectId"":""0198b9d0-29d4-7df3-8625-4b4515841beb""}","https://test12345.live/?num_scrambled_semantic=8&num_scrambled_causal=4&num_scrambled_schematic=4&participantId=322EA357F521434C8F534875C027C849&assignmentId=0198ba0b-5619-760a-bc82-f31a8b20d17f&projectId=0198b9d0-29d4-7df3-8625-4b4515841beb","322EA357F521434C8F534875C027C849-2025-08-17-22-35-31","","null","","[]","null","",""
"","","","","","image-button-response","78","426913","0.0-12.0-1.0-0.7","322EA357F521434C8F534875C027C849","322EA357F521434C8F534875C027C849","0198ba0b-5619-760a-bc82-f31a8b20d17f","0198b9d0-29d4-7df3-8625-4b4515841beb","{""num_scrambled_semantic"":""8"",""num_scrambled_causal"":""4"",""num_scrambled_schematic"":""4"",""participantId"":""322EA357F521434C8F534875C027C849"",""assignmentId"":""0198ba0b-5619-760a-bc82-f31a8b20d17f"",""projectId"":""0198b9d0-29d4-7df3-8625-4b4515841beb""}","https://test12345.live/?num_scrambled_semantic=8&num_scrambled_causal=4&num_scrambled_schematic=4&participantId=322EA357F521434C8F534875C027C849&assignmentId=0198ba0b-5619-760a-bc82-f31a8b20d17f&projectId=0198b9d0-29d4-7df3-8625-4b4515841beb","322EA357F521434C8F534875C027C849-2025-08-17-22-35-31","","null","","images/semantic_sequence/housework_semantic/housework_semantic_8.png","null","",""
"","","","","","image-button-response","79","428110","0.0-12.0-1.0-1.7","322EA357F521434C8F534875C027C849","322EA357F521434C8F534875C027C849","0198ba0b-5619-760a-bc82-f31a8b20d17f","0198b9d0-29d4-7df3-8625-4b4515841beb","{""num_scrambled_semantic"":""8"",""num_scrambled_causal"":""4"",""num_scrambled_schematic"":""4"",""participantId"":""322EA357F521434C8F534875C027C849"",""assignmentId"":""0198ba0b-5619-760a-bc82-f31a8b20d17f"",""projectId"":""0198b9d0-29d4-7df3-8625-4b4515841beb""}","https://test12345.live/?num_scrambled_semantic=8&num_scrambled_causal=4&num_scrambled_schematic=4&participantId=322EA357F521434C8F534875C027C849&assignmentId=0198ba0b-5619-760a-bc82-f31a8b20d17f&projectId=0198b9d0-29d4-7df3-8625-4b4515841beb","322EA357F521434C8F534875C027C849-2025-08-17-22-35-31","","1193","","images/semantic_sequence/housework_semantic/housework_semantic_8.png","0","",""
"","","","","","image-button-response","80","433512","0.0-12.0-1.0-2.7","322EA357F521434C8F534875C027C849","322EA357F521434C8F534875C027C849","0198ba0b-5619-760a-bc82-f31a8b20d17f","0198b9d0-29d4-7df3-8625-4b4515841beb","{""num_scrambled_semantic"":""8"",""num_scrambled_causal"":""4"",""num_scrambled_schematic"":""4"",""participantId"":""322EA357F521434C8F534875C027C849"",""assignmentId"":""0198ba0b-5619-760a-bc82-f31a8b20d17f"",""projectId"":""0198b9d0-29d4-7df3-8625-4b4515841beb""}","https://test12345.live/?num_scrambled_semantic=8&num_scrambled_causal=4&num_scrambled_schematic=4&participantId=322EA357F521434C8F534875C027C849&assignmentId=0198ba0b-5619-760a-bc82-f31a8b20d17f&projectId=0198b9d0-29d4-7df3-8625-4b4515841beb","322EA357F521434C8F534875C027C849-2025-08-17-22-35-31","","null","","[]","null","",""
"","","","","","image-button-response","81","438016","0.0-12.0-1.0-0.8","322EA357F521434C8F534875C027C849","322EA357F521434C8F534875C027C849","0198ba0b-5619-760a-bc82-f31a8b20d17f","0198b9d0-29d4-7df3-8625-4b4515841beb","{""num_scrambled_semantic"":""8"",""num_scrambled_causal"":""4"",""num_scrambled_schematic"":""4"",""participantId"":""322EA357F521434C8F534875C027C849"",""assignmentId"":""0198ba0b-5619-760a-bc82-f31a8b20d17f"",""projectId"":""0198b9d0-29d4-7df3-8625-4b4515841beb""}","https://test12345.live/?num_scrambled_semantic=8&num_scrambled_causal=4&num_scrambled_schematic=4&participantId=322EA357F521434C8F534875C027C849&assignmentId=0198ba0b-5619-760a-bc82-f31a8b20d17f&projectId=0198b9d0-29d4-7df3-8625-4b4515841beb","322EA357F521434C8F534875C027C849-2025-08-17-22-35-31","","null","","images/semantic_sequence/housework_semantic/housework_semantic_6.png","null","",""
"","","","","","image-button-response","82","438735","0.0-12.0-1.0-1.8","322EA357F521434C8F534875C027C849","322EA357F521434C8F534875C027C849","0198ba0b-5619-760a-bc82-f31a8b20d17f","0198b9d0-29d4-7df3-8625-4b4515841beb","{""num_scrambled_semantic"":""8"",""num_scrambled_causal"":""4"",""num_scrambled_schematic"":""4"",""participantId"":""322EA357F521434C8F534875C027C849"",""assignmentId"":""0198ba0b-5619-760a-bc82-f31a8b20d17f"",""projectId"":""0198b9d0-29d4-7df3-8625-4b4515841beb""}","https://test12345.live/?num_scrambled_semantic=8&num_scrambled_causal=4&num_scrambled_schematic=4&participantId=322EA357F521434C8F534875C027C849&assignmentId=0198ba0b-5619-760a-bc82-f31a8b20d17f&projectId=0198b9d0-29d4-7df3-8625-4b4515841beb","322EA357F521434C8F534875C027C849-2025-08-17-22-35-31","","715","","images/semantic_sequence/housework_semantic/housework_semantic_6.png","0","",""
"","","","","","image-button-response","83","444137","0.0-12.0-1.0-2.8","322EA357F521434C8F534875C027C849","322EA357F521434C8F534875C027C849","0198ba0b-5619-760a-bc82-f31a8b20d17f","0198b9d0-29d4-7df3-8625-4b4515841beb","{""num_scrambled_semantic"":""8"",""num_scrambled_causal"":""4"",""num_scrambled_schematic"":""4"",""participantId"":""322EA357F521434C8F534875C027C849"",""assignmentId"":""0198ba0b-5619-760a-bc82-f31a8b20d17f"",""projectId"":""0198b9d0-29d4-7df3-8625-4b4515841beb""}","https://test12345.live/?num_scrambled_semantic=8&num_scrambled_causal=4&num_scrambled_schematic=4&participantId=322EA357F521434C8F534875C027C849&assignmentId=0198ba0b-5619-760a-bc82-f31a8b20d17f&projectId=0198b9d0-29d4-7df3-8625-4b4515841beb","322EA357F521434C8F534875C027C849-2025-08-17-22-35-31","","null","","[]","null","",""
"","","","","","image-button-response","84","448642","0.0-12.0-1.0-0.9","322EA357F521434C8F534875C027C849","322EA357F521434C8F534875C027C849","0198ba0b-5619-760a-bc82-f31a8b20d17f","0198b9d0-29d4-7df3-8625-4b4515841beb","{""num_scrambled_semantic"":""8"",""num_scrambled_causal"":""4"",""num_scrambled_schematic"":""4"",""participantId"":""322EA357F521434C8F534875C027C849"",""assignmentId"":""0198ba0b-5619-760a-bc82-f31a8b20d17f"",""projectId"":""0198b9d0-29d4-7df3-8625-4b4515841beb""}","https://test12345.live/?num_scrambled_semantic=8&num_scrambled_causal=4&num_scrambled_schematic=4&participantId=322EA357F521434C8F534875C027C849&assignmentId=0198ba0b-5619-760a-bc82-f31a8b20d17f&projectId=0198b9d0-29d4-7df3-8625-4b4515841beb","322EA357F521434C8F534875C027C849-2025-08-17-22-35-31","","null","","images/semantic_sequence/housework_semantic/housework_semantic_9.png","null","",""
"","","","","","image-button-response","85","449457","0.0-12.0-1.0-1.9","322EA357F521434C8F534875C027C849","322EA357F521434C8F534875C027C849","0198ba0b-5619-760a-bc82-f31a8b20d17f","0198b9d0-29d4-7df3-8625-4b4515841beb","{""num_scrambled_semantic"":""8"",""num_scrambled_causal"":""4"",""num_scrambled_schematic"":""4"",""participantId"":""322EA357F521434C8F534875C027C849"",""assignmentId"":""0198ba0b-5619-760a-bc82-f31a8b20d17f"",""projectId"":""0198b9d0-29d4-7df3-8625-4b4515841beb""}","https://test12345.live/?num_scrambled_semantic=8&num_scrambled_causal=4&num_scrambled_schematic=4&participantId=322EA357F521434C8F534875C027C849&assignmentId=0198ba0b-5619-760a-bc82-f31a8b20d17f&projectId=0198b9d0-29d4-7df3-8625-4b4515841beb","322EA357F521434C8F534875C027C849-2025-08-17-22-35-31","","811","","images/semantic_sequence/housework_semantic/housework_semantic_9.png","0","",""
"","","","","","image-button-response","86","454859","0.0-12.0-1.0-2.9","322EA357F521434C8F534875C027C849","322EA357F521434C8F534875C027C849","0198ba0b-5619-760a-bc82-f31a8b20d17f","0198b9d0-29d4-7df3-8625-4b4515841beb","{""num_scrambled_semantic"":""8"",""num_scrambled_causal"":""4"",""num_scrambled_schematic"":""4"",""participantId"":""322EA357F521434C8F534875C027C849"",""assignmentId"":""0198ba0b-5619-760a-bc82-f31a8b20d17f"",""projectId"":""0198b9d0-29d4-7df3-8625-4b4515841beb""}","https://test12345.live/?num_scrambled_semantic=8&num_scrambled_causal=4&num_scrambled_schematic=4&participantId=322EA357F521434C8F534875C027C849&assignmentId=0198ba0b-5619-760a-bc82-f31a8b20d17f&projectId=0198b9d0-29d4-7df3-8625-4b4515841beb","322EA357F521434C8F534875C027C849-2025-08-17-22-35-31","","null","","[]","null","",""
"","","","","","html-audio-response","87","465679","0.0-13.0","322EA357F521434C8F534875C027C849","322EA357F521434C8F534875C027C849","0198ba0b-5619-760a-bc82-f31a8b20d17f","0198b9d0-29d4-7df3-8625-4b4515841beb","{""num_scrambled_semantic"":""8"",""num_scrambled_causal"":""4"",""num_scrambled_schematic"":""4"",""participantId"":""322EA357F521434C8F534875C027C849"",""assignmentId"":""0198ba0b-5619-760a-bc82-f31a8b20d17f"",""projectId"":""0198b9d0-29d4-7df3-8625-4b4515841beb""}","https://test12345.live/?num_scrambled_semantic=8&num_scrambled_causal=4&num_scrambled_schematic=4&participantId=322EA357F521434C8F534875C027C849&assignmentId=0198ba0b-5619-760a-bc82-f31a8b20d17f&projectId=0198b9d0-29d4-7df3-8625-4b4515841beb","322EA357F521434C8F534875C027C849-2025-08-17-22-35-31","","9615","","[""<span style=\""color: red; font-size: 24px\""> NOW RECORDING</span><p>Please say out loud all the images you saw, as many as you can remember. The images can be said in any order.</p>""]","","7","housework_semantic"
"","","","","","image-button-response","88","471684","0.0-14.0-0.0","322EA357F521434C8F534875C027C849","322EA357F521434C8F534875C027C849","0198ba0b-5619-760a-bc82-f31a8b20d17f","0198b9d0-29d4-7df3-8625-4b4515841beb","{""num_scrambled_semantic"":""8"",""num_scrambled_causal"":""4"",""num_scrambled_schematic"":""4"",""participantId"":""322EA357F521434C8F534875C027C849"",""assignmentId"":""0198ba0b-5619-760a-bc82-f31a8b20d17f"",""projectId"":""0198b9d0-29d4-7df3-8625-4b4515841beb""}","https://test12345.live/?num_scrambled_semantic=8&num_scrambled_causal=4&num_scrambled_schematic=4&participantId=322EA357F521434C8F534875C027C849&assignmentId=0198ba0b-5619-760a-bc82-f31a8b20d17f&projectId=0198b9d0-29d4-7df3-8625-4b4515841beb","322EA357F521434C8F534875C027C849-2025-08-17-22-35-31","","null","","images/semantic_sequence/cat_care_semantic/cat_care_semantic_0.png","null","",""
"","","","","","image-button-response","89","476188","0.0-14.0-1.0-0.0","322EA357F521434C8F534875C027C849","322EA357F521434C8F534875C027C849","0198ba0b-5619-760a-bc82-f31a8b20d17f","0198b9d0-29d4-7df3-8625-4b4515841beb","{""num_scrambled_semantic"":""8"",""num_scrambled_causal"":""4"",""num_scrambled_schematic"":""4"",""participantId"":""322EA357F521434C8F534875C027C849"",""assignmentId"":""0198ba0b-5619-760a-bc82-f31a8b20d17f"",""projectId"":""0198b9d0-29d4-7df3-8625-4b4515841beb""}","https://test12345.live/?num_scrambled_semantic=8&num_scrambled_causal=4&num_scrambled_schematic=4&participantId=322EA357F521434C8F534875C027C849&assignmentId=0198ba0b-5619-760a-bc82-f31a8b20d17f&projectId=0198b9d0-29d4-7df3-8625-4b4515841beb","322EA357F521434C8F534875C027C849-2025-08-17-22-35-31","","null","","images/semantic_sequence/cat_care_semantic/cat_care_semantic_5.png","null","",""
"","","","","","image-button-response","90","478302","0.0-14.0-1.0-1.0","322EA357F521434C8F534875C027C849","322EA357F521434C8F534875C027C849","0198ba0b-5619-760a-bc82-f31a8b20d17f","0198b9d0-29d4-7df3-8625-4b4515841beb","{""num_scrambled_semantic"":""8"",""num_scrambled_causal"":""4"",""num_scrambled_schematic"":""4"",""participantId"":""322EA357F521434C8F534875C027C849"",""assignmentId"":""0198ba0b-5619-760a-bc82-f31a8b20d17f"",""projectId"":""0198b9d0-29d4-7df3-8625-4b4515841beb""}","https://test12345.live/?num_scrambled_semantic=8&num_scrambled_causal=4&num_scrambled_schematic=4&participantId=322EA357F521434C8F534875C027C849&assignmentId=0198ba0b-5619-760a-bc82-f31a8b20d17f&projectId=0198b9d0-29d4-7df3-8625-4b4515841beb","322EA357F521434C8F534875C027C849-2025-08-17-22-35-31","","2110","","images/semantic_sequence/cat_care_semantic/cat_care_semantic_5.png","1","",""
"","","","","","image-button-response","91","483705","0.0-14.0-1.0-2.0","322EA357F521434C8F534875C027C849","322EA357F521434C8F534875C027C849","0198ba0b-5619-760a-bc82-f31a8b20d17f","0198b9d0-29d4-7df3-8625-4b4515841beb","{""num_scrambled_semantic"":""8"",""num_scrambled_causal"":""4"",""num_scrambled_schematic"":""4"",""participantId"":""322EA357F521434C8F534875C027C849"",""assignmentId"":""0198ba0b-5619-760a-bc82-f31a8b20d17f"",""projectId"":""0198b9d0-29d4-7df3-8625-4b4515841beb""}","https://test12345.live/?num_scrambled_semantic=8&num_scrambled_causal=4&num_scrambled_schematic=4&participantId=322EA357F521434C8F534875C027C849&assignmentId=0198ba0b-5619-760a-bc82-f31a8b20d17f&projectId=0198b9d0-29d4-7df3-8625-4b4515841beb","322EA357F521434C8F534875C027C849-2025-08-17-22-35-31","","null","","[]","null","",""
"","","","","","image-button-response","92","488207","0.0-14.0-1.0-0.1","322EA357F521434C8F534875C027C849","322EA357F521434C8F534875C027C849","0198ba0b-5619-760a-bc82-f31a8b20d17f","0198b9d0-29d4-7df3-8625-4b4515841beb","{""num_scrambled_semantic"":""8"",""num_scrambled_causal"":""4"",""num_scrambled_schematic"":""4"",""participantId"":""322EA357F521434C8F534875C027C849"",""assignmentId"":""0198ba0b-5619-760a-bc82-f31a8b20d17f"",""projectId"":""0198b9d0-29d4-7df3-8625-4b4515841beb""}","https://test12345.live/?num_scrambled_semantic=8&num_scrambled_causal=4&num_scrambled_schematic=4&participantId=322EA357F521434C8F534875C027C849&assignmentId=0198ba0b-5619-760a-bc82-f31a8b20d17f&projectId=0198b9d0-29d4-7df3-8625-4b4515841beb","322EA357F521434C8F534875C027C849-2025-08-17-22-35-31","","null","","images/semantic_sequence/cat_care_semantic/cat_care_semantic_9.png","null","",""
"","","","","","image-button-response","93","489737","0.0-14.0-1.0-1.1","322EA357F521434C8F534875C027C849","322EA357F521434C8F534875C027C849","0198ba0b-5619-760a-bc82-f31a8b20d17f","0198b9d0-29d4-7df3-8625-4b4515841beb","{""num_scrambled_semantic"":""8"",""num_scrambled_causal"":""4"",""num_scrambled_schematic"":""4"",""participantId"":""322EA357F521434C8F534875C027C849"",""assignmentId"":""0198ba0b-5619-760a-bc82-f31a8b20d17f"",""projectId"":""0198b9d0-29d4-7df3-8625-4b4515841beb""}","https://test12345.live/?num_scrambled_semantic=8&num_scrambled_causal=4&num_scrambled_schematic=4&participantId=322EA357F521434C8F534875C027C849&assignmentId=0198ba0b-5619-760a-bc82-f31a8b20d17f&projectId=0198b9d0-29d4-7df3-8625-4b4515841beb","322EA357F521434C8F534875C027C849-2025-08-17-22-35-31","","1527","","images/semantic_sequence/cat_care_semantic/cat_care_semantic_9.png","0","",""
"","","","","","image-button-response","94","495139","0.0-14.0-1.0-2.1","322EA357F521434C8F534875C027C849","322EA357F521434C8F534875C027C849","0198ba0b-5619-760a-bc82-f31a8b20d17f","0198b9d0-29d4-7df3-8625-4b4515841beb","{""num_scrambled_semantic"":""8"",""num_scrambled_causal"":""4"",""num_scrambled_schematic"":""4"",""participantId"":""322EA357F521434C8F534875C027C849"",""assignmentId"":""0198ba0b-5619-760a-bc82-f31a8b20d17f"",""projectId"":""0198b9d0-29d4-7df3-8625-4b4515841beb""}","https://test12345.live/?num_scrambled_semantic=8&num_scrambled_causal=4&num_scrambled_schematic=4&participantId=322EA357F521434C8F534875C027C849&assignmentId=0198ba0b-5619-760a-bc82-f31a8b20d17f&projectId=0198b9d0-29d4-7df3-8625-4b4515841beb","322EA357F521434C8F534875C027C849-2025-08-17-22-35-31","","null","","[]","null","",""
"","","","","","image-button-response","95","499645","0.0-14.0-1.0-0.2","322EA357F521434C8F534875C027C849","322EA357F521434C8F534875C027C849","0198ba0b-5619-760a-bc82-f31a8b20d17f","0198b9d0-29d4-7df3-8625-4b4515841beb","{""num_scrambled_semantic"":""8"",""num_scrambled_causal"":""4"",""num_scrambled_schematic"":""4"",""participantId"":""322EA357F521434C8F534875C027C849"",""assignmentId"":""0198ba0b-5619-760a-bc82-f31a8b20d17f"",""projectId"":""0198b9d0-29d4-7df3-8625-4b4515841beb""}","https://test12345.live/?num_scrambled_semantic=8&num_scrambled_causal=4&num_scrambled_schematic=4&participantId=322EA357F521434C8F534875C027C849&assignmentId=0198ba0b-5619-760a-bc82-f31a8b20d17f&projectId=0198b9d0-29d4-7df3-8625-4b4515841beb","322EA357F521434C8F534875C027C849-2025-08-17-22-35-31","","null","","images/semantic_sequence/cat_care_semantic/cat_care_semantic_6.png","null","",""
"","","","","","image-button-response","96","500654","0.0-14.0-1.0-1.2","322EA357F521434C8F534875C027C849","322EA357F521434C8F534875C027C849","0198ba0b-5619-760a-bc82-f31a8b20d17f","0198b9d0-29d4-7df3-8625-4b4515841beb","{""num_scrambled_semantic"":""8"",""num_scrambled_causal"":""4"",""num_scrambled_schematic"":""4"",""participantId"":""322EA357F521434C8F534875C027C849"",""assignmentId"":""0198ba0b-5619-760a-bc82-f31a8b20d17f"",""projectId"":""0198b9d0-29d4-7df3-8625-4b4515841beb""}","https://test12345.live/?num_scrambled_semantic=8&num_scrambled_causal=4&num_scrambled_schematic=4&participantId=322EA357F521434C8F534875C027C849&assignmentId=0198ba0b-5619-760a-bc82-f31a8b20d17f&projectId=0198b9d0-29d4-7df3-8625-4b4515841beb","322EA357F521434C8F534875C027C849-2025-08-17-22-35-31","","1004","","images/semantic_sequence/cat_care_semantic/cat_care_semantic_6.png","0","",""
"","","","","","image-button-response","97","506056","0.0-14.0-1.0-2.2","322EA357F521434C8F534875C027C849","322EA357F521434C8F534875C027C849","0198ba0b-5619-760a-bc82-f31a8b20d17f","0198b9d0-29d4-7df3-8625-4b4515841beb","{""num_scrambled_semantic"":""8"",""num_scrambled_causal"":""4"",""num_scrambled_schematic"":""4"",""participantId"":""322EA357F521434C8F534875C027C849"",""assignmentId"":""0198ba0b-5619-760a-bc82-f31a8b20d17f"",""projectId"":""0198b9d0-29d4-7df3-8625-4b4515841beb""}","https://test12345.live/?num_scrambled_semantic=8&num_scrambled_causal=4&num_scrambled_schematic=4&participantId=322EA357F521434C8F534875C027C849&assignmentId=0198ba0b-5619-760a-bc82-f31a8b20d17f&projectId=0198b9d0-29d4-7df3-8625-4b4515841beb","322EA357F521434C8F534875C027C849-2025-08-17-22-35-31","","null","","[]","null","",""
"","","","","","image-button-response","98","510561","0.0-14.0-1.0-0.3","322EA357F521434C8F534875C027C849","322EA357F521434C8F534875C027C849","0198ba0b-5619-760a-bc82-f31a8b20d17f","0198b9d0-29d4-7df3-8625-4b4515841beb","{""num_scrambled_semantic"":""8"",""num_scrambled_causal"":""4"",""num_scrambled_schematic"":""4"",""participantId"":""322EA357F521434C8F534875C027C849"",""assignmentId"":""0198ba0b-5619-760a-bc82-f31a8b20d17f"",""projectId"":""0198b9d0-29d4-7df3-8625-4b4515841beb""}","https://test12345.live/?num_scrambled_semantic=8&num_scrambled_causal=4&num_scrambled_schematic=4&participantId=322EA357F521434C8F534875C027C849&assignmentId=0198ba0b-5619-760a-bc82-f31a8b20d17f&projectId=0198b9d0-29d4-7df3-8625-4b4515841beb","322EA357F521434C8F534875C027C849-2025-08-17-22-35-31","","null","","images/semantic_sequence/cat_care_semantic/cat_care_semantic_ten.png","null","",""
"","","","","","image-button-response","99","512597","0.0-14.0-1.0-1.3","322EA357F521434C8F534875C027C849","322EA357F521434C8F534875C027C849","0198ba0b-5619-760a-bc82-f31a8b20d17f","0198b9d0-29d4-7df3-8625-4b4515841beb","{""num_scrambled_semantic"":""8"",""num_scrambled_causal"":""4"",""num_scrambled_schematic"":""4"",""participantId"":""322EA357F521434C8F534875C027C849"",""assignmentId"":""0198ba0b-5619-760a-bc82-f31a8b20d17f"",""projectId"":""0198b9d0-29d4-7df3-8625-4b4515841beb""}","https://test12345.live/?num_scrambled_semantic=8&num_scrambled_causal=4&num_scrambled_schematic=4&participantId=322EA357F521434C8F534875C027C849&assignmentId=0198ba0b-5619-760a-bc82-f31a8b20d17f&projectId=0198b9d0-29d4-7df3-8625-4b4515841beb","322EA357F521434C8F534875C027C849-2025-08-17-22-35-31","","2032","","images/semantic_sequence/cat_care_semantic/cat_care_semantic_ten.png","1","",""
"","","","","","image-button-response","100","518001","0.0-14.0-1.0-2.3","322EA357F521434C8F534875C027C849","322EA357F521434C8F534875C027C849","0198ba0b-5619-760a-bc82-f31a8b20d17f","0198b9d0-29d4-7df3-8625-4b4515841beb","{""num_scrambled_semantic"":""8"",""num_scrambled_causal"":""4"",""num_scrambled_schematic"":""4"",""participantId"":""322EA357F521434C8F534875C027C849"",""assignmentId"":""0198ba0b-5619-760a-bc82-f31a8b20d17f"",""projectId"":""0198b9d0-29d4-7df3-8625-4b4515841beb""}","https://test12345.live/?num_scrambled_semantic=8&num_scrambled_causal=4&num_scrambled_schematic=4&participantId=322EA357F521434C8F534875C027C849&assignmentId=0198ba0b-5619-760a-bc82-f31a8b20d17f&projectId=0198b9d0-29d4-7df3-8625-4b4515841beb","322EA357F521434C8F534875C027C849-2025-08-17-22-35-31","","null","","[]","null","",""
"","","","","","image-button-response","101","522505","0.0-14.0-1.0-0.4","322EA357F521434C8F534875C027C849","322EA357F521434C8F534875C027C849","0198ba0b-5619-760a-bc82-f31a8b20d17f","0198b9d0-29d4-7df3-8625-4b4515841beb","{""num_scrambled_semantic"":""8"",""num_scrambled_causal"":""4"",""num_scrambled_schematic"":""4"",""participantId"":""322EA357F521434C8F534875C027C849"",""assignmentId"":""0198ba0b-5619-760a-bc82-f31a8b20d17f"",""projectId"":""0198b9d0-29d4-7df3-8625-4b4515841beb""}","https://test12345.live/?num_scrambled_semantic=8&num_scrambled_causal=4&num_scrambled_schematic=4&participantId=322EA357F521434C8F534875C027C849&assignmentId=0198ba0b-5619-760a-bc82-f31a8b20d17f&projectId=0198b9d0-29d4-7df3-8625-4b4515841beb","322EA357F521434C8F534875C027C849-2025-08-17-22-35-31","","null","","images/semantic_sequence/cat_care_semantic/cat_care_semantic_1.png","null","",""
"","","","","","image-button-response","102","524276","0.0-14.0-1.0-1.4","322EA357F521434C8F534875C027C849","322EA357F521434C8F534875C027C849","0198ba0b-5619-760a-bc82-f31a8b20d17f","0198b9d0-29d4-7df3-8625-4b4515841beb","{""num_scrambled_semantic"":""8"",""num_scrambled_causal"":""4"",""num_scrambled_schematic"":""4"",""participantId"":""322EA357F521434C8F534875C027C849"",""assignmentId"":""0198ba0b-5619-760a-bc82-f31a8b20d17f"",""projectId"":""0198b9d0-29d4-7df3-8625-4b4515841beb""}","https://test12345.live/?num_scrambled_semantic=8&num_scrambled_causal=4&num_scrambled_schematic=4&participantId=322EA357F521434C8F534875C027C849&assignmentId=0198ba0b-5619-760a-bc82-f31a8b20d17f&projectId=0198b9d0-29d4-7df3-8625-4b4515841beb","322EA357F521434C8F534875C027C849-2025-08-17-22-35-31","","1766","","images/semantic_sequence/cat_care_semantic/cat_care_semantic_1.png","0","",""
"","","","","","image-button-response","103","529678","0.0-14.0-1.0-2.4","322EA357F521434C8F534875C027C849","322EA357F521434C8F534875C027C849","0198ba0b-5619-760a-bc82-f31a8b20d17f","0198b9d0-29d4-7df3-8625-4b4515841beb","{""num_scrambled_semantic"":""8"",""num_scrambled_causal"":""4"",""num_scrambled_schematic"":""4"",""participantId"":""322EA357F521434C8F534875C027C849"",""assignmentId"":""0198ba0b-5619-760a-bc82-f31a8b20d17f"",""projectId"":""0198b9d0-29d4-7df3-8625-4b4515841beb""}","https://test12345.live/?num_scrambled_semantic=8&num_scrambled_causal=4&num_scrambled_schematic=4&participantId=322EA357F521434C8F534875C027C849&assignmentId=0198ba0b-5619-760a-bc82-f31a8b20d17f&projectId=0198b9d0-29d4-7df3-8625-4b4515841beb","322EA357F521434C8F534875C027C849-2025-08-17-22-35-31","","null","","[]","null","",""
"","","","","","image-button-response","104","534185","0.0-14.0-1.0-0.5","322EA357F521434C8F534875C027C849","322EA357F521434C8F534875C027C849","0198ba0b-5619-760a-bc82-f31a8b20d17f","0198b9d0-29d4-7df3-8625-4b4515841beb","{""num_scrambled_semantic"":""8"",""num_scrambled_causal"":""4"",""num_scrambled_schematic"":""4"",""participantId"":""322EA357F521434C8F534875C027C849"",""assignmentId"":""0198ba0b-5619-760a-bc82-f31a8b20d17f"",""projectId"":""0198b9d0-29d4-7df3-8625-4b4515841beb""}","https://test12345.live/?num_scrambled_semantic=8&num_scrambled_causal=4&num_scrambled_schematic=4&participantId=322EA357F521434C8F534875C027C849&assignmentId=0198ba0b-5619-760a-bc82-f31a8b20d17f&projectId=0198b9d0-29d4-7df3-8625-4b4515841beb","322EA357F521434C8F534875C027C849-2025-08-17-22-35-31","","null","","images/semantic_sequence/cat_care_semantic/cat_care_semantic_4.png","null","",""
"","","","","","image-button-response","105","534994","0.0-14.0-1.0-1.5","322EA357F521434C8F534875C027C849","322EA357F521434C8F534875C027C849","0198ba0b-5619-760a-bc82-f31a8b20d17f","0198b9d0-29d4-7df3-8625-4b4515841beb","{""num_scrambled_semantic"":""8"",""num_scrambled_causal"":""4"",""num_scrambled_schematic"":""4"",""participantId"":""322EA357F521434C8F534875C027C849"",""assignmentId"":""0198ba0b-5619-760a-bc82-f31a8b20d17f"",""projectId"":""0198b9d0-29d4-7df3-8625-4b4515841beb""}","https://test12345.live/?num_scrambled_semantic=8&num_scrambled_causal=4&num_scrambled_schematic=4&participantId=322EA357F521434C8F534875C027C849&assignmentId=0198ba0b-5619-760a-bc82-f31a8b20d17f&projectId=0198b9d0-29d4-7df3-8625-4b4515841beb","322EA357F521434C8F534875C027C849-2025-08-17-22-35-31","","806","","images/semantic_sequence/cat_care_semantic/cat_care_semantic_4.png","0","",""
"","","","","","image-button-response","106","540395","0.0-14.0-1.0-2.5","322EA357F521434C8F534875C027C849","322EA357F521434C8F534875C027C849","0198ba0b-5619-760a-bc82-f31a8b20d17f","0198b9d0-29d4-7df3-8625-4b4515841beb","{""num_scrambled_semantic"":""8"",""num_scrambled_causal"":""4"",""num_scrambled_schematic"":""4"",""participantId"":""322EA357F521434C8F534875C027C849"",""assignmentId"":""0198ba0b-5619-760a-bc82-f31a8b20d17f"",""projectId"":""0198b9d0-29d4-7df3-8625-4b4515841beb""}","https://test12345.live/?num_scrambled_semantic=8&num_scrambled_causal=4&num_scrambled_schematic=4&participantId=322EA357F521434C8F534875C027C849&assignmentId=0198ba0b-5619-760a-bc82-f31a8b20d17f&projectId=0198b9d0-29d4-7df3-8625-4b4515841beb","322EA357F521434C8F534875C027C849-2025-08-17-22-35-31","","null","","[]","null","",""
"","","","","","image-button-response","107","544898","0.0-14.0-1.0-0.6","322EA357F521434C8F534875C027C849","322EA357F521434C8F534875C027C849","0198ba0b-5619-760a-bc82-f31a8b20d17f","0198b9d0-29d4-7df3-8625-4b4515841beb","{""num_scrambled_semantic"":""8"",""num_scrambled_causal"":""4"",""num_scrambled_schematic"":""4"",""participantId"":""322EA357F521434C8F534875C027C849"",""assignmentId"":""0198ba0b-5619-760a-bc82-f31a8b20d17f"",""projectId"":""0198b9d0-29d4-7df3-8625-4b4515841beb""}","https://test12345.live/?num_scrambled_semantic=8&num_scrambled_causal=4&num_scrambled_schematic=4&participantId=322EA357F521434C8F534875C027C849&assignmentId=0198ba0b-5619-760a-bc82-f31a8b20d17f&projectId=0198b9d0-29d4-7df3-8625-4b4515841beb","322EA357F521434C8F534875C027C849-2025-08-17-22-35-31","","null","","images/semantic_sequence/cat_care_semantic/cat_care_semantic_2.png","null","",""
"","","","","","image-button-response","108","546396","0.0-14.0-1.0-1.6","322EA357F521434C8F534875C027C849","322EA357F521434C8F534875C027C849","0198ba0b-5619-760a-bc82-f31a8b20d17f","0198b9d0-29d4-7df3-8625-4b4515841beb","{""num_scrambled_semantic"":""8"",""num_scrambled_causal"":""4"",""num_scrambled_schematic"":""4"",""participantId"":""322EA357F521434C8F534875C027C849"",""assignmentId"":""0198ba0b-5619-760a-bc82-f31a8b20d17f"",""projectId"":""0198b9d0-29d4-7df3-8625-4b4515841beb""}","https://test12345.live/?num_scrambled_semantic=8&num_scrambled_causal=4&num_scrambled_schematic=4&participantId=322EA357F521434C8F534875C027C849&assignmentId=0198ba0b-5619-760a-bc82-f31a8b20d17f&projectId=0198b9d0-29d4-7df3-8625-4b4515841beb","322EA357F521434C8F534875C027C849-2025-08-17-22-35-31","","1495","","images/semantic_sequence/cat_care_semantic/cat_care_semantic_2.png","0","",""
"","","","","","image-button-response","109","551798","0.0-14.0-1.0-2.6","322EA357F521434C8F534875C027C849","322EA357F521434C8F534875C027C849","0198ba0b-5619-760a-bc82-f31a8b20d17f","0198b9d0-29d4-7df3-8625-4b4515841beb","{""num_scrambled_semantic"":""8"",""num_scrambled_causal"":""4"",""num_scrambled_schematic"":""4"",""participantId"":""322EA357F521434C8F534875C027C849"",""assignmentId"":""0198ba0b-5619-760a-bc82-f31a8b20d17f"",""projectId"":""0198b9d0-29d4-7df3-8625-4b4515841beb""}","https://test12345.live/?num_scrambled_semantic=8&num_scrambled_causal=4&num_scrambled_schematic=4&participantId=322EA357F521434C8F534875C027C849&assignmentId=0198ba0b-5619-760a-bc82-f31a8b20d17f&projectId=0198b9d0-29d4-7df3-8625-4b4515841beb","322EA357F521434C8F534875C027C849-2025-08-17-22-35-31","","null","","[]","null","",""
"","","","","","image-button-response","110","556302","0.0-14.0-1.0-0.7","322EA357F521434C8F534875C027C849","322EA357F521434C8F534875C027C849","0198ba0b-5619-760a-bc82-f31a8b20d17f","0198b9d0-29d4-7df3-8625-4b4515841beb","{""num_scrambled_semantic"":""8"",""num_scrambled_causal"":""4"",""num_scrambled_schematic"":""4"",""participantId"":""322EA357F521434C8F534875C027C849"",""assignmentId"":""0198ba0b-5619-760a-bc82-f31a8b20d17f"",""projectId"":""0198b9d0-29d4-7df3-8625-4b4515841beb""}","https://test12345.live/?num_scrambled_semantic=8&num_scrambled_causal=4&num_scrambled_schematic=4&participantId=322EA357F521434C8F534875C027C849&assignmentId=0198ba0b-5619-760a-bc82-f31a8b20d17f&projectId=0198b9d0-29d4-7df3-8625-4b4515841beb","322EA357F521434C8F534875C027C849-2025-08-17-22-35-31","","null","","images/semantic_sequence/cat_care_semantic/cat_care_semantic_7.png","null","",""
"","","","","","image-button-response","111","560308","0.0-14.0-1.0-1.7","322EA357F521434C8F534875C027C849","322EA357F521434C8F534875C027C849","0198ba0b-5619-760a-bc82-f31a8b20d17f","0198b9d0-29d4-7df3-8625-4b4515841beb","{""num_scrambled_semantic"":""8"",""num_scrambled_causal"":""4"",""num_scrambled_schematic"":""4"",""participantId"":""322EA357F521434C8F534875C027C849"",""assignmentId"":""0198ba0b-5619-760a-bc82-f31a8b20d17f"",""projectId"":""0198b9d0-29d4-7df3-8625-4b4515841beb""}","https://test12345.live/?num_scrambled_semantic=8&num_scrambled_causal=4&num_scrambled_schematic=4&participantId=322EA357F521434C8F534875C027C849&assignmentId=0198ba0b-5619-760a-bc82-f31a8b20d17f&projectId=0198b9d0-29d4-7df3-8625-4b4515841beb","322EA357F521434C8F534875C027C849-2025-08-17-22-35-31","","null","","images/semantic_sequence/cat_care_semantic/cat_care_semantic_7.png","null","",""
"","","","","","image-button-response","112","565712","0.0-14.0-1.0-2.7","322EA357F521434C8F534875C027C849","322EA357F521434C8F534875C027C849","0198ba0b-5619-760a-bc82-f31a8b20d17f","0198b9d0-29d4-7df3-8625-4b4515841beb","{""num_scrambled_semantic"":""8"",""num_scrambled_causal"":""4"",""num_scrambled_schematic"":""4"",""participantId"":""322EA357F521434C8F534875C027C849"",""assignmentId"":""0198ba0b-5619-760a-bc82-f31a8b20d17f"",""projectId"":""0198b9d0-29d4-7df3-8625-4b4515841beb""}","https://test12345.live/?num_scrambled_semantic=8&num_scrambled_causal=4&num_scrambled_schematic=4&participantId=322EA357F521434C8F534875C027C849&assignmentId=0198ba0b-5619-760a-bc82-f31a8b20d17f&projectId=0198b9d0-29d4-7df3-8625-4b4515841beb","322EA357F521434C8F534875C027C849-2025-08-17-22-35-31","","null","","[]","null","",""
"","","","","","image-button-response","113","570216","0.0-14.0-1.0-0.8","322EA357F521434C8F534875C027C849","322EA357F521434C8F534875C027C849","0198ba0b-5619-760a-bc82-f31a8b20d17f","0198b9d0-29d4-7df3-8625-4b4515841beb","{""num_scrambled_semantic"":""8"",""num_scrambled_causal"":""4"",""num_scrambled_schematic"":""4"",""participantId"":""322EA357F521434C8F534875C027C849"",""assignmentId"":""0198ba0b-5619-760a-bc82-f31a8b20d17f"",""projectId"":""0198b9d0-29d4-7df3-8625-4b4515841beb""}","https://test12345.live/?num_scrambled_semantic=8&num_scrambled_causal=4&num_scrambled_schematic=4&participantId=322EA357F521434C8F534875C027C849&assignmentId=0198ba0b-5619-760a-bc82-f31a8b20d17f&projectId=0198b9d0-29d4-7df3-8625-4b4515841beb","322EA357F521434C8F534875C027C849-2025-08-17-22-35-31","","null","","images/semantic_sequence/cat_care_semantic/cat_care_semantic_3.png","null","",""
