"success","timeout","failed_images","failed_audio","failed_video","trial_type","trial_index","time_elapsed","internal_node_id","subject","subject_id","study_id","session_id","urlvar","current_url","audio_id","view_history","rt","device_id","stimulus","response","estimated_stimulus_onset","seq_name"
"true","false","[]","[]","[]","preload","0","29220","0.0-0.0","32A64E3242154F8A8592D9409928953F","32A64E3242154F8A8592D9409928953F","63d2df0b-1911-4a17-9553-73f03d5e400b","a0a8f18c-a66e-4ba7-a170-23efbdc67501","{""participantId"":""32A64E3242154F8A8592D9409928953F"",""assignmentId"":""63d2df0b-1911-4a17-9553-73f03d5e400b"",""projectId"":""a0a8f18c-a66e-4ba7-a170-23efbdc67501""}","https://test12345.live/?participantId=32A64E3242154F8A8592D9409928953F&assignmentId=63d2df0b-1911-4a17-9553-73f03d5e400b&projectId=a0a8f18c-a66e-4ba7-a170-23efbdc67501","32A64E3242154F8A8592D9409928953F-2024-11-24-18-52-13","","","","","","",""
"","","","","","instructions","1","93997","0.0-1.0","32A64E3242154F8A8592D9409928953F","32A64E3242154F8A8592D9409928953F","63d2df0b-1911-4a17-9553-73f03d5e400b","a0a8f18c-a66e-4ba7-a170-23efbdc67501","{""participantId"":""32A64E3242154F8A8592D9409928953F"",""assignmentId"":""63d2df0b-1911-4a17-9553-73f03d5e400b"",""projectId"":""a0a8f18c-a66e-4ba7-a170-23efbdc67501""}","https://test12345.live/?participantId=32A64E3242154F8A8592D9409928953F&assignmentId=63d2df0b-1911-4a17-9553-73f03d5e400b&projectId=a0a8f18c-a66e-4ba7-a170-23efbdc67501","32A64E3242154F8A8592D9409928953F-2024-11-24-18-52-13","[{""page_index"":0,""viewing_time"":64775}]","64775","","","","",""
"","","","","","instructions","2","109359","0.0-2.0","32A64E3242154F8A8592D9409928953F","32A64E3242154F8A8592D9409928953F","63d2df0b-1911-4a17-9553-73f03d5e400b","a0a8f18c-a66e-4ba7-a170-23efbdc67501","{""participantId"":""32A64E3242154F8A8592D9409928953F"",""assignmentId"":""63d2df0b-1911-4a17-9553-73f03d5e400b"",""projectId"":""a0a8f18c-a66e-4ba7-a170-23efbdc67501""}","https://test12345.live/?participantId=32A64E3242154F8A8592D9409928953F&assignmentId=63d2df0b-1911-4a17-9553-73f03d5e400b&projectId=a0a8f18c-a66e-4ba7-a170-23efbdc67501","32A64E3242154F8A8592D9409928953F-2024-11-24-18-52-13","[{""page_index"":0,""viewing_time"":15360}]","15360","","","","",""
"true","","","","","fullscreen","3","112830","0.0-3.0","32A64E3242154F8A8592D9409928953F","32A64E3242154F8A8592D9409928953F","63d2df0b-1911-4a17-9553-73f03d5e400b","a0a8f18c-a66e-4ba7-a170-23efbdc67501","{""participantId"":""32A64E3242154F8A8592D9409928953F"",""assignmentId"":""63d2df0b-1911-4a17-9553-73f03d5e400b"",""projectId"":""a0a8f18c-a66e-4ba7-a170-23efbdc67501""}","https://test12345.live/?participantId=32A64E3242154F8A8592D9409928953F&assignmentId=63d2df0b-1911-4a17-9553-73f03d5e400b&projectId=a0a8f18c-a66e-4ba7-a170-23efbdc67501","32A64E3242154F8A8592D9409928953F-2024-11-24-18-52-13","","2465","","","","",""
"","","","","","initialize-microphone","4","166895","0.0-4.0-0.0","32A64E3242154F8A8592D9409928953F","32A64E3242154F8A8592D9409928953F","63d2df0b-1911-4a17-9553-73f03d5e400b","a0a8f18c-a66e-4ba7-a170-23efbdc67501","{""participantId"":""32A64E3242154F8A8592D9409928953F"",""assignmentId"":""63d2df0b-1911-4a17-9553-73f03d5e400b"",""projectId"":""a0a8f18c-a66e-4ba7-a170-23efbdc67501""}","https://test12345.live/?participantId=32A64E3242154F8A8592D9409928953F&assignmentId=63d2df0b-1911-4a17-9553-73f03d5e400b&projectId=a0a8f18c-a66e-4ba7-a170-23efbdc67501","32A64E3242154F8A8592D9409928953F-2024-11-24-18-52-13","","","a2e4cca54aca0355083a20f44a05e48bda8080c6cda77a354f38412cb8d3848d","","","",""
"","","","","","html-audio-response","5","188068","0.0-4.0-1.0","32A64E3242154F8A8592D9409928953F","32A64E3242154F8A8592D9409928953F","63d2df0b-1911-4a17-9553-73f03d5e400b","a0a8f18c-a66e-4ba7-a170-23efbdc67501","{""participantId"":""32A64E3242154F8A8592D9409928953F"",""assignmentId"":""63d2df0b-1911-4a17-9553-73f03d5e400b"",""projectId"":""a0a8f18c-a66e-4ba7-a170-23efbdc67501""}","https://test12345.live/?participantId=32A64E3242154F8A8592D9409928953F&assignmentId=63d2df0b-1911-4a17-9553-73f03d5e400b&projectId=a0a8f18c-a66e-4ba7-a170-23efbdc67501","32A64E3242154F8A8592D9409928953F-2024-11-24-18-52-13","","2172","","<span style=""color: red; font-size: 24px""> NOW RECORDING</span>
        <p>Please test Microphone</p>","","11",""
"","","","","","html-button-response","6","191180","0.0-4.0-2.0","32A64E3242154F8A8592D9409928953F","32A64E3242154F8A8592D9409928953F","63d2df0b-1911-4a17-9553-73f03d5e400b","a0a8f18c-a66e-4ba7-a170-23efbdc67501","{""participantId"":""32A64E3242154F8A8592D9409928953F"",""assignmentId"":""63d2df0b-1911-4a17-9553-73f03d5e400b"",""projectId"":""a0a8f18c-a66e-4ba7-a170-23efbdc67501""}","https://test12345.live/?participantId=32A64E3242154F8A8592D9409928953F&assignmentId=63d2df0b-1911-4a17-9553-73f03d5e400b&projectId=a0a8f18c-a66e-4ba7-a170-23efbdc67501","32A64E3242154F8A8592D9409928953F-2024-11-24-18-52-13","","3111","","<p style=""font-size:48px; color:red;"">Is Microphone OK?</p>","1","",""
"","","","","","instructions","7","237908","0.0-5.0","32A64E3242154F8A8592D9409928953F","32A64E3242154F8A8592D9409928953F","63d2df0b-1911-4a17-9553-73f03d5e400b","a0a8f18c-a66e-4ba7-a170-23efbdc67501","{""participantId"":""32A64E3242154F8A8592D9409928953F"",""assignmentId"":""63d2df0b-1911-4a17-9553-73f03d5e400b"",""projectId"":""a0a8f18c-a66e-4ba7-a170-23efbdc67501""}","https://test12345.live/?participantId=32A64E3242154F8A8592D9409928953F&assignmentId=63d2df0b-1911-4a17-9553-73f03d5e400b&projectId=a0a8f18c-a66e-4ba7-a170-23efbdc67501","32A64E3242154F8A8592D9409928953F-2024-11-24-18-52-13","[{""page_index"":0,""viewing_time"":36347},{""page_index"":1,""viewing_time"":10380}]","46728","","","","",""
"","","","","","image-button-response","8","243931","0.0-6.0-0.0","32A64E3242154F8A8592D9409928953F","32A64E3242154F8A8592D9409928953F","63d2df0b-1911-4a17-9553-73f03d5e400b","a0a8f18c-a66e-4ba7-a170-23efbdc67501","{""participantId"":""32A64E3242154F8A8592D9409928953F"",""assignmentId"":""63d2df0b-1911-4a17-9553-73f03d5e400b"",""projectId"":""a0a8f18c-a66e-4ba7-a170-23efbdc67501""}","https://test12345.live/?participantId=32A64E3242154F8A8592D9409928953F&assignmentId=63d2df0b-1911-4a17-9553-73f03d5e400b&projectId=a0a8f18c-a66e-4ba7-a170-23efbdc67501","32A64E3242154F8A8592D9409928953F-2024-11-24-18-52-13","","null","","images/instructions/movie_0.png","null","",""
"","","","","","image-button-response","9","248451","0.0-6.0-1.0-0.0","32A64E3242154F8A8592D9409928953F","32A64E3242154F8A8592D9409928953F","63d2df0b-1911-4a17-9553-73f03d5e400b","a0a8f18c-a66e-4ba7-a170-23efbdc67501","{""participantId"":""32A64E3242154F8A8592D9409928953F"",""assignmentId"":""63d2df0b-1911-4a17-9553-73f03d5e400b"",""projectId"":""a0a8f18c-a66e-4ba7-a170-23efbdc67501""}","https://test12345.live/?participantId=32A64E3242154F8A8592D9409928953F&assignmentId=63d2df0b-1911-4a17-9553-73f03d5e400b&projectId=a0a8f18c-a66e-4ba7-a170-23efbdc67501","32A64E3242154F8A8592D9409928953F-2024-11-24-18-52-13","","null","","images/instructions/movie_1.png","null","",""
"","","","","","image-button-response","10","252471","0.0-6.0-1.0-1.0","32A64E3242154F8A8592D9409928953F","32A64E3242154F8A8592D9409928953F","63d2df0b-1911-4a17-9553-73f03d5e400b","a0a8f18c-a66e-4ba7-a170-23efbdc67501","{""participantId"":""32A64E3242154F8A8592D9409928953F"",""assignmentId"":""63d2df0b-1911-4a17-9553-73f03d5e400b"",""projectId"":""a0a8f18c-a66e-4ba7-a170-23efbdc67501""}","https://test12345.live/?participantId=32A64E3242154F8A8592D9409928953F&assignmentId=63d2df0b-1911-4a17-9553-73f03d5e400b&projectId=a0a8f18c-a66e-4ba7-a170-23efbdc67501","32A64E3242154F8A8592D9409928953F-2024-11-24-18-52-13","","null","","images/instructions/movie_1.png","null","",""
"","","","","","image-button-response","11","254291","0.0-6.0-1.0-2.0","32A64E3242154F8A8592D9409928953F","32A64E3242154F8A8592D9409928953F","63d2df0b-1911-4a17-9553-73f03d5e400b","a0a8f18c-a66e-4ba7-a170-23efbdc67501","{""participantId"":""32A64E3242154F8A8592D9409928953F"",""assignmentId"":""63d2df0b-1911-4a17-9553-73f03d5e400b"",""projectId"":""a0a8f18c-a66e-4ba7-a170-23efbdc67501""}","https://test12345.live/?participantId=32A64E3242154F8A8592D9409928953F&assignmentId=63d2df0b-1911-4a17-9553-73f03d5e400b&projectId=a0a8f18c-a66e-4ba7-a170-23efbdc67501","32A64E3242154F8A8592D9409928953F-2024-11-24-18-52-13","","null","","[]","null","",""
"","","","","","image-button-response","12","258801","0.0-6.0-1.0-0.1","32A64E3242154F8A8592D9409928953F","32A64E3242154F8A8592D9409928953F","63d2df0b-1911-4a17-9553-73f03d5e400b","a0a8f18c-a66e-4ba7-a170-23efbdc67501","{""participantId"":""32A64E3242154F8A8592D9409928953F"",""assignmentId"":""63d2df0b-1911-4a17-9553-73f03d5e400b"",""projectId"":""a0a8f18c-a66e-4ba7-a170-23efbdc67501""}","https://test12345.live/?participantId=32A64E3242154F8A8592D9409928953F&assignmentId=63d2df0b-1911-4a17-9553-73f03d5e400b&projectId=a0a8f18c-a66e-4ba7-a170-23efbdc67501","32A64E3242154F8A8592D9409928953F-2024-11-24-18-52-13","","null","","images/instructions/movie_2.png","null","",""
"","","","","","image-button-response","13","259929","0.0-6.0-1.0-1.1","32A64E3242154F8A8592D9409928953F","32A64E3242154F8A8592D9409928953F","63d2df0b-1911-4a17-9553-73f03d5e400b","a0a8f18c-a66e-4ba7-a170-23efbdc67501","{""participantId"":""32A64E3242154F8A8592D9409928953F"",""assignmentId"":""63d2df0b-1911-4a17-9553-73f03d5e400b"",""projectId"":""a0a8f18c-a66e-4ba7-a170-23efbdc67501""}","https://test12345.live/?participantId=32A64E3242154F8A8592D9409928953F&assignmentId=63d2df0b-1911-4a17-9553-73f03d5e400b&projectId=a0a8f18c-a66e-4ba7-a170-23efbdc67501","32A64E3242154F8A8592D9409928953F-2024-11-24-18-52-13","","1125","","images/instructions/movie_2.png","0","",""
"","","","","","image-button-response","14","261741","0.0-6.0-1.0-2.1","32A64E3242154F8A8592D9409928953F","32A64E3242154F8A8592D9409928953F","63d2df0b-1911-4a17-9553-73f03d5e400b","a0a8f18c-a66e-4ba7-a170-23efbdc67501","{""participantId"":""32A64E3242154F8A8592D9409928953F"",""assignmentId"":""63d2df0b-1911-4a17-9553-73f03d5e400b"",""projectId"":""a0a8f18c-a66e-4ba7-a170-23efbdc67501""}","https://test12345.live/?participantId=32A64E3242154F8A8592D9409928953F&assignmentId=63d2df0b-1911-4a17-9553-73f03d5e400b&projectId=a0a8f18c-a66e-4ba7-a170-23efbdc67501","32A64E3242154F8A8592D9409928953F-2024-11-24-18-52-13","","null","","[]","null","",""
"","","","","","image-button-response","15","266251","0.0-6.0-1.0-0.2","32A64E3242154F8A8592D9409928953F","32A64E3242154F8A8592D9409928953F","63d2df0b-1911-4a17-9553-73f03d5e400b","a0a8f18c-a66e-4ba7-a170-23efbdc67501","{""participantId"":""32A64E3242154F8A8592D9409928953F"",""assignmentId"":""63d2df0b-1911-4a17-9553-73f03d5e400b"",""projectId"":""a0a8f18c-a66e-4ba7-a170-23efbdc67501""}","https://test12345.live/?participantId=32A64E3242154F8A8592D9409928953F&assignmentId=63d2df0b-1911-4a17-9553-73f03d5e400b&projectId=a0a8f18c-a66e-4ba7-a170-23efbdc67501","32A64E3242154F8A8592D9409928953F-2024-11-24-18-52-13","","null","","images/instructions/movie_3.png","null","",""
"","","","","","image-button-response","16","267515","0.0-6.0-1.0-1.2","32A64E3242154F8A8592D9409928953F","32A64E3242154F8A8592D9409928953F","63d2df0b-1911-4a17-9553-73f03d5e400b","a0a8f18c-a66e-4ba7-a170-23efbdc67501","{""participantId"":""32A64E3242154F8A8592D9409928953F"",""assignmentId"":""63d2df0b-1911-4a17-9553-73f03d5e400b"",""projectId"":""a0a8f18c-a66e-4ba7-a170-23efbdc67501""}","https://test12345.live/?participantId=32A64E3242154F8A8592D9409928953F&assignmentId=63d2df0b-1911-4a17-9553-73f03d5e400b&projectId=a0a8f18c-a66e-4ba7-a170-23efbdc67501","32A64E3242154F8A8592D9409928953F-2024-11-24-18-52-13","","1261","","images/instructions/movie_3.png","0","",""
"","","","","","image-button-response","17","269331","0.0-6.0-1.0-2.2","32A64E3242154F8A8592D9409928953F","32A64E3242154F8A8592D9409928953F","63d2df0b-1911-4a17-9553-73f03d5e400b","a0a8f18c-a66e-4ba7-a170-23efbdc67501","{""participantId"":""32A64E3242154F8A8592D9409928953F"",""assignmentId"":""63d2df0b-1911-4a17-9553-73f03d5e400b"",""projectId"":""a0a8f18c-a66e-4ba7-a170-23efbdc67501""}","https://test12345.live/?participantId=32A64E3242154F8A8592D9409928953F&assignmentId=63d2df0b-1911-4a17-9553-73f03d5e400b&projectId=a0a8f18c-a66e-4ba7-a170-23efbdc67501","32A64E3242154F8A8592D9409928953F-2024-11-24-18-52-13","","null","","[]","null","",""
"","","","","","image-button-response","18","273841","0.0-6.0-1.0-0.3","32A64E3242154F8A8592D9409928953F","32A64E3242154F8A8592D9409928953F","63d2df0b-1911-4a17-9553-73f03d5e400b","a0a8f18c-a66e-4ba7-a170-23efbdc67501","{""participantId"":""32A64E3242154F8A8592D9409928953F"",""assignmentId"":""63d2df0b-1911-4a17-9553-73f03d5e400b"",""projectId"":""a0a8f18c-a66e-4ba7-a170-23efbdc67501""}","https://test12345.live/?participantId=32A64E3242154F8A8592D9409928953F&assignmentId=63d2df0b-1911-4a17-9553-73f03d5e400b&projectId=a0a8f18c-a66e-4ba7-a170-23efbdc67501","32A64E3242154F8A8592D9409928953F-2024-11-24-18-52-13","","null","","images/instructions/movie_4.png","null","",""
"","","","","","image-button-response","19","274997","0.0-6.0-1.0-1.3","32A64E3242154F8A8592D9409928953F","32A64E3242154F8A8592D9409928953F","63d2df0b-1911-4a17-9553-73f03d5e400b","a0a8f18c-a66e-4ba7-a170-23efbdc67501","{""participantId"":""32A64E3242154F8A8592D9409928953F"",""assignmentId"":""63d2df0b-1911-4a17-9553-73f03d5e400b"",""projectId"":""a0a8f18c-a66e-4ba7-a170-23efbdc67501""}","https://test12345.live/?participantId=32A64E3242154F8A8592D9409928953F&assignmentId=63d2df0b-1911-4a17-9553-73f03d5e400b&projectId=a0a8f18c-a66e-4ba7-a170-23efbdc67501","32A64E3242154F8A8592D9409928953F-2024-11-24-18-52-13","","1153","","images/instructions/movie_4.png","0","",""
"","","","","","image-button-response","20","276811","0.0-6.0-1.0-2.3","32A64E3242154F8A8592D9409928953F","32A64E3242154F8A8592D9409928953F","63d2df0b-1911-4a17-9553-73f03d5e400b","a0a8f18c-a66e-4ba7-a170-23efbdc67501","{""participantId"":""32A64E3242154F8A8592D9409928953F"",""assignmentId"":""63d2df0b-1911-4a17-9553-73f03d5e400b"",""projectId"":""a0a8f18c-a66e-4ba7-a170-23efbdc67501""}","https://test12345.live/?participantId=32A64E3242154F8A8592D9409928953F&assignmentId=63d2df0b-1911-4a17-9553-73f03d5e400b&projectId=a0a8f18c-a66e-4ba7-a170-23efbdc67501","32A64E3242154F8A8592D9409928953F-2024-11-24-18-52-13","","null","","[]","null","",""
"","","","","","instructions","21","326225","0.0-7.0","32A64E3242154F8A8592D9409928953F","32A64E3242154F8A8592D9409928953F","63d2df0b-1911-4a17-9553-73f03d5e400b","a0a8f18c-a66e-4ba7-a170-23efbdc67501","{""participantId"":""32A64E3242154F8A8592D9409928953F"",""assignmentId"":""63d2df0b-1911-4a17-9553-73f03d5e400b"",""projectId"":""a0a8f18c-a66e-4ba7-a170-23efbdc67501""}","https://test12345.live/?participantId=32A64E3242154F8A8592D9409928953F&assignmentId=63d2df0b-1911-4a17-9553-73f03d5e400b&projectId=a0a8f18c-a66e-4ba7-a170-23efbdc67501","32A64E3242154F8A8592D9409928953F-2024-11-24-18-52-13","[{""page_index"":0,""viewing_time"":47739},{""page_index"":1,""viewing_time"":1674}]","49413","","","","",""
"","","","","","html-audio-response","22","358156","0.0-8.0","32A64E3242154F8A8592D9409928953F","32A64E3242154F8A8592D9409928953F","63d2df0b-1911-4a17-9553-73f03d5e400b","a0a8f18c-a66e-4ba7-a170-23efbdc67501","{""participantId"":""32A64E3242154F8A8592D9409928953F"",""assignmentId"":""63d2df0b-1911-4a17-9553-73f03d5e400b"",""projectId"":""a0a8f18c-a66e-4ba7-a170-23efbdc67501""}","https://test12345.live/?participantId=32A64E3242154F8A8592D9409928953F&assignmentId=63d2df0b-1911-4a17-9553-73f03d5e400b&projectId=a0a8f18c-a66e-4ba7-a170-23efbdc67501","32A64E3242154F8A8592D9409928953F-2024-11-24-18-52-13","","2439","","[""<span style=\""color: red; font-size: 24px\""> NOW RECORDING</span><p>Please say out loud all the images you saw, as many as you can remember. The images can be said in any order.</p>""]","","3",""
"","","","","","instructions","23","414141","0.0-9.0","32A64E3242154F8A8592D9409928953F","32A64E3242154F8A8592D9409928953F","63d2df0b-1911-4a17-9553-73f03d5e400b","a0a8f18c-a66e-4ba7-a170-23efbdc67501","{""participantId"":""32A64E3242154F8A8592D9409928953F"",""assignmentId"":""63d2df0b-1911-4a17-9553-73f03d5e400b"",""projectId"":""a0a8f18c-a66e-4ba7-a170-23efbdc67501""}","https://test12345.live/?participantId=32A64E3242154F8A8592D9409928953F&assignmentId=63d2df0b-1911-4a17-9553-73f03d5e400b&projectId=a0a8f18c-a66e-4ba7-a170-23efbdc67501","32A64E3242154F8A8592D9409928953F-2024-11-24-18-52-13","[{""page_index"":0,""viewing_time"":55980}]","55980","","","","",""
"","","","","","image-button-response","24","420153","0.0-10.0-0.0","32A64E3242154F8A8592D9409928953F","32A64E3242154F8A8592D9409928953F","63d2df0b-1911-4a17-9553-73f03d5e400b","a0a8f18c-a66e-4ba7-a170-23efbdc67501","{""participantId"":""32A64E3242154F8A8592D9409928953F"",""assignmentId"":""63d2df0b-1911-4a17-9553-73f03d5e400b"",""projectId"":""a0a8f18c-a66e-4ba7-a170-23efbdc67501""}","https://test12345.live/?participantId=32A64E3242154F8A8592D9409928953F&assignmentId=63d2df0b-1911-4a17-9553-73f03d5e400b&projectId=a0a8f18c-a66e-4ba7-a170-23efbdc67501","32A64E3242154F8A8592D9409928953F-2024-11-24-18-52-13","","null","","images/causal_sequence/dog_causal/dog_causal_0.png","null","",""
"","","","","","image-button-response","25","424665","0.0-10.0-1.0-0.0","32A64E3242154F8A8592D9409928953F","32A64E3242154F8A8592D9409928953F","63d2df0b-1911-4a17-9553-73f03d5e400b","a0a8f18c-a66e-4ba7-a170-23efbdc67501","{""participantId"":""32A64E3242154F8A8592D9409928953F"",""assignmentId"":""63d2df0b-1911-4a17-9553-73f03d5e400b"",""projectId"":""a0a8f18c-a66e-4ba7-a170-23efbdc67501""}","https://test12345.live/?participantId=32A64E3242154F8A8592D9409928953F&assignmentId=63d2df0b-1911-4a17-9553-73f03d5e400b&projectId=a0a8f18c-a66e-4ba7-a170-23efbdc67501","32A64E3242154F8A8592D9409928953F-2024-11-24-18-52-13","","null","","images/causal_sequence/dog_causal/dog_causal_1.png","null","",""
"","","","","","image-button-response","26","425781","0.0-10.0-1.0-1.0","32A64E3242154F8A8592D9409928953F","32A64E3242154F8A8592D9409928953F","63d2df0b-1911-4a17-9553-73f03d5e400b","a0a8f18c-a66e-4ba7-a170-23efbdc67501","{""participantId"":""32A64E3242154F8A8592D9409928953F"",""assignmentId"":""63d2df0b-1911-4a17-9553-73f03d5e400b"",""projectId"":""a0a8f18c-a66e-4ba7-a170-23efbdc67501""}","https://test12345.live/?participantId=32A64E3242154F8A8592D9409928953F&assignmentId=63d2df0b-1911-4a17-9553-73f03d5e400b&projectId=a0a8f18c-a66e-4ba7-a170-23efbdc67501","32A64E3242154F8A8592D9409928953F-2024-11-24-18-52-13","","1114","","images/causal_sequence/dog_causal/dog_causal_1.png","0","",""
"","","","","","image-button-response","27","427598","0.0-10.0-1.0-2.0","32A64E3242154F8A8592D9409928953F","32A64E3242154F8A8592D9409928953F","63d2df0b-1911-4a17-9553-73f03d5e400b","a0a8f18c-a66e-4ba7-a170-23efbdc67501","{""participantId"":""32A64E3242154F8A8592D9409928953F"",""assignmentId"":""63d2df0b-1911-4a17-9553-73f03d5e400b"",""projectId"":""a0a8f18c-a66e-4ba7-a170-23efbdc67501""}","https://test12345.live/?participantId=32A64E3242154F8A8592D9409928953F&assignmentId=63d2df0b-1911-4a17-9553-73f03d5e400b&projectId=a0a8f18c-a66e-4ba7-a170-23efbdc67501","32A64E3242154F8A8592D9409928953F-2024-11-24-18-52-13","","null","","[]","null","",""
"","","","","","image-button-response","28","432103","0.0-10.0-1.0-0.1","32A64E3242154F8A8592D9409928953F","32A64E3242154F8A8592D9409928953F","63d2df0b-1911-4a17-9553-73f03d5e400b","a0a8f18c-a66e-4ba7-a170-23efbdc67501","{""participantId"":""32A64E3242154F8A8592D9409928953F"",""assignmentId"":""63d2df0b-1911-4a17-9553-73f03d5e400b"",""projectId"":""a0a8f18c-a66e-4ba7-a170-23efbdc67501""}","https://test12345.live/?participantId=32A64E3242154F8A8592D9409928953F&assignmentId=63d2df0b-1911-4a17-9553-73f03d5e400b&projectId=a0a8f18c-a66e-4ba7-a170-23efbdc67501","32A64E3242154F8A8592D9409928953F-2024-11-24-18-52-13","","null","","images/causal_sequence/dog_causal/dog_causal_2.png","null","",""
"","","","","","image-button-response","29","433063","0.0-10.0-1.0-1.1","32A64E3242154F8A8592D9409928953F","32A64E3242154F8A8592D9409928953F","63d2df0b-1911-4a17-9553-73f03d5e400b","a0a8f18c-a66e-4ba7-a170-23efbdc67501","{""participantId"":""32A64E3242154F8A8592D9409928953F"",""assignmentId"":""63d2df0b-1911-4a17-9553-73f03d5e400b"",""projectId"":""a0a8f18c-a66e-4ba7-a170-23efbdc67501""}","https://test12345.live/?participantId=32A64E3242154F8A8592D9409928953F&assignmentId=63d2df0b-1911-4a17-9553-73f03d5e400b&projectId=a0a8f18c-a66e-4ba7-a170-23efbdc67501","32A64E3242154F8A8592D9409928953F-2024-11-24-18-52-13","","957","","images/causal_sequence/dog_causal/dog_causal_2.png","0","",""
"","","","","","image-button-response","30","434883","0.0-10.0-1.0-2.1","32A64E3242154F8A8592D9409928953F","32A64E3242154F8A8592D9409928953F","63d2df0b-1911-4a17-9553-73f03d5e400b","a0a8f18c-a66e-4ba7-a170-23efbdc67501","{""participantId"":""32A64E3242154F8A8592D9409928953F"",""assignmentId"":""63d2df0b-1911-4a17-9553-73f03d5e400b"",""projectId"":""a0a8f18c-a66e-4ba7-a170-23efbdc67501""}","https://test12345.live/?participantId=32A64E3242154F8A8592D9409928953F&assignmentId=63d2df0b-1911-4a17-9553-73f03d5e400b&projectId=a0a8f18c-a66e-4ba7-a170-23efbdc67501","32A64E3242154F8A8592D9409928953F-2024-11-24-18-52-13","","null","","[]","null","",""
"","","","","","image-button-response","31","439403","0.0-10.0-1.0-0.2","32A64E3242154F8A8592D9409928953F","32A64E3242154F8A8592D9409928953F","63d2df0b-1911-4a17-9553-73f03d5e400b","a0a8f18c-a66e-4ba7-a170-23efbdc67501","{""participantId"":""32A64E3242154F8A8592D9409928953F"",""assignmentId"":""63d2df0b-1911-4a17-9553-73f03d5e400b"",""projectId"":""a0a8f18c-a66e-4ba7-a170-23efbdc67501""}","https://test12345.live/?participantId=32A64E3242154F8A8592D9409928953F&assignmentId=63d2df0b-1911-4a17-9553-73f03d5e400b&projectId=a0a8f18c-a66e-4ba7-a170-23efbdc67501","32A64E3242154F8A8592D9409928953F-2024-11-24-18-52-13","","null","","images/causal_sequence/dog_causal/dog_causal_3.png","null","",""
"","","","","","image-button-response","32","440247","0.0-10.0-1.0-1.2","32A64E3242154F8A8592D9409928953F","32A64E3242154F8A8592D9409928953F","63d2df0b-1911-4a17-9553-73f03d5e400b","a0a8f18c-a66e-4ba7-a170-23efbdc67501","{""participantId"":""32A64E3242154F8A8592D9409928953F"",""assignmentId"":""63d2df0b-1911-4a17-9553-73f03d5e400b"",""projectId"":""a0a8f18c-a66e-4ba7-a170-23efbdc67501""}","https://test12345.live/?participantId=32A64E3242154F8A8592D9409928953F&assignmentId=63d2df0b-1911-4a17-9553-73f03d5e400b&projectId=a0a8f18c-a66e-4ba7-a170-23efbdc67501","32A64E3242154F8A8592D9409928953F-2024-11-24-18-52-13","","841","","images/causal_sequence/dog_causal/dog_causal_3.png","0","",""
"","","","","","image-button-response","33","442063","0.0-10.0-1.0-2.2","32A64E3242154F8A8592D9409928953F","32A64E3242154F8A8592D9409928953F","63d2df0b-1911-4a17-9553-73f03d5e400b","a0a8f18c-a66e-4ba7-a170-23efbdc67501","{""participantId"":""32A64E3242154F8A8592D9409928953F"",""assignmentId"":""63d2df0b-1911-4a17-9553-73f03d5e400b"",""projectId"":""a0a8f18c-a66e-4ba7-a170-23efbdc67501""}","https://test12345.live/?participantId=32A64E3242154F8A8592D9409928953F&assignmentId=63d2df0b-1911-4a17-9553-73f03d5e400b&projectId=a0a8f18c-a66e-4ba7-a170-23efbdc67501","32A64E3242154F8A8592D9409928953F-2024-11-24-18-52-13","","null","","[]","null","",""
"","","","","","image-button-response","34","446578","0.0-10.0-1.0-0.3","32A64E3242154F8A8592D9409928953F","32A64E3242154F8A8592D9409928953F","63d2df0b-1911-4a17-9553-73f03d5e400b","a0a8f18c-a66e-4ba7-a170-23efbdc67501","{""participantId"":""32A64E3242154F8A8592D9409928953F"",""assignmentId"":""63d2df0b-1911-4a17-9553-73f03d5e400b"",""projectId"":""a0a8f18c-a66e-4ba7-a170-23efbdc67501""}","https://test12345.live/?participantId=32A64E3242154F8A8592D9409928953F&assignmentId=63d2df0b-1911-4a17-9553-73f03d5e400b&projectId=a0a8f18c-a66e-4ba7-a170-23efbdc67501","32A64E3242154F8A8592D9409928953F-2024-11-24-18-52-13","","null","","images/causal_sequence/dog_causal/dog_causal_4.png","null","",""
"","","","","","image-button-response","35","447903","0.0-10.0-1.0-1.3","32A64E3242154F8A8592D9409928953F","32A64E3242154F8A8592D9409928953F","63d2df0b-1911-4a17-9553-73f03d5e400b","a0a8f18c-a66e-4ba7-a170-23efbdc67501","{""participantId"":""32A64E3242154F8A8592D9409928953F"",""assignmentId"":""63d2df0b-1911-4a17-9553-73f03d5e400b"",""projectId"":""a0a8f18c-a66e-4ba7-a170-23efbdc67501""}","https://test12345.live/?participantId=32A64E3242154F8A8592D9409928953F&assignmentId=63d2df0b-1911-4a17-9553-73f03d5e400b&projectId=a0a8f18c-a66e-4ba7-a170-23efbdc67501","32A64E3242154F8A8592D9409928953F-2024-11-24-18-52-13","","1322","","images/causal_sequence/dog_causal/dog_causal_4.png","0","",""
"","","","","","image-button-response","36","449713","0.0-10.0-1.0-2.3","32A64E3242154F8A8592D9409928953F","32A64E3242154F8A8592D9409928953F","63d2df0b-1911-4a17-9553-73f03d5e400b","a0a8f18c-a66e-4ba7-a170-23efbdc67501","{""participantId"":""32A64E3242154F8A8592D9409928953F"",""assignmentId"":""63d2df0b-1911-4a17-9553-73f03d5e400b"",""projectId"":""a0a8f18c-a66e-4ba7-a170-23efbdc67501""}","https://test12345.live/?participantId=32A64E3242154F8A8592D9409928953F&assignmentId=63d2df0b-1911-4a17-9553-73f03d5e400b&projectId=a0a8f18c-a66e-4ba7-a170-23efbdc67501","32A64E3242154F8A8592D9409928953F-2024-11-24-18-52-13","","null","","[]","null","",""
"","","","","","image-button-response","37","454223","0.0-10.0-1.0-0.4","32A64E3242154F8A8592D9409928953F","32A64E3242154F8A8592D9409928953F","63d2df0b-1911-4a17-9553-73f03d5e400b","a0a8f18c-a66e-4ba7-a170-23efbdc67501","{""participantId"":""32A64E3242154F8A8592D9409928953F"",""assignmentId"":""63d2df0b-1911-4a17-9553-73f03d5e400b"",""projectId"":""a0a8f18c-a66e-4ba7-a170-23efbdc67501""}","https://test12345.live/?participantId=32A64E3242154F8A8592D9409928953F&assignmentId=63d2df0b-1911-4a17-9553-73f03d5e400b&projectId=a0a8f18c-a66e-4ba7-a170-23efbdc67501","32A64E3242154F8A8592D9409928953F-2024-11-24-18-52-13","","null","","images/causal_sequence/dog_causal/dog_causal_5.png","null","",""
"","","","","","image-button-response","38","455395","0.0-10.0-1.0-1.4","32A64E3242154F8A8592D9409928953F","32A64E3242154F8A8592D9409928953F","63d2df0b-1911-4a17-9553-73f03d5e400b","a0a8f18c-a66e-4ba7-a170-23efbdc67501","{""participantId"":""32A64E3242154F8A8592D9409928953F"",""assignmentId"":""63d2df0b-1911-4a17-9553-73f03d5e400b"",""projectId"":""a0a8f18c-a66e-4ba7-a170-23efbdc67501""}","https://test12345.live/?participantId=32A64E3242154F8A8592D9409928953F&assignmentId=63d2df0b-1911-4a17-9553-73f03d5e400b&projectId=a0a8f18c-a66e-4ba7-a170-23efbdc67501","32A64E3242154F8A8592D9409928953F-2024-11-24-18-52-13","","1170","","images/causal_sequence/dog_causal/dog_causal_5.png","0","",""
"","","","","","image-button-response","39","457214","0.0-10.0-1.0-2.4","32A64E3242154F8A8592D9409928953F","32A64E3242154F8A8592D9409928953F","63d2df0b-1911-4a17-9553-73f03d5e400b","a0a8f18c-a66e-4ba7-a170-23efbdc67501","{""participantId"":""32A64E3242154F8A8592D9409928953F"",""assignmentId"":""63d2df0b-1911-4a17-9553-73f03d5e400b"",""projectId"":""a0a8f18c-a66e-4ba7-a170-23efbdc67501""}","https://test12345.live/?participantId=32A64E3242154F8A8592D9409928953F&assignmentId=63d2df0b-1911-4a17-9553-73f03d5e400b&projectId=a0a8f18c-a66e-4ba7-a170-23efbdc67501","32A64E3242154F8A8592D9409928953F-2024-11-24-18-52-13","","null","","[]","null","",""
"","","","","","image-button-response","40","461734","0.0-10.0-1.0-0.5","32A64E3242154F8A8592D9409928953F","32A64E3242154F8A8592D9409928953F","63d2df0b-1911-4a17-9553-73f03d5e400b","a0a8f18c-a66e-4ba7-a170-23efbdc67501","{""participantId"":""32A64E3242154F8A8592D9409928953F"",""assignmentId"":""63d2df0b-1911-4a17-9553-73f03d5e400b"",""projectId"":""a0a8f18c-a66e-4ba7-a170-23efbdc67501""}","https://test12345.live/?participantId=32A64E3242154F8A8592D9409928953F&assignmentId=63d2df0b-1911-4a17-9553-73f03d5e400b&projectId=a0a8f18c-a66e-4ba7-a170-23efbdc67501","32A64E3242154F8A8592D9409928953F-2024-11-24-18-52-13","","null","","images/causal_sequence/dog_causal/dog_causal_6.png","null","",""
"","","","","","image-button-response","41","462515","0.0-10.0-1.0-1.5","32A64E3242154F8A8592D9409928953F","32A64E3242154F8A8592D9409928953F","63d2df0b-1911-4a17-9553-73f03d5e400b","a0a8f18c-a66e-4ba7-a170-23efbdc67501","{""participantId"":""32A64E3242154F8A8592D9409928953F"",""assignmentId"":""63d2df0b-1911-4a17-9553-73f03d5e400b"",""projectId"":""a0a8f18c-a66e-4ba7-a170-23efbdc67501""}","https://test12345.live/?participantId=32A64E3242154F8A8592D9409928953F&assignmentId=63d2df0b-1911-4a17-9553-73f03d5e400b&projectId=a0a8f18c-a66e-4ba7-a170-23efbdc67501","32A64E3242154F8A8592D9409928953F-2024-11-24-18-52-13","","779","","images/causal_sequence/dog_causal/dog_causal_6.png","0","",""
"","","","","","image-button-response","42","464333","0.0-10.0-1.0-2.5","32A64E3242154F8A8592D9409928953F","32A64E3242154F8A8592D9409928953F","63d2df0b-1911-4a17-9553-73f03d5e400b","a0a8f18c-a66e-4ba7-a170-23efbdc67501","{""participantId"":""32A64E3242154F8A8592D9409928953F"",""assignmentId"":""63d2df0b-1911-4a17-9553-73f03d5e400b"",""projectId"":""a0a8f18c-a66e-4ba7-a170-23efbdc67501""}","https://test12345.live/?participantId=32A64E3242154F8A8592D9409928953F&assignmentId=63d2df0b-1911-4a17-9553-73f03d5e400b&projectId=a0a8f18c-a66e-4ba7-a170-23efbdc67501","32A64E3242154F8A8592D9409928953F-2024-11-24-18-52-13","","null","","[]","null","",""
"","","","","","image-button-response","43","468853","0.0-10.0-1.0-0.6","32A64E3242154F8A8592D9409928953F","32A64E3242154F8A8592D9409928953F","63d2df0b-1911-4a17-9553-73f03d5e400b","a0a8f18c-a66e-4ba7-a170-23efbdc67501","{""participantId"":""32A64E3242154F8A8592D9409928953F"",""assignmentId"":""63d2df0b-1911-4a17-9553-73f03d5e400b"",""projectId"":""a0a8f18c-a66e-4ba7-a170-23efbdc67501""}","https://test12345.live/?participantId=32A64E3242154F8A8592D9409928953F&assignmentId=63d2df0b-1911-4a17-9553-73f03d5e400b&projectId=a0a8f18c-a66e-4ba7-a170-23efbdc67501","32A64E3242154F8A8592D9409928953F-2024-11-24-18-52-13","","null","","images/causal_sequence/dog_causal/dog_causal_7.png","null","",""
"","","","","","image-button-response","44","469773","0.0-10.0-1.0-1.6","32A64E3242154F8A8592D9409928953F","32A64E3242154F8A8592D9409928953F","63d2df0b-1911-4a17-9553-73f03d5e400b","a0a8f18c-a66e-4ba7-a170-23efbdc67501","{""participantId"":""32A64E3242154F8A8592D9409928953F"",""assignmentId"":""63d2df0b-1911-4a17-9553-73f03d5e400b"",""projectId"":""a0a8f18c-a66e-4ba7-a170-23efbdc67501""}","https://test12345.live/?participantId=32A64E3242154F8A8592D9409928953F&assignmentId=63d2df0b-1911-4a17-9553-73f03d5e400b&projectId=a0a8f18c-a66e-4ba7-a170-23efbdc67501","32A64E3242154F8A8592D9409928953F-2024-11-24-18-52-13","","918","","images/causal_sequence/dog_causal/dog_causal_7.png","0","",""
"","","","","","image-button-response","45","471593","0.0-10.0-1.0-2.6","32A64E3242154F8A8592D9409928953F","32A64E3242154F8A8592D9409928953F","63d2df0b-1911-4a17-9553-73f03d5e400b","a0a8f18c-a66e-4ba7-a170-23efbdc67501","{""participantId"":""32A64E3242154F8A8592D9409928953F"",""assignmentId"":""63d2df0b-1911-4a17-9553-73f03d5e400b"",""projectId"":""a0a8f18c-a66e-4ba7-a170-23efbdc67501""}","https://test12345.live/?participantId=32A64E3242154F8A8592D9409928953F&assignmentId=63d2df0b-1911-4a17-9553-73f03d5e400b&projectId=a0a8f18c-a66e-4ba7-a170-23efbdc67501","32A64E3242154F8A8592D9409928953F-2024-11-24-18-52-13","","null","","[]","null","",""
"","","","","","image-button-response","46","476114","0.0-10.0-1.0-0.7","32A64E3242154F8A8592D9409928953F","32A64E3242154F8A8592D9409928953F","63d2df0b-1911-4a17-9553-73f03d5e400b","a0a8f18c-a66e-4ba7-a170-23efbdc67501","{""participantId"":""32A64E3242154F8A8592D9409928953F"",""assignmentId"":""63d2df0b-1911-4a17-9553-73f03d5e400b"",""projectId"":""a0a8f18c-a66e-4ba7-a170-23efbdc67501""}","https://test12345.live/?participantId=32A64E3242154F8A8592D9409928953F&assignmentId=63d2df0b-1911-4a17-9553-73f03d5e400b&projectId=a0a8f18c-a66e-4ba7-a170-23efbdc67501","32A64E3242154F8A8592D9409928953F-2024-11-24-18-52-13","","null","","images/causal_sequence/dog_causal/dog_causal_8.png","null","",""
"","","","","","image-button-response","47","476891","0.0-10.0-1.0-1.7","32A64E3242154F8A8592D9409928953F","32A64E3242154F8A8592D9409928953F","63d2df0b-1911-4a17-9553-73f03d5e400b","a0a8f18c-a66e-4ba7-a170-23efbdc67501","{""participantId"":""32A64E3242154F8A8592D9409928953F"",""assignmentId"":""63d2df0b-1911-4a17-9553-73f03d5e400b"",""projectId"":""a0a8f18c-a66e-4ba7-a170-23efbdc67501""}","https://test12345.live/?participantId=32A64E3242154F8A8592D9409928953F&assignmentId=63d2df0b-1911-4a17-9553-73f03d5e400b&projectId=a0a8f18c-a66e-4ba7-a170-23efbdc67501","32A64E3242154F8A8592D9409928953F-2024-11-24-18-52-13","","775","","images/causal_sequence/dog_causal/dog_causal_8.png","0","",""
"","","","","","image-button-response","48","478693","0.0-10.0-1.0-2.7","32A64E3242154F8A8592D9409928953F","32A64E3242154F8A8592D9409928953F","63d2df0b-1911-4a17-9553-73f03d5e400b","a0a8f18c-a66e-4ba7-a170-23efbdc67501","{""participantId"":""32A64E3242154F8A8592D9409928953F"",""assignmentId"":""63d2df0b-1911-4a17-9553-73f03d5e400b"",""projectId"":""a0a8f18c-a66e-4ba7-a170-23efbdc67501""}","https://test12345.live/?participantId=32A64E3242154F8A8592D9409928953F&assignmentId=63d2df0b-1911-4a17-9553-73f03d5e400b&projectId=a0a8f18c-a66e-4ba7-a170-23efbdc67501","32A64E3242154F8A8592D9409928953F-2024-11-24-18-52-13","","null","","[]","null","",""
"","","","","","image-button-response","49","483213","0.0-10.0-1.0-0.8","32A64E3242154F8A8592D9409928953F","32A64E3242154F8A8592D9409928953F","63d2df0b-1911-4a17-9553-73f03d5e400b","a0a8f18c-a66e-4ba7-a170-23efbdc67501","{""participantId"":""32A64E3242154F8A8592D9409928953F"",""assignmentId"":""63d2df0b-1911-4a17-9553-73f03d5e400b"",""projectId"":""a0a8f18c-a66e-4ba7-a170-23efbdc67501""}","https://test12345.live/?participantId=32A64E3242154F8A8592D9409928953F&assignmentId=63d2df0b-1911-4a17-9553-73f03d5e400b&projectId=a0a8f18c-a66e-4ba7-a170-23efbdc67501","32A64E3242154F8A8592D9409928953F-2024-11-24-18-52-13","","null","","images/causal_sequence/dog_causal/dog_causal_9.png","null","",""
"","","","","","image-button-response","50","483945","0.0-10.0-1.0-1.8","32A64E3242154F8A8592D9409928953F","32A64E3242154F8A8592D9409928953F","63d2df0b-1911-4a17-9553-73f03d5e400b","a0a8f18c-a66e-4ba7-a170-23efbdc67501","{""participantId"":""32A64E3242154F8A8592D9409928953F"",""assignmentId"":""63d2df0b-1911-4a17-9553-73f03d5e400b"",""projectId"":""a0a8f18c-a66e-4ba7-a170-23efbdc67501""}","https://test12345.live/?participantId=32A64E3242154F8A8592D9409928953F&assignmentId=63d2df0b-1911-4a17-9553-73f03d5e400b&projectId=a0a8f18c-a66e-4ba7-a170-23efbdc67501","32A64E3242154F8A8592D9409928953F-2024-11-24-18-52-13","","730","","images/causal_sequence/dog_causal/dog_causal_9.png","0","",""
"","","","","","image-button-response","51","485764","0.0-10.0-1.0-2.8","32A64E3242154F8A8592D9409928953F","32A64E3242154F8A8592D9409928953F","63d2df0b-1911-4a17-9553-73f03d5e400b","a0a8f18c-a66e-4ba7-a170-23efbdc67501","{""participantId"":""32A64E3242154F8A8592D9409928953F"",""assignmentId"":""63d2df0b-1911-4a17-9553-73f03d5e400b"",""projectId"":""a0a8f18c-a66e-4ba7-a170-23efbdc67501""}","https://test12345.live/?participantId=32A64E3242154F8A8592D9409928953F&assignmentId=63d2df0b-1911-4a17-9553-73f03d5e400b&projectId=a0a8f18c-a66e-4ba7-a170-23efbdc67501","32A64E3242154F8A8592D9409928953F-2024-11-24-18-52-13","","null","","[]","null","",""
"","","","","","image-button-response","52","490284","0.0-10.0-1.0-0.9","32A64E3242154F8A8592D9409928953F","32A64E3242154F8A8592D9409928953F","63d2df0b-1911-4a17-9553-73f03d5e400b","a0a8f18c-a66e-4ba7-a170-23efbdc67501","{""participantId"":""32A64E3242154F8A8592D9409928953F"",""assignmentId"":""63d2df0b-1911-4a17-9553-73f03d5e400b"",""projectId"":""a0a8f18c-a66e-4ba7-a170-23efbdc67501""}","https://test12345.live/?participantId=32A64E3242154F8A8592D9409928953F&assignmentId=63d2df0b-1911-4a17-9553-73f03d5e400b&projectId=a0a8f18c-a66e-4ba7-a170-23efbdc67501","32A64E3242154F8A8592D9409928953F-2024-11-24-18-52-13","","null","","images/causal_sequence/dog_causal/dog_causal_ten.png","null","",""
"","","","","","image-button-response","53","491089","0.0-10.0-1.0-1.9","32A64E3242154F8A8592D9409928953F","32A64E3242154F8A8592D9409928953F","63d2df0b-1911-4a17-9553-73f03d5e400b","a0a8f18c-a66e-4ba7-a170-23efbdc67501","{""participantId"":""32A64E3242154F8A8592D9409928953F"",""assignmentId"":""63d2df0b-1911-4a17-9553-73f03d5e400b"",""projectId"":""a0a8f18c-a66e-4ba7-a170-23efbdc67501""}","https://test12345.live/?participantId=32A64E3242154F8A8592D9409928953F&assignmentId=63d2df0b-1911-4a17-9553-73f03d5e400b&projectId=a0a8f18c-a66e-4ba7-a170-23efbdc67501","32A64E3242154F8A8592D9409928953F-2024-11-24-18-52-13","","803","","images/causal_sequence/dog_causal/dog_causal_ten.png","0","",""
"","","","","","image-button-response","54","492902","0.0-10.0-1.0-2.9","32A64E3242154F8A8592D9409928953F","32A64E3242154F8A8592D9409928953F","63d2df0b-1911-4a17-9553-73f03d5e400b","a0a8f18c-a66e-4ba7-a170-23efbdc67501","{""participantId"":""32A64E3242154F8A8592D9409928953F"",""assignmentId"":""63d2df0b-1911-4a17-9553-73f03d5e400b"",""projectId"":""a0a8f18c-a66e-4ba7-a170-23efbdc67501""}","https://test12345.live/?participantId=32A64E3242154F8A8592D9409928953F&assignmentId=63d2df0b-1911-4a17-9553-73f03d5e400b&projectId=a0a8f18c-a66e-4ba7-a170-23efbdc67501","32A64E3242154F8A8592D9409928953F-2024-11-24-18-52-13","","null","","[]","null","",""
"","","","","","html-audio-response","55","581585","0.0-11.0","32A64E3242154F8A8592D9409928953F","32A64E3242154F8A8592D9409928953F","63d2df0b-1911-4a17-9553-73f03d5e400b","a0a8f18c-a66e-4ba7-a170-23efbdc67501","{""participantId"":""32A64E3242154F8A8592D9409928953F"",""assignmentId"":""63d2df0b-1911-4a17-9553-73f03d5e400b"",""projectId"":""a0a8f18c-a66e-4ba7-a170-23efbdc67501""}","https://test12345.live/?participantId=32A64E3242154F8A8592D9409928953F&assignmentId=63d2df0b-1911-4a17-9553-73f03d5e400b&projectId=a0a8f18c-a66e-4ba7-a170-23efbdc67501","32A64E3242154F8A8592D9409928953F-2024-11-24-18-52-13","","24083","","[""<span style=\""color: red; font-size: 24px\""> NOW RECORDING</span><p>Please say out loud all the images you saw, as many as you can remember. The images can be said in any order.</p>""]","","6","dog_causal"
"","","","","","image-button-response","56","587600","0.0-12.0-0.0","32A64E3242154F8A8592D9409928953F","32A64E3242154F8A8592D9409928953F","63d2df0b-1911-4a17-9553-73f03d5e400b","a0a8f18c-a66e-4ba7-a170-23efbdc67501","{""participantId"":""32A64E3242154F8A8592D9409928953F"",""assignmentId"":""63d2df0b-1911-4a17-9553-73f03d5e400b"",""projectId"":""a0a8f18c-a66e-4ba7-a170-23efbdc67501""}","https://test12345.live/?participantId=32A64E3242154F8A8592D9409928953F&assignmentId=63d2df0b-1911-4a17-9553-73f03d5e400b&projectId=a0a8f18c-a66e-4ba7-a170-23efbdc67501","32A64E3242154F8A8592D9409928953F-2024-11-24-18-52-13","","null","","images/causal_sequence/museum_causal/museum_causal_0.png","null","",""
"","","","","","image-button-response","57","592116","0.0-12.0-1.0-0.0","32A64E3242154F8A8592D9409928953F","32A64E3242154F8A8592D9409928953F","63d2df0b-1911-4a17-9553-73f03d5e400b","a0a8f18c-a66e-4ba7-a170-23efbdc67501","{""participantId"":""32A64E3242154F8A8592D9409928953F"",""assignmentId"":""63d2df0b-1911-4a17-9553-73f03d5e400b"",""projectId"":""a0a8f18c-a66e-4ba7-a170-23efbdc67501""}","https://test12345.live/?participantId=32A64E3242154F8A8592D9409928953F&assignmentId=63d2df0b-1911-4a17-9553-73f03d5e400b&projectId=a0a8f18c-a66e-4ba7-a170-23efbdc67501","32A64E3242154F8A8592D9409928953F-2024-11-24-18-52-13","","null","","images/causal_sequence/museum_causal/museum_causal_1.png","null","",""
"","","","","","image-button-response","58","593551","0.0-12.0-1.0-1.0","32A64E3242154F8A8592D9409928953F","32A64E3242154F8A8592D9409928953F","63d2df0b-1911-4a17-9553-73f03d5e400b","a0a8f18c-a66e-4ba7-a170-23efbdc67501","{""participantId"":""32A64E3242154F8A8592D9409928953F"",""assignmentId"":""63d2df0b-1911-4a17-9553-73f03d5e400b"",""projectId"":""a0a8f18c-a66e-4ba7-a170-23efbdc67501""}","https://test12345.live/?participantId=32A64E3242154F8A8592D9409928953F&assignmentId=63d2df0b-1911-4a17-9553-73f03d5e400b&projectId=a0a8f18c-a66e-4ba7-a170-23efbdc67501","32A64E3242154F8A8592D9409928953F-2024-11-24-18-52-13","","1432","","images/causal_sequence/museum_causal/museum_causal_1.png","0","",""
"","","","","","image-button-response","59","595355","0.0-12.0-1.0-2.0","32A64E3242154F8A8592D9409928953F","32A64E3242154F8A8592D9409928953F","63d2df0b-1911-4a17-9553-73f03d5e400b","a0a8f18c-a66e-4ba7-a170-23efbdc67501","{""participantId"":""32A64E3242154F8A8592D9409928953F"",""assignmentId"":""63d2df0b-1911-4a17-9553-73f03d5e400b"",""projectId"":""a0a8f18c-a66e-4ba7-a170-23efbdc67501""}","https://test12345.live/?participantId=32A64E3242154F8A8592D9409928953F&assignmentId=63d2df0b-1911-4a17-9553-73f03d5e400b&projectId=a0a8f18c-a66e-4ba7-a170-23efbdc67501","32A64E3242154F8A8592D9409928953F-2024-11-24-18-52-13","","null","","[]","null","",""
"","","","","","image-button-response","60","599865","0.0-12.0-1.0-0.1","32A64E3242154F8A8592D9409928953F","32A64E3242154F8A8592D9409928953F","63d2df0b-1911-4a17-9553-73f03d5e400b","a0a8f18c-a66e-4ba7-a170-23efbdc67501","{""participantId"":""32A64E3242154F8A8592D9409928953F"",""assignmentId"":""63d2df0b-1911-4a17-9553-73f03d5e400b"",""projectId"":""a0a8f18c-a66e-4ba7-a170-23efbdc67501""}","https://test12345.live/?participantId=32A64E3242154F8A8592D9409928953F&assignmentId=63d2df0b-1911-4a17-9553-73f03d5e400b&projectId=a0a8f18c-a66e-4ba7-a170-23efbdc67501","32A64E3242154F8A8592D9409928953F-2024-11-24-18-52-13","","null","","images/causal_sequence/museum_causal/museum_causal_2.png","null","",""
"","","","","","image-button-response","61","601467","0.0-12.0-1.0-1.1","32A64E3242154F8A8592D9409928953F","32A64E3242154F8A8592D9409928953F","63d2df0b-1911-4a17-9553-73f03d5e400b","a0a8f18c-a66e-4ba7-a170-23efbdc67501","{""participantId"":""32A64E3242154F8A8592D9409928953F"",""assignmentId"":""63d2df0b-1911-4a17-9553-73f03d5e400b"",""projectId"":""a0a8f18c-a66e-4ba7-a170-23efbdc67501""}","https://test12345.live/?participantId=32A64E3242154F8A8592D9409928953F&assignmentId=63d2df0b-1911-4a17-9553-73f03d5e400b&projectId=a0a8f18c-a66e-4ba7-a170-23efbdc67501","32A64E3242154F8A8592D9409928953F-2024-11-24-18-52-13","","1599","","images/causal_sequence/museum_causal/museum_causal_2.png","1","",""
"","","","","","image-button-response","62","603285","0.0-12.0-1.0-2.1","32A64E3242154F8A8592D9409928953F","32A64E3242154F8A8592D9409928953F","63d2df0b-1911-4a17-9553-73f03d5e400b","a0a8f18c-a66e-4ba7-a170-23efbdc67501","{""participantId"":""32A64E3242154F8A8592D9409928953F"",""assignmentId"":""63d2df0b-1911-4a17-9553-73f03d5e400b"",""projectId"":""a0a8f18c-a66e-4ba7-a170-23efbdc67501""}","https://test12345.live/?participantId=32A64E3242154F8A8592D9409928953F&assignmentId=63d2df0b-1911-4a17-9553-73f03d5e400b&projectId=a0a8f18c-a66e-4ba7-a170-23efbdc67501","32A64E3242154F8A8592D9409928953F-2024-11-24-18-52-13","","null","","[]","null","",""
"","","","","","image-button-response","63","607806","0.0-12.0-1.0-0.2","32A64E3242154F8A8592D9409928953F","32A64E3242154F8A8592D9409928953F","63d2df0b-1911-4a17-9553-73f03d5e400b","a0a8f18c-a66e-4ba7-a170-23efbdc67501","{""participantId"":""32A64E3242154F8A8592D9409928953F"",""assignmentId"":""63d2df0b-1911-4a17-9553-73f03d5e400b"",""projectId"":""a0a8f18c-a66e-4ba7-a170-23efbdc67501""}","https://test12345.live/?participantId=32A64E3242154F8A8592D9409928953F&assignmentId=63d2df0b-1911-4a17-9553-73f03d5e400b&projectId=a0a8f18c-a66e-4ba7-a170-23efbdc67501","32A64E3242154F8A8592D9409928953F-2024-11-24-18-52-13","","null","","images/causal_sequence/museum_causal/museum_causal_3.png","null","",""
"","","","","","image-button-response","64","608535","0.0-12.0-1.0-1.2","32A64E3242154F8A8592D9409928953F","32A64E3242154F8A8592D9409928953F","63d2df0b-1911-4a17-9553-73f03d5e400b","a0a8f18c-a66e-4ba7-a170-23efbdc67501","{""participantId"":""32A64E3242154F8A8592D9409928953F"",""assignmentId"":""63d2df0b-1911-4a17-9553-73f03d5e400b"",""projectId"":""a0a8f18c-a66e-4ba7-a170-23efbdc67501""}","https://test12345.live/?participantId=32A64E3242154F8A8592D9409928953F&assignmentId=63d2df0b-1911-4a17-9553-73f03d5e400b&projectId=a0a8f18c-a66e-4ba7-a170-23efbdc67501","32A64E3242154F8A8592D9409928953F-2024-11-24-18-52-13","","727","","images/causal_sequence/museum_causal/museum_causal_3.png","1","",""
"","","","","","image-button-response","65","610355","0.0-12.0-1.0-2.2","32A64E3242154F8A8592D9409928953F","32A64E3242154F8A8592D9409928953F","63d2df0b-1911-4a17-9553-73f03d5e400b","a0a8f18c-a66e-4ba7-a170-23efbdc67501","{""participantId"":""32A64E3242154F8A8592D9409928953F"",""assignmentId"":""63d2df0b-1911-4a17-9553-73f03d5e400b"",""projectId"":""a0a8f18c-a66e-4ba7-a170-23efbdc67501""}","https://test12345.live/?participantId=32A64E3242154F8A8592D9409928953F&assignmentId=63d2df0b-1911-4a17-9553-73f03d5e400b&projectId=a0a8f18c-a66e-4ba7-a170-23efbdc67501","32A64E3242154F8A8592D9409928953F-2024-11-24-18-52-13","","null","","[]","null","",""
"","","","","","image-button-response","66","614865","0.0-12.0-1.0-0.3","32A64E3242154F8A8592D9409928953F","32A64E3242154F8A8592D9409928953F","63d2df0b-1911-4a17-9553-73f03d5e400b","a0a8f18c-a66e-4ba7-a170-23efbdc67501","{""participantId"":""32A64E3242154F8A8592D9409928953F"",""assignmentId"":""63d2df0b-1911-4a17-9553-73f03d5e400b"",""projectId"":""a0a8f18c-a66e-4ba7-a170-23efbdc67501""}","https://test12345.live/?participantId=32A64E3242154F8A8592D9409928953F&assignmentId=63d2df0b-1911-4a17-9553-73f03d5e400b&projectId=a0a8f18c-a66e-4ba7-a170-23efbdc67501","32A64E3242154F8A8592D9409928953F-2024-11-24-18-52-13","","null","","images/causal_sequence/museum_causal/museum_causal_4.png","null","",""
"","","","","","image-button-response","67","615565","0.0-12.0-1.0-1.3","32A64E3242154F8A8592D9409928953F","32A64E3242154F8A8592D9409928953F","63d2df0b-1911-4a17-9553-73f03d5e400b","a0a8f18c-a66e-4ba7-a170-23efbdc67501","{""participantId"":""32A64E3242154F8A8592D9409928953F"",""assignmentId"":""63d2df0b-1911-4a17-9553-73f03d5e400b"",""projectId"":""a0a8f18c-a66e-4ba7-a170-23efbdc67501""}","https://test12345.live/?participantId=32A64E3242154F8A8592D9409928953F&assignmentId=63d2df0b-1911-4a17-9553-73f03d5e400b&projectId=a0a8f18c-a66e-4ba7-a170-23efbdc67501","32A64E3242154F8A8592D9409928953F-2024-11-24-18-52-13","","698","","images/causal_sequence/museum_causal/museum_causal_4.png","1","",""
"","","","","","image-button-response","68","617385","0.0-12.0-1.0-2.3","32A64E3242154F8A8592D9409928953F","32A64E3242154F8A8592D9409928953F","63d2df0b-1911-4a17-9553-73f03d5e400b","a0a8f18c-a66e-4ba7-a170-23efbdc67501","{""participantId"":""32A64E3242154F8A8592D9409928953F"",""assignmentId"":""63d2df0b-1911-4a17-9553-73f03d5e400b"",""projectId"":""a0a8f18c-a66e-4ba7-a170-23efbdc67501""}","https://test12345.live/?participantId=32A64E3242154F8A8592D9409928953F&assignmentId=63d2df0b-1911-4a17-9553-73f03d5e400b&projectId=a0a8f18c-a66e-4ba7-a170-23efbdc67501","32A64E3242154F8A8592D9409928953F-2024-11-24-18-52-13","","null","","[]","null","",""
"","","","","","image-button-response","69","621888","0.0-12.0-1.0-0.4","32A64E3242154F8A8592D9409928953F","32A64E3242154F8A8592D9409928953F","63d2df0b-1911-4a17-9553-73f03d5e400b","a0a8f18c-a66e-4ba7-a170-23efbdc67501","{""participantId"":""32A64E3242154F8A8592D9409928953F"",""assignmentId"":""63d2df0b-1911-4a17-9553-73f03d5e400b"",""projectId"":""a0a8f18c-a66e-4ba7-a170-23efbdc67501""}","https://test12345.live/?participantId=32A64E3242154F8A8592D9409928953F&assignmentId=63d2df0b-1911-4a17-9553-73f03d5e400b&projectId=a0a8f18c-a66e-4ba7-a170-23efbdc67501","32A64E3242154F8A8592D9409928953F-2024-11-24-18-52-13","","null","","images/causal_sequence/museum_causal/museum_causal_5.png","null","",""
"","","","","","image-button-response","70","622867","0.0-12.0-1.0-1.4","32A64E3242154F8A8592D9409928953F","32A64E3242154F8A8592D9409928953F","63d2df0b-1911-4a17-9553-73f03d5e400b","a0a8f18c-a66e-4ba7-a170-23efbdc67501","{""participantId"":""32A64E3242154F8A8592D9409928953F"",""assignmentId"":""63d2df0b-1911-4a17-9553-73f03d5e400b"",""projectId"":""a0a8f18c-a66e-4ba7-a170-23efbdc67501""}","https://test12345.live/?participantId=32A64E3242154F8A8592D9409928953F&assignmentId=63d2df0b-1911-4a17-9553-73f03d5e400b&projectId=a0a8f18c-a66e-4ba7-a170-23efbdc67501","32A64E3242154F8A8592D9409928953F-2024-11-24-18-52-13","","977","","images/causal_sequence/museum_causal/museum_causal_5.png","0","",""
"","","","","","image-button-response","71","624686","0.0-12.0-1.0-2.4","32A64E3242154F8A8592D9409928953F","32A64E3242154F8A8592D9409928953F","63d2df0b-1911-4a17-9553-73f03d5e400b","a0a8f18c-a66e-4ba7-a170-23efbdc67501","{""participantId"":""32A64E3242154F8A8592D9409928953F"",""assignmentId"":""63d2df0b-1911-4a17-9553-73f03d5e400b"",""projectId"":""a0a8f18c-a66e-4ba7-a170-23efbdc67501""}","https://test12345.live/?participantId=32A64E3242154F8A8592D9409928953F&assignmentId=63d2df0b-1911-4a17-9553-73f03d5e400b&projectId=a0a8f18c-a66e-4ba7-a170-23efbdc67501","32A64E3242154F8A8592D9409928953F-2024-11-24-18-52-13","","null","","[]","null","",""
"","","","","","image-button-response","72","629205","0.0-12.0-1.0-0.5","32A64E3242154F8A8592D9409928953F","32A64E3242154F8A8592D9409928953F","63d2df0b-1911-4a17-9553-73f03d5e400b","a0a8f18c-a66e-4ba7-a170-23efbdc67501","{""participantId"":""32A64E3242154F8A8592D9409928953F"",""assignmentId"":""63d2df0b-1911-4a17-9553-73f03d5e400b"",""projectId"":""a0a8f18c-a66e-4ba7-a170-23efbdc67501""}","https://test12345.live/?participantId=32A64E3242154F8A8592D9409928953F&assignmentId=63d2df0b-1911-4a17-9553-73f03d5e400b&projectId=a0a8f18c-a66e-4ba7-a170-23efbdc67501","32A64E3242154F8A8592D9409928953F-2024-11-24-18-52-13","","null","","images/causal_sequence/museum_causal/museum_causal_6.png","null","",""
"","","","","","image-button-response","73","630352","0.0-12.0-1.0-1.5","32A64E3242154F8A8592D9409928953F","32A64E3242154F8A8592D9409928953F","63d2df0b-1911-4a17-9553-73f03d5e400b","a0a8f18c-a66e-4ba7-a170-23efbdc67501","{""participantId"":""32A64E3242154F8A8592D9409928953F"",""assignmentId"":""63d2df0b-1911-4a17-9553-73f03d5e400b"",""projectId"":""a0a8f18c-a66e-4ba7-a170-23efbdc67501""}","https://test12345.live/?participantId=32A64E3242154F8A8592D9409928953F&assignmentId=63d2df0b-1911-4a17-9553-73f03d5e400b&projectId=a0a8f18c-a66e-4ba7-a170-23efbdc67501","32A64E3242154F8A8592D9409928953F-2024-11-24-18-52-13","","1144","","images/causal_sequence/museum_causal/museum_causal_6.png","0","",""
"","","","","","image-button-response","74","632165","0.0-12.0-1.0-2.5","32A64E3242154F8A8592D9409928953F","32A64E3242154F8A8592D9409928953F","63d2df0b-1911-4a17-9553-73f03d5e400b","a0a8f18c-a66e-4ba7-a170-23efbdc67501","{""participantId"":""32A64E3242154F8A8592D9409928953F"",""assignmentId"":""63d2df0b-1911-4a17-9553-73f03d5e400b"",""projectId"":""a0a8f18c-a66e-4ba7-a170-23efbdc67501""}","https://test12345.live/?participantId=32A64E3242154F8A8592D9409928953F&assignmentId=63d2df0b-1911-4a17-9553-73f03d5e400b&projectId=a0a8f18c-a66e-4ba7-a170-23efbdc67501","32A64E3242154F8A8592D9409928953F-2024-11-24-18-52-13","","null","","[]","null","",""
"","","","","","image-button-response","75","636675","0.0-12.0-1.0-0.6","32A64E3242154F8A8592D9409928953F","32A64E3242154F8A8592D9409928953F","63d2df0b-1911-4a17-9553-73f03d5e400b","a0a8f18c-a66e-4ba7-a170-23efbdc67501","{""participantId"":""32A64E3242154F8A8592D9409928953F"",""assignmentId"":""63d2df0b-1911-4a17-9553-73f03d5e400b"",""projectId"":""a0a8f18c-a66e-4ba7-a170-23efbdc67501""}","https://test12345.live/?participantId=32A64E3242154F8A8592D9409928953F&assignmentId=63d2df0b-1911-4a17-9553-73f03d5e400b&projectId=a0a8f18c-a66e-4ba7-a170-23efbdc67501","32A64E3242154F8A8592D9409928953F-2024-11-24-18-52-13","","null","","images/causal_sequence/museum_causal/museum_causal_7.png","null","",""
"","","","","","image-button-response","76","638301","0.0-12.0-1.0-1.6","32A64E3242154F8A8592D9409928953F","32A64E3242154F8A8592D9409928953F","63d2df0b-1911-4a17-9553-73f03d5e400b","a0a8f18c-a66e-4ba7-a170-23efbdc67501","{""participantId"":""32A64E3242154F8A8592D9409928953F"",""assignmentId"":""63d2df0b-1911-4a17-9553-73f03d5e400b"",""projectId"":""a0a8f18c-a66e-4ba7-a170-23efbdc67501""}","https://test12345.live/?participantId=32A64E3242154F8A8592D9409928953F&assignmentId=63d2df0b-1911-4a17-9553-73f03d5e400b&projectId=a0a8f18c-a66e-4ba7-a170-23efbdc67501","32A64E3242154F8A8592D9409928953F-2024-11-24-18-52-13","","1624","","images/causal_sequence/museum_causal/museum_causal_7.png","1","",""
"","","","","","image-button-response","77","640117","0.0-12.0-1.0-2.6","32A64E3242154F8A8592D9409928953F","32A64E3242154F8A8592D9409928953F","63d2df0b-1911-4a17-9553-73f03d5e400b","a0a8f18c-a66e-4ba7-a170-23efbdc67501","{""participantId"":""32A64E3242154F8A8592D9409928953F"",""assignmentId"":""63d2df0b-1911-4a17-9553-73f03d5e400b"",""projectId"":""a0a8f18c-a66e-4ba7-a170-23efbdc67501""}","https://test12345.live/?participantId=32A64E3242154F8A8592D9409928953F&assignmentId=63d2df0b-1911-4a17-9553-73f03d5e400b&projectId=a0a8f18c-a66e-4ba7-a170-23efbdc67501","32A64E3242154F8A8592D9409928953F-2024-11-24-18-52-13","","null","","[]","null","",""
"","","","","","image-button-response","78","644622","0.0-12.0-1.0-0.7","32A64E3242154F8A8592D9409928953F","32A64E3242154F8A8592D9409928953F","63d2df0b-1911-4a17-9553-73f03d5e400b","a0a8f18c-a66e-4ba7-a170-23efbdc67501","{""participantId"":""32A64E3242154F8A8592D9409928953F"",""assignmentId"":""63d2df0b-1911-4a17-9553-73f03d5e400b"",""projectId"":""a0a8f18c-a66e-4ba7-a170-23efbdc67501""}","https://test12345.live/?participantId=32A64E3242154F8A8592D9409928953F&assignmentId=63d2df0b-1911-4a17-9553-73f03d5e400b&projectId=a0a8f18c-a66e-4ba7-a170-23efbdc67501","32A64E3242154F8A8592D9409928953F-2024-11-24-18-52-13","","null","","images/causal_sequence/museum_causal/museum_causal_8.png","null","",""
"","","","","","image-button-response","79","645755","0.0-12.0-1.0-1.7","32A64E3242154F8A8592D9409928953F","32A64E3242154F8A8592D9409928953F","63d2df0b-1911-4a17-9553-73f03d5e400b","a0a8f18c-a66e-4ba7-a170-23efbdc67501","{""participantId"":""32A64E3242154F8A8592D9409928953F"",""assignmentId"":""63d2df0b-1911-4a17-9553-73f03d5e400b"",""projectId"":""a0a8f18c-a66e-4ba7-a170-23efbdc67501""}","https://test12345.live/?participantId=32A64E3242154F8A8592D9409928953F&assignmentId=63d2df0b-1911-4a17-9553-73f03d5e400b&projectId=a0a8f18c-a66e-4ba7-a170-23efbdc67501","32A64E3242154F8A8592D9409928953F-2024-11-24-18-52-13","","1131","","images/causal_sequence/museum_causal/museum_causal_8.png","0","",""
"","","","","","image-button-response","80","647565","0.0-12.0-1.0-2.7","32A64E3242154F8A8592D9409928953F","32A64E3242154F8A8592D9409928953F","63d2df0b-1911-4a17-9553-73f03d5e400b","a0a8f18c-a66e-4ba7-a170-23efbdc67501","{""participantId"":""32A64E3242154F8A8592D9409928953F"",""assignmentId"":""63d2df0b-1911-4a17-9553-73f03d5e400b"",""projectId"":""a0a8f18c-a66e-4ba7-a170-23efbdc67501""}","https://test12345.live/?participantId=32A64E3242154F8A8592D9409928953F&assignmentId=63d2df0b-1911-4a17-9553-73f03d5e400b&projectId=a0a8f18c-a66e-4ba7-a170-23efbdc67501","32A64E3242154F8A8592D9409928953F-2024-11-24-18-52-13","","null","","[]","null","",""
"","","","","","image-button-response","81","652076","0.0-12.0-1.0-0.8","32A64E3242154F8A8592D9409928953F","32A64E3242154F8A8592D9409928953F","63d2df0b-1911-4a17-9553-73f03d5e400b","a0a8f18c-a66e-4ba7-a170-23efbdc67501","{""participantId"":""32A64E3242154F8A8592D9409928953F"",""assignmentId"":""63d2df0b-1911-4a17-9553-73f03d5e400b"",""projectId"":""a0a8f18c-a66e-4ba7-a170-23efbdc67501""}","https://test12345.live/?participantId=32A64E3242154F8A8592D9409928953F&assignmentId=63d2df0b-1911-4a17-9553-73f03d5e400b&projectId=a0a8f18c-a66e-4ba7-a170-23efbdc67501","32A64E3242154F8A8592D9409928953F-2024-11-24-18-52-13","","null","","images/causal_sequence/museum_causal/museum_causal_9.png","null","",""
"","","","","","image-button-response","82","653313","0.0-12.0-1.0-1.8","32A64E3242154F8A8592D9409928953F","32A64E3242154F8A8592D9409928953F","63d2df0b-1911-4a17-9553-73f03d5e400b","a0a8f18c-a66e-4ba7-a170-23efbdc67501","{""participantId"":""32A64E3242154F8A8592D9409928953F"",""assignmentId"":""63d2df0b-1911-4a17-9553-73f03d5e400b"",""projectId"":""a0a8f18c-a66e-4ba7-a170-23efbdc67501""}","https://test12345.live/?participantId=32A64E3242154F8A8592D9409928953F&assignmentId=63d2df0b-1911-4a17-9553-73f03d5e400b&projectId=a0a8f18c-a66e-4ba7-a170-23efbdc67501","32A64E3242154F8A8592D9409928953F-2024-11-24-18-52-13","","1236","","images/causal_sequence/museum_causal/museum_causal_9.png","1","",""
"","","","","","image-button-response","83","655117","0.0-12.0-1.0-2.8","32A64E3242154F8A8592D9409928953F","32A64E3242154F8A8592D9409928953F","63d2df0b-1911-4a17-9553-73f03d5e400b","a0a8f18c-a66e-4ba7-a170-23efbdc67501","{""participantId"":""32A64E3242154F8A8592D9409928953F"",""assignmentId"":""63d2df0b-1911-4a17-9553-73f03d5e400b"",""projectId"":""a0a8f18c-a66e-4ba7-a170-23efbdc67501""}","https://test12345.live/?participantId=32A64E3242154F8A8592D9409928953F&assignmentId=63d2df0b-1911-4a17-9553-73f03d5e400b&projectId=a0a8f18c-a66e-4ba7-a170-23efbdc67501","32A64E3242154F8A8592D9409928953F-2024-11-24-18-52-13","","null","","[]","null","",""
"","","","","","image-button-response","84","659626","0.0-12.0-1.0-0.9","32A64E3242154F8A8592D9409928953F","32A64E3242154F8A8592D9409928953F","63d2df0b-1911-4a17-9553-73f03d5e400b","a0a8f18c-a66e-4ba7-a170-23efbdc67501","{""participantId"":""32A64E3242154F8A8592D9409928953F"",""assignmentId"":""63d2df0b-1911-4a17-9553-73f03d5e400b"",""projectId"":""a0a8f18c-a66e-4ba7-a170-23efbdc67501""}","https://test12345.live/?participantId=32A64E3242154F8A8592D9409928953F&assignmentId=63d2df0b-1911-4a17-9553-73f03d5e400b&projectId=a0a8f18c-a66e-4ba7-a170-23efbdc67501","32A64E3242154F8A8592D9409928953F-2024-11-24-18-52-13","","null","","images/causal_sequence/museum_causal/museum_causal_ten.png","null","",""
"","","","","","image-button-response","85","661052","0.0-12.0-1.0-1.9","32A64E3242154F8A8592D9409928953F","32A64E3242154F8A8592D9409928953F","63d2df0b-1911-4a17-9553-73f03d5e400b","a0a8f18c-a66e-4ba7-a170-23efbdc67501","{""participantId"":""32A64E3242154F8A8592D9409928953F"",""assignmentId"":""63d2df0b-1911-4a17-9553-73f03d5e400b"",""projectId"":""a0a8f18c-a66e-4ba7-a170-23efbdc67501""}","https://test12345.live/?participantId=32A64E3242154F8A8592D9409928953F&assignmentId=63d2df0b-1911-4a17-9553-73f03d5e400b&projectId=a0a8f18c-a66e-4ba7-a170-23efbdc67501","32A64E3242154F8A8592D9409928953F-2024-11-24-18-52-13","","1423","","images/causal_sequence/museum_causal/museum_causal_ten.png","0","",""
"","","","","","image-button-response","86","662866","0.0-12.0-1.0-2.9","32A64E3242154F8A8592D9409928953F","32A64E3242154F8A8592D9409928953F","63d2df0b-1911-4a17-9553-73f03d5e400b","a0a8f18c-a66e-4ba7-a170-23efbdc67501","{""participantId"":""32A64E3242154F8A8592D9409928953F"",""assignmentId"":""63d2df0b-1911-4a17-9553-73f03d5e400b"",""projectId"":""a0a8f18c-a66e-4ba7-a170-23efbdc67501""}","https://test12345.live/?participantId=32A64E3242154F8A8592D9409928953F&assignmentId=63d2df0b-1911-4a17-9553-73f03d5e400b&projectId=a0a8f18c-a66e-4ba7-a170-23efbdc67501","32A64E3242154F8A8592D9409928953F-2024-11-24-18-52-13","","null","","[]","null","",""
"","","","","","html-audio-response","87","765635","0.0-13.0","32A64E3242154F8A8592D9409928953F","32A64E3242154F8A8592D9409928953F","63d2df0b-1911-4a17-9553-73f03d5e400b","a0a8f18c-a66e-4ba7-a170-23efbdc67501","{""participantId"":""32A64E3242154F8A8592D9409928953F"",""assignmentId"":""63d2df0b-1911-4a17-9553-73f03d5e400b"",""projectId"":""a0a8f18c-a66e-4ba7-a170-23efbdc67501""}","https://test12345.live/?participantId=32A64E3242154F8A8592D9409928953F&assignmentId=63d2df0b-1911-4a17-9553-73f03d5e400b&projectId=a0a8f18c-a66e-4ba7-a170-23efbdc67501","32A64E3242154F8A8592D9409928953F-2024-11-24-18-52-13","","24082","","[""<span style=\""color: red; font-size: 24px\""> NOW RECORDING</span><p>Please say out loud all the images you saw, as many as you can remember. The images can be said in any order.</p>""]","","14","museum_causal"
"","","","","","image-button-response","88","771647","0.0-14.0-0.0","32A64E3242154F8A8592D9409928953F","32A64E3242154F8A8592D9409928953F","63d2df0b-1911-4a17-9553-73f03d5e400b","a0a8f18c-a66e-4ba7-a170-23efbdc67501","{""participantId"":""32A64E3242154F8A8592D9409928953F"",""assignmentId"":""63d2df0b-1911-4a17-9553-73f03d5e400b"",""projectId"":""a0a8f18c-a66e-4ba7-a170-23efbdc67501""}","https://test12345.live/?participantId=32A64E3242154F8A8592D9409928953F&assignmentId=63d2df0b-1911-4a17-9553-73f03d5e400b&projectId=a0a8f18c-a66e-4ba7-a170-23efbdc67501","32A64E3242154F8A8592D9409928953F-2024-11-24-18-52-13","","null","","images/semantic_sequence/physical_activity_semantic/physical_activity_semantic_0.png","null","",""
"","","","","","image-button-response","89","776157","0.0-14.0-1.0-0.0","32A64E3242154F8A8592D9409928953F","32A64E3242154F8A8592D9409928953F","63d2df0b-1911-4a17-9553-73f03d5e400b","a0a8f18c-a66e-4ba7-a170-23efbdc67501","{""participantId"":""32A64E3242154F8A8592D9409928953F"",""assignmentId"":""63d2df0b-1911-4a17-9553-73f03d5e400b"",""projectId"":""a0a8f18c-a66e-4ba7-a170-23efbdc67501""}","https://test12345.live/?participantId=32A64E3242154F8A8592D9409928953F&assignmentId=63d2df0b-1911-4a17-9553-73f03d5e400b&projectId=a0a8f18c-a66e-4ba7-a170-23efbdc67501","32A64E3242154F8A8592D9409928953F-2024-11-24-18-52-13","","null","","images/semantic_sequence/physical_activity_semantic/physical_activity_semantic_1.png","null","",""
"","","","","","image-button-response","90","777055","0.0-14.0-1.0-1.0","32A64E3242154F8A8592D9409928953F","32A64E3242154F8A8592D9409928953F","63d2df0b-1911-4a17-9553-73f03d5e400b","a0a8f18c-a66e-4ba7-a170-23efbdc67501","{""participantId"":""32A64E3242154F8A8592D9409928953F"",""assignmentId"":""63d2df0b-1911-4a17-9553-73f03d5e400b"",""projectId"":""a0a8f18c-a66e-4ba7-a170-23efbdc67501""}","https://test12345.live/?participantId=32A64E3242154F8A8592D9409928953F&assignmentId=63d2df0b-1911-4a17-9553-73f03d5e400b&projectId=a0a8f18c-a66e-4ba7-a170-23efbdc67501","32A64E3242154F8A8592D9409928953F-2024-11-24-18-52-13","","896","","images/semantic_sequence/physical_activity_semantic/physical_activity_semantic_1.png","0","",""
"","","","","","image-button-response","91","778872","0.0-14.0-1.0-2.0","32A64E3242154F8A8592D9409928953F","32A64E3242154F8A8592D9409928953F","63d2df0b-1911-4a17-9553-73f03d5e400b","a0a8f18c-a66e-4ba7-a170-23efbdc67501","{""participantId"":""32A64E3242154F8A8592D9409928953F"",""assignmentId"":""63d2df0b-1911-4a17-9553-73f03d5e400b"",""projectId"":""a0a8f18c-a66e-4ba7-a170-23efbdc67501""}","https://test12345.live/?participantId=32A64E3242154F8A8592D9409928953F&assignmentId=63d2df0b-1911-4a17-9553-73f03d5e400b&projectId=a0a8f18c-a66e-4ba7-a170-23efbdc67501","32A64E3242154F8A8592D9409928953F-2024-11-24-18-52-13","","null","","[]","null","",""
"","","","","","image-button-response","92","783392","0.0-14.0-1.0-0.1","32A64E3242154F8A8592D9409928953F","32A64E3242154F8A8592D9409928953F","63d2df0b-1911-4a17-9553-73f03d5e400b","a0a8f18c-a66e-4ba7-a170-23efbdc67501","{""participantId"":""32A64E3242154F8A8592D9409928953F"",""assignmentId"":""63d2df0b-1911-4a17-9553-73f03d5e400b"",""projectId"":""a0a8f18c-a66e-4ba7-a170-23efbdc67501""}","https://test12345.live/?participantId=32A64E3242154F8A8592D9409928953F&assignmentId=63d2df0b-1911-4a17-9553-73f03d5e400b&projectId=a0a8f18c-a66e-4ba7-a170-23efbdc67501","32A64E3242154F8A8592D9409928953F-2024-11-24-18-52-13","","null","","images/semantic_sequence/physical_activity_semantic/physical_activity_semantic_2.png","null","",""
"","","","","","image-button-response","93","784337","0.0-14.0-1.0-1.1","32A64E3242154F8A8592D9409928953F","32A64E3242154F8A8592D9409928953F","63d2df0b-1911-4a17-9553-73f03d5e400b","a0a8f18c-a66e-4ba7-a170-23efbdc67501","{""participantId"":""32A64E3242154F8A8592D9409928953F"",""assignmentId"":""63d2df0b-1911-4a17-9553-73f03d5e400b"",""projectId"":""a0a8f18c-a66e-4ba7-a170-23efbdc67501""}","https://test12345.live/?participantId=32A64E3242154F8A8592D9409928953F&assignmentId=63d2df0b-1911-4a17-9553-73f03d5e400b&projectId=a0a8f18c-a66e-4ba7-a170-23efbdc67501","32A64E3242154F8A8592D9409928953F-2024-11-24-18-52-13","","942","","images/semantic_sequence/physical_activity_semantic/physical_activity_semantic_2.png","0","",""
"","","","","","image-button-response","94","786142","0.0-14.0-1.0-2.1","32A64E3242154F8A8592D9409928953F","32A64E3242154F8A8592D9409928953F","63d2df0b-1911-4a17-9553-73f03d5e400b","a0a8f18c-a66e-4ba7-a170-23efbdc67501","{""participantId"":""32A64E3242154F8A8592D9409928953F"",""assignmentId"":""63d2df0b-1911-4a17-9553-73f03d5e400b"",""projectId"":""a0a8f18c-a66e-4ba7-a170-23efbdc67501""}","https://test12345.live/?participantId=32A64E3242154F8A8592D9409928953F&assignmentId=63d2df0b-1911-4a17-9553-73f03d5e400b&projectId=a0a8f18c-a66e-4ba7-a170-23efbdc67501","32A64E3242154F8A8592D9409928953F-2024-11-24-18-52-13","","null","","[]","null","",""
"","","","","","image-button-response","95","790658","0.0-14.0-1.0-0.2","32A64E3242154F8A8592D9409928953F","32A64E3242154F8A8592D9409928953F","63d2df0b-1911-4a17-9553-73f03d5e400b","a0a8f18c-a66e-4ba7-a170-23efbdc67501","{""participantId"":""32A64E3242154F8A8592D9409928953F"",""assignmentId"":""63d2df0b-1911-4a17-9553-73f03d5e400b"",""projectId"":""a0a8f18c-a66e-4ba7-a170-23efbdc67501""}","https://test12345.live/?participantId=32A64E3242154F8A8592D9409928953F&assignmentId=63d2df0b-1911-4a17-9553-73f03d5e400b&projectId=a0a8f18c-a66e-4ba7-a170-23efbdc67501","32A64E3242154F8A8592D9409928953F-2024-11-24-18-52-13","","null","","images/semantic_sequence/physical_activity_semantic/physical_activity_semantic_3.png","null","",""
"","","","","","image-button-response","96","791625","0.0-14.0-1.0-1.2","32A64E3242154F8A8592D9409928953F","32A64E3242154F8A8592D9409928953F","63d2df0b-1911-4a17-9553-73f03d5e400b","a0a8f18c-a66e-4ba7-a170-23efbdc67501","{""participantId"":""32A64E3242154F8A8592D9409928953F"",""assignmentId"":""63d2df0b-1911-4a17-9553-73f03d5e400b"",""projectId"":""a0a8f18c-a66e-4ba7-a170-23efbdc67501""}","https://test12345.live/?participantId=32A64E3242154F8A8592D9409928953F&assignmentId=63d2df0b-1911-4a17-9553-73f03d5e400b&projectId=a0a8f18c-a66e-4ba7-a170-23efbdc67501","32A64E3242154F8A8592D9409928953F-2024-11-24-18-52-13","","965","","images/semantic_sequence/physical_activity_semantic/physical_activity_semantic_3.png","0","",""
"","","","","","image-button-response","97","793438","0.0-14.0-1.0-2.2","32A64E3242154F8A8592D9409928953F","32A64E3242154F8A8592D9409928953F","63d2df0b-1911-4a17-9553-73f03d5e400b","a0a8f18c-a66e-4ba7-a170-23efbdc67501","{""participantId"":""32A64E3242154F8A8592D9409928953F"",""assignmentId"":""63d2df0b-1911-4a17-9553-73f03d5e400b"",""projectId"":""a0a8f18c-a66e-4ba7-a170-23efbdc67501""}","https://test12345.live/?participantId=32A64E3242154F8A8592D9409928953F&assignmentId=63d2df0b-1911-4a17-9553-73f03d5e400b&projectId=a0a8f18c-a66e-4ba7-a170-23efbdc67501","32A64E3242154F8A8592D9409928953F-2024-11-24-18-52-13","","null","","[]","null","",""
"","","","","","image-button-response","98","797946","0.0-14.0-1.0-0.3","32A64E3242154F8A8592D9409928953F","32A64E3242154F8A8592D9409928953F","63d2df0b-1911-4a17-9553-73f03d5e400b","a0a8f18c-a66e-4ba7-a170-23efbdc67501","{""participantId"":""32A64E3242154F8A8592D9409928953F"",""assignmentId"":""63d2df0b-1911-4a17-9553-73f03d5e400b"",""projectId"":""a0a8f18c-a66e-4ba7-a170-23efbdc67501""}","https://test12345.live/?participantId=32A64E3242154F8A8592D9409928953F&assignmentId=63d2df0b-1911-4a17-9553-73f03d5e400b&projectId=a0a8f18c-a66e-4ba7-a170-23efbdc67501","32A64E3242154F8A8592D9409928953F-2024-11-24-18-52-13","","null","","images/semantic_sequence/physical_activity_semantic/physical_activity_semantic_4.png","null","",""
"","","","","","image-button-response","99","798837","0.0-14.0-1.0-1.3","32A64E3242154F8A8592D9409928953F","32A64E3242154F8A8592D9409928953F","63d2df0b-1911-4a17-9553-73f03d5e400b","a0a8f18c-a66e-4ba7-a170-23efbdc67501","{""participantId"":""32A64E3242154F8A8592D9409928953F"",""assignmentId"":""63d2df0b-1911-4a17-9553-73f03d5e400b"",""projectId"":""a0a8f18c-a66e-4ba7-a170-23efbdc67501""}","https://test12345.live/?participantId=32A64E3242154F8A8592D9409928953F&assignmentId=63d2df0b-1911-4a17-9553-73f03d5e400b&projectId=a0a8f18c-a66e-4ba7-a170-23efbdc67501","32A64E3242154F8A8592D9409928953F-2024-11-24-18-52-13","","888","","images/semantic_sequence/physical_activity_semantic/physical_activity_semantic_4.png","0","",""
"","","","","","image-button-response","100","800653","0.0-14.0-1.0-2.3","32A64E3242154F8A8592D9409928953F","32A64E3242154F8A8592D9409928953F","63d2df0b-1911-4a17-9553-73f03d5e400b","a0a8f18c-a66e-4ba7-a170-23efbdc67501","{""participantId"":""32A64E3242154F8A8592D9409928953F"",""assignmentId"":""63d2df0b-1911-4a17-9553-73f03d5e400b"",""projectId"":""a0a8f18c-a66e-4ba7-a170-23efbdc67501""}","https://test12345.live/?participantId=32A64E3242154F8A8592D9409928953F&assignmentId=63d2df0b-1911-4a17-9553-73f03d5e400b&projectId=a0a8f18c-a66e-4ba7-a170-23efbdc67501","32A64E3242154F8A8592D9409928953F-2024-11-24-18-52-13","","null","","[]","null","",""
"","","","","","image-button-response","101","805163","0.0-14.0-1.0-0.4","32A64E3242154F8A8592D9409928953F","32A64E3242154F8A8592D9409928953F","63d2df0b-1911-4a17-9553-73f03d5e400b","a0a8f18c-a66e-4ba7-a170-23efbdc67501","{""participantId"":""32A64E3242154F8A8592D9409928953F"",""assignmentId"":""63d2df0b-1911-4a17-9553-73f03d5e400b"",""projectId"":""a0a8f18c-a66e-4ba7-a170-23efbdc67501""}","https://test12345.live/?participantId=32A64E3242154F8A8592D9409928953F&assignmentId=63d2df0b-1911-4a17-9553-73f03d5e400b&projectId=a0a8f18c-a66e-4ba7-a170-23efbdc67501","32A64E3242154F8A8592D9409928953F-2024-11-24-18-52-13","","null","","images/semantic_sequence/physical_activity_semantic/physical_activity_semantic_5.png","null","",""
"","","","","","image-button-response","102","807217","0.0-14.0-1.0-1.4","32A64E3242154F8A8592D9409928953F","32A64E3242154F8A8592D9409928953F","63d2df0b-1911-4a17-9553-73f03d5e400b","a0a8f18c-a66e-4ba7-a170-23efbdc67501","{""participantId"":""32A64E3242154F8A8592D9409928953F"",""assignmentId"":""63d2df0b-1911-4a17-9553-73f03d5e400b"",""projectId"":""a0a8f18c-a66e-4ba7-a170-23efbdc67501""}","https://test12345.live/?participantId=32A64E3242154F8A8592D9409928953F&assignmentId=63d2df0b-1911-4a17-9553-73f03d5e400b&projectId=a0a8f18c-a66e-4ba7-a170-23efbdc67501","32A64E3242154F8A8592D9409928953F-2024-11-24-18-52-13","","2052","","images/semantic_sequence/physical_activity_semantic/physical_activity_semantic_5.png","0","",""
"","","","","","image-button-response","103","809033","0.0-14.0-1.0-2.4","32A64E3242154F8A8592D9409928953F","32A64E3242154F8A8592D9409928953F","63d2df0b-1911-4a17-9553-73f03d5e400b","a0a8f18c-a66e-4ba7-a170-23efbdc67501","{""participantId"":""32A64E3242154F8A8592D9409928953F"",""assignmentId"":""63d2df0b-1911-4a17-9553-73f03d5e400b"",""projectId"":""a0a8f18c-a66e-4ba7-a170-23efbdc67501""}","https://test12345.live/?participantId=32A64E3242154F8A8592D9409928953F&assignmentId=63d2df0b-1911-4a17-9553-73f03d5e400b&projectId=a0a8f18c-a66e-4ba7-a170-23efbdc67501","32A64E3242154F8A8592D9409928953F-2024-11-24-18-52-13","","null","","[]","null","",""
"","","","","","image-button-response","104","813553","0.0-14.0-1.0-0.5","32A64E3242154F8A8592D9409928953F","32A64E3242154F8A8592D9409928953F","63d2df0b-1911-4a17-9553-73f03d5e400b","a0a8f18c-a66e-4ba7-a170-23efbdc67501","{""participantId"":""32A64E3242154F8A8592D9409928953F"",""assignmentId"":""63d2df0b-1911-4a17-9553-73f03d5e400b"",""projectId"":""a0a8f18c-a66e-4ba7-a170-23efbdc67501""}","https://test12345.live/?participantId=32A64E3242154F8A8592D9409928953F&assignmentId=63d2df0b-1911-4a17-9553-73f03d5e400b&projectId=a0a8f18c-a66e-4ba7-a170-23efbdc67501","32A64E3242154F8A8592D9409928953F-2024-11-24-18-52-13","","null","","images/semantic_sequence/physical_activity_semantic/physical_activity_semantic_6.png","null","",""
"","","","","","image-button-response","105","816984","0.0-14.0-1.0-1.5","32A64E3242154F8A8592D9409928953F","32A64E3242154F8A8592D9409928953F","63d2df0b-1911-4a17-9553-73f03d5e400b","a0a8f18c-a66e-4ba7-a170-23efbdc67501","{""participantId"":""32A64E3242154F8A8592D9409928953F"",""assignmentId"":""63d2df0b-1911-4a17-9553-73f03d5e400b"",""projectId"":""a0a8f18c-a66e-4ba7-a170-23efbdc67501""}","https://test12345.live/?participantId=32A64E3242154F8A8592D9409928953F&assignmentId=63d2df0b-1911-4a17-9553-73f03d5e400b&projectId=a0a8f18c-a66e-4ba7-a170-23efbdc67501","32A64E3242154F8A8592D9409928953F-2024-11-24-18-52-13","","3429","","images/semantic_sequence/physical_activity_semantic/physical_activity_semantic_6.png","0","",""
"","","","","","image-button-response","106","818793","0.0-14.0-1.0-2.5","32A64E3242154F8A8592D9409928953F","32A64E3242154F8A8592D9409928953F","63d2df0b-1911-4a17-9553-73f03d5e400b","a0a8f18c-a66e-4ba7-a170-23efbdc67501","{""participantId"":""32A64E3242154F8A8592D9409928953F"",""assignmentId"":""63d2df0b-1911-4a17-9553-73f03d5e400b"",""projectId"":""a0a8f18c-a66e-4ba7-a170-23efbdc67501""}","https://test12345.live/?participantId=32A64E3242154F8A8592D9409928953F&assignmentId=63d2df0b-1911-4a17-9553-73f03d5e400b&projectId=a0a8f18c-a66e-4ba7-a170-23efbdc67501","32A64E3242154F8A8592D9409928953F-2024-11-24-18-52-13","","null","","[]","null","",""
"","","","","","image-button-response","107","823305","0.0-14.0-1.0-0.6","32A64E3242154F8A8592D9409928953F","32A64E3242154F8A8592D9409928953F","63d2df0b-1911-4a17-9553-73f03d5e400b","a0a8f18c-a66e-4ba7-a170-23efbdc67501","{""participantId"":""32A64E3242154F8A8592D9409928953F"",""assignmentId"":""63d2df0b-1911-4a17-9553-73f03d5e400b"",""projectId"":""a0a8f18c-a66e-4ba7-a170-23efbdc67501""}","https://test12345.live/?participantId=32A64E3242154F8A8592D9409928953F&assignmentId=63d2df0b-1911-4a17-9553-73f03d5e400b&projectId=a0a8f18c-a66e-4ba7-a170-23efbdc67501","32A64E3242154F8A8592D9409928953F-2024-11-24-18-52-13","","null","","images/semantic_sequence/physical_activity_semantic/physical_activity_semantic_7.png","null","",""
"","","","","","image-button-response","108","824720","0.0-14.0-1.0-1.6","32A64E3242154F8A8592D9409928953F","32A64E3242154F8A8592D9409928953F","63d2df0b-1911-4a17-9553-73f03d5e400b","a0a8f18c-a66e-4ba7-a170-23efbdc67501","{""participantId"":""32A64E3242154F8A8592D9409928953F"",""assignmentId"":""63d2df0b-1911-4a17-9553-73f03d5e400b"",""projectId"":""a0a8f18c-a66e-4ba7-a170-23efbdc67501""}","https://test12345.live/?participantId=32A64E3242154F8A8592D9409928953F&assignmentId=63d2df0b-1911-4a17-9553-73f03d5e400b&projectId=a0a8f18c-a66e-4ba7-a170-23efbdc67501","32A64E3242154F8A8592D9409928953F-2024-11-24-18-52-13","","1412","","images/semantic_sequence/physical_activity_semantic/physical_activity_semantic_7.png","0","",""
"","","","","","image-button-response","109","826529","0.0-14.0-1.0-2.6","32A64E3242154F8A8592D9409928953F","32A64E3242154F8A8592D9409928953F","63d2df0b-1911-4a17-9553-73f03d5e400b","a0a8f18c-a66e-4ba7-a170-23efbdc67501","{""participantId"":""32A64E3242154F8A8592D9409928953F"",""assignmentId"":""63d2df0b-1911-4a17-9553-73f03d5e400b"",""projectId"":""a0a8f18c-a66e-4ba7-a170-23efbdc67501""}","https://test12345.live/?participantId=32A64E3242154F8A8592D9409928953F&assignmentId=63d2df0b-1911-4a17-9553-73f03d5e400b&projectId=a0a8f18c-a66e-4ba7-a170-23efbdc67501","32A64E3242154F8A8592D9409928953F-2024-11-24-18-52-13","","null","","[]","null","",""
"","","","","","image-button-response","110","831048","0.0-14.0-1.0-0.7","32A64E3242154F8A8592D9409928953F","32A64E3242154F8A8592D9409928953F","63d2df0b-1911-4a17-9553-73f03d5e400b","a0a8f18c-a66e-4ba7-a170-23efbdc67501","{""participantId"":""32A64E3242154F8A8592D9409928953F"",""assignmentId"":""63d2df0b-1911-4a17-9553-73f03d5e400b"",""projectId"":""a0a8f18c-a66e-4ba7-a170-23efbdc67501""}","https://test12345.live/?participantId=32A64E3242154F8A8592D9409928953F&assignmentId=63d2df0b-1911-4a17-9553-73f03d5e400b&projectId=a0a8f18c-a66e-4ba7-a170-23efbdc67501","32A64E3242154F8A8592D9409928953F-2024-11-24-18-52-13","","null","","images/semantic_sequence/physical_activity_semantic/physical_activity_semantic_8.png","null","",""
"","","","","","image-button-response","111","831920","0.0-14.0-1.0-1.7","32A64E3242154F8A8592D9409928953F","32A64E3242154F8A8592D9409928953F","63d2df0b-1911-4a17-9553-73f03d5e400b","a0a8f18c-a66e-4ba7-a170-23efbdc67501","{""participantId"":""32A64E3242154F8A8592D9409928953F"",""assignmentId"":""63d2df0b-1911-4a17-9553-73f03d5e400b"",""projectId"":""a0a8f18c-a66e-4ba7-a170-23efbdc67501""}","https://test12345.live/?participantId=32A64E3242154F8A8592D9409928953F&assignmentId=63d2df0b-1911-4a17-9553-73f03d5e400b&projectId=a0a8f18c-a66e-4ba7-a170-23efbdc67501","32A64E3242154F8A8592D9409928953F-2024-11-24-18-52-13","","870","","images/semantic_sequence/physical_activity_semantic/physical_activity_semantic_8.png","0","",""
"","","","","","image-button-response","112","833728","0.0-14.0-1.0-2.7","32A64E3242154F8A8592D9409928953F","32A64E3242154F8A8592D9409928953F","63d2df0b-1911-4a17-9553-73f03d5e400b","a0a8f18c-a66e-4ba7-a170-23efbdc67501","{""participantId"":""32A64E3242154F8A8592D9409928953F"",""assignmentId"":""63d2df0b-1911-4a17-9553-73f03d5e400b"",""projectId"":""a0a8f18c-a66e-4ba7-a170-23efbdc67501""}","https://test12345.live/?participantId=32A64E3242154F8A8592D9409928953F&assignmentId=63d2df0b-1911-4a17-9553-73f03d5e400b&projectId=a0a8f18c-a66e-4ba7-a170-23efbdc67501","32A64E3242154F8A8592D9409928953F-2024-11-24-18-52-13","","null","","[]","null","",""
"","","","","","image-button-response","113","838238","0.0-14.0-1.0-0.8","32A64E3242154F8A8592D9409928953F","32A64E3242154F8A8592D9409928953F","63d2df0b-1911-4a17-9553-73f03d5e400b","a0a8f18c-a66e-4ba7-a170-23efbdc67501","{""participantId"":""32A64E3242154F8A8592D9409928953F"",""assignmentId"":""63d2df0b-1911-4a17-9553-73f03d5e400b"",""projectId"":""a0a8f18c-a66e-4ba7-a170-23efbdc67501""}","https://test12345.live/?participantId=32A64E3242154F8A8592D9409928953F&assignmentId=63d2df0b-1911-4a17-9553-73f03d5e400b&projectId=a0a8f18c-a66e-4ba7-a170-23efbdc67501","32A64E3242154F8A8592D9409928953F-2024-11-24-18-52-13","","null","","images/semantic_sequence/physical_activity_semantic/physical_activity_semantic_9.png","null","",""
"","","","","","image-button-response","114","839326","0.0-14.0-1.0-1.8","32A64E3242154F8A8592D9409928953F","32A64E3242154F8A8592D9409928953F","63d2df0b-1911-4a17-9553-73f03d5e400b","a0a8f18c-a66e-4ba7-a170-23efbdc67501","{""participantId"":""32A64E3242154F8A8592D9409928953F"",""assignmentId"":""63d2df0b-1911-4a17-9553-73f03d5e400b"",""projectId"":""a0a8f18c-a66e-4ba7-a170-23efbdc67501""}","https://test12345.live/?participantId=32A64E3242154F8A8592D9409928953F&assignmentId=63d2df0b-1911-4a17-9553-73f03d5e400b&projectId=a0a8f18c-a66e-4ba7-a170-23efbdc67501","32A64E3242154F8A8592D9409928953F-2024-11-24-18-52-13","","1085","","images/semantic_sequence/physical_activity_semantic/physical_activity_semantic_9.png","0","",""
"","","","","","image-button-response","115","841143","0.0-14.0-1.0-2.8","32A64E3242154F8A8592D9409928953F","32A64E3242154F8A8592D9409928953F","63d2df0b-1911-4a17-9553-73f03d5e400b","a0a8f18c-a66e-4ba7-a170-23efbdc67501","{""participantId"":""32A64E3242154F8A8592D9409928953F"",""assignmentId"":""63d2df0b-1911-4a17-9553-73f03d5e400b"",""projectId"":""a0a8f18c-a66e-4ba7-a170-23efbdc67501""}","https://test12345.live/?participantId=32A64E3242154F8A8592D9409928953F&assignmentId=63d2df0b-1911-4a17-9553-73f03d5e400b&projectId=a0a8f18c-a66e-4ba7-a170-23efbdc67501","32A64E3242154F8A8592D9409928953F-2024-11-24-18-52-13","","null","","[]","null","",""
"","","","","","image-button-response","116","845658","0.0-14.0-1.0-0.9","32A64E3242154F8A8592D9409928953F","32A64E3242154F8A8592D9409928953F","63d2df0b-1911-4a17-9553-73f03d5e400b","a0a8f18c-a66e-4ba7-a170-23efbdc67501","{""participantId"":""32A64E3242154F8A8592D9409928953F"",""assignmentId"":""63d2df0b-1911-4a17-9553-73f03d5e400b"",""projectId"":""a0a8f18c-a66e-4ba7-a170-23efbdc67501""}","https://test12345.live/?participantId=32A64E3242154F8A8592D9409928953F&assignmentId=63d2df0b-1911-4a17-9553-73f03d5e400b&projectId=a0a8f18c-a66e-4ba7-a170-23efbdc67501","32A64E3242154F8A8592D9409928953F-2024-11-24-18-52-13","","null","","images/semantic_sequence/physical_activity_semantic/physical_activity_semantic_ten.png","null","",""
"","","","","","image-button-response","117","846430","0.0-14.0-1.0-1.9","32A64E3242154F8A8592D9409928953F","32A64E3242154F8A8592D9409928953F","63d2df0b-1911-4a17-9553-73f03d5e400b","a0a8f18c-a66e-4ba7-a170-23efbdc67501","{""participantId"":""32A64E3242154F8A8592D9409928953F"",""assignmentId"":""63d2df0b-1911-4a17-9553-73f03d5e400b"",""projectId"":""a0a8f18c-a66e-4ba7-a170-23efbdc67501""}","https://test12345.live/?participantId=32A64E3242154F8A8592D9409928953F&assignmentId=63d2df0b-1911-4a17-9553-73f03d5e400b&projectId=a0a8f18c-a66e-4ba7-a170-23efbdc67501","32A64E3242154F8A8592D9409928953F-2024-11-24-18-52-13","","770","","images/semantic_sequence/physical_activity_semantic/physical_activity_semantic_ten.png","0","",""
"","","","","","image-button-response","118","848249","0.0-14.0-1.0-2.9","32A64E3242154F8A8592D9409928953F","32A64E3242154F8A8592D9409928953F","63d2df0b-1911-4a17-9553-73f03d5e400b","a0a8f18c-a66e-4ba7-a170-23efbdc67501","{""participantId"":""32A64E3242154F8A8592D9409928953F"",""assignmentId"":""63d2df0b-1911-4a17-9553-73f03d5e400b"",""projectId"":""a0a8f18c-a66e-4ba7-a170-23efbdc67501""}","https://test12345.live/?participantId=32A64E3242154F8A8592D9409928953F&assignmentId=63d2df0b-1911-4a17-9553-73f03d5e400b&projectId=a0a8f18c-a66e-4ba7-a170-23efbdc67501","32A64E3242154F8A8592D9409928953F-2024-11-24-18-52-13","","null","","[]","null","",""
"","","","","","html-audio-response","119","883988","0.0-15.0","32A64E3242154F8A8592D9409928953F","32A64E3242154F8A8592D9409928953F","63d2df0b-1911-4a17-9553-73f03d5e400b","a0a8f18c-a66e-4ba7-a170-23efbdc67501","{""participantId"":""32A64E3242154F8A8592D9409928953F"",""assignmentId"":""63d2df0b-1911-4a17-9553-73f03d5e400b"",""projectId"":""a0a8f18c-a66e-4ba7-a170-23efbdc67501""}","https://test12345.live/?participantId=32A64E3242154F8A8592D9409928953F&assignmentId=63d2df0b-1911-4a17-9553-73f03d5e400b&projectId=a0a8f18c-a66e-4ba7-a170-23efbdc67501","32A64E3242154F8A8592D9409928953F-2024-11-24-18-52-13","","16568","","[""<span style=\""color: red; font-size: 24px\""> NOW RECORDING</span><p>Please say out loud all the images you saw, as many as you can remember. The images can be said in any order.</p>""]","","2","physical_activity_semantic"
"","","","","","image-button-response","120","890009","0.0-16.0-0.0","32A64E3242154F8A8592D9409928953F","32A64E3242154F8A8592D9409928953F","63d2df0b-1911-4a17-9553-73f03d5e400b","a0a8f18c-a66e-4ba7-a170-23efbdc67501","{""participantId"":""32A64E3242154F8A8592D9409928953F"",""assignmentId"":""63d2df0b-1911-4a17-9553-73f03d5e400b"",""projectId"":""a0a8f18c-a66e-4ba7-a170-23efbdc67501""}","https://test12345.live/?participantId=32A64E3242154F8A8592D9409928953F&assignmentId=63d2df0b-1911-4a17-9553-73f03d5e400b&projectId=a0a8f18c-a66e-4ba7-a170-23efbdc67501","32A64E3242154F8A8592D9409928953F-2024-11-24-18-52-13","","null","","images/schematic_sequence/flight_scheme/flight_scheme_0.png","null","",""
"","","","","","image-button-response","121","894529","0.0-16.0-1.0-0.0","32A64E3242154F8A8592D9409928953F","32A64E3242154F8A8592D9409928953F","63d2df0b-1911-4a17-9553-73f03d5e400b","a0a8f18c-a66e-4ba7-a170-23efbdc67501","{""participantId"":""32A64E3242154F8A8592D9409928953F"",""assignmentId"":""63d2df0b-1911-4a17-9553-73f03d5e400b"",""projectId"":""a0a8f18c-a66e-4ba7-a170-23efbdc67501""}","https://test12345.live/?participantId=32A64E3242154F8A8592D9409928953F&assignmentId=63d2df0b-1911-4a17-9553-73f03d5e400b&projectId=a0a8f18c-a66e-4ba7-a170-23efbdc67501","32A64E3242154F8A8592D9409928953F-2024-11-24-18-52-13","","null","","images/schematic_sequence/flight_scheme/flight_scheme_1.png","null","",""
"","","","","","image-button-response","122","897925","0.0-16.0-1.0-1.0","32A64E3242154F8A8592D9409928953F","32A64E3242154F8A8592D9409928953F","63d2df0b-1911-4a17-9553-73f03d5e400b","a0a8f18c-a66e-4ba7-a170-23efbdc67501","{""participantId"":""32A64E3242154F8A8592D9409928953F"",""assignmentId"":""63d2df0b-1911-4a17-9553-73f03d5e400b"",""projectId"":""a0a8f18c-a66e-4ba7-a170-23efbdc67501""}","https://test12345.live/?participantId=32A64E3242154F8A8592D9409928953F&assignmentId=63d2df0b-1911-4a17-9553-73f03d5e400b&projectId=a0a8f18c-a66e-4ba7-a170-23efbdc67501","32A64E3242154F8A8592D9409928953F-2024-11-24-18-52-13","","3393","","images/schematic_sequence/flight_scheme/flight_scheme_1.png","1","",""
"","","","","","image-button-response","123","899738","0.0-16.0-1.0-2.0","32A64E3242154F8A8592D9409928953F","32A64E3242154F8A8592D9409928953F","63d2df0b-1911-4a17-9553-73f03d5e400b","a0a8f18c-a66e-4ba7-a170-23efbdc67501","{""participantId"":""32A64E3242154F8A8592D9409928953F"",""assignmentId"":""63d2df0b-1911-4a17-9553-73f03d5e400b"",""projectId"":""a0a8f18c-a66e-4ba7-a170-23efbdc67501""}","https://test12345.live/?participantId=32A64E3242154F8A8592D9409928953F&assignmentId=63d2df0b-1911-4a17-9553-73f03d5e400b&projectId=a0a8f18c-a66e-4ba7-a170-23efbdc67501","32A64E3242154F8A8592D9409928953F-2024-11-24-18-52-13","","null","","[]","null","",""
"","","","","","image-button-response","124","904250","0.0-16.0-1.0-0.1","32A64E3242154F8A8592D9409928953F","32A64E3242154F8A8592D9409928953F","63d2df0b-1911-4a17-9553-73f03d5e400b","a0a8f18c-a66e-4ba7-a170-23efbdc67501","{""participantId"":""32A64E3242154F8A8592D9409928953F"",""assignmentId"":""63d2df0b-1911-4a17-9553-73f03d5e400b"",""projectId"":""a0a8f18c-a66e-4ba7-a170-23efbdc67501""}","https://test12345.live/?participantId=32A64E3242154F8A8592D9409928953F&assignmentId=63d2df0b-1911-4a17-9553-73f03d5e400b&projectId=a0a8f18c-a66e-4ba7-a170-23efbdc67501","32A64E3242154F8A8592D9409928953F-2024-11-24-18-52-13","","null","","images/schematic_sequence/flight_scheme/flight_scheme_2.png","null","",""
"","","","","","image-button-response","125","908252","0.0-16.0-1.0-1.1","32A64E3242154F8A8592D9409928953F","32A64E3242154F8A8592D9409928953F","63d2df0b-1911-4a17-9553-73f03d5e400b","a0a8f18c-a66e-4ba7-a170-23efbdc67501","{""participantId"":""32A64E3242154F8A8592D9409928953F"",""assignmentId"":""63d2df0b-1911-4a17-9553-73f03d5e400b"",""projectId"":""a0a8f18c-a66e-4ba7-a170-23efbdc67501""}","https://test12345.live/?participantId=32A64E3242154F8A8592D9409928953F&assignmentId=63d2df0b-1911-4a17-9553-73f03d5e400b&projectId=a0a8f18c-a66e-4ba7-a170-23efbdc67501","32A64E3242154F8A8592D9409928953F-2024-11-24-18-52-13","","null","","images/schematic_sequence/flight_scheme/flight_scheme_2.png","null","",""
"","","","","","image-button-response","126","910069","0.0-16.0-1.0-2.1","32A64E3242154F8A8592D9409928953F","32A64E3242154F8A8592D9409928953F","63d2df0b-1911-4a17-9553-73f03d5e400b","a0a8f18c-a66e-4ba7-a170-23efbdc67501","{""participantId"":""32A64E3242154F8A8592D9409928953F"",""assignmentId"":""63d2df0b-1911-4a17-9553-73f03d5e400b"",""projectId"":""a0a8f18c-a66e-4ba7-a170-23efbdc67501""}","https://test12345.live/?participantId=32A64E3242154F8A8592D9409928953F&assignmentId=63d2df0b-1911-4a17-9553-73f03d5e400b&projectId=a0a8f18c-a66e-4ba7-a170-23efbdc67501","32A64E3242154F8A8592D9409928953F-2024-11-24-18-52-13","","null","","[]","null","",""
"","","","","","image-button-response","127","914574","0.0-16.0-1.0-0.2","32A64E3242154F8A8592D9409928953F","32A64E3242154F8A8592D9409928953F","63d2df0b-1911-4a17-9553-73f03d5e400b","a0a8f18c-a66e-4ba7-a170-23efbdc67501","{""participantId"":""32A64E3242154F8A8592D9409928953F"",""assignmentId"":""63d2df0b-1911-4a17-9553-73f03d5e400b"",""projectId"":""a0a8f18c-a66e-4ba7-a170-23efbdc67501""}","https://test12345.live/?participantId=32A64E3242154F8A8592D9409928953F&assignmentId=63d2df0b-1911-4a17-9553-73f03d5e400b&projectId=a0a8f18c-a66e-4ba7-a170-23efbdc67501","32A64E3242154F8A8592D9409928953F-2024-11-24-18-52-13","","null","","images/schematic_sequence/flight_scheme/flight_scheme_3.png","null","",""
"","","","","","image-button-response","128","915651","0.0-16.0-1.0-1.2","32A64E3242154F8A8592D9409928953F","32A64E3242154F8A8592D9409928953F","63d2df0b-1911-4a17-9553-73f03d5e400b","a0a8f18c-a66e-4ba7-a170-23efbdc67501","{""participantId"":""32A64E3242154F8A8592D9409928953F"",""assignmentId"":""63d2df0b-1911-4a17-9553-73f03d5e400b"",""projectId"":""a0a8f18c-a66e-4ba7-a170-23efbdc67501""}","https://test12345.live/?participantId=32A64E3242154F8A8592D9409928953F&assignmentId=63d2df0b-1911-4a17-9553-73f03d5e400b&projectId=a0a8f18c-a66e-4ba7-a170-23efbdc67501","32A64E3242154F8A8592D9409928953F-2024-11-24-18-52-13","","1074","","images/schematic_sequence/flight_scheme/flight_scheme_3.png","0","",""
"","","","","","image-button-response","129","917459","0.0-16.0-1.0-2.2","32A64E3242154F8A8592D9409928953F","32A64E3242154F8A8592D9409928953F","63d2df0b-1911-4a17-9553-73f03d5e400b","a0a8f18c-a66e-4ba7-a170-23efbdc67501","{""participantId"":""32A64E3242154F8A8592D9409928953F"",""assignmentId"":""63d2df0b-1911-4a17-9553-73f03d5e400b"",""projectId"":""a0a8f18c-a66e-4ba7-a170-23efbdc67501""}","https://test12345.live/?participantId=32A64E3242154F8A8592D9409928953F&assignmentId=63d2df0b-1911-4a17-9553-73f03d5e400b&projectId=a0a8f18c-a66e-4ba7-a170-23efbdc67501","32A64E3242154F8A8592D9409928953F-2024-11-24-18-52-13","","null","","[]","null","",""
"","","","","","image-button-response","130","921979","0.0-16.0-1.0-0.3","32A64E3242154F8A8592D9409928953F","32A64E3242154F8A8592D9409928953F","63d2df0b-1911-4a17-9553-73f03d5e400b","a0a8f18c-a66e-4ba7-a170-23efbdc67501","{""participantId"":""32A64E3242154F8A8592D9409928953F"",""assignmentId"":""63d2df0b-1911-4a17-9553-73f03d5e400b"",""projectId"":""a0a8f18c-a66e-4ba7-a170-23efbdc67501""}","https://test12345.live/?participantId=32A64E3242154F8A8592D9409928953F&assignmentId=63d2df0b-1911-4a17-9553-73f03d5e400b&projectId=a0a8f18c-a66e-4ba7-a170-23efbdc67501","32A64E3242154F8A8592D9409928953F-2024-11-24-18-52-13","","null","","images/schematic_sequence/flight_scheme/flight_scheme_4.png","null","",""
"","","","","","image-button-response","131","923141","0.0-16.0-1.0-1.3","32A64E3242154F8A8592D9409928953F","32A64E3242154F8A8592D9409928953F","63d2df0b-1911-4a17-9553-73f03d5e400b","a0a8f18c-a66e-4ba7-a170-23efbdc67501","{""participantId"":""32A64E3242154F8A8592D9409928953F"",""assignmentId"":""63d2df0b-1911-4a17-9553-73f03d5e400b"",""projectId"":""a0a8f18c-a66e-4ba7-a170-23efbdc67501""}","https://test12345.live/?participantId=32A64E3242154F8A8592D9409928953F&assignmentId=63d2df0b-1911-4a17-9553-73f03d5e400b&projectId=a0a8f18c-a66e-4ba7-a170-23efbdc67501","32A64E3242154F8A8592D9409928953F-2024-11-24-18-52-13","","1159","","images/schematic_sequence/flight_scheme/flight_scheme_4.png","0","",""
"","","","","","image-button-response","132","924950","0.0-16.0-1.0-2.3","32A64E3242154F8A8592D9409928953F","32A64E3242154F8A8592D9409928953F","63d2df0b-1911-4a17-9553-73f03d5e400b","a0a8f18c-a66e-4ba7-a170-23efbdc67501","{""participantId"":""32A64E3242154F8A8592D9409928953F"",""assignmentId"":""63d2df0b-1911-4a17-9553-73f03d5e400b"",""projectId"":""a0a8f18c-a66e-4ba7-a170-23efbdc67501""}","https://test12345.live/?participantId=32A64E3242154F8A8592D9409928953F&assignmentId=63d2df0b-1911-4a17-9553-73f03d5e400b&projectId=a0a8f18c-a66e-4ba7-a170-23efbdc67501","32A64E3242154F8A8592D9409928953F-2024-11-24-18-52-13","","null","","[]","null","",""
"","","","","","image-button-response","133","929469","0.0-16.0-1.0-0.4","32A64E3242154F8A8592D9409928953F","32A64E3242154F8A8592D9409928953F","63d2df0b-1911-4a17-9553-73f03d5e400b","a0a8f18c-a66e-4ba7-a170-23efbdc67501","{""participantId"":""32A64E3242154F8A8592D9409928953F"",""assignmentId"":""63d2df0b-1911-4a17-9553-73f03d5e400b"",""projectId"":""a0a8f18c-a66e-4ba7-a170-23efbdc67501""}","https://test12345.live/?participantId=32A64E3242154F8A8592D9409928953F&assignmentId=63d2df0b-1911-4a17-9553-73f03d5e400b&projectId=a0a8f18c-a66e-4ba7-a170-23efbdc67501","32A64E3242154F8A8592D9409928953F-2024-11-24-18-52-13","","null","","images/schematic_sequence/flight_scheme/flight_scheme_5.png","null","",""
"","","","","","image-button-response","134","930201","0.0-16.0-1.0-1.4","32A64E3242154F8A8592D9409928953F","32A64E3242154F8A8592D9409928953F","63d2df0b-1911-4a17-9553-73f03d5e400b","a0a8f18c-a66e-4ba7-a170-23efbdc67501","{""participantId"":""32A64E3242154F8A8592D9409928953F"",""assignmentId"":""63d2df0b-1911-4a17-9553-73f03d5e400b"",""projectId"":""a0a8f18c-a66e-4ba7-a170-23efbdc67501""}","https://test12345.live/?participantId=32A64E3242154F8A8592D9409928953F&assignmentId=63d2df0b-1911-4a17-9553-73f03d5e400b&projectId=a0a8f18c-a66e-4ba7-a170-23efbdc67501","32A64E3242154F8A8592D9409928953F-2024-11-24-18-52-13","","730","","images/schematic_sequence/flight_scheme/flight_scheme_5.png","0","",""
"","","","","","image-button-response","135","932008","0.0-16.0-1.0-2.4","32A64E3242154F8A8592D9409928953F","32A64E3242154F8A8592D9409928953F","63d2df0b-1911-4a17-9553-73f03d5e400b","a0a8f18c-a66e-4ba7-a170-23efbdc67501","{""participantId"":""32A64E3242154F8A8592D9409928953F"",""assignmentId"":""63d2df0b-1911-4a17-9553-73f03d5e400b"",""projectId"":""a0a8f18c-a66e-4ba7-a170-23efbdc67501""}","https://test12345.live/?participantId=32A64E3242154F8A8592D9409928953F&assignmentId=63d2df0b-1911-4a17-9553-73f03d5e400b&projectId=a0a8f18c-a66e-4ba7-a170-23efbdc67501","32A64E3242154F8A8592D9409928953F-2024-11-24-18-52-13","","null","","[]","null","",""
"","","","","","image-button-response","136","936530","0.0-16.0-1.0-0.5","32A64E3242154F8A8592D9409928953F","32A64E3242154F8A8592D9409928953F","63d2df0b-1911-4a17-9553-73f03d5e400b","a0a8f18c-a66e-4ba7-a170-23efbdc67501","{""participantId"":""32A64E3242154F8A8592D9409928953F"",""assignmentId"":""63d2df0b-1911-4a17-9553-73f03d5e400b"",""projectId"":""a0a8f18c-a66e-4ba7-a170-23efbdc67501""}","https://test12345.live/?participantId=32A64E3242154F8A8592D9409928953F&assignmentId=63d2df0b-1911-4a17-9553-73f03d5e400b&projectId=a0a8f18c-a66e-4ba7-a170-23efbdc67501","32A64E3242154F8A8592D9409928953F-2024-11-24-18-52-13","","null","","images/schematic_sequence/flight_scheme/flight_scheme_6.png","null","",""
"","","","","","image-button-response","137","937359","0.0-16.0-1.0-1.5","32A64E3242154F8A8592D9409928953F","32A64E3242154F8A8592D9409928953F","63d2df0b-1911-4a17-9553-73f03d5e400b","a0a8f18c-a66e-4ba7-a170-23efbdc67501","{""participantId"":""32A64E3242154F8A8592D9409928953F"",""assignmentId"":""63d2df0b-1911-4a17-9553-73f03d5e400b"",""projectId"":""a0a8f18c-a66e-4ba7-a170-23efbdc67501""}","https://test12345.live/?participantId=32A64E3242154F8A8592D9409928953F&assignmentId=63d2df0b-1911-4a17-9553-73f03d5e400b&projectId=a0a8f18c-a66e-4ba7-a170-23efbdc67501","32A64E3242154F8A8592D9409928953F-2024-11-24-18-52-13","","827","","images/schematic_sequence/flight_scheme/flight_scheme_6.png","0","",""
"","","","","","image-button-response","138","939179","0.0-16.0-1.0-2.5","32A64E3242154F8A8592D9409928953F","32A64E3242154F8A8592D9409928953F","63d2df0b-1911-4a17-9553-73f03d5e400b","a0a8f18c-a66e-4ba7-a170-23efbdc67501","{""participantId"":""32A64E3242154F8A8592D9409928953F"",""assignmentId"":""63d2df0b-1911-4a17-9553-73f03d5e400b"",""projectId"":""a0a8f18c-a66e-4ba7-a170-23efbdc67501""}","https://test12345.live/?participantId=32A64E3242154F8A8592D9409928953F&assignmentId=63d2df0b-1911-4a17-9553-73f03d5e400b&projectId=a0a8f18c-a66e-4ba7-a170-23efbdc67501","32A64E3242154F8A8592D9409928953F-2024-11-24-18-52-13","","null","","[]","null","",""
"","","","","","image-button-response","139","943691","0.0-16.0-1.0-0.6","32A64E3242154F8A8592D9409928953F","32A64E3242154F8A8592D9409928953F","63d2df0b-1911-4a17-9553-73f03d5e400b","a0a8f18c-a66e-4ba7-a170-23efbdc67501","{""participantId"":""32A64E3242154F8A8592D9409928953F"",""assignmentId"":""63d2df0b-1911-4a17-9553-73f03d5e400b"",""projectId"":""a0a8f18c-a66e-4ba7-a170-23efbdc67501""}","https://test12345.live/?participantId=32A64E3242154F8A8592D9409928953F&assignmentId=63d2df0b-1911-4a17-9553-73f03d5e400b&projectId=a0a8f18c-a66e-4ba7-a170-23efbdc67501","32A64E3242154F8A8592D9409928953F-2024-11-24-18-52-13","","null","","images/schematic_sequence/flight_scheme/flight_scheme_7.png","null","",""
"","","","","","image-button-response","140","944571","0.0-16.0-1.0-1.6","32A64E3242154F8A8592D9409928953F","32A64E3242154F8A8592D9409928953F","63d2df0b-1911-4a17-9553-73f03d5e400b","a0a8f18c-a66e-4ba7-a170-23efbdc67501","{""participantId"":""32A64E3242154F8A8592D9409928953F"",""assignmentId"":""63d2df0b-1911-4a17-9553-73f03d5e400b"",""projectId"":""a0a8f18c-a66e-4ba7-a170-23efbdc67501""}","https://test12345.live/?participantId=32A64E3242154F8A8592D9409928953F&assignmentId=63d2df0b-1911-4a17-9553-73f03d5e400b&projectId=a0a8f18c-a66e-4ba7-a170-23efbdc67501","32A64E3242154F8A8592D9409928953F-2024-11-24-18-52-13","","878","","images/schematic_sequence/flight_scheme/flight_scheme_7.png","1","",""
"","","","","","image-button-response","141","946390","0.0-16.0-1.0-2.6","32A64E3242154F8A8592D9409928953F","32A64E3242154F8A8592D9409928953F","63d2df0b-1911-4a17-9553-73f03d5e400b","a0a8f18c-a66e-4ba7-a170-23efbdc67501","{""participantId"":""32A64E3242154F8A8592D9409928953F"",""assignmentId"":""63d2df0b-1911-4a17-9553-73f03d5e400b"",""projectId"":""a0a8f18c-a66e-4ba7-a170-23efbdc67501""}","https://test12345.live/?participantId=32A64E3242154F8A8592D9409928953F&assignmentId=63d2df0b-1911-4a17-9553-73f03d5e400b&projectId=a0a8f18c-a66e-4ba7-a170-23efbdc67501","32A64E3242154F8A8592D9409928953F-2024-11-24-18-52-13","","null","","[]","null","",""
"","","","","","image-button-response","142","950904","0.0-16.0-1.0-0.7","32A64E3242154F8A8592D9409928953F","32A64E3242154F8A8592D9409928953F","63d2df0b-1911-4a17-9553-73f03d5e400b","a0a8f18c-a66e-4ba7-a170-23efbdc67501","{""participantId"":""32A64E3242154F8A8592D9409928953F"",""assignmentId"":""63d2df0b-1911-4a17-9553-73f03d5e400b"",""projectId"":""a0a8f18c-a66e-4ba7-a170-23efbdc67501""}","https://test12345.live/?participantId=32A64E3242154F8A8592D9409928953F&assignmentId=63d2df0b-1911-4a17-9553-73f03d5e400b&projectId=a0a8f18c-a66e-4ba7-a170-23efbdc67501","32A64E3242154F8A8592D9409928953F-2024-11-24-18-52-13","","null","","images/schematic_sequence/flight_scheme/flight_scheme_8.png","null","",""
"","","","","","image-button-response","143","952059","0.0-16.0-1.0-1.7","32A64E3242154F8A8592D9409928953F","32A64E3242154F8A8592D9409928953F","63d2df0b-1911-4a17-9553-73f03d5e400b","a0a8f18c-a66e-4ba7-a170-23efbdc67501","{""participantId"":""32A64E3242154F8A8592D9409928953F"",""assignmentId"":""63d2df0b-1911-4a17-9553-73f03d5e400b"",""projectId"":""a0a8f18c-a66e-4ba7-a170-23efbdc67501""}","https://test12345.live/?participantId=32A64E3242154F8A8592D9409928953F&assignmentId=63d2df0b-1911-4a17-9553-73f03d5e400b&projectId=a0a8f18c-a66e-4ba7-a170-23efbdc67501","32A64E3242154F8A8592D9409928953F-2024-11-24-18-52-13","","1152","","images/schematic_sequence/flight_scheme/flight_scheme_8.png","1","",""
