"success","timeout","failed_images","failed_audio","failed_video","trial_type","trial_index","time_elapsed","internal_node_id","subject","subject_id","study_id","session_id","urlvar","current_url","audio_id","view_history","rt","device_id","stimulus","response","estimated_stimulus_onset","seq_name"
"true","false","[]","[]","[]","preload","0","7700","0.0-0.0","35458781FA444543970696E3FA173B16","35458781FA444543970696E3FA173B16","ab7a3027-ed0c-46c1-b308-54a1f1dc08eb","a0a8f18c-a66e-4ba7-a170-23efbdc67501","{""participantId"":""35458781FA444543970696E3FA173B16"",""assignmentId"":""ab7a3027-ed0c-46c1-b308-54a1f1dc08eb"",""projectId"":""a0a8f18c-a66e-4ba7-a170-23efbdc67501""}","https://test12345.live/?participantId=35458781FA444543970696E3FA173B16&assignmentId=ab7a3027-ed0c-46c1-b308-54a1f1dc08eb&projectId=a0a8f18c-a66e-4ba7-a170-23efbdc67501","35458781FA444543970696E3FA173B16-2024-11-24-18-39-04","","","","","","",""
"","","","","","instructions","1","53745","0.0-1.0","35458781FA444543970696E3FA173B16","35458781FA444543970696E3FA173B16","ab7a3027-ed0c-46c1-b308-54a1f1dc08eb","a0a8f18c-a66e-4ba7-a170-23efbdc67501","{""participantId"":""35458781FA444543970696E3FA173B16"",""assignmentId"":""ab7a3027-ed0c-46c1-b308-54a1f1dc08eb"",""projectId"":""a0a8f18c-a66e-4ba7-a170-23efbdc67501""}","https://test12345.live/?participantId=35458781FA444543970696E3FA173B16&assignmentId=ab7a3027-ed0c-46c1-b308-54a1f1dc08eb&projectId=a0a8f18c-a66e-4ba7-a170-23efbdc67501","35458781FA444543970696E3FA173B16-2024-11-24-18-39-04","[{""page_index"":0,""viewing_time"":46043}]","46044","","","","",""
"","","","","","instructions","2","59131","0.0-2.0","35458781FA444543970696E3FA173B16","35458781FA444543970696E3FA173B16","ab7a3027-ed0c-46c1-b308-54a1f1dc08eb","a0a8f18c-a66e-4ba7-a170-23efbdc67501","{""participantId"":""35458781FA444543970696E3FA173B16"",""assignmentId"":""ab7a3027-ed0c-46c1-b308-54a1f1dc08eb"",""projectId"":""a0a8f18c-a66e-4ba7-a170-23efbdc67501""}","https://test12345.live/?participantId=35458781FA444543970696E3FA173B16&assignmentId=ab7a3027-ed0c-46c1-b308-54a1f1dc08eb&projectId=a0a8f18c-a66e-4ba7-a170-23efbdc67501","35458781FA444543970696E3FA173B16-2024-11-24-18-39-04","[{""page_index"":0,""viewing_time"":5385}]","5385","","","","",""
"true","","","","","fullscreen","3","61897","0.0-3.0","35458781FA444543970696E3FA173B16","35458781FA444543970696E3FA173B16","ab7a3027-ed0c-46c1-b308-54a1f1dc08eb","a0a8f18c-a66e-4ba7-a170-23efbdc67501","{""participantId"":""35458781FA444543970696E3FA173B16"",""assignmentId"":""ab7a3027-ed0c-46c1-b308-54a1f1dc08eb"",""projectId"":""a0a8f18c-a66e-4ba7-a170-23efbdc67501""}","https://test12345.live/?participantId=35458781FA444543970696E3FA173B16&assignmentId=ab7a3027-ed0c-46c1-b308-54a1f1dc08eb&projectId=a0a8f18c-a66e-4ba7-a170-23efbdc67501","35458781FA444543970696E3FA173B16-2024-11-24-18-39-04","","1761","","","","",""
"","","","","","initialize-microphone","4","67926","0.0-4.0-0.0","35458781FA444543970696E3FA173B16","35458781FA444543970696E3FA173B16","ab7a3027-ed0c-46c1-b308-54a1f1dc08eb","a0a8f18c-a66e-4ba7-a170-23efbdc67501","{""participantId"":""35458781FA444543970696E3FA173B16"",""assignmentId"":""ab7a3027-ed0c-46c1-b308-54a1f1dc08eb"",""projectId"":""a0a8f18c-a66e-4ba7-a170-23efbdc67501""}","https://test12345.live/?participantId=35458781FA444543970696E3FA173B16&assignmentId=ab7a3027-ed0c-46c1-b308-54a1f1dc08eb&projectId=a0a8f18c-a66e-4ba7-a170-23efbdc67501","35458781FA444543970696E3FA173B16-2024-11-24-18-39-04","","","874452e83d1d1c8e1ca5ba724d1666fd217fe5ac81b7ae65bb66bef369d3735d","","","",""
"","","","","","html-audio-response","5","79596","0.0-4.0-1.0","35458781FA444543970696E3FA173B16","35458781FA444543970696E3FA173B16","ab7a3027-ed0c-46c1-b308-54a1f1dc08eb","a0a8f18c-a66e-4ba7-a170-23efbdc67501","{""participantId"":""35458781FA444543970696E3FA173B16"",""assignmentId"":""ab7a3027-ed0c-46c1-b308-54a1f1dc08eb"",""projectId"":""a0a8f18c-a66e-4ba7-a170-23efbdc67501""}","https://test12345.live/?participantId=35458781FA444543970696E3FA173B16&assignmentId=ab7a3027-ed0c-46c1-b308-54a1f1dc08eb&projectId=a0a8f18c-a66e-4ba7-a170-23efbdc67501","35458781FA444543970696E3FA173B16-2024-11-24-18-39-04","","4620","","<span style=""color: red; font-size: 24px""> NOW RECORDING</span>
        <p>Please test Microphone</p>","","5",""
"","","","","","html-button-response","6","81176","0.0-4.0-2.0","35458781FA444543970696E3FA173B16","35458781FA444543970696E3FA173B16","ab7a3027-ed0c-46c1-b308-54a1f1dc08eb","a0a8f18c-a66e-4ba7-a170-23efbdc67501","{""participantId"":""35458781FA444543970696E3FA173B16"",""assignmentId"":""ab7a3027-ed0c-46c1-b308-54a1f1dc08eb"",""projectId"":""a0a8f18c-a66e-4ba7-a170-23efbdc67501""}","https://test12345.live/?participantId=35458781FA444543970696E3FA173B16&assignmentId=ab7a3027-ed0c-46c1-b308-54a1f1dc08eb&projectId=a0a8f18c-a66e-4ba7-a170-23efbdc67501","35458781FA444543970696E3FA173B16-2024-11-24-18-39-04","","1577","","<p style=""font-size:48px; color:red;"">Is Microphone OK?</p>","1","",""
"","","","","","instructions","7","95883","0.0-5.0","35458781FA444543970696E3FA173B16","35458781FA444543970696E3FA173B16","ab7a3027-ed0c-46c1-b308-54a1f1dc08eb","a0a8f18c-a66e-4ba7-a170-23efbdc67501","{""participantId"":""35458781FA444543970696E3FA173B16"",""assignmentId"":""ab7a3027-ed0c-46c1-b308-54a1f1dc08eb"",""projectId"":""a0a8f18c-a66e-4ba7-a170-23efbdc67501""}","https://test12345.live/?participantId=35458781FA444543970696E3FA173B16&assignmentId=ab7a3027-ed0c-46c1-b308-54a1f1dc08eb&projectId=a0a8f18c-a66e-4ba7-a170-23efbdc67501","35458781FA444543970696E3FA173B16-2024-11-24-18-39-04","[{""page_index"":0,""viewing_time"":6491},{""page_index"":1,""viewing_time"":8215}]","14706","","","","",""
"","","","","","image-button-response","8","101888","0.0-6.0-0.0","35458781FA444543970696E3FA173B16","35458781FA444543970696E3FA173B16","ab7a3027-ed0c-46c1-b308-54a1f1dc08eb","a0a8f18c-a66e-4ba7-a170-23efbdc67501","{""participantId"":""35458781FA444543970696E3FA173B16"",""assignmentId"":""ab7a3027-ed0c-46c1-b308-54a1f1dc08eb"",""projectId"":""a0a8f18c-a66e-4ba7-a170-23efbdc67501""}","https://test12345.live/?participantId=35458781FA444543970696E3FA173B16&assignmentId=ab7a3027-ed0c-46c1-b308-54a1f1dc08eb&projectId=a0a8f18c-a66e-4ba7-a170-23efbdc67501","35458781FA444543970696E3FA173B16-2024-11-24-18-39-04","","null","","images/instructions/movie_0.png","null","",""
"","","","","","image-button-response","9","106391","0.0-6.0-1.0-0.0","35458781FA444543970696E3FA173B16","35458781FA444543970696E3FA173B16","ab7a3027-ed0c-46c1-b308-54a1f1dc08eb","a0a8f18c-a66e-4ba7-a170-23efbdc67501","{""participantId"":""35458781FA444543970696E3FA173B16"",""assignmentId"":""ab7a3027-ed0c-46c1-b308-54a1f1dc08eb"",""projectId"":""a0a8f18c-a66e-4ba7-a170-23efbdc67501""}","https://test12345.live/?participantId=35458781FA444543970696E3FA173B16&assignmentId=ab7a3027-ed0c-46c1-b308-54a1f1dc08eb&projectId=a0a8f18c-a66e-4ba7-a170-23efbdc67501","35458781FA444543970696E3FA173B16-2024-11-24-18-39-04","","null","","images/instructions/movie_1.png","null","",""
"","","","","","image-button-response","10","108904","0.0-6.0-1.0-1.0","35458781FA444543970696E3FA173B16","35458781FA444543970696E3FA173B16","ab7a3027-ed0c-46c1-b308-54a1f1dc08eb","a0a8f18c-a66e-4ba7-a170-23efbdc67501","{""participantId"":""35458781FA444543970696E3FA173B16"",""assignmentId"":""ab7a3027-ed0c-46c1-b308-54a1f1dc08eb"",""projectId"":""a0a8f18c-a66e-4ba7-a170-23efbdc67501""}","https://test12345.live/?participantId=35458781FA444543970696E3FA173B16&assignmentId=ab7a3027-ed0c-46c1-b308-54a1f1dc08eb&projectId=a0a8f18c-a66e-4ba7-a170-23efbdc67501","35458781FA444543970696E3FA173B16-2024-11-24-18-39-04","","2510","","images/instructions/movie_1.png","0","",""
"","","","","","image-button-response","11","110706","0.0-6.0-1.0-2.0","35458781FA444543970696E3FA173B16","35458781FA444543970696E3FA173B16","ab7a3027-ed0c-46c1-b308-54a1f1dc08eb","a0a8f18c-a66e-4ba7-a170-23efbdc67501","{""participantId"":""35458781FA444543970696E3FA173B16"",""assignmentId"":""ab7a3027-ed0c-46c1-b308-54a1f1dc08eb"",""projectId"":""a0a8f18c-a66e-4ba7-a170-23efbdc67501""}","https://test12345.live/?participantId=35458781FA444543970696E3FA173B16&assignmentId=ab7a3027-ed0c-46c1-b308-54a1f1dc08eb&projectId=a0a8f18c-a66e-4ba7-a170-23efbdc67501","35458781FA444543970696E3FA173B16-2024-11-24-18-39-04","","null","","[]","null","",""
"","","","","","image-button-response","12","115209","0.0-6.0-1.0-0.1","35458781FA444543970696E3FA173B16","35458781FA444543970696E3FA173B16","ab7a3027-ed0c-46c1-b308-54a1f1dc08eb","a0a8f18c-a66e-4ba7-a170-23efbdc67501","{""participantId"":""35458781FA444543970696E3FA173B16"",""assignmentId"":""ab7a3027-ed0c-46c1-b308-54a1f1dc08eb"",""projectId"":""a0a8f18c-a66e-4ba7-a170-23efbdc67501""}","https://test12345.live/?participantId=35458781FA444543970696E3FA173B16&assignmentId=ab7a3027-ed0c-46c1-b308-54a1f1dc08eb&projectId=a0a8f18c-a66e-4ba7-a170-23efbdc67501","35458781FA444543970696E3FA173B16-2024-11-24-18-39-04","","null","","images/instructions/movie_2.png","null","",""
"","","","","","image-button-response","13","118214","0.0-6.0-1.0-1.1","35458781FA444543970696E3FA173B16","35458781FA444543970696E3FA173B16","ab7a3027-ed0c-46c1-b308-54a1f1dc08eb","a0a8f18c-a66e-4ba7-a170-23efbdc67501","{""participantId"":""35458781FA444543970696E3FA173B16"",""assignmentId"":""ab7a3027-ed0c-46c1-b308-54a1f1dc08eb"",""projectId"":""a0a8f18c-a66e-4ba7-a170-23efbdc67501""}","https://test12345.live/?participantId=35458781FA444543970696E3FA173B16&assignmentId=ab7a3027-ed0c-46c1-b308-54a1f1dc08eb&projectId=a0a8f18c-a66e-4ba7-a170-23efbdc67501","35458781FA444543970696E3FA173B16-2024-11-24-18-39-04","","3003","","images/instructions/movie_2.png","0","",""
"","","","","","image-button-response","14","120016","0.0-6.0-1.0-2.1","35458781FA444543970696E3FA173B16","35458781FA444543970696E3FA173B16","ab7a3027-ed0c-46c1-b308-54a1f1dc08eb","a0a8f18c-a66e-4ba7-a170-23efbdc67501","{""participantId"":""35458781FA444543970696E3FA173B16"",""assignmentId"":""ab7a3027-ed0c-46c1-b308-54a1f1dc08eb"",""projectId"":""a0a8f18c-a66e-4ba7-a170-23efbdc67501""}","https://test12345.live/?participantId=35458781FA444543970696E3FA173B16&assignmentId=ab7a3027-ed0c-46c1-b308-54a1f1dc08eb&projectId=a0a8f18c-a66e-4ba7-a170-23efbdc67501","35458781FA444543970696E3FA173B16-2024-11-24-18-39-04","","null","","[]","null","",""
"","","","","","image-button-response","15","124519","0.0-6.0-1.0-0.2","35458781FA444543970696E3FA173B16","35458781FA444543970696E3FA173B16","ab7a3027-ed0c-46c1-b308-54a1f1dc08eb","a0a8f18c-a66e-4ba7-a170-23efbdc67501","{""participantId"":""35458781FA444543970696E3FA173B16"",""assignmentId"":""ab7a3027-ed0c-46c1-b308-54a1f1dc08eb"",""projectId"":""a0a8f18c-a66e-4ba7-a170-23efbdc67501""}","https://test12345.live/?participantId=35458781FA444543970696E3FA173B16&assignmentId=ab7a3027-ed0c-46c1-b308-54a1f1dc08eb&projectId=a0a8f18c-a66e-4ba7-a170-23efbdc67501","35458781FA444543970696E3FA173B16-2024-11-24-18-39-04","","null","","images/instructions/movie_3.png","null","",""
"","","","","","image-button-response","16","126181","0.0-6.0-1.0-1.2","35458781FA444543970696E3FA173B16","35458781FA444543970696E3FA173B16","ab7a3027-ed0c-46c1-b308-54a1f1dc08eb","a0a8f18c-a66e-4ba7-a170-23efbdc67501","{""participantId"":""35458781FA444543970696E3FA173B16"",""assignmentId"":""ab7a3027-ed0c-46c1-b308-54a1f1dc08eb"",""projectId"":""a0a8f18c-a66e-4ba7-a170-23efbdc67501""}","https://test12345.live/?participantId=35458781FA444543970696E3FA173B16&assignmentId=ab7a3027-ed0c-46c1-b308-54a1f1dc08eb&projectId=a0a8f18c-a66e-4ba7-a170-23efbdc67501","35458781FA444543970696E3FA173B16-2024-11-24-18-39-04","","1660","","images/instructions/movie_3.png","0","",""
"","","","","","image-button-response","17","127983","0.0-6.0-1.0-2.2","35458781FA444543970696E3FA173B16","35458781FA444543970696E3FA173B16","ab7a3027-ed0c-46c1-b308-54a1f1dc08eb","a0a8f18c-a66e-4ba7-a170-23efbdc67501","{""participantId"":""35458781FA444543970696E3FA173B16"",""assignmentId"":""ab7a3027-ed0c-46c1-b308-54a1f1dc08eb"",""projectId"":""a0a8f18c-a66e-4ba7-a170-23efbdc67501""}","https://test12345.live/?participantId=35458781FA444543970696E3FA173B16&assignmentId=ab7a3027-ed0c-46c1-b308-54a1f1dc08eb&projectId=a0a8f18c-a66e-4ba7-a170-23efbdc67501","35458781FA444543970696E3FA173B16-2024-11-24-18-39-04","","null","","[]","null","",""
"","","","","","image-button-response","18","132484","0.0-6.0-1.0-0.3","35458781FA444543970696E3FA173B16","35458781FA444543970696E3FA173B16","ab7a3027-ed0c-46c1-b308-54a1f1dc08eb","a0a8f18c-a66e-4ba7-a170-23efbdc67501","{""participantId"":""35458781FA444543970696E3FA173B16"",""assignmentId"":""ab7a3027-ed0c-46c1-b308-54a1f1dc08eb"",""projectId"":""a0a8f18c-a66e-4ba7-a170-23efbdc67501""}","https://test12345.live/?participantId=35458781FA444543970696E3FA173B16&assignmentId=ab7a3027-ed0c-46c1-b308-54a1f1dc08eb&projectId=a0a8f18c-a66e-4ba7-a170-23efbdc67501","35458781FA444543970696E3FA173B16-2024-11-24-18-39-04","","null","","images/instructions/movie_4.png","null","",""
"","","","","","image-button-response","19","133740","0.0-6.0-1.0-1.3","35458781FA444543970696E3FA173B16","35458781FA444543970696E3FA173B16","ab7a3027-ed0c-46c1-b308-54a1f1dc08eb","a0a8f18c-a66e-4ba7-a170-23efbdc67501","{""participantId"":""35458781FA444543970696E3FA173B16"",""assignmentId"":""ab7a3027-ed0c-46c1-b308-54a1f1dc08eb"",""projectId"":""a0a8f18c-a66e-4ba7-a170-23efbdc67501""}","https://test12345.live/?participantId=35458781FA444543970696E3FA173B16&assignmentId=ab7a3027-ed0c-46c1-b308-54a1f1dc08eb&projectId=a0a8f18c-a66e-4ba7-a170-23efbdc67501","35458781FA444543970696E3FA173B16-2024-11-24-18-39-04","","1253","","images/instructions/movie_4.png","0","",""
"","","","","","image-button-response","20","135542","0.0-6.0-1.0-2.3","35458781FA444543970696E3FA173B16","35458781FA444543970696E3FA173B16","ab7a3027-ed0c-46c1-b308-54a1f1dc08eb","a0a8f18c-a66e-4ba7-a170-23efbdc67501","{""participantId"":""35458781FA444543970696E3FA173B16"",""assignmentId"":""ab7a3027-ed0c-46c1-b308-54a1f1dc08eb"",""projectId"":""a0a8f18c-a66e-4ba7-a170-23efbdc67501""}","https://test12345.live/?participantId=35458781FA444543970696E3FA173B16&assignmentId=ab7a3027-ed0c-46c1-b308-54a1f1dc08eb&projectId=a0a8f18c-a66e-4ba7-a170-23efbdc67501","35458781FA444543970696E3FA173B16-2024-11-24-18-39-04","","null","","[]","null","",""
"","","","","","instructions","21","143330","0.0-7.0","35458781FA444543970696E3FA173B16","35458781FA444543970696E3FA173B16","ab7a3027-ed0c-46c1-b308-54a1f1dc08eb","a0a8f18c-a66e-4ba7-a170-23efbdc67501","{""participantId"":""35458781FA444543970696E3FA173B16"",""assignmentId"":""ab7a3027-ed0c-46c1-b308-54a1f1dc08eb"",""projectId"":""a0a8f18c-a66e-4ba7-a170-23efbdc67501""}","https://test12345.live/?participantId=35458781FA444543970696E3FA173B16&assignmentId=ab7a3027-ed0c-46c1-b308-54a1f1dc08eb&projectId=a0a8f18c-a66e-4ba7-a170-23efbdc67501","35458781FA444543970696E3FA173B16-2024-11-24-18-39-04","[{""page_index"":0,""viewing_time"":6326},{""page_index"":1,""viewing_time"":1462}]","7788","","","","",""
"","","","","","html-audio-response","22","209726","0.0-8.0","35458781FA444543970696E3FA173B16","35458781FA444543970696E3FA173B16","ab7a3027-ed0c-46c1-b308-54a1f1dc08eb","a0a8f18c-a66e-4ba7-a170-23efbdc67501","{""participantId"":""35458781FA444543970696E3FA173B16"",""assignmentId"":""ab7a3027-ed0c-46c1-b308-54a1f1dc08eb"",""projectId"":""a0a8f18c-a66e-4ba7-a170-23efbdc67501""}","https://test12345.live/?participantId=35458781FA444543970696E3FA173B16&assignmentId=ab7a3027-ed0c-46c1-b308-54a1f1dc08eb&projectId=a0a8f18c-a66e-4ba7-a170-23efbdc67501","35458781FA444543970696E3FA173B16-2024-11-24-18-39-04","","30862","","[""<span style=\""color: red; font-size: 24px\""> NOW RECORDING</span><p>Please say out loud all the images you saw, as many as you can remember. The images can be said in any order.</p>""]","","2",""
"","","","","","instructions","23","211715","0.0-9.0","35458781FA444543970696E3FA173B16","35458781FA444543970696E3FA173B16","ab7a3027-ed0c-46c1-b308-54a1f1dc08eb","a0a8f18c-a66e-4ba7-a170-23efbdc67501","{""participantId"":""35458781FA444543970696E3FA173B16"",""assignmentId"":""ab7a3027-ed0c-46c1-b308-54a1f1dc08eb"",""projectId"":""a0a8f18c-a66e-4ba7-a170-23efbdc67501""}","https://test12345.live/?participantId=35458781FA444543970696E3FA173B16&assignmentId=ab7a3027-ed0c-46c1-b308-54a1f1dc08eb&projectId=a0a8f18c-a66e-4ba7-a170-23efbdc67501","35458781FA444543970696E3FA173B16-2024-11-24-18-39-04","[{""page_index"":0,""viewing_time"":1965}]","1966","","","","",""
"","","","","","image-button-response","24","217716","0.0-10.0-0.0","35458781FA444543970696E3FA173B16","35458781FA444543970696E3FA173B16","ab7a3027-ed0c-46c1-b308-54a1f1dc08eb","a0a8f18c-a66e-4ba7-a170-23efbdc67501","{""participantId"":""35458781FA444543970696E3FA173B16"",""assignmentId"":""ab7a3027-ed0c-46c1-b308-54a1f1dc08eb"",""projectId"":""a0a8f18c-a66e-4ba7-a170-23efbdc67501""}","https://test12345.live/?participantId=35458781FA444543970696E3FA173B16&assignmentId=ab7a3027-ed0c-46c1-b308-54a1f1dc08eb&projectId=a0a8f18c-a66e-4ba7-a170-23efbdc67501","35458781FA444543970696E3FA173B16-2024-11-24-18-39-04","","null","","images/semantic_sequence/physical_activity_semantic/physical_activity_semantic_0.png","null","",""
"","","","","","image-button-response","25","222218","0.0-10.0-1.0-0.0","35458781FA444543970696E3FA173B16","35458781FA444543970696E3FA173B16","ab7a3027-ed0c-46c1-b308-54a1f1dc08eb","a0a8f18c-a66e-4ba7-a170-23efbdc67501","{""participantId"":""35458781FA444543970696E3FA173B16"",""assignmentId"":""ab7a3027-ed0c-46c1-b308-54a1f1dc08eb"",""projectId"":""a0a8f18c-a66e-4ba7-a170-23efbdc67501""}","https://test12345.live/?participantId=35458781FA444543970696E3FA173B16&assignmentId=ab7a3027-ed0c-46c1-b308-54a1f1dc08eb&projectId=a0a8f18c-a66e-4ba7-a170-23efbdc67501","35458781FA444543970696E3FA173B16-2024-11-24-18-39-04","","null","","images/semantic_sequence/physical_activity_semantic/physical_activity_semantic_1.png","null","",""
"","","","","","image-button-response","26","224369","0.0-10.0-1.0-1.0","35458781FA444543970696E3FA173B16","35458781FA444543970696E3FA173B16","ab7a3027-ed0c-46c1-b308-54a1f1dc08eb","a0a8f18c-a66e-4ba7-a170-23efbdc67501","{""participantId"":""35458781FA444543970696E3FA173B16"",""assignmentId"":""ab7a3027-ed0c-46c1-b308-54a1f1dc08eb"",""projectId"":""a0a8f18c-a66e-4ba7-a170-23efbdc67501""}","https://test12345.live/?participantId=35458781FA444543970696E3FA173B16&assignmentId=ab7a3027-ed0c-46c1-b308-54a1f1dc08eb&projectId=a0a8f18c-a66e-4ba7-a170-23efbdc67501","35458781FA444543970696E3FA173B16-2024-11-24-18-39-04","","2148","","images/semantic_sequence/physical_activity_semantic/physical_activity_semantic_1.png","0","",""
"","","","","","image-button-response","27","226170","0.0-10.0-1.0-2.0","35458781FA444543970696E3FA173B16","35458781FA444543970696E3FA173B16","ab7a3027-ed0c-46c1-b308-54a1f1dc08eb","a0a8f18c-a66e-4ba7-a170-23efbdc67501","{""participantId"":""35458781FA444543970696E3FA173B16"",""assignmentId"":""ab7a3027-ed0c-46c1-b308-54a1f1dc08eb"",""projectId"":""a0a8f18c-a66e-4ba7-a170-23efbdc67501""}","https://test12345.live/?participantId=35458781FA444543970696E3FA173B16&assignmentId=ab7a3027-ed0c-46c1-b308-54a1f1dc08eb&projectId=a0a8f18c-a66e-4ba7-a170-23efbdc67501","35458781FA444543970696E3FA173B16-2024-11-24-18-39-04","","null","","[]","null","",""
"","","","","","image-button-response","28","230673","0.0-10.0-1.0-0.1","35458781FA444543970696E3FA173B16","35458781FA444543970696E3FA173B16","ab7a3027-ed0c-46c1-b308-54a1f1dc08eb","a0a8f18c-a66e-4ba7-a170-23efbdc67501","{""participantId"":""35458781FA444543970696E3FA173B16"",""assignmentId"":""ab7a3027-ed0c-46c1-b308-54a1f1dc08eb"",""projectId"":""a0a8f18c-a66e-4ba7-a170-23efbdc67501""}","https://test12345.live/?participantId=35458781FA444543970696E3FA173B16&assignmentId=ab7a3027-ed0c-46c1-b308-54a1f1dc08eb&projectId=a0a8f18c-a66e-4ba7-a170-23efbdc67501","35458781FA444543970696E3FA173B16-2024-11-24-18-39-04","","null","","images/semantic_sequence/physical_activity_semantic/physical_activity_semantic_2.png","null","",""
"","","","","","image-button-response","29","232142","0.0-10.0-1.0-1.1","35458781FA444543970696E3FA173B16","35458781FA444543970696E3FA173B16","ab7a3027-ed0c-46c1-b308-54a1f1dc08eb","a0a8f18c-a66e-4ba7-a170-23efbdc67501","{""participantId"":""35458781FA444543970696E3FA173B16"",""assignmentId"":""ab7a3027-ed0c-46c1-b308-54a1f1dc08eb"",""projectId"":""a0a8f18c-a66e-4ba7-a170-23efbdc67501""}","https://test12345.live/?participantId=35458781FA444543970696E3FA173B16&assignmentId=ab7a3027-ed0c-46c1-b308-54a1f1dc08eb&projectId=a0a8f18c-a66e-4ba7-a170-23efbdc67501","35458781FA444543970696E3FA173B16-2024-11-24-18-39-04","","1467","","images/semantic_sequence/physical_activity_semantic/physical_activity_semantic_2.png","0","",""
"","","","","","image-button-response","30","233944","0.0-10.0-1.0-2.1","35458781FA444543970696E3FA173B16","35458781FA444543970696E3FA173B16","ab7a3027-ed0c-46c1-b308-54a1f1dc08eb","a0a8f18c-a66e-4ba7-a170-23efbdc67501","{""participantId"":""35458781FA444543970696E3FA173B16"",""assignmentId"":""ab7a3027-ed0c-46c1-b308-54a1f1dc08eb"",""projectId"":""a0a8f18c-a66e-4ba7-a170-23efbdc67501""}","https://test12345.live/?participantId=35458781FA444543970696E3FA173B16&assignmentId=ab7a3027-ed0c-46c1-b308-54a1f1dc08eb&projectId=a0a8f18c-a66e-4ba7-a170-23efbdc67501","35458781FA444543970696E3FA173B16-2024-11-24-18-39-04","","null","","[]","null","",""
"","","","","","image-button-response","31","238446","0.0-10.0-1.0-0.2","35458781FA444543970696E3FA173B16","35458781FA444543970696E3FA173B16","ab7a3027-ed0c-46c1-b308-54a1f1dc08eb","a0a8f18c-a66e-4ba7-a170-23efbdc67501","{""participantId"":""35458781FA444543970696E3FA173B16"",""assignmentId"":""ab7a3027-ed0c-46c1-b308-54a1f1dc08eb"",""projectId"":""a0a8f18c-a66e-4ba7-a170-23efbdc67501""}","https://test12345.live/?participantId=35458781FA444543970696E3FA173B16&assignmentId=ab7a3027-ed0c-46c1-b308-54a1f1dc08eb&projectId=a0a8f18c-a66e-4ba7-a170-23efbdc67501","35458781FA444543970696E3FA173B16-2024-11-24-18-39-04","","null","","images/semantic_sequence/physical_activity_semantic/physical_activity_semantic_3.png","null","",""
"","","","","","image-button-response","32","239711","0.0-10.0-1.0-1.2","35458781FA444543970696E3FA173B16","35458781FA444543970696E3FA173B16","ab7a3027-ed0c-46c1-b308-54a1f1dc08eb","a0a8f18c-a66e-4ba7-a170-23efbdc67501","{""participantId"":""35458781FA444543970696E3FA173B16"",""assignmentId"":""ab7a3027-ed0c-46c1-b308-54a1f1dc08eb"",""projectId"":""a0a8f18c-a66e-4ba7-a170-23efbdc67501""}","https://test12345.live/?participantId=35458781FA444543970696E3FA173B16&assignmentId=ab7a3027-ed0c-46c1-b308-54a1f1dc08eb&projectId=a0a8f18c-a66e-4ba7-a170-23efbdc67501","35458781FA444543970696E3FA173B16-2024-11-24-18-39-04","","1263","","images/semantic_sequence/physical_activity_semantic/physical_activity_semantic_3.png","0","",""
"","","","","","image-button-response","33","241513","0.0-10.0-1.0-2.2","35458781FA444543970696E3FA173B16","35458781FA444543970696E3FA173B16","ab7a3027-ed0c-46c1-b308-54a1f1dc08eb","a0a8f18c-a66e-4ba7-a170-23efbdc67501","{""participantId"":""35458781FA444543970696E3FA173B16"",""assignmentId"":""ab7a3027-ed0c-46c1-b308-54a1f1dc08eb"",""projectId"":""a0a8f18c-a66e-4ba7-a170-23efbdc67501""}","https://test12345.live/?participantId=35458781FA444543970696E3FA173B16&assignmentId=ab7a3027-ed0c-46c1-b308-54a1f1dc08eb&projectId=a0a8f18c-a66e-4ba7-a170-23efbdc67501","35458781FA444543970696E3FA173B16-2024-11-24-18-39-04","","null","","[]","null","",""
"","","","","","image-button-response","34","246016","0.0-10.0-1.0-0.3","35458781FA444543970696E3FA173B16","35458781FA444543970696E3FA173B16","ab7a3027-ed0c-46c1-b308-54a1f1dc08eb","a0a8f18c-a66e-4ba7-a170-23efbdc67501","{""participantId"":""35458781FA444543970696E3FA173B16"",""assignmentId"":""ab7a3027-ed0c-46c1-b308-54a1f1dc08eb"",""projectId"":""a0a8f18c-a66e-4ba7-a170-23efbdc67501""}","https://test12345.live/?participantId=35458781FA444543970696E3FA173B16&assignmentId=ab7a3027-ed0c-46c1-b308-54a1f1dc08eb&projectId=a0a8f18c-a66e-4ba7-a170-23efbdc67501","35458781FA444543970696E3FA173B16-2024-11-24-18-39-04","","null","","images/semantic_sequence/physical_activity_semantic/physical_activity_semantic_4.png","null","",""
"","","","","","image-button-response","35","246979","0.0-10.0-1.0-1.3","35458781FA444543970696E3FA173B16","35458781FA444543970696E3FA173B16","ab7a3027-ed0c-46c1-b308-54a1f1dc08eb","a0a8f18c-a66e-4ba7-a170-23efbdc67501","{""participantId"":""35458781FA444543970696E3FA173B16"",""assignmentId"":""ab7a3027-ed0c-46c1-b308-54a1f1dc08eb"",""projectId"":""a0a8f18c-a66e-4ba7-a170-23efbdc67501""}","https://test12345.live/?participantId=35458781FA444543970696E3FA173B16&assignmentId=ab7a3027-ed0c-46c1-b308-54a1f1dc08eb&projectId=a0a8f18c-a66e-4ba7-a170-23efbdc67501","35458781FA444543970696E3FA173B16-2024-11-24-18-39-04","","963","","images/semantic_sequence/physical_activity_semantic/physical_activity_semantic_4.png","0","",""
"","","","","","image-button-response","36","248781","0.0-10.0-1.0-2.3","35458781FA444543970696E3FA173B16","35458781FA444543970696E3FA173B16","ab7a3027-ed0c-46c1-b308-54a1f1dc08eb","a0a8f18c-a66e-4ba7-a170-23efbdc67501","{""participantId"":""35458781FA444543970696E3FA173B16"",""assignmentId"":""ab7a3027-ed0c-46c1-b308-54a1f1dc08eb"",""projectId"":""a0a8f18c-a66e-4ba7-a170-23efbdc67501""}","https://test12345.live/?participantId=35458781FA444543970696E3FA173B16&assignmentId=ab7a3027-ed0c-46c1-b308-54a1f1dc08eb&projectId=a0a8f18c-a66e-4ba7-a170-23efbdc67501","35458781FA444543970696E3FA173B16-2024-11-24-18-39-04","","null","","[]","null","",""
"","","","","","image-button-response","37","253283","0.0-10.0-1.0-0.4","35458781FA444543970696E3FA173B16","35458781FA444543970696E3FA173B16","ab7a3027-ed0c-46c1-b308-54a1f1dc08eb","a0a8f18c-a66e-4ba7-a170-23efbdc67501","{""participantId"":""35458781FA444543970696E3FA173B16"",""assignmentId"":""ab7a3027-ed0c-46c1-b308-54a1f1dc08eb"",""projectId"":""a0a8f18c-a66e-4ba7-a170-23efbdc67501""}","https://test12345.live/?participantId=35458781FA444543970696E3FA173B16&assignmentId=ab7a3027-ed0c-46c1-b308-54a1f1dc08eb&projectId=a0a8f18c-a66e-4ba7-a170-23efbdc67501","35458781FA444543970696E3FA173B16-2024-11-24-18-39-04","","null","","images/semantic_sequence/physical_activity_semantic/physical_activity_semantic_5.png","null","",""
"","","","","","image-button-response","38","254226","0.0-10.0-1.0-1.4","35458781FA444543970696E3FA173B16","35458781FA444543970696E3FA173B16","ab7a3027-ed0c-46c1-b308-54a1f1dc08eb","a0a8f18c-a66e-4ba7-a170-23efbdc67501","{""participantId"":""35458781FA444543970696E3FA173B16"",""assignmentId"":""ab7a3027-ed0c-46c1-b308-54a1f1dc08eb"",""projectId"":""a0a8f18c-a66e-4ba7-a170-23efbdc67501""}","https://test12345.live/?participantId=35458781FA444543970696E3FA173B16&assignmentId=ab7a3027-ed0c-46c1-b308-54a1f1dc08eb&projectId=a0a8f18c-a66e-4ba7-a170-23efbdc67501","35458781FA444543970696E3FA173B16-2024-11-24-18-39-04","","940","","images/semantic_sequence/physical_activity_semantic/physical_activity_semantic_5.png","0","",""
"","","","","","image-button-response","39","256028","0.0-10.0-1.0-2.4","35458781FA444543970696E3FA173B16","35458781FA444543970696E3FA173B16","ab7a3027-ed0c-46c1-b308-54a1f1dc08eb","a0a8f18c-a66e-4ba7-a170-23efbdc67501","{""participantId"":""35458781FA444543970696E3FA173B16"",""assignmentId"":""ab7a3027-ed0c-46c1-b308-54a1f1dc08eb"",""projectId"":""a0a8f18c-a66e-4ba7-a170-23efbdc67501""}","https://test12345.live/?participantId=35458781FA444543970696E3FA173B16&assignmentId=ab7a3027-ed0c-46c1-b308-54a1f1dc08eb&projectId=a0a8f18c-a66e-4ba7-a170-23efbdc67501","35458781FA444543970696E3FA173B16-2024-11-24-18-39-04","","null","","[]","null","",""
"","","","","","image-button-response","40","260530","0.0-10.0-1.0-0.5","35458781FA444543970696E3FA173B16","35458781FA444543970696E3FA173B16","ab7a3027-ed0c-46c1-b308-54a1f1dc08eb","a0a8f18c-a66e-4ba7-a170-23efbdc67501","{""participantId"":""35458781FA444543970696E3FA173B16"",""assignmentId"":""ab7a3027-ed0c-46c1-b308-54a1f1dc08eb"",""projectId"":""a0a8f18c-a66e-4ba7-a170-23efbdc67501""}","https://test12345.live/?participantId=35458781FA444543970696E3FA173B16&assignmentId=ab7a3027-ed0c-46c1-b308-54a1f1dc08eb&projectId=a0a8f18c-a66e-4ba7-a170-23efbdc67501","35458781FA444543970696E3FA173B16-2024-11-24-18-39-04","","null","","images/semantic_sequence/physical_activity_semantic/physical_activity_semantic_6.png","null","",""
"","","","","","image-button-response","41","261483","0.0-10.0-1.0-1.5","35458781FA444543970696E3FA173B16","35458781FA444543970696E3FA173B16","ab7a3027-ed0c-46c1-b308-54a1f1dc08eb","a0a8f18c-a66e-4ba7-a170-23efbdc67501","{""participantId"":""35458781FA444543970696E3FA173B16"",""assignmentId"":""ab7a3027-ed0c-46c1-b308-54a1f1dc08eb"",""projectId"":""a0a8f18c-a66e-4ba7-a170-23efbdc67501""}","https://test12345.live/?participantId=35458781FA444543970696E3FA173B16&assignmentId=ab7a3027-ed0c-46c1-b308-54a1f1dc08eb&projectId=a0a8f18c-a66e-4ba7-a170-23efbdc67501","35458781FA444543970696E3FA173B16-2024-11-24-18-39-04","","952","","images/semantic_sequence/physical_activity_semantic/physical_activity_semantic_6.png","0","",""
"","","","","","image-button-response","42","263285","0.0-10.0-1.0-2.5","35458781FA444543970696E3FA173B16","35458781FA444543970696E3FA173B16","ab7a3027-ed0c-46c1-b308-54a1f1dc08eb","a0a8f18c-a66e-4ba7-a170-23efbdc67501","{""participantId"":""35458781FA444543970696E3FA173B16"",""assignmentId"":""ab7a3027-ed0c-46c1-b308-54a1f1dc08eb"",""projectId"":""a0a8f18c-a66e-4ba7-a170-23efbdc67501""}","https://test12345.live/?participantId=35458781FA444543970696E3FA173B16&assignmentId=ab7a3027-ed0c-46c1-b308-54a1f1dc08eb&projectId=a0a8f18c-a66e-4ba7-a170-23efbdc67501","35458781FA444543970696E3FA173B16-2024-11-24-18-39-04","","null","","[]","null","",""
"","","","","","image-button-response","43","267787","0.0-10.0-1.0-0.6","35458781FA444543970696E3FA173B16","35458781FA444543970696E3FA173B16","ab7a3027-ed0c-46c1-b308-54a1f1dc08eb","a0a8f18c-a66e-4ba7-a170-23efbdc67501","{""participantId"":""35458781FA444543970696E3FA173B16"",""assignmentId"":""ab7a3027-ed0c-46c1-b308-54a1f1dc08eb"",""projectId"":""a0a8f18c-a66e-4ba7-a170-23efbdc67501""}","https://test12345.live/?participantId=35458781FA444543970696E3FA173B16&assignmentId=ab7a3027-ed0c-46c1-b308-54a1f1dc08eb&projectId=a0a8f18c-a66e-4ba7-a170-23efbdc67501","35458781FA444543970696E3FA173B16-2024-11-24-18-39-04","","null","","images/semantic_sequence/physical_activity_semantic/physical_activity_semantic_7.png","null","",""
"","","","","","image-button-response","44","268753","0.0-10.0-1.0-1.6","35458781FA444543970696E3FA173B16","35458781FA444543970696E3FA173B16","ab7a3027-ed0c-46c1-b308-54a1f1dc08eb","a0a8f18c-a66e-4ba7-a170-23efbdc67501","{""participantId"":""35458781FA444543970696E3FA173B16"",""assignmentId"":""ab7a3027-ed0c-46c1-b308-54a1f1dc08eb"",""projectId"":""a0a8f18c-a66e-4ba7-a170-23efbdc67501""}","https://test12345.live/?participantId=35458781FA444543970696E3FA173B16&assignmentId=ab7a3027-ed0c-46c1-b308-54a1f1dc08eb&projectId=a0a8f18c-a66e-4ba7-a170-23efbdc67501","35458781FA444543970696E3FA173B16-2024-11-24-18-39-04","","963","","images/semantic_sequence/physical_activity_semantic/physical_activity_semantic_7.png","0","",""
"","","","","","image-button-response","45","270555","0.0-10.0-1.0-2.6","35458781FA444543970696E3FA173B16","35458781FA444543970696E3FA173B16","ab7a3027-ed0c-46c1-b308-54a1f1dc08eb","a0a8f18c-a66e-4ba7-a170-23efbdc67501","{""participantId"":""35458781FA444543970696E3FA173B16"",""assignmentId"":""ab7a3027-ed0c-46c1-b308-54a1f1dc08eb"",""projectId"":""a0a8f18c-a66e-4ba7-a170-23efbdc67501""}","https://test12345.live/?participantId=35458781FA444543970696E3FA173B16&assignmentId=ab7a3027-ed0c-46c1-b308-54a1f1dc08eb&projectId=a0a8f18c-a66e-4ba7-a170-23efbdc67501","35458781FA444543970696E3FA173B16-2024-11-24-18-39-04","","null","","[]","null","",""
"","","","","","image-button-response","46","275057","0.0-10.0-1.0-0.7","35458781FA444543970696E3FA173B16","35458781FA444543970696E3FA173B16","ab7a3027-ed0c-46c1-b308-54a1f1dc08eb","a0a8f18c-a66e-4ba7-a170-23efbdc67501","{""participantId"":""35458781FA444543970696E3FA173B16"",""assignmentId"":""ab7a3027-ed0c-46c1-b308-54a1f1dc08eb"",""projectId"":""a0a8f18c-a66e-4ba7-a170-23efbdc67501""}","https://test12345.live/?participantId=35458781FA444543970696E3FA173B16&assignmentId=ab7a3027-ed0c-46c1-b308-54a1f1dc08eb&projectId=a0a8f18c-a66e-4ba7-a170-23efbdc67501","35458781FA444543970696E3FA173B16-2024-11-24-18-39-04","","null","","images/semantic_sequence/physical_activity_semantic/physical_activity_semantic_8.png","null","",""
"","","","","","image-button-response","47","276462","0.0-10.0-1.0-1.7","35458781FA444543970696E3FA173B16","35458781FA444543970696E3FA173B16","ab7a3027-ed0c-46c1-b308-54a1f1dc08eb","a0a8f18c-a66e-4ba7-a170-23efbdc67501","{""participantId"":""35458781FA444543970696E3FA173B16"",""assignmentId"":""ab7a3027-ed0c-46c1-b308-54a1f1dc08eb"",""projectId"":""a0a8f18c-a66e-4ba7-a170-23efbdc67501""}","https://test12345.live/?participantId=35458781FA444543970696E3FA173B16&assignmentId=ab7a3027-ed0c-46c1-b308-54a1f1dc08eb&projectId=a0a8f18c-a66e-4ba7-a170-23efbdc67501","35458781FA444543970696E3FA173B16-2024-11-24-18-39-04","","1402","","images/semantic_sequence/physical_activity_semantic/physical_activity_semantic_8.png","0","",""
"","","","","","image-button-response","48","278263","0.0-10.0-1.0-2.7","35458781FA444543970696E3FA173B16","35458781FA444543970696E3FA173B16","ab7a3027-ed0c-46c1-b308-54a1f1dc08eb","a0a8f18c-a66e-4ba7-a170-23efbdc67501","{""participantId"":""35458781FA444543970696E3FA173B16"",""assignmentId"":""ab7a3027-ed0c-46c1-b308-54a1f1dc08eb"",""projectId"":""a0a8f18c-a66e-4ba7-a170-23efbdc67501""}","https://test12345.live/?participantId=35458781FA444543970696E3FA173B16&assignmentId=ab7a3027-ed0c-46c1-b308-54a1f1dc08eb&projectId=a0a8f18c-a66e-4ba7-a170-23efbdc67501","35458781FA444543970696E3FA173B16-2024-11-24-18-39-04","","null","","[]","null","",""
"","","","","","image-button-response","49","282766","0.0-10.0-1.0-0.8","35458781FA444543970696E3FA173B16","35458781FA444543970696E3FA173B16","ab7a3027-ed0c-46c1-b308-54a1f1dc08eb","a0a8f18c-a66e-4ba7-a170-23efbdc67501","{""participantId"":""35458781FA444543970696E3FA173B16"",""assignmentId"":""ab7a3027-ed0c-46c1-b308-54a1f1dc08eb"",""projectId"":""a0a8f18c-a66e-4ba7-a170-23efbdc67501""}","https://test12345.live/?participantId=35458781FA444543970696E3FA173B16&assignmentId=ab7a3027-ed0c-46c1-b308-54a1f1dc08eb&projectId=a0a8f18c-a66e-4ba7-a170-23efbdc67501","35458781FA444543970696E3FA173B16-2024-11-24-18-39-04","","null","","images/semantic_sequence/physical_activity_semantic/physical_activity_semantic_9.png","null","",""
"","","","","","image-button-response","50","283493","0.0-10.0-1.0-1.8","35458781FA444543970696E3FA173B16","35458781FA444543970696E3FA173B16","ab7a3027-ed0c-46c1-b308-54a1f1dc08eb","a0a8f18c-a66e-4ba7-a170-23efbdc67501","{""participantId"":""35458781FA444543970696E3FA173B16"",""assignmentId"":""ab7a3027-ed0c-46c1-b308-54a1f1dc08eb"",""projectId"":""a0a8f18c-a66e-4ba7-a170-23efbdc67501""}","https://test12345.live/?participantId=35458781FA444543970696E3FA173B16&assignmentId=ab7a3027-ed0c-46c1-b308-54a1f1dc08eb&projectId=a0a8f18c-a66e-4ba7-a170-23efbdc67501","35458781FA444543970696E3FA173B16-2024-11-24-18-39-04","","726","","images/semantic_sequence/physical_activity_semantic/physical_activity_semantic_9.png","0","",""
"","","","","","image-button-response","51","285295","0.0-10.0-1.0-2.8","35458781FA444543970696E3FA173B16","35458781FA444543970696E3FA173B16","ab7a3027-ed0c-46c1-b308-54a1f1dc08eb","a0a8f18c-a66e-4ba7-a170-23efbdc67501","{""participantId"":""35458781FA444543970696E3FA173B16"",""assignmentId"":""ab7a3027-ed0c-46c1-b308-54a1f1dc08eb"",""projectId"":""a0a8f18c-a66e-4ba7-a170-23efbdc67501""}","https://test12345.live/?participantId=35458781FA444543970696E3FA173B16&assignmentId=ab7a3027-ed0c-46c1-b308-54a1f1dc08eb&projectId=a0a8f18c-a66e-4ba7-a170-23efbdc67501","35458781FA444543970696E3FA173B16-2024-11-24-18-39-04","","null","","[]","null","",""
"","","","","","image-button-response","52","289797","0.0-10.0-1.0-0.9","35458781FA444543970696E3FA173B16","35458781FA444543970696E3FA173B16","ab7a3027-ed0c-46c1-b308-54a1f1dc08eb","a0a8f18c-a66e-4ba7-a170-23efbdc67501","{""participantId"":""35458781FA444543970696E3FA173B16"",""assignmentId"":""ab7a3027-ed0c-46c1-b308-54a1f1dc08eb"",""projectId"":""a0a8f18c-a66e-4ba7-a170-23efbdc67501""}","https://test12345.live/?participantId=35458781FA444543970696E3FA173B16&assignmentId=ab7a3027-ed0c-46c1-b308-54a1f1dc08eb&projectId=a0a8f18c-a66e-4ba7-a170-23efbdc67501","35458781FA444543970696E3FA173B16-2024-11-24-18-39-04","","null","","images/semantic_sequence/physical_activity_semantic/physical_activity_semantic_ten.png","null","",""
"","","","","","image-button-response","53","290461","0.0-10.0-1.0-1.9","35458781FA444543970696E3FA173B16","35458781FA444543970696E3FA173B16","ab7a3027-ed0c-46c1-b308-54a1f1dc08eb","a0a8f18c-a66e-4ba7-a170-23efbdc67501","{""participantId"":""35458781FA444543970696E3FA173B16"",""assignmentId"":""ab7a3027-ed0c-46c1-b308-54a1f1dc08eb"",""projectId"":""a0a8f18c-a66e-4ba7-a170-23efbdc67501""}","https://test12345.live/?participantId=35458781FA444543970696E3FA173B16&assignmentId=ab7a3027-ed0c-46c1-b308-54a1f1dc08eb&projectId=a0a8f18c-a66e-4ba7-a170-23efbdc67501","35458781FA444543970696E3FA173B16-2024-11-24-18-39-04","","661","","images/semantic_sequence/physical_activity_semantic/physical_activity_semantic_ten.png","0","",""
"","","","","","image-button-response","54","292263","0.0-10.0-1.0-2.9","35458781FA444543970696E3FA173B16","35458781FA444543970696E3FA173B16","ab7a3027-ed0c-46c1-b308-54a1f1dc08eb","a0a8f18c-a66e-4ba7-a170-23efbdc67501","{""participantId"":""35458781FA444543970696E3FA173B16"",""assignmentId"":""ab7a3027-ed0c-46c1-b308-54a1f1dc08eb"",""projectId"":""a0a8f18c-a66e-4ba7-a170-23efbdc67501""}","https://test12345.live/?participantId=35458781FA444543970696E3FA173B16&assignmentId=ab7a3027-ed0c-46c1-b308-54a1f1dc08eb&projectId=a0a8f18c-a66e-4ba7-a170-23efbdc67501","35458781FA444543970696E3FA173B16-2024-11-24-18-39-04","","null","","[]","null","",""
"","","","","","html-audio-response","55","360428","0.0-11.0","35458781FA444543970696E3FA173B16","35458781FA444543970696E3FA173B16","ab7a3027-ed0c-46c1-b308-54a1f1dc08eb","a0a8f18c-a66e-4ba7-a170-23efbdc67501","{""participantId"":""35458781FA444543970696E3FA173B16"",""assignmentId"":""ab7a3027-ed0c-46c1-b308-54a1f1dc08eb"",""projectId"":""a0a8f18c-a66e-4ba7-a170-23efbdc67501""}","https://test12345.live/?participantId=35458781FA444543970696E3FA173B16&assignmentId=ab7a3027-ed0c-46c1-b308-54a1f1dc08eb&projectId=a0a8f18c-a66e-4ba7-a170-23efbdc67501","35458781FA444543970696E3FA173B16-2024-11-24-18-39-04","","32168","","[""<span style=\""color: red; font-size: 24px\""> NOW RECORDING</span><p>Please say out loud all the images you saw, as many as you can remember. The images can be said in any order.</p>""]","","2","physical_activity_semantic"
"","","","","","image-button-response","56","366438","0.0-12.0-0.0","35458781FA444543970696E3FA173B16","35458781FA444543970696E3FA173B16","ab7a3027-ed0c-46c1-b308-54a1f1dc08eb","a0a8f18c-a66e-4ba7-a170-23efbdc67501","{""participantId"":""35458781FA444543970696E3FA173B16"",""assignmentId"":""ab7a3027-ed0c-46c1-b308-54a1f1dc08eb"",""projectId"":""a0a8f18c-a66e-4ba7-a170-23efbdc67501""}","https://test12345.live/?participantId=35458781FA444543970696E3FA173B16&assignmentId=ab7a3027-ed0c-46c1-b308-54a1f1dc08eb&projectId=a0a8f18c-a66e-4ba7-a170-23efbdc67501","35458781FA444543970696E3FA173B16-2024-11-24-18-39-04","","null","","images/schematic_sequence/restaurant_scheme/restaurant_scheme_0.png","null","",""
"","","","","","image-button-response","57","370940","0.0-12.0-1.0-0.0","35458781FA444543970696E3FA173B16","35458781FA444543970696E3FA173B16","ab7a3027-ed0c-46c1-b308-54a1f1dc08eb","a0a8f18c-a66e-4ba7-a170-23efbdc67501","{""participantId"":""35458781FA444543970696E3FA173B16"",""assignmentId"":""ab7a3027-ed0c-46c1-b308-54a1f1dc08eb"",""projectId"":""a0a8f18c-a66e-4ba7-a170-23efbdc67501""}","https://test12345.live/?participantId=35458781FA444543970696E3FA173B16&assignmentId=ab7a3027-ed0c-46c1-b308-54a1f1dc08eb&projectId=a0a8f18c-a66e-4ba7-a170-23efbdc67501","35458781FA444543970696E3FA173B16-2024-11-24-18-39-04","","null","","images/schematic_sequence/restaurant_scheme/restaurant_scheme_1.png","null","",""
"","","","","","image-button-response","58","372814","0.0-12.0-1.0-1.0","35458781FA444543970696E3FA173B16","35458781FA444543970696E3FA173B16","ab7a3027-ed0c-46c1-b308-54a1f1dc08eb","a0a8f18c-a66e-4ba7-a170-23efbdc67501","{""participantId"":""35458781FA444543970696E3FA173B16"",""assignmentId"":""ab7a3027-ed0c-46c1-b308-54a1f1dc08eb"",""projectId"":""a0a8f18c-a66e-4ba7-a170-23efbdc67501""}","https://test12345.live/?participantId=35458781FA444543970696E3FA173B16&assignmentId=ab7a3027-ed0c-46c1-b308-54a1f1dc08eb&projectId=a0a8f18c-a66e-4ba7-a170-23efbdc67501","35458781FA444543970696E3FA173B16-2024-11-24-18-39-04","","1872","","images/schematic_sequence/restaurant_scheme/restaurant_scheme_1.png","0","",""
"","","","","","image-button-response","59","374615","0.0-12.0-1.0-2.0","35458781FA444543970696E3FA173B16","35458781FA444543970696E3FA173B16","ab7a3027-ed0c-46c1-b308-54a1f1dc08eb","a0a8f18c-a66e-4ba7-a170-23efbdc67501","{""participantId"":""35458781FA444543970696E3FA173B16"",""assignmentId"":""ab7a3027-ed0c-46c1-b308-54a1f1dc08eb"",""projectId"":""a0a8f18c-a66e-4ba7-a170-23efbdc67501""}","https://test12345.live/?participantId=35458781FA444543970696E3FA173B16&assignmentId=ab7a3027-ed0c-46c1-b308-54a1f1dc08eb&projectId=a0a8f18c-a66e-4ba7-a170-23efbdc67501","35458781FA444543970696E3FA173B16-2024-11-24-18-39-04","","null","","[]","null","",""
"","","","","","image-button-response","60","379117","0.0-12.0-1.0-0.1","35458781FA444543970696E3FA173B16","35458781FA444543970696E3FA173B16","ab7a3027-ed0c-46c1-b308-54a1f1dc08eb","a0a8f18c-a66e-4ba7-a170-23efbdc67501","{""participantId"":""35458781FA444543970696E3FA173B16"",""assignmentId"":""ab7a3027-ed0c-46c1-b308-54a1f1dc08eb"",""projectId"":""a0a8f18c-a66e-4ba7-a170-23efbdc67501""}","https://test12345.live/?participantId=35458781FA444543970696E3FA173B16&assignmentId=ab7a3027-ed0c-46c1-b308-54a1f1dc08eb&projectId=a0a8f18c-a66e-4ba7-a170-23efbdc67501","35458781FA444543970696E3FA173B16-2024-11-24-18-39-04","","null","","images/schematic_sequence/restaurant_scheme/restaurant_scheme_2.png","null","",""
"","","","","","image-button-response","61","380523","0.0-12.0-1.0-1.1","35458781FA444543970696E3FA173B16","35458781FA444543970696E3FA173B16","ab7a3027-ed0c-46c1-b308-54a1f1dc08eb","a0a8f18c-a66e-4ba7-a170-23efbdc67501","{""participantId"":""35458781FA444543970696E3FA173B16"",""assignmentId"":""ab7a3027-ed0c-46c1-b308-54a1f1dc08eb"",""projectId"":""a0a8f18c-a66e-4ba7-a170-23efbdc67501""}","https://test12345.live/?participantId=35458781FA444543970696E3FA173B16&assignmentId=ab7a3027-ed0c-46c1-b308-54a1f1dc08eb&projectId=a0a8f18c-a66e-4ba7-a170-23efbdc67501","35458781FA444543970696E3FA173B16-2024-11-24-18-39-04","","1403","","images/schematic_sequence/restaurant_scheme/restaurant_scheme_2.png","1","",""
"","","","","","image-button-response","62","382325","0.0-12.0-1.0-2.1","35458781FA444543970696E3FA173B16","35458781FA444543970696E3FA173B16","ab7a3027-ed0c-46c1-b308-54a1f1dc08eb","a0a8f18c-a66e-4ba7-a170-23efbdc67501","{""participantId"":""35458781FA444543970696E3FA173B16"",""assignmentId"":""ab7a3027-ed0c-46c1-b308-54a1f1dc08eb"",""projectId"":""a0a8f18c-a66e-4ba7-a170-23efbdc67501""}","https://test12345.live/?participantId=35458781FA444543970696E3FA173B16&assignmentId=ab7a3027-ed0c-46c1-b308-54a1f1dc08eb&projectId=a0a8f18c-a66e-4ba7-a170-23efbdc67501","35458781FA444543970696E3FA173B16-2024-11-24-18-39-04","","null","","[]","null","",""
"","","","","","image-button-response","63","386827","0.0-12.0-1.0-0.2","35458781FA444543970696E3FA173B16","35458781FA444543970696E3FA173B16","ab7a3027-ed0c-46c1-b308-54a1f1dc08eb","a0a8f18c-a66e-4ba7-a170-23efbdc67501","{""participantId"":""35458781FA444543970696E3FA173B16"",""assignmentId"":""ab7a3027-ed0c-46c1-b308-54a1f1dc08eb"",""projectId"":""a0a8f18c-a66e-4ba7-a170-23efbdc67501""}","https://test12345.live/?participantId=35458781FA444543970696E3FA173B16&assignmentId=ab7a3027-ed0c-46c1-b308-54a1f1dc08eb&projectId=a0a8f18c-a66e-4ba7-a170-23efbdc67501","35458781FA444543970696E3FA173B16-2024-11-24-18-39-04","","null","","images/schematic_sequence/restaurant_scheme/restaurant_scheme_3.png","null","",""
"","","","","","image-button-response","64","387844","0.0-12.0-1.0-1.2","35458781FA444543970696E3FA173B16","35458781FA444543970696E3FA173B16","ab7a3027-ed0c-46c1-b308-54a1f1dc08eb","a0a8f18c-a66e-4ba7-a170-23efbdc67501","{""participantId"":""35458781FA444543970696E3FA173B16"",""assignmentId"":""ab7a3027-ed0c-46c1-b308-54a1f1dc08eb"",""projectId"":""a0a8f18c-a66e-4ba7-a170-23efbdc67501""}","https://test12345.live/?participantId=35458781FA444543970696E3FA173B16&assignmentId=ab7a3027-ed0c-46c1-b308-54a1f1dc08eb&projectId=a0a8f18c-a66e-4ba7-a170-23efbdc67501","35458781FA444543970696E3FA173B16-2024-11-24-18-39-04","","1015","","images/schematic_sequence/restaurant_scheme/restaurant_scheme_3.png","1","",""
"","","","","","image-button-response","65","389646","0.0-12.0-1.0-2.2","35458781FA444543970696E3FA173B16","35458781FA444543970696E3FA173B16","ab7a3027-ed0c-46c1-b308-54a1f1dc08eb","a0a8f18c-a66e-4ba7-a170-23efbdc67501","{""participantId"":""35458781FA444543970696E3FA173B16"",""assignmentId"":""ab7a3027-ed0c-46c1-b308-54a1f1dc08eb"",""projectId"":""a0a8f18c-a66e-4ba7-a170-23efbdc67501""}","https://test12345.live/?participantId=35458781FA444543970696E3FA173B16&assignmentId=ab7a3027-ed0c-46c1-b308-54a1f1dc08eb&projectId=a0a8f18c-a66e-4ba7-a170-23efbdc67501","35458781FA444543970696E3FA173B16-2024-11-24-18-39-04","","null","","[]","null","",""
"","","","","","image-button-response","66","394148","0.0-12.0-1.0-0.3","35458781FA444543970696E3FA173B16","35458781FA444543970696E3FA173B16","ab7a3027-ed0c-46c1-b308-54a1f1dc08eb","a0a8f18c-a66e-4ba7-a170-23efbdc67501","{""participantId"":""35458781FA444543970696E3FA173B16"",""assignmentId"":""ab7a3027-ed0c-46c1-b308-54a1f1dc08eb"",""projectId"":""a0a8f18c-a66e-4ba7-a170-23efbdc67501""}","https://test12345.live/?participantId=35458781FA444543970696E3FA173B16&assignmentId=ab7a3027-ed0c-46c1-b308-54a1f1dc08eb&projectId=a0a8f18c-a66e-4ba7-a170-23efbdc67501","35458781FA444543970696E3FA173B16-2024-11-24-18-39-04","","null","","images/schematic_sequence/restaurant_scheme/restaurant_scheme_4.png","null","",""
"","","","","","image-button-response","67","395124","0.0-12.0-1.0-1.3","35458781FA444543970696E3FA173B16","35458781FA444543970696E3FA173B16","ab7a3027-ed0c-46c1-b308-54a1f1dc08eb","a0a8f18c-a66e-4ba7-a170-23efbdc67501","{""participantId"":""35458781FA444543970696E3FA173B16"",""assignmentId"":""ab7a3027-ed0c-46c1-b308-54a1f1dc08eb"",""projectId"":""a0a8f18c-a66e-4ba7-a170-23efbdc67501""}","https://test12345.live/?participantId=35458781FA444543970696E3FA173B16&assignmentId=ab7a3027-ed0c-46c1-b308-54a1f1dc08eb&projectId=a0a8f18c-a66e-4ba7-a170-23efbdc67501","35458781FA444543970696E3FA173B16-2024-11-24-18-39-04","","973","","images/schematic_sequence/restaurant_scheme/restaurant_scheme_4.png","0","",""
"","","","","","image-button-response","68","396926","0.0-12.0-1.0-2.3","35458781FA444543970696E3FA173B16","35458781FA444543970696E3FA173B16","ab7a3027-ed0c-46c1-b308-54a1f1dc08eb","a0a8f18c-a66e-4ba7-a170-23efbdc67501","{""participantId"":""35458781FA444543970696E3FA173B16"",""assignmentId"":""ab7a3027-ed0c-46c1-b308-54a1f1dc08eb"",""projectId"":""a0a8f18c-a66e-4ba7-a170-23efbdc67501""}","https://test12345.live/?participantId=35458781FA444543970696E3FA173B16&assignmentId=ab7a3027-ed0c-46c1-b308-54a1f1dc08eb&projectId=a0a8f18c-a66e-4ba7-a170-23efbdc67501","35458781FA444543970696E3FA173B16-2024-11-24-18-39-04","","null","","[]","null","",""
"","","","","","image-button-response","69","401428","0.0-12.0-1.0-0.4","35458781FA444543970696E3FA173B16","35458781FA444543970696E3FA173B16","ab7a3027-ed0c-46c1-b308-54a1f1dc08eb","a0a8f18c-a66e-4ba7-a170-23efbdc67501","{""participantId"":""35458781FA444543970696E3FA173B16"",""assignmentId"":""ab7a3027-ed0c-46c1-b308-54a1f1dc08eb"",""projectId"":""a0a8f18c-a66e-4ba7-a170-23efbdc67501""}","https://test12345.live/?participantId=35458781FA444543970696E3FA173B16&assignmentId=ab7a3027-ed0c-46c1-b308-54a1f1dc08eb&projectId=a0a8f18c-a66e-4ba7-a170-23efbdc67501","35458781FA444543970696E3FA173B16-2024-11-24-18-39-04","","null","","images/schematic_sequence/restaurant_scheme/restaurant_scheme_5.png","null","",""
"","","","","","image-button-response","70","402263","0.0-12.0-1.0-1.4","35458781FA444543970696E3FA173B16","35458781FA444543970696E3FA173B16","ab7a3027-ed0c-46c1-b308-54a1f1dc08eb","a0a8f18c-a66e-4ba7-a170-23efbdc67501","{""participantId"":""35458781FA444543970696E3FA173B16"",""assignmentId"":""ab7a3027-ed0c-46c1-b308-54a1f1dc08eb"",""projectId"":""a0a8f18c-a66e-4ba7-a170-23efbdc67501""}","https://test12345.live/?participantId=35458781FA444543970696E3FA173B16&assignmentId=ab7a3027-ed0c-46c1-b308-54a1f1dc08eb&projectId=a0a8f18c-a66e-4ba7-a170-23efbdc67501","35458781FA444543970696E3FA173B16-2024-11-24-18-39-04","","833","","images/schematic_sequence/restaurant_scheme/restaurant_scheme_5.png","0","",""
"","","","","","image-button-response","71","404065","0.0-12.0-1.0-2.4","35458781FA444543970696E3FA173B16","35458781FA444543970696E3FA173B16","ab7a3027-ed0c-46c1-b308-54a1f1dc08eb","a0a8f18c-a66e-4ba7-a170-23efbdc67501","{""participantId"":""35458781FA444543970696E3FA173B16"",""assignmentId"":""ab7a3027-ed0c-46c1-b308-54a1f1dc08eb"",""projectId"":""a0a8f18c-a66e-4ba7-a170-23efbdc67501""}","https://test12345.live/?participantId=35458781FA444543970696E3FA173B16&assignmentId=ab7a3027-ed0c-46c1-b308-54a1f1dc08eb&projectId=a0a8f18c-a66e-4ba7-a170-23efbdc67501","35458781FA444543970696E3FA173B16-2024-11-24-18-39-04","","null","","[]","null","",""
"","","","","","image-button-response","72","408566","0.0-12.0-1.0-0.5","35458781FA444543970696E3FA173B16","35458781FA444543970696E3FA173B16","ab7a3027-ed0c-46c1-b308-54a1f1dc08eb","a0a8f18c-a66e-4ba7-a170-23efbdc67501","{""participantId"":""35458781FA444543970696E3FA173B16"",""assignmentId"":""ab7a3027-ed0c-46c1-b308-54a1f1dc08eb"",""projectId"":""a0a8f18c-a66e-4ba7-a170-23efbdc67501""}","https://test12345.live/?participantId=35458781FA444543970696E3FA173B16&assignmentId=ab7a3027-ed0c-46c1-b308-54a1f1dc08eb&projectId=a0a8f18c-a66e-4ba7-a170-23efbdc67501","35458781FA444543970696E3FA173B16-2024-11-24-18-39-04","","null","","images/schematic_sequence/restaurant_scheme/restaurant_scheme_6.png","null","",""
"","","","","","image-button-response","73","409280","0.0-12.0-1.0-1.5","35458781FA444543970696E3FA173B16","35458781FA444543970696E3FA173B16","ab7a3027-ed0c-46c1-b308-54a1f1dc08eb","a0a8f18c-a66e-4ba7-a170-23efbdc67501","{""participantId"":""35458781FA444543970696E3FA173B16"",""assignmentId"":""ab7a3027-ed0c-46c1-b308-54a1f1dc08eb"",""projectId"":""a0a8f18c-a66e-4ba7-a170-23efbdc67501""}","https://test12345.live/?participantId=35458781FA444543970696E3FA173B16&assignmentId=ab7a3027-ed0c-46c1-b308-54a1f1dc08eb&projectId=a0a8f18c-a66e-4ba7-a170-23efbdc67501","35458781FA444543970696E3FA173B16-2024-11-24-18-39-04","","713","","images/schematic_sequence/restaurant_scheme/restaurant_scheme_6.png","1","",""
"","","","","","image-button-response","74","411081","0.0-12.0-1.0-2.5","35458781FA444543970696E3FA173B16","35458781FA444543970696E3FA173B16","ab7a3027-ed0c-46c1-b308-54a1f1dc08eb","a0a8f18c-a66e-4ba7-a170-23efbdc67501","{""participantId"":""35458781FA444543970696E3FA173B16"",""assignmentId"":""ab7a3027-ed0c-46c1-b308-54a1f1dc08eb"",""projectId"":""a0a8f18c-a66e-4ba7-a170-23efbdc67501""}","https://test12345.live/?participantId=35458781FA444543970696E3FA173B16&assignmentId=ab7a3027-ed0c-46c1-b308-54a1f1dc08eb&projectId=a0a8f18c-a66e-4ba7-a170-23efbdc67501","35458781FA444543970696E3FA173B16-2024-11-24-18-39-04","","null","","[]","null","",""
"","","","","","image-button-response","75","415583","0.0-12.0-1.0-0.6","35458781FA444543970696E3FA173B16","35458781FA444543970696E3FA173B16","ab7a3027-ed0c-46c1-b308-54a1f1dc08eb","a0a8f18c-a66e-4ba7-a170-23efbdc67501","{""participantId"":""35458781FA444543970696E3FA173B16"",""assignmentId"":""ab7a3027-ed0c-46c1-b308-54a1f1dc08eb"",""projectId"":""a0a8f18c-a66e-4ba7-a170-23efbdc67501""}","https://test12345.live/?participantId=35458781FA444543970696E3FA173B16&assignmentId=ab7a3027-ed0c-46c1-b308-54a1f1dc08eb&projectId=a0a8f18c-a66e-4ba7-a170-23efbdc67501","35458781FA444543970696E3FA173B16-2024-11-24-18-39-04","","null","","images/schematic_sequence/restaurant_scheme/restaurant_scheme_7.png","null","",""
"","","","","","image-button-response","76","417284","0.0-12.0-1.0-1.6","35458781FA444543970696E3FA173B16","35458781FA444543970696E3FA173B16","ab7a3027-ed0c-46c1-b308-54a1f1dc08eb","a0a8f18c-a66e-4ba7-a170-23efbdc67501","{""participantId"":""35458781FA444543970696E3FA173B16"",""assignmentId"":""ab7a3027-ed0c-46c1-b308-54a1f1dc08eb"",""projectId"":""a0a8f18c-a66e-4ba7-a170-23efbdc67501""}","https://test12345.live/?participantId=35458781FA444543970696E3FA173B16&assignmentId=ab7a3027-ed0c-46c1-b308-54a1f1dc08eb&projectId=a0a8f18c-a66e-4ba7-a170-23efbdc67501","35458781FA444543970696E3FA173B16-2024-11-24-18-39-04","","1689","","images/schematic_sequence/restaurant_scheme/restaurant_scheme_7.png","1","",""
"","","","","","image-button-response","77","419087","0.0-12.0-1.0-2.6","35458781FA444543970696E3FA173B16","35458781FA444543970696E3FA173B16","ab7a3027-ed0c-46c1-b308-54a1f1dc08eb","a0a8f18c-a66e-4ba7-a170-23efbdc67501","{""participantId"":""35458781FA444543970696E3FA173B16"",""assignmentId"":""ab7a3027-ed0c-46c1-b308-54a1f1dc08eb"",""projectId"":""a0a8f18c-a66e-4ba7-a170-23efbdc67501""}","https://test12345.live/?participantId=35458781FA444543970696E3FA173B16&assignmentId=ab7a3027-ed0c-46c1-b308-54a1f1dc08eb&projectId=a0a8f18c-a66e-4ba7-a170-23efbdc67501","35458781FA444543970696E3FA173B16-2024-11-24-18-39-04","","null","","[]","null","",""
"","","","","","image-button-response","78","423590","0.0-12.0-1.0-0.7","35458781FA444543970696E3FA173B16","35458781FA444543970696E3FA173B16","ab7a3027-ed0c-46c1-b308-54a1f1dc08eb","a0a8f18c-a66e-4ba7-a170-23efbdc67501","{""participantId"":""35458781FA444543970696E3FA173B16"",""assignmentId"":""ab7a3027-ed0c-46c1-b308-54a1f1dc08eb"",""projectId"":""a0a8f18c-a66e-4ba7-a170-23efbdc67501""}","https://test12345.live/?participantId=35458781FA444543970696E3FA173B16&assignmentId=ab7a3027-ed0c-46c1-b308-54a1f1dc08eb&projectId=a0a8f18c-a66e-4ba7-a170-23efbdc67501","35458781FA444543970696E3FA173B16-2024-11-24-18-39-04","","null","","images/schematic_sequence/restaurant_scheme/restaurant_scheme_8.png","null","",""
"","","","","","image-button-response","79","424852","0.0-12.0-1.0-1.7","35458781FA444543970696E3FA173B16","35458781FA444543970696E3FA173B16","ab7a3027-ed0c-46c1-b308-54a1f1dc08eb","a0a8f18c-a66e-4ba7-a170-23efbdc67501","{""participantId"":""35458781FA444543970696E3FA173B16"",""assignmentId"":""ab7a3027-ed0c-46c1-b308-54a1f1dc08eb"",""projectId"":""a0a8f18c-a66e-4ba7-a170-23efbdc67501""}","https://test12345.live/?participantId=35458781FA444543970696E3FA173B16&assignmentId=ab7a3027-ed0c-46c1-b308-54a1f1dc08eb&projectId=a0a8f18c-a66e-4ba7-a170-23efbdc67501","35458781FA444543970696E3FA173B16-2024-11-24-18-39-04","","1259","","images/schematic_sequence/restaurant_scheme/restaurant_scheme_8.png","0","",""
"","","","","","image-button-response","80","426654","0.0-12.0-1.0-2.7","35458781FA444543970696E3FA173B16","35458781FA444543970696E3FA173B16","ab7a3027-ed0c-46c1-b308-54a1f1dc08eb","a0a8f18c-a66e-4ba7-a170-23efbdc67501","{""participantId"":""35458781FA444543970696E3FA173B16"",""assignmentId"":""ab7a3027-ed0c-46c1-b308-54a1f1dc08eb"",""projectId"":""a0a8f18c-a66e-4ba7-a170-23efbdc67501""}","https://test12345.live/?participantId=35458781FA444543970696E3FA173B16&assignmentId=ab7a3027-ed0c-46c1-b308-54a1f1dc08eb&projectId=a0a8f18c-a66e-4ba7-a170-23efbdc67501","35458781FA444543970696E3FA173B16-2024-11-24-18-39-04","","null","","[]","null","",""
"","","","","","image-button-response","81","431156","0.0-12.0-1.0-0.8","35458781FA444543970696E3FA173B16","35458781FA444543970696E3FA173B16","ab7a3027-ed0c-46c1-b308-54a1f1dc08eb","a0a8f18c-a66e-4ba7-a170-23efbdc67501","{""participantId"":""35458781FA444543970696E3FA173B16"",""assignmentId"":""ab7a3027-ed0c-46c1-b308-54a1f1dc08eb"",""projectId"":""a0a8f18c-a66e-4ba7-a170-23efbdc67501""}","https://test12345.live/?participantId=35458781FA444543970696E3FA173B16&assignmentId=ab7a3027-ed0c-46c1-b308-54a1f1dc08eb&projectId=a0a8f18c-a66e-4ba7-a170-23efbdc67501","35458781FA444543970696E3FA173B16-2024-11-24-18-39-04","","null","","images/schematic_sequence/restaurant_scheme/restaurant_scheme_9.png","null","",""
"","","","","","image-button-response","82","433002","0.0-12.0-1.0-1.8","35458781FA444543970696E3FA173B16","35458781FA444543970696E3FA173B16","ab7a3027-ed0c-46c1-b308-54a1f1dc08eb","a0a8f18c-a66e-4ba7-a170-23efbdc67501","{""participantId"":""35458781FA444543970696E3FA173B16"",""assignmentId"":""ab7a3027-ed0c-46c1-b308-54a1f1dc08eb"",""projectId"":""a0a8f18c-a66e-4ba7-a170-23efbdc67501""}","https://test12345.live/?participantId=35458781FA444543970696E3FA173B16&assignmentId=ab7a3027-ed0c-46c1-b308-54a1f1dc08eb&projectId=a0a8f18c-a66e-4ba7-a170-23efbdc67501","35458781FA444543970696E3FA173B16-2024-11-24-18-39-04","","1843","","images/schematic_sequence/restaurant_scheme/restaurant_scheme_9.png","0","",""
"","","","","","image-button-response","83","434804","0.0-12.0-1.0-2.8","35458781FA444543970696E3FA173B16","35458781FA444543970696E3FA173B16","ab7a3027-ed0c-46c1-b308-54a1f1dc08eb","a0a8f18c-a66e-4ba7-a170-23efbdc67501","{""participantId"":""35458781FA444543970696E3FA173B16"",""assignmentId"":""ab7a3027-ed0c-46c1-b308-54a1f1dc08eb"",""projectId"":""a0a8f18c-a66e-4ba7-a170-23efbdc67501""}","https://test12345.live/?participantId=35458781FA444543970696E3FA173B16&assignmentId=ab7a3027-ed0c-46c1-b308-54a1f1dc08eb&projectId=a0a8f18c-a66e-4ba7-a170-23efbdc67501","35458781FA444543970696E3FA173B16-2024-11-24-18-39-04","","null","","[]","null","",""
"","","","","","image-button-response","84","439306","0.0-12.0-1.0-0.9","35458781FA444543970696E3FA173B16","35458781FA444543970696E3FA173B16","ab7a3027-ed0c-46c1-b308-54a1f1dc08eb","a0a8f18c-a66e-4ba7-a170-23efbdc67501","{""participantId"":""35458781FA444543970696E3FA173B16"",""assignmentId"":""ab7a3027-ed0c-46c1-b308-54a1f1dc08eb"",""projectId"":""a0a8f18c-a66e-4ba7-a170-23efbdc67501""}","https://test12345.live/?participantId=35458781FA444543970696E3FA173B16&assignmentId=ab7a3027-ed0c-46c1-b308-54a1f1dc08eb&projectId=a0a8f18c-a66e-4ba7-a170-23efbdc67501","35458781FA444543970696E3FA173B16-2024-11-24-18-39-04","","null","","images/schematic_sequence/restaurant_scheme/restaurant_scheme_ten.png","null","",""
"","","","","","image-button-response","85","440270","0.0-12.0-1.0-1.9","35458781FA444543970696E3FA173B16","35458781FA444543970696E3FA173B16","ab7a3027-ed0c-46c1-b308-54a1f1dc08eb","a0a8f18c-a66e-4ba7-a170-23efbdc67501","{""participantId"":""35458781FA444543970696E3FA173B16"",""assignmentId"":""ab7a3027-ed0c-46c1-b308-54a1f1dc08eb"",""projectId"":""a0a8f18c-a66e-4ba7-a170-23efbdc67501""}","https://test12345.live/?participantId=35458781FA444543970696E3FA173B16&assignmentId=ab7a3027-ed0c-46c1-b308-54a1f1dc08eb&projectId=a0a8f18c-a66e-4ba7-a170-23efbdc67501","35458781FA444543970696E3FA173B16-2024-11-24-18-39-04","","962","","images/schematic_sequence/restaurant_scheme/restaurant_scheme_ten.png","0","",""
"","","","","","image-button-response","86","442072","0.0-12.0-1.0-2.9","35458781FA444543970696E3FA173B16","35458781FA444543970696E3FA173B16","ab7a3027-ed0c-46c1-b308-54a1f1dc08eb","a0a8f18c-a66e-4ba7-a170-23efbdc67501","{""participantId"":""35458781FA444543970696E3FA173B16"",""assignmentId"":""ab7a3027-ed0c-46c1-b308-54a1f1dc08eb"",""projectId"":""a0a8f18c-a66e-4ba7-a170-23efbdc67501""}","https://test12345.live/?participantId=35458781FA444543970696E3FA173B16&assignmentId=ab7a3027-ed0c-46c1-b308-54a1f1dc08eb&projectId=a0a8f18c-a66e-4ba7-a170-23efbdc67501","35458781FA444543970696E3FA173B16-2024-11-24-18-39-04","","null","","[]","null","",""
"","","","","","html-audio-response","87","493020","0.0-13.0","35458781FA444543970696E3FA173B16","35458781FA444543970696E3FA173B16","ab7a3027-ed0c-46c1-b308-54a1f1dc08eb","a0a8f18c-a66e-4ba7-a170-23efbdc67501","{""participantId"":""35458781FA444543970696E3FA173B16"",""assignmentId"":""ab7a3027-ed0c-46c1-b308-54a1f1dc08eb"",""projectId"":""a0a8f18c-a66e-4ba7-a170-23efbdc67501""}","https://test12345.live/?participantId=35458781FA444543970696E3FA173B16&assignmentId=ab7a3027-ed0c-46c1-b308-54a1f1dc08eb&projectId=a0a8f18c-a66e-4ba7-a170-23efbdc67501","35458781FA444543970696E3FA173B16-2024-11-24-18-39-04","","49018","","[""<span style=\""color: red; font-size: 24px\""> NOW RECORDING</span><p>Please say out loud all the images you saw, as many as you can remember. The images can be said in any order.</p>""]","","2","restaurant_scheme"
"","","","","","image-button-response","88","499031","0.0-14.0-0.0","35458781FA444543970696E3FA173B16","35458781FA444543970696E3FA173B16","ab7a3027-ed0c-46c1-b308-54a1f1dc08eb","a0a8f18c-a66e-4ba7-a170-23efbdc67501","{""participantId"":""35458781FA444543970696E3FA173B16"",""assignmentId"":""ab7a3027-ed0c-46c1-b308-54a1f1dc08eb"",""projectId"":""a0a8f18c-a66e-4ba7-a170-23efbdc67501""}","https://test12345.live/?participantId=35458781FA444543970696E3FA173B16&assignmentId=ab7a3027-ed0c-46c1-b308-54a1f1dc08eb&projectId=a0a8f18c-a66e-4ba7-a170-23efbdc67501","35458781FA444543970696E3FA173B16-2024-11-24-18-39-04","","null","","images/causal_sequence/museum_causal/museum_causal_0.png","null","",""
"","","","","","image-button-response","89","503533","0.0-14.0-1.0-0.0","35458781FA444543970696E3FA173B16","35458781FA444543970696E3FA173B16","ab7a3027-ed0c-46c1-b308-54a1f1dc08eb","a0a8f18c-a66e-4ba7-a170-23efbdc67501","{""participantId"":""35458781FA444543970696E3FA173B16"",""assignmentId"":""ab7a3027-ed0c-46c1-b308-54a1f1dc08eb"",""projectId"":""a0a8f18c-a66e-4ba7-a170-23efbdc67501""}","https://test12345.live/?participantId=35458781FA444543970696E3FA173B16&assignmentId=ab7a3027-ed0c-46c1-b308-54a1f1dc08eb&projectId=a0a8f18c-a66e-4ba7-a170-23efbdc67501","35458781FA444543970696E3FA173B16-2024-11-24-18-39-04","","null","","images/causal_sequence/museum_causal/museum_causal_2.png","null","",""
"","","","","","image-button-response","90","505312","0.0-14.0-1.0-1.0","35458781FA444543970696E3FA173B16","35458781FA444543970696E3FA173B16","ab7a3027-ed0c-46c1-b308-54a1f1dc08eb","a0a8f18c-a66e-4ba7-a170-23efbdc67501","{""participantId"":""35458781FA444543970696E3FA173B16"",""assignmentId"":""ab7a3027-ed0c-46c1-b308-54a1f1dc08eb"",""projectId"":""a0a8f18c-a66e-4ba7-a170-23efbdc67501""}","https://test12345.live/?participantId=35458781FA444543970696E3FA173B16&assignmentId=ab7a3027-ed0c-46c1-b308-54a1f1dc08eb&projectId=a0a8f18c-a66e-4ba7-a170-23efbdc67501","35458781FA444543970696E3FA173B16-2024-11-24-18-39-04","","1776","","images/causal_sequence/museum_causal/museum_causal_2.png","0","",""
"","","","","","image-button-response","91","507114","0.0-14.0-1.0-2.0","35458781FA444543970696E3FA173B16","35458781FA444543970696E3FA173B16","ab7a3027-ed0c-46c1-b308-54a1f1dc08eb","a0a8f18c-a66e-4ba7-a170-23efbdc67501","{""participantId"":""35458781FA444543970696E3FA173B16"",""assignmentId"":""ab7a3027-ed0c-46c1-b308-54a1f1dc08eb"",""projectId"":""a0a8f18c-a66e-4ba7-a170-23efbdc67501""}","https://test12345.live/?participantId=35458781FA444543970696E3FA173B16&assignmentId=ab7a3027-ed0c-46c1-b308-54a1f1dc08eb&projectId=a0a8f18c-a66e-4ba7-a170-23efbdc67501","35458781FA444543970696E3FA173B16-2024-11-24-18-39-04","","null","","[]","null","",""
"","","","","","image-button-response","92","511616","0.0-14.0-1.0-0.1","35458781FA444543970696E3FA173B16","35458781FA444543970696E3FA173B16","ab7a3027-ed0c-46c1-b308-54a1f1dc08eb","a0a8f18c-a66e-4ba7-a170-23efbdc67501","{""participantId"":""35458781FA444543970696E3FA173B16"",""assignmentId"":""ab7a3027-ed0c-46c1-b308-54a1f1dc08eb"",""projectId"":""a0a8f18c-a66e-4ba7-a170-23efbdc67501""}","https://test12345.live/?participantId=35458781FA444543970696E3FA173B16&assignmentId=ab7a3027-ed0c-46c1-b308-54a1f1dc08eb&projectId=a0a8f18c-a66e-4ba7-a170-23efbdc67501","35458781FA444543970696E3FA173B16-2024-11-24-18-39-04","","null","","images/causal_sequence/museum_causal/museum_causal_9.png","null","",""
"","","","","","image-button-response","93","512817","0.0-14.0-1.0-1.1","35458781FA444543970696E3FA173B16","35458781FA444543970696E3FA173B16","ab7a3027-ed0c-46c1-b308-54a1f1dc08eb","a0a8f18c-a66e-4ba7-a170-23efbdc67501","{""participantId"":""35458781FA444543970696E3FA173B16"",""assignmentId"":""ab7a3027-ed0c-46c1-b308-54a1f1dc08eb"",""projectId"":""a0a8f18c-a66e-4ba7-a170-23efbdc67501""}","https://test12345.live/?participantId=35458781FA444543970696E3FA173B16&assignmentId=ab7a3027-ed0c-46c1-b308-54a1f1dc08eb&projectId=a0a8f18c-a66e-4ba7-a170-23efbdc67501","35458781FA444543970696E3FA173B16-2024-11-24-18-39-04","","1199","","images/causal_sequence/museum_causal/museum_causal_9.png","1","",""
"","","","","","image-button-response","94","514619","0.0-14.0-1.0-2.1","35458781FA444543970696E3FA173B16","35458781FA444543970696E3FA173B16","ab7a3027-ed0c-46c1-b308-54a1f1dc08eb","a0a8f18c-a66e-4ba7-a170-23efbdc67501","{""participantId"":""35458781FA444543970696E3FA173B16"",""assignmentId"":""ab7a3027-ed0c-46c1-b308-54a1f1dc08eb"",""projectId"":""a0a8f18c-a66e-4ba7-a170-23efbdc67501""}","https://test12345.live/?participantId=35458781FA444543970696E3FA173B16&assignmentId=ab7a3027-ed0c-46c1-b308-54a1f1dc08eb&projectId=a0a8f18c-a66e-4ba7-a170-23efbdc67501","35458781FA444543970696E3FA173B16-2024-11-24-18-39-04","","null","","[]","null","",""
"","","","","","image-button-response","95","519121","0.0-14.0-1.0-0.2","35458781FA444543970696E3FA173B16","35458781FA444543970696E3FA173B16","ab7a3027-ed0c-46c1-b308-54a1f1dc08eb","a0a8f18c-a66e-4ba7-a170-23efbdc67501","{""participantId"":""35458781FA444543970696E3FA173B16"",""assignmentId"":""ab7a3027-ed0c-46c1-b308-54a1f1dc08eb"",""projectId"":""a0a8f18c-a66e-4ba7-a170-23efbdc67501""}","https://test12345.live/?participantId=35458781FA444543970696E3FA173B16&assignmentId=ab7a3027-ed0c-46c1-b308-54a1f1dc08eb&projectId=a0a8f18c-a66e-4ba7-a170-23efbdc67501","35458781FA444543970696E3FA173B16-2024-11-24-18-39-04","","null","","images/causal_sequence/museum_causal/museum_causal_7.png","null","",""
"","","","","","image-button-response","96","520085","0.0-14.0-1.0-1.2","35458781FA444543970696E3FA173B16","35458781FA444543970696E3FA173B16","ab7a3027-ed0c-46c1-b308-54a1f1dc08eb","a0a8f18c-a66e-4ba7-a170-23efbdc67501","{""participantId"":""35458781FA444543970696E3FA173B16"",""assignmentId"":""ab7a3027-ed0c-46c1-b308-54a1f1dc08eb"",""projectId"":""a0a8f18c-a66e-4ba7-a170-23efbdc67501""}","https://test12345.live/?participantId=35458781FA444543970696E3FA173B16&assignmentId=ab7a3027-ed0c-46c1-b308-54a1f1dc08eb&projectId=a0a8f18c-a66e-4ba7-a170-23efbdc67501","35458781FA444543970696E3FA173B16-2024-11-24-18-39-04","","962","","images/causal_sequence/museum_causal/museum_causal_7.png","1","",""
"","","","","","image-button-response","97","521887","0.0-14.0-1.0-2.2","35458781FA444543970696E3FA173B16","35458781FA444543970696E3FA173B16","ab7a3027-ed0c-46c1-b308-54a1f1dc08eb","a0a8f18c-a66e-4ba7-a170-23efbdc67501","{""participantId"":""35458781FA444543970696E3FA173B16"",""assignmentId"":""ab7a3027-ed0c-46c1-b308-54a1f1dc08eb"",""projectId"":""a0a8f18c-a66e-4ba7-a170-23efbdc67501""}","https://test12345.live/?participantId=35458781FA444543970696E3FA173B16&assignmentId=ab7a3027-ed0c-46c1-b308-54a1f1dc08eb&projectId=a0a8f18c-a66e-4ba7-a170-23efbdc67501","35458781FA444543970696E3FA173B16-2024-11-24-18-39-04","","null","","[]","null","",""
"","","","","","image-button-response","98","526389","0.0-14.0-1.0-0.3","35458781FA444543970696E3FA173B16","35458781FA444543970696E3FA173B16","ab7a3027-ed0c-46c1-b308-54a1f1dc08eb","a0a8f18c-a66e-4ba7-a170-23efbdc67501","{""participantId"":""35458781FA444543970696E3FA173B16"",""assignmentId"":""ab7a3027-ed0c-46c1-b308-54a1f1dc08eb"",""projectId"":""a0a8f18c-a66e-4ba7-a170-23efbdc67501""}","https://test12345.live/?participantId=35458781FA444543970696E3FA173B16&assignmentId=ab7a3027-ed0c-46c1-b308-54a1f1dc08eb&projectId=a0a8f18c-a66e-4ba7-a170-23efbdc67501","35458781FA444543970696E3FA173B16-2024-11-24-18-39-04","","null","","images/causal_sequence/museum_causal/museum_causal_ten.png","null","",""
"","","","","","image-button-response","99","527138","0.0-14.0-1.0-1.3","35458781FA444543970696E3FA173B16","35458781FA444543970696E3FA173B16","ab7a3027-ed0c-46c1-b308-54a1f1dc08eb","a0a8f18c-a66e-4ba7-a170-23efbdc67501","{""participantId"":""35458781FA444543970696E3FA173B16"",""assignmentId"":""ab7a3027-ed0c-46c1-b308-54a1f1dc08eb"",""projectId"":""a0a8f18c-a66e-4ba7-a170-23efbdc67501""}","https://test12345.live/?participantId=35458781FA444543970696E3FA173B16&assignmentId=ab7a3027-ed0c-46c1-b308-54a1f1dc08eb&projectId=a0a8f18c-a66e-4ba7-a170-23efbdc67501","35458781FA444543970696E3FA173B16-2024-11-24-18-39-04","","747","","images/causal_sequence/museum_causal/museum_causal_ten.png","0","",""
"","","","","","image-button-response","100","528940","0.0-14.0-1.0-2.3","35458781FA444543970696E3FA173B16","35458781FA444543970696E3FA173B16","ab7a3027-ed0c-46c1-b308-54a1f1dc08eb","a0a8f18c-a66e-4ba7-a170-23efbdc67501","{""participantId"":""35458781FA444543970696E3FA173B16"",""assignmentId"":""ab7a3027-ed0c-46c1-b308-54a1f1dc08eb"",""projectId"":""a0a8f18c-a66e-4ba7-a170-23efbdc67501""}","https://test12345.live/?participantId=35458781FA444543970696E3FA173B16&assignmentId=ab7a3027-ed0c-46c1-b308-54a1f1dc08eb&projectId=a0a8f18c-a66e-4ba7-a170-23efbdc67501","35458781FA444543970696E3FA173B16-2024-11-24-18-39-04","","null","","[]","null","",""
"","","","","","image-button-response","101","533442","0.0-14.0-1.0-0.4","35458781FA444543970696E3FA173B16","35458781FA444543970696E3FA173B16","ab7a3027-ed0c-46c1-b308-54a1f1dc08eb","a0a8f18c-a66e-4ba7-a170-23efbdc67501","{""participantId"":""35458781FA444543970696E3FA173B16"",""assignmentId"":""ab7a3027-ed0c-46c1-b308-54a1f1dc08eb"",""projectId"":""a0a8f18c-a66e-4ba7-a170-23efbdc67501""}","https://test12345.live/?participantId=35458781FA444543970696E3FA173B16&assignmentId=ab7a3027-ed0c-46c1-b308-54a1f1dc08eb&projectId=a0a8f18c-a66e-4ba7-a170-23efbdc67501","35458781FA444543970696E3FA173B16-2024-11-24-18-39-04","","null","","images/causal_sequence/museum_causal/museum_causal_1.png","null","",""
"","","","","","image-button-response","102","534245","0.0-14.0-1.0-1.4","35458781FA444543970696E3FA173B16","35458781FA444543970696E3FA173B16","ab7a3027-ed0c-46c1-b308-54a1f1dc08eb","a0a8f18c-a66e-4ba7-a170-23efbdc67501","{""participantId"":""35458781FA444543970696E3FA173B16"",""assignmentId"":""ab7a3027-ed0c-46c1-b308-54a1f1dc08eb"",""projectId"":""a0a8f18c-a66e-4ba7-a170-23efbdc67501""}","https://test12345.live/?participantId=35458781FA444543970696E3FA173B16&assignmentId=ab7a3027-ed0c-46c1-b308-54a1f1dc08eb&projectId=a0a8f18c-a66e-4ba7-a170-23efbdc67501","35458781FA444543970696E3FA173B16-2024-11-24-18-39-04","","801","","images/causal_sequence/museum_causal/museum_causal_1.png","0","",""
"","","","","","image-button-response","103","536047","0.0-14.0-1.0-2.4","35458781FA444543970696E3FA173B16","35458781FA444543970696E3FA173B16","ab7a3027-ed0c-46c1-b308-54a1f1dc08eb","a0a8f18c-a66e-4ba7-a170-23efbdc67501","{""participantId"":""35458781FA444543970696E3FA173B16"",""assignmentId"":""ab7a3027-ed0c-46c1-b308-54a1f1dc08eb"",""projectId"":""a0a8f18c-a66e-4ba7-a170-23efbdc67501""}","https://test12345.live/?participantId=35458781FA444543970696E3FA173B16&assignmentId=ab7a3027-ed0c-46c1-b308-54a1f1dc08eb&projectId=a0a8f18c-a66e-4ba7-a170-23efbdc67501","35458781FA444543970696E3FA173B16-2024-11-24-18-39-04","","null","","[]","null","",""
"","","","","","image-button-response","104","540549","0.0-14.0-1.0-0.5","35458781FA444543970696E3FA173B16","35458781FA444543970696E3FA173B16","ab7a3027-ed0c-46c1-b308-54a1f1dc08eb","a0a8f18c-a66e-4ba7-a170-23efbdc67501","{""participantId"":""35458781FA444543970696E3FA173B16"",""assignmentId"":""ab7a3027-ed0c-46c1-b308-54a1f1dc08eb"",""projectId"":""a0a8f18c-a66e-4ba7-a170-23efbdc67501""}","https://test12345.live/?participantId=35458781FA444543970696E3FA173B16&assignmentId=ab7a3027-ed0c-46c1-b308-54a1f1dc08eb&projectId=a0a8f18c-a66e-4ba7-a170-23efbdc67501","35458781FA444543970696E3FA173B16-2024-11-24-18-39-04","","null","","images/causal_sequence/museum_causal/museum_causal_5.png","null","",""
"","","","","","image-button-response","105","541244","0.0-14.0-1.0-1.5","35458781FA444543970696E3FA173B16","35458781FA444543970696E3FA173B16","ab7a3027-ed0c-46c1-b308-54a1f1dc08eb","a0a8f18c-a66e-4ba7-a170-23efbdc67501","{""participantId"":""35458781FA444543970696E3FA173B16"",""assignmentId"":""ab7a3027-ed0c-46c1-b308-54a1f1dc08eb"",""projectId"":""a0a8f18c-a66e-4ba7-a170-23efbdc67501""}","https://test12345.live/?participantId=35458781FA444543970696E3FA173B16&assignmentId=ab7a3027-ed0c-46c1-b308-54a1f1dc08eb&projectId=a0a8f18c-a66e-4ba7-a170-23efbdc67501","35458781FA444543970696E3FA173B16-2024-11-24-18-39-04","","693","","images/causal_sequence/museum_causal/museum_causal_5.png","0","",""
"","","","","","image-button-response","106","543046","0.0-14.0-1.0-2.5","35458781FA444543970696E3FA173B16","35458781FA444543970696E3FA173B16","ab7a3027-ed0c-46c1-b308-54a1f1dc08eb","a0a8f18c-a66e-4ba7-a170-23efbdc67501","{""participantId"":""35458781FA444543970696E3FA173B16"",""assignmentId"":""ab7a3027-ed0c-46c1-b308-54a1f1dc08eb"",""projectId"":""a0a8f18c-a66e-4ba7-a170-23efbdc67501""}","https://test12345.live/?participantId=35458781FA444543970696E3FA173B16&assignmentId=ab7a3027-ed0c-46c1-b308-54a1f1dc08eb&projectId=a0a8f18c-a66e-4ba7-a170-23efbdc67501","35458781FA444543970696E3FA173B16-2024-11-24-18-39-04","","null","","[]","null","",""
"","","","","","image-button-response","107","547548","0.0-14.0-1.0-0.6","35458781FA444543970696E3FA173B16","35458781FA444543970696E3FA173B16","ab7a3027-ed0c-46c1-b308-54a1f1dc08eb","a0a8f18c-a66e-4ba7-a170-23efbdc67501","{""participantId"":""35458781FA444543970696E3FA173B16"",""assignmentId"":""ab7a3027-ed0c-46c1-b308-54a1f1dc08eb"",""projectId"":""a0a8f18c-a66e-4ba7-a170-23efbdc67501""}","https://test12345.live/?participantId=35458781FA444543970696E3FA173B16&assignmentId=ab7a3027-ed0c-46c1-b308-54a1f1dc08eb&projectId=a0a8f18c-a66e-4ba7-a170-23efbdc67501","35458781FA444543970696E3FA173B16-2024-11-24-18-39-04","","null","","images/causal_sequence/museum_causal/museum_causal_8.png","null","",""
"","","","","","image-button-response","108","548190","0.0-14.0-1.0-1.6","35458781FA444543970696E3FA173B16","35458781FA444543970696E3FA173B16","ab7a3027-ed0c-46c1-b308-54a1f1dc08eb","a0a8f18c-a66e-4ba7-a170-23efbdc67501","{""participantId"":""35458781FA444543970696E3FA173B16"",""assignmentId"":""ab7a3027-ed0c-46c1-b308-54a1f1dc08eb"",""projectId"":""a0a8f18c-a66e-4ba7-a170-23efbdc67501""}","https://test12345.live/?participantId=35458781FA444543970696E3FA173B16&assignmentId=ab7a3027-ed0c-46c1-b308-54a1f1dc08eb&projectId=a0a8f18c-a66e-4ba7-a170-23efbdc67501","35458781FA444543970696E3FA173B16-2024-11-24-18-39-04","","639","","images/causal_sequence/museum_causal/museum_causal_8.png","0","",""
"","","","","","image-button-response","109","549992","0.0-14.0-1.0-2.6","35458781FA444543970696E3FA173B16","35458781FA444543970696E3FA173B16","ab7a3027-ed0c-46c1-b308-54a1f1dc08eb","a0a8f18c-a66e-4ba7-a170-23efbdc67501","{""participantId"":""35458781FA444543970696E3FA173B16"",""assignmentId"":""ab7a3027-ed0c-46c1-b308-54a1f1dc08eb"",""projectId"":""a0a8f18c-a66e-4ba7-a170-23efbdc67501""}","https://test12345.live/?participantId=35458781FA444543970696E3FA173B16&assignmentId=ab7a3027-ed0c-46c1-b308-54a1f1dc08eb&projectId=a0a8f18c-a66e-4ba7-a170-23efbdc67501","35458781FA444543970696E3FA173B16-2024-11-24-18-39-04","","null","","[]","null","",""
"","","","","","image-button-response","110","554494","0.0-14.0-1.0-0.7","35458781FA444543970696E3FA173B16","35458781FA444543970696E3FA173B16","ab7a3027-ed0c-46c1-b308-54a1f1dc08eb","a0a8f18c-a66e-4ba7-a170-23efbdc67501","{""participantId"":""35458781FA444543970696E3FA173B16"",""assignmentId"":""ab7a3027-ed0c-46c1-b308-54a1f1dc08eb"",""projectId"":""a0a8f18c-a66e-4ba7-a170-23efbdc67501""}","https://test12345.live/?participantId=35458781FA444543970696E3FA173B16&assignmentId=ab7a3027-ed0c-46c1-b308-54a1f1dc08eb&projectId=a0a8f18c-a66e-4ba7-a170-23efbdc67501","35458781FA444543970696E3FA173B16-2024-11-24-18-39-04","","null","","images/causal_sequence/museum_causal/museum_causal_3.png","null","",""
"","","","","","image-button-response","111","555695","0.0-14.0-1.0-1.7","35458781FA444543970696E3FA173B16","35458781FA444543970696E3FA173B16","ab7a3027-ed0c-46c1-b308-54a1f1dc08eb","a0a8f18c-a66e-4ba7-a170-23efbdc67501","{""participantId"":""35458781FA444543970696E3FA173B16"",""assignmentId"":""ab7a3027-ed0c-46c1-b308-54a1f1dc08eb"",""projectId"":""a0a8f18c-a66e-4ba7-a170-23efbdc67501""}","https://test12345.live/?participantId=35458781FA444543970696E3FA173B16&assignmentId=ab7a3027-ed0c-46c1-b308-54a1f1dc08eb&projectId=a0a8f18c-a66e-4ba7-a170-23efbdc67501","35458781FA444543970696E3FA173B16-2024-11-24-18-39-04","","1199","","images/causal_sequence/museum_causal/museum_causal_3.png","0","",""
"","","","","","image-button-response","112","557497","0.0-14.0-1.0-2.7","35458781FA444543970696E3FA173B16","35458781FA444543970696E3FA173B16","ab7a3027-ed0c-46c1-b308-54a1f1dc08eb","a0a8f18c-a66e-4ba7-a170-23efbdc67501","{""participantId"":""35458781FA444543970696E3FA173B16"",""assignmentId"":""ab7a3027-ed0c-46c1-b308-54a1f1dc08eb"",""projectId"":""a0a8f18c-a66e-4ba7-a170-23efbdc67501""}","https://test12345.live/?participantId=35458781FA444543970696E3FA173B16&assignmentId=ab7a3027-ed0c-46c1-b308-54a1f1dc08eb&projectId=a0a8f18c-a66e-4ba7-a170-23efbdc67501","35458781FA444543970696E3FA173B16-2024-11-24-18-39-04","","null","","[]","null","",""
"","","","","","image-button-response","113","561999","0.0-14.0-1.0-0.8","35458781FA444543970696E3FA173B16","35458781FA444543970696E3FA173B16","ab7a3027-ed0c-46c1-b308-54a1f1dc08eb","a0a8f18c-a66e-4ba7-a170-23efbdc67501","{""participantId"":""35458781FA444543970696E3FA173B16"",""assignmentId"":""ab7a3027-ed0c-46c1-b308-54a1f1dc08eb"",""projectId"":""a0a8f18c-a66e-4ba7-a170-23efbdc67501""}","https://test12345.live/?participantId=35458781FA444543970696E3FA173B16&assignmentId=ab7a3027-ed0c-46c1-b308-54a1f1dc08eb&projectId=a0a8f18c-a66e-4ba7-a170-23efbdc67501","35458781FA444543970696E3FA173B16-2024-11-24-18-39-04","","null","","images/causal_sequence/museum_causal/museum_causal_6.png","null","",""
"","","","","","image-button-response","114","562899","0.0-14.0-1.0-1.8","35458781FA444543970696E3FA173B16","35458781FA444543970696E3FA173B16","ab7a3027-ed0c-46c1-b308-54a1f1dc08eb","a0a8f18c-a66e-4ba7-a170-23efbdc67501","{""participantId"":""35458781FA444543970696E3FA173B16"",""assignmentId"":""ab7a3027-ed0c-46c1-b308-54a1f1dc08eb"",""projectId"":""a0a8f18c-a66e-4ba7-a170-23efbdc67501""}","https://test12345.live/?participantId=35458781FA444543970696E3FA173B16&assignmentId=ab7a3027-ed0c-46c1-b308-54a1f1dc08eb&projectId=a0a8f18c-a66e-4ba7-a170-23efbdc67501","35458781FA444543970696E3FA173B16-2024-11-24-18-39-04","","898","","images/causal_sequence/museum_causal/museum_causal_6.png","0","",""
"","","","","","image-button-response","115","564700","0.0-14.0-1.0-2.8","35458781FA444543970696E3FA173B16","35458781FA444543970696E3FA173B16","ab7a3027-ed0c-46c1-b308-54a1f1dc08eb","a0a8f18c-a66e-4ba7-a170-23efbdc67501","{""participantId"":""35458781FA444543970696E3FA173B16"",""assignmentId"":""ab7a3027-ed0c-46c1-b308-54a1f1dc08eb"",""projectId"":""a0a8f18c-a66e-4ba7-a170-23efbdc67501""}","https://test12345.live/?participantId=35458781FA444543970696E3FA173B16&assignmentId=ab7a3027-ed0c-46c1-b308-54a1f1dc08eb&projectId=a0a8f18c-a66e-4ba7-a170-23efbdc67501","35458781FA444543970696E3FA173B16-2024-11-24-18-39-04","","null","","[]","null","",""
"","","","","","image-button-response","116","569202","0.0-14.0-1.0-0.9","35458781FA444543970696E3FA173B16","35458781FA444543970696E3FA173B16","ab7a3027-ed0c-46c1-b308-54a1f1dc08eb","a0a8f18c-a66e-4ba7-a170-23efbdc67501","{""participantId"":""35458781FA444543970696E3FA173B16"",""assignmentId"":""ab7a3027-ed0c-46c1-b308-54a1f1dc08eb"",""projectId"":""a0a8f18c-a66e-4ba7-a170-23efbdc67501""}","https://test12345.live/?participantId=35458781FA444543970696E3FA173B16&assignmentId=ab7a3027-ed0c-46c1-b308-54a1f1dc08eb&projectId=a0a8f18c-a66e-4ba7-a170-23efbdc67501","35458781FA444543970696E3FA173B16-2024-11-24-18-39-04","","null","","images/causal_sequence/museum_causal/museum_causal_4.png","null","",""
"","","","","","image-button-response","117","569919","0.0-14.0-1.0-1.9","35458781FA444543970696E3FA173B16","35458781FA444543970696E3FA173B16","ab7a3027-ed0c-46c1-b308-54a1f1dc08eb","a0a8f18c-a66e-4ba7-a170-23efbdc67501","{""participantId"":""35458781FA444543970696E3FA173B16"",""assignmentId"":""ab7a3027-ed0c-46c1-b308-54a1f1dc08eb"",""projectId"":""a0a8f18c-a66e-4ba7-a170-23efbdc67501""}","https://test12345.live/?participantId=35458781FA444543970696E3FA173B16&assignmentId=ab7a3027-ed0c-46c1-b308-54a1f1dc08eb&projectId=a0a8f18c-a66e-4ba7-a170-23efbdc67501","35458781FA444543970696E3FA173B16-2024-11-24-18-39-04","","715","","images/causal_sequence/museum_causal/museum_causal_4.png","1","",""
"","","","","","image-button-response","118","571721","0.0-14.0-1.0-2.9","35458781FA444543970696E3FA173B16","35458781FA444543970696E3FA173B16","ab7a3027-ed0c-46c1-b308-54a1f1dc08eb","a0a8f18c-a66e-4ba7-a170-23efbdc67501","{""participantId"":""35458781FA444543970696E3FA173B16"",""assignmentId"":""ab7a3027-ed0c-46c1-b308-54a1f1dc08eb"",""projectId"":""a0a8f18c-a66e-4ba7-a170-23efbdc67501""}","https://test12345.live/?participantId=35458781FA444543970696E3FA173B16&assignmentId=ab7a3027-ed0c-46c1-b308-54a1f1dc08eb&projectId=a0a8f18c-a66e-4ba7-a170-23efbdc67501","35458781FA444543970696E3FA173B16-2024-11-24-18-39-04","","null","","[]","null","",""
"","","","","","html-audio-response","119","687644","0.0-15.0","35458781FA444543970696E3FA173B16","35458781FA444543970696E3FA173B16","ab7a3027-ed0c-46c1-b308-54a1f1dc08eb","a0a8f18c-a66e-4ba7-a170-23efbdc67501","{""participantId"":""35458781FA444543970696E3FA173B16"",""assignmentId"":""ab7a3027-ed0c-46c1-b308-54a1f1dc08eb"",""projectId"":""a0a8f18c-a66e-4ba7-a170-23efbdc67501""}","https://test12345.live/?participantId=35458781FA444543970696E3FA173B16&assignmentId=ab7a3027-ed0c-46c1-b308-54a1f1dc08eb&projectId=a0a8f18c-a66e-4ba7-a170-23efbdc67501","35458781FA444543970696E3FA173B16-2024-11-24-18-39-04","","null","","[""<span style=\""color: red; font-size: 24px\""> NOW RECORDING</span><p>Please say out loud all the images you saw, as many as you can remember. The images can be said in any order.</p>""]","","2","museum_causal"
"","","","","","image-button-response","120","693657","0.0-16.0-0.0","35458781FA444543970696E3FA173B16","35458781FA444543970696E3FA173B16","ab7a3027-ed0c-46c1-b308-54a1f1dc08eb","a0a8f18c-a66e-4ba7-a170-23efbdc67501","{""participantId"":""35458781FA444543970696E3FA173B16"",""assignmentId"":""ab7a3027-ed0c-46c1-b308-54a1f1dc08eb"",""projectId"":""a0a8f18c-a66e-4ba7-a170-23efbdc67501""}","https://test12345.live/?participantId=35458781FA444543970696E3FA173B16&assignmentId=ab7a3027-ed0c-46c1-b308-54a1f1dc08eb&projectId=a0a8f18c-a66e-4ba7-a170-23efbdc67501","35458781FA444543970696E3FA173B16-2024-11-24-18-39-04","","null","","images/schematic_sequence/flight_scheme/flight_scheme_0.png","null","",""
"","","","","","image-button-response","121","698160","0.0-16.0-1.0-0.0","35458781FA444543970696E3FA173B16","35458781FA444543970696E3FA173B16","ab7a3027-ed0c-46c1-b308-54a1f1dc08eb","a0a8f18c-a66e-4ba7-a170-23efbdc67501","{""participantId"":""35458781FA444543970696E3FA173B16"",""assignmentId"":""ab7a3027-ed0c-46c1-b308-54a1f1dc08eb"",""projectId"":""a0a8f18c-a66e-4ba7-a170-23efbdc67501""}","https://test12345.live/?participantId=35458781FA444543970696E3FA173B16&assignmentId=ab7a3027-ed0c-46c1-b308-54a1f1dc08eb&projectId=a0a8f18c-a66e-4ba7-a170-23efbdc67501","35458781FA444543970696E3FA173B16-2024-11-24-18-39-04","","null","","images/schematic_sequence/flight_scheme/flight_scheme_5.png","null","",""
"","","","","","image-button-response","122","699546","0.0-16.0-1.0-1.0","35458781FA444543970696E3FA173B16","35458781FA444543970696E3FA173B16","ab7a3027-ed0c-46c1-b308-54a1f1dc08eb","a0a8f18c-a66e-4ba7-a170-23efbdc67501","{""participantId"":""35458781FA444543970696E3FA173B16"",""assignmentId"":""ab7a3027-ed0c-46c1-b308-54a1f1dc08eb"",""projectId"":""a0a8f18c-a66e-4ba7-a170-23efbdc67501""}","https://test12345.live/?participantId=35458781FA444543970696E3FA173B16&assignmentId=ab7a3027-ed0c-46c1-b308-54a1f1dc08eb&projectId=a0a8f18c-a66e-4ba7-a170-23efbdc67501","35458781FA444543970696E3FA173B16-2024-11-24-18-39-04","","1384","","images/schematic_sequence/flight_scheme/flight_scheme_5.png","0","",""
"","","","","","image-button-response","123","701347","0.0-16.0-1.0-2.0","35458781FA444543970696E3FA173B16","35458781FA444543970696E3FA173B16","ab7a3027-ed0c-46c1-b308-54a1f1dc08eb","a0a8f18c-a66e-4ba7-a170-23efbdc67501","{""participantId"":""35458781FA444543970696E3FA173B16"",""assignmentId"":""ab7a3027-ed0c-46c1-b308-54a1f1dc08eb"",""projectId"":""a0a8f18c-a66e-4ba7-a170-23efbdc67501""}","https://test12345.live/?participantId=35458781FA444543970696E3FA173B16&assignmentId=ab7a3027-ed0c-46c1-b308-54a1f1dc08eb&projectId=a0a8f18c-a66e-4ba7-a170-23efbdc67501","35458781FA444543970696E3FA173B16-2024-11-24-18-39-04","","null","","[]","null","",""
"","","","","","image-button-response","124","705850","0.0-16.0-1.0-0.1","35458781FA444543970696E3FA173B16","35458781FA444543970696E3FA173B16","ab7a3027-ed0c-46c1-b308-54a1f1dc08eb","a0a8f18c-a66e-4ba7-a170-23efbdc67501","{""participantId"":""35458781FA444543970696E3FA173B16"",""assignmentId"":""ab7a3027-ed0c-46c1-b308-54a1f1dc08eb"",""projectId"":""a0a8f18c-a66e-4ba7-a170-23efbdc67501""}","https://test12345.live/?participantId=35458781FA444543970696E3FA173B16&assignmentId=ab7a3027-ed0c-46c1-b308-54a1f1dc08eb&projectId=a0a8f18c-a66e-4ba7-a170-23efbdc67501","35458781FA444543970696E3FA173B16-2024-11-24-18-39-04","","null","","images/schematic_sequence/flight_scheme/flight_scheme_6.png","null","",""
"","","","","","image-button-response","125","706889","0.0-16.0-1.0-1.1","35458781FA444543970696E3FA173B16","35458781FA444543970696E3FA173B16","ab7a3027-ed0c-46c1-b308-54a1f1dc08eb","a0a8f18c-a66e-4ba7-a170-23efbdc67501","{""participantId"":""35458781FA444543970696E3FA173B16"",""assignmentId"":""ab7a3027-ed0c-46c1-b308-54a1f1dc08eb"",""projectId"":""a0a8f18c-a66e-4ba7-a170-23efbdc67501""}","https://test12345.live/?participantId=35458781FA444543970696E3FA173B16&assignmentId=ab7a3027-ed0c-46c1-b308-54a1f1dc08eb&projectId=a0a8f18c-a66e-4ba7-a170-23efbdc67501","35458781FA444543970696E3FA173B16-2024-11-24-18-39-04","","1037","","images/schematic_sequence/flight_scheme/flight_scheme_6.png","1","",""
"","","","","","image-button-response","126","708691","0.0-16.0-1.0-2.1","35458781FA444543970696E3FA173B16","35458781FA444543970696E3FA173B16","ab7a3027-ed0c-46c1-b308-54a1f1dc08eb","a0a8f18c-a66e-4ba7-a170-23efbdc67501","{""participantId"":""35458781FA444543970696E3FA173B16"",""assignmentId"":""ab7a3027-ed0c-46c1-b308-54a1f1dc08eb"",""projectId"":""a0a8f18c-a66e-4ba7-a170-23efbdc67501""}","https://test12345.live/?participantId=35458781FA444543970696E3FA173B16&assignmentId=ab7a3027-ed0c-46c1-b308-54a1f1dc08eb&projectId=a0a8f18c-a66e-4ba7-a170-23efbdc67501","35458781FA444543970696E3FA173B16-2024-11-24-18-39-04","","null","","[]","null","",""
"","","","","","image-button-response","127","713193","0.0-16.0-1.0-0.2","35458781FA444543970696E3FA173B16","35458781FA444543970696E3FA173B16","ab7a3027-ed0c-46c1-b308-54a1f1dc08eb","a0a8f18c-a66e-4ba7-a170-23efbdc67501","{""participantId"":""35458781FA444543970696E3FA173B16"",""assignmentId"":""ab7a3027-ed0c-46c1-b308-54a1f1dc08eb"",""projectId"":""a0a8f18c-a66e-4ba7-a170-23efbdc67501""}","https://test12345.live/?participantId=35458781FA444543970696E3FA173B16&assignmentId=ab7a3027-ed0c-46c1-b308-54a1f1dc08eb&projectId=a0a8f18c-a66e-4ba7-a170-23efbdc67501","35458781FA444543970696E3FA173B16-2024-11-24-18-39-04","","null","","images/schematic_sequence/flight_scheme/flight_scheme_4.png","null","",""
"","","","","","image-button-response","128","714275","0.0-16.0-1.0-1.2","35458781FA444543970696E3FA173B16","35458781FA444543970696E3FA173B16","ab7a3027-ed0c-46c1-b308-54a1f1dc08eb","a0a8f18c-a66e-4ba7-a170-23efbdc67501","{""participantId"":""35458781FA444543970696E3FA173B16"",""assignmentId"":""ab7a3027-ed0c-46c1-b308-54a1f1dc08eb"",""projectId"":""a0a8f18c-a66e-4ba7-a170-23efbdc67501""}","https://test12345.live/?participantId=35458781FA444543970696E3FA173B16&assignmentId=ab7a3027-ed0c-46c1-b308-54a1f1dc08eb&projectId=a0a8f18c-a66e-4ba7-a170-23efbdc67501","35458781FA444543970696E3FA173B16-2024-11-24-18-39-04","","1080","","images/schematic_sequence/flight_scheme/flight_scheme_4.png","0","",""
"","","","","","image-button-response","129","716077","0.0-16.0-1.0-2.2","35458781FA444543970696E3FA173B16","35458781FA444543970696E3FA173B16","ab7a3027-ed0c-46c1-b308-54a1f1dc08eb","a0a8f18c-a66e-4ba7-a170-23efbdc67501","{""participantId"":""35458781FA444543970696E3FA173B16"",""assignmentId"":""ab7a3027-ed0c-46c1-b308-54a1f1dc08eb"",""projectId"":""a0a8f18c-a66e-4ba7-a170-23efbdc67501""}","https://test12345.live/?participantId=35458781FA444543970696E3FA173B16&assignmentId=ab7a3027-ed0c-46c1-b308-54a1f1dc08eb&projectId=a0a8f18c-a66e-4ba7-a170-23efbdc67501","35458781FA444543970696E3FA173B16-2024-11-24-18-39-04","","null","","[]","null","",""
"","","","","","image-button-response","130","720579","0.0-16.0-1.0-0.3","35458781FA444543970696E3FA173B16","35458781FA444543970696E3FA173B16","ab7a3027-ed0c-46c1-b308-54a1f1dc08eb","a0a8f18c-a66e-4ba7-a170-23efbdc67501","{""participantId"":""35458781FA444543970696E3FA173B16"",""assignmentId"":""ab7a3027-ed0c-46c1-b308-54a1f1dc08eb"",""projectId"":""a0a8f18c-a66e-4ba7-a170-23efbdc67501""}","https://test12345.live/?participantId=35458781FA444543970696E3FA173B16&assignmentId=ab7a3027-ed0c-46c1-b308-54a1f1dc08eb&projectId=a0a8f18c-a66e-4ba7-a170-23efbdc67501","35458781FA444543970696E3FA173B16-2024-11-24-18-39-04","","null","","images/schematic_sequence/flight_scheme/flight_scheme_ten.png","null","",""
"","","","","","image-button-response","131","721383","0.0-16.0-1.0-1.3","35458781FA444543970696E3FA173B16","35458781FA444543970696E3FA173B16","ab7a3027-ed0c-46c1-b308-54a1f1dc08eb","a0a8f18c-a66e-4ba7-a170-23efbdc67501","{""participantId"":""35458781FA444543970696E3FA173B16"",""assignmentId"":""ab7a3027-ed0c-46c1-b308-54a1f1dc08eb"",""projectId"":""a0a8f18c-a66e-4ba7-a170-23efbdc67501""}","https://test12345.live/?participantId=35458781FA444543970696E3FA173B16&assignmentId=ab7a3027-ed0c-46c1-b308-54a1f1dc08eb&projectId=a0a8f18c-a66e-4ba7-a170-23efbdc67501","35458781FA444543970696E3FA173B16-2024-11-24-18-39-04","","801","","images/schematic_sequence/flight_scheme/flight_scheme_ten.png","0","",""
"","","","","","image-button-response","132","723184","0.0-16.0-1.0-2.3","35458781FA444543970696E3FA173B16","35458781FA444543970696E3FA173B16","ab7a3027-ed0c-46c1-b308-54a1f1dc08eb","a0a8f18c-a66e-4ba7-a170-23efbdc67501","{""participantId"":""35458781FA444543970696E3FA173B16"",""assignmentId"":""ab7a3027-ed0c-46c1-b308-54a1f1dc08eb"",""projectId"":""a0a8f18c-a66e-4ba7-a170-23efbdc67501""}","https://test12345.live/?participantId=35458781FA444543970696E3FA173B16&assignmentId=ab7a3027-ed0c-46c1-b308-54a1f1dc08eb&projectId=a0a8f18c-a66e-4ba7-a170-23efbdc67501","35458781FA444543970696E3FA173B16-2024-11-24-18-39-04","","null","","[]","null","",""
"","","","","","image-button-response","133","727686","0.0-16.0-1.0-0.4","35458781FA444543970696E3FA173B16","35458781FA444543970696E3FA173B16","ab7a3027-ed0c-46c1-b308-54a1f1dc08eb","a0a8f18c-a66e-4ba7-a170-23efbdc67501","{""participantId"":""35458781FA444543970696E3FA173B16"",""assignmentId"":""ab7a3027-ed0c-46c1-b308-54a1f1dc08eb"",""projectId"":""a0a8f18c-a66e-4ba7-a170-23efbdc67501""}","https://test12345.live/?participantId=35458781FA444543970696E3FA173B16&assignmentId=ab7a3027-ed0c-46c1-b308-54a1f1dc08eb&projectId=a0a8f18c-a66e-4ba7-a170-23efbdc67501","35458781FA444543970696E3FA173B16-2024-11-24-18-39-04","","null","","images/schematic_sequence/flight_scheme/flight_scheme_2.png","null","",""
"","","","","","image-button-response","134","728488","0.0-16.0-1.0-1.4","35458781FA444543970696E3FA173B16","35458781FA444543970696E3FA173B16","ab7a3027-ed0c-46c1-b308-54a1f1dc08eb","a0a8f18c-a66e-4ba7-a170-23efbdc67501","{""participantId"":""35458781FA444543970696E3FA173B16"",""assignmentId"":""ab7a3027-ed0c-46c1-b308-54a1f1dc08eb"",""projectId"":""a0a8f18c-a66e-4ba7-a170-23efbdc67501""}","https://test12345.live/?participantId=35458781FA444543970696E3FA173B16&assignmentId=ab7a3027-ed0c-46c1-b308-54a1f1dc08eb&projectId=a0a8f18c-a66e-4ba7-a170-23efbdc67501","35458781FA444543970696E3FA173B16-2024-11-24-18-39-04","","800","","images/schematic_sequence/flight_scheme/flight_scheme_2.png","1","",""
"","","","","","image-button-response","135","730290","0.0-16.0-1.0-2.4","35458781FA444543970696E3FA173B16","35458781FA444543970696E3FA173B16","ab7a3027-ed0c-46c1-b308-54a1f1dc08eb","a0a8f18c-a66e-4ba7-a170-23efbdc67501","{""participantId"":""35458781FA444543970696E3FA173B16"",""assignmentId"":""ab7a3027-ed0c-46c1-b308-54a1f1dc08eb"",""projectId"":""a0a8f18c-a66e-4ba7-a170-23efbdc67501""}","https://test12345.live/?participantId=35458781FA444543970696E3FA173B16&assignmentId=ab7a3027-ed0c-46c1-b308-54a1f1dc08eb&projectId=a0a8f18c-a66e-4ba7-a170-23efbdc67501","35458781FA444543970696E3FA173B16-2024-11-24-18-39-04","","null","","[]","null","",""
"","","","","","image-button-response","136","734792","0.0-16.0-1.0-0.5","35458781FA444543970696E3FA173B16","35458781FA444543970696E3FA173B16","ab7a3027-ed0c-46c1-b308-54a1f1dc08eb","a0a8f18c-a66e-4ba7-a170-23efbdc67501","{""participantId"":""35458781FA444543970696E3FA173B16"",""assignmentId"":""ab7a3027-ed0c-46c1-b308-54a1f1dc08eb"",""projectId"":""a0a8f18c-a66e-4ba7-a170-23efbdc67501""}","https://test12345.live/?participantId=35458781FA444543970696E3FA173B16&assignmentId=ab7a3027-ed0c-46c1-b308-54a1f1dc08eb&projectId=a0a8f18c-a66e-4ba7-a170-23efbdc67501","35458781FA444543970696E3FA173B16-2024-11-24-18-39-04","","null","","images/schematic_sequence/flight_scheme/flight_scheme_1.png","null","",""
"","","","","","image-button-response","137","735886","0.0-16.0-1.0-1.5","35458781FA444543970696E3FA173B16","35458781FA444543970696E3FA173B16","ab7a3027-ed0c-46c1-b308-54a1f1dc08eb","a0a8f18c-a66e-4ba7-a170-23efbdc67501","{""participantId"":""35458781FA444543970696E3FA173B16"",""assignmentId"":""ab7a3027-ed0c-46c1-b308-54a1f1dc08eb"",""projectId"":""a0a8f18c-a66e-4ba7-a170-23efbdc67501""}","https://test12345.live/?participantId=35458781FA444543970696E3FA173B16&assignmentId=ab7a3027-ed0c-46c1-b308-54a1f1dc08eb&projectId=a0a8f18c-a66e-4ba7-a170-23efbdc67501","35458781FA444543970696E3FA173B16-2024-11-24-18-39-04","","1091","","images/schematic_sequence/flight_scheme/flight_scheme_1.png","0","",""
"","","","","","image-button-response","138","737688","0.0-16.0-1.0-2.5","35458781FA444543970696E3FA173B16","35458781FA444543970696E3FA173B16","ab7a3027-ed0c-46c1-b308-54a1f1dc08eb","a0a8f18c-a66e-4ba7-a170-23efbdc67501","{""participantId"":""35458781FA444543970696E3FA173B16"",""assignmentId"":""ab7a3027-ed0c-46c1-b308-54a1f1dc08eb"",""projectId"":""a0a8f18c-a66e-4ba7-a170-23efbdc67501""}","https://test12345.live/?participantId=35458781FA444543970696E3FA173B16&assignmentId=ab7a3027-ed0c-46c1-b308-54a1f1dc08eb&projectId=a0a8f18c-a66e-4ba7-a170-23efbdc67501","35458781FA444543970696E3FA173B16-2024-11-24-18-39-04","","null","","[]","null","",""
"","","","","","image-button-response","139","742190","0.0-16.0-1.0-0.6","35458781FA444543970696E3FA173B16","35458781FA444543970696E3FA173B16","ab7a3027-ed0c-46c1-b308-54a1f1dc08eb","a0a8f18c-a66e-4ba7-a170-23efbdc67501","{""participantId"":""35458781FA444543970696E3FA173B16"",""assignmentId"":""ab7a3027-ed0c-46c1-b308-54a1f1dc08eb"",""projectId"":""a0a8f18c-a66e-4ba7-a170-23efbdc67501""}","https://test12345.live/?participantId=35458781FA444543970696E3FA173B16&assignmentId=ab7a3027-ed0c-46c1-b308-54a1f1dc08eb&projectId=a0a8f18c-a66e-4ba7-a170-23efbdc67501","35458781FA444543970696E3FA173B16-2024-11-24-18-39-04","","null","","images/schematic_sequence/flight_scheme/flight_scheme_9.png","null","",""
"","","","","","image-button-response","140","743186","0.0-16.0-1.0-1.6","35458781FA444543970696E3FA173B16","35458781FA444543970696E3FA173B16","ab7a3027-ed0c-46c1-b308-54a1f1dc08eb","a0a8f18c-a66e-4ba7-a170-23efbdc67501","{""participantId"":""35458781FA444543970696E3FA173B16"",""assignmentId"":""ab7a3027-ed0c-46c1-b308-54a1f1dc08eb"",""projectId"":""a0a8f18c-a66e-4ba7-a170-23efbdc67501""}","https://test12345.live/?participantId=35458781FA444543970696E3FA173B16&assignmentId=ab7a3027-ed0c-46c1-b308-54a1f1dc08eb&projectId=a0a8f18c-a66e-4ba7-a170-23efbdc67501","35458781FA444543970696E3FA173B16-2024-11-24-18-39-04","","994","","images/schematic_sequence/flight_scheme/flight_scheme_9.png","0","",""
"","","","","","image-button-response","141","744988","0.0-16.0-1.0-2.6","35458781FA444543970696E3FA173B16","35458781FA444543970696E3FA173B16","ab7a3027-ed0c-46c1-b308-54a1f1dc08eb","a0a8f18c-a66e-4ba7-a170-23efbdc67501","{""participantId"":""35458781FA444543970696E3FA173B16"",""assignmentId"":""ab7a3027-ed0c-46c1-b308-54a1f1dc08eb"",""projectId"":""a0a8f18c-a66e-4ba7-a170-23efbdc67501""}","https://test12345.live/?participantId=35458781FA444543970696E3FA173B16&assignmentId=ab7a3027-ed0c-46c1-b308-54a1f1dc08eb&projectId=a0a8f18c-a66e-4ba7-a170-23efbdc67501","35458781FA444543970696E3FA173B16-2024-11-24-18-39-04","","null","","[]","null","",""
"","","","","","image-button-response","142","749490","0.0-16.0-1.0-0.7","35458781FA444543970696E3FA173B16","35458781FA444543970696E3FA173B16","ab7a3027-ed0c-46c1-b308-54a1f1dc08eb","a0a8f18c-a66e-4ba7-a170-23efbdc67501","{""participantId"":""35458781FA444543970696E3FA173B16"",""assignmentId"":""ab7a3027-ed0c-46c1-b308-54a1f1dc08eb"",""projectId"":""a0a8f18c-a66e-4ba7-a170-23efbdc67501""}","https://test12345.live/?participantId=35458781FA444543970696E3FA173B16&assignmentId=ab7a3027-ed0c-46c1-b308-54a1f1dc08eb&projectId=a0a8f18c-a66e-4ba7-a170-23efbdc67501","35458781FA444543970696E3FA173B16-2024-11-24-18-39-04","","null","","images/schematic_sequence/flight_scheme/flight_scheme_7.png","null","",""
