"success","timeout","failed_images","failed_audio","failed_video","trial_type","trial_index","time_elapsed","internal_node_id","subject","subject_id","study_id","session_id","urlvar","current_url","audio_id","view_history","rt","device_id","stimulus","response","estimated_stimulus_onset","seq_name"
"true","false","[]","[]","[]","preload","0","22751","0.0-0.0","376984D943984F868B71C3942C948833","376984D943984F868B71C3942C948833","3fa7a09d-7e34-4c46-a7a4-5c684bd61ca6","5e631737-0fa4-44a6-b227-7ba1d7345015","{""num_scrambled_semantic"":""8"",""num_scrambled_causal"":""4"",""num_scrambled_schematic"":""4"",""participantId"":""376984D943984F868B71C3942C948833"",""assignmentId"":""3fa7a09d-7e34-4c46-a7a4-5c684bd61ca6"",""projectId"":""5e631737-0fa4-44a6-b227-7ba1d7345015""}","https://test12345.live/?num_scrambled_semantic=8&num_scrambled_causal=4&num_scrambled_schematic=4&participantId=376984D943984F868B71C3942C948833&assignmentId=3fa7a09d-7e34-4c46-a7a4-5c684bd61ca6&projectId=5e631737-0fa4-44a6-b227-7ba1d7345015","376984D943984F868B71C3942C948833-2025-05-27-19-04-08","","","","","","",""
"","","","","","instructions","1","155549","0.0-1.0","376984D943984F868B71C3942C948833","376984D943984F868B71C3942C948833","3fa7a09d-7e34-4c46-a7a4-5c684bd61ca6","5e631737-0fa4-44a6-b227-7ba1d7345015","{""num_scrambled_semantic"":""8"",""num_scrambled_causal"":""4"",""num_scrambled_schematic"":""4"",""participantId"":""376984D943984F868B71C3942C948833"",""assignmentId"":""3fa7a09d-7e34-4c46-a7a4-5c684bd61ca6"",""projectId"":""5e631737-0fa4-44a6-b227-7ba1d7345015""}","https://test12345.live/?num_scrambled_semantic=8&num_scrambled_causal=4&num_scrambled_schematic=4&participantId=376984D943984F868B71C3942C948833&assignmentId=3fa7a09d-7e34-4c46-a7a4-5c684bd61ca6&projectId=5e631737-0fa4-44a6-b227-7ba1d7345015","376984D943984F868B71C3942C948833-2025-05-27-19-04-08","[{""page_index"":0,""viewing_time"":132797}]","132798","","","","",""
"","","","","","instructions","2","474532","0.0-2.0","376984D943984F868B71C3942C948833","376984D943984F868B71C3942C948833","3fa7a09d-7e34-4c46-a7a4-5c684bd61ca6","5e631737-0fa4-44a6-b227-7ba1d7345015","{""num_scrambled_semantic"":""8"",""num_scrambled_causal"":""4"",""num_scrambled_schematic"":""4"",""participantId"":""376984D943984F868B71C3942C948833"",""assignmentId"":""3fa7a09d-7e34-4c46-a7a4-5c684bd61ca6"",""projectId"":""5e631737-0fa4-44a6-b227-7ba1d7345015""}","https://test12345.live/?num_scrambled_semantic=8&num_scrambled_causal=4&num_scrambled_schematic=4&participantId=376984D943984F868B71C3942C948833&assignmentId=3fa7a09d-7e34-4c46-a7a4-5c684bd61ca6&projectId=5e631737-0fa4-44a6-b227-7ba1d7345015","376984D943984F868B71C3942C948833-2025-05-27-19-04-08","[{""page_index"":0,""viewing_time"":318981}]","318982","","","","",""
"true","","","","","fullscreen","3","480199","0.0-3.0","376984D943984F868B71C3942C948833","376984D943984F868B71C3942C948833","3fa7a09d-7e34-4c46-a7a4-5c684bd61ca6","5e631737-0fa4-44a6-b227-7ba1d7345015","{""num_scrambled_semantic"":""8"",""num_scrambled_causal"":""4"",""num_scrambled_schematic"":""4"",""participantId"":""376984D943984F868B71C3942C948833"",""assignmentId"":""3fa7a09d-7e34-4c46-a7a4-5c684bd61ca6"",""projectId"":""5e631737-0fa4-44a6-b227-7ba1d7345015""}","https://test12345.live/?num_scrambled_semantic=8&num_scrambled_causal=4&num_scrambled_schematic=4&participantId=376984D943984F868B71C3942C948833&assignmentId=3fa7a09d-7e34-4c46-a7a4-5c684bd61ca6&projectId=5e631737-0fa4-44a6-b227-7ba1d7345015","376984D943984F868B71C3942C948833-2025-05-27-19-04-08","","4655","","","","",""
"","","","","","initialize-microphone","4","498655","0.0-4.0-0.0","376984D943984F868B71C3942C948833","376984D943984F868B71C3942C948833","3fa7a09d-7e34-4c46-a7a4-5c684bd61ca6","5e631737-0fa4-44a6-b227-7ba1d7345015","{""num_scrambled_semantic"":""8"",""num_scrambled_causal"":""4"",""num_scrambled_schematic"":""4"",""participantId"":""376984D943984F868B71C3942C948833"",""assignmentId"":""3fa7a09d-7e34-4c46-a7a4-5c684bd61ca6"",""projectId"":""5e631737-0fa4-44a6-b227-7ba1d7345015""}","https://test12345.live/?num_scrambled_semantic=8&num_scrambled_causal=4&num_scrambled_schematic=4&participantId=376984D943984F868B71C3942C948833&assignmentId=3fa7a09d-7e34-4c46-a7a4-5c684bd61ca6&projectId=5e631737-0fa4-44a6-b227-7ba1d7345015","376984D943984F868B71C3942C948833-2025-05-27-19-04-08","","","352cfb10a435763d8e7836c9c67150f933e98bef9b178b33c291925cdc381ac6","","","",""
"","","","","","html-audio-response","5","529356","0.0-4.0-1.0","376984D943984F868B71C3942C948833","376984D943984F868B71C3942C948833","3fa7a09d-7e34-4c46-a7a4-5c684bd61ca6","5e631737-0fa4-44a6-b227-7ba1d7345015","{""num_scrambled_semantic"":""8"",""num_scrambled_causal"":""4"",""num_scrambled_schematic"":""4"",""participantId"":""376984D943984F868B71C3942C948833"",""assignmentId"":""3fa7a09d-7e34-4c46-a7a4-5c684bd61ca6"",""projectId"":""5e631737-0fa4-44a6-b227-7ba1d7345015""}","https://test12345.live/?num_scrambled_semantic=8&num_scrambled_causal=4&num_scrambled_schematic=4&participantId=376984D943984F868B71C3942C948833&assignmentId=3fa7a09d-7e34-4c46-a7a4-5c684bd61ca6&projectId=5e631737-0fa4-44a6-b227-7ba1d7345015","376984D943984F868B71C3942C948833-2025-05-27-19-04-08","","6004","","<span style=""color: red; font-size: 24px""> NOW RECORDING</span>
        <p>Please test Microphone</p>","","2",""
"","","","","","html-button-response","6","531827","0.0-4.0-2.0","376984D943984F868B71C3942C948833","376984D943984F868B71C3942C948833","3fa7a09d-7e34-4c46-a7a4-5c684bd61ca6","5e631737-0fa4-44a6-b227-7ba1d7345015","{""num_scrambled_semantic"":""8"",""num_scrambled_causal"":""4"",""num_scrambled_schematic"":""4"",""participantId"":""376984D943984F868B71C3942C948833"",""assignmentId"":""3fa7a09d-7e34-4c46-a7a4-5c684bd61ca6"",""projectId"":""5e631737-0fa4-44a6-b227-7ba1d7345015""}","https://test12345.live/?num_scrambled_semantic=8&num_scrambled_causal=4&num_scrambled_schematic=4&participantId=376984D943984F868B71C3942C948833&assignmentId=3fa7a09d-7e34-4c46-a7a4-5c684bd61ca6&projectId=5e631737-0fa4-44a6-b227-7ba1d7345015","376984D943984F868B71C3942C948833-2025-05-27-19-04-08","","2470","","<p style=""font-size:48px; color:red;"">Is Microphone OK?</p>","1","",""
"","","","","","instructions","7","560491","0.0-5.0","376984D943984F868B71C3942C948833","376984D943984F868B71C3942C948833","3fa7a09d-7e34-4c46-a7a4-5c684bd61ca6","5e631737-0fa4-44a6-b227-7ba1d7345015","{""num_scrambled_semantic"":""8"",""num_scrambled_causal"":""4"",""num_scrambled_schematic"":""4"",""participantId"":""376984D943984F868B71C3942C948833"",""assignmentId"":""3fa7a09d-7e34-4c46-a7a4-5c684bd61ca6"",""projectId"":""5e631737-0fa4-44a6-b227-7ba1d7345015""}","https://test12345.live/?num_scrambled_semantic=8&num_scrambled_causal=4&num_scrambled_schematic=4&participantId=376984D943984F868B71C3942C948833&assignmentId=3fa7a09d-7e34-4c46-a7a4-5c684bd61ca6&projectId=5e631737-0fa4-44a6-b227-7ba1d7345015","376984D943984F868B71C3942C948833-2025-05-27-19-04-08","[{""page_index"":0,""viewing_time"":15463},{""page_index"":1,""viewing_time"":13200}]","28664","","","","",""
"","","","","","image-button-response","8","566502","0.0-6.0-0.0","376984D943984F868B71C3942C948833","376984D943984F868B71C3942C948833","3fa7a09d-7e34-4c46-a7a4-5c684bd61ca6","5e631737-0fa4-44a6-b227-7ba1d7345015","{""num_scrambled_semantic"":""8"",""num_scrambled_causal"":""4"",""num_scrambled_schematic"":""4"",""participantId"":""376984D943984F868B71C3942C948833"",""assignmentId"":""3fa7a09d-7e34-4c46-a7a4-5c684bd61ca6"",""projectId"":""5e631737-0fa4-44a6-b227-7ba1d7345015""}","https://test12345.live/?num_scrambled_semantic=8&num_scrambled_causal=4&num_scrambled_schematic=4&participantId=376984D943984F868B71C3942C948833&assignmentId=3fa7a09d-7e34-4c46-a7a4-5c684bd61ca6&projectId=5e631737-0fa4-44a6-b227-7ba1d7345015","376984D943984F868B71C3942C948833-2025-05-27-19-04-08","","null","","images/instructions/movie_0.png","null","",""
"","","","","","image-button-response","9","571016","0.0-6.0-1.0-0.0","376984D943984F868B71C3942C948833","376984D943984F868B71C3942C948833","3fa7a09d-7e34-4c46-a7a4-5c684bd61ca6","5e631737-0fa4-44a6-b227-7ba1d7345015","{""num_scrambled_semantic"":""8"",""num_scrambled_causal"":""4"",""num_scrambled_schematic"":""4"",""participantId"":""376984D943984F868B71C3942C948833"",""assignmentId"":""3fa7a09d-7e34-4c46-a7a4-5c684bd61ca6"",""projectId"":""5e631737-0fa4-44a6-b227-7ba1d7345015""}","https://test12345.live/?num_scrambled_semantic=8&num_scrambled_causal=4&num_scrambled_schematic=4&participantId=376984D943984F868B71C3942C948833&assignmentId=3fa7a09d-7e34-4c46-a7a4-5c684bd61ca6&projectId=5e631737-0fa4-44a6-b227-7ba1d7345015","376984D943984F868B71C3942C948833-2025-05-27-19-04-08","","null","","images/instructions/movie_1.png","null","",""
"","","","","","image-button-response","10","575018","0.0-6.0-1.0-1.0","376984D943984F868B71C3942C948833","376984D943984F868B71C3942C948833","3fa7a09d-7e34-4c46-a7a4-5c684bd61ca6","5e631737-0fa4-44a6-b227-7ba1d7345015","{""num_scrambled_semantic"":""8"",""num_scrambled_causal"":""4"",""num_scrambled_schematic"":""4"",""participantId"":""376984D943984F868B71C3942C948833"",""assignmentId"":""3fa7a09d-7e34-4c46-a7a4-5c684bd61ca6"",""projectId"":""5e631737-0fa4-44a6-b227-7ba1d7345015""}","https://test12345.live/?num_scrambled_semantic=8&num_scrambled_causal=4&num_scrambled_schematic=4&participantId=376984D943984F868B71C3942C948833&assignmentId=3fa7a09d-7e34-4c46-a7a4-5c684bd61ca6&projectId=5e631737-0fa4-44a6-b227-7ba1d7345015","376984D943984F868B71C3942C948833-2025-05-27-19-04-08","","null","","images/instructions/movie_1.png","null","",""
"","","","","","image-button-response","11","576827","0.0-6.0-1.0-2.0","376984D943984F868B71C3942C948833","376984D943984F868B71C3942C948833","3fa7a09d-7e34-4c46-a7a4-5c684bd61ca6","5e631737-0fa4-44a6-b227-7ba1d7345015","{""num_scrambled_semantic"":""8"",""num_scrambled_causal"":""4"",""num_scrambled_schematic"":""4"",""participantId"":""376984D943984F868B71C3942C948833"",""assignmentId"":""3fa7a09d-7e34-4c46-a7a4-5c684bd61ca6"",""projectId"":""5e631737-0fa4-44a6-b227-7ba1d7345015""}","https://test12345.live/?num_scrambled_semantic=8&num_scrambled_causal=4&num_scrambled_schematic=4&participantId=376984D943984F868B71C3942C948833&assignmentId=3fa7a09d-7e34-4c46-a7a4-5c684bd61ca6&projectId=5e631737-0fa4-44a6-b227-7ba1d7345015","376984D943984F868B71C3942C948833-2025-05-27-19-04-08","","null","","[]","null","",""
"","","","","","image-button-response","12","581342","0.0-6.0-1.0-0.1","376984D943984F868B71C3942C948833","376984D943984F868B71C3942C948833","3fa7a09d-7e34-4c46-a7a4-5c684bd61ca6","5e631737-0fa4-44a6-b227-7ba1d7345015","{""num_scrambled_semantic"":""8"",""num_scrambled_causal"":""4"",""num_scrambled_schematic"":""4"",""participantId"":""376984D943984F868B71C3942C948833"",""assignmentId"":""3fa7a09d-7e34-4c46-a7a4-5c684bd61ca6"",""projectId"":""5e631737-0fa4-44a6-b227-7ba1d7345015""}","https://test12345.live/?num_scrambled_semantic=8&num_scrambled_causal=4&num_scrambled_schematic=4&participantId=376984D943984F868B71C3942C948833&assignmentId=3fa7a09d-7e34-4c46-a7a4-5c684bd61ca6&projectId=5e631737-0fa4-44a6-b227-7ba1d7345015","376984D943984F868B71C3942C948833-2025-05-27-19-04-08","","null","","images/instructions/movie_2.png","null","",""
"","","","","","image-button-response","13","583275","0.0-6.0-1.0-1.1","376984D943984F868B71C3942C948833","376984D943984F868B71C3942C948833","3fa7a09d-7e34-4c46-a7a4-5c684bd61ca6","5e631737-0fa4-44a6-b227-7ba1d7345015","{""num_scrambled_semantic"":""8"",""num_scrambled_causal"":""4"",""num_scrambled_schematic"":""4"",""participantId"":""376984D943984F868B71C3942C948833"",""assignmentId"":""3fa7a09d-7e34-4c46-a7a4-5c684bd61ca6"",""projectId"":""5e631737-0fa4-44a6-b227-7ba1d7345015""}","https://test12345.live/?num_scrambled_semantic=8&num_scrambled_causal=4&num_scrambled_schematic=4&participantId=376984D943984F868B71C3942C948833&assignmentId=3fa7a09d-7e34-4c46-a7a4-5c684bd61ca6&projectId=5e631737-0fa4-44a6-b227-7ba1d7345015","376984D943984F868B71C3942C948833-2025-05-27-19-04-08","","1932","","images/instructions/movie_2.png","0","",""
"","","","","","image-button-response","14","585088","0.0-6.0-1.0-2.1","376984D943984F868B71C3942C948833","376984D943984F868B71C3942C948833","3fa7a09d-7e34-4c46-a7a4-5c684bd61ca6","5e631737-0fa4-44a6-b227-7ba1d7345015","{""num_scrambled_semantic"":""8"",""num_scrambled_causal"":""4"",""num_scrambled_schematic"":""4"",""participantId"":""376984D943984F868B71C3942C948833"",""assignmentId"":""3fa7a09d-7e34-4c46-a7a4-5c684bd61ca6"",""projectId"":""5e631737-0fa4-44a6-b227-7ba1d7345015""}","https://test12345.live/?num_scrambled_semantic=8&num_scrambled_causal=4&num_scrambled_schematic=4&participantId=376984D943984F868B71C3942C948833&assignmentId=3fa7a09d-7e34-4c46-a7a4-5c684bd61ca6&projectId=5e631737-0fa4-44a6-b227-7ba1d7345015","376984D943984F868B71C3942C948833-2025-05-27-19-04-08","","null","","[]","null","",""
"","","","","","image-button-response","15","589592","0.0-6.0-1.0-0.2","376984D943984F868B71C3942C948833","376984D943984F868B71C3942C948833","3fa7a09d-7e34-4c46-a7a4-5c684bd61ca6","5e631737-0fa4-44a6-b227-7ba1d7345015","{""num_scrambled_semantic"":""8"",""num_scrambled_causal"":""4"",""num_scrambled_schematic"":""4"",""participantId"":""376984D943984F868B71C3942C948833"",""assignmentId"":""3fa7a09d-7e34-4c46-a7a4-5c684bd61ca6"",""projectId"":""5e631737-0fa4-44a6-b227-7ba1d7345015""}","https://test12345.live/?num_scrambled_semantic=8&num_scrambled_causal=4&num_scrambled_schematic=4&participantId=376984D943984F868B71C3942C948833&assignmentId=3fa7a09d-7e34-4c46-a7a4-5c684bd61ca6&projectId=5e631737-0fa4-44a6-b227-7ba1d7345015","376984D943984F868B71C3942C948833-2025-05-27-19-04-08","","null","","images/instructions/movie_3.png","null","",""
"","","","","","image-button-response","16","591588","0.0-6.0-1.0-1.2","376984D943984F868B71C3942C948833","376984D943984F868B71C3942C948833","3fa7a09d-7e34-4c46-a7a4-5c684bd61ca6","5e631737-0fa4-44a6-b227-7ba1d7345015","{""num_scrambled_semantic"":""8"",""num_scrambled_causal"":""4"",""num_scrambled_schematic"":""4"",""participantId"":""376984D943984F868B71C3942C948833"",""assignmentId"":""3fa7a09d-7e34-4c46-a7a4-5c684bd61ca6"",""projectId"":""5e631737-0fa4-44a6-b227-7ba1d7345015""}","https://test12345.live/?num_scrambled_semantic=8&num_scrambled_causal=4&num_scrambled_schematic=4&participantId=376984D943984F868B71C3942C948833&assignmentId=3fa7a09d-7e34-4c46-a7a4-5c684bd61ca6&projectId=5e631737-0fa4-44a6-b227-7ba1d7345015","376984D943984F868B71C3942C948833-2025-05-27-19-04-08","","1994","","images/instructions/movie_3.png","0","",""
"","","","","","image-button-response","17","593396","0.0-6.0-1.0-2.2","376984D943984F868B71C3942C948833","376984D943984F868B71C3942C948833","3fa7a09d-7e34-4c46-a7a4-5c684bd61ca6","5e631737-0fa4-44a6-b227-7ba1d7345015","{""num_scrambled_semantic"":""8"",""num_scrambled_causal"":""4"",""num_scrambled_schematic"":""4"",""participantId"":""376984D943984F868B71C3942C948833"",""assignmentId"":""3fa7a09d-7e34-4c46-a7a4-5c684bd61ca6"",""projectId"":""5e631737-0fa4-44a6-b227-7ba1d7345015""}","https://test12345.live/?num_scrambled_semantic=8&num_scrambled_causal=4&num_scrambled_schematic=4&participantId=376984D943984F868B71C3942C948833&assignmentId=3fa7a09d-7e34-4c46-a7a4-5c684bd61ca6&projectId=5e631737-0fa4-44a6-b227-7ba1d7345015","376984D943984F868B71C3942C948833-2025-05-27-19-04-08","","null","","[]","null","",""
"","","","","","image-button-response","18","597906","0.0-6.0-1.0-0.3","376984D943984F868B71C3942C948833","376984D943984F868B71C3942C948833","3fa7a09d-7e34-4c46-a7a4-5c684bd61ca6","5e631737-0fa4-44a6-b227-7ba1d7345015","{""num_scrambled_semantic"":""8"",""num_scrambled_causal"":""4"",""num_scrambled_schematic"":""4"",""participantId"":""376984D943984F868B71C3942C948833"",""assignmentId"":""3fa7a09d-7e34-4c46-a7a4-5c684bd61ca6"",""projectId"":""5e631737-0fa4-44a6-b227-7ba1d7345015""}","https://test12345.live/?num_scrambled_semantic=8&num_scrambled_causal=4&num_scrambled_schematic=4&participantId=376984D943984F868B71C3942C948833&assignmentId=3fa7a09d-7e34-4c46-a7a4-5c684bd61ca6&projectId=5e631737-0fa4-44a6-b227-7ba1d7345015","376984D943984F868B71C3942C948833-2025-05-27-19-04-08","","null","","images/instructions/movie_4.png","null","",""
"","","","","","image-button-response","19","600331","0.0-6.0-1.0-1.3","376984D943984F868B71C3942C948833","376984D943984F868B71C3942C948833","3fa7a09d-7e34-4c46-a7a4-5c684bd61ca6","5e631737-0fa4-44a6-b227-7ba1d7345015","{""num_scrambled_semantic"":""8"",""num_scrambled_causal"":""4"",""num_scrambled_schematic"":""4"",""participantId"":""376984D943984F868B71C3942C948833"",""assignmentId"":""3fa7a09d-7e34-4c46-a7a4-5c684bd61ca6"",""projectId"":""5e631737-0fa4-44a6-b227-7ba1d7345015""}","https://test12345.live/?num_scrambled_semantic=8&num_scrambled_causal=4&num_scrambled_schematic=4&participantId=376984D943984F868B71C3942C948833&assignmentId=3fa7a09d-7e34-4c46-a7a4-5c684bd61ca6&projectId=5e631737-0fa4-44a6-b227-7ba1d7345015","376984D943984F868B71C3942C948833-2025-05-27-19-04-08","","2424","","images/instructions/movie_4.png","0","",""
"","","","","","image-button-response","20","602132","0.0-6.0-1.0-2.3","376984D943984F868B71C3942C948833","376984D943984F868B71C3942C948833","3fa7a09d-7e34-4c46-a7a4-5c684bd61ca6","5e631737-0fa4-44a6-b227-7ba1d7345015","{""num_scrambled_semantic"":""8"",""num_scrambled_causal"":""4"",""num_scrambled_schematic"":""4"",""participantId"":""376984D943984F868B71C3942C948833"",""assignmentId"":""3fa7a09d-7e34-4c46-a7a4-5c684bd61ca6"",""projectId"":""5e631737-0fa4-44a6-b227-7ba1d7345015""}","https://test12345.live/?num_scrambled_semantic=8&num_scrambled_causal=4&num_scrambled_schematic=4&participantId=376984D943984F868B71C3942C948833&assignmentId=3fa7a09d-7e34-4c46-a7a4-5c684bd61ca6&projectId=5e631737-0fa4-44a6-b227-7ba1d7345015","376984D943984F868B71C3942C948833-2025-05-27-19-04-08","","null","","[]","null","",""
"","","","","","instructions","21","626947","0.0-7.0","376984D943984F868B71C3942C948833","376984D943984F868B71C3942C948833","3fa7a09d-7e34-4c46-a7a4-5c684bd61ca6","5e631737-0fa4-44a6-b227-7ba1d7345015","{""num_scrambled_semantic"":""8"",""num_scrambled_causal"":""4"",""num_scrambled_schematic"":""4"",""participantId"":""376984D943984F868B71C3942C948833"",""assignmentId"":""3fa7a09d-7e34-4c46-a7a4-5c684bd61ca6"",""projectId"":""5e631737-0fa4-44a6-b227-7ba1d7345015""}","https://test12345.live/?num_scrambled_semantic=8&num_scrambled_causal=4&num_scrambled_schematic=4&participantId=376984D943984F868B71C3942C948833&assignmentId=3fa7a09d-7e34-4c46-a7a4-5c684bd61ca6&projectId=5e631737-0fa4-44a6-b227-7ba1d7345015","376984D943984F868B71C3942C948833-2025-05-27-19-04-08","[{""page_index"":0,""viewing_time"":22535},{""page_index"":1,""viewing_time"":2280}]","24815","","","","",""
"","","","","","html-audio-response","22","694555","0.0-8.0","376984D943984F868B71C3942C948833","376984D943984F868B71C3942C948833","3fa7a09d-7e34-4c46-a7a4-5c684bd61ca6","5e631737-0fa4-44a6-b227-7ba1d7345015","{""num_scrambled_semantic"":""8"",""num_scrambled_causal"":""4"",""num_scrambled_schematic"":""4"",""participantId"":""376984D943984F868B71C3942C948833"",""assignmentId"":""3fa7a09d-7e34-4c46-a7a4-5c684bd61ca6"",""projectId"":""5e631737-0fa4-44a6-b227-7ba1d7345015""}","https://test12345.live/?num_scrambled_semantic=8&num_scrambled_causal=4&num_scrambled_schematic=4&participantId=376984D943984F868B71C3942C948833&assignmentId=3fa7a09d-7e34-4c46-a7a4-5c684bd61ca6&projectId=5e631737-0fa4-44a6-b227-7ba1d7345015","376984D943984F868B71C3942C948833-2025-05-27-19-04-08","","37974","","[""<span style=\""color: red; font-size: 24px\""> NOW RECORDING</span><p>Please say out loud all the images you saw in the exact order you saw them. Try to recall as many images as you can, but remember: getting the order right is more important than the number of images you recall.</p>""]","","2",""
"","","","","","instructions","23","700684","0.0-9.0","376984D943984F868B71C3942C948833","376984D943984F868B71C3942C948833","3fa7a09d-7e34-4c46-a7a4-5c684bd61ca6","5e631737-0fa4-44a6-b227-7ba1d7345015","{""num_scrambled_semantic"":""8"",""num_scrambled_causal"":""4"",""num_scrambled_schematic"":""4"",""participantId"":""376984D943984F868B71C3942C948833"",""assignmentId"":""3fa7a09d-7e34-4c46-a7a4-5c684bd61ca6"",""projectId"":""5e631737-0fa4-44a6-b227-7ba1d7345015""}","https://test12345.live/?num_scrambled_semantic=8&num_scrambled_causal=4&num_scrambled_schematic=4&participantId=376984D943984F868B71C3942C948833&assignmentId=3fa7a09d-7e34-4c46-a7a4-5c684bd61ca6&projectId=5e631737-0fa4-44a6-b227-7ba1d7345015","376984D943984F868B71C3942C948833-2025-05-27-19-04-08","[{""page_index"":0,""viewing_time"":6121}]","6121","","","","",""
"","","","","","image-button-response","24","706688","0.0-10.0-0.0","376984D943984F868B71C3942C948833","376984D943984F868B71C3942C948833","3fa7a09d-7e34-4c46-a7a4-5c684bd61ca6","5e631737-0fa4-44a6-b227-7ba1d7345015","{""num_scrambled_semantic"":""8"",""num_scrambled_causal"":""4"",""num_scrambled_schematic"":""4"",""participantId"":""376984D943984F868B71C3942C948833"",""assignmentId"":""3fa7a09d-7e34-4c46-a7a4-5c684bd61ca6"",""projectId"":""5e631737-0fa4-44a6-b227-7ba1d7345015""}","https://test12345.live/?num_scrambled_semantic=8&num_scrambled_causal=4&num_scrambled_schematic=4&participantId=376984D943984F868B71C3942C948833&assignmentId=3fa7a09d-7e34-4c46-a7a4-5c684bd61ca6&projectId=5e631737-0fa4-44a6-b227-7ba1d7345015","376984D943984F868B71C3942C948833-2025-05-27-19-04-08","","null","","images/causal_sequence/coin_causal/coin_causal_0.png","null","",""
"","","","","","image-button-response","25","711198","0.0-10.0-1.0-0.0","376984D943984F868B71C3942C948833","376984D943984F868B71C3942C948833","3fa7a09d-7e34-4c46-a7a4-5c684bd61ca6","5e631737-0fa4-44a6-b227-7ba1d7345015","{""num_scrambled_semantic"":""8"",""num_scrambled_causal"":""4"",""num_scrambled_schematic"":""4"",""participantId"":""376984D943984F868B71C3942C948833"",""assignmentId"":""3fa7a09d-7e34-4c46-a7a4-5c684bd61ca6"",""projectId"":""5e631737-0fa4-44a6-b227-7ba1d7345015""}","https://test12345.live/?num_scrambled_semantic=8&num_scrambled_causal=4&num_scrambled_schematic=4&participantId=376984D943984F868B71C3942C948833&assignmentId=3fa7a09d-7e34-4c46-a7a4-5c684bd61ca6&projectId=5e631737-0fa4-44a6-b227-7ba1d7345015","376984D943984F868B71C3942C948833-2025-05-27-19-04-08","","null","","images/causal_sequence/coin_causal/coin_causal_1.png","null","",""
"","","","","","image-button-response","26","715200","0.0-10.0-1.0-1.0","376984D943984F868B71C3942C948833","376984D943984F868B71C3942C948833","3fa7a09d-7e34-4c46-a7a4-5c684bd61ca6","5e631737-0fa4-44a6-b227-7ba1d7345015","{""num_scrambled_semantic"":""8"",""num_scrambled_causal"":""4"",""num_scrambled_schematic"":""4"",""participantId"":""376984D943984F868B71C3942C948833"",""assignmentId"":""3fa7a09d-7e34-4c46-a7a4-5c684bd61ca6"",""projectId"":""5e631737-0fa4-44a6-b227-7ba1d7345015""}","https://test12345.live/?num_scrambled_semantic=8&num_scrambled_causal=4&num_scrambled_schematic=4&participantId=376984D943984F868B71C3942C948833&assignmentId=3fa7a09d-7e34-4c46-a7a4-5c684bd61ca6&projectId=5e631737-0fa4-44a6-b227-7ba1d7345015","376984D943984F868B71C3942C948833-2025-05-27-19-04-08","","null","","images/causal_sequence/coin_causal/coin_causal_1.png","null","",""
"","","","","","image-button-response","27","717008","0.0-10.0-1.0-2.0","376984D943984F868B71C3942C948833","376984D943984F868B71C3942C948833","3fa7a09d-7e34-4c46-a7a4-5c684bd61ca6","5e631737-0fa4-44a6-b227-7ba1d7345015","{""num_scrambled_semantic"":""8"",""num_scrambled_causal"":""4"",""num_scrambled_schematic"":""4"",""participantId"":""376984D943984F868B71C3942C948833"",""assignmentId"":""3fa7a09d-7e34-4c46-a7a4-5c684bd61ca6"",""projectId"":""5e631737-0fa4-44a6-b227-7ba1d7345015""}","https://test12345.live/?num_scrambled_semantic=8&num_scrambled_causal=4&num_scrambled_schematic=4&participantId=376984D943984F868B71C3942C948833&assignmentId=3fa7a09d-7e34-4c46-a7a4-5c684bd61ca6&projectId=5e631737-0fa4-44a6-b227-7ba1d7345015","376984D943984F868B71C3942C948833-2025-05-27-19-04-08","","null","","[]","null","",""
"","","","","","image-button-response","28","721520","0.0-10.0-1.0-0.1","376984D943984F868B71C3942C948833","376984D943984F868B71C3942C948833","3fa7a09d-7e34-4c46-a7a4-5c684bd61ca6","5e631737-0fa4-44a6-b227-7ba1d7345015","{""num_scrambled_semantic"":""8"",""num_scrambled_causal"":""4"",""num_scrambled_schematic"":""4"",""participantId"":""376984D943984F868B71C3942C948833"",""assignmentId"":""3fa7a09d-7e34-4c46-a7a4-5c684bd61ca6"",""projectId"":""5e631737-0fa4-44a6-b227-7ba1d7345015""}","https://test12345.live/?num_scrambled_semantic=8&num_scrambled_causal=4&num_scrambled_schematic=4&participantId=376984D943984F868B71C3942C948833&assignmentId=3fa7a09d-7e34-4c46-a7a4-5c684bd61ca6&projectId=5e631737-0fa4-44a6-b227-7ba1d7345015","376984D943984F868B71C3942C948833-2025-05-27-19-04-08","","null","","images/causal_sequence/coin_causal/coin_causal_2.png","null","",""
"","","","","","image-button-response","29","725522","0.0-10.0-1.0-1.1","376984D943984F868B71C3942C948833","376984D943984F868B71C3942C948833","3fa7a09d-7e34-4c46-a7a4-5c684bd61ca6","5e631737-0fa4-44a6-b227-7ba1d7345015","{""num_scrambled_semantic"":""8"",""num_scrambled_causal"":""4"",""num_scrambled_schematic"":""4"",""participantId"":""376984D943984F868B71C3942C948833"",""assignmentId"":""3fa7a09d-7e34-4c46-a7a4-5c684bd61ca6"",""projectId"":""5e631737-0fa4-44a6-b227-7ba1d7345015""}","https://test12345.live/?num_scrambled_semantic=8&num_scrambled_causal=4&num_scrambled_schematic=4&participantId=376984D943984F868B71C3942C948833&assignmentId=3fa7a09d-7e34-4c46-a7a4-5c684bd61ca6&projectId=5e631737-0fa4-44a6-b227-7ba1d7345015","376984D943984F868B71C3942C948833-2025-05-27-19-04-08","","null","","images/causal_sequence/coin_causal/coin_causal_2.png","null","",""
"","","","","","image-button-response","30","727338","0.0-10.0-1.0-2.1","376984D943984F868B71C3942C948833","376984D943984F868B71C3942C948833","3fa7a09d-7e34-4c46-a7a4-5c684bd61ca6","5e631737-0fa4-44a6-b227-7ba1d7345015","{""num_scrambled_semantic"":""8"",""num_scrambled_causal"":""4"",""num_scrambled_schematic"":""4"",""participantId"":""376984D943984F868B71C3942C948833"",""assignmentId"":""3fa7a09d-7e34-4c46-a7a4-5c684bd61ca6"",""projectId"":""5e631737-0fa4-44a6-b227-7ba1d7345015""}","https://test12345.live/?num_scrambled_semantic=8&num_scrambled_causal=4&num_scrambled_schematic=4&participantId=376984D943984F868B71C3942C948833&assignmentId=3fa7a09d-7e34-4c46-a7a4-5c684bd61ca6&projectId=5e631737-0fa4-44a6-b227-7ba1d7345015","376984D943984F868B71C3942C948833-2025-05-27-19-04-08","","null","","[]","null","",""
"","","","","","image-button-response","31","731851","0.0-10.0-1.0-0.2","376984D943984F868B71C3942C948833","376984D943984F868B71C3942C948833","3fa7a09d-7e34-4c46-a7a4-5c684bd61ca6","5e631737-0fa4-44a6-b227-7ba1d7345015","{""num_scrambled_semantic"":""8"",""num_scrambled_causal"":""4"",""num_scrambled_schematic"":""4"",""participantId"":""376984D943984F868B71C3942C948833"",""assignmentId"":""3fa7a09d-7e34-4c46-a7a4-5c684bd61ca6"",""projectId"":""5e631737-0fa4-44a6-b227-7ba1d7345015""}","https://test12345.live/?num_scrambled_semantic=8&num_scrambled_causal=4&num_scrambled_schematic=4&participantId=376984D943984F868B71C3942C948833&assignmentId=3fa7a09d-7e34-4c46-a7a4-5c684bd61ca6&projectId=5e631737-0fa4-44a6-b227-7ba1d7345015","376984D943984F868B71C3942C948833-2025-05-27-19-04-08","","null","","images/causal_sequence/coin_causal/coin_causal_3.png","null","",""
"","","","","","image-button-response","32","734611","0.0-10.0-1.0-1.2","376984D943984F868B71C3942C948833","376984D943984F868B71C3942C948833","3fa7a09d-7e34-4c46-a7a4-5c684bd61ca6","5e631737-0fa4-44a6-b227-7ba1d7345015","{""num_scrambled_semantic"":""8"",""num_scrambled_causal"":""4"",""num_scrambled_schematic"":""4"",""participantId"":""376984D943984F868B71C3942C948833"",""assignmentId"":""3fa7a09d-7e34-4c46-a7a4-5c684bd61ca6"",""projectId"":""5e631737-0fa4-44a6-b227-7ba1d7345015""}","https://test12345.live/?num_scrambled_semantic=8&num_scrambled_causal=4&num_scrambled_schematic=4&participantId=376984D943984F868B71C3942C948833&assignmentId=3fa7a09d-7e34-4c46-a7a4-5c684bd61ca6&projectId=5e631737-0fa4-44a6-b227-7ba1d7345015","376984D943984F868B71C3942C948833-2025-05-27-19-04-08","","2759","","images/causal_sequence/coin_causal/coin_causal_3.png","0","",""
"","","","","","image-button-response","33","736425","0.0-10.0-1.0-2.2","376984D943984F868B71C3942C948833","376984D943984F868B71C3942C948833","3fa7a09d-7e34-4c46-a7a4-5c684bd61ca6","5e631737-0fa4-44a6-b227-7ba1d7345015","{""num_scrambled_semantic"":""8"",""num_scrambled_causal"":""4"",""num_scrambled_schematic"":""4"",""participantId"":""376984D943984F868B71C3942C948833"",""assignmentId"":""3fa7a09d-7e34-4c46-a7a4-5c684bd61ca6"",""projectId"":""5e631737-0fa4-44a6-b227-7ba1d7345015""}","https://test12345.live/?num_scrambled_semantic=8&num_scrambled_causal=4&num_scrambled_schematic=4&participantId=376984D943984F868B71C3942C948833&assignmentId=3fa7a09d-7e34-4c46-a7a4-5c684bd61ca6&projectId=5e631737-0fa4-44a6-b227-7ba1d7345015","376984D943984F868B71C3942C948833-2025-05-27-19-04-08","","null","","[]","null","",""
"","","","","","image-button-response","34","740936","0.0-10.0-1.0-0.3","376984D943984F868B71C3942C948833","376984D943984F868B71C3942C948833","3fa7a09d-7e34-4c46-a7a4-5c684bd61ca6","5e631737-0fa4-44a6-b227-7ba1d7345015","{""num_scrambled_semantic"":""8"",""num_scrambled_causal"":""4"",""num_scrambled_schematic"":""4"",""participantId"":""376984D943984F868B71C3942C948833"",""assignmentId"":""3fa7a09d-7e34-4c46-a7a4-5c684bd61ca6"",""projectId"":""5e631737-0fa4-44a6-b227-7ba1d7345015""}","https://test12345.live/?num_scrambled_semantic=8&num_scrambled_causal=4&num_scrambled_schematic=4&participantId=376984D943984F868B71C3942C948833&assignmentId=3fa7a09d-7e34-4c46-a7a4-5c684bd61ca6&projectId=5e631737-0fa4-44a6-b227-7ba1d7345015","376984D943984F868B71C3942C948833-2025-05-27-19-04-08","","null","","images/causal_sequence/coin_causal/coin_causal_4.png","null","",""
"","","","","","image-button-response","35","742387","0.0-10.0-1.0-1.3","376984D943984F868B71C3942C948833","376984D943984F868B71C3942C948833","3fa7a09d-7e34-4c46-a7a4-5c684bd61ca6","5e631737-0fa4-44a6-b227-7ba1d7345015","{""num_scrambled_semantic"":""8"",""num_scrambled_causal"":""4"",""num_scrambled_schematic"":""4"",""participantId"":""376984D943984F868B71C3942C948833"",""assignmentId"":""3fa7a09d-7e34-4c46-a7a4-5c684bd61ca6"",""projectId"":""5e631737-0fa4-44a6-b227-7ba1d7345015""}","https://test12345.live/?num_scrambled_semantic=8&num_scrambled_causal=4&num_scrambled_schematic=4&participantId=376984D943984F868B71C3942C948833&assignmentId=3fa7a09d-7e34-4c46-a7a4-5c684bd61ca6&projectId=5e631737-0fa4-44a6-b227-7ba1d7345015","376984D943984F868B71C3942C948833-2025-05-27-19-04-08","","1449","","images/causal_sequence/coin_causal/coin_causal_4.png","0","",""
"","","","","","image-button-response","36","744202","0.0-10.0-1.0-2.3","376984D943984F868B71C3942C948833","376984D943984F868B71C3942C948833","3fa7a09d-7e34-4c46-a7a4-5c684bd61ca6","5e631737-0fa4-44a6-b227-7ba1d7345015","{""num_scrambled_semantic"":""8"",""num_scrambled_causal"":""4"",""num_scrambled_schematic"":""4"",""participantId"":""376984D943984F868B71C3942C948833"",""assignmentId"":""3fa7a09d-7e34-4c46-a7a4-5c684bd61ca6"",""projectId"":""5e631737-0fa4-44a6-b227-7ba1d7345015""}","https://test12345.live/?num_scrambled_semantic=8&num_scrambled_causal=4&num_scrambled_schematic=4&participantId=376984D943984F868B71C3942C948833&assignmentId=3fa7a09d-7e34-4c46-a7a4-5c684bd61ca6&projectId=5e631737-0fa4-44a6-b227-7ba1d7345015","376984D943984F868B71C3942C948833-2025-05-27-19-04-08","","null","","[]","null","",""
"","","","","","image-button-response","37","748706","0.0-10.0-1.0-0.4","376984D943984F868B71C3942C948833","376984D943984F868B71C3942C948833","3fa7a09d-7e34-4c46-a7a4-5c684bd61ca6","5e631737-0fa4-44a6-b227-7ba1d7345015","{""num_scrambled_semantic"":""8"",""num_scrambled_causal"":""4"",""num_scrambled_schematic"":""4"",""participantId"":""376984D943984F868B71C3942C948833"",""assignmentId"":""3fa7a09d-7e34-4c46-a7a4-5c684bd61ca6"",""projectId"":""5e631737-0fa4-44a6-b227-7ba1d7345015""}","https://test12345.live/?num_scrambled_semantic=8&num_scrambled_causal=4&num_scrambled_schematic=4&participantId=376984D943984F868B71C3942C948833&assignmentId=3fa7a09d-7e34-4c46-a7a4-5c684bd61ca6&projectId=5e631737-0fa4-44a6-b227-7ba1d7345015","376984D943984F868B71C3942C948833-2025-05-27-19-04-08","","null","","images/causal_sequence/coin_causal/coin_causal_5.png","null","",""
"","","","","","image-button-response","38","750755","0.0-10.0-1.0-1.4","376984D943984F868B71C3942C948833","376984D943984F868B71C3942C948833","3fa7a09d-7e34-4c46-a7a4-5c684bd61ca6","5e631737-0fa4-44a6-b227-7ba1d7345015","{""num_scrambled_semantic"":""8"",""num_scrambled_causal"":""4"",""num_scrambled_schematic"":""4"",""participantId"":""376984D943984F868B71C3942C948833"",""assignmentId"":""3fa7a09d-7e34-4c46-a7a4-5c684bd61ca6"",""projectId"":""5e631737-0fa4-44a6-b227-7ba1d7345015""}","https://test12345.live/?num_scrambled_semantic=8&num_scrambled_causal=4&num_scrambled_schematic=4&participantId=376984D943984F868B71C3942C948833&assignmentId=3fa7a09d-7e34-4c46-a7a4-5c684bd61ca6&projectId=5e631737-0fa4-44a6-b227-7ba1d7345015","376984D943984F868B71C3942C948833-2025-05-27-19-04-08","","2048","","images/causal_sequence/coin_causal/coin_causal_5.png","0","",""
"","","","","","image-button-response","39","752556","0.0-10.0-1.0-2.4","376984D943984F868B71C3942C948833","376984D943984F868B71C3942C948833","3fa7a09d-7e34-4c46-a7a4-5c684bd61ca6","5e631737-0fa4-44a6-b227-7ba1d7345015","{""num_scrambled_semantic"":""8"",""num_scrambled_causal"":""4"",""num_scrambled_schematic"":""4"",""participantId"":""376984D943984F868B71C3942C948833"",""assignmentId"":""3fa7a09d-7e34-4c46-a7a4-5c684bd61ca6"",""projectId"":""5e631737-0fa4-44a6-b227-7ba1d7345015""}","https://test12345.live/?num_scrambled_semantic=8&num_scrambled_causal=4&num_scrambled_schematic=4&participantId=376984D943984F868B71C3942C948833&assignmentId=3fa7a09d-7e34-4c46-a7a4-5c684bd61ca6&projectId=5e631737-0fa4-44a6-b227-7ba1d7345015","376984D943984F868B71C3942C948833-2025-05-27-19-04-08","","null","","[]","null","",""
"","","","","","image-button-response","40","757060","0.0-10.0-1.0-0.5","376984D943984F868B71C3942C948833","376984D943984F868B71C3942C948833","3fa7a09d-7e34-4c46-a7a4-5c684bd61ca6","5e631737-0fa4-44a6-b227-7ba1d7345015","{""num_scrambled_semantic"":""8"",""num_scrambled_causal"":""4"",""num_scrambled_schematic"":""4"",""participantId"":""376984D943984F868B71C3942C948833"",""assignmentId"":""3fa7a09d-7e34-4c46-a7a4-5c684bd61ca6"",""projectId"":""5e631737-0fa4-44a6-b227-7ba1d7345015""}","https://test12345.live/?num_scrambled_semantic=8&num_scrambled_causal=4&num_scrambled_schematic=4&participantId=376984D943984F868B71C3942C948833&assignmentId=3fa7a09d-7e34-4c46-a7a4-5c684bd61ca6&projectId=5e631737-0fa4-44a6-b227-7ba1d7345015","376984D943984F868B71C3942C948833-2025-05-27-19-04-08","","null","","images/causal_sequence/coin_causal/coin_causal_6.png","null","",""
"","","","","","image-button-response","41","758131","0.0-10.0-1.0-1.5","376984D943984F868B71C3942C948833","376984D943984F868B71C3942C948833","3fa7a09d-7e34-4c46-a7a4-5c684bd61ca6","5e631737-0fa4-44a6-b227-7ba1d7345015","{""num_scrambled_semantic"":""8"",""num_scrambled_causal"":""4"",""num_scrambled_schematic"":""4"",""participantId"":""376984D943984F868B71C3942C948833"",""assignmentId"":""3fa7a09d-7e34-4c46-a7a4-5c684bd61ca6"",""projectId"":""5e631737-0fa4-44a6-b227-7ba1d7345015""}","https://test12345.live/?num_scrambled_semantic=8&num_scrambled_causal=4&num_scrambled_schematic=4&participantId=376984D943984F868B71C3942C948833&assignmentId=3fa7a09d-7e34-4c46-a7a4-5c684bd61ca6&projectId=5e631737-0fa4-44a6-b227-7ba1d7345015","376984D943984F868B71C3942C948833-2025-05-27-19-04-08","","1070","","images/causal_sequence/coin_causal/coin_causal_6.png","0","",""
"","","","","","image-button-response","42","759946","0.0-10.0-1.0-2.5","376984D943984F868B71C3942C948833","376984D943984F868B71C3942C948833","3fa7a09d-7e34-4c46-a7a4-5c684bd61ca6","5e631737-0fa4-44a6-b227-7ba1d7345015","{""num_scrambled_semantic"":""8"",""num_scrambled_causal"":""4"",""num_scrambled_schematic"":""4"",""participantId"":""376984D943984F868B71C3942C948833"",""assignmentId"":""3fa7a09d-7e34-4c46-a7a4-5c684bd61ca6"",""projectId"":""5e631737-0fa4-44a6-b227-7ba1d7345015""}","https://test12345.live/?num_scrambled_semantic=8&num_scrambled_causal=4&num_scrambled_schematic=4&participantId=376984D943984F868B71C3942C948833&assignmentId=3fa7a09d-7e34-4c46-a7a4-5c684bd61ca6&projectId=5e631737-0fa4-44a6-b227-7ba1d7345015","376984D943984F868B71C3942C948833-2025-05-27-19-04-08","","null","","[]","null","",""
"","","","","","image-button-response","43","764452","0.0-10.0-1.0-0.6","376984D943984F868B71C3942C948833","376984D943984F868B71C3942C948833","3fa7a09d-7e34-4c46-a7a4-5c684bd61ca6","5e631737-0fa4-44a6-b227-7ba1d7345015","{""num_scrambled_semantic"":""8"",""num_scrambled_causal"":""4"",""num_scrambled_schematic"":""4"",""participantId"":""376984D943984F868B71C3942C948833"",""assignmentId"":""3fa7a09d-7e34-4c46-a7a4-5c684bd61ca6"",""projectId"":""5e631737-0fa4-44a6-b227-7ba1d7345015""}","https://test12345.live/?num_scrambled_semantic=8&num_scrambled_causal=4&num_scrambled_schematic=4&participantId=376984D943984F868B71C3942C948833&assignmentId=3fa7a09d-7e34-4c46-a7a4-5c684bd61ca6&projectId=5e631737-0fa4-44a6-b227-7ba1d7345015","376984D943984F868B71C3942C948833-2025-05-27-19-04-08","","null","","images/causal_sequence/coin_causal/coin_causal_7.png","null","",""
"","","","","","image-button-response","44","766611","0.0-10.0-1.0-1.6","376984D943984F868B71C3942C948833","376984D943984F868B71C3942C948833","3fa7a09d-7e34-4c46-a7a4-5c684bd61ca6","5e631737-0fa4-44a6-b227-7ba1d7345015","{""num_scrambled_semantic"":""8"",""num_scrambled_causal"":""4"",""num_scrambled_schematic"":""4"",""participantId"":""376984D943984F868B71C3942C948833"",""assignmentId"":""3fa7a09d-7e34-4c46-a7a4-5c684bd61ca6"",""projectId"":""5e631737-0fa4-44a6-b227-7ba1d7345015""}","https://test12345.live/?num_scrambled_semantic=8&num_scrambled_causal=4&num_scrambled_schematic=4&participantId=376984D943984F868B71C3942C948833&assignmentId=3fa7a09d-7e34-4c46-a7a4-5c684bd61ca6&projectId=5e631737-0fa4-44a6-b227-7ba1d7345015","376984D943984F868B71C3942C948833-2025-05-27-19-04-08","","2158","","images/causal_sequence/coin_causal/coin_causal_7.png","1","",""
"","","","","","image-button-response","45","768418","0.0-10.0-1.0-2.6","376984D943984F868B71C3942C948833","376984D943984F868B71C3942C948833","3fa7a09d-7e34-4c46-a7a4-5c684bd61ca6","5e631737-0fa4-44a6-b227-7ba1d7345015","{""num_scrambled_semantic"":""8"",""num_scrambled_causal"":""4"",""num_scrambled_schematic"":""4"",""participantId"":""376984D943984F868B71C3942C948833"",""assignmentId"":""3fa7a09d-7e34-4c46-a7a4-5c684bd61ca6"",""projectId"":""5e631737-0fa4-44a6-b227-7ba1d7345015""}","https://test12345.live/?num_scrambled_semantic=8&num_scrambled_causal=4&num_scrambled_schematic=4&participantId=376984D943984F868B71C3942C948833&assignmentId=3fa7a09d-7e34-4c46-a7a4-5c684bd61ca6&projectId=5e631737-0fa4-44a6-b227-7ba1d7345015","376984D943984F868B71C3942C948833-2025-05-27-19-04-08","","null","","[]","null","",""
"","","","","","image-button-response","46","772928","0.0-10.0-1.0-0.7","376984D943984F868B71C3942C948833","376984D943984F868B71C3942C948833","3fa7a09d-7e34-4c46-a7a4-5c684bd61ca6","5e631737-0fa4-44a6-b227-7ba1d7345015","{""num_scrambled_semantic"":""8"",""num_scrambled_causal"":""4"",""num_scrambled_schematic"":""4"",""participantId"":""376984D943984F868B71C3942C948833"",""assignmentId"":""3fa7a09d-7e34-4c46-a7a4-5c684bd61ca6"",""projectId"":""5e631737-0fa4-44a6-b227-7ba1d7345015""}","https://test12345.live/?num_scrambled_semantic=8&num_scrambled_causal=4&num_scrambled_schematic=4&participantId=376984D943984F868B71C3942C948833&assignmentId=3fa7a09d-7e34-4c46-a7a4-5c684bd61ca6&projectId=5e631737-0fa4-44a6-b227-7ba1d7345015","376984D943984F868B71C3942C948833-2025-05-27-19-04-08","","null","","images/causal_sequence/coin_causal/coin_causal_8.png","null","",""
"","","","","","image-button-response","47","774754","0.0-10.0-1.0-1.7","376984D943984F868B71C3942C948833","376984D943984F868B71C3942C948833","3fa7a09d-7e34-4c46-a7a4-5c684bd61ca6","5e631737-0fa4-44a6-b227-7ba1d7345015","{""num_scrambled_semantic"":""8"",""num_scrambled_causal"":""4"",""num_scrambled_schematic"":""4"",""participantId"":""376984D943984F868B71C3942C948833"",""assignmentId"":""3fa7a09d-7e34-4c46-a7a4-5c684bd61ca6"",""projectId"":""5e631737-0fa4-44a6-b227-7ba1d7345015""}","https://test12345.live/?num_scrambled_semantic=8&num_scrambled_causal=4&num_scrambled_schematic=4&participantId=376984D943984F868B71C3942C948833&assignmentId=3fa7a09d-7e34-4c46-a7a4-5c684bd61ca6&projectId=5e631737-0fa4-44a6-b227-7ba1d7345015","376984D943984F868B71C3942C948833-2025-05-27-19-04-08","","1826","","images/causal_sequence/coin_causal/coin_causal_8.png","0","",""
"","","","","","image-button-response","48","776568","0.0-10.0-1.0-2.7","376984D943984F868B71C3942C948833","376984D943984F868B71C3942C948833","3fa7a09d-7e34-4c46-a7a4-5c684bd61ca6","5e631737-0fa4-44a6-b227-7ba1d7345015","{""num_scrambled_semantic"":""8"",""num_scrambled_causal"":""4"",""num_scrambled_schematic"":""4"",""participantId"":""376984D943984F868B71C3942C948833"",""assignmentId"":""3fa7a09d-7e34-4c46-a7a4-5c684bd61ca6"",""projectId"":""5e631737-0fa4-44a6-b227-7ba1d7345015""}","https://test12345.live/?num_scrambled_semantic=8&num_scrambled_causal=4&num_scrambled_schematic=4&participantId=376984D943984F868B71C3942C948833&assignmentId=3fa7a09d-7e34-4c46-a7a4-5c684bd61ca6&projectId=5e631737-0fa4-44a6-b227-7ba1d7345015","376984D943984F868B71C3942C948833-2025-05-27-19-04-08","","null","","[]","null","",""
"","","","","","image-button-response","49","781070","0.0-10.0-1.0-0.8","376984D943984F868B71C3942C948833","376984D943984F868B71C3942C948833","3fa7a09d-7e34-4c46-a7a4-5c684bd61ca6","5e631737-0fa4-44a6-b227-7ba1d7345015","{""num_scrambled_semantic"":""8"",""num_scrambled_causal"":""4"",""num_scrambled_schematic"":""4"",""participantId"":""376984D943984F868B71C3942C948833"",""assignmentId"":""3fa7a09d-7e34-4c46-a7a4-5c684bd61ca6"",""projectId"":""5e631737-0fa4-44a6-b227-7ba1d7345015""}","https://test12345.live/?num_scrambled_semantic=8&num_scrambled_causal=4&num_scrambled_schematic=4&participantId=376984D943984F868B71C3942C948833&assignmentId=3fa7a09d-7e34-4c46-a7a4-5c684bd61ca6&projectId=5e631737-0fa4-44a6-b227-7ba1d7345015","376984D943984F868B71C3942C948833-2025-05-27-19-04-08","","null","","images/causal_sequence/coin_causal/coin_causal_9.png","null","",""
"","","","","","image-button-response","50","782371","0.0-10.0-1.0-1.8","376984D943984F868B71C3942C948833","376984D943984F868B71C3942C948833","3fa7a09d-7e34-4c46-a7a4-5c684bd61ca6","5e631737-0fa4-44a6-b227-7ba1d7345015","{""num_scrambled_semantic"":""8"",""num_scrambled_causal"":""4"",""num_scrambled_schematic"":""4"",""participantId"":""376984D943984F868B71C3942C948833"",""assignmentId"":""3fa7a09d-7e34-4c46-a7a4-5c684bd61ca6"",""projectId"":""5e631737-0fa4-44a6-b227-7ba1d7345015""}","https://test12345.live/?num_scrambled_semantic=8&num_scrambled_causal=4&num_scrambled_schematic=4&participantId=376984D943984F868B71C3942C948833&assignmentId=3fa7a09d-7e34-4c46-a7a4-5c684bd61ca6&projectId=5e631737-0fa4-44a6-b227-7ba1d7345015","376984D943984F868B71C3942C948833-2025-05-27-19-04-08","","1300","","images/causal_sequence/coin_causal/coin_causal_9.png","0","",""
"","","","","","image-button-response","51","784188","0.0-10.0-1.0-2.8","376984D943984F868B71C3942C948833","376984D943984F868B71C3942C948833","3fa7a09d-7e34-4c46-a7a4-5c684bd61ca6","5e631737-0fa4-44a6-b227-7ba1d7345015","{""num_scrambled_semantic"":""8"",""num_scrambled_causal"":""4"",""num_scrambled_schematic"":""4"",""participantId"":""376984D943984F868B71C3942C948833"",""assignmentId"":""3fa7a09d-7e34-4c46-a7a4-5c684bd61ca6"",""projectId"":""5e631737-0fa4-44a6-b227-7ba1d7345015""}","https://test12345.live/?num_scrambled_semantic=8&num_scrambled_causal=4&num_scrambled_schematic=4&participantId=376984D943984F868B71C3942C948833&assignmentId=3fa7a09d-7e34-4c46-a7a4-5c684bd61ca6&projectId=5e631737-0fa4-44a6-b227-7ba1d7345015","376984D943984F868B71C3942C948833-2025-05-27-19-04-08","","null","","[]","null","",""
"","","","","","image-button-response","52","788702","0.0-10.0-1.0-0.9","376984D943984F868B71C3942C948833","376984D943984F868B71C3942C948833","3fa7a09d-7e34-4c46-a7a4-5c684bd61ca6","5e631737-0fa4-44a6-b227-7ba1d7345015","{""num_scrambled_semantic"":""8"",""num_scrambled_causal"":""4"",""num_scrambled_schematic"":""4"",""participantId"":""376984D943984F868B71C3942C948833"",""assignmentId"":""3fa7a09d-7e34-4c46-a7a4-5c684bd61ca6"",""projectId"":""5e631737-0fa4-44a6-b227-7ba1d7345015""}","https://test12345.live/?num_scrambled_semantic=8&num_scrambled_causal=4&num_scrambled_schematic=4&participantId=376984D943984F868B71C3942C948833&assignmentId=3fa7a09d-7e34-4c46-a7a4-5c684bd61ca6&projectId=5e631737-0fa4-44a6-b227-7ba1d7345015","376984D943984F868B71C3942C948833-2025-05-27-19-04-08","","null","","images/causal_sequence/coin_causal/coin_causal_ten.png","null","",""
"","","","","","image-button-response","53","790475","0.0-10.0-1.0-1.9","376984D943984F868B71C3942C948833","376984D943984F868B71C3942C948833","3fa7a09d-7e34-4c46-a7a4-5c684bd61ca6","5e631737-0fa4-44a6-b227-7ba1d7345015","{""num_scrambled_semantic"":""8"",""num_scrambled_causal"":""4"",""num_scrambled_schematic"":""4"",""participantId"":""376984D943984F868B71C3942C948833"",""assignmentId"":""3fa7a09d-7e34-4c46-a7a4-5c684bd61ca6"",""projectId"":""5e631737-0fa4-44a6-b227-7ba1d7345015""}","https://test12345.live/?num_scrambled_semantic=8&num_scrambled_causal=4&num_scrambled_schematic=4&participantId=376984D943984F868B71C3942C948833&assignmentId=3fa7a09d-7e34-4c46-a7a4-5c684bd61ca6&projectId=5e631737-0fa4-44a6-b227-7ba1d7345015","376984D943984F868B71C3942C948833-2025-05-27-19-04-08","","1772","","images/causal_sequence/coin_causal/coin_causal_ten.png","0","",""
"","","","","","image-button-response","54","792282","0.0-10.0-1.0-2.9","376984D943984F868B71C3942C948833","376984D943984F868B71C3942C948833","3fa7a09d-7e34-4c46-a7a4-5c684bd61ca6","5e631737-0fa4-44a6-b227-7ba1d7345015","{""num_scrambled_semantic"":""8"",""num_scrambled_causal"":""4"",""num_scrambled_schematic"":""4"",""participantId"":""376984D943984F868B71C3942C948833"",""assignmentId"":""3fa7a09d-7e34-4c46-a7a4-5c684bd61ca6"",""projectId"":""5e631737-0fa4-44a6-b227-7ba1d7345015""}","https://test12345.live/?num_scrambled_semantic=8&num_scrambled_causal=4&num_scrambled_schematic=4&participantId=376984D943984F868B71C3942C948833&assignmentId=3fa7a09d-7e34-4c46-a7a4-5c684bd61ca6&projectId=5e631737-0fa4-44a6-b227-7ba1d7345015","376984D943984F868B71C3942C948833-2025-05-27-19-04-08","","null","","[]","null","",""
"","","","","","html-audio-response","55","967851","0.0-11.0","376984D943984F868B71C3942C948833","376984D943984F868B71C3942C948833","3fa7a09d-7e34-4c46-a7a4-5c684bd61ca6","5e631737-0fa4-44a6-b227-7ba1d7345015","{""num_scrambled_semantic"":""8"",""num_scrambled_causal"":""4"",""num_scrambled_schematic"":""4"",""participantId"":""376984D943984F868B71C3942C948833"",""assignmentId"":""3fa7a09d-7e34-4c46-a7a4-5c684bd61ca6"",""projectId"":""5e631737-0fa4-44a6-b227-7ba1d7345015""}","https://test12345.live/?num_scrambled_semantic=8&num_scrambled_causal=4&num_scrambled_schematic=4&participantId=376984D943984F868B71C3942C948833&assignmentId=3fa7a09d-7e34-4c46-a7a4-5c684bd61ca6&projectId=5e631737-0fa4-44a6-b227-7ba1d7345015","376984D943984F868B71C3942C948833-2025-05-27-19-04-08","","null","","[""<span style=\""color: red; font-size: 24px\""> NOW RECORDING</span><p>Please say out loud all the images you saw, in the exact order you saw them. Try to recall as many images as you can, but remember: getting the order right is more important than the number of images you recall.</p>""]","","1","coin_causal"
"","","","","","image-button-response","56","973861","0.0-12.0-0.0","376984D943984F868B71C3942C948833","376984D943984F868B71C3942C948833","3fa7a09d-7e34-4c46-a7a4-5c684bd61ca6","5e631737-0fa4-44a6-b227-7ba1d7345015","{""num_scrambled_semantic"":""8"",""num_scrambled_causal"":""4"",""num_scrambled_schematic"":""4"",""participantId"":""376984D943984F868B71C3942C948833"",""assignmentId"":""3fa7a09d-7e34-4c46-a7a4-5c684bd61ca6"",""projectId"":""5e631737-0fa4-44a6-b227-7ba1d7345015""}","https://test12345.live/?num_scrambled_semantic=8&num_scrambled_causal=4&num_scrambled_schematic=4&participantId=376984D943984F868B71C3942C948833&assignmentId=3fa7a09d-7e34-4c46-a7a4-5c684bd61ca6&projectId=5e631737-0fa4-44a6-b227-7ba1d7345015","376984D943984F868B71C3942C948833-2025-05-27-19-04-08","","null","","images/semantic_sequence/creative_activities_semantic/creative_activities_semantic_0.png","null","",""
"","","","","","image-button-response","57","978367","0.0-12.0-1.0-0.0","376984D943984F868B71C3942C948833","376984D943984F868B71C3942C948833","3fa7a09d-7e34-4c46-a7a4-5c684bd61ca6","5e631737-0fa4-44a6-b227-7ba1d7345015","{""num_scrambled_semantic"":""8"",""num_scrambled_causal"":""4"",""num_scrambled_schematic"":""4"",""participantId"":""376984D943984F868B71C3942C948833"",""assignmentId"":""3fa7a09d-7e34-4c46-a7a4-5c684bd61ca6"",""projectId"":""5e631737-0fa4-44a6-b227-7ba1d7345015""}","https://test12345.live/?num_scrambled_semantic=8&num_scrambled_causal=4&num_scrambled_schematic=4&participantId=376984D943984F868B71C3942C948833&assignmentId=3fa7a09d-7e34-4c46-a7a4-5c684bd61ca6&projectId=5e631737-0fa4-44a6-b227-7ba1d7345015","376984D943984F868B71C3942C948833-2025-05-27-19-04-08","","null","","images/semantic_sequence/creative_activities_semantic/creative_activities_semantic_1.png","null","",""
"","","","","","image-button-response","58","979906","0.0-12.0-1.0-1.0","376984D943984F868B71C3942C948833","376984D943984F868B71C3942C948833","3fa7a09d-7e34-4c46-a7a4-5c684bd61ca6","5e631737-0fa4-44a6-b227-7ba1d7345015","{""num_scrambled_semantic"":""8"",""num_scrambled_causal"":""4"",""num_scrambled_schematic"":""4"",""participantId"":""376984D943984F868B71C3942C948833"",""assignmentId"":""3fa7a09d-7e34-4c46-a7a4-5c684bd61ca6"",""projectId"":""5e631737-0fa4-44a6-b227-7ba1d7345015""}","https://test12345.live/?num_scrambled_semantic=8&num_scrambled_causal=4&num_scrambled_schematic=4&participantId=376984D943984F868B71C3942C948833&assignmentId=3fa7a09d-7e34-4c46-a7a4-5c684bd61ca6&projectId=5e631737-0fa4-44a6-b227-7ba1d7345015","376984D943984F868B71C3942C948833-2025-05-27-19-04-08","","1538","","images/semantic_sequence/creative_activities_semantic/creative_activities_semantic_1.png","0","",""
"","","","","","image-button-response","59","981711","0.0-12.0-1.0-2.0","376984D943984F868B71C3942C948833","376984D943984F868B71C3942C948833","3fa7a09d-7e34-4c46-a7a4-5c684bd61ca6","5e631737-0fa4-44a6-b227-7ba1d7345015","{""num_scrambled_semantic"":""8"",""num_scrambled_causal"":""4"",""num_scrambled_schematic"":""4"",""participantId"":""376984D943984F868B71C3942C948833"",""assignmentId"":""3fa7a09d-7e34-4c46-a7a4-5c684bd61ca6"",""projectId"":""5e631737-0fa4-44a6-b227-7ba1d7345015""}","https://test12345.live/?num_scrambled_semantic=8&num_scrambled_causal=4&num_scrambled_schematic=4&participantId=376984D943984F868B71C3942C948833&assignmentId=3fa7a09d-7e34-4c46-a7a4-5c684bd61ca6&projectId=5e631737-0fa4-44a6-b227-7ba1d7345015","376984D943984F868B71C3942C948833-2025-05-27-19-04-08","","null","","[]","null","",""
"","","","","","image-button-response","60","986220","0.0-12.0-1.0-0.1","376984D943984F868B71C3942C948833","376984D943984F868B71C3942C948833","3fa7a09d-7e34-4c46-a7a4-5c684bd61ca6","5e631737-0fa4-44a6-b227-7ba1d7345015","{""num_scrambled_semantic"":""8"",""num_scrambled_causal"":""4"",""num_scrambled_schematic"":""4"",""participantId"":""376984D943984F868B71C3942C948833"",""assignmentId"":""3fa7a09d-7e34-4c46-a7a4-5c684bd61ca6"",""projectId"":""5e631737-0fa4-44a6-b227-7ba1d7345015""}","https://test12345.live/?num_scrambled_semantic=8&num_scrambled_causal=4&num_scrambled_schematic=4&participantId=376984D943984F868B71C3942C948833&assignmentId=3fa7a09d-7e34-4c46-a7a4-5c684bd61ca6&projectId=5e631737-0fa4-44a6-b227-7ba1d7345015","376984D943984F868B71C3942C948833-2025-05-27-19-04-08","","null","","images/semantic_sequence/creative_activities_semantic/creative_activities_semantic_2.png","null","",""
"","","","","","image-button-response","61","987866","0.0-12.0-1.0-1.1","376984D943984F868B71C3942C948833","376984D943984F868B71C3942C948833","3fa7a09d-7e34-4c46-a7a4-5c684bd61ca6","5e631737-0fa4-44a6-b227-7ba1d7345015","{""num_scrambled_semantic"":""8"",""num_scrambled_causal"":""4"",""num_scrambled_schematic"":""4"",""participantId"":""376984D943984F868B71C3942C948833"",""assignmentId"":""3fa7a09d-7e34-4c46-a7a4-5c684bd61ca6"",""projectId"":""5e631737-0fa4-44a6-b227-7ba1d7345015""}","https://test12345.live/?num_scrambled_semantic=8&num_scrambled_causal=4&num_scrambled_schematic=4&participantId=376984D943984F868B71C3942C948833&assignmentId=3fa7a09d-7e34-4c46-a7a4-5c684bd61ca6&projectId=5e631737-0fa4-44a6-b227-7ba1d7345015","376984D943984F868B71C3942C948833-2025-05-27-19-04-08","","1645","","images/semantic_sequence/creative_activities_semantic/creative_activities_semantic_2.png","0","",""
"","","","","","image-button-response","62","989668","0.0-12.0-1.0-2.1","376984D943984F868B71C3942C948833","376984D943984F868B71C3942C948833","3fa7a09d-7e34-4c46-a7a4-5c684bd61ca6","5e631737-0fa4-44a6-b227-7ba1d7345015","{""num_scrambled_semantic"":""8"",""num_scrambled_causal"":""4"",""num_scrambled_schematic"":""4"",""participantId"":""376984D943984F868B71C3942C948833"",""assignmentId"":""3fa7a09d-7e34-4c46-a7a4-5c684bd61ca6"",""projectId"":""5e631737-0fa4-44a6-b227-7ba1d7345015""}","https://test12345.live/?num_scrambled_semantic=8&num_scrambled_causal=4&num_scrambled_schematic=4&participantId=376984D943984F868B71C3942C948833&assignmentId=3fa7a09d-7e34-4c46-a7a4-5c684bd61ca6&projectId=5e631737-0fa4-44a6-b227-7ba1d7345015","376984D943984F868B71C3942C948833-2025-05-27-19-04-08","","null","","[]","null","",""
"","","","","","image-button-response","63","994169","0.0-12.0-1.0-0.2","376984D943984F868B71C3942C948833","376984D943984F868B71C3942C948833","3fa7a09d-7e34-4c46-a7a4-5c684bd61ca6","5e631737-0fa4-44a6-b227-7ba1d7345015","{""num_scrambled_semantic"":""8"",""num_scrambled_causal"":""4"",""num_scrambled_schematic"":""4"",""participantId"":""376984D943984F868B71C3942C948833"",""assignmentId"":""3fa7a09d-7e34-4c46-a7a4-5c684bd61ca6"",""projectId"":""5e631737-0fa4-44a6-b227-7ba1d7345015""}","https://test12345.live/?num_scrambled_semantic=8&num_scrambled_causal=4&num_scrambled_schematic=4&participantId=376984D943984F868B71C3942C948833&assignmentId=3fa7a09d-7e34-4c46-a7a4-5c684bd61ca6&projectId=5e631737-0fa4-44a6-b227-7ba1d7345015","376984D943984F868B71C3942C948833-2025-05-27-19-04-08","","null","","images/semantic_sequence/creative_activities_semantic/creative_activities_semantic_3.png","null","",""
"","","","","","image-button-response","64","995594","0.0-12.0-1.0-1.2","376984D943984F868B71C3942C948833","376984D943984F868B71C3942C948833","3fa7a09d-7e34-4c46-a7a4-5c684bd61ca6","5e631737-0fa4-44a6-b227-7ba1d7345015","{""num_scrambled_semantic"":""8"",""num_scrambled_causal"":""4"",""num_scrambled_schematic"":""4"",""participantId"":""376984D943984F868B71C3942C948833"",""assignmentId"":""3fa7a09d-7e34-4c46-a7a4-5c684bd61ca6"",""projectId"":""5e631737-0fa4-44a6-b227-7ba1d7345015""}","https://test12345.live/?num_scrambled_semantic=8&num_scrambled_causal=4&num_scrambled_schematic=4&participantId=376984D943984F868B71C3942C948833&assignmentId=3fa7a09d-7e34-4c46-a7a4-5c684bd61ca6&projectId=5e631737-0fa4-44a6-b227-7ba1d7345015","376984D943984F868B71C3942C948833-2025-05-27-19-04-08","","1424","","images/semantic_sequence/creative_activities_semantic/creative_activities_semantic_3.png","0","",""
"","","","","","image-button-response","65","997396","0.0-12.0-1.0-2.2","376984D943984F868B71C3942C948833","376984D943984F868B71C3942C948833","3fa7a09d-7e34-4c46-a7a4-5c684bd61ca6","5e631737-0fa4-44a6-b227-7ba1d7345015","{""num_scrambled_semantic"":""8"",""num_scrambled_causal"":""4"",""num_scrambled_schematic"":""4"",""participantId"":""376984D943984F868B71C3942C948833"",""assignmentId"":""3fa7a09d-7e34-4c46-a7a4-5c684bd61ca6"",""projectId"":""5e631737-0fa4-44a6-b227-7ba1d7345015""}","https://test12345.live/?num_scrambled_semantic=8&num_scrambled_causal=4&num_scrambled_schematic=4&participantId=376984D943984F868B71C3942C948833&assignmentId=3fa7a09d-7e34-4c46-a7a4-5c684bd61ca6&projectId=5e631737-0fa4-44a6-b227-7ba1d7345015","376984D943984F868B71C3942C948833-2025-05-27-19-04-08","","null","","[]","null","",""
"","","","","","image-button-response","66","1001910","0.0-12.0-1.0-0.3","376984D943984F868B71C3942C948833","376984D943984F868B71C3942C948833","3fa7a09d-7e34-4c46-a7a4-5c684bd61ca6","5e631737-0fa4-44a6-b227-7ba1d7345015","{""num_scrambled_semantic"":""8"",""num_scrambled_causal"":""4"",""num_scrambled_schematic"":""4"",""participantId"":""376984D943984F868B71C3942C948833"",""assignmentId"":""3fa7a09d-7e34-4c46-a7a4-5c684bd61ca6"",""projectId"":""5e631737-0fa4-44a6-b227-7ba1d7345015""}","https://test12345.live/?num_scrambled_semantic=8&num_scrambled_causal=4&num_scrambled_schematic=4&participantId=376984D943984F868B71C3942C948833&assignmentId=3fa7a09d-7e34-4c46-a7a4-5c684bd61ca6&projectId=5e631737-0fa4-44a6-b227-7ba1d7345015","376984D943984F868B71C3942C948833-2025-05-27-19-04-08","","null","","images/semantic_sequence/creative_activities_semantic/creative_activities_semantic_4.png","null","",""
"","","","","","image-button-response","67","1004266","0.0-12.0-1.0-1.3","376984D943984F868B71C3942C948833","376984D943984F868B71C3942C948833","3fa7a09d-7e34-4c46-a7a4-5c684bd61ca6","5e631737-0fa4-44a6-b227-7ba1d7345015","{""num_scrambled_semantic"":""8"",""num_scrambled_causal"":""4"",""num_scrambled_schematic"":""4"",""participantId"":""376984D943984F868B71C3942C948833"",""assignmentId"":""3fa7a09d-7e34-4c46-a7a4-5c684bd61ca6"",""projectId"":""5e631737-0fa4-44a6-b227-7ba1d7345015""}","https://test12345.live/?num_scrambled_semantic=8&num_scrambled_causal=4&num_scrambled_schematic=4&participantId=376984D943984F868B71C3942C948833&assignmentId=3fa7a09d-7e34-4c46-a7a4-5c684bd61ca6&projectId=5e631737-0fa4-44a6-b227-7ba1d7345015","376984D943984F868B71C3942C948833-2025-05-27-19-04-08","","2355","","images/semantic_sequence/creative_activities_semantic/creative_activities_semantic_4.png","0","",""
"","","","","","image-button-response","68","1006067","0.0-12.0-1.0-2.3","376984D943984F868B71C3942C948833","376984D943984F868B71C3942C948833","3fa7a09d-7e34-4c46-a7a4-5c684bd61ca6","5e631737-0fa4-44a6-b227-7ba1d7345015","{""num_scrambled_semantic"":""8"",""num_scrambled_causal"":""4"",""num_scrambled_schematic"":""4"",""participantId"":""376984D943984F868B71C3942C948833"",""assignmentId"":""3fa7a09d-7e34-4c46-a7a4-5c684bd61ca6"",""projectId"":""5e631737-0fa4-44a6-b227-7ba1d7345015""}","https://test12345.live/?num_scrambled_semantic=8&num_scrambled_causal=4&num_scrambled_schematic=4&participantId=376984D943984F868B71C3942C948833&assignmentId=3fa7a09d-7e34-4c46-a7a4-5c684bd61ca6&projectId=5e631737-0fa4-44a6-b227-7ba1d7345015","376984D943984F868B71C3942C948833-2025-05-27-19-04-08","","null","","[]","null","",""
"","","","","","image-button-response","69","1010569","0.0-12.0-1.0-0.4","376984D943984F868B71C3942C948833","376984D943984F868B71C3942C948833","3fa7a09d-7e34-4c46-a7a4-5c684bd61ca6","5e631737-0fa4-44a6-b227-7ba1d7345015","{""num_scrambled_semantic"":""8"",""num_scrambled_causal"":""4"",""num_scrambled_schematic"":""4"",""participantId"":""376984D943984F868B71C3942C948833"",""assignmentId"":""3fa7a09d-7e34-4c46-a7a4-5c684bd61ca6"",""projectId"":""5e631737-0fa4-44a6-b227-7ba1d7345015""}","https://test12345.live/?num_scrambled_semantic=8&num_scrambled_causal=4&num_scrambled_schematic=4&participantId=376984D943984F868B71C3942C948833&assignmentId=3fa7a09d-7e34-4c46-a7a4-5c684bd61ca6&projectId=5e631737-0fa4-44a6-b227-7ba1d7345015","376984D943984F868B71C3942C948833-2025-05-27-19-04-08","","null","","images/semantic_sequence/creative_activities_semantic/creative_activities_semantic_5.png","null","",""
"","","","","","image-button-response","70","1013434","0.0-12.0-1.0-1.4","376984D943984F868B71C3942C948833","376984D943984F868B71C3942C948833","3fa7a09d-7e34-4c46-a7a4-5c684bd61ca6","5e631737-0fa4-44a6-b227-7ba1d7345015","{""num_scrambled_semantic"":""8"",""num_scrambled_causal"":""4"",""num_scrambled_schematic"":""4"",""participantId"":""376984D943984F868B71C3942C948833"",""assignmentId"":""3fa7a09d-7e34-4c46-a7a4-5c684bd61ca6"",""projectId"":""5e631737-0fa4-44a6-b227-7ba1d7345015""}","https://test12345.live/?num_scrambled_semantic=8&num_scrambled_causal=4&num_scrambled_schematic=4&participantId=376984D943984F868B71C3942C948833&assignmentId=3fa7a09d-7e34-4c46-a7a4-5c684bd61ca6&projectId=5e631737-0fa4-44a6-b227-7ba1d7345015","376984D943984F868B71C3942C948833-2025-05-27-19-04-08","","2864","","images/semantic_sequence/creative_activities_semantic/creative_activities_semantic_5.png","0","",""
"","","","","","image-button-response","71","1015246","0.0-12.0-1.0-2.4","376984D943984F868B71C3942C948833","376984D943984F868B71C3942C948833","3fa7a09d-7e34-4c46-a7a4-5c684bd61ca6","5e631737-0fa4-44a6-b227-7ba1d7345015","{""num_scrambled_semantic"":""8"",""num_scrambled_causal"":""4"",""num_scrambled_schematic"":""4"",""participantId"":""376984D943984F868B71C3942C948833"",""assignmentId"":""3fa7a09d-7e34-4c46-a7a4-5c684bd61ca6"",""projectId"":""5e631737-0fa4-44a6-b227-7ba1d7345015""}","https://test12345.live/?num_scrambled_semantic=8&num_scrambled_causal=4&num_scrambled_schematic=4&participantId=376984D943984F868B71C3942C948833&assignmentId=3fa7a09d-7e34-4c46-a7a4-5c684bd61ca6&projectId=5e631737-0fa4-44a6-b227-7ba1d7345015","376984D943984F868B71C3942C948833-2025-05-27-19-04-08","","null","","[]","null","",""
"","","","","","image-button-response","72","1019747","0.0-12.0-1.0-0.5","376984D943984F868B71C3942C948833","376984D943984F868B71C3942C948833","3fa7a09d-7e34-4c46-a7a4-5c684bd61ca6","5e631737-0fa4-44a6-b227-7ba1d7345015","{""num_scrambled_semantic"":""8"",""num_scrambled_causal"":""4"",""num_scrambled_schematic"":""4"",""participantId"":""376984D943984F868B71C3942C948833"",""assignmentId"":""3fa7a09d-7e34-4c46-a7a4-5c684bd61ca6"",""projectId"":""5e631737-0fa4-44a6-b227-7ba1d7345015""}","https://test12345.live/?num_scrambled_semantic=8&num_scrambled_causal=4&num_scrambled_schematic=4&participantId=376984D943984F868B71C3942C948833&assignmentId=3fa7a09d-7e34-4c46-a7a4-5c684bd61ca6&projectId=5e631737-0fa4-44a6-b227-7ba1d7345015","376984D943984F868B71C3942C948833-2025-05-27-19-04-08","","null","","images/semantic_sequence/creative_activities_semantic/creative_activities_semantic_6.png","null","",""
"","","","","","image-button-response","73","1021426","0.0-12.0-1.0-1.5","376984D943984F868B71C3942C948833","376984D943984F868B71C3942C948833","3fa7a09d-7e34-4c46-a7a4-5c684bd61ca6","5e631737-0fa4-44a6-b227-7ba1d7345015","{""num_scrambled_semantic"":""8"",""num_scrambled_causal"":""4"",""num_scrambled_schematic"":""4"",""participantId"":""376984D943984F868B71C3942C948833"",""assignmentId"":""3fa7a09d-7e34-4c46-a7a4-5c684bd61ca6"",""projectId"":""5e631737-0fa4-44a6-b227-7ba1d7345015""}","https://test12345.live/?num_scrambled_semantic=8&num_scrambled_causal=4&num_scrambled_schematic=4&participantId=376984D943984F868B71C3942C948833&assignmentId=3fa7a09d-7e34-4c46-a7a4-5c684bd61ca6&projectId=5e631737-0fa4-44a6-b227-7ba1d7345015","376984D943984F868B71C3942C948833-2025-05-27-19-04-08","","1678","","images/semantic_sequence/creative_activities_semantic/creative_activities_semantic_6.png","0","",""
"","","","","","image-button-response","74","1023227","0.0-12.0-1.0-2.5","376984D943984F868B71C3942C948833","376984D943984F868B71C3942C948833","3fa7a09d-7e34-4c46-a7a4-5c684bd61ca6","5e631737-0fa4-44a6-b227-7ba1d7345015","{""num_scrambled_semantic"":""8"",""num_scrambled_causal"":""4"",""num_scrambled_schematic"":""4"",""participantId"":""376984D943984F868B71C3942C948833"",""assignmentId"":""3fa7a09d-7e34-4c46-a7a4-5c684bd61ca6"",""projectId"":""5e631737-0fa4-44a6-b227-7ba1d7345015""}","https://test12345.live/?num_scrambled_semantic=8&num_scrambled_causal=4&num_scrambled_schematic=4&participantId=376984D943984F868B71C3942C948833&assignmentId=3fa7a09d-7e34-4c46-a7a4-5c684bd61ca6&projectId=5e631737-0fa4-44a6-b227-7ba1d7345015","376984D943984F868B71C3942C948833-2025-05-27-19-04-08","","null","","[]","null","",""
"","","","","","image-button-response","75","1027732","0.0-12.0-1.0-0.6","376984D943984F868B71C3942C948833","376984D943984F868B71C3942C948833","3fa7a09d-7e34-4c46-a7a4-5c684bd61ca6","5e631737-0fa4-44a6-b227-7ba1d7345015","{""num_scrambled_semantic"":""8"",""num_scrambled_causal"":""4"",""num_scrambled_schematic"":""4"",""participantId"":""376984D943984F868B71C3942C948833"",""assignmentId"":""3fa7a09d-7e34-4c46-a7a4-5c684bd61ca6"",""projectId"":""5e631737-0fa4-44a6-b227-7ba1d7345015""}","https://test12345.live/?num_scrambled_semantic=8&num_scrambled_causal=4&num_scrambled_schematic=4&participantId=376984D943984F868B71C3942C948833&assignmentId=3fa7a09d-7e34-4c46-a7a4-5c684bd61ca6&projectId=5e631737-0fa4-44a6-b227-7ba1d7345015","376984D943984F868B71C3942C948833-2025-05-27-19-04-08","","null","","images/semantic_sequence/creative_activities_semantic/creative_activities_semantic_7.png","null","",""
"","","","","","image-button-response","76","1029003","0.0-12.0-1.0-1.6","376984D943984F868B71C3942C948833","376984D943984F868B71C3942C948833","3fa7a09d-7e34-4c46-a7a4-5c684bd61ca6","5e631737-0fa4-44a6-b227-7ba1d7345015","{""num_scrambled_semantic"":""8"",""num_scrambled_causal"":""4"",""num_scrambled_schematic"":""4"",""participantId"":""376984D943984F868B71C3942C948833"",""assignmentId"":""3fa7a09d-7e34-4c46-a7a4-5c684bd61ca6"",""projectId"":""5e631737-0fa4-44a6-b227-7ba1d7345015""}","https://test12345.live/?num_scrambled_semantic=8&num_scrambled_causal=4&num_scrambled_schematic=4&participantId=376984D943984F868B71C3942C948833&assignmentId=3fa7a09d-7e34-4c46-a7a4-5c684bd61ca6&projectId=5e631737-0fa4-44a6-b227-7ba1d7345015","376984D943984F868B71C3942C948833-2025-05-27-19-04-08","","1270","","images/semantic_sequence/creative_activities_semantic/creative_activities_semantic_7.png","0","",""
"","","","","","image-button-response","77","1030815","0.0-12.0-1.0-2.6","376984D943984F868B71C3942C948833","376984D943984F868B71C3942C948833","3fa7a09d-7e34-4c46-a7a4-5c684bd61ca6","5e631737-0fa4-44a6-b227-7ba1d7345015","{""num_scrambled_semantic"":""8"",""num_scrambled_causal"":""4"",""num_scrambled_schematic"":""4"",""participantId"":""376984D943984F868B71C3942C948833"",""assignmentId"":""3fa7a09d-7e34-4c46-a7a4-5c684bd61ca6"",""projectId"":""5e631737-0fa4-44a6-b227-7ba1d7345015""}","https://test12345.live/?num_scrambled_semantic=8&num_scrambled_causal=4&num_scrambled_schematic=4&participantId=376984D943984F868B71C3942C948833&assignmentId=3fa7a09d-7e34-4c46-a7a4-5c684bd61ca6&projectId=5e631737-0fa4-44a6-b227-7ba1d7345015","376984D943984F868B71C3942C948833-2025-05-27-19-04-08","","null","","[]","null","",""
"","","","","","image-button-response","78","1035322","0.0-12.0-1.0-0.7","376984D943984F868B71C3942C948833","376984D943984F868B71C3942C948833","3fa7a09d-7e34-4c46-a7a4-5c684bd61ca6","5e631737-0fa4-44a6-b227-7ba1d7345015","{""num_scrambled_semantic"":""8"",""num_scrambled_causal"":""4"",""num_scrambled_schematic"":""4"",""participantId"":""376984D943984F868B71C3942C948833"",""assignmentId"":""3fa7a09d-7e34-4c46-a7a4-5c684bd61ca6"",""projectId"":""5e631737-0fa4-44a6-b227-7ba1d7345015""}","https://test12345.live/?num_scrambled_semantic=8&num_scrambled_causal=4&num_scrambled_schematic=4&participantId=376984D943984F868B71C3942C948833&assignmentId=3fa7a09d-7e34-4c46-a7a4-5c684bd61ca6&projectId=5e631737-0fa4-44a6-b227-7ba1d7345015","376984D943984F868B71C3942C948833-2025-05-27-19-04-08","","null","","images/semantic_sequence/creative_activities_semantic/creative_activities_semantic_8.png","null","",""
"","","","","","image-button-response","79","1036194","0.0-12.0-1.0-1.7","376984D943984F868B71C3942C948833","376984D943984F868B71C3942C948833","3fa7a09d-7e34-4c46-a7a4-5c684bd61ca6","5e631737-0fa4-44a6-b227-7ba1d7345015","{""num_scrambled_semantic"":""8"",""num_scrambled_causal"":""4"",""num_scrambled_schematic"":""4"",""participantId"":""376984D943984F868B71C3942C948833"",""assignmentId"":""3fa7a09d-7e34-4c46-a7a4-5c684bd61ca6"",""projectId"":""5e631737-0fa4-44a6-b227-7ba1d7345015""}","https://test12345.live/?num_scrambled_semantic=8&num_scrambled_causal=4&num_scrambled_schematic=4&participantId=376984D943984F868B71C3942C948833&assignmentId=3fa7a09d-7e34-4c46-a7a4-5c684bd61ca6&projectId=5e631737-0fa4-44a6-b227-7ba1d7345015","376984D943984F868B71C3942C948833-2025-05-27-19-04-08","","872","","images/semantic_sequence/creative_activities_semantic/creative_activities_semantic_8.png","0","",""
"","","","","","image-button-response","80","1038002","0.0-12.0-1.0-2.7","376984D943984F868B71C3942C948833","376984D943984F868B71C3942C948833","3fa7a09d-7e34-4c46-a7a4-5c684bd61ca6","5e631737-0fa4-44a6-b227-7ba1d7345015","{""num_scrambled_semantic"":""8"",""num_scrambled_causal"":""4"",""num_scrambled_schematic"":""4"",""participantId"":""376984D943984F868B71C3942C948833"",""assignmentId"":""3fa7a09d-7e34-4c46-a7a4-5c684bd61ca6"",""projectId"":""5e631737-0fa4-44a6-b227-7ba1d7345015""}","https://test12345.live/?num_scrambled_semantic=8&num_scrambled_causal=4&num_scrambled_schematic=4&participantId=376984D943984F868B71C3942C948833&assignmentId=3fa7a09d-7e34-4c46-a7a4-5c684bd61ca6&projectId=5e631737-0fa4-44a6-b227-7ba1d7345015","376984D943984F868B71C3942C948833-2025-05-27-19-04-08","","null","","[]","null","",""
"","","","","","image-button-response","81","1042515","0.0-12.0-1.0-0.8","376984D943984F868B71C3942C948833","376984D943984F868B71C3942C948833","3fa7a09d-7e34-4c46-a7a4-5c684bd61ca6","5e631737-0fa4-44a6-b227-7ba1d7345015","{""num_scrambled_semantic"":""8"",""num_scrambled_causal"":""4"",""num_scrambled_schematic"":""4"",""participantId"":""376984D943984F868B71C3942C948833"",""assignmentId"":""3fa7a09d-7e34-4c46-a7a4-5c684bd61ca6"",""projectId"":""5e631737-0fa4-44a6-b227-7ba1d7345015""}","https://test12345.live/?num_scrambled_semantic=8&num_scrambled_causal=4&num_scrambled_schematic=4&participantId=376984D943984F868B71C3942C948833&assignmentId=3fa7a09d-7e34-4c46-a7a4-5c684bd61ca6&projectId=5e631737-0fa4-44a6-b227-7ba1d7345015","376984D943984F868B71C3942C948833-2025-05-27-19-04-08","","null","","images/semantic_sequence/creative_activities_semantic/creative_activities_semantic_9.png","null","",""
"","","","","","image-button-response","82","1043346","0.0-12.0-1.0-1.8","376984D943984F868B71C3942C948833","376984D943984F868B71C3942C948833","3fa7a09d-7e34-4c46-a7a4-5c684bd61ca6","5e631737-0fa4-44a6-b227-7ba1d7345015","{""num_scrambled_semantic"":""8"",""num_scrambled_causal"":""4"",""num_scrambled_schematic"":""4"",""participantId"":""376984D943984F868B71C3942C948833"",""assignmentId"":""3fa7a09d-7e34-4c46-a7a4-5c684bd61ca6"",""projectId"":""5e631737-0fa4-44a6-b227-7ba1d7345015""}","https://test12345.live/?num_scrambled_semantic=8&num_scrambled_causal=4&num_scrambled_schematic=4&participantId=376984D943984F868B71C3942C948833&assignmentId=3fa7a09d-7e34-4c46-a7a4-5c684bd61ca6&projectId=5e631737-0fa4-44a6-b227-7ba1d7345015","376984D943984F868B71C3942C948833-2025-05-27-19-04-08","","830","","images/semantic_sequence/creative_activities_semantic/creative_activities_semantic_9.png","1","",""
"","","","","","image-button-response","83","1045156","0.0-12.0-1.0-2.8","376984D943984F868B71C3942C948833","376984D943984F868B71C3942C948833","3fa7a09d-7e34-4c46-a7a4-5c684bd61ca6","5e631737-0fa4-44a6-b227-7ba1d7345015","{""num_scrambled_semantic"":""8"",""num_scrambled_causal"":""4"",""num_scrambled_schematic"":""4"",""participantId"":""376984D943984F868B71C3942C948833"",""assignmentId"":""3fa7a09d-7e34-4c46-a7a4-5c684bd61ca6"",""projectId"":""5e631737-0fa4-44a6-b227-7ba1d7345015""}","https://test12345.live/?num_scrambled_semantic=8&num_scrambled_causal=4&num_scrambled_schematic=4&participantId=376984D943984F868B71C3942C948833&assignmentId=3fa7a09d-7e34-4c46-a7a4-5c684bd61ca6&projectId=5e631737-0fa4-44a6-b227-7ba1d7345015","376984D943984F868B71C3942C948833-2025-05-27-19-04-08","","null","","[]","null","",""
"","","","","","image-button-response","84","1049662","0.0-12.0-1.0-0.9","376984D943984F868B71C3942C948833","376984D943984F868B71C3942C948833","3fa7a09d-7e34-4c46-a7a4-5c684bd61ca6","5e631737-0fa4-44a6-b227-7ba1d7345015","{""num_scrambled_semantic"":""8"",""num_scrambled_causal"":""4"",""num_scrambled_schematic"":""4"",""participantId"":""376984D943984F868B71C3942C948833"",""assignmentId"":""3fa7a09d-7e34-4c46-a7a4-5c684bd61ca6"",""projectId"":""5e631737-0fa4-44a6-b227-7ba1d7345015""}","https://test12345.live/?num_scrambled_semantic=8&num_scrambled_causal=4&num_scrambled_schematic=4&participantId=376984D943984F868B71C3942C948833&assignmentId=3fa7a09d-7e34-4c46-a7a4-5c684bd61ca6&projectId=5e631737-0fa4-44a6-b227-7ba1d7345015","376984D943984F868B71C3942C948833-2025-05-27-19-04-08","","null","","images/semantic_sequence/creative_activities_semantic/creative_activities_semantic_ten.png","null","",""
"","","","","","image-button-response","85","1050226","0.0-12.0-1.0-1.9","376984D943984F868B71C3942C948833","376984D943984F868B71C3942C948833","3fa7a09d-7e34-4c46-a7a4-5c684bd61ca6","5e631737-0fa4-44a6-b227-7ba1d7345015","{""num_scrambled_semantic"":""8"",""num_scrambled_causal"":""4"",""num_scrambled_schematic"":""4"",""participantId"":""376984D943984F868B71C3942C948833"",""assignmentId"":""3fa7a09d-7e34-4c46-a7a4-5c684bd61ca6"",""projectId"":""5e631737-0fa4-44a6-b227-7ba1d7345015""}","https://test12345.live/?num_scrambled_semantic=8&num_scrambled_causal=4&num_scrambled_schematic=4&participantId=376984D943984F868B71C3942C948833&assignmentId=3fa7a09d-7e34-4c46-a7a4-5c684bd61ca6&projectId=5e631737-0fa4-44a6-b227-7ba1d7345015","376984D943984F868B71C3942C948833-2025-05-27-19-04-08","","563","","images/semantic_sequence/creative_activities_semantic/creative_activities_semantic_ten.png","0","",""
"","","","","","image-button-response","86","1052028","0.0-12.0-1.0-2.9","376984D943984F868B71C3942C948833","376984D943984F868B71C3942C948833","3fa7a09d-7e34-4c46-a7a4-5c684bd61ca6","5e631737-0fa4-44a6-b227-7ba1d7345015","{""num_scrambled_semantic"":""8"",""num_scrambled_causal"":""4"",""num_scrambled_schematic"":""4"",""participantId"":""376984D943984F868B71C3942C948833"",""assignmentId"":""3fa7a09d-7e34-4c46-a7a4-5c684bd61ca6"",""projectId"":""5e631737-0fa4-44a6-b227-7ba1d7345015""}","https://test12345.live/?num_scrambled_semantic=8&num_scrambled_causal=4&num_scrambled_schematic=4&participantId=376984D943984F868B71C3942C948833&assignmentId=3fa7a09d-7e34-4c46-a7a4-5c684bd61ca6&projectId=5e631737-0fa4-44a6-b227-7ba1d7345015","376984D943984F868B71C3942C948833-2025-05-27-19-04-08","","null","","[]","null","",""
"","","","","","html-audio-response","87","1149698","0.0-13.0","376984D943984F868B71C3942C948833","376984D943984F868B71C3942C948833","3fa7a09d-7e34-4c46-a7a4-5c684bd61ca6","5e631737-0fa4-44a6-b227-7ba1d7345015","{""num_scrambled_semantic"":""8"",""num_scrambled_causal"":""4"",""num_scrambled_schematic"":""4"",""participantId"":""376984D943984F868B71C3942C948833"",""assignmentId"":""3fa7a09d-7e34-4c46-a7a4-5c684bd61ca6"",""projectId"":""5e631737-0fa4-44a6-b227-7ba1d7345015""}","https://test12345.live/?num_scrambled_semantic=8&num_scrambled_causal=4&num_scrambled_schematic=4&participantId=376984D943984F868B71C3942C948833&assignmentId=3fa7a09d-7e34-4c46-a7a4-5c684bd61ca6&projectId=5e631737-0fa4-44a6-b227-7ba1d7345015","376984D943984F868B71C3942C948833-2025-05-27-19-04-08","","47566","","[""<span style=\""color: red; font-size: 24px\""> NOW RECORDING</span><p>Please say out loud all the images you saw, in the exact order you saw them. Try to recall as many images as you can, but remember: getting the order right is more important than the number of images you recall.</p>""]","","2","creative_activities_semantic"
"","","","","","image-button-response","88","1155714","0.0-14.0-0.0","376984D943984F868B71C3942C948833","376984D943984F868B71C3942C948833","3fa7a09d-7e34-4c46-a7a4-5c684bd61ca6","5e631737-0fa4-44a6-b227-7ba1d7345015","{""num_scrambled_semantic"":""8"",""num_scrambled_causal"":""4"",""num_scrambled_schematic"":""4"",""participantId"":""376984D943984F868B71C3942C948833"",""assignmentId"":""3fa7a09d-7e34-4c46-a7a4-5c684bd61ca6"",""projectId"":""5e631737-0fa4-44a6-b227-7ba1d7345015""}","https://test12345.live/?num_scrambled_semantic=8&num_scrambled_causal=4&num_scrambled_schematic=4&participantId=376984D943984F868B71C3942C948833&assignmentId=3fa7a09d-7e34-4c46-a7a4-5c684bd61ca6&projectId=5e631737-0fa4-44a6-b227-7ba1d7345015","376984D943984F868B71C3942C948833-2025-05-27-19-04-08","","null","","images/semantic_sequence/redecorating_semantic/redecorating_semantic_0.png","null","",""
"","","","","","image-button-response","89","1160217","0.0-14.0-1.0-0.0","376984D943984F868B71C3942C948833","376984D943984F868B71C3942C948833","3fa7a09d-7e34-4c46-a7a4-5c684bd61ca6","5e631737-0fa4-44a6-b227-7ba1d7345015","{""num_scrambled_semantic"":""8"",""num_scrambled_causal"":""4"",""num_scrambled_schematic"":""4"",""participantId"":""376984D943984F868B71C3942C948833"",""assignmentId"":""3fa7a09d-7e34-4c46-a7a4-5c684bd61ca6"",""projectId"":""5e631737-0fa4-44a6-b227-7ba1d7345015""}","https://test12345.live/?num_scrambled_semantic=8&num_scrambled_causal=4&num_scrambled_schematic=4&participantId=376984D943984F868B71C3942C948833&assignmentId=3fa7a09d-7e34-4c46-a7a4-5c684bd61ca6&projectId=5e631737-0fa4-44a6-b227-7ba1d7345015","376984D943984F868B71C3942C948833-2025-05-27-19-04-08","","null","","images/semantic_sequence/redecorating_semantic/redecorating_semantic_9.png","null","",""
"","","","","","image-button-response","90","1162066","0.0-14.0-1.0-1.0","376984D943984F868B71C3942C948833","376984D943984F868B71C3942C948833","3fa7a09d-7e34-4c46-a7a4-5c684bd61ca6","5e631737-0fa4-44a6-b227-7ba1d7345015","{""num_scrambled_semantic"":""8"",""num_scrambled_causal"":""4"",""num_scrambled_schematic"":""4"",""participantId"":""376984D943984F868B71C3942C948833"",""assignmentId"":""3fa7a09d-7e34-4c46-a7a4-5c684bd61ca6"",""projectId"":""5e631737-0fa4-44a6-b227-7ba1d7345015""}","https://test12345.live/?num_scrambled_semantic=8&num_scrambled_causal=4&num_scrambled_schematic=4&participantId=376984D943984F868B71C3942C948833&assignmentId=3fa7a09d-7e34-4c46-a7a4-5c684bd61ca6&projectId=5e631737-0fa4-44a6-b227-7ba1d7345015","376984D943984F868B71C3942C948833-2025-05-27-19-04-08","","1848","","images/semantic_sequence/redecorating_semantic/redecorating_semantic_9.png","0","",""
"","","","","","image-button-response","91","1163871","0.0-14.0-1.0-2.0","376984D943984F868B71C3942C948833","376984D943984F868B71C3942C948833","3fa7a09d-7e34-4c46-a7a4-5c684bd61ca6","5e631737-0fa4-44a6-b227-7ba1d7345015","{""num_scrambled_semantic"":""8"",""num_scrambled_causal"":""4"",""num_scrambled_schematic"":""4"",""participantId"":""376984D943984F868B71C3942C948833"",""assignmentId"":""3fa7a09d-7e34-4c46-a7a4-5c684bd61ca6"",""projectId"":""5e631737-0fa4-44a6-b227-7ba1d7345015""}","https://test12345.live/?num_scrambled_semantic=8&num_scrambled_causal=4&num_scrambled_schematic=4&participantId=376984D943984F868B71C3942C948833&assignmentId=3fa7a09d-7e34-4c46-a7a4-5c684bd61ca6&projectId=5e631737-0fa4-44a6-b227-7ba1d7345015","376984D943984F868B71C3942C948833-2025-05-27-19-04-08","","null","","[]","null","",""
"","","","","","image-button-response","92","1168379","0.0-14.0-1.0-0.1","376984D943984F868B71C3942C948833","376984D943984F868B71C3942C948833","3fa7a09d-7e34-4c46-a7a4-5c684bd61ca6","5e631737-0fa4-44a6-b227-7ba1d7345015","{""num_scrambled_semantic"":""8"",""num_scrambled_causal"":""4"",""num_scrambled_schematic"":""4"",""participantId"":""376984D943984F868B71C3942C948833"",""assignmentId"":""3fa7a09d-7e34-4c46-a7a4-5c684bd61ca6"",""projectId"":""5e631737-0fa4-44a6-b227-7ba1d7345015""}","https://test12345.live/?num_scrambled_semantic=8&num_scrambled_causal=4&num_scrambled_schematic=4&participantId=376984D943984F868B71C3942C948833&assignmentId=3fa7a09d-7e34-4c46-a7a4-5c684bd61ca6&projectId=5e631737-0fa4-44a6-b227-7ba1d7345015","376984D943984F868B71C3942C948833-2025-05-27-19-04-08","","null","","images/semantic_sequence/redecorating_semantic/redecorating_semantic_4.png","null","",""
"","","","","","image-button-response","93","1170508","0.0-14.0-1.0-1.1","376984D943984F868B71C3942C948833","376984D943984F868B71C3942C948833","3fa7a09d-7e34-4c46-a7a4-5c684bd61ca6","5e631737-0fa4-44a6-b227-7ba1d7345015","{""num_scrambled_semantic"":""8"",""num_scrambled_causal"":""4"",""num_scrambled_schematic"":""4"",""participantId"":""376984D943984F868B71C3942C948833"",""assignmentId"":""3fa7a09d-7e34-4c46-a7a4-5c684bd61ca6"",""projectId"":""5e631737-0fa4-44a6-b227-7ba1d7345015""}","https://test12345.live/?num_scrambled_semantic=8&num_scrambled_causal=4&num_scrambled_schematic=4&participantId=376984D943984F868B71C3942C948833&assignmentId=3fa7a09d-7e34-4c46-a7a4-5c684bd61ca6&projectId=5e631737-0fa4-44a6-b227-7ba1d7345015","376984D943984F868B71C3942C948833-2025-05-27-19-04-08","","2128","","images/semantic_sequence/redecorating_semantic/redecorating_semantic_4.png","0","",""
"","","","","","image-button-response","94","1172321","0.0-14.0-1.0-2.1","376984D943984F868B71C3942C948833","376984D943984F868B71C3942C948833","3fa7a09d-7e34-4c46-a7a4-5c684bd61ca6","5e631737-0fa4-44a6-b227-7ba1d7345015","{""num_scrambled_semantic"":""8"",""num_scrambled_causal"":""4"",""num_scrambled_schematic"":""4"",""participantId"":""376984D943984F868B71C3942C948833"",""assignmentId"":""3fa7a09d-7e34-4c46-a7a4-5c684bd61ca6"",""projectId"":""5e631737-0fa4-44a6-b227-7ba1d7345015""}","https://test12345.live/?num_scrambled_semantic=8&num_scrambled_causal=4&num_scrambled_schematic=4&participantId=376984D943984F868B71C3942C948833&assignmentId=3fa7a09d-7e34-4c46-a7a4-5c684bd61ca6&projectId=5e631737-0fa4-44a6-b227-7ba1d7345015","376984D943984F868B71C3942C948833-2025-05-27-19-04-08","","null","","[]","null","",""
"","","","","","image-button-response","95","1176835","0.0-14.0-1.0-0.2","376984D943984F868B71C3942C948833","376984D943984F868B71C3942C948833","3fa7a09d-7e34-4c46-a7a4-5c684bd61ca6","5e631737-0fa4-44a6-b227-7ba1d7345015","{""num_scrambled_semantic"":""8"",""num_scrambled_causal"":""4"",""num_scrambled_schematic"":""4"",""participantId"":""376984D943984F868B71C3942C948833"",""assignmentId"":""3fa7a09d-7e34-4c46-a7a4-5c684bd61ca6"",""projectId"":""5e631737-0fa4-44a6-b227-7ba1d7345015""}","https://test12345.live/?num_scrambled_semantic=8&num_scrambled_causal=4&num_scrambled_schematic=4&participantId=376984D943984F868B71C3942C948833&assignmentId=3fa7a09d-7e34-4c46-a7a4-5c684bd61ca6&projectId=5e631737-0fa4-44a6-b227-7ba1d7345015","376984D943984F868B71C3942C948833-2025-05-27-19-04-08","","null","","images/semantic_sequence/redecorating_semantic/redecorating_semantic_5.png","null","",""
"","","","","","image-button-response","96","1178362","0.0-14.0-1.0-1.2","376984D943984F868B71C3942C948833","376984D943984F868B71C3942C948833","3fa7a09d-7e34-4c46-a7a4-5c684bd61ca6","5e631737-0fa4-44a6-b227-7ba1d7345015","{""num_scrambled_semantic"":""8"",""num_scrambled_causal"":""4"",""num_scrambled_schematic"":""4"",""participantId"":""376984D943984F868B71C3942C948833"",""assignmentId"":""3fa7a09d-7e34-4c46-a7a4-5c684bd61ca6"",""projectId"":""5e631737-0fa4-44a6-b227-7ba1d7345015""}","https://test12345.live/?num_scrambled_semantic=8&num_scrambled_causal=4&num_scrambled_schematic=4&participantId=376984D943984F868B71C3942C948833&assignmentId=3fa7a09d-7e34-4c46-a7a4-5c684bd61ca6&projectId=5e631737-0fa4-44a6-b227-7ba1d7345015","376984D943984F868B71C3942C948833-2025-05-27-19-04-08","","1526","","images/semantic_sequence/redecorating_semantic/redecorating_semantic_5.png","0","",""
"","","","","","image-button-response","97","1180167","0.0-14.0-1.0-2.2","376984D943984F868B71C3942C948833","376984D943984F868B71C3942C948833","3fa7a09d-7e34-4c46-a7a4-5c684bd61ca6","5e631737-0fa4-44a6-b227-7ba1d7345015","{""num_scrambled_semantic"":""8"",""num_scrambled_causal"":""4"",""num_scrambled_schematic"":""4"",""participantId"":""376984D943984F868B71C3942C948833"",""assignmentId"":""3fa7a09d-7e34-4c46-a7a4-5c684bd61ca6"",""projectId"":""5e631737-0fa4-44a6-b227-7ba1d7345015""}","https://test12345.live/?num_scrambled_semantic=8&num_scrambled_causal=4&num_scrambled_schematic=4&participantId=376984D943984F868B71C3942C948833&assignmentId=3fa7a09d-7e34-4c46-a7a4-5c684bd61ca6&projectId=5e631737-0fa4-44a6-b227-7ba1d7345015","376984D943984F868B71C3942C948833-2025-05-27-19-04-08","","null","","[]","null","",""
"","","","","","image-button-response","98","1184684","0.0-14.0-1.0-0.3","376984D943984F868B71C3942C948833","376984D943984F868B71C3942C948833","3fa7a09d-7e34-4c46-a7a4-5c684bd61ca6","5e631737-0fa4-44a6-b227-7ba1d7345015","{""num_scrambled_semantic"":""8"",""num_scrambled_causal"":""4"",""num_scrambled_schematic"":""4"",""participantId"":""376984D943984F868B71C3942C948833"",""assignmentId"":""3fa7a09d-7e34-4c46-a7a4-5c684bd61ca6"",""projectId"":""5e631737-0fa4-44a6-b227-7ba1d7345015""}","https://test12345.live/?num_scrambled_semantic=8&num_scrambled_causal=4&num_scrambled_schematic=4&participantId=376984D943984F868B71C3942C948833&assignmentId=3fa7a09d-7e34-4c46-a7a4-5c684bd61ca6&projectId=5e631737-0fa4-44a6-b227-7ba1d7345015","376984D943984F868B71C3942C948833-2025-05-27-19-04-08","","null","","images/semantic_sequence/redecorating_semantic/redecorating_semantic_6.png","null","",""
"","","","","","image-button-response","99","1185986","0.0-14.0-1.0-1.3","376984D943984F868B71C3942C948833","376984D943984F868B71C3942C948833","3fa7a09d-7e34-4c46-a7a4-5c684bd61ca6","5e631737-0fa4-44a6-b227-7ba1d7345015","{""num_scrambled_semantic"":""8"",""num_scrambled_causal"":""4"",""num_scrambled_schematic"":""4"",""participantId"":""376984D943984F868B71C3942C948833"",""assignmentId"":""3fa7a09d-7e34-4c46-a7a4-5c684bd61ca6"",""projectId"":""5e631737-0fa4-44a6-b227-7ba1d7345015""}","https://test12345.live/?num_scrambled_semantic=8&num_scrambled_causal=4&num_scrambled_schematic=4&participantId=376984D943984F868B71C3942C948833&assignmentId=3fa7a09d-7e34-4c46-a7a4-5c684bd61ca6&projectId=5e631737-0fa4-44a6-b227-7ba1d7345015","376984D943984F868B71C3942C948833-2025-05-27-19-04-08","","1301","","images/semantic_sequence/redecorating_semantic/redecorating_semantic_6.png","0","",""
"","","","","","image-button-response","100","1187787","0.0-14.0-1.0-2.3","376984D943984F868B71C3942C948833","376984D943984F868B71C3942C948833","3fa7a09d-7e34-4c46-a7a4-5c684bd61ca6","5e631737-0fa4-44a6-b227-7ba1d7345015","{""num_scrambled_semantic"":""8"",""num_scrambled_causal"":""4"",""num_scrambled_schematic"":""4"",""participantId"":""376984D943984F868B71C3942C948833"",""assignmentId"":""3fa7a09d-7e34-4c46-a7a4-5c684bd61ca6"",""projectId"":""5e631737-0fa4-44a6-b227-7ba1d7345015""}","https://test12345.live/?num_scrambled_semantic=8&num_scrambled_causal=4&num_scrambled_schematic=4&participantId=376984D943984F868B71C3942C948833&assignmentId=3fa7a09d-7e34-4c46-a7a4-5c684bd61ca6&projectId=5e631737-0fa4-44a6-b227-7ba1d7345015","376984D943984F868B71C3942C948833-2025-05-27-19-04-08","","null","","[]","null","",""
"","","","","","image-button-response","101","1192305","0.0-14.0-1.0-0.4","376984D943984F868B71C3942C948833","376984D943984F868B71C3942C948833","3fa7a09d-7e34-4c46-a7a4-5c684bd61ca6","5e631737-0fa4-44a6-b227-7ba1d7345015","{""num_scrambled_semantic"":""8"",""num_scrambled_causal"":""4"",""num_scrambled_schematic"":""4"",""participantId"":""376984D943984F868B71C3942C948833"",""assignmentId"":""3fa7a09d-7e34-4c46-a7a4-5c684bd61ca6"",""projectId"":""5e631737-0fa4-44a6-b227-7ba1d7345015""}","https://test12345.live/?num_scrambled_semantic=8&num_scrambled_causal=4&num_scrambled_schematic=4&participantId=376984D943984F868B71C3942C948833&assignmentId=3fa7a09d-7e34-4c46-a7a4-5c684bd61ca6&projectId=5e631737-0fa4-44a6-b227-7ba1d7345015","376984D943984F868B71C3942C948833-2025-05-27-19-04-08","","null","","images/semantic_sequence/redecorating_semantic/redecorating_semantic_ten.png","null","",""
"","","","","","image-button-response","102","1193370","0.0-14.0-1.0-1.4","376984D943984F868B71C3942C948833","376984D943984F868B71C3942C948833","3fa7a09d-7e34-4c46-a7a4-5c684bd61ca6","5e631737-0fa4-44a6-b227-7ba1d7345015","{""num_scrambled_semantic"":""8"",""num_scrambled_causal"":""4"",""num_scrambled_schematic"":""4"",""participantId"":""376984D943984F868B71C3942C948833"",""assignmentId"":""3fa7a09d-7e34-4c46-a7a4-5c684bd61ca6"",""projectId"":""5e631737-0fa4-44a6-b227-7ba1d7345015""}","https://test12345.live/?num_scrambled_semantic=8&num_scrambled_causal=4&num_scrambled_schematic=4&participantId=376984D943984F868B71C3942C948833&assignmentId=3fa7a09d-7e34-4c46-a7a4-5c684bd61ca6&projectId=5e631737-0fa4-44a6-b227-7ba1d7345015","376984D943984F868B71C3942C948833-2025-05-27-19-04-08","","1063","","images/semantic_sequence/redecorating_semantic/redecorating_semantic_ten.png","0","",""
"","","","","","image-button-response","103","1195175","0.0-14.0-1.0-2.4","376984D943984F868B71C3942C948833","376984D943984F868B71C3942C948833","3fa7a09d-7e34-4c46-a7a4-5c684bd61ca6","5e631737-0fa4-44a6-b227-7ba1d7345015","{""num_scrambled_semantic"":""8"",""num_scrambled_causal"":""4"",""num_scrambled_schematic"":""4"",""participantId"":""376984D943984F868B71C3942C948833"",""assignmentId"":""3fa7a09d-7e34-4c46-a7a4-5c684bd61ca6"",""projectId"":""5e631737-0fa4-44a6-b227-7ba1d7345015""}","https://test12345.live/?num_scrambled_semantic=8&num_scrambled_causal=4&num_scrambled_schematic=4&participantId=376984D943984F868B71C3942C948833&assignmentId=3fa7a09d-7e34-4c46-a7a4-5c684bd61ca6&projectId=5e631737-0fa4-44a6-b227-7ba1d7345015","376984D943984F868B71C3942C948833-2025-05-27-19-04-08","","null","","[]","null","",""
"","","","","","image-button-response","104","1199683","0.0-14.0-1.0-0.5","376984D943984F868B71C3942C948833","376984D943984F868B71C3942C948833","3fa7a09d-7e34-4c46-a7a4-5c684bd61ca6","5e631737-0fa4-44a6-b227-7ba1d7345015","{""num_scrambled_semantic"":""8"",""num_scrambled_causal"":""4"",""num_scrambled_schematic"":""4"",""participantId"":""376984D943984F868B71C3942C948833"",""assignmentId"":""3fa7a09d-7e34-4c46-a7a4-5c684bd61ca6"",""projectId"":""5e631737-0fa4-44a6-b227-7ba1d7345015""}","https://test12345.live/?num_scrambled_semantic=8&num_scrambled_causal=4&num_scrambled_schematic=4&participantId=376984D943984F868B71C3942C948833&assignmentId=3fa7a09d-7e34-4c46-a7a4-5c684bd61ca6&projectId=5e631737-0fa4-44a6-b227-7ba1d7345015","376984D943984F868B71C3942C948833-2025-05-27-19-04-08","","null","","images/semantic_sequence/redecorating_semantic/redecorating_semantic_1.png","null","",""
"","","","","","image-button-response","105","1201258","0.0-14.0-1.0-1.5","376984D943984F868B71C3942C948833","376984D943984F868B71C3942C948833","3fa7a09d-7e34-4c46-a7a4-5c684bd61ca6","5e631737-0fa4-44a6-b227-7ba1d7345015","{""num_scrambled_semantic"":""8"",""num_scrambled_causal"":""4"",""num_scrambled_schematic"":""4"",""participantId"":""376984D943984F868B71C3942C948833"",""assignmentId"":""3fa7a09d-7e34-4c46-a7a4-5c684bd61ca6"",""projectId"":""5e631737-0fa4-44a6-b227-7ba1d7345015""}","https://test12345.live/?num_scrambled_semantic=8&num_scrambled_causal=4&num_scrambled_schematic=4&participantId=376984D943984F868B71C3942C948833&assignmentId=3fa7a09d-7e34-4c46-a7a4-5c684bd61ca6&projectId=5e631737-0fa4-44a6-b227-7ba1d7345015","376984D943984F868B71C3942C948833-2025-05-27-19-04-08","","1573","","images/semantic_sequence/redecorating_semantic/redecorating_semantic_1.png","0","",""
"","","","","","image-button-response","106","1203068","0.0-14.0-1.0-2.5","376984D943984F868B71C3942C948833","376984D943984F868B71C3942C948833","3fa7a09d-7e34-4c46-a7a4-5c684bd61ca6","5e631737-0fa4-44a6-b227-7ba1d7345015","{""num_scrambled_semantic"":""8"",""num_scrambled_causal"":""4"",""num_scrambled_schematic"":""4"",""participantId"":""376984D943984F868B71C3942C948833"",""assignmentId"":""3fa7a09d-7e34-4c46-a7a4-5c684bd61ca6"",""projectId"":""5e631737-0fa4-44a6-b227-7ba1d7345015""}","https://test12345.live/?num_scrambled_semantic=8&num_scrambled_causal=4&num_scrambled_schematic=4&participantId=376984D943984F868B71C3942C948833&assignmentId=3fa7a09d-7e34-4c46-a7a4-5c684bd61ca6&projectId=5e631737-0fa4-44a6-b227-7ba1d7345015","376984D943984F868B71C3942C948833-2025-05-27-19-04-08","","null","","[]","null","",""
"","","","","","image-button-response","107","1207571","0.0-14.0-1.0-0.6","376984D943984F868B71C3942C948833","376984D943984F868B71C3942C948833","3fa7a09d-7e34-4c46-a7a4-5c684bd61ca6","5e631737-0fa4-44a6-b227-7ba1d7345015","{""num_scrambled_semantic"":""8"",""num_scrambled_causal"":""4"",""num_scrambled_schematic"":""4"",""participantId"":""376984D943984F868B71C3942C948833"",""assignmentId"":""3fa7a09d-7e34-4c46-a7a4-5c684bd61ca6"",""projectId"":""5e631737-0fa4-44a6-b227-7ba1d7345015""}","https://test12345.live/?num_scrambled_semantic=8&num_scrambled_causal=4&num_scrambled_schematic=4&participantId=376984D943984F868B71C3942C948833&assignmentId=3fa7a09d-7e34-4c46-a7a4-5c684bd61ca6&projectId=5e631737-0fa4-44a6-b227-7ba1d7345015","376984D943984F868B71C3942C948833-2025-05-27-19-04-08","","null","","images/semantic_sequence/redecorating_semantic/redecorating_semantic_3.png","null","",""
"","","","","","image-button-response","108","1209946","0.0-14.0-1.0-1.6","376984D943984F868B71C3942C948833","376984D943984F868B71C3942C948833","3fa7a09d-7e34-4c46-a7a4-5c684bd61ca6","5e631737-0fa4-44a6-b227-7ba1d7345015","{""num_scrambled_semantic"":""8"",""num_scrambled_causal"":""4"",""num_scrambled_schematic"":""4"",""participantId"":""376984D943984F868B71C3942C948833"",""assignmentId"":""3fa7a09d-7e34-4c46-a7a4-5c684bd61ca6"",""projectId"":""5e631737-0fa4-44a6-b227-7ba1d7345015""}","https://test12345.live/?num_scrambled_semantic=8&num_scrambled_causal=4&num_scrambled_schematic=4&participantId=376984D943984F868B71C3942C948833&assignmentId=3fa7a09d-7e34-4c46-a7a4-5c684bd61ca6&projectId=5e631737-0fa4-44a6-b227-7ba1d7345015","376984D943984F868B71C3942C948833-2025-05-27-19-04-08","","2374","","images/semantic_sequence/redecorating_semantic/redecorating_semantic_3.png","0","",""
"","","","","","image-button-response","109","1211754","0.0-14.0-1.0-2.6","376984D943984F868B71C3942C948833","376984D943984F868B71C3942C948833","3fa7a09d-7e34-4c46-a7a4-5c684bd61ca6","5e631737-0fa4-44a6-b227-7ba1d7345015","{""num_scrambled_semantic"":""8"",""num_scrambled_causal"":""4"",""num_scrambled_schematic"":""4"",""participantId"":""376984D943984F868B71C3942C948833"",""assignmentId"":""3fa7a09d-7e34-4c46-a7a4-5c684bd61ca6"",""projectId"":""5e631737-0fa4-44a6-b227-7ba1d7345015""}","https://test12345.live/?num_scrambled_semantic=8&num_scrambled_causal=4&num_scrambled_schematic=4&participantId=376984D943984F868B71C3942C948833&assignmentId=3fa7a09d-7e34-4c46-a7a4-5c684bd61ca6&projectId=5e631737-0fa4-44a6-b227-7ba1d7345015","376984D943984F868B71C3942C948833-2025-05-27-19-04-08","","null","","[]","null","",""
"","","","","","image-button-response","110","1216257","0.0-14.0-1.0-0.7","376984D943984F868B71C3942C948833","376984D943984F868B71C3942C948833","3fa7a09d-7e34-4c46-a7a4-5c684bd61ca6","5e631737-0fa4-44a6-b227-7ba1d7345015","{""num_scrambled_semantic"":""8"",""num_scrambled_causal"":""4"",""num_scrambled_schematic"":""4"",""participantId"":""376984D943984F868B71C3942C948833"",""assignmentId"":""3fa7a09d-7e34-4c46-a7a4-5c684bd61ca6"",""projectId"":""5e631737-0fa4-44a6-b227-7ba1d7345015""}","https://test12345.live/?num_scrambled_semantic=8&num_scrambled_causal=4&num_scrambled_schematic=4&participantId=376984D943984F868B71C3942C948833&assignmentId=3fa7a09d-7e34-4c46-a7a4-5c684bd61ca6&projectId=5e631737-0fa4-44a6-b227-7ba1d7345015","376984D943984F868B71C3942C948833-2025-05-27-19-04-08","","null","","images/semantic_sequence/redecorating_semantic/redecorating_semantic_7.png","null","",""
"","","","","","image-button-response","111","1218650","0.0-14.0-1.0-1.7","376984D943984F868B71C3942C948833","376984D943984F868B71C3942C948833","3fa7a09d-7e34-4c46-a7a4-5c684bd61ca6","5e631737-0fa4-44a6-b227-7ba1d7345015","{""num_scrambled_semantic"":""8"",""num_scrambled_causal"":""4"",""num_scrambled_schematic"":""4"",""participantId"":""376984D943984F868B71C3942C948833"",""assignmentId"":""3fa7a09d-7e34-4c46-a7a4-5c684bd61ca6"",""projectId"":""5e631737-0fa4-44a6-b227-7ba1d7345015""}","https://test12345.live/?num_scrambled_semantic=8&num_scrambled_causal=4&num_scrambled_schematic=4&participantId=376984D943984F868B71C3942C948833&assignmentId=3fa7a09d-7e34-4c46-a7a4-5c684bd61ca6&projectId=5e631737-0fa4-44a6-b227-7ba1d7345015","376984D943984F868B71C3942C948833-2025-05-27-19-04-08","","2392","","images/semantic_sequence/redecorating_semantic/redecorating_semantic_7.png","0","",""
"","","","","","image-button-response","112","1220455","0.0-14.0-1.0-2.7","376984D943984F868B71C3942C948833","376984D943984F868B71C3942C948833","3fa7a09d-7e34-4c46-a7a4-5c684bd61ca6","5e631737-0fa4-44a6-b227-7ba1d7345015","{""num_scrambled_semantic"":""8"",""num_scrambled_causal"":""4"",""num_scrambled_schematic"":""4"",""participantId"":""376984D943984F868B71C3942C948833"",""assignmentId"":""3fa7a09d-7e34-4c46-a7a4-5c684bd61ca6"",""projectId"":""5e631737-0fa4-44a6-b227-7ba1d7345015""}","https://test12345.live/?num_scrambled_semantic=8&num_scrambled_causal=4&num_scrambled_schematic=4&participantId=376984D943984F868B71C3942C948833&assignmentId=3fa7a09d-7e34-4c46-a7a4-5c684bd61ca6&projectId=5e631737-0fa4-44a6-b227-7ba1d7345015","376984D943984F868B71C3942C948833-2025-05-27-19-04-08","","null","","[]","null","",""
"","","","","","image-button-response","113","1224965","0.0-14.0-1.0-0.8","376984D943984F868B71C3942C948833","376984D943984F868B71C3942C948833","3fa7a09d-7e34-4c46-a7a4-5c684bd61ca6","5e631737-0fa4-44a6-b227-7ba1d7345015","{""num_scrambled_semantic"":""8"",""num_scrambled_causal"":""4"",""num_scrambled_schematic"":""4"",""participantId"":""376984D943984F868B71C3942C948833"",""assignmentId"":""3fa7a09d-7e34-4c46-a7a4-5c684bd61ca6"",""projectId"":""5e631737-0fa4-44a6-b227-7ba1d7345015""}","https://test12345.live/?num_scrambled_semantic=8&num_scrambled_causal=4&num_scrambled_schematic=4&participantId=376984D943984F868B71C3942C948833&assignmentId=3fa7a09d-7e34-4c46-a7a4-5c684bd61ca6&projectId=5e631737-0fa4-44a6-b227-7ba1d7345015","376984D943984F868B71C3942C948833-2025-05-27-19-04-08","","null","","images/semantic_sequence/redecorating_semantic/redecorating_semantic_2.png","null","",""
