"success","timeout","failed_images","failed_audio","failed_video","trial_type","trial_index","time_elapsed","internal_node_id","subject","subject_id","study_id","session_id","urlvar","current_url","audio_id","view_history","rt","device_id","stimulus","response","estimated_stimulus_onset","seq_name"
"true","false","[]","[]","[]","preload","0","7354","0.0-0.0","37DB0461F33B467E955ABB9F1EA2E2D1","37DB0461F33B467E955ABB9F1EA2E2D1","0198bce3-f5a9-7ebe-8152-5fd96fee8294","0198bbb8-fd11-701d-9147-68794ad37298","{""num_scrambled_semantic"":""8"",""num_scrambled_causal"":""4"",""num_scrambled_schematic"":""4"",""participantId"":""37DB0461F33B467E955ABB9F1EA2E2D1"",""assignmentId"":""0198bce3-f5a9-7ebe-8152-5fd96fee8294"",""projectId"":""0198bbb8-fd11-701d-9147-68794ad37298""}","https://test12345.live/?num_scrambled_semantic=8&num_scrambled_causal=4&num_scrambled_schematic=4&participantId=37DB0461F33B467E955ABB9F1EA2E2D1&assignmentId=0198bce3-f5a9-7ebe-8152-5fd96fee8294&projectId=0198bbb8-fd11-701d-9147-68794ad37298","37DB0461F33B467E955ABB9F1EA2E2D1-2025-08-18-12-11-55","","","","","","",""
"","","","","","instructions","1","12912","0.0-1.0","37DB0461F33B467E955ABB9F1EA2E2D1","37DB0461F33B467E955ABB9F1EA2E2D1","0198bce3-f5a9-7ebe-8152-5fd96fee8294","0198bbb8-fd11-701d-9147-68794ad37298","{""num_scrambled_semantic"":""8"",""num_scrambled_causal"":""4"",""num_scrambled_schematic"":""4"",""participantId"":""37DB0461F33B467E955ABB9F1EA2E2D1"",""assignmentId"":""0198bce3-f5a9-7ebe-8152-5fd96fee8294"",""projectId"":""0198bbb8-fd11-701d-9147-68794ad37298""}","https://test12345.live/?num_scrambled_semantic=8&num_scrambled_causal=4&num_scrambled_schematic=4&participantId=37DB0461F33B467E955ABB9F1EA2E2D1&assignmentId=0198bce3-f5a9-7ebe-8152-5fd96fee8294&projectId=0198bbb8-fd11-701d-9147-68794ad37298","37DB0461F33B467E955ABB9F1EA2E2D1-2025-08-18-12-11-55","[{""page_index"":0,""viewing_time"":5557}]","5557","","","","",""
"","","","","","instructions","2","15794","0.0-2.0","37DB0461F33B467E955ABB9F1EA2E2D1","37DB0461F33B467E955ABB9F1EA2E2D1","0198bce3-f5a9-7ebe-8152-5fd96fee8294","0198bbb8-fd11-701d-9147-68794ad37298","{""num_scrambled_semantic"":""8"",""num_scrambled_causal"":""4"",""num_scrambled_schematic"":""4"",""participantId"":""37DB0461F33B467E955ABB9F1EA2E2D1"",""assignmentId"":""0198bce3-f5a9-7ebe-8152-5fd96fee8294"",""projectId"":""0198bbb8-fd11-701d-9147-68794ad37298""}","https://test12345.live/?num_scrambled_semantic=8&num_scrambled_causal=4&num_scrambled_schematic=4&participantId=37DB0461F33B467E955ABB9F1EA2E2D1&assignmentId=0198bce3-f5a9-7ebe-8152-5fd96fee8294&projectId=0198bbb8-fd11-701d-9147-68794ad37298","37DB0461F33B467E955ABB9F1EA2E2D1-2025-08-18-12-11-55","[{""page_index"":0,""viewing_time"":2880}]","2880","","","","",""
"true","","","","","fullscreen","3","1240781","0.0-3.0","37DB0461F33B467E955ABB9F1EA2E2D1","37DB0461F33B467E955ABB9F1EA2E2D1","0198bce3-f5a9-7ebe-8152-5fd96fee8294","0198bbb8-fd11-701d-9147-68794ad37298","{""num_scrambled_semantic"":""8"",""num_scrambled_causal"":""4"",""num_scrambled_schematic"":""4"",""participantId"":""37DB0461F33B467E955ABB9F1EA2E2D1"",""assignmentId"":""0198bce3-f5a9-7ebe-8152-5fd96fee8294"",""projectId"":""0198bbb8-fd11-701d-9147-68794ad37298""}","https://test12345.live/?num_scrambled_semantic=8&num_scrambled_causal=4&num_scrambled_schematic=4&participantId=37DB0461F33B467E955ABB9F1EA2E2D1&assignmentId=0198bce3-f5a9-7ebe-8152-5fd96fee8294&projectId=0198bbb8-fd11-701d-9147-68794ad37298","37DB0461F33B467E955ABB9F1EA2E2D1-2025-08-18-12-11-55","","1224029","","","","",""
"","","","","","initialize-microphone","4","1265097","0.0-4.0-0.0","37DB0461F33B467E955ABB9F1EA2E2D1","37DB0461F33B467E955ABB9F1EA2E2D1","0198bce3-f5a9-7ebe-8152-5fd96fee8294","0198bbb8-fd11-701d-9147-68794ad37298","{""num_scrambled_semantic"":""8"",""num_scrambled_causal"":""4"",""num_scrambled_schematic"":""4"",""participantId"":""37DB0461F33B467E955ABB9F1EA2E2D1"",""assignmentId"":""0198bce3-f5a9-7ebe-8152-5fd96fee8294"",""projectId"":""0198bbb8-fd11-701d-9147-68794ad37298""}","https://test12345.live/?num_scrambled_semantic=8&num_scrambled_causal=4&num_scrambled_schematic=4&participantId=37DB0461F33B467E955ABB9F1EA2E2D1&assignmentId=0198bce3-f5a9-7ebe-8152-5fd96fee8294&projectId=0198bbb8-fd11-701d-9147-68794ad37298","37DB0461F33B467E955ABB9F1EA2E2D1-2025-08-18-12-11-55","","","zG+jYsmk8qrTfzTRiTRy4EUtef6VpFQmz5DOvqByeKc=","","","",""
"","","","","","html-audio-response","5","1347903","0.0-4.0-1.0","37DB0461F33B467E955ABB9F1EA2E2D1","37DB0461F33B467E955ABB9F1EA2E2D1","0198bce3-f5a9-7ebe-8152-5fd96fee8294","0198bbb8-fd11-701d-9147-68794ad37298","{""num_scrambled_semantic"":""8"",""num_scrambled_causal"":""4"",""num_scrambled_schematic"":""4"",""participantId"":""37DB0461F33B467E955ABB9F1EA2E2D1"",""assignmentId"":""0198bce3-f5a9-7ebe-8152-5fd96fee8294"",""projectId"":""0198bbb8-fd11-701d-9147-68794ad37298""}","https://test12345.live/?num_scrambled_semantic=8&num_scrambled_causal=4&num_scrambled_schematic=4&participantId=37DB0461F33B467E955ABB9F1EA2E2D1&assignmentId=0198bce3-f5a9-7ebe-8152-5fd96fee8294&projectId=0198bbb8-fd11-701d-9147-68794ad37298","37DB0461F33B467E955ABB9F1EA2E2D1-2025-08-18-12-11-55","","null","","<span style=""color: red; font-size: 24px""> NOW RECORDING</span>
        <p>Please test Microphone</p>","","2",""
"","","","","","html-button-response","6","1351200","0.0-4.0-2.0","37DB0461F33B467E955ABB9F1EA2E2D1","37DB0461F33B467E955ABB9F1EA2E2D1","0198bce3-f5a9-7ebe-8152-5fd96fee8294","0198bbb8-fd11-701d-9147-68794ad37298","{""num_scrambled_semantic"":""8"",""num_scrambled_causal"":""4"",""num_scrambled_schematic"":""4"",""participantId"":""37DB0461F33B467E955ABB9F1EA2E2D1"",""assignmentId"":""0198bce3-f5a9-7ebe-8152-5fd96fee8294"",""projectId"":""0198bbb8-fd11-701d-9147-68794ad37298""}","https://test12345.live/?num_scrambled_semantic=8&num_scrambled_causal=4&num_scrambled_schematic=4&participantId=37DB0461F33B467E955ABB9F1EA2E2D1&assignmentId=0198bce3-f5a9-7ebe-8152-5fd96fee8294&projectId=0198bbb8-fd11-701d-9147-68794ad37298","37DB0461F33B467E955ABB9F1EA2E2D1-2025-08-18-12-11-55","","3295","","<p style=""font-size:48px; color:red;"">Is Microphone OK?</p>","1","",""
"","","","","","instructions","7","1362225","0.0-5.0","37DB0461F33B467E955ABB9F1EA2E2D1","37DB0461F33B467E955ABB9F1EA2E2D1","0198bce3-f5a9-7ebe-8152-5fd96fee8294","0198bbb8-fd11-701d-9147-68794ad37298","{""num_scrambled_semantic"":""8"",""num_scrambled_causal"":""4"",""num_scrambled_schematic"":""4"",""participantId"":""37DB0461F33B467E955ABB9F1EA2E2D1"",""assignmentId"":""0198bce3-f5a9-7ebe-8152-5fd96fee8294"",""projectId"":""0198bbb8-fd11-701d-9147-68794ad37298""}","https://test12345.live/?num_scrambled_semantic=8&num_scrambled_causal=4&num_scrambled_schematic=4&participantId=37DB0461F33B467E955ABB9F1EA2E2D1&assignmentId=0198bce3-f5a9-7ebe-8152-5fd96fee8294&projectId=0198bbb8-fd11-701d-9147-68794ad37298","37DB0461F33B467E955ABB9F1EA2E2D1-2025-08-18-12-11-55","[{""page_index"":0,""viewing_time"":3886},{""page_index"":1,""viewing_time"":7137}]","11023","","","","",""
"","","","","","image-button-response","8","1368244","0.0-6.0-0.0","37DB0461F33B467E955ABB9F1EA2E2D1","37DB0461F33B467E955ABB9F1EA2E2D1","0198bce3-f5a9-7ebe-8152-5fd96fee8294","0198bbb8-fd11-701d-9147-68794ad37298","{""num_scrambled_semantic"":""8"",""num_scrambled_causal"":""4"",""num_scrambled_schematic"":""4"",""participantId"":""37DB0461F33B467E955ABB9F1EA2E2D1"",""assignmentId"":""0198bce3-f5a9-7ebe-8152-5fd96fee8294"",""projectId"":""0198bbb8-fd11-701d-9147-68794ad37298""}","https://test12345.live/?num_scrambled_semantic=8&num_scrambled_causal=4&num_scrambled_schematic=4&participantId=37DB0461F33B467E955ABB9F1EA2E2D1&assignmentId=0198bce3-f5a9-7ebe-8152-5fd96fee8294&projectId=0198bbb8-fd11-701d-9147-68794ad37298","37DB0461F33B467E955ABB9F1EA2E2D1-2025-08-18-12-11-55","","null","","images/instructions/movie_0.png","null","",""
"","","","","","image-button-response","9","1372875","0.0-6.0-1.0-0.0","37DB0461F33B467E955ABB9F1EA2E2D1","37DB0461F33B467E955ABB9F1EA2E2D1","0198bce3-f5a9-7ebe-8152-5fd96fee8294","0198bbb8-fd11-701d-9147-68794ad37298","{""num_scrambled_semantic"":""8"",""num_scrambled_causal"":""4"",""num_scrambled_schematic"":""4"",""participantId"":""37DB0461F33B467E955ABB9F1EA2E2D1"",""assignmentId"":""0198bce3-f5a9-7ebe-8152-5fd96fee8294"",""projectId"":""0198bbb8-fd11-701d-9147-68794ad37298""}","https://test12345.live/?num_scrambled_semantic=8&num_scrambled_causal=4&num_scrambled_schematic=4&participantId=37DB0461F33B467E955ABB9F1EA2E2D1&assignmentId=0198bce3-f5a9-7ebe-8152-5fd96fee8294&projectId=0198bbb8-fd11-701d-9147-68794ad37298","37DB0461F33B467E955ABB9F1EA2E2D1-2025-08-18-12-11-55","","null","","images/instructions/movie_1.png","null","",""
"","","","","","image-button-response","10","1376138","0.0-6.0-1.0-1.0","37DB0461F33B467E955ABB9F1EA2E2D1","37DB0461F33B467E955ABB9F1EA2E2D1","0198bce3-f5a9-7ebe-8152-5fd96fee8294","0198bbb8-fd11-701d-9147-68794ad37298","{""num_scrambled_semantic"":""8"",""num_scrambled_causal"":""4"",""num_scrambled_schematic"":""4"",""participantId"":""37DB0461F33B467E955ABB9F1EA2E2D1"",""assignmentId"":""0198bce3-f5a9-7ebe-8152-5fd96fee8294"",""projectId"":""0198bbb8-fd11-701d-9147-68794ad37298""}","https://test12345.live/?num_scrambled_semantic=8&num_scrambled_causal=4&num_scrambled_schematic=4&participantId=37DB0461F33B467E955ABB9F1EA2E2D1&assignmentId=0198bce3-f5a9-7ebe-8152-5fd96fee8294&projectId=0198bbb8-fd11-701d-9147-68794ad37298","37DB0461F33B467E955ABB9F1EA2E2D1-2025-08-18-12-11-55","","3261","","images/instructions/movie_1.png","0","",""
"","","","","","image-button-response","11","1386941","0.0-6.0-1.0-2.0","37DB0461F33B467E955ABB9F1EA2E2D1","37DB0461F33B467E955ABB9F1EA2E2D1","0198bce3-f5a9-7ebe-8152-5fd96fee8294","0198bbb8-fd11-701d-9147-68794ad37298","{""num_scrambled_semantic"":""8"",""num_scrambled_causal"":""4"",""num_scrambled_schematic"":""4"",""participantId"":""37DB0461F33B467E955ABB9F1EA2E2D1"",""assignmentId"":""0198bce3-f5a9-7ebe-8152-5fd96fee8294"",""projectId"":""0198bbb8-fd11-701d-9147-68794ad37298""}","https://test12345.live/?num_scrambled_semantic=8&num_scrambled_causal=4&num_scrambled_schematic=4&participantId=37DB0461F33B467E955ABB9F1EA2E2D1&assignmentId=0198bce3-f5a9-7ebe-8152-5fd96fee8294&projectId=0198bbb8-fd11-701d-9147-68794ad37298","37DB0461F33B467E955ABB9F1EA2E2D1-2025-08-18-12-11-55","","null","","[]","null","",""
"","","","","","image-button-response","12","1391511","0.0-6.0-1.0-0.1","37DB0461F33B467E955ABB9F1EA2E2D1","37DB0461F33B467E955ABB9F1EA2E2D1","0198bce3-f5a9-7ebe-8152-5fd96fee8294","0198bbb8-fd11-701d-9147-68794ad37298","{""num_scrambled_semantic"":""8"",""num_scrambled_causal"":""4"",""num_scrambled_schematic"":""4"",""participantId"":""37DB0461F33B467E955ABB9F1EA2E2D1"",""assignmentId"":""0198bce3-f5a9-7ebe-8152-5fd96fee8294"",""projectId"":""0198bbb8-fd11-701d-9147-68794ad37298""}","https://test12345.live/?num_scrambled_semantic=8&num_scrambled_causal=4&num_scrambled_schematic=4&participantId=37DB0461F33B467E955ABB9F1EA2E2D1&assignmentId=0198bce3-f5a9-7ebe-8152-5fd96fee8294&projectId=0198bbb8-fd11-701d-9147-68794ad37298","37DB0461F33B467E955ABB9F1EA2E2D1-2025-08-18-12-11-55","","null","","images/instructions/movie_2.png","null","",""
"","","","","","image-button-response","13","1395636","0.0-6.0-1.0-1.1","37DB0461F33B467E955ABB9F1EA2E2D1","37DB0461F33B467E955ABB9F1EA2E2D1","0198bce3-f5a9-7ebe-8152-5fd96fee8294","0198bbb8-fd11-701d-9147-68794ad37298","{""num_scrambled_semantic"":""8"",""num_scrambled_causal"":""4"",""num_scrambled_schematic"":""4"",""participantId"":""37DB0461F33B467E955ABB9F1EA2E2D1"",""assignmentId"":""0198bce3-f5a9-7ebe-8152-5fd96fee8294"",""projectId"":""0198bbb8-fd11-701d-9147-68794ad37298""}","https://test12345.live/?num_scrambled_semantic=8&num_scrambled_causal=4&num_scrambled_schematic=4&participantId=37DB0461F33B467E955ABB9F1EA2E2D1&assignmentId=0198bce3-f5a9-7ebe-8152-5fd96fee8294&projectId=0198bbb8-fd11-701d-9147-68794ad37298","37DB0461F33B467E955ABB9F1EA2E2D1-2025-08-18-12-11-55","","null","","images/instructions/movie_2.png","null","",""
"","","","","","image-button-response","14","1406722","0.0-6.0-1.0-2.1","37DB0461F33B467E955ABB9F1EA2E2D1","37DB0461F33B467E955ABB9F1EA2E2D1","0198bce3-f5a9-7ebe-8152-5fd96fee8294","0198bbb8-fd11-701d-9147-68794ad37298","{""num_scrambled_semantic"":""8"",""num_scrambled_causal"":""4"",""num_scrambled_schematic"":""4"",""participantId"":""37DB0461F33B467E955ABB9F1EA2E2D1"",""assignmentId"":""0198bce3-f5a9-7ebe-8152-5fd96fee8294"",""projectId"":""0198bbb8-fd11-701d-9147-68794ad37298""}","https://test12345.live/?num_scrambled_semantic=8&num_scrambled_causal=4&num_scrambled_schematic=4&participantId=37DB0461F33B467E955ABB9F1EA2E2D1&assignmentId=0198bce3-f5a9-7ebe-8152-5fd96fee8294&projectId=0198bbb8-fd11-701d-9147-68794ad37298","37DB0461F33B467E955ABB9F1EA2E2D1-2025-08-18-12-11-55","","null","","[]","null","",""
"","","","","","image-button-response","15","1411264","0.0-6.0-1.0-0.2","37DB0461F33B467E955ABB9F1EA2E2D1","37DB0461F33B467E955ABB9F1EA2E2D1","0198bce3-f5a9-7ebe-8152-5fd96fee8294","0198bbb8-fd11-701d-9147-68794ad37298","{""num_scrambled_semantic"":""8"",""num_scrambled_causal"":""4"",""num_scrambled_schematic"":""4"",""participantId"":""37DB0461F33B467E955ABB9F1EA2E2D1"",""assignmentId"":""0198bce3-f5a9-7ebe-8152-5fd96fee8294"",""projectId"":""0198bbb8-fd11-701d-9147-68794ad37298""}","https://test12345.live/?num_scrambled_semantic=8&num_scrambled_causal=4&num_scrambled_schematic=4&participantId=37DB0461F33B467E955ABB9F1EA2E2D1&assignmentId=0198bce3-f5a9-7ebe-8152-5fd96fee8294&projectId=0198bbb8-fd11-701d-9147-68794ad37298","37DB0461F33B467E955ABB9F1EA2E2D1-2025-08-18-12-11-55","","null","","images/instructions/movie_3.png","null","",""
"","","","","","image-button-response","16","1412555","0.0-6.0-1.0-1.2","37DB0461F33B467E955ABB9F1EA2E2D1","37DB0461F33B467E955ABB9F1EA2E2D1","0198bce3-f5a9-7ebe-8152-5fd96fee8294","0198bbb8-fd11-701d-9147-68794ad37298","{""num_scrambled_semantic"":""8"",""num_scrambled_causal"":""4"",""num_scrambled_schematic"":""4"",""participantId"":""37DB0461F33B467E955ABB9F1EA2E2D1"",""assignmentId"":""0198bce3-f5a9-7ebe-8152-5fd96fee8294"",""projectId"":""0198bbb8-fd11-701d-9147-68794ad37298""}","https://test12345.live/?num_scrambled_semantic=8&num_scrambled_causal=4&num_scrambled_schematic=4&participantId=37DB0461F33B467E955ABB9F1EA2E2D1&assignmentId=0198bce3-f5a9-7ebe-8152-5fd96fee8294&projectId=0198bbb8-fd11-701d-9147-68794ad37298","37DB0461F33B467E955ABB9F1EA2E2D1-2025-08-18-12-11-55","","1292","","images/instructions/movie_3.png","0","",""
"","","","","","image-button-response","17","1423360","0.0-6.0-1.0-2.2","37DB0461F33B467E955ABB9F1EA2E2D1","37DB0461F33B467E955ABB9F1EA2E2D1","0198bce3-f5a9-7ebe-8152-5fd96fee8294","0198bbb8-fd11-701d-9147-68794ad37298","{""num_scrambled_semantic"":""8"",""num_scrambled_causal"":""4"",""num_scrambled_schematic"":""4"",""participantId"":""37DB0461F33B467E955ABB9F1EA2E2D1"",""assignmentId"":""0198bce3-f5a9-7ebe-8152-5fd96fee8294"",""projectId"":""0198bbb8-fd11-701d-9147-68794ad37298""}","https://test12345.live/?num_scrambled_semantic=8&num_scrambled_causal=4&num_scrambled_schematic=4&participantId=37DB0461F33B467E955ABB9F1EA2E2D1&assignmentId=0198bce3-f5a9-7ebe-8152-5fd96fee8294&projectId=0198bbb8-fd11-701d-9147-68794ad37298","37DB0461F33B467E955ABB9F1EA2E2D1-2025-08-18-12-11-55","","null","","[]","null","",""
"","","","","","image-button-response","18","1427904","0.0-6.0-1.0-0.3","37DB0461F33B467E955ABB9F1EA2E2D1","37DB0461F33B467E955ABB9F1EA2E2D1","0198bce3-f5a9-7ebe-8152-5fd96fee8294","0198bbb8-fd11-701d-9147-68794ad37298","{""num_scrambled_semantic"":""8"",""num_scrambled_causal"":""4"",""num_scrambled_schematic"":""4"",""participantId"":""37DB0461F33B467E955ABB9F1EA2E2D1"",""assignmentId"":""0198bce3-f5a9-7ebe-8152-5fd96fee8294"",""projectId"":""0198bbb8-fd11-701d-9147-68794ad37298""}","https://test12345.live/?num_scrambled_semantic=8&num_scrambled_causal=4&num_scrambled_schematic=4&participantId=37DB0461F33B467E955ABB9F1EA2E2D1&assignmentId=0198bce3-f5a9-7ebe-8152-5fd96fee8294&projectId=0198bbb8-fd11-701d-9147-68794ad37298","37DB0461F33B467E955ABB9F1EA2E2D1-2025-08-18-12-11-55","","null","","images/instructions/movie_4.png","null","",""
"","","","","","image-button-response","19","1428920","0.0-6.0-1.0-1.3","37DB0461F33B467E955ABB9F1EA2E2D1","37DB0461F33B467E955ABB9F1EA2E2D1","0198bce3-f5a9-7ebe-8152-5fd96fee8294","0198bbb8-fd11-701d-9147-68794ad37298","{""num_scrambled_semantic"":""8"",""num_scrambled_causal"":""4"",""num_scrambled_schematic"":""4"",""participantId"":""37DB0461F33B467E955ABB9F1EA2E2D1"",""assignmentId"":""0198bce3-f5a9-7ebe-8152-5fd96fee8294"",""projectId"":""0198bbb8-fd11-701d-9147-68794ad37298""}","https://test12345.live/?num_scrambled_semantic=8&num_scrambled_causal=4&num_scrambled_schematic=4&participantId=37DB0461F33B467E955ABB9F1EA2E2D1&assignmentId=0198bce3-f5a9-7ebe-8152-5fd96fee8294&projectId=0198bbb8-fd11-701d-9147-68794ad37298","37DB0461F33B467E955ABB9F1EA2E2D1-2025-08-18-12-11-55","","1015","","images/instructions/movie_4.png","0","",""
"","","","","","image-button-response","20","1439721","0.0-6.0-1.0-2.3","37DB0461F33B467E955ABB9F1EA2E2D1","37DB0461F33B467E955ABB9F1EA2E2D1","0198bce3-f5a9-7ebe-8152-5fd96fee8294","0198bbb8-fd11-701d-9147-68794ad37298","{""num_scrambled_semantic"":""8"",""num_scrambled_causal"":""4"",""num_scrambled_schematic"":""4"",""participantId"":""37DB0461F33B467E955ABB9F1EA2E2D1"",""assignmentId"":""0198bce3-f5a9-7ebe-8152-5fd96fee8294"",""projectId"":""0198bbb8-fd11-701d-9147-68794ad37298""}","https://test12345.live/?num_scrambled_semantic=8&num_scrambled_causal=4&num_scrambled_schematic=4&participantId=37DB0461F33B467E955ABB9F1EA2E2D1&assignmentId=0198bce3-f5a9-7ebe-8152-5fd96fee8294&projectId=0198bbb8-fd11-701d-9147-68794ad37298","37DB0461F33B467E955ABB9F1EA2E2D1-2025-08-18-12-11-55","","null","","[]","null","",""
"","","","","","instructions","21","1452575","0.0-7.0","37DB0461F33B467E955ABB9F1EA2E2D1","37DB0461F33B467E955ABB9F1EA2E2D1","0198bce3-f5a9-7ebe-8152-5fd96fee8294","0198bbb8-fd11-701d-9147-68794ad37298","{""num_scrambled_semantic"":""8"",""num_scrambled_causal"":""4"",""num_scrambled_schematic"":""4"",""participantId"":""37DB0461F33B467E955ABB9F1EA2E2D1"",""assignmentId"":""0198bce3-f5a9-7ebe-8152-5fd96fee8294"",""projectId"":""0198bbb8-fd11-701d-9147-68794ad37298""}","https://test12345.live/?num_scrambled_semantic=8&num_scrambled_causal=4&num_scrambled_schematic=4&participantId=37DB0461F33B467E955ABB9F1EA2E2D1&assignmentId=0198bce3-f5a9-7ebe-8152-5fd96fee8294&projectId=0198bbb8-fd11-701d-9147-68794ad37298","37DB0461F33B467E955ABB9F1EA2E2D1-2025-08-18-12-11-55","[{""page_index"":0,""viewing_time"":11152},{""page_index"":1,""viewing_time"":1701}]","12854","","","","",""
"","","","","","html-audio-response","22","1513736","0.0-8.0","37DB0461F33B467E955ABB9F1EA2E2D1","37DB0461F33B467E955ABB9F1EA2E2D1","0198bce3-f5a9-7ebe-8152-5fd96fee8294","0198bbb8-fd11-701d-9147-68794ad37298","{""num_scrambled_semantic"":""8"",""num_scrambled_causal"":""4"",""num_scrambled_schematic"":""4"",""participantId"":""37DB0461F33B467E955ABB9F1EA2E2D1"",""assignmentId"":""0198bce3-f5a9-7ebe-8152-5fd96fee8294"",""projectId"":""0198bbb8-fd11-701d-9147-68794ad37298""}","https://test12345.live/?num_scrambled_semantic=8&num_scrambled_causal=4&num_scrambled_schematic=4&participantId=37DB0461F33B467E955ABB9F1EA2E2D1&assignmentId=0198bce3-f5a9-7ebe-8152-5fd96fee8294&projectId=0198bbb8-fd11-701d-9147-68794ad37298","37DB0461F33B467E955ABB9F1EA2E2D1-2025-08-18-12-11-55","","33439","","[""<span style=\""color: red; font-size: 24px\""> NOW RECORDING</span><p>Please say out loud all the images you saw, as many as you can remember. The images can be said in any order.</p>""]","","10",""
"","","","","","instructions","23","1525584","0.0-9.0","37DB0461F33B467E955ABB9F1EA2E2D1","37DB0461F33B467E955ABB9F1EA2E2D1","0198bce3-f5a9-7ebe-8152-5fd96fee8294","0198bbb8-fd11-701d-9147-68794ad37298","{""num_scrambled_semantic"":""8"",""num_scrambled_causal"":""4"",""num_scrambled_schematic"":""4"",""participantId"":""37DB0461F33B467E955ABB9F1EA2E2D1"",""assignmentId"":""0198bce3-f5a9-7ebe-8152-5fd96fee8294"",""projectId"":""0198bbb8-fd11-701d-9147-68794ad37298""}","https://test12345.live/?num_scrambled_semantic=8&num_scrambled_causal=4&num_scrambled_schematic=4&participantId=37DB0461F33B467E955ABB9F1EA2E2D1&assignmentId=0198bce3-f5a9-7ebe-8152-5fd96fee8294&projectId=0198bbb8-fd11-701d-9147-68794ad37298","37DB0461F33B467E955ABB9F1EA2E2D1-2025-08-18-12-11-55","[{""page_index"":0,""viewing_time"":11843}]","11843","","","","",""
"","","","","","image-button-response","24","1531602","0.0-10.0-0.0","37DB0461F33B467E955ABB9F1EA2E2D1","37DB0461F33B467E955ABB9F1EA2E2D1","0198bce3-f5a9-7ebe-8152-5fd96fee8294","0198bbb8-fd11-701d-9147-68794ad37298","{""num_scrambled_semantic"":""8"",""num_scrambled_causal"":""4"",""num_scrambled_schematic"":""4"",""participantId"":""37DB0461F33B467E955ABB9F1EA2E2D1"",""assignmentId"":""0198bce3-f5a9-7ebe-8152-5fd96fee8294"",""projectId"":""0198bbb8-fd11-701d-9147-68794ad37298""}","https://test12345.live/?num_scrambled_semantic=8&num_scrambled_causal=4&num_scrambled_schematic=4&participantId=37DB0461F33B467E955ABB9F1EA2E2D1&assignmentId=0198bce3-f5a9-7ebe-8152-5fd96fee8294&projectId=0198bbb8-fd11-701d-9147-68794ad37298","37DB0461F33B467E955ABB9F1EA2E2D1-2025-08-18-12-11-55","","null","","images/semantic_sequence/creative_activities_semantic/creative_activities_semantic_0.png","null","",""
"","","","","","image-button-response","25","1536147","0.0-10.0-1.0-0.0","37DB0461F33B467E955ABB9F1EA2E2D1","37DB0461F33B467E955ABB9F1EA2E2D1","0198bce3-f5a9-7ebe-8152-5fd96fee8294","0198bbb8-fd11-701d-9147-68794ad37298","{""num_scrambled_semantic"":""8"",""num_scrambled_causal"":""4"",""num_scrambled_schematic"":""4"",""participantId"":""37DB0461F33B467E955ABB9F1EA2E2D1"",""assignmentId"":""0198bce3-f5a9-7ebe-8152-5fd96fee8294"",""projectId"":""0198bbb8-fd11-701d-9147-68794ad37298""}","https://test12345.live/?num_scrambled_semantic=8&num_scrambled_causal=4&num_scrambled_schematic=4&participantId=37DB0461F33B467E955ABB9F1EA2E2D1&assignmentId=0198bce3-f5a9-7ebe-8152-5fd96fee8294&projectId=0198bbb8-fd11-701d-9147-68794ad37298","37DB0461F33B467E955ABB9F1EA2E2D1-2025-08-18-12-11-55","","null","","images/semantic_sequence/creative_activities_semantic/creative_activities_semantic_4.png","null","",""
"","","","","","image-button-response","26","1538312","0.0-10.0-1.0-1.0","37DB0461F33B467E955ABB9F1EA2E2D1","37DB0461F33B467E955ABB9F1EA2E2D1","0198bce3-f5a9-7ebe-8152-5fd96fee8294","0198bbb8-fd11-701d-9147-68794ad37298","{""num_scrambled_semantic"":""8"",""num_scrambled_causal"":""4"",""num_scrambled_schematic"":""4"",""participantId"":""37DB0461F33B467E955ABB9F1EA2E2D1"",""assignmentId"":""0198bce3-f5a9-7ebe-8152-5fd96fee8294"",""projectId"":""0198bbb8-fd11-701d-9147-68794ad37298""}","https://test12345.live/?num_scrambled_semantic=8&num_scrambled_causal=4&num_scrambled_schematic=4&participantId=37DB0461F33B467E955ABB9F1EA2E2D1&assignmentId=0198bce3-f5a9-7ebe-8152-5fd96fee8294&projectId=0198bbb8-fd11-701d-9147-68794ad37298","37DB0461F33B467E955ABB9F1EA2E2D1-2025-08-18-12-11-55","","2165","","images/semantic_sequence/creative_activities_semantic/creative_activities_semantic_4.png","0","",""
"","","","","","image-button-response","27","1549115","0.0-10.0-1.0-2.0","37DB0461F33B467E955ABB9F1EA2E2D1","37DB0461F33B467E955ABB9F1EA2E2D1","0198bce3-f5a9-7ebe-8152-5fd96fee8294","0198bbb8-fd11-701d-9147-68794ad37298","{""num_scrambled_semantic"":""8"",""num_scrambled_causal"":""4"",""num_scrambled_schematic"":""4"",""participantId"":""37DB0461F33B467E955ABB9F1EA2E2D1"",""assignmentId"":""0198bce3-f5a9-7ebe-8152-5fd96fee8294"",""projectId"":""0198bbb8-fd11-701d-9147-68794ad37298""}","https://test12345.live/?num_scrambled_semantic=8&num_scrambled_causal=4&num_scrambled_schematic=4&participantId=37DB0461F33B467E955ABB9F1EA2E2D1&assignmentId=0198bce3-f5a9-7ebe-8152-5fd96fee8294&projectId=0198bbb8-fd11-701d-9147-68794ad37298","37DB0461F33B467E955ABB9F1EA2E2D1-2025-08-18-12-11-55","","null","","[]","null","",""
"","","","","","image-button-response","28","1554154","0.0-10.0-1.0-0.1","37DB0461F33B467E955ABB9F1EA2E2D1","37DB0461F33B467E955ABB9F1EA2E2D1","0198bce3-f5a9-7ebe-8152-5fd96fee8294","0198bbb8-fd11-701d-9147-68794ad37298","{""num_scrambled_semantic"":""8"",""num_scrambled_causal"":""4"",""num_scrambled_schematic"":""4"",""participantId"":""37DB0461F33B467E955ABB9F1EA2E2D1"",""assignmentId"":""0198bce3-f5a9-7ebe-8152-5fd96fee8294"",""projectId"":""0198bbb8-fd11-701d-9147-68794ad37298""}","https://test12345.live/?num_scrambled_semantic=8&num_scrambled_causal=4&num_scrambled_schematic=4&participantId=37DB0461F33B467E955ABB9F1EA2E2D1&assignmentId=0198bce3-f5a9-7ebe-8152-5fd96fee8294&projectId=0198bbb8-fd11-701d-9147-68794ad37298","37DB0461F33B467E955ABB9F1EA2E2D1-2025-08-18-12-11-55","","null","","images/semantic_sequence/creative_activities_semantic/creative_activities_semantic_7.png","null","",""
"","","","","","image-button-response","29","1555015","0.0-10.0-1.0-1.1","37DB0461F33B467E955ABB9F1EA2E2D1","37DB0461F33B467E955ABB9F1EA2E2D1","0198bce3-f5a9-7ebe-8152-5fd96fee8294","0198bbb8-fd11-701d-9147-68794ad37298","{""num_scrambled_semantic"":""8"",""num_scrambled_causal"":""4"",""num_scrambled_schematic"":""4"",""participantId"":""37DB0461F33B467E955ABB9F1EA2E2D1"",""assignmentId"":""0198bce3-f5a9-7ebe-8152-5fd96fee8294"",""projectId"":""0198bbb8-fd11-701d-9147-68794ad37298""}","https://test12345.live/?num_scrambled_semantic=8&num_scrambled_causal=4&num_scrambled_schematic=4&participantId=37DB0461F33B467E955ABB9F1EA2E2D1&assignmentId=0198bce3-f5a9-7ebe-8152-5fd96fee8294&projectId=0198bbb8-fd11-701d-9147-68794ad37298","37DB0461F33B467E955ABB9F1EA2E2D1-2025-08-18-12-11-55","","860","","images/semantic_sequence/creative_activities_semantic/creative_activities_semantic_7.png","0","",""
"","","","","","image-button-response","30","1565941","0.0-10.0-1.0-2.1","37DB0461F33B467E955ABB9F1EA2E2D1","37DB0461F33B467E955ABB9F1EA2E2D1","0198bce3-f5a9-7ebe-8152-5fd96fee8294","0198bbb8-fd11-701d-9147-68794ad37298","{""num_scrambled_semantic"":""8"",""num_scrambled_causal"":""4"",""num_scrambled_schematic"":""4"",""participantId"":""37DB0461F33B467E955ABB9F1EA2E2D1"",""assignmentId"":""0198bce3-f5a9-7ebe-8152-5fd96fee8294"",""projectId"":""0198bbb8-fd11-701d-9147-68794ad37298""}","https://test12345.live/?num_scrambled_semantic=8&num_scrambled_causal=4&num_scrambled_schematic=4&participantId=37DB0461F33B467E955ABB9F1EA2E2D1&assignmentId=0198bce3-f5a9-7ebe-8152-5fd96fee8294&projectId=0198bbb8-fd11-701d-9147-68794ad37298","37DB0461F33B467E955ABB9F1EA2E2D1-2025-08-18-12-11-55","","null","","[]","null","",""
"","","","","","image-button-response","31","1570875","0.0-10.0-1.0-0.2","37DB0461F33B467E955ABB9F1EA2E2D1","37DB0461F33B467E955ABB9F1EA2E2D1","0198bce3-f5a9-7ebe-8152-5fd96fee8294","0198bbb8-fd11-701d-9147-68794ad37298","{""num_scrambled_semantic"":""8"",""num_scrambled_causal"":""4"",""num_scrambled_schematic"":""4"",""participantId"":""37DB0461F33B467E955ABB9F1EA2E2D1"",""assignmentId"":""0198bce3-f5a9-7ebe-8152-5fd96fee8294"",""projectId"":""0198bbb8-fd11-701d-9147-68794ad37298""}","https://test12345.live/?num_scrambled_semantic=8&num_scrambled_causal=4&num_scrambled_schematic=4&participantId=37DB0461F33B467E955ABB9F1EA2E2D1&assignmentId=0198bce3-f5a9-7ebe-8152-5fd96fee8294&projectId=0198bbb8-fd11-701d-9147-68794ad37298","37DB0461F33B467E955ABB9F1EA2E2D1-2025-08-18-12-11-55","","null","","images/semantic_sequence/creative_activities_semantic/creative_activities_semantic_1.png","null","",""
"","","","","","image-button-response","32","1572111","0.0-10.0-1.0-1.2","37DB0461F33B467E955ABB9F1EA2E2D1","37DB0461F33B467E955ABB9F1EA2E2D1","0198bce3-f5a9-7ebe-8152-5fd96fee8294","0198bbb8-fd11-701d-9147-68794ad37298","{""num_scrambled_semantic"":""8"",""num_scrambled_causal"":""4"",""num_scrambled_schematic"":""4"",""participantId"":""37DB0461F33B467E955ABB9F1EA2E2D1"",""assignmentId"":""0198bce3-f5a9-7ebe-8152-5fd96fee8294"",""projectId"":""0198bbb8-fd11-701d-9147-68794ad37298""}","https://test12345.live/?num_scrambled_semantic=8&num_scrambled_causal=4&num_scrambled_schematic=4&participantId=37DB0461F33B467E955ABB9F1EA2E2D1&assignmentId=0198bce3-f5a9-7ebe-8152-5fd96fee8294&projectId=0198bbb8-fd11-701d-9147-68794ad37298","37DB0461F33B467E955ABB9F1EA2E2D1-2025-08-18-12-11-55","","1235","","images/semantic_sequence/creative_activities_semantic/creative_activities_semantic_1.png","0","",""
"","","","","","image-button-response","33","1583147","0.0-10.0-1.0-2.2","37DB0461F33B467E955ABB9F1EA2E2D1","37DB0461F33B467E955ABB9F1EA2E2D1","0198bce3-f5a9-7ebe-8152-5fd96fee8294","0198bbb8-fd11-701d-9147-68794ad37298","{""num_scrambled_semantic"":""8"",""num_scrambled_causal"":""4"",""num_scrambled_schematic"":""4"",""participantId"":""37DB0461F33B467E955ABB9F1EA2E2D1"",""assignmentId"":""0198bce3-f5a9-7ebe-8152-5fd96fee8294"",""projectId"":""0198bbb8-fd11-701d-9147-68794ad37298""}","https://test12345.live/?num_scrambled_semantic=8&num_scrambled_causal=4&num_scrambled_schematic=4&participantId=37DB0461F33B467E955ABB9F1EA2E2D1&assignmentId=0198bce3-f5a9-7ebe-8152-5fd96fee8294&projectId=0198bbb8-fd11-701d-9147-68794ad37298","37DB0461F33B467E955ABB9F1EA2E2D1-2025-08-18-12-11-55","","null","","[]","null","",""
"","","","","","image-button-response","34","1588183","0.0-10.0-1.0-0.3","37DB0461F33B467E955ABB9F1EA2E2D1","37DB0461F33B467E955ABB9F1EA2E2D1","0198bce3-f5a9-7ebe-8152-5fd96fee8294","0198bbb8-fd11-701d-9147-68794ad37298","{""num_scrambled_semantic"":""8"",""num_scrambled_causal"":""4"",""num_scrambled_schematic"":""4"",""participantId"":""37DB0461F33B467E955ABB9F1EA2E2D1"",""assignmentId"":""0198bce3-f5a9-7ebe-8152-5fd96fee8294"",""projectId"":""0198bbb8-fd11-701d-9147-68794ad37298""}","https://test12345.live/?num_scrambled_semantic=8&num_scrambled_causal=4&num_scrambled_schematic=4&participantId=37DB0461F33B467E955ABB9F1EA2E2D1&assignmentId=0198bce3-f5a9-7ebe-8152-5fd96fee8294&projectId=0198bbb8-fd11-701d-9147-68794ad37298","37DB0461F33B467E955ABB9F1EA2E2D1-2025-08-18-12-11-55","","null","","images/semantic_sequence/creative_activities_semantic/creative_activities_semantic_5.png","null","",""
"","","","","","image-button-response","35","1589466","0.0-10.0-1.0-1.3","37DB0461F33B467E955ABB9F1EA2E2D1","37DB0461F33B467E955ABB9F1EA2E2D1","0198bce3-f5a9-7ebe-8152-5fd96fee8294","0198bbb8-fd11-701d-9147-68794ad37298","{""num_scrambled_semantic"":""8"",""num_scrambled_causal"":""4"",""num_scrambled_schematic"":""4"",""participantId"":""37DB0461F33B467E955ABB9F1EA2E2D1"",""assignmentId"":""0198bce3-f5a9-7ebe-8152-5fd96fee8294"",""projectId"":""0198bbb8-fd11-701d-9147-68794ad37298""}","https://test12345.live/?num_scrambled_semantic=8&num_scrambled_causal=4&num_scrambled_schematic=4&participantId=37DB0461F33B467E955ABB9F1EA2E2D1&assignmentId=0198bce3-f5a9-7ebe-8152-5fd96fee8294&projectId=0198bbb8-fd11-701d-9147-68794ad37298","37DB0461F33B467E955ABB9F1EA2E2D1-2025-08-18-12-11-55","","1282","","images/semantic_sequence/creative_activities_semantic/creative_activities_semantic_5.png","0","",""
"","","","","","image-button-response","36","1600269","0.0-10.0-1.0-2.3","37DB0461F33B467E955ABB9F1EA2E2D1","37DB0461F33B467E955ABB9F1EA2E2D1","0198bce3-f5a9-7ebe-8152-5fd96fee8294","0198bbb8-fd11-701d-9147-68794ad37298","{""num_scrambled_semantic"":""8"",""num_scrambled_causal"":""4"",""num_scrambled_schematic"":""4"",""participantId"":""37DB0461F33B467E955ABB9F1EA2E2D1"",""assignmentId"":""0198bce3-f5a9-7ebe-8152-5fd96fee8294"",""projectId"":""0198bbb8-fd11-701d-9147-68794ad37298""}","https://test12345.live/?num_scrambled_semantic=8&num_scrambled_causal=4&num_scrambled_schematic=4&participantId=37DB0461F33B467E955ABB9F1EA2E2D1&assignmentId=0198bce3-f5a9-7ebe-8152-5fd96fee8294&projectId=0198bbb8-fd11-701d-9147-68794ad37298","37DB0461F33B467E955ABB9F1EA2E2D1-2025-08-18-12-11-55","","null","","[]","null","",""
"","","","","","image-button-response","37","1604806","0.0-10.0-1.0-0.4","37DB0461F33B467E955ABB9F1EA2E2D1","37DB0461F33B467E955ABB9F1EA2E2D1","0198bce3-f5a9-7ebe-8152-5fd96fee8294","0198bbb8-fd11-701d-9147-68794ad37298","{""num_scrambled_semantic"":""8"",""num_scrambled_causal"":""4"",""num_scrambled_schematic"":""4"",""participantId"":""37DB0461F33B467E955ABB9F1EA2E2D1"",""assignmentId"":""0198bce3-f5a9-7ebe-8152-5fd96fee8294"",""projectId"":""0198bbb8-fd11-701d-9147-68794ad37298""}","https://test12345.live/?num_scrambled_semantic=8&num_scrambled_causal=4&num_scrambled_schematic=4&participantId=37DB0461F33B467E955ABB9F1EA2E2D1&assignmentId=0198bce3-f5a9-7ebe-8152-5fd96fee8294&projectId=0198bbb8-fd11-701d-9147-68794ad37298","37DB0461F33B467E955ABB9F1EA2E2D1-2025-08-18-12-11-55","","null","","images/semantic_sequence/creative_activities_semantic/creative_activities_semantic_8.png","null","",""
"","","","","","image-button-response","38","1606199","0.0-10.0-1.0-1.4","37DB0461F33B467E955ABB9F1EA2E2D1","37DB0461F33B467E955ABB9F1EA2E2D1","0198bce3-f5a9-7ebe-8152-5fd96fee8294","0198bbb8-fd11-701d-9147-68794ad37298","{""num_scrambled_semantic"":""8"",""num_scrambled_causal"":""4"",""num_scrambled_schematic"":""4"",""participantId"":""37DB0461F33B467E955ABB9F1EA2E2D1"",""assignmentId"":""0198bce3-f5a9-7ebe-8152-5fd96fee8294"",""projectId"":""0198bbb8-fd11-701d-9147-68794ad37298""}","https://test12345.live/?num_scrambled_semantic=8&num_scrambled_causal=4&num_scrambled_schematic=4&participantId=37DB0461F33B467E955ABB9F1EA2E2D1&assignmentId=0198bce3-f5a9-7ebe-8152-5fd96fee8294&projectId=0198bbb8-fd11-701d-9147-68794ad37298","37DB0461F33B467E955ABB9F1EA2E2D1-2025-08-18-12-11-55","","1394","","images/semantic_sequence/creative_activities_semantic/creative_activities_semantic_8.png","0","",""
"","","","","","image-button-response","39","1617006","0.0-10.0-1.0-2.4","37DB0461F33B467E955ABB9F1EA2E2D1","37DB0461F33B467E955ABB9F1EA2E2D1","0198bce3-f5a9-7ebe-8152-5fd96fee8294","0198bbb8-fd11-701d-9147-68794ad37298","{""num_scrambled_semantic"":""8"",""num_scrambled_causal"":""4"",""num_scrambled_schematic"":""4"",""participantId"":""37DB0461F33B467E955ABB9F1EA2E2D1"",""assignmentId"":""0198bce3-f5a9-7ebe-8152-5fd96fee8294"",""projectId"":""0198bbb8-fd11-701d-9147-68794ad37298""}","https://test12345.live/?num_scrambled_semantic=8&num_scrambled_causal=4&num_scrambled_schematic=4&participantId=37DB0461F33B467E955ABB9F1EA2E2D1&assignmentId=0198bce3-f5a9-7ebe-8152-5fd96fee8294&projectId=0198bbb8-fd11-701d-9147-68794ad37298","37DB0461F33B467E955ABB9F1EA2E2D1-2025-08-18-12-11-55","","null","","[]","null","",""
"","","","","","image-button-response","40","1621547","0.0-10.0-1.0-0.5","37DB0461F33B467E955ABB9F1EA2E2D1","37DB0461F33B467E955ABB9F1EA2E2D1","0198bce3-f5a9-7ebe-8152-5fd96fee8294","0198bbb8-fd11-701d-9147-68794ad37298","{""num_scrambled_semantic"":""8"",""num_scrambled_causal"":""4"",""num_scrambled_schematic"":""4"",""participantId"":""37DB0461F33B467E955ABB9F1EA2E2D1"",""assignmentId"":""0198bce3-f5a9-7ebe-8152-5fd96fee8294"",""projectId"":""0198bbb8-fd11-701d-9147-68794ad37298""}","https://test12345.live/?num_scrambled_semantic=8&num_scrambled_causal=4&num_scrambled_schematic=4&participantId=37DB0461F33B467E955ABB9F1EA2E2D1&assignmentId=0198bce3-f5a9-7ebe-8152-5fd96fee8294&projectId=0198bbb8-fd11-701d-9147-68794ad37298","37DB0461F33B467E955ABB9F1EA2E2D1-2025-08-18-12-11-55","","null","","images/semantic_sequence/creative_activities_semantic/creative_activities_semantic_ten.png","null","",""
"","","","","","image-button-response","41","1623755","0.0-10.0-1.0-1.5","37DB0461F33B467E955ABB9F1EA2E2D1","37DB0461F33B467E955ABB9F1EA2E2D1","0198bce3-f5a9-7ebe-8152-5fd96fee8294","0198bbb8-fd11-701d-9147-68794ad37298","{""num_scrambled_semantic"":""8"",""num_scrambled_causal"":""4"",""num_scrambled_schematic"":""4"",""participantId"":""37DB0461F33B467E955ABB9F1EA2E2D1"",""assignmentId"":""0198bce3-f5a9-7ebe-8152-5fd96fee8294"",""projectId"":""0198bbb8-fd11-701d-9147-68794ad37298""}","https://test12345.live/?num_scrambled_semantic=8&num_scrambled_causal=4&num_scrambled_schematic=4&participantId=37DB0461F33B467E955ABB9F1EA2E2D1&assignmentId=0198bce3-f5a9-7ebe-8152-5fd96fee8294&projectId=0198bbb8-fd11-701d-9147-68794ad37298","37DB0461F33B467E955ABB9F1EA2E2D1-2025-08-18-12-11-55","","2207","","images/semantic_sequence/creative_activities_semantic/creative_activities_semantic_ten.png","0","",""
"","","","","","image-button-response","42","1634559","0.0-10.0-1.0-2.5","37DB0461F33B467E955ABB9F1EA2E2D1","37DB0461F33B467E955ABB9F1EA2E2D1","0198bce3-f5a9-7ebe-8152-5fd96fee8294","0198bbb8-fd11-701d-9147-68794ad37298","{""num_scrambled_semantic"":""8"",""num_scrambled_causal"":""4"",""num_scrambled_schematic"":""4"",""participantId"":""37DB0461F33B467E955ABB9F1EA2E2D1"",""assignmentId"":""0198bce3-f5a9-7ebe-8152-5fd96fee8294"",""projectId"":""0198bbb8-fd11-701d-9147-68794ad37298""}","https://test12345.live/?num_scrambled_semantic=8&num_scrambled_causal=4&num_scrambled_schematic=4&participantId=37DB0461F33B467E955ABB9F1EA2E2D1&assignmentId=0198bce3-f5a9-7ebe-8152-5fd96fee8294&projectId=0198bbb8-fd11-701d-9147-68794ad37298","37DB0461F33B467E955ABB9F1EA2E2D1-2025-08-18-12-11-55","","null","","[]","null","",""
"","","","","","image-button-response","43","1639089","0.0-10.0-1.0-0.6","37DB0461F33B467E955ABB9F1EA2E2D1","37DB0461F33B467E955ABB9F1EA2E2D1","0198bce3-f5a9-7ebe-8152-5fd96fee8294","0198bbb8-fd11-701d-9147-68794ad37298","{""num_scrambled_semantic"":""8"",""num_scrambled_causal"":""4"",""num_scrambled_schematic"":""4"",""participantId"":""37DB0461F33B467E955ABB9F1EA2E2D1"",""assignmentId"":""0198bce3-f5a9-7ebe-8152-5fd96fee8294"",""projectId"":""0198bbb8-fd11-701d-9147-68794ad37298""}","https://test12345.live/?num_scrambled_semantic=8&num_scrambled_causal=4&num_scrambled_schematic=4&participantId=37DB0461F33B467E955ABB9F1EA2E2D1&assignmentId=0198bce3-f5a9-7ebe-8152-5fd96fee8294&projectId=0198bbb8-fd11-701d-9147-68794ad37298","37DB0461F33B467E955ABB9F1EA2E2D1-2025-08-18-12-11-55","","null","","images/semantic_sequence/creative_activities_semantic/creative_activities_semantic_6.png","null","",""
"","","","","","image-button-response","44","1641957","0.0-10.0-1.0-1.6","37DB0461F33B467E955ABB9F1EA2E2D1","37DB0461F33B467E955ABB9F1EA2E2D1","0198bce3-f5a9-7ebe-8152-5fd96fee8294","0198bbb8-fd11-701d-9147-68794ad37298","{""num_scrambled_semantic"":""8"",""num_scrambled_causal"":""4"",""num_scrambled_schematic"":""4"",""participantId"":""37DB0461F33B467E955ABB9F1EA2E2D1"",""assignmentId"":""0198bce3-f5a9-7ebe-8152-5fd96fee8294"",""projectId"":""0198bbb8-fd11-701d-9147-68794ad37298""}","https://test12345.live/?num_scrambled_semantic=8&num_scrambled_causal=4&num_scrambled_schematic=4&participantId=37DB0461F33B467E955ABB9F1EA2E2D1&assignmentId=0198bce3-f5a9-7ebe-8152-5fd96fee8294&projectId=0198bbb8-fd11-701d-9147-68794ad37298","37DB0461F33B467E955ABB9F1EA2E2D1-2025-08-18-12-11-55","","2867","","images/semantic_sequence/creative_activities_semantic/creative_activities_semantic_6.png","0","",""
"","","","","","image-button-response","45","1652762","0.0-10.0-1.0-2.6","37DB0461F33B467E955ABB9F1EA2E2D1","37DB0461F33B467E955ABB9F1EA2E2D1","0198bce3-f5a9-7ebe-8152-5fd96fee8294","0198bbb8-fd11-701d-9147-68794ad37298","{""num_scrambled_semantic"":""8"",""num_scrambled_causal"":""4"",""num_scrambled_schematic"":""4"",""participantId"":""37DB0461F33B467E955ABB9F1EA2E2D1"",""assignmentId"":""0198bce3-f5a9-7ebe-8152-5fd96fee8294"",""projectId"":""0198bbb8-fd11-701d-9147-68794ad37298""}","https://test12345.live/?num_scrambled_semantic=8&num_scrambled_causal=4&num_scrambled_schematic=4&participantId=37DB0461F33B467E955ABB9F1EA2E2D1&assignmentId=0198bce3-f5a9-7ebe-8152-5fd96fee8294&projectId=0198bbb8-fd11-701d-9147-68794ad37298","37DB0461F33B467E955ABB9F1EA2E2D1-2025-08-18-12-11-55","","null","","[]","null","",""
"","","","","","image-button-response","46","1657435","0.0-10.0-1.0-0.7","37DB0461F33B467E955ABB9F1EA2E2D1","37DB0461F33B467E955ABB9F1EA2E2D1","0198bce3-f5a9-7ebe-8152-5fd96fee8294","0198bbb8-fd11-701d-9147-68794ad37298","{""num_scrambled_semantic"":""8"",""num_scrambled_causal"":""4"",""num_scrambled_schematic"":""4"",""participantId"":""37DB0461F33B467E955ABB9F1EA2E2D1"",""assignmentId"":""0198bce3-f5a9-7ebe-8152-5fd96fee8294"",""projectId"":""0198bbb8-fd11-701d-9147-68794ad37298""}","https://test12345.live/?num_scrambled_semantic=8&num_scrambled_causal=4&num_scrambled_schematic=4&participantId=37DB0461F33B467E955ABB9F1EA2E2D1&assignmentId=0198bce3-f5a9-7ebe-8152-5fd96fee8294&projectId=0198bbb8-fd11-701d-9147-68794ad37298","37DB0461F33B467E955ABB9F1EA2E2D1-2025-08-18-12-11-55","","null","","images/semantic_sequence/creative_activities_semantic/creative_activities_semantic_9.png","null","",""
"","","","","","image-button-response","47","1658781","0.0-10.0-1.0-1.7","37DB0461F33B467E955ABB9F1EA2E2D1","37DB0461F33B467E955ABB9F1EA2E2D1","0198bce3-f5a9-7ebe-8152-5fd96fee8294","0198bbb8-fd11-701d-9147-68794ad37298","{""num_scrambled_semantic"":""8"",""num_scrambled_causal"":""4"",""num_scrambled_schematic"":""4"",""participantId"":""37DB0461F33B467E955ABB9F1EA2E2D1"",""assignmentId"":""0198bce3-f5a9-7ebe-8152-5fd96fee8294"",""projectId"":""0198bbb8-fd11-701d-9147-68794ad37298""}","https://test12345.live/?num_scrambled_semantic=8&num_scrambled_causal=4&num_scrambled_schematic=4&participantId=37DB0461F33B467E955ABB9F1EA2E2D1&assignmentId=0198bce3-f5a9-7ebe-8152-5fd96fee8294&projectId=0198bbb8-fd11-701d-9147-68794ad37298","37DB0461F33B467E955ABB9F1EA2E2D1-2025-08-18-12-11-55","","1345","","images/semantic_sequence/creative_activities_semantic/creative_activities_semantic_9.png","0","",""
"","","","","","image-button-response","48","1669585","0.0-10.0-1.0-2.7","37DB0461F33B467E955ABB9F1EA2E2D1","37DB0461F33B467E955ABB9F1EA2E2D1","0198bce3-f5a9-7ebe-8152-5fd96fee8294","0198bbb8-fd11-701d-9147-68794ad37298","{""num_scrambled_semantic"":""8"",""num_scrambled_causal"":""4"",""num_scrambled_schematic"":""4"",""participantId"":""37DB0461F33B467E955ABB9F1EA2E2D1"",""assignmentId"":""0198bce3-f5a9-7ebe-8152-5fd96fee8294"",""projectId"":""0198bbb8-fd11-701d-9147-68794ad37298""}","https://test12345.live/?num_scrambled_semantic=8&num_scrambled_causal=4&num_scrambled_schematic=4&participantId=37DB0461F33B467E955ABB9F1EA2E2D1&assignmentId=0198bce3-f5a9-7ebe-8152-5fd96fee8294&projectId=0198bbb8-fd11-701d-9147-68794ad37298","37DB0461F33B467E955ABB9F1EA2E2D1-2025-08-18-12-11-55","","null","","[]","null","",""
"","","","","","image-button-response","49","1674123","0.0-10.0-1.0-0.8","37DB0461F33B467E955ABB9F1EA2E2D1","37DB0461F33B467E955ABB9F1EA2E2D1","0198bce3-f5a9-7ebe-8152-5fd96fee8294","0198bbb8-fd11-701d-9147-68794ad37298","{""num_scrambled_semantic"":""8"",""num_scrambled_causal"":""4"",""num_scrambled_schematic"":""4"",""participantId"":""37DB0461F33B467E955ABB9F1EA2E2D1"",""assignmentId"":""0198bce3-f5a9-7ebe-8152-5fd96fee8294"",""projectId"":""0198bbb8-fd11-701d-9147-68794ad37298""}","https://test12345.live/?num_scrambled_semantic=8&num_scrambled_causal=4&num_scrambled_schematic=4&participantId=37DB0461F33B467E955ABB9F1EA2E2D1&assignmentId=0198bce3-f5a9-7ebe-8152-5fd96fee8294&projectId=0198bbb8-fd11-701d-9147-68794ad37298","37DB0461F33B467E955ABB9F1EA2E2D1-2025-08-18-12-11-55","","null","","images/semantic_sequence/creative_activities_semantic/creative_activities_semantic_3.png","null","",""
"","","","","","image-button-response","50","1675196","0.0-10.0-1.0-1.8","37DB0461F33B467E955ABB9F1EA2E2D1","37DB0461F33B467E955ABB9F1EA2E2D1","0198bce3-f5a9-7ebe-8152-5fd96fee8294","0198bbb8-fd11-701d-9147-68794ad37298","{""num_scrambled_semantic"":""8"",""num_scrambled_causal"":""4"",""num_scrambled_schematic"":""4"",""participantId"":""37DB0461F33B467E955ABB9F1EA2E2D1"",""assignmentId"":""0198bce3-f5a9-7ebe-8152-5fd96fee8294"",""projectId"":""0198bbb8-fd11-701d-9147-68794ad37298""}","https://test12345.live/?num_scrambled_semantic=8&num_scrambled_causal=4&num_scrambled_schematic=4&participantId=37DB0461F33B467E955ABB9F1EA2E2D1&assignmentId=0198bce3-f5a9-7ebe-8152-5fd96fee8294&projectId=0198bbb8-fd11-701d-9147-68794ad37298","37DB0461F33B467E955ABB9F1EA2E2D1-2025-08-18-12-11-55","","1072","","images/semantic_sequence/creative_activities_semantic/creative_activities_semantic_3.png","0","",""
"","","","","","image-button-response","51","1686001","0.0-10.0-1.0-2.8","37DB0461F33B467E955ABB9F1EA2E2D1","37DB0461F33B467E955ABB9F1EA2E2D1","0198bce3-f5a9-7ebe-8152-5fd96fee8294","0198bbb8-fd11-701d-9147-68794ad37298","{""num_scrambled_semantic"":""8"",""num_scrambled_causal"":""4"",""num_scrambled_schematic"":""4"",""participantId"":""37DB0461F33B467E955ABB9F1EA2E2D1"",""assignmentId"":""0198bce3-f5a9-7ebe-8152-5fd96fee8294"",""projectId"":""0198bbb8-fd11-701d-9147-68794ad37298""}","https://test12345.live/?num_scrambled_semantic=8&num_scrambled_causal=4&num_scrambled_schematic=4&participantId=37DB0461F33B467E955ABB9F1EA2E2D1&assignmentId=0198bce3-f5a9-7ebe-8152-5fd96fee8294&projectId=0198bbb8-fd11-701d-9147-68794ad37298","37DB0461F33B467E955ABB9F1EA2E2D1-2025-08-18-12-11-55","","null","","[]","null","",""
"","","","","","image-button-response","52","1691030","0.0-10.0-1.0-0.9","37DB0461F33B467E955ABB9F1EA2E2D1","37DB0461F33B467E955ABB9F1EA2E2D1","0198bce3-f5a9-7ebe-8152-5fd96fee8294","0198bbb8-fd11-701d-9147-68794ad37298","{""num_scrambled_semantic"":""8"",""num_scrambled_causal"":""4"",""num_scrambled_schematic"":""4"",""participantId"":""37DB0461F33B467E955ABB9F1EA2E2D1"",""assignmentId"":""0198bce3-f5a9-7ebe-8152-5fd96fee8294"",""projectId"":""0198bbb8-fd11-701d-9147-68794ad37298""}","https://test12345.live/?num_scrambled_semantic=8&num_scrambled_causal=4&num_scrambled_schematic=4&participantId=37DB0461F33B467E955ABB9F1EA2E2D1&assignmentId=0198bce3-f5a9-7ebe-8152-5fd96fee8294&projectId=0198bbb8-fd11-701d-9147-68794ad37298","37DB0461F33B467E955ABB9F1EA2E2D1-2025-08-18-12-11-55","","null","","images/semantic_sequence/creative_activities_semantic/creative_activities_semantic_2.png","null","",""
"","","","","","image-button-response","53","1692179","0.0-10.0-1.0-1.9","37DB0461F33B467E955ABB9F1EA2E2D1","37DB0461F33B467E955ABB9F1EA2E2D1","0198bce3-f5a9-7ebe-8152-5fd96fee8294","0198bbb8-fd11-701d-9147-68794ad37298","{""num_scrambled_semantic"":""8"",""num_scrambled_causal"":""4"",""num_scrambled_schematic"":""4"",""participantId"":""37DB0461F33B467E955ABB9F1EA2E2D1"",""assignmentId"":""0198bce3-f5a9-7ebe-8152-5fd96fee8294"",""projectId"":""0198bbb8-fd11-701d-9147-68794ad37298""}","https://test12345.live/?num_scrambled_semantic=8&num_scrambled_causal=4&num_scrambled_schematic=4&participantId=37DB0461F33B467E955ABB9F1EA2E2D1&assignmentId=0198bce3-f5a9-7ebe-8152-5fd96fee8294&projectId=0198bbb8-fd11-701d-9147-68794ad37298","37DB0461F33B467E955ABB9F1EA2E2D1-2025-08-18-12-11-55","","1148","","images/semantic_sequence/creative_activities_semantic/creative_activities_semantic_2.png","0","",""
"","","","","","image-button-response","54","1702984","0.0-10.0-1.0-2.9","37DB0461F33B467E955ABB9F1EA2E2D1","37DB0461F33B467E955ABB9F1EA2E2D1","0198bce3-f5a9-7ebe-8152-5fd96fee8294","0198bbb8-fd11-701d-9147-68794ad37298","{""num_scrambled_semantic"":""8"",""num_scrambled_causal"":""4"",""num_scrambled_schematic"":""4"",""participantId"":""37DB0461F33B467E955ABB9F1EA2E2D1"",""assignmentId"":""0198bce3-f5a9-7ebe-8152-5fd96fee8294"",""projectId"":""0198bbb8-fd11-701d-9147-68794ad37298""}","https://test12345.live/?num_scrambled_semantic=8&num_scrambled_causal=4&num_scrambled_schematic=4&participantId=37DB0461F33B467E955ABB9F1EA2E2D1&assignmentId=0198bce3-f5a9-7ebe-8152-5fd96fee8294&projectId=0198bbb8-fd11-701d-9147-68794ad37298","37DB0461F33B467E955ABB9F1EA2E2D1-2025-08-18-12-11-55","","null","","[]","null","",""
"","","","","","html-audio-response","55","1755784","0.0-11.0","37DB0461F33B467E955ABB9F1EA2E2D1","37DB0461F33B467E955ABB9F1EA2E2D1","0198bce3-f5a9-7ebe-8152-5fd96fee8294","0198bbb8-fd11-701d-9147-68794ad37298","{""num_scrambled_semantic"":""8"",""num_scrambled_causal"":""4"",""num_scrambled_schematic"":""4"",""participantId"":""37DB0461F33B467E955ABB9F1EA2E2D1"",""assignmentId"":""0198bce3-f5a9-7ebe-8152-5fd96fee8294"",""projectId"":""0198bbb8-fd11-701d-9147-68794ad37298""}","https://test12345.live/?num_scrambled_semantic=8&num_scrambled_causal=4&num_scrambled_schematic=4&participantId=37DB0461F33B467E955ABB9F1EA2E2D1&assignmentId=0198bce3-f5a9-7ebe-8152-5fd96fee8294&projectId=0198bbb8-fd11-701d-9147-68794ad37298","37DB0461F33B467E955ABB9F1EA2E2D1-2025-08-18-12-11-55","","51315","","[""<span style=\""color: red; font-size: 24px\""> NOW RECORDING</span><p>Please say out loud all the images you saw, as many as you can remember. The images can be said in any order.</p>""]","","2","creative_activities_semantic"
"","","","","","image-button-response","56","1761807","0.0-12.0-0.0","37DB0461F33B467E955ABB9F1EA2E2D1","37DB0461F33B467E955ABB9F1EA2E2D1","0198bce3-f5a9-7ebe-8152-5fd96fee8294","0198bbb8-fd11-701d-9147-68794ad37298","{""num_scrambled_semantic"":""8"",""num_scrambled_causal"":""4"",""num_scrambled_schematic"":""4"",""participantId"":""37DB0461F33B467E955ABB9F1EA2E2D1"",""assignmentId"":""0198bce3-f5a9-7ebe-8152-5fd96fee8294"",""projectId"":""0198bbb8-fd11-701d-9147-68794ad37298""}","https://test12345.live/?num_scrambled_semantic=8&num_scrambled_causal=4&num_scrambled_schematic=4&participantId=37DB0461F33B467E955ABB9F1EA2E2D1&assignmentId=0198bce3-f5a9-7ebe-8152-5fd96fee8294&projectId=0198bbb8-fd11-701d-9147-68794ad37298","37DB0461F33B467E955ABB9F1EA2E2D1-2025-08-18-12-11-55","","null","","images/semantic_sequence/redecorating_semantic/redecorating_semantic_0.png","null","",""
"","","","","","image-button-response","57","1766340","0.0-12.0-1.0-0.0","37DB0461F33B467E955ABB9F1EA2E2D1","37DB0461F33B467E955ABB9F1EA2E2D1","0198bce3-f5a9-7ebe-8152-5fd96fee8294","0198bbb8-fd11-701d-9147-68794ad37298","{""num_scrambled_semantic"":""8"",""num_scrambled_causal"":""4"",""num_scrambled_schematic"":""4"",""participantId"":""37DB0461F33B467E955ABB9F1EA2E2D1"",""assignmentId"":""0198bce3-f5a9-7ebe-8152-5fd96fee8294"",""projectId"":""0198bbb8-fd11-701d-9147-68794ad37298""}","https://test12345.live/?num_scrambled_semantic=8&num_scrambled_causal=4&num_scrambled_schematic=4&participantId=37DB0461F33B467E955ABB9F1EA2E2D1&assignmentId=0198bce3-f5a9-7ebe-8152-5fd96fee8294&projectId=0198bbb8-fd11-701d-9147-68794ad37298","37DB0461F33B467E955ABB9F1EA2E2D1-2025-08-18-12-11-55","","null","","images/semantic_sequence/redecorating_semantic/redecorating_semantic_9.png","null","",""
"","","","","","image-button-response","58","1770358","0.0-12.0-1.0-1.0","37DB0461F33B467E955ABB9F1EA2E2D1","37DB0461F33B467E955ABB9F1EA2E2D1","0198bce3-f5a9-7ebe-8152-5fd96fee8294","0198bbb8-fd11-701d-9147-68794ad37298","{""num_scrambled_semantic"":""8"",""num_scrambled_causal"":""4"",""num_scrambled_schematic"":""4"",""participantId"":""37DB0461F33B467E955ABB9F1EA2E2D1"",""assignmentId"":""0198bce3-f5a9-7ebe-8152-5fd96fee8294"",""projectId"":""0198bbb8-fd11-701d-9147-68794ad37298""}","https://test12345.live/?num_scrambled_semantic=8&num_scrambled_causal=4&num_scrambled_schematic=4&participantId=37DB0461F33B467E955ABB9F1EA2E2D1&assignmentId=0198bce3-f5a9-7ebe-8152-5fd96fee8294&projectId=0198bbb8-fd11-701d-9147-68794ad37298","37DB0461F33B467E955ABB9F1EA2E2D1-2025-08-18-12-11-55","","null","","images/semantic_sequence/redecorating_semantic/redecorating_semantic_9.png","null","",""
"","","","","","image-button-response","59","1781161","0.0-12.0-1.0-2.0","37DB0461F33B467E955ABB9F1EA2E2D1","37DB0461F33B467E955ABB9F1EA2E2D1","0198bce3-f5a9-7ebe-8152-5fd96fee8294","0198bbb8-fd11-701d-9147-68794ad37298","{""num_scrambled_semantic"":""8"",""num_scrambled_causal"":""4"",""num_scrambled_schematic"":""4"",""participantId"":""37DB0461F33B467E955ABB9F1EA2E2D1"",""assignmentId"":""0198bce3-f5a9-7ebe-8152-5fd96fee8294"",""projectId"":""0198bbb8-fd11-701d-9147-68794ad37298""}","https://test12345.live/?num_scrambled_semantic=8&num_scrambled_causal=4&num_scrambled_schematic=4&participantId=37DB0461F33B467E955ABB9F1EA2E2D1&assignmentId=0198bce3-f5a9-7ebe-8152-5fd96fee8294&projectId=0198bbb8-fd11-701d-9147-68794ad37298","37DB0461F33B467E955ABB9F1EA2E2D1-2025-08-18-12-11-55","","null","","[]","null","",""
"","","","","","image-button-response","60","1785687","0.0-12.0-1.0-0.1","37DB0461F33B467E955ABB9F1EA2E2D1","37DB0461F33B467E955ABB9F1EA2E2D1","0198bce3-f5a9-7ebe-8152-5fd96fee8294","0198bbb8-fd11-701d-9147-68794ad37298","{""num_scrambled_semantic"":""8"",""num_scrambled_causal"":""4"",""num_scrambled_schematic"":""4"",""participantId"":""37DB0461F33B467E955ABB9F1EA2E2D1"",""assignmentId"":""0198bce3-f5a9-7ebe-8152-5fd96fee8294"",""projectId"":""0198bbb8-fd11-701d-9147-68794ad37298""}","https://test12345.live/?num_scrambled_semantic=8&num_scrambled_causal=4&num_scrambled_schematic=4&participantId=37DB0461F33B467E955ABB9F1EA2E2D1&assignmentId=0198bce3-f5a9-7ebe-8152-5fd96fee8294&projectId=0198bbb8-fd11-701d-9147-68794ad37298","37DB0461F33B467E955ABB9F1EA2E2D1-2025-08-18-12-11-55","","null","","images/semantic_sequence/redecorating_semantic/redecorating_semantic_1.png","null","",""
"","","","","","image-button-response","61","1786637","0.0-12.0-1.0-1.1","37DB0461F33B467E955ABB9F1EA2E2D1","37DB0461F33B467E955ABB9F1EA2E2D1","0198bce3-f5a9-7ebe-8152-5fd96fee8294","0198bbb8-fd11-701d-9147-68794ad37298","{""num_scrambled_semantic"":""8"",""num_scrambled_causal"":""4"",""num_scrambled_schematic"":""4"",""participantId"":""37DB0461F33B467E955ABB9F1EA2E2D1"",""assignmentId"":""0198bce3-f5a9-7ebe-8152-5fd96fee8294"",""projectId"":""0198bbb8-fd11-701d-9147-68794ad37298""}","https://test12345.live/?num_scrambled_semantic=8&num_scrambled_causal=4&num_scrambled_schematic=4&participantId=37DB0461F33B467E955ABB9F1EA2E2D1&assignmentId=0198bce3-f5a9-7ebe-8152-5fd96fee8294&projectId=0198bbb8-fd11-701d-9147-68794ad37298","37DB0461F33B467E955ABB9F1EA2E2D1-2025-08-18-12-11-55","","950","","images/semantic_sequence/redecorating_semantic/redecorating_semantic_1.png","0","",""
"","","","","","image-button-response","62","1797442","0.0-12.0-1.0-2.1","37DB0461F33B467E955ABB9F1EA2E2D1","37DB0461F33B467E955ABB9F1EA2E2D1","0198bce3-f5a9-7ebe-8152-5fd96fee8294","0198bbb8-fd11-701d-9147-68794ad37298","{""num_scrambled_semantic"":""8"",""num_scrambled_causal"":""4"",""num_scrambled_schematic"":""4"",""participantId"":""37DB0461F33B467E955ABB9F1EA2E2D1"",""assignmentId"":""0198bce3-f5a9-7ebe-8152-5fd96fee8294"",""projectId"":""0198bbb8-fd11-701d-9147-68794ad37298""}","https://test12345.live/?num_scrambled_semantic=8&num_scrambled_causal=4&num_scrambled_schematic=4&participantId=37DB0461F33B467E955ABB9F1EA2E2D1&assignmentId=0198bce3-f5a9-7ebe-8152-5fd96fee8294&projectId=0198bbb8-fd11-701d-9147-68794ad37298","37DB0461F33B467E955ABB9F1EA2E2D1-2025-08-18-12-11-55","","null","","[]","null","",""
"","","","","","image-button-response","63","1801971","0.0-12.0-1.0-0.2","37DB0461F33B467E955ABB9F1EA2E2D1","37DB0461F33B467E955ABB9F1EA2E2D1","0198bce3-f5a9-7ebe-8152-5fd96fee8294","0198bbb8-fd11-701d-9147-68794ad37298","{""num_scrambled_semantic"":""8"",""num_scrambled_causal"":""4"",""num_scrambled_schematic"":""4"",""participantId"":""37DB0461F33B467E955ABB9F1EA2E2D1"",""assignmentId"":""0198bce3-f5a9-7ebe-8152-5fd96fee8294"",""projectId"":""0198bbb8-fd11-701d-9147-68794ad37298""}","https://test12345.live/?num_scrambled_semantic=8&num_scrambled_causal=4&num_scrambled_schematic=4&participantId=37DB0461F33B467E955ABB9F1EA2E2D1&assignmentId=0198bce3-f5a9-7ebe-8152-5fd96fee8294&projectId=0198bbb8-fd11-701d-9147-68794ad37298","37DB0461F33B467E955ABB9F1EA2E2D1-2025-08-18-12-11-55","","null","","images/semantic_sequence/redecorating_semantic/redecorating_semantic_8.png","null","",""
"","","","","","image-button-response","64","1802941","0.0-12.0-1.0-1.2","37DB0461F33B467E955ABB9F1EA2E2D1","37DB0461F33B467E955ABB9F1EA2E2D1","0198bce3-f5a9-7ebe-8152-5fd96fee8294","0198bbb8-fd11-701d-9147-68794ad37298","{""num_scrambled_semantic"":""8"",""num_scrambled_causal"":""4"",""num_scrambled_schematic"":""4"",""participantId"":""37DB0461F33B467E955ABB9F1EA2E2D1"",""assignmentId"":""0198bce3-f5a9-7ebe-8152-5fd96fee8294"",""projectId"":""0198bbb8-fd11-701d-9147-68794ad37298""}","https://test12345.live/?num_scrambled_semantic=8&num_scrambled_causal=4&num_scrambled_schematic=4&participantId=37DB0461F33B467E955ABB9F1EA2E2D1&assignmentId=0198bce3-f5a9-7ebe-8152-5fd96fee8294&projectId=0198bbb8-fd11-701d-9147-68794ad37298","37DB0461F33B467E955ABB9F1EA2E2D1-2025-08-18-12-11-55","","970","","images/semantic_sequence/redecorating_semantic/redecorating_semantic_8.png","0","",""
"","","","","","image-button-response","65","1813743","0.0-12.0-1.0-2.2","37DB0461F33B467E955ABB9F1EA2E2D1","37DB0461F33B467E955ABB9F1EA2E2D1","0198bce3-f5a9-7ebe-8152-5fd96fee8294","0198bbb8-fd11-701d-9147-68794ad37298","{""num_scrambled_semantic"":""8"",""num_scrambled_causal"":""4"",""num_scrambled_schematic"":""4"",""participantId"":""37DB0461F33B467E955ABB9F1EA2E2D1"",""assignmentId"":""0198bce3-f5a9-7ebe-8152-5fd96fee8294"",""projectId"":""0198bbb8-fd11-701d-9147-68794ad37298""}","https://test12345.live/?num_scrambled_semantic=8&num_scrambled_causal=4&num_scrambled_schematic=4&participantId=37DB0461F33B467E955ABB9F1EA2E2D1&assignmentId=0198bce3-f5a9-7ebe-8152-5fd96fee8294&projectId=0198bbb8-fd11-701d-9147-68794ad37298","37DB0461F33B467E955ABB9F1EA2E2D1-2025-08-18-12-11-55","","null","","[]","null","",""
"","","","","","image-button-response","66","1818429","0.0-12.0-1.0-0.3","37DB0461F33B467E955ABB9F1EA2E2D1","37DB0461F33B467E955ABB9F1EA2E2D1","0198bce3-f5a9-7ebe-8152-5fd96fee8294","0198bbb8-fd11-701d-9147-68794ad37298","{""num_scrambled_semantic"":""8"",""num_scrambled_causal"":""4"",""num_scrambled_schematic"":""4"",""participantId"":""37DB0461F33B467E955ABB9F1EA2E2D1"",""assignmentId"":""0198bce3-f5a9-7ebe-8152-5fd96fee8294"",""projectId"":""0198bbb8-fd11-701d-9147-68794ad37298""}","https://test12345.live/?num_scrambled_semantic=8&num_scrambled_causal=4&num_scrambled_schematic=4&participantId=37DB0461F33B467E955ABB9F1EA2E2D1&assignmentId=0198bce3-f5a9-7ebe-8152-5fd96fee8294&projectId=0198bbb8-fd11-701d-9147-68794ad37298","37DB0461F33B467E955ABB9F1EA2E2D1-2025-08-18-12-11-55","","null","","images/semantic_sequence/redecorating_semantic/redecorating_semantic_4.png","null","",""
"","","","","","image-button-response","67","1820749","0.0-12.0-1.0-1.3","37DB0461F33B467E955ABB9F1EA2E2D1","37DB0461F33B467E955ABB9F1EA2E2D1","0198bce3-f5a9-7ebe-8152-5fd96fee8294","0198bbb8-fd11-701d-9147-68794ad37298","{""num_scrambled_semantic"":""8"",""num_scrambled_causal"":""4"",""num_scrambled_schematic"":""4"",""participantId"":""37DB0461F33B467E955ABB9F1EA2E2D1"",""assignmentId"":""0198bce3-f5a9-7ebe-8152-5fd96fee8294"",""projectId"":""0198bbb8-fd11-701d-9147-68794ad37298""}","https://test12345.live/?num_scrambled_semantic=8&num_scrambled_causal=4&num_scrambled_schematic=4&participantId=37DB0461F33B467E955ABB9F1EA2E2D1&assignmentId=0198bce3-f5a9-7ebe-8152-5fd96fee8294&projectId=0198bbb8-fd11-701d-9147-68794ad37298","37DB0461F33B467E955ABB9F1EA2E2D1-2025-08-18-12-11-55","","2320","","images/semantic_sequence/redecorating_semantic/redecorating_semantic_4.png","0","",""
"","","","","","image-button-response","68","1831552","0.0-12.0-1.0-2.3","37DB0461F33B467E955ABB9F1EA2E2D1","37DB0461F33B467E955ABB9F1EA2E2D1","0198bce3-f5a9-7ebe-8152-5fd96fee8294","0198bbb8-fd11-701d-9147-68794ad37298","{""num_scrambled_semantic"":""8"",""num_scrambled_causal"":""4"",""num_scrambled_schematic"":""4"",""participantId"":""37DB0461F33B467E955ABB9F1EA2E2D1"",""assignmentId"":""0198bce3-f5a9-7ebe-8152-5fd96fee8294"",""projectId"":""0198bbb8-fd11-701d-9147-68794ad37298""}","https://test12345.live/?num_scrambled_semantic=8&num_scrambled_causal=4&num_scrambled_schematic=4&participantId=37DB0461F33B467E955ABB9F1EA2E2D1&assignmentId=0198bce3-f5a9-7ebe-8152-5fd96fee8294&projectId=0198bbb8-fd11-701d-9147-68794ad37298","37DB0461F33B467E955ABB9F1EA2E2D1-2025-08-18-12-11-55","","null","","[]","null","",""
"","","","","","image-button-response","69","1836580","0.0-12.0-1.0-0.4","37DB0461F33B467E955ABB9F1EA2E2D1","37DB0461F33B467E955ABB9F1EA2E2D1","0198bce3-f5a9-7ebe-8152-5fd96fee8294","0198bbb8-fd11-701d-9147-68794ad37298","{""num_scrambled_semantic"":""8"",""num_scrambled_causal"":""4"",""num_scrambled_schematic"":""4"",""participantId"":""37DB0461F33B467E955ABB9F1EA2E2D1"",""assignmentId"":""0198bce3-f5a9-7ebe-8152-5fd96fee8294"",""projectId"":""0198bbb8-fd11-701d-9147-68794ad37298""}","https://test12345.live/?num_scrambled_semantic=8&num_scrambled_causal=4&num_scrambled_schematic=4&participantId=37DB0461F33B467E955ABB9F1EA2E2D1&assignmentId=0198bce3-f5a9-7ebe-8152-5fd96fee8294&projectId=0198bbb8-fd11-701d-9147-68794ad37298","37DB0461F33B467E955ABB9F1EA2E2D1-2025-08-18-12-11-55","","null","","images/semantic_sequence/redecorating_semantic/redecorating_semantic_2.png","null","",""
"","","","","","image-button-response","70","1837824","0.0-12.0-1.0-1.4","37DB0461F33B467E955ABB9F1EA2E2D1","37DB0461F33B467E955ABB9F1EA2E2D1","0198bce3-f5a9-7ebe-8152-5fd96fee8294","0198bbb8-fd11-701d-9147-68794ad37298","{""num_scrambled_semantic"":""8"",""num_scrambled_causal"":""4"",""num_scrambled_schematic"":""4"",""participantId"":""37DB0461F33B467E955ABB9F1EA2E2D1"",""assignmentId"":""0198bce3-f5a9-7ebe-8152-5fd96fee8294"",""projectId"":""0198bbb8-fd11-701d-9147-68794ad37298""}","https://test12345.live/?num_scrambled_semantic=8&num_scrambled_causal=4&num_scrambled_schematic=4&participantId=37DB0461F33B467E955ABB9F1EA2E2D1&assignmentId=0198bce3-f5a9-7ebe-8152-5fd96fee8294&projectId=0198bbb8-fd11-701d-9147-68794ad37298","37DB0461F33B467E955ABB9F1EA2E2D1-2025-08-18-12-11-55","","1244","","images/semantic_sequence/redecorating_semantic/redecorating_semantic_2.png","0","",""
"","","","","","image-button-response","71","1848630","0.0-12.0-1.0-2.4","37DB0461F33B467E955ABB9F1EA2E2D1","37DB0461F33B467E955ABB9F1EA2E2D1","0198bce3-f5a9-7ebe-8152-5fd96fee8294","0198bbb8-fd11-701d-9147-68794ad37298","{""num_scrambled_semantic"":""8"",""num_scrambled_causal"":""4"",""num_scrambled_schematic"":""4"",""participantId"":""37DB0461F33B467E955ABB9F1EA2E2D1"",""assignmentId"":""0198bce3-f5a9-7ebe-8152-5fd96fee8294"",""projectId"":""0198bbb8-fd11-701d-9147-68794ad37298""}","https://test12345.live/?num_scrambled_semantic=8&num_scrambled_causal=4&num_scrambled_schematic=4&participantId=37DB0461F33B467E955ABB9F1EA2E2D1&assignmentId=0198bce3-f5a9-7ebe-8152-5fd96fee8294&projectId=0198bbb8-fd11-701d-9147-68794ad37298","37DB0461F33B467E955ABB9F1EA2E2D1-2025-08-18-12-11-55","","null","","[]","null","",""
"","","","","","image-button-response","72","1853157","0.0-12.0-1.0-0.5","37DB0461F33B467E955ABB9F1EA2E2D1","37DB0461F33B467E955ABB9F1EA2E2D1","0198bce3-f5a9-7ebe-8152-5fd96fee8294","0198bbb8-fd11-701d-9147-68794ad37298","{""num_scrambled_semantic"":""8"",""num_scrambled_causal"":""4"",""num_scrambled_schematic"":""4"",""participantId"":""37DB0461F33B467E955ABB9F1EA2E2D1"",""assignmentId"":""0198bce3-f5a9-7ebe-8152-5fd96fee8294"",""projectId"":""0198bbb8-fd11-701d-9147-68794ad37298""}","https://test12345.live/?num_scrambled_semantic=8&num_scrambled_causal=4&num_scrambled_schematic=4&participantId=37DB0461F33B467E955ABB9F1EA2E2D1&assignmentId=0198bce3-f5a9-7ebe-8152-5fd96fee8294&projectId=0198bbb8-fd11-701d-9147-68794ad37298","37DB0461F33B467E955ABB9F1EA2E2D1-2025-08-18-12-11-55","","null","","images/semantic_sequence/redecorating_semantic/redecorating_semantic_7.png","null","",""
"","","","","","image-button-response","73","1855024","0.0-12.0-1.0-1.5","37DB0461F33B467E955ABB9F1EA2E2D1","37DB0461F33B467E955ABB9F1EA2E2D1","0198bce3-f5a9-7ebe-8152-5fd96fee8294","0198bbb8-fd11-701d-9147-68794ad37298","{""num_scrambled_semantic"":""8"",""num_scrambled_causal"":""4"",""num_scrambled_schematic"":""4"",""participantId"":""37DB0461F33B467E955ABB9F1EA2E2D1"",""assignmentId"":""0198bce3-f5a9-7ebe-8152-5fd96fee8294"",""projectId"":""0198bbb8-fd11-701d-9147-68794ad37298""}","https://test12345.live/?num_scrambled_semantic=8&num_scrambled_causal=4&num_scrambled_schematic=4&participantId=37DB0461F33B467E955ABB9F1EA2E2D1&assignmentId=0198bce3-f5a9-7ebe-8152-5fd96fee8294&projectId=0198bbb8-fd11-701d-9147-68794ad37298","37DB0461F33B467E955ABB9F1EA2E2D1-2025-08-18-12-11-55","","1866","","images/semantic_sequence/redecorating_semantic/redecorating_semantic_7.png","0","",""
"","","","","","image-button-response","74","1866021","0.0-12.0-1.0-2.5","37DB0461F33B467E955ABB9F1EA2E2D1","37DB0461F33B467E955ABB9F1EA2E2D1","0198bce3-f5a9-7ebe-8152-5fd96fee8294","0198bbb8-fd11-701d-9147-68794ad37298","{""num_scrambled_semantic"":""8"",""num_scrambled_causal"":""4"",""num_scrambled_schematic"":""4"",""participantId"":""37DB0461F33B467E955ABB9F1EA2E2D1"",""assignmentId"":""0198bce3-f5a9-7ebe-8152-5fd96fee8294"",""projectId"":""0198bbb8-fd11-701d-9147-68794ad37298""}","https://test12345.live/?num_scrambled_semantic=8&num_scrambled_causal=4&num_scrambled_schematic=4&participantId=37DB0461F33B467E955ABB9F1EA2E2D1&assignmentId=0198bce3-f5a9-7ebe-8152-5fd96fee8294&projectId=0198bbb8-fd11-701d-9147-68794ad37298","37DB0461F33B467E955ABB9F1EA2E2D1-2025-08-18-12-11-55","","null","","[]","null","",""
"","","","","","image-button-response","75","1870548","0.0-12.0-1.0-0.6","37DB0461F33B467E955ABB9F1EA2E2D1","37DB0461F33B467E955ABB9F1EA2E2D1","0198bce3-f5a9-7ebe-8152-5fd96fee8294","0198bbb8-fd11-701d-9147-68794ad37298","{""num_scrambled_semantic"":""8"",""num_scrambled_causal"":""4"",""num_scrambled_schematic"":""4"",""participantId"":""37DB0461F33B467E955ABB9F1EA2E2D1"",""assignmentId"":""0198bce3-f5a9-7ebe-8152-5fd96fee8294"",""projectId"":""0198bbb8-fd11-701d-9147-68794ad37298""}","https://test12345.live/?num_scrambled_semantic=8&num_scrambled_causal=4&num_scrambled_schematic=4&participantId=37DB0461F33B467E955ABB9F1EA2E2D1&assignmentId=0198bce3-f5a9-7ebe-8152-5fd96fee8294&projectId=0198bbb8-fd11-701d-9147-68794ad37298","37DB0461F33B467E955ABB9F1EA2E2D1-2025-08-18-12-11-55","","null","","images/semantic_sequence/redecorating_semantic/redecorating_semantic_6.png","null","",""
"","","","","","image-button-response","76","1872647","0.0-12.0-1.0-1.6","37DB0461F33B467E955ABB9F1EA2E2D1","37DB0461F33B467E955ABB9F1EA2E2D1","0198bce3-f5a9-7ebe-8152-5fd96fee8294","0198bbb8-fd11-701d-9147-68794ad37298","{""num_scrambled_semantic"":""8"",""num_scrambled_causal"":""4"",""num_scrambled_schematic"":""4"",""participantId"":""37DB0461F33B467E955ABB9F1EA2E2D1"",""assignmentId"":""0198bce3-f5a9-7ebe-8152-5fd96fee8294"",""projectId"":""0198bbb8-fd11-701d-9147-68794ad37298""}","https://test12345.live/?num_scrambled_semantic=8&num_scrambled_causal=4&num_scrambled_schematic=4&participantId=37DB0461F33B467E955ABB9F1EA2E2D1&assignmentId=0198bce3-f5a9-7ebe-8152-5fd96fee8294&projectId=0198bbb8-fd11-701d-9147-68794ad37298","37DB0461F33B467E955ABB9F1EA2E2D1-2025-08-18-12-11-55","","2098","","images/semantic_sequence/redecorating_semantic/redecorating_semantic_6.png","0","",""
"","","","","","image-button-response","77","1883448","0.0-12.0-1.0-2.6","37DB0461F33B467E955ABB9F1EA2E2D1","37DB0461F33B467E955ABB9F1EA2E2D1","0198bce3-f5a9-7ebe-8152-5fd96fee8294","0198bbb8-fd11-701d-9147-68794ad37298","{""num_scrambled_semantic"":""8"",""num_scrambled_causal"":""4"",""num_scrambled_schematic"":""4"",""participantId"":""37DB0461F33B467E955ABB9F1EA2E2D1"",""assignmentId"":""0198bce3-f5a9-7ebe-8152-5fd96fee8294"",""projectId"":""0198bbb8-fd11-701d-9147-68794ad37298""}","https://test12345.live/?num_scrambled_semantic=8&num_scrambled_causal=4&num_scrambled_schematic=4&participantId=37DB0461F33B467E955ABB9F1EA2E2D1&assignmentId=0198bce3-f5a9-7ebe-8152-5fd96fee8294&projectId=0198bbb8-fd11-701d-9147-68794ad37298","37DB0461F33B467E955ABB9F1EA2E2D1-2025-08-18-12-11-55","","null","","[]","null","",""
"","","","","","image-button-response","78","1888478","0.0-12.0-1.0-0.7","37DB0461F33B467E955ABB9F1EA2E2D1","37DB0461F33B467E955ABB9F1EA2E2D1","0198bce3-f5a9-7ebe-8152-5fd96fee8294","0198bbb8-fd11-701d-9147-68794ad37298","{""num_scrambled_semantic"":""8"",""num_scrambled_causal"":""4"",""num_scrambled_schematic"":""4"",""participantId"":""37DB0461F33B467E955ABB9F1EA2E2D1"",""assignmentId"":""0198bce3-f5a9-7ebe-8152-5fd96fee8294"",""projectId"":""0198bbb8-fd11-701d-9147-68794ad37298""}","https://test12345.live/?num_scrambled_semantic=8&num_scrambled_causal=4&num_scrambled_schematic=4&participantId=37DB0461F33B467E955ABB9F1EA2E2D1&assignmentId=0198bce3-f5a9-7ebe-8152-5fd96fee8294&projectId=0198bbb8-fd11-701d-9147-68794ad37298","37DB0461F33B467E955ABB9F1EA2E2D1-2025-08-18-12-11-55","","null","","images/semantic_sequence/redecorating_semantic/redecorating_semantic_3.png","null","",""
"","","","","","image-button-response","79","1890045","0.0-12.0-1.0-1.7","37DB0461F33B467E955ABB9F1EA2E2D1","37DB0461F33B467E955ABB9F1EA2E2D1","0198bce3-f5a9-7ebe-8152-5fd96fee8294","0198bbb8-fd11-701d-9147-68794ad37298","{""num_scrambled_semantic"":""8"",""num_scrambled_causal"":""4"",""num_scrambled_schematic"":""4"",""participantId"":""37DB0461F33B467E955ABB9F1EA2E2D1"",""assignmentId"":""0198bce3-f5a9-7ebe-8152-5fd96fee8294"",""projectId"":""0198bbb8-fd11-701d-9147-68794ad37298""}","https://test12345.live/?num_scrambled_semantic=8&num_scrambled_causal=4&num_scrambled_schematic=4&participantId=37DB0461F33B467E955ABB9F1EA2E2D1&assignmentId=0198bce3-f5a9-7ebe-8152-5fd96fee8294&projectId=0198bbb8-fd11-701d-9147-68794ad37298","37DB0461F33B467E955ABB9F1EA2E2D1-2025-08-18-12-11-55","","1566","","images/semantic_sequence/redecorating_semantic/redecorating_semantic_3.png","0","",""
"","","","","","image-button-response","80","1900847","0.0-12.0-1.0-2.7","37DB0461F33B467E955ABB9F1EA2E2D1","37DB0461F33B467E955ABB9F1EA2E2D1","0198bce3-f5a9-7ebe-8152-5fd96fee8294","0198bbb8-fd11-701d-9147-68794ad37298","{""num_scrambled_semantic"":""8"",""num_scrambled_causal"":""4"",""num_scrambled_schematic"":""4"",""participantId"":""37DB0461F33B467E955ABB9F1EA2E2D1"",""assignmentId"":""0198bce3-f5a9-7ebe-8152-5fd96fee8294"",""projectId"":""0198bbb8-fd11-701d-9147-68794ad37298""}","https://test12345.live/?num_scrambled_semantic=8&num_scrambled_causal=4&num_scrambled_schematic=4&participantId=37DB0461F33B467E955ABB9F1EA2E2D1&assignmentId=0198bce3-f5a9-7ebe-8152-5fd96fee8294&projectId=0198bbb8-fd11-701d-9147-68794ad37298","37DB0461F33B467E955ABB9F1EA2E2D1-2025-08-18-12-11-55","","null","","[]","null","",""
"","","","","","image-button-response","81","1905870","0.0-12.0-1.0-0.8","37DB0461F33B467E955ABB9F1EA2E2D1","37DB0461F33B467E955ABB9F1EA2E2D1","0198bce3-f5a9-7ebe-8152-5fd96fee8294","0198bbb8-fd11-701d-9147-68794ad37298","{""num_scrambled_semantic"":""8"",""num_scrambled_causal"":""4"",""num_scrambled_schematic"":""4"",""participantId"":""37DB0461F33B467E955ABB9F1EA2E2D1"",""assignmentId"":""0198bce3-f5a9-7ebe-8152-5fd96fee8294"",""projectId"":""0198bbb8-fd11-701d-9147-68794ad37298""}","https://test12345.live/?num_scrambled_semantic=8&num_scrambled_causal=4&num_scrambled_schematic=4&participantId=37DB0461F33B467E955ABB9F1EA2E2D1&assignmentId=0198bce3-f5a9-7ebe-8152-5fd96fee8294&projectId=0198bbb8-fd11-701d-9147-68794ad37298","37DB0461F33B467E955ABB9F1EA2E2D1-2025-08-18-12-11-55","","null","","images/semantic_sequence/redecorating_semantic/redecorating_semantic_5.png","null","",""
"","","","","","image-button-response","82","1907285","0.0-12.0-1.0-1.8","37DB0461F33B467E955ABB9F1EA2E2D1","37DB0461F33B467E955ABB9F1EA2E2D1","0198bce3-f5a9-7ebe-8152-5fd96fee8294","0198bbb8-fd11-701d-9147-68794ad37298","{""num_scrambled_semantic"":""8"",""num_scrambled_causal"":""4"",""num_scrambled_schematic"":""4"",""participantId"":""37DB0461F33B467E955ABB9F1EA2E2D1"",""assignmentId"":""0198bce3-f5a9-7ebe-8152-5fd96fee8294"",""projectId"":""0198bbb8-fd11-701d-9147-68794ad37298""}","https://test12345.live/?num_scrambled_semantic=8&num_scrambled_causal=4&num_scrambled_schematic=4&participantId=37DB0461F33B467E955ABB9F1EA2E2D1&assignmentId=0198bce3-f5a9-7ebe-8152-5fd96fee8294&projectId=0198bbb8-fd11-701d-9147-68794ad37298","37DB0461F33B467E955ABB9F1EA2E2D1-2025-08-18-12-11-55","","1415","","images/semantic_sequence/redecorating_semantic/redecorating_semantic_5.png","0","",""
"","","","","","image-button-response","83","1918089","0.0-12.0-1.0-2.8","37DB0461F33B467E955ABB9F1EA2E2D1","37DB0461F33B467E955ABB9F1EA2E2D1","0198bce3-f5a9-7ebe-8152-5fd96fee8294","0198bbb8-fd11-701d-9147-68794ad37298","{""num_scrambled_semantic"":""8"",""num_scrambled_causal"":""4"",""num_scrambled_schematic"":""4"",""participantId"":""37DB0461F33B467E955ABB9F1EA2E2D1"",""assignmentId"":""0198bce3-f5a9-7ebe-8152-5fd96fee8294"",""projectId"":""0198bbb8-fd11-701d-9147-68794ad37298""}","https://test12345.live/?num_scrambled_semantic=8&num_scrambled_causal=4&num_scrambled_schematic=4&participantId=37DB0461F33B467E955ABB9F1EA2E2D1&assignmentId=0198bce3-f5a9-7ebe-8152-5fd96fee8294&projectId=0198bbb8-fd11-701d-9147-68794ad37298","37DB0461F33B467E955ABB9F1EA2E2D1-2025-08-18-12-11-55","","null","","[]","null","",""
"","","","","","image-button-response","84","1922621","0.0-12.0-1.0-0.9","37DB0461F33B467E955ABB9F1EA2E2D1","37DB0461F33B467E955ABB9F1EA2E2D1","0198bce3-f5a9-7ebe-8152-5fd96fee8294","0198bbb8-fd11-701d-9147-68794ad37298","{""num_scrambled_semantic"":""8"",""num_scrambled_causal"":""4"",""num_scrambled_schematic"":""4"",""participantId"":""37DB0461F33B467E955ABB9F1EA2E2D1"",""assignmentId"":""0198bce3-f5a9-7ebe-8152-5fd96fee8294"",""projectId"":""0198bbb8-fd11-701d-9147-68794ad37298""}","https://test12345.live/?num_scrambled_semantic=8&num_scrambled_causal=4&num_scrambled_schematic=4&participantId=37DB0461F33B467E955ABB9F1EA2E2D1&assignmentId=0198bce3-f5a9-7ebe-8152-5fd96fee8294&projectId=0198bbb8-fd11-701d-9147-68794ad37298","37DB0461F33B467E955ABB9F1EA2E2D1-2025-08-18-12-11-55","","null","","images/semantic_sequence/redecorating_semantic/redecorating_semantic_ten.png","null","",""
"","","","","","image-button-response","85","1923577","0.0-12.0-1.0-1.9","37DB0461F33B467E955ABB9F1EA2E2D1","37DB0461F33B467E955ABB9F1EA2E2D1","0198bce3-f5a9-7ebe-8152-5fd96fee8294","0198bbb8-fd11-701d-9147-68794ad37298","{""num_scrambled_semantic"":""8"",""num_scrambled_causal"":""4"",""num_scrambled_schematic"":""4"",""participantId"":""37DB0461F33B467E955ABB9F1EA2E2D1"",""assignmentId"":""0198bce3-f5a9-7ebe-8152-5fd96fee8294"",""projectId"":""0198bbb8-fd11-701d-9147-68794ad37298""}","https://test12345.live/?num_scrambled_semantic=8&num_scrambled_causal=4&num_scrambled_schematic=4&participantId=37DB0461F33B467E955ABB9F1EA2E2D1&assignmentId=0198bce3-f5a9-7ebe-8152-5fd96fee8294&projectId=0198bbb8-fd11-701d-9147-68794ad37298","37DB0461F33B467E955ABB9F1EA2E2D1-2025-08-18-12-11-55","","954","","images/semantic_sequence/redecorating_semantic/redecorating_semantic_ten.png","0","",""
"","","","","","image-button-response","86","1934380","0.0-12.0-1.0-2.9","37DB0461F33B467E955ABB9F1EA2E2D1","37DB0461F33B467E955ABB9F1EA2E2D1","0198bce3-f5a9-7ebe-8152-5fd96fee8294","0198bbb8-fd11-701d-9147-68794ad37298","{""num_scrambled_semantic"":""8"",""num_scrambled_causal"":""4"",""num_scrambled_schematic"":""4"",""participantId"":""37DB0461F33B467E955ABB9F1EA2E2D1"",""assignmentId"":""0198bce3-f5a9-7ebe-8152-5fd96fee8294"",""projectId"":""0198bbb8-fd11-701d-9147-68794ad37298""}","https://test12345.live/?num_scrambled_semantic=8&num_scrambled_causal=4&num_scrambled_schematic=4&participantId=37DB0461F33B467E955ABB9F1EA2E2D1&assignmentId=0198bce3-f5a9-7ebe-8152-5fd96fee8294&projectId=0198bbb8-fd11-701d-9147-68794ad37298","37DB0461F33B467E955ABB9F1EA2E2D1-2025-08-18-12-11-55","","null","","[]","null","",""
"","","","","","html-audio-response","87","2003015","0.0-13.0","37DB0461F33B467E955ABB9F1EA2E2D1","37DB0461F33B467E955ABB9F1EA2E2D1","0198bce3-f5a9-7ebe-8152-5fd96fee8294","0198bbb8-fd11-701d-9147-68794ad37298","{""num_scrambled_semantic"":""8"",""num_scrambled_causal"":""4"",""num_scrambled_schematic"":""4"",""participantId"":""37DB0461F33B467E955ABB9F1EA2E2D1"",""assignmentId"":""0198bce3-f5a9-7ebe-8152-5fd96fee8294"",""projectId"":""0198bbb8-fd11-701d-9147-68794ad37298""}","https://test12345.live/?num_scrambled_semantic=8&num_scrambled_causal=4&num_scrambled_schematic=4&participantId=37DB0461F33B467E955ABB9F1EA2E2D1&assignmentId=0198bce3-f5a9-7ebe-8152-5fd96fee8294&projectId=0198bbb8-fd11-701d-9147-68794ad37298","37DB0461F33B467E955ABB9F1EA2E2D1-2025-08-18-12-11-55","","null","","[""<span style=\""color: red; font-size: 24px\""> NOW RECORDING</span><p>Please say out loud all the images you saw, as many as you can remember. The images can be said in any order.</p>""]","","2","redecorating_semantic"
"","","","","","image-button-response","88","2009198","0.0-14.0-0.0","37DB0461F33B467E955ABB9F1EA2E2D1","37DB0461F33B467E955ABB9F1EA2E2D1","0198bce3-f5a9-7ebe-8152-5fd96fee8294","0198bbb8-fd11-701d-9147-68794ad37298","{""num_scrambled_semantic"":""8"",""num_scrambled_causal"":""4"",""num_scrambled_schematic"":""4"",""participantId"":""37DB0461F33B467E955ABB9F1EA2E2D1"",""assignmentId"":""0198bce3-f5a9-7ebe-8152-5fd96fee8294"",""projectId"":""0198bbb8-fd11-701d-9147-68794ad37298""}","https://test12345.live/?num_scrambled_semantic=8&num_scrambled_causal=4&num_scrambled_schematic=4&participantId=37DB0461F33B467E955ABB9F1EA2E2D1&assignmentId=0198bce3-f5a9-7ebe-8152-5fd96fee8294&projectId=0198bbb8-fd11-701d-9147-68794ad37298","37DB0461F33B467E955ABB9F1EA2E2D1-2025-08-18-12-11-55","","null","","images/causal_sequence/the_performance_causal/the_performance_causal_0.png","null","",""
"","","","","","image-button-response","89","2013729","0.0-14.0-1.0-0.0","37DB0461F33B467E955ABB9F1EA2E2D1","37DB0461F33B467E955ABB9F1EA2E2D1","0198bce3-f5a9-7ebe-8152-5fd96fee8294","0198bbb8-fd11-701d-9147-68794ad37298","{""num_scrambled_semantic"":""8"",""num_scrambled_causal"":""4"",""num_scrambled_schematic"":""4"",""participantId"":""37DB0461F33B467E955ABB9F1EA2E2D1"",""assignmentId"":""0198bce3-f5a9-7ebe-8152-5fd96fee8294"",""projectId"":""0198bbb8-fd11-701d-9147-68794ad37298""}","https://test12345.live/?num_scrambled_semantic=8&num_scrambled_causal=4&num_scrambled_schematic=4&participantId=37DB0461F33B467E955ABB9F1EA2E2D1&assignmentId=0198bce3-f5a9-7ebe-8152-5fd96fee8294&projectId=0198bbb8-fd11-701d-9147-68794ad37298","37DB0461F33B467E955ABB9F1EA2E2D1-2025-08-18-12-11-55","","null","","images/causal_sequence/the_performance_causal/the_performance_causal_9.png","null","",""
"","","","","","image-button-response","90","2015158","0.0-14.0-1.0-1.0","37DB0461F33B467E955ABB9F1EA2E2D1","37DB0461F33B467E955ABB9F1EA2E2D1","0198bce3-f5a9-7ebe-8152-5fd96fee8294","0198bbb8-fd11-701d-9147-68794ad37298","{""num_scrambled_semantic"":""8"",""num_scrambled_causal"":""4"",""num_scrambled_schematic"":""4"",""participantId"":""37DB0461F33B467E955ABB9F1EA2E2D1"",""assignmentId"":""0198bce3-f5a9-7ebe-8152-5fd96fee8294"",""projectId"":""0198bbb8-fd11-701d-9147-68794ad37298""}","https://test12345.live/?num_scrambled_semantic=8&num_scrambled_causal=4&num_scrambled_schematic=4&participantId=37DB0461F33B467E955ABB9F1EA2E2D1&assignmentId=0198bce3-f5a9-7ebe-8152-5fd96fee8294&projectId=0198bbb8-fd11-701d-9147-68794ad37298","37DB0461F33B467E955ABB9F1EA2E2D1-2025-08-18-12-11-55","","1428","","images/causal_sequence/the_performance_causal/the_performance_causal_9.png","0","",""
"","","","","","image-button-response","91","2025964","0.0-14.0-1.0-2.0","37DB0461F33B467E955ABB9F1EA2E2D1","37DB0461F33B467E955ABB9F1EA2E2D1","0198bce3-f5a9-7ebe-8152-5fd96fee8294","0198bbb8-fd11-701d-9147-68794ad37298","{""num_scrambled_semantic"":""8"",""num_scrambled_causal"":""4"",""num_scrambled_schematic"":""4"",""participantId"":""37DB0461F33B467E955ABB9F1EA2E2D1"",""assignmentId"":""0198bce3-f5a9-7ebe-8152-5fd96fee8294"",""projectId"":""0198bbb8-fd11-701d-9147-68794ad37298""}","https://test12345.live/?num_scrambled_semantic=8&num_scrambled_causal=4&num_scrambled_schematic=4&participantId=37DB0461F33B467E955ABB9F1EA2E2D1&assignmentId=0198bce3-f5a9-7ebe-8152-5fd96fee8294&projectId=0198bbb8-fd11-701d-9147-68794ad37298","37DB0461F33B467E955ABB9F1EA2E2D1-2025-08-18-12-11-55","","null","","[]","null","",""
"","","","","","image-button-response","92","2030493","0.0-14.0-1.0-0.1","37DB0461F33B467E955ABB9F1EA2E2D1","37DB0461F33B467E955ABB9F1EA2E2D1","0198bce3-f5a9-7ebe-8152-5fd96fee8294","0198bbb8-fd11-701d-9147-68794ad37298","{""num_scrambled_semantic"":""8"",""num_scrambled_causal"":""4"",""num_scrambled_schematic"":""4"",""participantId"":""37DB0461F33B467E955ABB9F1EA2E2D1"",""assignmentId"":""0198bce3-f5a9-7ebe-8152-5fd96fee8294"",""projectId"":""0198bbb8-fd11-701d-9147-68794ad37298""}","https://test12345.live/?num_scrambled_semantic=8&num_scrambled_causal=4&num_scrambled_schematic=4&participantId=37DB0461F33B467E955ABB9F1EA2E2D1&assignmentId=0198bce3-f5a9-7ebe-8152-5fd96fee8294&projectId=0198bbb8-fd11-701d-9147-68794ad37298","37DB0461F33B467E955ABB9F1EA2E2D1-2025-08-18-12-11-55","","null","","images/causal_sequence/the_performance_causal/the_performance_causal_7.png","null","",""
"","","","","","image-button-response","93","2031965","0.0-14.0-1.0-1.1","37DB0461F33B467E955ABB9F1EA2E2D1","37DB0461F33B467E955ABB9F1EA2E2D1","0198bce3-f5a9-7ebe-8152-5fd96fee8294","0198bbb8-fd11-701d-9147-68794ad37298","{""num_scrambled_semantic"":""8"",""num_scrambled_causal"":""4"",""num_scrambled_schematic"":""4"",""participantId"":""37DB0461F33B467E955ABB9F1EA2E2D1"",""assignmentId"":""0198bce3-f5a9-7ebe-8152-5fd96fee8294"",""projectId"":""0198bbb8-fd11-701d-9147-68794ad37298""}","https://test12345.live/?num_scrambled_semantic=8&num_scrambled_causal=4&num_scrambled_schematic=4&participantId=37DB0461F33B467E955ABB9F1EA2E2D1&assignmentId=0198bce3-f5a9-7ebe-8152-5fd96fee8294&projectId=0198bbb8-fd11-701d-9147-68794ad37298","37DB0461F33B467E955ABB9F1EA2E2D1-2025-08-18-12-11-55","","1472","","images/causal_sequence/the_performance_causal/the_performance_causal_7.png","0","",""
"","","","","","image-button-response","94","2042768","0.0-14.0-1.0-2.1","37DB0461F33B467E955ABB9F1EA2E2D1","37DB0461F33B467E955ABB9F1EA2E2D1","0198bce3-f5a9-7ebe-8152-5fd96fee8294","0198bbb8-fd11-701d-9147-68794ad37298","{""num_scrambled_semantic"":""8"",""num_scrambled_causal"":""4"",""num_scrambled_schematic"":""4"",""participantId"":""37DB0461F33B467E955ABB9F1EA2E2D1"",""assignmentId"":""0198bce3-f5a9-7ebe-8152-5fd96fee8294"",""projectId"":""0198bbb8-fd11-701d-9147-68794ad37298""}","https://test12345.live/?num_scrambled_semantic=8&num_scrambled_causal=4&num_scrambled_schematic=4&participantId=37DB0461F33B467E955ABB9F1EA2E2D1&assignmentId=0198bce3-f5a9-7ebe-8152-5fd96fee8294&projectId=0198bbb8-fd11-701d-9147-68794ad37298","37DB0461F33B467E955ABB9F1EA2E2D1-2025-08-18-12-11-55","","null","","[]","null","",""
"","","","","","image-button-response","95","2047800","0.0-14.0-1.0-0.2","37DB0461F33B467E955ABB9F1EA2E2D1","37DB0461F33B467E955ABB9F1EA2E2D1","0198bce3-f5a9-7ebe-8152-5fd96fee8294","0198bbb8-fd11-701d-9147-68794ad37298","{""num_scrambled_semantic"":""8"",""num_scrambled_causal"":""4"",""num_scrambled_schematic"":""4"",""participantId"":""37DB0461F33B467E955ABB9F1EA2E2D1"",""assignmentId"":""0198bce3-f5a9-7ebe-8152-5fd96fee8294"",""projectId"":""0198bbb8-fd11-701d-9147-68794ad37298""}","https://test12345.live/?num_scrambled_semantic=8&num_scrambled_causal=4&num_scrambled_schematic=4&participantId=37DB0461F33B467E955ABB9F1EA2E2D1&assignmentId=0198bce3-f5a9-7ebe-8152-5fd96fee8294&projectId=0198bbb8-fd11-701d-9147-68794ad37298","37DB0461F33B467E955ABB9F1EA2E2D1-2025-08-18-12-11-55","","null","","images/causal_sequence/the_performance_causal/the_performance_causal_3.png","null","",""
"","","","","","image-button-response","96","2050133","0.0-14.0-1.0-1.2","37DB0461F33B467E955ABB9F1EA2E2D1","37DB0461F33B467E955ABB9F1EA2E2D1","0198bce3-f5a9-7ebe-8152-5fd96fee8294","0198bbb8-fd11-701d-9147-68794ad37298","{""num_scrambled_semantic"":""8"",""num_scrambled_causal"":""4"",""num_scrambled_schematic"":""4"",""participantId"":""37DB0461F33B467E955ABB9F1EA2E2D1"",""assignmentId"":""0198bce3-f5a9-7ebe-8152-5fd96fee8294"",""projectId"":""0198bbb8-fd11-701d-9147-68794ad37298""}","https://test12345.live/?num_scrambled_semantic=8&num_scrambled_causal=4&num_scrambled_schematic=4&participantId=37DB0461F33B467E955ABB9F1EA2E2D1&assignmentId=0198bce3-f5a9-7ebe-8152-5fd96fee8294&projectId=0198bbb8-fd11-701d-9147-68794ad37298","37DB0461F33B467E955ABB9F1EA2E2D1-2025-08-18-12-11-55","","2334","","images/causal_sequence/the_performance_causal/the_performance_causal_3.png","0","",""
"","","","","","image-button-response","97","2060939","0.0-14.0-1.0-2.2","37DB0461F33B467E955ABB9F1EA2E2D1","37DB0461F33B467E955ABB9F1EA2E2D1","0198bce3-f5a9-7ebe-8152-5fd96fee8294","0198bbb8-fd11-701d-9147-68794ad37298","{""num_scrambled_semantic"":""8"",""num_scrambled_causal"":""4"",""num_scrambled_schematic"":""4"",""participantId"":""37DB0461F33B467E955ABB9F1EA2E2D1"",""assignmentId"":""0198bce3-f5a9-7ebe-8152-5fd96fee8294"",""projectId"":""0198bbb8-fd11-701d-9147-68794ad37298""}","https://test12345.live/?num_scrambled_semantic=8&num_scrambled_causal=4&num_scrambled_schematic=4&participantId=37DB0461F33B467E955ABB9F1EA2E2D1&assignmentId=0198bce3-f5a9-7ebe-8152-5fd96fee8294&projectId=0198bbb8-fd11-701d-9147-68794ad37298","37DB0461F33B467E955ABB9F1EA2E2D1-2025-08-18-12-11-55","","null","","[]","null","",""
"","","","","","image-button-response","98","2065466","0.0-14.0-1.0-0.3","37DB0461F33B467E955ABB9F1EA2E2D1","37DB0461F33B467E955ABB9F1EA2E2D1","0198bce3-f5a9-7ebe-8152-5fd96fee8294","0198bbb8-fd11-701d-9147-68794ad37298","{""num_scrambled_semantic"":""8"",""num_scrambled_causal"":""4"",""num_scrambled_schematic"":""4"",""participantId"":""37DB0461F33B467E955ABB9F1EA2E2D1"",""assignmentId"":""0198bce3-f5a9-7ebe-8152-5fd96fee8294"",""projectId"":""0198bbb8-fd11-701d-9147-68794ad37298""}","https://test12345.live/?num_scrambled_semantic=8&num_scrambled_causal=4&num_scrambled_schematic=4&participantId=37DB0461F33B467E955ABB9F1EA2E2D1&assignmentId=0198bce3-f5a9-7ebe-8152-5fd96fee8294&projectId=0198bbb8-fd11-701d-9147-68794ad37298","37DB0461F33B467E955ABB9F1EA2E2D1-2025-08-18-12-11-55","","null","","images/causal_sequence/the_performance_causal/the_performance_causal_8.png","null","",""
"","","","","","image-button-response","99","2067916","0.0-14.0-1.0-1.3","37DB0461F33B467E955ABB9F1EA2E2D1","37DB0461F33B467E955ABB9F1EA2E2D1","0198bce3-f5a9-7ebe-8152-5fd96fee8294","0198bbb8-fd11-701d-9147-68794ad37298","{""num_scrambled_semantic"":""8"",""num_scrambled_causal"":""4"",""num_scrambled_schematic"":""4"",""participantId"":""37DB0461F33B467E955ABB9F1EA2E2D1"",""assignmentId"":""0198bce3-f5a9-7ebe-8152-5fd96fee8294"",""projectId"":""0198bbb8-fd11-701d-9147-68794ad37298""}","https://test12345.live/?num_scrambled_semantic=8&num_scrambled_causal=4&num_scrambled_schematic=4&participantId=37DB0461F33B467E955ABB9F1EA2E2D1&assignmentId=0198bce3-f5a9-7ebe-8152-5fd96fee8294&projectId=0198bbb8-fd11-701d-9147-68794ad37298","37DB0461F33B467E955ABB9F1EA2E2D1-2025-08-18-12-11-55","","2450","","images/causal_sequence/the_performance_causal/the_performance_causal_8.png","0","",""
"","","","","","image-button-response","100","2078719","0.0-14.0-1.0-2.3","37DB0461F33B467E955ABB9F1EA2E2D1","37DB0461F33B467E955ABB9F1EA2E2D1","0198bce3-f5a9-7ebe-8152-5fd96fee8294","0198bbb8-fd11-701d-9147-68794ad37298","{""num_scrambled_semantic"":""8"",""num_scrambled_causal"":""4"",""num_scrambled_schematic"":""4"",""participantId"":""37DB0461F33B467E955ABB9F1EA2E2D1"",""assignmentId"":""0198bce3-f5a9-7ebe-8152-5fd96fee8294"",""projectId"":""0198bbb8-fd11-701d-9147-68794ad37298""}","https://test12345.live/?num_scrambled_semantic=8&num_scrambled_causal=4&num_scrambled_schematic=4&participantId=37DB0461F33B467E955ABB9F1EA2E2D1&assignmentId=0198bce3-f5a9-7ebe-8152-5fd96fee8294&projectId=0198bbb8-fd11-701d-9147-68794ad37298","37DB0461F33B467E955ABB9F1EA2E2D1-2025-08-18-12-11-55","","null","","[]","null","",""
"","","","","","image-button-response","101","2083247","0.0-14.0-1.0-0.4","37DB0461F33B467E955ABB9F1EA2E2D1","37DB0461F33B467E955ABB9F1EA2E2D1","0198bce3-f5a9-7ebe-8152-5fd96fee8294","0198bbb8-fd11-701d-9147-68794ad37298","{""num_scrambled_semantic"":""8"",""num_scrambled_causal"":""4"",""num_scrambled_schematic"":""4"",""participantId"":""37DB0461F33B467E955ABB9F1EA2E2D1"",""assignmentId"":""0198bce3-f5a9-7ebe-8152-5fd96fee8294"",""projectId"":""0198bbb8-fd11-701d-9147-68794ad37298""}","https://test12345.live/?num_scrambled_semantic=8&num_scrambled_causal=4&num_scrambled_schematic=4&participantId=37DB0461F33B467E955ABB9F1EA2E2D1&assignmentId=0198bce3-f5a9-7ebe-8152-5fd96fee8294&projectId=0198bbb8-fd11-701d-9147-68794ad37298","37DB0461F33B467E955ABB9F1EA2E2D1-2025-08-18-12-11-55","","null","","images/causal_sequence/the_performance_causal/the_performance_causal_2.png","null","",""
"","","","","","image-button-response","102","2087264","0.0-14.0-1.0-1.4","37DB0461F33B467E955ABB9F1EA2E2D1","37DB0461F33B467E955ABB9F1EA2E2D1","0198bce3-f5a9-7ebe-8152-5fd96fee8294","0198bbb8-fd11-701d-9147-68794ad37298","{""num_scrambled_semantic"":""8"",""num_scrambled_causal"":""4"",""num_scrambled_schematic"":""4"",""participantId"":""37DB0461F33B467E955ABB9F1EA2E2D1"",""assignmentId"":""0198bce3-f5a9-7ebe-8152-5fd96fee8294"",""projectId"":""0198bbb8-fd11-701d-9147-68794ad37298""}","https://test12345.live/?num_scrambled_semantic=8&num_scrambled_causal=4&num_scrambled_schematic=4&participantId=37DB0461F33B467E955ABB9F1EA2E2D1&assignmentId=0198bce3-f5a9-7ebe-8152-5fd96fee8294&projectId=0198bbb8-fd11-701d-9147-68794ad37298","37DB0461F33B467E955ABB9F1EA2E2D1-2025-08-18-12-11-55","","null","","images/causal_sequence/the_performance_causal/the_performance_causal_2.png","null","",""
"","","","","","image-button-response","103","2098065","0.0-14.0-1.0-2.4","37DB0461F33B467E955ABB9F1EA2E2D1","37DB0461F33B467E955ABB9F1EA2E2D1","0198bce3-f5a9-7ebe-8152-5fd96fee8294","0198bbb8-fd11-701d-9147-68794ad37298","{""num_scrambled_semantic"":""8"",""num_scrambled_causal"":""4"",""num_scrambled_schematic"":""4"",""participantId"":""37DB0461F33B467E955ABB9F1EA2E2D1"",""assignmentId"":""0198bce3-f5a9-7ebe-8152-5fd96fee8294"",""projectId"":""0198bbb8-fd11-701d-9147-68794ad37298""}","https://test12345.live/?num_scrambled_semantic=8&num_scrambled_causal=4&num_scrambled_schematic=4&participantId=37DB0461F33B467E955ABB9F1EA2E2D1&assignmentId=0198bce3-f5a9-7ebe-8152-5fd96fee8294&projectId=0198bbb8-fd11-701d-9147-68794ad37298","37DB0461F33B467E955ABB9F1EA2E2D1-2025-08-18-12-11-55","","null","","[]","null","",""
"","","","","","image-button-response","104","2102588","0.0-14.0-1.0-0.5","37DB0461F33B467E955ABB9F1EA2E2D1","37DB0461F33B467E955ABB9F1EA2E2D1","0198bce3-f5a9-7ebe-8152-5fd96fee8294","0198bbb8-fd11-701d-9147-68794ad37298","{""num_scrambled_semantic"":""8"",""num_scrambled_causal"":""4"",""num_scrambled_schematic"":""4"",""participantId"":""37DB0461F33B467E955ABB9F1EA2E2D1"",""assignmentId"":""0198bce3-f5a9-7ebe-8152-5fd96fee8294"",""projectId"":""0198bbb8-fd11-701d-9147-68794ad37298""}","https://test12345.live/?num_scrambled_semantic=8&num_scrambled_causal=4&num_scrambled_schematic=4&participantId=37DB0461F33B467E955ABB9F1EA2E2D1&assignmentId=0198bce3-f5a9-7ebe-8152-5fd96fee8294&projectId=0198bbb8-fd11-701d-9147-68794ad37298","37DB0461F33B467E955ABB9F1EA2E2D1-2025-08-18-12-11-55","","null","","images/causal_sequence/the_performance_causal/the_performance_causal_ten.png","null","",""
"","","","","","image-button-response","105","2105423","0.0-14.0-1.0-1.5","37DB0461F33B467E955ABB9F1EA2E2D1","37DB0461F33B467E955ABB9F1EA2E2D1","0198bce3-f5a9-7ebe-8152-5fd96fee8294","0198bbb8-fd11-701d-9147-68794ad37298","{""num_scrambled_semantic"":""8"",""num_scrambled_causal"":""4"",""num_scrambled_schematic"":""4"",""participantId"":""37DB0461F33B467E955ABB9F1EA2E2D1"",""assignmentId"":""0198bce3-f5a9-7ebe-8152-5fd96fee8294"",""projectId"":""0198bbb8-fd11-701d-9147-68794ad37298""}","https://test12345.live/?num_scrambled_semantic=8&num_scrambled_causal=4&num_scrambled_schematic=4&participantId=37DB0461F33B467E955ABB9F1EA2E2D1&assignmentId=0198bce3-f5a9-7ebe-8152-5fd96fee8294&projectId=0198bbb8-fd11-701d-9147-68794ad37298","37DB0461F33B467E955ABB9F1EA2E2D1-2025-08-18-12-11-55","","2834","","images/causal_sequence/the_performance_causal/the_performance_causal_ten.png","0","",""
"","","","","","image-button-response","106","2116229","0.0-14.0-1.0-2.5","37DB0461F33B467E955ABB9F1EA2E2D1","37DB0461F33B467E955ABB9F1EA2E2D1","0198bce3-f5a9-7ebe-8152-5fd96fee8294","0198bbb8-fd11-701d-9147-68794ad37298","{""num_scrambled_semantic"":""8"",""num_scrambled_causal"":""4"",""num_scrambled_schematic"":""4"",""participantId"":""37DB0461F33B467E955ABB9F1EA2E2D1"",""assignmentId"":""0198bce3-f5a9-7ebe-8152-5fd96fee8294"",""projectId"":""0198bbb8-fd11-701d-9147-68794ad37298""}","https://test12345.live/?num_scrambled_semantic=8&num_scrambled_causal=4&num_scrambled_schematic=4&participantId=37DB0461F33B467E955ABB9F1EA2E2D1&assignmentId=0198bce3-f5a9-7ebe-8152-5fd96fee8294&projectId=0198bbb8-fd11-701d-9147-68794ad37298","37DB0461F33B467E955ABB9F1EA2E2D1-2025-08-18-12-11-55","","null","","[]","null","",""
"","","","","","image-button-response","107","2120758","0.0-14.0-1.0-0.6","37DB0461F33B467E955ABB9F1EA2E2D1","37DB0461F33B467E955ABB9F1EA2E2D1","0198bce3-f5a9-7ebe-8152-5fd96fee8294","0198bbb8-fd11-701d-9147-68794ad37298","{""num_scrambled_semantic"":""8"",""num_scrambled_causal"":""4"",""num_scrambled_schematic"":""4"",""participantId"":""37DB0461F33B467E955ABB9F1EA2E2D1"",""assignmentId"":""0198bce3-f5a9-7ebe-8152-5fd96fee8294"",""projectId"":""0198bbb8-fd11-701d-9147-68794ad37298""}","https://test12345.live/?num_scrambled_semantic=8&num_scrambled_causal=4&num_scrambled_schematic=4&participantId=37DB0461F33B467E955ABB9F1EA2E2D1&assignmentId=0198bce3-f5a9-7ebe-8152-5fd96fee8294&projectId=0198bbb8-fd11-701d-9147-68794ad37298","37DB0461F33B467E955ABB9F1EA2E2D1-2025-08-18-12-11-55","","null","","images/causal_sequence/the_performance_causal/the_performance_causal_4.png","null","",""
"","","","","","image-button-response","108","2122764","0.0-14.0-1.0-1.6","37DB0461F33B467E955ABB9F1EA2E2D1","37DB0461F33B467E955ABB9F1EA2E2D1","0198bce3-f5a9-7ebe-8152-5fd96fee8294","0198bbb8-fd11-701d-9147-68794ad37298","{""num_scrambled_semantic"":""8"",""num_scrambled_causal"":""4"",""num_scrambled_schematic"":""4"",""participantId"":""37DB0461F33B467E955ABB9F1EA2E2D1"",""assignmentId"":""0198bce3-f5a9-7ebe-8152-5fd96fee8294"",""projectId"":""0198bbb8-fd11-701d-9147-68794ad37298""}","https://test12345.live/?num_scrambled_semantic=8&num_scrambled_causal=4&num_scrambled_schematic=4&participantId=37DB0461F33B467E955ABB9F1EA2E2D1&assignmentId=0198bce3-f5a9-7ebe-8152-5fd96fee8294&projectId=0198bbb8-fd11-701d-9147-68794ad37298","37DB0461F33B467E955ABB9F1EA2E2D1-2025-08-18-12-11-55","","2006","","images/causal_sequence/the_performance_causal/the_performance_causal_4.png","0","",""
"","","","","","image-button-response","109","2133572","0.0-14.0-1.0-2.6","37DB0461F33B467E955ABB9F1EA2E2D1","37DB0461F33B467E955ABB9F1EA2E2D1","0198bce3-f5a9-7ebe-8152-5fd96fee8294","0198bbb8-fd11-701d-9147-68794ad37298","{""num_scrambled_semantic"":""8"",""num_scrambled_causal"":""4"",""num_scrambled_schematic"":""4"",""participantId"":""37DB0461F33B467E955ABB9F1EA2E2D1"",""assignmentId"":""0198bce3-f5a9-7ebe-8152-5fd96fee8294"",""projectId"":""0198bbb8-fd11-701d-9147-68794ad37298""}","https://test12345.live/?num_scrambled_semantic=8&num_scrambled_causal=4&num_scrambled_schematic=4&participantId=37DB0461F33B467E955ABB9F1EA2E2D1&assignmentId=0198bce3-f5a9-7ebe-8152-5fd96fee8294&projectId=0198bbb8-fd11-701d-9147-68794ad37298","37DB0461F33B467E955ABB9F1EA2E2D1-2025-08-18-12-11-55","","null","","[]","null","",""
"","","","","","image-button-response","110","2138427","0.0-14.0-1.0-0.7","37DB0461F33B467E955ABB9F1EA2E2D1","37DB0461F33B467E955ABB9F1EA2E2D1","0198bce3-f5a9-7ebe-8152-5fd96fee8294","0198bbb8-fd11-701d-9147-68794ad37298","{""num_scrambled_semantic"":""8"",""num_scrambled_causal"":""4"",""num_scrambled_schematic"":""4"",""participantId"":""37DB0461F33B467E955ABB9F1EA2E2D1"",""assignmentId"":""0198bce3-f5a9-7ebe-8152-5fd96fee8294"",""projectId"":""0198bbb8-fd11-701d-9147-68794ad37298""}","https://test12345.live/?num_scrambled_semantic=8&num_scrambled_causal=4&num_scrambled_schematic=4&participantId=37DB0461F33B467E955ABB9F1EA2E2D1&assignmentId=0198bce3-f5a9-7ebe-8152-5fd96fee8294&projectId=0198bbb8-fd11-701d-9147-68794ad37298","37DB0461F33B467E955ABB9F1EA2E2D1-2025-08-18-12-11-55","","null","","images/causal_sequence/the_performance_causal/the_performance_causal_5.png","null","",""
"","","","","","image-button-response","111","2139246","0.0-14.0-1.0-1.7","37DB0461F33B467E955ABB9F1EA2E2D1","37DB0461F33B467E955ABB9F1EA2E2D1","0198bce3-f5a9-7ebe-8152-5fd96fee8294","0198bbb8-fd11-701d-9147-68794ad37298","{""num_scrambled_semantic"":""8"",""num_scrambled_causal"":""4"",""num_scrambled_schematic"":""4"",""participantId"":""37DB0461F33B467E955ABB9F1EA2E2D1"",""assignmentId"":""0198bce3-f5a9-7ebe-8152-5fd96fee8294"",""projectId"":""0198bbb8-fd11-701d-9147-68794ad37298""}","https://test12345.live/?num_scrambled_semantic=8&num_scrambled_causal=4&num_scrambled_schematic=4&participantId=37DB0461F33B467E955ABB9F1EA2E2D1&assignmentId=0198bce3-f5a9-7ebe-8152-5fd96fee8294&projectId=0198bbb8-fd11-701d-9147-68794ad37298","37DB0461F33B467E955ABB9F1EA2E2D1-2025-08-18-12-11-55","","818","","images/causal_sequence/the_performance_causal/the_performance_causal_5.png","0","",""
"","","","","","image-button-response","112","2150048","0.0-14.0-1.0-2.7","37DB0461F33B467E955ABB9F1EA2E2D1","37DB0461F33B467E955ABB9F1EA2E2D1","0198bce3-f5a9-7ebe-8152-5fd96fee8294","0198bbb8-fd11-701d-9147-68794ad37298","{""num_scrambled_semantic"":""8"",""num_scrambled_causal"":""4"",""num_scrambled_schematic"":""4"",""participantId"":""37DB0461F33B467E955ABB9F1EA2E2D1"",""assignmentId"":""0198bce3-f5a9-7ebe-8152-5fd96fee8294"",""projectId"":""0198bbb8-fd11-701d-9147-68794ad37298""}","https://test12345.live/?num_scrambled_semantic=8&num_scrambled_causal=4&num_scrambled_schematic=4&participantId=37DB0461F33B467E955ABB9F1EA2E2D1&assignmentId=0198bce3-f5a9-7ebe-8152-5fd96fee8294&projectId=0198bbb8-fd11-701d-9147-68794ad37298","37DB0461F33B467E955ABB9F1EA2E2D1-2025-08-18-12-11-55","","null","","[]","null","",""
"","","","","","image-button-response","113","2154576","0.0-14.0-1.0-0.8","37DB0461F33B467E955ABB9F1EA2E2D1","37DB0461F33B467E955ABB9F1EA2E2D1","0198bce3-f5a9-7ebe-8152-5fd96fee8294","0198bbb8-fd11-701d-9147-68794ad37298","{""num_scrambled_semantic"":""8"",""num_scrambled_causal"":""4"",""num_scrambled_schematic"":""4"",""participantId"":""37DB0461F33B467E955ABB9F1EA2E2D1"",""assignmentId"":""0198bce3-f5a9-7ebe-8152-5fd96fee8294"",""projectId"":""0198bbb8-fd11-701d-9147-68794ad37298""}","https://test12345.live/?num_scrambled_semantic=8&num_scrambled_causal=4&num_scrambled_schematic=4&participantId=37DB0461F33B467E955ABB9F1EA2E2D1&assignmentId=0198bce3-f5a9-7ebe-8152-5fd96fee8294&projectId=0198bbb8-fd11-701d-9147-68794ad37298","37DB0461F33B467E955ABB9F1EA2E2D1-2025-08-18-12-11-55","","null","","images/causal_sequence/the_performance_causal/the_performance_causal_6.png","null","",""
