"success","timeout","failed_images","failed_audio","failed_video","trial_type","trial_index","time_elapsed","internal_node_id","subject","subject_id","study_id","session_id","urlvar","current_url","audio_id","view_history","rt","device_id","stimulus","response","estimated_stimulus_onset","seq_name"
"true","false","[]","[]","[]","preload","0","40079","0.0-0.0","37E9D517073E451AB46539D6192DD87F","37E9D517073E451AB46539D6192DD87F","764ab8cf-c7de-4eff-b6b6-c077bb454499","051c06f1-75cc-4548-856d-4923ddaba0dc","{""num_scrambled_semantic"":""8"",""num_scrambled_causal"":""4"",""num_scrambled_schematic"":""4"",""participantId"":""37E9D517073E451AB46539D6192DD87F"",""assignmentId"":""764ab8cf-c7de-4eff-b6b6-c077bb454499"",""projectId"":""051c06f1-75cc-4548-856d-4923ddaba0dc""}","https://test12345.live/?num_scrambled_semantic=8&num_scrambled_causal=4&num_scrambled_schematic=4&participantId=37E9D517073E451AB46539D6192DD87F&assignmentId=764ab8cf-c7de-4eff-b6b6-c077bb454499&projectId=051c06f1-75cc-4548-856d-4923ddaba0dc","37E9D517073E451AB46539D6192DD87F-2025-05-15-19-06-44","","","","","","",""
"","","","","","instructions","1","68385","0.0-1.0","37E9D517073E451AB46539D6192DD87F","37E9D517073E451AB46539D6192DD87F","764ab8cf-c7de-4eff-b6b6-c077bb454499","051c06f1-75cc-4548-856d-4923ddaba0dc","{""num_scrambled_semantic"":""8"",""num_scrambled_causal"":""4"",""num_scrambled_schematic"":""4"",""participantId"":""37E9D517073E451AB46539D6192DD87F"",""assignmentId"":""764ab8cf-c7de-4eff-b6b6-c077bb454499"",""projectId"":""051c06f1-75cc-4548-856d-4923ddaba0dc""}","https://test12345.live/?num_scrambled_semantic=8&num_scrambled_causal=4&num_scrambled_schematic=4&participantId=37E9D517073E451AB46539D6192DD87F&assignmentId=764ab8cf-c7de-4eff-b6b6-c077bb454499&projectId=051c06f1-75cc-4548-856d-4923ddaba0dc","37E9D517073E451AB46539D6192DD87F-2025-05-15-19-06-44","[{""page_index"":0,""viewing_time"":28304}]","28305","","","","",""
"","","","","","instructions","2","124485","0.0-2.0","37E9D517073E451AB46539D6192DD87F","37E9D517073E451AB46539D6192DD87F","764ab8cf-c7de-4eff-b6b6-c077bb454499","051c06f1-75cc-4548-856d-4923ddaba0dc","{""num_scrambled_semantic"":""8"",""num_scrambled_causal"":""4"",""num_scrambled_schematic"":""4"",""participantId"":""37E9D517073E451AB46539D6192DD87F"",""assignmentId"":""764ab8cf-c7de-4eff-b6b6-c077bb454499"",""projectId"":""051c06f1-75cc-4548-856d-4923ddaba0dc""}","https://test12345.live/?num_scrambled_semantic=8&num_scrambled_causal=4&num_scrambled_schematic=4&participantId=37E9D517073E451AB46539D6192DD87F&assignmentId=764ab8cf-c7de-4eff-b6b6-c077bb454499&projectId=051c06f1-75cc-4548-856d-4923ddaba0dc","37E9D517073E451AB46539D6192DD87F-2025-05-15-19-06-44","[{""page_index"":0,""viewing_time"":56084}]","56085","","","","",""
"true","","","","","fullscreen","3","128702","0.0-3.0","37E9D517073E451AB46539D6192DD87F","37E9D517073E451AB46539D6192DD87F","764ab8cf-c7de-4eff-b6b6-c077bb454499","051c06f1-75cc-4548-856d-4923ddaba0dc","{""num_scrambled_semantic"":""8"",""num_scrambled_causal"":""4"",""num_scrambled_schematic"":""4"",""participantId"":""37E9D517073E451AB46539D6192DD87F"",""assignmentId"":""764ab8cf-c7de-4eff-b6b6-c077bb454499"",""projectId"":""051c06f1-75cc-4548-856d-4923ddaba0dc""}","https://test12345.live/?num_scrambled_semantic=8&num_scrambled_causal=4&num_scrambled_schematic=4&participantId=37E9D517073E451AB46539D6192DD87F&assignmentId=764ab8cf-c7de-4eff-b6b6-c077bb454499&projectId=051c06f1-75cc-4548-856d-4923ddaba0dc","37E9D517073E451AB46539D6192DD87F-2025-05-15-19-06-44","","3206","","","","",""
"","","","","","initialize-microphone","4","143193","0.0-4.0-0.0","37E9D517073E451AB46539D6192DD87F","37E9D517073E451AB46539D6192DD87F","764ab8cf-c7de-4eff-b6b6-c077bb454499","051c06f1-75cc-4548-856d-4923ddaba0dc","{""num_scrambled_semantic"":""8"",""num_scrambled_causal"":""4"",""num_scrambled_schematic"":""4"",""participantId"":""37E9D517073E451AB46539D6192DD87F"",""assignmentId"":""764ab8cf-c7de-4eff-b6b6-c077bb454499"",""projectId"":""051c06f1-75cc-4548-856d-4923ddaba0dc""}","https://test12345.live/?num_scrambled_semantic=8&num_scrambled_causal=4&num_scrambled_schematic=4&participantId=37E9D517073E451AB46539D6192DD87F&assignmentId=764ab8cf-c7de-4eff-b6b6-c077bb454499&projectId=051c06f1-75cc-4548-856d-4923ddaba0dc","37E9D517073E451AB46539D6192DD87F-2025-05-15-19-06-44","","","449bda9ab79a49440f806425e129887d4e4e75e23f67e9e6e9e8ca1ad7c9ac9d","","","",""
"","","","","","html-audio-response","5","171764","0.0-4.0-1.0","37E9D517073E451AB46539D6192DD87F","37E9D517073E451AB46539D6192DD87F","764ab8cf-c7de-4eff-b6b6-c077bb454499","051c06f1-75cc-4548-856d-4923ddaba0dc","{""num_scrambled_semantic"":""8"",""num_scrambled_causal"":""4"",""num_scrambled_schematic"":""4"",""participantId"":""37E9D517073E451AB46539D6192DD87F"",""assignmentId"":""764ab8cf-c7de-4eff-b6b6-c077bb454499"",""projectId"":""051c06f1-75cc-4548-856d-4923ddaba0dc""}","https://test12345.live/?num_scrambled_semantic=8&num_scrambled_causal=4&num_scrambled_schematic=4&participantId=37E9D517073E451AB46539D6192DD87F&assignmentId=764ab8cf-c7de-4eff-b6b6-c077bb454499&projectId=051c06f1-75cc-4548-856d-4923ddaba0dc","37E9D517073E451AB46539D6192DD87F-2025-05-15-19-06-44","","3591","","<span style=""color: red; font-size: 24px""> NOW RECORDING</span>
        <p>Please test Microphone</p>","","2",""
"","","","","","html-button-response","6","173890","0.0-4.0-2.0","37E9D517073E451AB46539D6192DD87F","37E9D517073E451AB46539D6192DD87F","764ab8cf-c7de-4eff-b6b6-c077bb454499","051c06f1-75cc-4548-856d-4923ddaba0dc","{""num_scrambled_semantic"":""8"",""num_scrambled_causal"":""4"",""num_scrambled_schematic"":""4"",""participantId"":""37E9D517073E451AB46539D6192DD87F"",""assignmentId"":""764ab8cf-c7de-4eff-b6b6-c077bb454499"",""projectId"":""051c06f1-75cc-4548-856d-4923ddaba0dc""}","https://test12345.live/?num_scrambled_semantic=8&num_scrambled_causal=4&num_scrambled_schematic=4&participantId=37E9D517073E451AB46539D6192DD87F&assignmentId=764ab8cf-c7de-4eff-b6b6-c077bb454499&projectId=051c06f1-75cc-4548-856d-4923ddaba0dc","37E9D517073E451AB46539D6192DD87F-2025-05-15-19-06-44","","2123","","<p style=""font-size:48px; color:red;"">Is Microphone OK?</p>","1","",""
"","","","","","instructions","7","199059","0.0-5.0","37E9D517073E451AB46539D6192DD87F","37E9D517073E451AB46539D6192DD87F","764ab8cf-c7de-4eff-b6b6-c077bb454499","051c06f1-75cc-4548-856d-4923ddaba0dc","{""num_scrambled_semantic"":""8"",""num_scrambled_causal"":""4"",""num_scrambled_schematic"":""4"",""participantId"":""37E9D517073E451AB46539D6192DD87F"",""assignmentId"":""764ab8cf-c7de-4eff-b6b6-c077bb454499"",""projectId"":""051c06f1-75cc-4548-856d-4923ddaba0dc""}","https://test12345.live/?num_scrambled_semantic=8&num_scrambled_causal=4&num_scrambled_schematic=4&participantId=37E9D517073E451AB46539D6192DD87F&assignmentId=764ab8cf-c7de-4eff-b6b6-c077bb454499&projectId=051c06f1-75cc-4548-856d-4923ddaba0dc","37E9D517073E451AB46539D6192DD87F-2025-05-15-19-06-44","[{""page_index"":0,""viewing_time"":13402},{""page_index"":1,""viewing_time"":11766}]","25169","","","","",""
"","","","","","image-button-response","8","205073","0.0-6.0-0.0","37E9D517073E451AB46539D6192DD87F","37E9D517073E451AB46539D6192DD87F","764ab8cf-c7de-4eff-b6b6-c077bb454499","051c06f1-75cc-4548-856d-4923ddaba0dc","{""num_scrambled_semantic"":""8"",""num_scrambled_causal"":""4"",""num_scrambled_schematic"":""4"",""participantId"":""37E9D517073E451AB46539D6192DD87F"",""assignmentId"":""764ab8cf-c7de-4eff-b6b6-c077bb454499"",""projectId"":""051c06f1-75cc-4548-856d-4923ddaba0dc""}","https://test12345.live/?num_scrambled_semantic=8&num_scrambled_causal=4&num_scrambled_schematic=4&participantId=37E9D517073E451AB46539D6192DD87F&assignmentId=764ab8cf-c7de-4eff-b6b6-c077bb454499&projectId=051c06f1-75cc-4548-856d-4923ddaba0dc","37E9D517073E451AB46539D6192DD87F-2025-05-15-19-06-44","","null","","images/instructions/movie_0.png","null","",""
"","","","","","image-button-response","9","209591","0.0-6.0-1.0-0.0","37E9D517073E451AB46539D6192DD87F","37E9D517073E451AB46539D6192DD87F","764ab8cf-c7de-4eff-b6b6-c077bb454499","051c06f1-75cc-4548-856d-4923ddaba0dc","{""num_scrambled_semantic"":""8"",""num_scrambled_causal"":""4"",""num_scrambled_schematic"":""4"",""participantId"":""37E9D517073E451AB46539D6192DD87F"",""assignmentId"":""764ab8cf-c7de-4eff-b6b6-c077bb454499"",""projectId"":""051c06f1-75cc-4548-856d-4923ddaba0dc""}","https://test12345.live/?num_scrambled_semantic=8&num_scrambled_causal=4&num_scrambled_schematic=4&participantId=37E9D517073E451AB46539D6192DD87F&assignmentId=764ab8cf-c7de-4eff-b6b6-c077bb454499&projectId=051c06f1-75cc-4548-856d-4923ddaba0dc","37E9D517073E451AB46539D6192DD87F-2025-05-15-19-06-44","","null","","images/instructions/movie_1.png","null","",""
"","","","","","image-button-response","10","211924","0.0-6.0-1.0-1.0","37E9D517073E451AB46539D6192DD87F","37E9D517073E451AB46539D6192DD87F","764ab8cf-c7de-4eff-b6b6-c077bb454499","051c06f1-75cc-4548-856d-4923ddaba0dc","{""num_scrambled_semantic"":""8"",""num_scrambled_causal"":""4"",""num_scrambled_schematic"":""4"",""participantId"":""37E9D517073E451AB46539D6192DD87F"",""assignmentId"":""764ab8cf-c7de-4eff-b6b6-c077bb454499"",""projectId"":""051c06f1-75cc-4548-856d-4923ddaba0dc""}","https://test12345.live/?num_scrambled_semantic=8&num_scrambled_causal=4&num_scrambled_schematic=4&participantId=37E9D517073E451AB46539D6192DD87F&assignmentId=764ab8cf-c7de-4eff-b6b6-c077bb454499&projectId=051c06f1-75cc-4548-856d-4923ddaba0dc","37E9D517073E451AB46539D6192DD87F-2025-05-15-19-06-44","","2330","","images/instructions/movie_1.png","0","",""
"","","","","","image-button-response","11","213733","0.0-6.0-1.0-2.0","37E9D517073E451AB46539D6192DD87F","37E9D517073E451AB46539D6192DD87F","764ab8cf-c7de-4eff-b6b6-c077bb454499","051c06f1-75cc-4548-856d-4923ddaba0dc","{""num_scrambled_semantic"":""8"",""num_scrambled_causal"":""4"",""num_scrambled_schematic"":""4"",""participantId"":""37E9D517073E451AB46539D6192DD87F"",""assignmentId"":""764ab8cf-c7de-4eff-b6b6-c077bb454499"",""projectId"":""051c06f1-75cc-4548-856d-4923ddaba0dc""}","https://test12345.live/?num_scrambled_semantic=8&num_scrambled_causal=4&num_scrambled_schematic=4&participantId=37E9D517073E451AB46539D6192DD87F&assignmentId=764ab8cf-c7de-4eff-b6b6-c077bb454499&projectId=051c06f1-75cc-4548-856d-4923ddaba0dc","37E9D517073E451AB46539D6192DD87F-2025-05-15-19-06-44","","null","","[]","null","",""
"","","","","","image-button-response","12","218250","0.0-6.0-1.0-0.1","37E9D517073E451AB46539D6192DD87F","37E9D517073E451AB46539D6192DD87F","764ab8cf-c7de-4eff-b6b6-c077bb454499","051c06f1-75cc-4548-856d-4923ddaba0dc","{""num_scrambled_semantic"":""8"",""num_scrambled_causal"":""4"",""num_scrambled_schematic"":""4"",""participantId"":""37E9D517073E451AB46539D6192DD87F"",""assignmentId"":""764ab8cf-c7de-4eff-b6b6-c077bb454499"",""projectId"":""051c06f1-75cc-4548-856d-4923ddaba0dc""}","https://test12345.live/?num_scrambled_semantic=8&num_scrambled_causal=4&num_scrambled_schematic=4&participantId=37E9D517073E451AB46539D6192DD87F&assignmentId=764ab8cf-c7de-4eff-b6b6-c077bb454499&projectId=051c06f1-75cc-4548-856d-4923ddaba0dc","37E9D517073E451AB46539D6192DD87F-2025-05-15-19-06-44","","null","","images/instructions/movie_2.png","null","",""
"","","","","","image-button-response","13","221201","0.0-6.0-1.0-1.1","37E9D517073E451AB46539D6192DD87F","37E9D517073E451AB46539D6192DD87F","764ab8cf-c7de-4eff-b6b6-c077bb454499","051c06f1-75cc-4548-856d-4923ddaba0dc","{""num_scrambled_semantic"":""8"",""num_scrambled_causal"":""4"",""num_scrambled_schematic"":""4"",""participantId"":""37E9D517073E451AB46539D6192DD87F"",""assignmentId"":""764ab8cf-c7de-4eff-b6b6-c077bb454499"",""projectId"":""051c06f1-75cc-4548-856d-4923ddaba0dc""}","https://test12345.live/?num_scrambled_semantic=8&num_scrambled_causal=4&num_scrambled_schematic=4&participantId=37E9D517073E451AB46539D6192DD87F&assignmentId=764ab8cf-c7de-4eff-b6b6-c077bb454499&projectId=051c06f1-75cc-4548-856d-4923ddaba0dc","37E9D517073E451AB46539D6192DD87F-2025-05-15-19-06-44","","2950","","images/instructions/movie_2.png","0","",""
"","","","","","image-button-response","14","223006","0.0-6.0-1.0-2.1","37E9D517073E451AB46539D6192DD87F","37E9D517073E451AB46539D6192DD87F","764ab8cf-c7de-4eff-b6b6-c077bb454499","051c06f1-75cc-4548-856d-4923ddaba0dc","{""num_scrambled_semantic"":""8"",""num_scrambled_causal"":""4"",""num_scrambled_schematic"":""4"",""participantId"":""37E9D517073E451AB46539D6192DD87F"",""assignmentId"":""764ab8cf-c7de-4eff-b6b6-c077bb454499"",""projectId"":""051c06f1-75cc-4548-856d-4923ddaba0dc""}","https://test12345.live/?num_scrambled_semantic=8&num_scrambled_causal=4&num_scrambled_schematic=4&participantId=37E9D517073E451AB46539D6192DD87F&assignmentId=764ab8cf-c7de-4eff-b6b6-c077bb454499&projectId=051c06f1-75cc-4548-856d-4923ddaba0dc","37E9D517073E451AB46539D6192DD87F-2025-05-15-19-06-44","","null","","[]","null","",""
"","","","","","image-button-response","15","227515","0.0-6.0-1.0-0.2","37E9D517073E451AB46539D6192DD87F","37E9D517073E451AB46539D6192DD87F","764ab8cf-c7de-4eff-b6b6-c077bb454499","051c06f1-75cc-4548-856d-4923ddaba0dc","{""num_scrambled_semantic"":""8"",""num_scrambled_causal"":""4"",""num_scrambled_schematic"":""4"",""participantId"":""37E9D517073E451AB46539D6192DD87F"",""assignmentId"":""764ab8cf-c7de-4eff-b6b6-c077bb454499"",""projectId"":""051c06f1-75cc-4548-856d-4923ddaba0dc""}","https://test12345.live/?num_scrambled_semantic=8&num_scrambled_causal=4&num_scrambled_schematic=4&participantId=37E9D517073E451AB46539D6192DD87F&assignmentId=764ab8cf-c7de-4eff-b6b6-c077bb454499&projectId=051c06f1-75cc-4548-856d-4923ddaba0dc","37E9D517073E451AB46539D6192DD87F-2025-05-15-19-06-44","","null","","images/instructions/movie_3.png","null","",""
"","","","","","image-button-response","16","229034","0.0-6.0-1.0-1.2","37E9D517073E451AB46539D6192DD87F","37E9D517073E451AB46539D6192DD87F","764ab8cf-c7de-4eff-b6b6-c077bb454499","051c06f1-75cc-4548-856d-4923ddaba0dc","{""num_scrambled_semantic"":""8"",""num_scrambled_causal"":""4"",""num_scrambled_schematic"":""4"",""participantId"":""37E9D517073E451AB46539D6192DD87F"",""assignmentId"":""764ab8cf-c7de-4eff-b6b6-c077bb454499"",""projectId"":""051c06f1-75cc-4548-856d-4923ddaba0dc""}","https://test12345.live/?num_scrambled_semantic=8&num_scrambled_causal=4&num_scrambled_schematic=4&participantId=37E9D517073E451AB46539D6192DD87F&assignmentId=764ab8cf-c7de-4eff-b6b6-c077bb454499&projectId=051c06f1-75cc-4548-856d-4923ddaba0dc","37E9D517073E451AB46539D6192DD87F-2025-05-15-19-06-44","","1516","","images/instructions/movie_3.png","0","",""
"","","","","","image-button-response","17","230844","0.0-6.0-1.0-2.2","37E9D517073E451AB46539D6192DD87F","37E9D517073E451AB46539D6192DD87F","764ab8cf-c7de-4eff-b6b6-c077bb454499","051c06f1-75cc-4548-856d-4923ddaba0dc","{""num_scrambled_semantic"":""8"",""num_scrambled_causal"":""4"",""num_scrambled_schematic"":""4"",""participantId"":""37E9D517073E451AB46539D6192DD87F"",""assignmentId"":""764ab8cf-c7de-4eff-b6b6-c077bb454499"",""projectId"":""051c06f1-75cc-4548-856d-4923ddaba0dc""}","https://test12345.live/?num_scrambled_semantic=8&num_scrambled_causal=4&num_scrambled_schematic=4&participantId=37E9D517073E451AB46539D6192DD87F&assignmentId=764ab8cf-c7de-4eff-b6b6-c077bb454499&projectId=051c06f1-75cc-4548-856d-4923ddaba0dc","37E9D517073E451AB46539D6192DD87F-2025-05-15-19-06-44","","null","","[]","null","",""
"","","","","","image-button-response","18","235357","0.0-6.0-1.0-0.3","37E9D517073E451AB46539D6192DD87F","37E9D517073E451AB46539D6192DD87F","764ab8cf-c7de-4eff-b6b6-c077bb454499","051c06f1-75cc-4548-856d-4923ddaba0dc","{""num_scrambled_semantic"":""8"",""num_scrambled_causal"":""4"",""num_scrambled_schematic"":""4"",""participantId"":""37E9D517073E451AB46539D6192DD87F"",""assignmentId"":""764ab8cf-c7de-4eff-b6b6-c077bb454499"",""projectId"":""051c06f1-75cc-4548-856d-4923ddaba0dc""}","https://test12345.live/?num_scrambled_semantic=8&num_scrambled_causal=4&num_scrambled_schematic=4&participantId=37E9D517073E451AB46539D6192DD87F&assignmentId=764ab8cf-c7de-4eff-b6b6-c077bb454499&projectId=051c06f1-75cc-4548-856d-4923ddaba0dc","37E9D517073E451AB46539D6192DD87F-2025-05-15-19-06-44","","null","","images/instructions/movie_4.png","null","",""
"","","","","","image-button-response","19","237951","0.0-6.0-1.0-1.3","37E9D517073E451AB46539D6192DD87F","37E9D517073E451AB46539D6192DD87F","764ab8cf-c7de-4eff-b6b6-c077bb454499","051c06f1-75cc-4548-856d-4923ddaba0dc","{""num_scrambled_semantic"":""8"",""num_scrambled_causal"":""4"",""num_scrambled_schematic"":""4"",""participantId"":""37E9D517073E451AB46539D6192DD87F"",""assignmentId"":""764ab8cf-c7de-4eff-b6b6-c077bb454499"",""projectId"":""051c06f1-75cc-4548-856d-4923ddaba0dc""}","https://test12345.live/?num_scrambled_semantic=8&num_scrambled_causal=4&num_scrambled_schematic=4&participantId=37E9D517073E451AB46539D6192DD87F&assignmentId=764ab8cf-c7de-4eff-b6b6-c077bb454499&projectId=051c06f1-75cc-4548-856d-4923ddaba0dc","37E9D517073E451AB46539D6192DD87F-2025-05-15-19-06-44","","2593","","images/instructions/movie_4.png","0","",""
"","","","","","image-button-response","20","239754","0.0-6.0-1.0-2.3","37E9D517073E451AB46539D6192DD87F","37E9D517073E451AB46539D6192DD87F","764ab8cf-c7de-4eff-b6b6-c077bb454499","051c06f1-75cc-4548-856d-4923ddaba0dc","{""num_scrambled_semantic"":""8"",""num_scrambled_causal"":""4"",""num_scrambled_schematic"":""4"",""participantId"":""37E9D517073E451AB46539D6192DD87F"",""assignmentId"":""764ab8cf-c7de-4eff-b6b6-c077bb454499"",""projectId"":""051c06f1-75cc-4548-856d-4923ddaba0dc""}","https://test12345.live/?num_scrambled_semantic=8&num_scrambled_causal=4&num_scrambled_schematic=4&participantId=37E9D517073E451AB46539D6192DD87F&assignmentId=764ab8cf-c7de-4eff-b6b6-c077bb454499&projectId=051c06f1-75cc-4548-856d-4923ddaba0dc","37E9D517073E451AB46539D6192DD87F-2025-05-15-19-06-44","","null","","[]","null","",""
"","","","","","instructions","21","248614","0.0-7.0","37E9D517073E451AB46539D6192DD87F","37E9D517073E451AB46539D6192DD87F","764ab8cf-c7de-4eff-b6b6-c077bb454499","051c06f1-75cc-4548-856d-4923ddaba0dc","{""num_scrambled_semantic"":""8"",""num_scrambled_causal"":""4"",""num_scrambled_schematic"":""4"",""participantId"":""37E9D517073E451AB46539D6192DD87F"",""assignmentId"":""764ab8cf-c7de-4eff-b6b6-c077bb454499"",""projectId"":""051c06f1-75cc-4548-856d-4923ddaba0dc""}","https://test12345.live/?num_scrambled_semantic=8&num_scrambled_causal=4&num_scrambled_schematic=4&participantId=37E9D517073E451AB46539D6192DD87F&assignmentId=764ab8cf-c7de-4eff-b6b6-c077bb454499&projectId=051c06f1-75cc-4548-856d-4923ddaba0dc","37E9D517073E451AB46539D6192DD87F-2025-05-15-19-06-44","[{""page_index"":0,""viewing_time"":7738},{""page_index"":1,""viewing_time"":1121}]","8859","","","","",""
"","","","","","html-audio-response","22","286989","0.0-8.0","37E9D517073E451AB46539D6192DD87F","37E9D517073E451AB46539D6192DD87F","764ab8cf-c7de-4eff-b6b6-c077bb454499","051c06f1-75cc-4548-856d-4923ddaba0dc","{""num_scrambled_semantic"":""8"",""num_scrambled_causal"":""4"",""num_scrambled_schematic"":""4"",""participantId"":""37E9D517073E451AB46539D6192DD87F"",""assignmentId"":""764ab8cf-c7de-4eff-b6b6-c077bb454499"",""projectId"":""051c06f1-75cc-4548-856d-4923ddaba0dc""}","https://test12345.live/?num_scrambled_semantic=8&num_scrambled_causal=4&num_scrambled_schematic=4&participantId=37E9D517073E451AB46539D6192DD87F&assignmentId=764ab8cf-c7de-4eff-b6b6-c077bb454499&projectId=051c06f1-75cc-4548-856d-4923ddaba0dc","37E9D517073E451AB46539D6192DD87F-2025-05-15-19-06-44","","14728","","[""<span style=\""color: red; font-size: 24px\""> NOW RECORDING</span><p>Please say out loud all the images you saw, as many as you can remember. The images can be said in any order.</p>""]","","2",""
"","","","","","instructions","23","290200","0.0-9.0","37E9D517073E451AB46539D6192DD87F","37E9D517073E451AB46539D6192DD87F","764ab8cf-c7de-4eff-b6b6-c077bb454499","051c06f1-75cc-4548-856d-4923ddaba0dc","{""num_scrambled_semantic"":""8"",""num_scrambled_causal"":""4"",""num_scrambled_schematic"":""4"",""participantId"":""37E9D517073E451AB46539D6192DD87F"",""assignmentId"":""764ab8cf-c7de-4eff-b6b6-c077bb454499"",""projectId"":""051c06f1-75cc-4548-856d-4923ddaba0dc""}","https://test12345.live/?num_scrambled_semantic=8&num_scrambled_causal=4&num_scrambled_schematic=4&participantId=37E9D517073E451AB46539D6192DD87F&assignmentId=764ab8cf-c7de-4eff-b6b6-c077bb454499&projectId=051c06f1-75cc-4548-856d-4923ddaba0dc","37E9D517073E451AB46539D6192DD87F-2025-05-15-19-06-44","[{""page_index"":0,""viewing_time"":3204}]","3204","","","","",""
"","","","","","image-button-response","24","296206","0.0-10.0-0.0","37E9D517073E451AB46539D6192DD87F","37E9D517073E451AB46539D6192DD87F","764ab8cf-c7de-4eff-b6b6-c077bb454499","051c06f1-75cc-4548-856d-4923ddaba0dc","{""num_scrambled_semantic"":""8"",""num_scrambled_causal"":""4"",""num_scrambled_schematic"":""4"",""participantId"":""37E9D517073E451AB46539D6192DD87F"",""assignmentId"":""764ab8cf-c7de-4eff-b6b6-c077bb454499"",""projectId"":""051c06f1-75cc-4548-856d-4923ddaba0dc""}","https://test12345.live/?num_scrambled_semantic=8&num_scrambled_causal=4&num_scrambled_schematic=4&participantId=37E9D517073E451AB46539D6192DD87F&assignmentId=764ab8cf-c7de-4eff-b6b6-c077bb454499&projectId=051c06f1-75cc-4548-856d-4923ddaba0dc","37E9D517073E451AB46539D6192DD87F-2025-05-15-19-06-44","","null","","images/causal_sequence/package_causal/package_causal_0.png","null","",""
"","","","","","image-button-response","25","300711","0.0-10.0-1.0-0.0","37E9D517073E451AB46539D6192DD87F","37E9D517073E451AB46539D6192DD87F","764ab8cf-c7de-4eff-b6b6-c077bb454499","051c06f1-75cc-4548-856d-4923ddaba0dc","{""num_scrambled_semantic"":""8"",""num_scrambled_causal"":""4"",""num_scrambled_schematic"":""4"",""participantId"":""37E9D517073E451AB46539D6192DD87F"",""assignmentId"":""764ab8cf-c7de-4eff-b6b6-c077bb454499"",""projectId"":""051c06f1-75cc-4548-856d-4923ddaba0dc""}","https://test12345.live/?num_scrambled_semantic=8&num_scrambled_causal=4&num_scrambled_schematic=4&participantId=37E9D517073E451AB46539D6192DD87F&assignmentId=764ab8cf-c7de-4eff-b6b6-c077bb454499&projectId=051c06f1-75cc-4548-856d-4923ddaba0dc","37E9D517073E451AB46539D6192DD87F-2025-05-15-19-06-44","","null","","images/causal_sequence/package_causal/package_causal_3.png","null","",""
"","","","","","image-button-response","26","304717","0.0-10.0-1.0-1.0","37E9D517073E451AB46539D6192DD87F","37E9D517073E451AB46539D6192DD87F","764ab8cf-c7de-4eff-b6b6-c077bb454499","051c06f1-75cc-4548-856d-4923ddaba0dc","{""num_scrambled_semantic"":""8"",""num_scrambled_causal"":""4"",""num_scrambled_schematic"":""4"",""participantId"":""37E9D517073E451AB46539D6192DD87F"",""assignmentId"":""764ab8cf-c7de-4eff-b6b6-c077bb454499"",""projectId"":""051c06f1-75cc-4548-856d-4923ddaba0dc""}","https://test12345.live/?num_scrambled_semantic=8&num_scrambled_causal=4&num_scrambled_schematic=4&participantId=37E9D517073E451AB46539D6192DD87F&assignmentId=764ab8cf-c7de-4eff-b6b6-c077bb454499&projectId=051c06f1-75cc-4548-856d-4923ddaba0dc","37E9D517073E451AB46539D6192DD87F-2025-05-15-19-06-44","","null","","images/causal_sequence/package_causal/package_causal_3.png","null","",""
"","","","","","image-button-response","27","306521","0.0-10.0-1.0-2.0","37E9D517073E451AB46539D6192DD87F","37E9D517073E451AB46539D6192DD87F","764ab8cf-c7de-4eff-b6b6-c077bb454499","051c06f1-75cc-4548-856d-4923ddaba0dc","{""num_scrambled_semantic"":""8"",""num_scrambled_causal"":""4"",""num_scrambled_schematic"":""4"",""participantId"":""37E9D517073E451AB46539D6192DD87F"",""assignmentId"":""764ab8cf-c7de-4eff-b6b6-c077bb454499"",""projectId"":""051c06f1-75cc-4548-856d-4923ddaba0dc""}","https://test12345.live/?num_scrambled_semantic=8&num_scrambled_causal=4&num_scrambled_schematic=4&participantId=37E9D517073E451AB46539D6192DD87F&assignmentId=764ab8cf-c7de-4eff-b6b6-c077bb454499&projectId=051c06f1-75cc-4548-856d-4923ddaba0dc","37E9D517073E451AB46539D6192DD87F-2025-05-15-19-06-44","","null","","[]","null","",""
"","","","","","image-button-response","28","311028","0.0-10.0-1.0-0.1","37E9D517073E451AB46539D6192DD87F","37E9D517073E451AB46539D6192DD87F","764ab8cf-c7de-4eff-b6b6-c077bb454499","051c06f1-75cc-4548-856d-4923ddaba0dc","{""num_scrambled_semantic"":""8"",""num_scrambled_causal"":""4"",""num_scrambled_schematic"":""4"",""participantId"":""37E9D517073E451AB46539D6192DD87F"",""assignmentId"":""764ab8cf-c7de-4eff-b6b6-c077bb454499"",""projectId"":""051c06f1-75cc-4548-856d-4923ddaba0dc""}","https://test12345.live/?num_scrambled_semantic=8&num_scrambled_causal=4&num_scrambled_schematic=4&participantId=37E9D517073E451AB46539D6192DD87F&assignmentId=764ab8cf-c7de-4eff-b6b6-c077bb454499&projectId=051c06f1-75cc-4548-856d-4923ddaba0dc","37E9D517073E451AB46539D6192DD87F-2025-05-15-19-06-44","","null","","images/causal_sequence/package_causal/package_causal_6.png","null","",""
"","","","","","image-button-response","29","315033","0.0-10.0-1.0-1.1","37E9D517073E451AB46539D6192DD87F","37E9D517073E451AB46539D6192DD87F","764ab8cf-c7de-4eff-b6b6-c077bb454499","051c06f1-75cc-4548-856d-4923ddaba0dc","{""num_scrambled_semantic"":""8"",""num_scrambled_causal"":""4"",""num_scrambled_schematic"":""4"",""participantId"":""37E9D517073E451AB46539D6192DD87F"",""assignmentId"":""764ab8cf-c7de-4eff-b6b6-c077bb454499"",""projectId"":""051c06f1-75cc-4548-856d-4923ddaba0dc""}","https://test12345.live/?num_scrambled_semantic=8&num_scrambled_causal=4&num_scrambled_schematic=4&participantId=37E9D517073E451AB46539D6192DD87F&assignmentId=764ab8cf-c7de-4eff-b6b6-c077bb454499&projectId=051c06f1-75cc-4548-856d-4923ddaba0dc","37E9D517073E451AB46539D6192DD87F-2025-05-15-19-06-44","","null","","images/causal_sequence/package_causal/package_causal_6.png","null","",""
"","","","","","image-button-response","30","316842","0.0-10.0-1.0-2.1","37E9D517073E451AB46539D6192DD87F","37E9D517073E451AB46539D6192DD87F","764ab8cf-c7de-4eff-b6b6-c077bb454499","051c06f1-75cc-4548-856d-4923ddaba0dc","{""num_scrambled_semantic"":""8"",""num_scrambled_causal"":""4"",""num_scrambled_schematic"":""4"",""participantId"":""37E9D517073E451AB46539D6192DD87F"",""assignmentId"":""764ab8cf-c7de-4eff-b6b6-c077bb454499"",""projectId"":""051c06f1-75cc-4548-856d-4923ddaba0dc""}","https://test12345.live/?num_scrambled_semantic=8&num_scrambled_causal=4&num_scrambled_schematic=4&participantId=37E9D517073E451AB46539D6192DD87F&assignmentId=764ab8cf-c7de-4eff-b6b6-c077bb454499&projectId=051c06f1-75cc-4548-856d-4923ddaba0dc","37E9D517073E451AB46539D6192DD87F-2025-05-15-19-06-44","","null","","[]","null","",""
"","","","","","image-button-response","31","321344","0.0-10.0-1.0-0.2","37E9D517073E451AB46539D6192DD87F","37E9D517073E451AB46539D6192DD87F","764ab8cf-c7de-4eff-b6b6-c077bb454499","051c06f1-75cc-4548-856d-4923ddaba0dc","{""num_scrambled_semantic"":""8"",""num_scrambled_causal"":""4"",""num_scrambled_schematic"":""4"",""participantId"":""37E9D517073E451AB46539D6192DD87F"",""assignmentId"":""764ab8cf-c7de-4eff-b6b6-c077bb454499"",""projectId"":""051c06f1-75cc-4548-856d-4923ddaba0dc""}","https://test12345.live/?num_scrambled_semantic=8&num_scrambled_causal=4&num_scrambled_schematic=4&participantId=37E9D517073E451AB46539D6192DD87F&assignmentId=764ab8cf-c7de-4eff-b6b6-c077bb454499&projectId=051c06f1-75cc-4548-856d-4923ddaba0dc","37E9D517073E451AB46539D6192DD87F-2025-05-15-19-06-44","","null","","images/causal_sequence/package_causal/package_causal_8.png","null","",""
"","","","","","image-button-response","32","323627","0.0-10.0-1.0-1.2","37E9D517073E451AB46539D6192DD87F","37E9D517073E451AB46539D6192DD87F","764ab8cf-c7de-4eff-b6b6-c077bb454499","051c06f1-75cc-4548-856d-4923ddaba0dc","{""num_scrambled_semantic"":""8"",""num_scrambled_causal"":""4"",""num_scrambled_schematic"":""4"",""participantId"":""37E9D517073E451AB46539D6192DD87F"",""assignmentId"":""764ab8cf-c7de-4eff-b6b6-c077bb454499"",""projectId"":""051c06f1-75cc-4548-856d-4923ddaba0dc""}","https://test12345.live/?num_scrambled_semantic=8&num_scrambled_causal=4&num_scrambled_schematic=4&participantId=37E9D517073E451AB46539D6192DD87F&assignmentId=764ab8cf-c7de-4eff-b6b6-c077bb454499&projectId=051c06f1-75cc-4548-856d-4923ddaba0dc","37E9D517073E451AB46539D6192DD87F-2025-05-15-19-06-44","","2281","","images/causal_sequence/package_causal/package_causal_8.png","0","",""
"","","","","","image-button-response","33","325432","0.0-10.0-1.0-2.2","37E9D517073E451AB46539D6192DD87F","37E9D517073E451AB46539D6192DD87F","764ab8cf-c7de-4eff-b6b6-c077bb454499","051c06f1-75cc-4548-856d-4923ddaba0dc","{""num_scrambled_semantic"":""8"",""num_scrambled_causal"":""4"",""num_scrambled_schematic"":""4"",""participantId"":""37E9D517073E451AB46539D6192DD87F"",""assignmentId"":""764ab8cf-c7de-4eff-b6b6-c077bb454499"",""projectId"":""051c06f1-75cc-4548-856d-4923ddaba0dc""}","https://test12345.live/?num_scrambled_semantic=8&num_scrambled_causal=4&num_scrambled_schematic=4&participantId=37E9D517073E451AB46539D6192DD87F&assignmentId=764ab8cf-c7de-4eff-b6b6-c077bb454499&projectId=051c06f1-75cc-4548-856d-4923ddaba0dc","37E9D517073E451AB46539D6192DD87F-2025-05-15-19-06-44","","null","","[]","null","",""
"","","","","","image-button-response","34","329941","0.0-10.0-1.0-0.3","37E9D517073E451AB46539D6192DD87F","37E9D517073E451AB46539D6192DD87F","764ab8cf-c7de-4eff-b6b6-c077bb454499","051c06f1-75cc-4548-856d-4923ddaba0dc","{""num_scrambled_semantic"":""8"",""num_scrambled_causal"":""4"",""num_scrambled_schematic"":""4"",""participantId"":""37E9D517073E451AB46539D6192DD87F"",""assignmentId"":""764ab8cf-c7de-4eff-b6b6-c077bb454499"",""projectId"":""051c06f1-75cc-4548-856d-4923ddaba0dc""}","https://test12345.live/?num_scrambled_semantic=8&num_scrambled_causal=4&num_scrambled_schematic=4&participantId=37E9D517073E451AB46539D6192DD87F&assignmentId=764ab8cf-c7de-4eff-b6b6-c077bb454499&projectId=051c06f1-75cc-4548-856d-4923ddaba0dc","37E9D517073E451AB46539D6192DD87F-2025-05-15-19-06-44","","null","","images/causal_sequence/package_causal/package_causal_2.png","null","",""
"","","","","","image-button-response","35","333012","0.0-10.0-1.0-1.3","37E9D517073E451AB46539D6192DD87F","37E9D517073E451AB46539D6192DD87F","764ab8cf-c7de-4eff-b6b6-c077bb454499","051c06f1-75cc-4548-856d-4923ddaba0dc","{""num_scrambled_semantic"":""8"",""num_scrambled_causal"":""4"",""num_scrambled_schematic"":""4"",""participantId"":""37E9D517073E451AB46539D6192DD87F"",""assignmentId"":""764ab8cf-c7de-4eff-b6b6-c077bb454499"",""projectId"":""051c06f1-75cc-4548-856d-4923ddaba0dc""}","https://test12345.live/?num_scrambled_semantic=8&num_scrambled_causal=4&num_scrambled_schematic=4&participantId=37E9D517073E451AB46539D6192DD87F&assignmentId=764ab8cf-c7de-4eff-b6b6-c077bb454499&projectId=051c06f1-75cc-4548-856d-4923ddaba0dc","37E9D517073E451AB46539D6192DD87F-2025-05-15-19-06-44","","3069","","images/causal_sequence/package_causal/package_causal_2.png","0","",""
"","","","","","image-button-response","36","334821","0.0-10.0-1.0-2.3","37E9D517073E451AB46539D6192DD87F","37E9D517073E451AB46539D6192DD87F","764ab8cf-c7de-4eff-b6b6-c077bb454499","051c06f1-75cc-4548-856d-4923ddaba0dc","{""num_scrambled_semantic"":""8"",""num_scrambled_causal"":""4"",""num_scrambled_schematic"":""4"",""participantId"":""37E9D517073E451AB46539D6192DD87F"",""assignmentId"":""764ab8cf-c7de-4eff-b6b6-c077bb454499"",""projectId"":""051c06f1-75cc-4548-856d-4923ddaba0dc""}","https://test12345.live/?num_scrambled_semantic=8&num_scrambled_causal=4&num_scrambled_schematic=4&participantId=37E9D517073E451AB46539D6192DD87F&assignmentId=764ab8cf-c7de-4eff-b6b6-c077bb454499&projectId=051c06f1-75cc-4548-856d-4923ddaba0dc","37E9D517073E451AB46539D6192DD87F-2025-05-15-19-06-44","","null","","[]","null","",""
"","","","","","image-button-response","37","339328","0.0-10.0-1.0-0.4","37E9D517073E451AB46539D6192DD87F","37E9D517073E451AB46539D6192DD87F","764ab8cf-c7de-4eff-b6b6-c077bb454499","051c06f1-75cc-4548-856d-4923ddaba0dc","{""num_scrambled_semantic"":""8"",""num_scrambled_causal"":""4"",""num_scrambled_schematic"":""4"",""participantId"":""37E9D517073E451AB46539D6192DD87F"",""assignmentId"":""764ab8cf-c7de-4eff-b6b6-c077bb454499"",""projectId"":""051c06f1-75cc-4548-856d-4923ddaba0dc""}","https://test12345.live/?num_scrambled_semantic=8&num_scrambled_causal=4&num_scrambled_schematic=4&participantId=37E9D517073E451AB46539D6192DD87F&assignmentId=764ab8cf-c7de-4eff-b6b6-c077bb454499&projectId=051c06f1-75cc-4548-856d-4923ddaba0dc","37E9D517073E451AB46539D6192DD87F-2025-05-15-19-06-44","","null","","images/causal_sequence/package_causal/package_causal_7.png","null","",""
"","","","","","image-button-response","38","343061","0.0-10.0-1.0-1.4","37E9D517073E451AB46539D6192DD87F","37E9D517073E451AB46539D6192DD87F","764ab8cf-c7de-4eff-b6b6-c077bb454499","051c06f1-75cc-4548-856d-4923ddaba0dc","{""num_scrambled_semantic"":""8"",""num_scrambled_causal"":""4"",""num_scrambled_schematic"":""4"",""participantId"":""37E9D517073E451AB46539D6192DD87F"",""assignmentId"":""764ab8cf-c7de-4eff-b6b6-c077bb454499"",""projectId"":""051c06f1-75cc-4548-856d-4923ddaba0dc""}","https://test12345.live/?num_scrambled_semantic=8&num_scrambled_causal=4&num_scrambled_schematic=4&participantId=37E9D517073E451AB46539D6192DD87F&assignmentId=764ab8cf-c7de-4eff-b6b6-c077bb454499&projectId=051c06f1-75cc-4548-856d-4923ddaba0dc","37E9D517073E451AB46539D6192DD87F-2025-05-15-19-06-44","","3731","","images/causal_sequence/package_causal/package_causal_7.png","0","",""
"","","","","","image-button-response","39","344873","0.0-10.0-1.0-2.4","37E9D517073E451AB46539D6192DD87F","37E9D517073E451AB46539D6192DD87F","764ab8cf-c7de-4eff-b6b6-c077bb454499","051c06f1-75cc-4548-856d-4923ddaba0dc","{""num_scrambled_semantic"":""8"",""num_scrambled_causal"":""4"",""num_scrambled_schematic"":""4"",""participantId"":""37E9D517073E451AB46539D6192DD87F"",""assignmentId"":""764ab8cf-c7de-4eff-b6b6-c077bb454499"",""projectId"":""051c06f1-75cc-4548-856d-4923ddaba0dc""}","https://test12345.live/?num_scrambled_semantic=8&num_scrambled_causal=4&num_scrambled_schematic=4&participantId=37E9D517073E451AB46539D6192DD87F&assignmentId=764ab8cf-c7de-4eff-b6b6-c077bb454499&projectId=051c06f1-75cc-4548-856d-4923ddaba0dc","37E9D517073E451AB46539D6192DD87F-2025-05-15-19-06-44","","null","","[]","null","",""
"","","","","","image-button-response","40","349381","0.0-10.0-1.0-0.5","37E9D517073E451AB46539D6192DD87F","37E9D517073E451AB46539D6192DD87F","764ab8cf-c7de-4eff-b6b6-c077bb454499","051c06f1-75cc-4548-856d-4923ddaba0dc","{""num_scrambled_semantic"":""8"",""num_scrambled_causal"":""4"",""num_scrambled_schematic"":""4"",""participantId"":""37E9D517073E451AB46539D6192DD87F"",""assignmentId"":""764ab8cf-c7de-4eff-b6b6-c077bb454499"",""projectId"":""051c06f1-75cc-4548-856d-4923ddaba0dc""}","https://test12345.live/?num_scrambled_semantic=8&num_scrambled_causal=4&num_scrambled_schematic=4&participantId=37E9D517073E451AB46539D6192DD87F&assignmentId=764ab8cf-c7de-4eff-b6b6-c077bb454499&projectId=051c06f1-75cc-4548-856d-4923ddaba0dc","37E9D517073E451AB46539D6192DD87F-2025-05-15-19-06-44","","null","","images/causal_sequence/package_causal/package_causal_4.png","null","",""
"","","","","","image-button-response","41","352403","0.0-10.0-1.0-1.5","37E9D517073E451AB46539D6192DD87F","37E9D517073E451AB46539D6192DD87F","764ab8cf-c7de-4eff-b6b6-c077bb454499","051c06f1-75cc-4548-856d-4923ddaba0dc","{""num_scrambled_semantic"":""8"",""num_scrambled_causal"":""4"",""num_scrambled_schematic"":""4"",""participantId"":""37E9D517073E451AB46539D6192DD87F"",""assignmentId"":""764ab8cf-c7de-4eff-b6b6-c077bb454499"",""projectId"":""051c06f1-75cc-4548-856d-4923ddaba0dc""}","https://test12345.live/?num_scrambled_semantic=8&num_scrambled_causal=4&num_scrambled_schematic=4&participantId=37E9D517073E451AB46539D6192DD87F&assignmentId=764ab8cf-c7de-4eff-b6b6-c077bb454499&projectId=051c06f1-75cc-4548-856d-4923ddaba0dc","37E9D517073E451AB46539D6192DD87F-2025-05-15-19-06-44","","3020","","images/causal_sequence/package_causal/package_causal_4.png","1","",""
"","","","","","image-button-response","42","354212","0.0-10.0-1.0-2.5","37E9D517073E451AB46539D6192DD87F","37E9D517073E451AB46539D6192DD87F","764ab8cf-c7de-4eff-b6b6-c077bb454499","051c06f1-75cc-4548-856d-4923ddaba0dc","{""num_scrambled_semantic"":""8"",""num_scrambled_causal"":""4"",""num_scrambled_schematic"":""4"",""participantId"":""37E9D517073E451AB46539D6192DD87F"",""assignmentId"":""764ab8cf-c7de-4eff-b6b6-c077bb454499"",""projectId"":""051c06f1-75cc-4548-856d-4923ddaba0dc""}","https://test12345.live/?num_scrambled_semantic=8&num_scrambled_causal=4&num_scrambled_schematic=4&participantId=37E9D517073E451AB46539D6192DD87F&assignmentId=764ab8cf-c7de-4eff-b6b6-c077bb454499&projectId=051c06f1-75cc-4548-856d-4923ddaba0dc","37E9D517073E451AB46539D6192DD87F-2025-05-15-19-06-44","","null","","[]","null","",""
"","","","","","image-button-response","43","358729","0.0-10.0-1.0-0.6","37E9D517073E451AB46539D6192DD87F","37E9D517073E451AB46539D6192DD87F","764ab8cf-c7de-4eff-b6b6-c077bb454499","051c06f1-75cc-4548-856d-4923ddaba0dc","{""num_scrambled_semantic"":""8"",""num_scrambled_causal"":""4"",""num_scrambled_schematic"":""4"",""participantId"":""37E9D517073E451AB46539D6192DD87F"",""assignmentId"":""764ab8cf-c7de-4eff-b6b6-c077bb454499"",""projectId"":""051c06f1-75cc-4548-856d-4923ddaba0dc""}","https://test12345.live/?num_scrambled_semantic=8&num_scrambled_causal=4&num_scrambled_schematic=4&participantId=37E9D517073E451AB46539D6192DD87F&assignmentId=764ab8cf-c7de-4eff-b6b6-c077bb454499&projectId=051c06f1-75cc-4548-856d-4923ddaba0dc","37E9D517073E451AB46539D6192DD87F-2025-05-15-19-06-44","","null","","images/causal_sequence/package_causal/package_causal_9.png","null","",""
"","","","","","image-button-response","44","360365","0.0-10.0-1.0-1.6","37E9D517073E451AB46539D6192DD87F","37E9D517073E451AB46539D6192DD87F","764ab8cf-c7de-4eff-b6b6-c077bb454499","051c06f1-75cc-4548-856d-4923ddaba0dc","{""num_scrambled_semantic"":""8"",""num_scrambled_causal"":""4"",""num_scrambled_schematic"":""4"",""participantId"":""37E9D517073E451AB46539D6192DD87F"",""assignmentId"":""764ab8cf-c7de-4eff-b6b6-c077bb454499"",""projectId"":""051c06f1-75cc-4548-856d-4923ddaba0dc""}","https://test12345.live/?num_scrambled_semantic=8&num_scrambled_causal=4&num_scrambled_schematic=4&participantId=37E9D517073E451AB46539D6192DD87F&assignmentId=764ab8cf-c7de-4eff-b6b6-c077bb454499&projectId=051c06f1-75cc-4548-856d-4923ddaba0dc","37E9D517073E451AB46539D6192DD87F-2025-05-15-19-06-44","","1633","","images/causal_sequence/package_causal/package_causal_9.png","0","",""
"","","","","","image-button-response","45","362182","0.0-10.0-1.0-2.6","37E9D517073E451AB46539D6192DD87F","37E9D517073E451AB46539D6192DD87F","764ab8cf-c7de-4eff-b6b6-c077bb454499","051c06f1-75cc-4548-856d-4923ddaba0dc","{""num_scrambled_semantic"":""8"",""num_scrambled_causal"":""4"",""num_scrambled_schematic"":""4"",""participantId"":""37E9D517073E451AB46539D6192DD87F"",""assignmentId"":""764ab8cf-c7de-4eff-b6b6-c077bb454499"",""projectId"":""051c06f1-75cc-4548-856d-4923ddaba0dc""}","https://test12345.live/?num_scrambled_semantic=8&num_scrambled_causal=4&num_scrambled_schematic=4&participantId=37E9D517073E451AB46539D6192DD87F&assignmentId=764ab8cf-c7de-4eff-b6b6-c077bb454499&projectId=051c06f1-75cc-4548-856d-4923ddaba0dc","37E9D517073E451AB46539D6192DD87F-2025-05-15-19-06-44","","null","","[]","null","",""
"","","","","","image-button-response","46","366691","0.0-10.0-1.0-0.7","37E9D517073E451AB46539D6192DD87F","37E9D517073E451AB46539D6192DD87F","764ab8cf-c7de-4eff-b6b6-c077bb454499","051c06f1-75cc-4548-856d-4923ddaba0dc","{""num_scrambled_semantic"":""8"",""num_scrambled_causal"":""4"",""num_scrambled_schematic"":""4"",""participantId"":""37E9D517073E451AB46539D6192DD87F"",""assignmentId"":""764ab8cf-c7de-4eff-b6b6-c077bb454499"",""projectId"":""051c06f1-75cc-4548-856d-4923ddaba0dc""}","https://test12345.live/?num_scrambled_semantic=8&num_scrambled_causal=4&num_scrambled_schematic=4&participantId=37E9D517073E451AB46539D6192DD87F&assignmentId=764ab8cf-c7de-4eff-b6b6-c077bb454499&projectId=051c06f1-75cc-4548-856d-4923ddaba0dc","37E9D517073E451AB46539D6192DD87F-2025-05-15-19-06-44","","null","","images/causal_sequence/package_causal/package_causal_5.png","null","",""
"","","","","","image-button-response","47","369892","0.0-10.0-1.0-1.7","37E9D517073E451AB46539D6192DD87F","37E9D517073E451AB46539D6192DD87F","764ab8cf-c7de-4eff-b6b6-c077bb454499","051c06f1-75cc-4548-856d-4923ddaba0dc","{""num_scrambled_semantic"":""8"",""num_scrambled_causal"":""4"",""num_scrambled_schematic"":""4"",""participantId"":""37E9D517073E451AB46539D6192DD87F"",""assignmentId"":""764ab8cf-c7de-4eff-b6b6-c077bb454499"",""projectId"":""051c06f1-75cc-4548-856d-4923ddaba0dc""}","https://test12345.live/?num_scrambled_semantic=8&num_scrambled_causal=4&num_scrambled_schematic=4&participantId=37E9D517073E451AB46539D6192DD87F&assignmentId=764ab8cf-c7de-4eff-b6b6-c077bb454499&projectId=051c06f1-75cc-4548-856d-4923ddaba0dc","37E9D517073E451AB46539D6192DD87F-2025-05-15-19-06-44","","3198","","images/causal_sequence/package_causal/package_causal_5.png","0","",""
"","","","","","image-button-response","48","371706","0.0-10.0-1.0-2.7","37E9D517073E451AB46539D6192DD87F","37E9D517073E451AB46539D6192DD87F","764ab8cf-c7de-4eff-b6b6-c077bb454499","051c06f1-75cc-4548-856d-4923ddaba0dc","{""num_scrambled_semantic"":""8"",""num_scrambled_causal"":""4"",""num_scrambled_schematic"":""4"",""participantId"":""37E9D517073E451AB46539D6192DD87F"",""assignmentId"":""764ab8cf-c7de-4eff-b6b6-c077bb454499"",""projectId"":""051c06f1-75cc-4548-856d-4923ddaba0dc""}","https://test12345.live/?num_scrambled_semantic=8&num_scrambled_causal=4&num_scrambled_schematic=4&participantId=37E9D517073E451AB46539D6192DD87F&assignmentId=764ab8cf-c7de-4eff-b6b6-c077bb454499&projectId=051c06f1-75cc-4548-856d-4923ddaba0dc","37E9D517073E451AB46539D6192DD87F-2025-05-15-19-06-44","","null","","[]","null","",""
"","","","","","image-button-response","49","376219","0.0-10.0-1.0-0.8","37E9D517073E451AB46539D6192DD87F","37E9D517073E451AB46539D6192DD87F","764ab8cf-c7de-4eff-b6b6-c077bb454499","051c06f1-75cc-4548-856d-4923ddaba0dc","{""num_scrambled_semantic"":""8"",""num_scrambled_causal"":""4"",""num_scrambled_schematic"":""4"",""participantId"":""37E9D517073E451AB46539D6192DD87F"",""assignmentId"":""764ab8cf-c7de-4eff-b6b6-c077bb454499"",""projectId"":""051c06f1-75cc-4548-856d-4923ddaba0dc""}","https://test12345.live/?num_scrambled_semantic=8&num_scrambled_causal=4&num_scrambled_schematic=4&participantId=37E9D517073E451AB46539D6192DD87F&assignmentId=764ab8cf-c7de-4eff-b6b6-c077bb454499&projectId=051c06f1-75cc-4548-856d-4923ddaba0dc","37E9D517073E451AB46539D6192DD87F-2025-05-15-19-06-44","","null","","images/causal_sequence/package_causal/package_causal_1.png","null","",""
"","","","","","image-button-response","50","378819","0.0-10.0-1.0-1.8","37E9D517073E451AB46539D6192DD87F","37E9D517073E451AB46539D6192DD87F","764ab8cf-c7de-4eff-b6b6-c077bb454499","051c06f1-75cc-4548-856d-4923ddaba0dc","{""num_scrambled_semantic"":""8"",""num_scrambled_causal"":""4"",""num_scrambled_schematic"":""4"",""participantId"":""37E9D517073E451AB46539D6192DD87F"",""assignmentId"":""764ab8cf-c7de-4eff-b6b6-c077bb454499"",""projectId"":""051c06f1-75cc-4548-856d-4923ddaba0dc""}","https://test12345.live/?num_scrambled_semantic=8&num_scrambled_causal=4&num_scrambled_schematic=4&participantId=37E9D517073E451AB46539D6192DD87F&assignmentId=764ab8cf-c7de-4eff-b6b6-c077bb454499&projectId=051c06f1-75cc-4548-856d-4923ddaba0dc","37E9D517073E451AB46539D6192DD87F-2025-05-15-19-06-44","","2598","","images/causal_sequence/package_causal/package_causal_1.png","0","",""
"","","","","","image-button-response","51","380632","0.0-10.0-1.0-2.8","37E9D517073E451AB46539D6192DD87F","37E9D517073E451AB46539D6192DD87F","764ab8cf-c7de-4eff-b6b6-c077bb454499","051c06f1-75cc-4548-856d-4923ddaba0dc","{""num_scrambled_semantic"":""8"",""num_scrambled_causal"":""4"",""num_scrambled_schematic"":""4"",""participantId"":""37E9D517073E451AB46539D6192DD87F"",""assignmentId"":""764ab8cf-c7de-4eff-b6b6-c077bb454499"",""projectId"":""051c06f1-75cc-4548-856d-4923ddaba0dc""}","https://test12345.live/?num_scrambled_semantic=8&num_scrambled_causal=4&num_scrambled_schematic=4&participantId=37E9D517073E451AB46539D6192DD87F&assignmentId=764ab8cf-c7de-4eff-b6b6-c077bb454499&projectId=051c06f1-75cc-4548-856d-4923ddaba0dc","37E9D517073E451AB46539D6192DD87F-2025-05-15-19-06-44","","null","","[]","null","",""
"","","","","","image-button-response","52","385145","0.0-10.0-1.0-0.9","37E9D517073E451AB46539D6192DD87F","37E9D517073E451AB46539D6192DD87F","764ab8cf-c7de-4eff-b6b6-c077bb454499","051c06f1-75cc-4548-856d-4923ddaba0dc","{""num_scrambled_semantic"":""8"",""num_scrambled_causal"":""4"",""num_scrambled_schematic"":""4"",""participantId"":""37E9D517073E451AB46539D6192DD87F"",""assignmentId"":""764ab8cf-c7de-4eff-b6b6-c077bb454499"",""projectId"":""051c06f1-75cc-4548-856d-4923ddaba0dc""}","https://test12345.live/?num_scrambled_semantic=8&num_scrambled_causal=4&num_scrambled_schematic=4&participantId=37E9D517073E451AB46539D6192DD87F&assignmentId=764ab8cf-c7de-4eff-b6b6-c077bb454499&projectId=051c06f1-75cc-4548-856d-4923ddaba0dc","37E9D517073E451AB46539D6192DD87F-2025-05-15-19-06-44","","null","","images/causal_sequence/package_causal/package_causal_ten.png","null","",""
"","","","","","image-button-response","53","388312","0.0-10.0-1.0-1.9","37E9D517073E451AB46539D6192DD87F","37E9D517073E451AB46539D6192DD87F","764ab8cf-c7de-4eff-b6b6-c077bb454499","051c06f1-75cc-4548-856d-4923ddaba0dc","{""num_scrambled_semantic"":""8"",""num_scrambled_causal"":""4"",""num_scrambled_schematic"":""4"",""participantId"":""37E9D517073E451AB46539D6192DD87F"",""assignmentId"":""764ab8cf-c7de-4eff-b6b6-c077bb454499"",""projectId"":""051c06f1-75cc-4548-856d-4923ddaba0dc""}","https://test12345.live/?num_scrambled_semantic=8&num_scrambled_causal=4&num_scrambled_schematic=4&participantId=37E9D517073E451AB46539D6192DD87F&assignmentId=764ab8cf-c7de-4eff-b6b6-c077bb454499&projectId=051c06f1-75cc-4548-856d-4923ddaba0dc","37E9D517073E451AB46539D6192DD87F-2025-05-15-19-06-44","","3165","","images/causal_sequence/package_causal/package_causal_ten.png","0","",""
"","","","","","image-button-response","54","390125","0.0-10.0-1.0-2.9","37E9D517073E451AB46539D6192DD87F","37E9D517073E451AB46539D6192DD87F","764ab8cf-c7de-4eff-b6b6-c077bb454499","051c06f1-75cc-4548-856d-4923ddaba0dc","{""num_scrambled_semantic"":""8"",""num_scrambled_causal"":""4"",""num_scrambled_schematic"":""4"",""participantId"":""37E9D517073E451AB46539D6192DD87F"",""assignmentId"":""764ab8cf-c7de-4eff-b6b6-c077bb454499"",""projectId"":""051c06f1-75cc-4548-856d-4923ddaba0dc""}","https://test12345.live/?num_scrambled_semantic=8&num_scrambled_causal=4&num_scrambled_schematic=4&participantId=37E9D517073E451AB46539D6192DD87F&assignmentId=764ab8cf-c7de-4eff-b6b6-c077bb454499&projectId=051c06f1-75cc-4548-856d-4923ddaba0dc","37E9D517073E451AB46539D6192DD87F-2025-05-15-19-06-44","","null","","[]","null","",""
"","","","","","html-audio-response","55","444134","0.0-11.0","37E9D517073E451AB46539D6192DD87F","37E9D517073E451AB46539D6192DD87F","764ab8cf-c7de-4eff-b6b6-c077bb454499","051c06f1-75cc-4548-856d-4923ddaba0dc","{""num_scrambled_semantic"":""8"",""num_scrambled_causal"":""4"",""num_scrambled_schematic"":""4"",""participantId"":""37E9D517073E451AB46539D6192DD87F"",""assignmentId"":""764ab8cf-c7de-4eff-b6b6-c077bb454499"",""projectId"":""051c06f1-75cc-4548-856d-4923ddaba0dc""}","https://test12345.live/?num_scrambled_semantic=8&num_scrambled_causal=4&num_scrambled_schematic=4&participantId=37E9D517073E451AB46539D6192DD87F&assignmentId=764ab8cf-c7de-4eff-b6b6-c077bb454499&projectId=051c06f1-75cc-4548-856d-4923ddaba0dc","37E9D517073E451AB46539D6192DD87F-2025-05-15-19-06-44","","26922","","[""<span style=\""color: red; font-size: 24px\""> NOW RECORDING</span><p>Please say out loud all the images you saw, as many as you can remember. The images can be said in any order.</p>""]","","7","package_causal"
"","","","","","image-button-response","56","450154","0.0-12.0-0.0","37E9D517073E451AB46539D6192DD87F","37E9D517073E451AB46539D6192DD87F","764ab8cf-c7de-4eff-b6b6-c077bb454499","051c06f1-75cc-4548-856d-4923ddaba0dc","{""num_scrambled_semantic"":""8"",""num_scrambled_causal"":""4"",""num_scrambled_schematic"":""4"",""participantId"":""37E9D517073E451AB46539D6192DD87F"",""assignmentId"":""764ab8cf-c7de-4eff-b6b6-c077bb454499"",""projectId"":""051c06f1-75cc-4548-856d-4923ddaba0dc""}","https://test12345.live/?num_scrambled_semantic=8&num_scrambled_causal=4&num_scrambled_schematic=4&participantId=37E9D517073E451AB46539D6192DD87F&assignmentId=764ab8cf-c7de-4eff-b6b6-c077bb454499&projectId=051c06f1-75cc-4548-856d-4923ddaba0dc","37E9D517073E451AB46539D6192DD87F-2025-05-15-19-06-44","","null","","images/schematic_sequence/interview_scheme/interview_scheme_0.png","null","",""
"","","","","","image-button-response","57","454658","0.0-12.0-1.0-0.0","37E9D517073E451AB46539D6192DD87F","37E9D517073E451AB46539D6192DD87F","764ab8cf-c7de-4eff-b6b6-c077bb454499","051c06f1-75cc-4548-856d-4923ddaba0dc","{""num_scrambled_semantic"":""8"",""num_scrambled_causal"":""4"",""num_scrambled_schematic"":""4"",""participantId"":""37E9D517073E451AB46539D6192DD87F"",""assignmentId"":""764ab8cf-c7de-4eff-b6b6-c077bb454499"",""projectId"":""051c06f1-75cc-4548-856d-4923ddaba0dc""}","https://test12345.live/?num_scrambled_semantic=8&num_scrambled_causal=4&num_scrambled_schematic=4&participantId=37E9D517073E451AB46539D6192DD87F&assignmentId=764ab8cf-c7de-4eff-b6b6-c077bb454499&projectId=051c06f1-75cc-4548-856d-4923ddaba0dc","37E9D517073E451AB46539D6192DD87F-2025-05-15-19-06-44","","null","","images/schematic_sequence/interview_scheme/interview_scheme_1.png","null","",""
"","","","","","image-button-response","58","456950","0.0-12.0-1.0-1.0","37E9D517073E451AB46539D6192DD87F","37E9D517073E451AB46539D6192DD87F","764ab8cf-c7de-4eff-b6b6-c077bb454499","051c06f1-75cc-4548-856d-4923ddaba0dc","{""num_scrambled_semantic"":""8"",""num_scrambled_causal"":""4"",""num_scrambled_schematic"":""4"",""participantId"":""37E9D517073E451AB46539D6192DD87F"",""assignmentId"":""764ab8cf-c7de-4eff-b6b6-c077bb454499"",""projectId"":""051c06f1-75cc-4548-856d-4923ddaba0dc""}","https://test12345.live/?num_scrambled_semantic=8&num_scrambled_causal=4&num_scrambled_schematic=4&participantId=37E9D517073E451AB46539D6192DD87F&assignmentId=764ab8cf-c7de-4eff-b6b6-c077bb454499&projectId=051c06f1-75cc-4548-856d-4923ddaba0dc","37E9D517073E451AB46539D6192DD87F-2025-05-15-19-06-44","","2289","","images/schematic_sequence/interview_scheme/interview_scheme_1.png","1","",""
"","","","","","image-button-response","59","458760","0.0-12.0-1.0-2.0","37E9D517073E451AB46539D6192DD87F","37E9D517073E451AB46539D6192DD87F","764ab8cf-c7de-4eff-b6b6-c077bb454499","051c06f1-75cc-4548-856d-4923ddaba0dc","{""num_scrambled_semantic"":""8"",""num_scrambled_causal"":""4"",""num_scrambled_schematic"":""4"",""participantId"":""37E9D517073E451AB46539D6192DD87F"",""assignmentId"":""764ab8cf-c7de-4eff-b6b6-c077bb454499"",""projectId"":""051c06f1-75cc-4548-856d-4923ddaba0dc""}","https://test12345.live/?num_scrambled_semantic=8&num_scrambled_causal=4&num_scrambled_schematic=4&participantId=37E9D517073E451AB46539D6192DD87F&assignmentId=764ab8cf-c7de-4eff-b6b6-c077bb454499&projectId=051c06f1-75cc-4548-856d-4923ddaba0dc","37E9D517073E451AB46539D6192DD87F-2025-05-15-19-06-44","","null","","[]","null","",""
"","","","","","image-button-response","60","463272","0.0-12.0-1.0-0.1","37E9D517073E451AB46539D6192DD87F","37E9D517073E451AB46539D6192DD87F","764ab8cf-c7de-4eff-b6b6-c077bb454499","051c06f1-75cc-4548-856d-4923ddaba0dc","{""num_scrambled_semantic"":""8"",""num_scrambled_causal"":""4"",""num_scrambled_schematic"":""4"",""participantId"":""37E9D517073E451AB46539D6192DD87F"",""assignmentId"":""764ab8cf-c7de-4eff-b6b6-c077bb454499"",""projectId"":""051c06f1-75cc-4548-856d-4923ddaba0dc""}","https://test12345.live/?num_scrambled_semantic=8&num_scrambled_causal=4&num_scrambled_schematic=4&participantId=37E9D517073E451AB46539D6192DD87F&assignmentId=764ab8cf-c7de-4eff-b6b6-c077bb454499&projectId=051c06f1-75cc-4548-856d-4923ddaba0dc","37E9D517073E451AB46539D6192DD87F-2025-05-15-19-06-44","","null","","images/schematic_sequence/interview_scheme/interview_scheme_6.png","null","",""
"","","","","","image-button-response","61","465191","0.0-12.0-1.0-1.1","37E9D517073E451AB46539D6192DD87F","37E9D517073E451AB46539D6192DD87F","764ab8cf-c7de-4eff-b6b6-c077bb454499","051c06f1-75cc-4548-856d-4923ddaba0dc","{""num_scrambled_semantic"":""8"",""num_scrambled_causal"":""4"",""num_scrambled_schematic"":""4"",""participantId"":""37E9D517073E451AB46539D6192DD87F"",""assignmentId"":""764ab8cf-c7de-4eff-b6b6-c077bb454499"",""projectId"":""051c06f1-75cc-4548-856d-4923ddaba0dc""}","https://test12345.live/?num_scrambled_semantic=8&num_scrambled_causal=4&num_scrambled_schematic=4&participantId=37E9D517073E451AB46539D6192DD87F&assignmentId=764ab8cf-c7de-4eff-b6b6-c077bb454499&projectId=051c06f1-75cc-4548-856d-4923ddaba0dc","37E9D517073E451AB46539D6192DD87F-2025-05-15-19-06-44","","1917","","images/schematic_sequence/interview_scheme/interview_scheme_6.png","0","",""
"","","","","","image-button-response","62","467001","0.0-12.0-1.0-2.1","37E9D517073E451AB46539D6192DD87F","37E9D517073E451AB46539D6192DD87F","764ab8cf-c7de-4eff-b6b6-c077bb454499","051c06f1-75cc-4548-856d-4923ddaba0dc","{""num_scrambled_semantic"":""8"",""num_scrambled_causal"":""4"",""num_scrambled_schematic"":""4"",""participantId"":""37E9D517073E451AB46539D6192DD87F"",""assignmentId"":""764ab8cf-c7de-4eff-b6b6-c077bb454499"",""projectId"":""051c06f1-75cc-4548-856d-4923ddaba0dc""}","https://test12345.live/?num_scrambled_semantic=8&num_scrambled_causal=4&num_scrambled_schematic=4&participantId=37E9D517073E451AB46539D6192DD87F&assignmentId=764ab8cf-c7de-4eff-b6b6-c077bb454499&projectId=051c06f1-75cc-4548-856d-4923ddaba0dc","37E9D517073E451AB46539D6192DD87F-2025-05-15-19-06-44","","null","","[]","null","",""
"","","","","","image-button-response","63","471518","0.0-12.0-1.0-0.2","37E9D517073E451AB46539D6192DD87F","37E9D517073E451AB46539D6192DD87F","764ab8cf-c7de-4eff-b6b6-c077bb454499","051c06f1-75cc-4548-856d-4923ddaba0dc","{""num_scrambled_semantic"":""8"",""num_scrambled_causal"":""4"",""num_scrambled_schematic"":""4"",""participantId"":""37E9D517073E451AB46539D6192DD87F"",""assignmentId"":""764ab8cf-c7de-4eff-b6b6-c077bb454499"",""projectId"":""051c06f1-75cc-4548-856d-4923ddaba0dc""}","https://test12345.live/?num_scrambled_semantic=8&num_scrambled_causal=4&num_scrambled_schematic=4&participantId=37E9D517073E451AB46539D6192DD87F&assignmentId=764ab8cf-c7de-4eff-b6b6-c077bb454499&projectId=051c06f1-75cc-4548-856d-4923ddaba0dc","37E9D517073E451AB46539D6192DD87F-2025-05-15-19-06-44","","null","","images/schematic_sequence/interview_scheme/interview_scheme_5.png","null","",""
"","","","","","image-button-response","64","473752","0.0-12.0-1.0-1.2","37E9D517073E451AB46539D6192DD87F","37E9D517073E451AB46539D6192DD87F","764ab8cf-c7de-4eff-b6b6-c077bb454499","051c06f1-75cc-4548-856d-4923ddaba0dc","{""num_scrambled_semantic"":""8"",""num_scrambled_causal"":""4"",""num_scrambled_schematic"":""4"",""participantId"":""37E9D517073E451AB46539D6192DD87F"",""assignmentId"":""764ab8cf-c7de-4eff-b6b6-c077bb454499"",""projectId"":""051c06f1-75cc-4548-856d-4923ddaba0dc""}","https://test12345.live/?num_scrambled_semantic=8&num_scrambled_causal=4&num_scrambled_schematic=4&participantId=37E9D517073E451AB46539D6192DD87F&assignmentId=764ab8cf-c7de-4eff-b6b6-c077bb454499&projectId=051c06f1-75cc-4548-856d-4923ddaba0dc","37E9D517073E451AB46539D6192DD87F-2025-05-15-19-06-44","","2231","","images/schematic_sequence/interview_scheme/interview_scheme_5.png","0","",""
"","","","","","image-button-response","65","475561","0.0-12.0-1.0-2.2","37E9D517073E451AB46539D6192DD87F","37E9D517073E451AB46539D6192DD87F","764ab8cf-c7de-4eff-b6b6-c077bb454499","051c06f1-75cc-4548-856d-4923ddaba0dc","{""num_scrambled_semantic"":""8"",""num_scrambled_causal"":""4"",""num_scrambled_schematic"":""4"",""participantId"":""37E9D517073E451AB46539D6192DD87F"",""assignmentId"":""764ab8cf-c7de-4eff-b6b6-c077bb454499"",""projectId"":""051c06f1-75cc-4548-856d-4923ddaba0dc""}","https://test12345.live/?num_scrambled_semantic=8&num_scrambled_causal=4&num_scrambled_schematic=4&participantId=37E9D517073E451AB46539D6192DD87F&assignmentId=764ab8cf-c7de-4eff-b6b6-c077bb454499&projectId=051c06f1-75cc-4548-856d-4923ddaba0dc","37E9D517073E451AB46539D6192DD87F-2025-05-15-19-06-44","","null","","[]","null","",""
"","","","","","image-button-response","66","480063","0.0-12.0-1.0-0.3","37E9D517073E451AB46539D6192DD87F","37E9D517073E451AB46539D6192DD87F","764ab8cf-c7de-4eff-b6b6-c077bb454499","051c06f1-75cc-4548-856d-4923ddaba0dc","{""num_scrambled_semantic"":""8"",""num_scrambled_causal"":""4"",""num_scrambled_schematic"":""4"",""participantId"":""37E9D517073E451AB46539D6192DD87F"",""assignmentId"":""764ab8cf-c7de-4eff-b6b6-c077bb454499"",""projectId"":""051c06f1-75cc-4548-856d-4923ddaba0dc""}","https://test12345.live/?num_scrambled_semantic=8&num_scrambled_causal=4&num_scrambled_schematic=4&participantId=37E9D517073E451AB46539D6192DD87F&assignmentId=764ab8cf-c7de-4eff-b6b6-c077bb454499&projectId=051c06f1-75cc-4548-856d-4923ddaba0dc","37E9D517073E451AB46539D6192DD87F-2025-05-15-19-06-44","","null","","images/schematic_sequence/interview_scheme/interview_scheme_3.png","null","",""
"","","","","","image-button-response","67","483413","0.0-12.0-1.0-1.3","37E9D517073E451AB46539D6192DD87F","37E9D517073E451AB46539D6192DD87F","764ab8cf-c7de-4eff-b6b6-c077bb454499","051c06f1-75cc-4548-856d-4923ddaba0dc","{""num_scrambled_semantic"":""8"",""num_scrambled_causal"":""4"",""num_scrambled_schematic"":""4"",""participantId"":""37E9D517073E451AB46539D6192DD87F"",""assignmentId"":""764ab8cf-c7de-4eff-b6b6-c077bb454499"",""projectId"":""051c06f1-75cc-4548-856d-4923ddaba0dc""}","https://test12345.live/?num_scrambled_semantic=8&num_scrambled_causal=4&num_scrambled_schematic=4&participantId=37E9D517073E451AB46539D6192DD87F&assignmentId=764ab8cf-c7de-4eff-b6b6-c077bb454499&projectId=051c06f1-75cc-4548-856d-4923ddaba0dc","37E9D517073E451AB46539D6192DD87F-2025-05-15-19-06-44","","3346","","images/schematic_sequence/interview_scheme/interview_scheme_3.png","1","",""
"","","","","","image-button-response","68","485223","0.0-12.0-1.0-2.3","37E9D517073E451AB46539D6192DD87F","37E9D517073E451AB46539D6192DD87F","764ab8cf-c7de-4eff-b6b6-c077bb454499","051c06f1-75cc-4548-856d-4923ddaba0dc","{""num_scrambled_semantic"":""8"",""num_scrambled_causal"":""4"",""num_scrambled_schematic"":""4"",""participantId"":""37E9D517073E451AB46539D6192DD87F"",""assignmentId"":""764ab8cf-c7de-4eff-b6b6-c077bb454499"",""projectId"":""051c06f1-75cc-4548-856d-4923ddaba0dc""}","https://test12345.live/?num_scrambled_semantic=8&num_scrambled_causal=4&num_scrambled_schematic=4&participantId=37E9D517073E451AB46539D6192DD87F&assignmentId=764ab8cf-c7de-4eff-b6b6-c077bb454499&projectId=051c06f1-75cc-4548-856d-4923ddaba0dc","37E9D517073E451AB46539D6192DD87F-2025-05-15-19-06-44","","null","","[]","null","",""
"","","","","","image-button-response","69","489727","0.0-12.0-1.0-0.4","37E9D517073E451AB46539D6192DD87F","37E9D517073E451AB46539D6192DD87F","764ab8cf-c7de-4eff-b6b6-c077bb454499","051c06f1-75cc-4548-856d-4923ddaba0dc","{""num_scrambled_semantic"":""8"",""num_scrambled_causal"":""4"",""num_scrambled_schematic"":""4"",""participantId"":""37E9D517073E451AB46539D6192DD87F"",""assignmentId"":""764ab8cf-c7de-4eff-b6b6-c077bb454499"",""projectId"":""051c06f1-75cc-4548-856d-4923ddaba0dc""}","https://test12345.live/?num_scrambled_semantic=8&num_scrambled_causal=4&num_scrambled_schematic=4&participantId=37E9D517073E451AB46539D6192DD87F&assignmentId=764ab8cf-c7de-4eff-b6b6-c077bb454499&projectId=051c06f1-75cc-4548-856d-4923ddaba0dc","37E9D517073E451AB46539D6192DD87F-2025-05-15-19-06-44","","null","","images/schematic_sequence/interview_scheme/interview_scheme_8.png","null","",""
"","","","","","image-button-response","70","491575","0.0-12.0-1.0-1.4","37E9D517073E451AB46539D6192DD87F","37E9D517073E451AB46539D6192DD87F","764ab8cf-c7de-4eff-b6b6-c077bb454499","051c06f1-75cc-4548-856d-4923ddaba0dc","{""num_scrambled_semantic"":""8"",""num_scrambled_causal"":""4"",""num_scrambled_schematic"":""4"",""participantId"":""37E9D517073E451AB46539D6192DD87F"",""assignmentId"":""764ab8cf-c7de-4eff-b6b6-c077bb454499"",""projectId"":""051c06f1-75cc-4548-856d-4923ddaba0dc""}","https://test12345.live/?num_scrambled_semantic=8&num_scrambled_causal=4&num_scrambled_schematic=4&participantId=37E9D517073E451AB46539D6192DD87F&assignmentId=764ab8cf-c7de-4eff-b6b6-c077bb454499&projectId=051c06f1-75cc-4548-856d-4923ddaba0dc","37E9D517073E451AB46539D6192DD87F-2025-05-15-19-06-44","","1846","","images/schematic_sequence/interview_scheme/interview_scheme_8.png","0","",""
"","","","","","image-button-response","71","493388","0.0-12.0-1.0-2.4","37E9D517073E451AB46539D6192DD87F","37E9D517073E451AB46539D6192DD87F","764ab8cf-c7de-4eff-b6b6-c077bb454499","051c06f1-75cc-4548-856d-4923ddaba0dc","{""num_scrambled_semantic"":""8"",""num_scrambled_causal"":""4"",""num_scrambled_schematic"":""4"",""participantId"":""37E9D517073E451AB46539D6192DD87F"",""assignmentId"":""764ab8cf-c7de-4eff-b6b6-c077bb454499"",""projectId"":""051c06f1-75cc-4548-856d-4923ddaba0dc""}","https://test12345.live/?num_scrambled_semantic=8&num_scrambled_causal=4&num_scrambled_schematic=4&participantId=37E9D517073E451AB46539D6192DD87F&assignmentId=764ab8cf-c7de-4eff-b6b6-c077bb454499&projectId=051c06f1-75cc-4548-856d-4923ddaba0dc","37E9D517073E451AB46539D6192DD87F-2025-05-15-19-06-44","","null","","[]","null","",""
"","","","","","image-button-response","72","497890","0.0-12.0-1.0-0.5","37E9D517073E451AB46539D6192DD87F","37E9D517073E451AB46539D6192DD87F","764ab8cf-c7de-4eff-b6b6-c077bb454499","051c06f1-75cc-4548-856d-4923ddaba0dc","{""num_scrambled_semantic"":""8"",""num_scrambled_causal"":""4"",""num_scrambled_schematic"":""4"",""participantId"":""37E9D517073E451AB46539D6192DD87F"",""assignmentId"":""764ab8cf-c7de-4eff-b6b6-c077bb454499"",""projectId"":""051c06f1-75cc-4548-856d-4923ddaba0dc""}","https://test12345.live/?num_scrambled_semantic=8&num_scrambled_causal=4&num_scrambled_schematic=4&participantId=37E9D517073E451AB46539D6192DD87F&assignmentId=764ab8cf-c7de-4eff-b6b6-c077bb454499&projectId=051c06f1-75cc-4548-856d-4923ddaba0dc","37E9D517073E451AB46539D6192DD87F-2025-05-15-19-06-44","","null","","images/schematic_sequence/interview_scheme/interview_scheme_2.png","null","",""
"","","","","","image-button-response","73","499614","0.0-12.0-1.0-1.5","37E9D517073E451AB46539D6192DD87F","37E9D517073E451AB46539D6192DD87F","764ab8cf-c7de-4eff-b6b6-c077bb454499","051c06f1-75cc-4548-856d-4923ddaba0dc","{""num_scrambled_semantic"":""8"",""num_scrambled_causal"":""4"",""num_scrambled_schematic"":""4"",""participantId"":""37E9D517073E451AB46539D6192DD87F"",""assignmentId"":""764ab8cf-c7de-4eff-b6b6-c077bb454499"",""projectId"":""051c06f1-75cc-4548-856d-4923ddaba0dc""}","https://test12345.live/?num_scrambled_semantic=8&num_scrambled_causal=4&num_scrambled_schematic=4&participantId=37E9D517073E451AB46539D6192DD87F&assignmentId=764ab8cf-c7de-4eff-b6b6-c077bb454499&projectId=051c06f1-75cc-4548-856d-4923ddaba0dc","37E9D517073E451AB46539D6192DD87F-2025-05-15-19-06-44","","1722","","images/schematic_sequence/interview_scheme/interview_scheme_2.png","1","",""
"","","","","","image-button-response","74","501419","0.0-12.0-1.0-2.5","37E9D517073E451AB46539D6192DD87F","37E9D517073E451AB46539D6192DD87F","764ab8cf-c7de-4eff-b6b6-c077bb454499","051c06f1-75cc-4548-856d-4923ddaba0dc","{""num_scrambled_semantic"":""8"",""num_scrambled_causal"":""4"",""num_scrambled_schematic"":""4"",""participantId"":""37E9D517073E451AB46539D6192DD87F"",""assignmentId"":""764ab8cf-c7de-4eff-b6b6-c077bb454499"",""projectId"":""051c06f1-75cc-4548-856d-4923ddaba0dc""}","https://test12345.live/?num_scrambled_semantic=8&num_scrambled_causal=4&num_scrambled_schematic=4&participantId=37E9D517073E451AB46539D6192DD87F&assignmentId=764ab8cf-c7de-4eff-b6b6-c077bb454499&projectId=051c06f1-75cc-4548-856d-4923ddaba0dc","37E9D517073E451AB46539D6192DD87F-2025-05-15-19-06-44","","null","","[]","null","",""
"","","","","","image-button-response","75","505921","0.0-12.0-1.0-0.6","37E9D517073E451AB46539D6192DD87F","37E9D517073E451AB46539D6192DD87F","764ab8cf-c7de-4eff-b6b6-c077bb454499","051c06f1-75cc-4548-856d-4923ddaba0dc","{""num_scrambled_semantic"":""8"",""num_scrambled_causal"":""4"",""num_scrambled_schematic"":""4"",""participantId"":""37E9D517073E451AB46539D6192DD87F"",""assignmentId"":""764ab8cf-c7de-4eff-b6b6-c077bb454499"",""projectId"":""051c06f1-75cc-4548-856d-4923ddaba0dc""}","https://test12345.live/?num_scrambled_semantic=8&num_scrambled_causal=4&num_scrambled_schematic=4&participantId=37E9D517073E451AB46539D6192DD87F&assignmentId=764ab8cf-c7de-4eff-b6b6-c077bb454499&projectId=051c06f1-75cc-4548-856d-4923ddaba0dc","37E9D517073E451AB46539D6192DD87F-2025-05-15-19-06-44","","null","","images/schematic_sequence/interview_scheme/interview_scheme_ten.png","null","",""
"","","","","","image-button-response","76","509924","0.0-12.0-1.0-1.6","37E9D517073E451AB46539D6192DD87F","37E9D517073E451AB46539D6192DD87F","764ab8cf-c7de-4eff-b6b6-c077bb454499","051c06f1-75cc-4548-856d-4923ddaba0dc","{""num_scrambled_semantic"":""8"",""num_scrambled_causal"":""4"",""num_scrambled_schematic"":""4"",""participantId"":""37E9D517073E451AB46539D6192DD87F"",""assignmentId"":""764ab8cf-c7de-4eff-b6b6-c077bb454499"",""projectId"":""051c06f1-75cc-4548-856d-4923ddaba0dc""}","https://test12345.live/?num_scrambled_semantic=8&num_scrambled_causal=4&num_scrambled_schematic=4&participantId=37E9D517073E451AB46539D6192DD87F&assignmentId=764ab8cf-c7de-4eff-b6b6-c077bb454499&projectId=051c06f1-75cc-4548-856d-4923ddaba0dc","37E9D517073E451AB46539D6192DD87F-2025-05-15-19-06-44","","null","","images/schematic_sequence/interview_scheme/interview_scheme_ten.png","null","",""
"","","","","","image-button-response","77","511728","0.0-12.0-1.0-2.6","37E9D517073E451AB46539D6192DD87F","37E9D517073E451AB46539D6192DD87F","764ab8cf-c7de-4eff-b6b6-c077bb454499","051c06f1-75cc-4548-856d-4923ddaba0dc","{""num_scrambled_semantic"":""8"",""num_scrambled_causal"":""4"",""num_scrambled_schematic"":""4"",""participantId"":""37E9D517073E451AB46539D6192DD87F"",""assignmentId"":""764ab8cf-c7de-4eff-b6b6-c077bb454499"",""projectId"":""051c06f1-75cc-4548-856d-4923ddaba0dc""}","https://test12345.live/?num_scrambled_semantic=8&num_scrambled_causal=4&num_scrambled_schematic=4&participantId=37E9D517073E451AB46539D6192DD87F&assignmentId=764ab8cf-c7de-4eff-b6b6-c077bb454499&projectId=051c06f1-75cc-4548-856d-4923ddaba0dc","37E9D517073E451AB46539D6192DD87F-2025-05-15-19-06-44","","null","","[]","null","",""
"","","","","","image-button-response","78","516234","0.0-12.0-1.0-0.7","37E9D517073E451AB46539D6192DD87F","37E9D517073E451AB46539D6192DD87F","764ab8cf-c7de-4eff-b6b6-c077bb454499","051c06f1-75cc-4548-856d-4923ddaba0dc","{""num_scrambled_semantic"":""8"",""num_scrambled_causal"":""4"",""num_scrambled_schematic"":""4"",""participantId"":""37E9D517073E451AB46539D6192DD87F"",""assignmentId"":""764ab8cf-c7de-4eff-b6b6-c077bb454499"",""projectId"":""051c06f1-75cc-4548-856d-4923ddaba0dc""}","https://test12345.live/?num_scrambled_semantic=8&num_scrambled_causal=4&num_scrambled_schematic=4&participantId=37E9D517073E451AB46539D6192DD87F&assignmentId=764ab8cf-c7de-4eff-b6b6-c077bb454499&projectId=051c06f1-75cc-4548-856d-4923ddaba0dc","37E9D517073E451AB46539D6192DD87F-2025-05-15-19-06-44","","null","","images/schematic_sequence/interview_scheme/interview_scheme_4.png","null","",""
"","","","","","image-button-response","79","519841","0.0-12.0-1.0-1.7","37E9D517073E451AB46539D6192DD87F","37E9D517073E451AB46539D6192DD87F","764ab8cf-c7de-4eff-b6b6-c077bb454499","051c06f1-75cc-4548-856d-4923ddaba0dc","{""num_scrambled_semantic"":""8"",""num_scrambled_causal"":""4"",""num_scrambled_schematic"":""4"",""participantId"":""37E9D517073E451AB46539D6192DD87F"",""assignmentId"":""764ab8cf-c7de-4eff-b6b6-c077bb454499"",""projectId"":""051c06f1-75cc-4548-856d-4923ddaba0dc""}","https://test12345.live/?num_scrambled_semantic=8&num_scrambled_causal=4&num_scrambled_schematic=4&participantId=37E9D517073E451AB46539D6192DD87F&assignmentId=764ab8cf-c7de-4eff-b6b6-c077bb454499&projectId=051c06f1-75cc-4548-856d-4923ddaba0dc","37E9D517073E451AB46539D6192DD87F-2025-05-15-19-06-44","","3605","","images/schematic_sequence/interview_scheme/interview_scheme_4.png","1","",""
"","","","","","image-button-response","80","521645","0.0-12.0-1.0-2.7","37E9D517073E451AB46539D6192DD87F","37E9D517073E451AB46539D6192DD87F","764ab8cf-c7de-4eff-b6b6-c077bb454499","051c06f1-75cc-4548-856d-4923ddaba0dc","{""num_scrambled_semantic"":""8"",""num_scrambled_causal"":""4"",""num_scrambled_schematic"":""4"",""participantId"":""37E9D517073E451AB46539D6192DD87F"",""assignmentId"":""764ab8cf-c7de-4eff-b6b6-c077bb454499"",""projectId"":""051c06f1-75cc-4548-856d-4923ddaba0dc""}","https://test12345.live/?num_scrambled_semantic=8&num_scrambled_causal=4&num_scrambled_schematic=4&participantId=37E9D517073E451AB46539D6192DD87F&assignmentId=764ab8cf-c7de-4eff-b6b6-c077bb454499&projectId=051c06f1-75cc-4548-856d-4923ddaba0dc","37E9D517073E451AB46539D6192DD87F-2025-05-15-19-06-44","","null","","[]","null","",""
"","","","","","image-button-response","81","526151","0.0-12.0-1.0-0.8","37E9D517073E451AB46539D6192DD87F","37E9D517073E451AB46539D6192DD87F","764ab8cf-c7de-4eff-b6b6-c077bb454499","051c06f1-75cc-4548-856d-4923ddaba0dc","{""num_scrambled_semantic"":""8"",""num_scrambled_causal"":""4"",""num_scrambled_schematic"":""4"",""participantId"":""37E9D517073E451AB46539D6192DD87F"",""assignmentId"":""764ab8cf-c7de-4eff-b6b6-c077bb454499"",""projectId"":""051c06f1-75cc-4548-856d-4923ddaba0dc""}","https://test12345.live/?num_scrambled_semantic=8&num_scrambled_causal=4&num_scrambled_schematic=4&participantId=37E9D517073E451AB46539D6192DD87F&assignmentId=764ab8cf-c7de-4eff-b6b6-c077bb454499&projectId=051c06f1-75cc-4548-856d-4923ddaba0dc","37E9D517073E451AB46539D6192DD87F-2025-05-15-19-06-44","","null","","images/schematic_sequence/interview_scheme/interview_scheme_7.png","null","",""
"","","","","","image-button-response","82","528465","0.0-12.0-1.0-1.8","37E9D517073E451AB46539D6192DD87F","37E9D517073E451AB46539D6192DD87F","764ab8cf-c7de-4eff-b6b6-c077bb454499","051c06f1-75cc-4548-856d-4923ddaba0dc","{""num_scrambled_semantic"":""8"",""num_scrambled_causal"":""4"",""num_scrambled_schematic"":""4"",""participantId"":""37E9D517073E451AB46539D6192DD87F"",""assignmentId"":""764ab8cf-c7de-4eff-b6b6-c077bb454499"",""projectId"":""051c06f1-75cc-4548-856d-4923ddaba0dc""}","https://test12345.live/?num_scrambled_semantic=8&num_scrambled_causal=4&num_scrambled_schematic=4&participantId=37E9D517073E451AB46539D6192DD87F&assignmentId=764ab8cf-c7de-4eff-b6b6-c077bb454499&projectId=051c06f1-75cc-4548-856d-4923ddaba0dc","37E9D517073E451AB46539D6192DD87F-2025-05-15-19-06-44","","2312","","images/schematic_sequence/interview_scheme/interview_scheme_7.png","0","",""
"","","","","","image-button-response","83","530272","0.0-12.0-1.0-2.8","37E9D517073E451AB46539D6192DD87F","37E9D517073E451AB46539D6192DD87F","764ab8cf-c7de-4eff-b6b6-c077bb454499","051c06f1-75cc-4548-856d-4923ddaba0dc","{""num_scrambled_semantic"":""8"",""num_scrambled_causal"":""4"",""num_scrambled_schematic"":""4"",""participantId"":""37E9D517073E451AB46539D6192DD87F"",""assignmentId"":""764ab8cf-c7de-4eff-b6b6-c077bb454499"",""projectId"":""051c06f1-75cc-4548-856d-4923ddaba0dc""}","https://test12345.live/?num_scrambled_semantic=8&num_scrambled_causal=4&num_scrambled_schematic=4&participantId=37E9D517073E451AB46539D6192DD87F&assignmentId=764ab8cf-c7de-4eff-b6b6-c077bb454499&projectId=051c06f1-75cc-4548-856d-4923ddaba0dc","37E9D517073E451AB46539D6192DD87F-2025-05-15-19-06-44","","null","","[]","null","",""
"","","","","","image-button-response","84","534779","0.0-12.0-1.0-0.9","37E9D517073E451AB46539D6192DD87F","37E9D517073E451AB46539D6192DD87F","764ab8cf-c7de-4eff-b6b6-c077bb454499","051c06f1-75cc-4548-856d-4923ddaba0dc","{""num_scrambled_semantic"":""8"",""num_scrambled_causal"":""4"",""num_scrambled_schematic"":""4"",""participantId"":""37E9D517073E451AB46539D6192DD87F"",""assignmentId"":""764ab8cf-c7de-4eff-b6b6-c077bb454499"",""projectId"":""051c06f1-75cc-4548-856d-4923ddaba0dc""}","https://test12345.live/?num_scrambled_semantic=8&num_scrambled_causal=4&num_scrambled_schematic=4&participantId=37E9D517073E451AB46539D6192DD87F&assignmentId=764ab8cf-c7de-4eff-b6b6-c077bb454499&projectId=051c06f1-75cc-4548-856d-4923ddaba0dc","37E9D517073E451AB46539D6192DD87F-2025-05-15-19-06-44","","null","","images/schematic_sequence/interview_scheme/interview_scheme_9.png","null","",""
"","","","","","image-button-response","85","536266","0.0-12.0-1.0-1.9","37E9D517073E451AB46539D6192DD87F","37E9D517073E451AB46539D6192DD87F","764ab8cf-c7de-4eff-b6b6-c077bb454499","051c06f1-75cc-4548-856d-4923ddaba0dc","{""num_scrambled_semantic"":""8"",""num_scrambled_causal"":""4"",""num_scrambled_schematic"":""4"",""participantId"":""37E9D517073E451AB46539D6192DD87F"",""assignmentId"":""764ab8cf-c7de-4eff-b6b6-c077bb454499"",""projectId"":""051c06f1-75cc-4548-856d-4923ddaba0dc""}","https://test12345.live/?num_scrambled_semantic=8&num_scrambled_causal=4&num_scrambled_schematic=4&participantId=37E9D517073E451AB46539D6192DD87F&assignmentId=764ab8cf-c7de-4eff-b6b6-c077bb454499&projectId=051c06f1-75cc-4548-856d-4923ddaba0dc","37E9D517073E451AB46539D6192DD87F-2025-05-15-19-06-44","","1485","","images/schematic_sequence/interview_scheme/interview_scheme_9.png","0","",""
"","","","","","image-button-response","86","538078","0.0-12.0-1.0-2.9","37E9D517073E451AB46539D6192DD87F","37E9D517073E451AB46539D6192DD87F","764ab8cf-c7de-4eff-b6b6-c077bb454499","051c06f1-75cc-4548-856d-4923ddaba0dc","{""num_scrambled_semantic"":""8"",""num_scrambled_causal"":""4"",""num_scrambled_schematic"":""4"",""participantId"":""37E9D517073E451AB46539D6192DD87F"",""assignmentId"":""764ab8cf-c7de-4eff-b6b6-c077bb454499"",""projectId"":""051c06f1-75cc-4548-856d-4923ddaba0dc""}","https://test12345.live/?num_scrambled_semantic=8&num_scrambled_causal=4&num_scrambled_schematic=4&participantId=37E9D517073E451AB46539D6192DD87F&assignmentId=764ab8cf-c7de-4eff-b6b6-c077bb454499&projectId=051c06f1-75cc-4548-856d-4923ddaba0dc","37E9D517073E451AB46539D6192DD87F-2025-05-15-19-06-44","","null","","[]","null","",""
"","","","","","html-audio-response","87","580482","0.0-13.0","37E9D517073E451AB46539D6192DD87F","37E9D517073E451AB46539D6192DD87F","764ab8cf-c7de-4eff-b6b6-c077bb454499","051c06f1-75cc-4548-856d-4923ddaba0dc","{""num_scrambled_semantic"":""8"",""num_scrambled_causal"":""4"",""num_scrambled_schematic"":""4"",""participantId"":""37E9D517073E451AB46539D6192DD87F"",""assignmentId"":""764ab8cf-c7de-4eff-b6b6-c077bb454499"",""projectId"":""051c06f1-75cc-4548-856d-4923ddaba0dc""}","https://test12345.live/?num_scrambled_semantic=8&num_scrambled_causal=4&num_scrambled_schematic=4&participantId=37E9D517073E451AB46539D6192DD87F&assignmentId=764ab8cf-c7de-4eff-b6b6-c077bb454499&projectId=051c06f1-75cc-4548-856d-4923ddaba0dc","37E9D517073E451AB46539D6192DD87F-2025-05-15-19-06-44","","20617","","[""<span style=\""color: red; font-size: 24px\""> NOW RECORDING</span><p>Please say out loud all the images you saw, as many as you can remember. The images can be said in any order.</p>""]","","5","interview_scheme"
"","","","","","image-button-response","88","586496","0.0-14.0-0.0","37E9D517073E451AB46539D6192DD87F","37E9D517073E451AB46539D6192DD87F","764ab8cf-c7de-4eff-b6b6-c077bb454499","051c06f1-75cc-4548-856d-4923ddaba0dc","{""num_scrambled_semantic"":""8"",""num_scrambled_causal"":""4"",""num_scrambled_schematic"":""4"",""participantId"":""37E9D517073E451AB46539D6192DD87F"",""assignmentId"":""764ab8cf-c7de-4eff-b6b6-c077bb454499"",""projectId"":""051c06f1-75cc-4548-856d-4923ddaba0dc""}","https://test12345.live/?num_scrambled_semantic=8&num_scrambled_causal=4&num_scrambled_schematic=4&participantId=37E9D517073E451AB46539D6192DD87F&assignmentId=764ab8cf-c7de-4eff-b6b6-c077bb454499&projectId=051c06f1-75cc-4548-856d-4923ddaba0dc","37E9D517073E451AB46539D6192DD87F-2025-05-15-19-06-44","","null","","images/semantic_sequence/exploring_nature_semantic/exploring_nature_semantic_0.png","null","",""
"","","","","","image-button-response","89","590999","0.0-14.0-1.0-0.0","37E9D517073E451AB46539D6192DD87F","37E9D517073E451AB46539D6192DD87F","764ab8cf-c7de-4eff-b6b6-c077bb454499","051c06f1-75cc-4548-856d-4923ddaba0dc","{""num_scrambled_semantic"":""8"",""num_scrambled_causal"":""4"",""num_scrambled_schematic"":""4"",""participantId"":""37E9D517073E451AB46539D6192DD87F"",""assignmentId"":""764ab8cf-c7de-4eff-b6b6-c077bb454499"",""projectId"":""051c06f1-75cc-4548-856d-4923ddaba0dc""}","https://test12345.live/?num_scrambled_semantic=8&num_scrambled_causal=4&num_scrambled_schematic=4&participantId=37E9D517073E451AB46539D6192DD87F&assignmentId=764ab8cf-c7de-4eff-b6b6-c077bb454499&projectId=051c06f1-75cc-4548-856d-4923ddaba0dc","37E9D517073E451AB46539D6192DD87F-2025-05-15-19-06-44","","null","","images/semantic_sequence/exploring_nature_semantic/exploring_nature_semantic_6.png","null","",""
"","","","","","image-button-response","90","593366","0.0-14.0-1.0-1.0","37E9D517073E451AB46539D6192DD87F","37E9D517073E451AB46539D6192DD87F","764ab8cf-c7de-4eff-b6b6-c077bb454499","051c06f1-75cc-4548-856d-4923ddaba0dc","{""num_scrambled_semantic"":""8"",""num_scrambled_causal"":""4"",""num_scrambled_schematic"":""4"",""participantId"":""37E9D517073E451AB46539D6192DD87F"",""assignmentId"":""764ab8cf-c7de-4eff-b6b6-c077bb454499"",""projectId"":""051c06f1-75cc-4548-856d-4923ddaba0dc""}","https://test12345.live/?num_scrambled_semantic=8&num_scrambled_causal=4&num_scrambled_schematic=4&participantId=37E9D517073E451AB46539D6192DD87F&assignmentId=764ab8cf-c7de-4eff-b6b6-c077bb454499&projectId=051c06f1-75cc-4548-856d-4923ddaba0dc","37E9D517073E451AB46539D6192DD87F-2025-05-15-19-06-44","","2364","","images/semantic_sequence/exploring_nature_semantic/exploring_nature_semantic_6.png","0","",""
"","","","","","image-button-response","91","595179","0.0-14.0-1.0-2.0","37E9D517073E451AB46539D6192DD87F","37E9D517073E451AB46539D6192DD87F","764ab8cf-c7de-4eff-b6b6-c077bb454499","051c06f1-75cc-4548-856d-4923ddaba0dc","{""num_scrambled_semantic"":""8"",""num_scrambled_causal"":""4"",""num_scrambled_schematic"":""4"",""participantId"":""37E9D517073E451AB46539D6192DD87F"",""assignmentId"":""764ab8cf-c7de-4eff-b6b6-c077bb454499"",""projectId"":""051c06f1-75cc-4548-856d-4923ddaba0dc""}","https://test12345.live/?num_scrambled_semantic=8&num_scrambled_causal=4&num_scrambled_schematic=4&participantId=37E9D517073E451AB46539D6192DD87F&assignmentId=764ab8cf-c7de-4eff-b6b6-c077bb454499&projectId=051c06f1-75cc-4548-856d-4923ddaba0dc","37E9D517073E451AB46539D6192DD87F-2025-05-15-19-06-44","","null","","[]","null","",""
"","","","","","image-button-response","92","599681","0.0-14.0-1.0-0.1","37E9D517073E451AB46539D6192DD87F","37E9D517073E451AB46539D6192DD87F","764ab8cf-c7de-4eff-b6b6-c077bb454499","051c06f1-75cc-4548-856d-4923ddaba0dc","{""num_scrambled_semantic"":""8"",""num_scrambled_causal"":""4"",""num_scrambled_schematic"":""4"",""participantId"":""37E9D517073E451AB46539D6192DD87F"",""assignmentId"":""764ab8cf-c7de-4eff-b6b6-c077bb454499"",""projectId"":""051c06f1-75cc-4548-856d-4923ddaba0dc""}","https://test12345.live/?num_scrambled_semantic=8&num_scrambled_causal=4&num_scrambled_schematic=4&participantId=37E9D517073E451AB46539D6192DD87F&assignmentId=764ab8cf-c7de-4eff-b6b6-c077bb454499&projectId=051c06f1-75cc-4548-856d-4923ddaba0dc","37E9D517073E451AB46539D6192DD87F-2025-05-15-19-06-44","","null","","images/semantic_sequence/exploring_nature_semantic/exploring_nature_semantic_4.png","null","",""
"","","","","","image-button-response","93","603691","0.0-14.0-1.0-1.1","37E9D517073E451AB46539D6192DD87F","37E9D517073E451AB46539D6192DD87F","764ab8cf-c7de-4eff-b6b6-c077bb454499","051c06f1-75cc-4548-856d-4923ddaba0dc","{""num_scrambled_semantic"":""8"",""num_scrambled_causal"":""4"",""num_scrambled_schematic"":""4"",""participantId"":""37E9D517073E451AB46539D6192DD87F"",""assignmentId"":""764ab8cf-c7de-4eff-b6b6-c077bb454499"",""projectId"":""051c06f1-75cc-4548-856d-4923ddaba0dc""}","https://test12345.live/?num_scrambled_semantic=8&num_scrambled_causal=4&num_scrambled_schematic=4&participantId=37E9D517073E451AB46539D6192DD87F&assignmentId=764ab8cf-c7de-4eff-b6b6-c077bb454499&projectId=051c06f1-75cc-4548-856d-4923ddaba0dc","37E9D517073E451AB46539D6192DD87F-2025-05-15-19-06-44","","null","","images/semantic_sequence/exploring_nature_semantic/exploring_nature_semantic_4.png","null","",""
"","","","","","image-button-response","94","605494","0.0-14.0-1.0-2.1","37E9D517073E451AB46539D6192DD87F","37E9D517073E451AB46539D6192DD87F","764ab8cf-c7de-4eff-b6b6-c077bb454499","051c06f1-75cc-4548-856d-4923ddaba0dc","{""num_scrambled_semantic"":""8"",""num_scrambled_causal"":""4"",""num_scrambled_schematic"":""4"",""participantId"":""37E9D517073E451AB46539D6192DD87F"",""assignmentId"":""764ab8cf-c7de-4eff-b6b6-c077bb454499"",""projectId"":""051c06f1-75cc-4548-856d-4923ddaba0dc""}","https://test12345.live/?num_scrambled_semantic=8&num_scrambled_causal=4&num_scrambled_schematic=4&participantId=37E9D517073E451AB46539D6192DD87F&assignmentId=764ab8cf-c7de-4eff-b6b6-c077bb454499&projectId=051c06f1-75cc-4548-856d-4923ddaba0dc","37E9D517073E451AB46539D6192DD87F-2025-05-15-19-06-44","","null","","[]","null","",""
"","","","","","image-button-response","95","610004","0.0-14.0-1.0-0.2","37E9D517073E451AB46539D6192DD87F","37E9D517073E451AB46539D6192DD87F","764ab8cf-c7de-4eff-b6b6-c077bb454499","051c06f1-75cc-4548-856d-4923ddaba0dc","{""num_scrambled_semantic"":""8"",""num_scrambled_causal"":""4"",""num_scrambled_schematic"":""4"",""participantId"":""37E9D517073E451AB46539D6192DD87F"",""assignmentId"":""764ab8cf-c7de-4eff-b6b6-c077bb454499"",""projectId"":""051c06f1-75cc-4548-856d-4923ddaba0dc""}","https://test12345.live/?num_scrambled_semantic=8&num_scrambled_causal=4&num_scrambled_schematic=4&participantId=37E9D517073E451AB46539D6192DD87F&assignmentId=764ab8cf-c7de-4eff-b6b6-c077bb454499&projectId=051c06f1-75cc-4548-856d-4923ddaba0dc","37E9D517073E451AB46539D6192DD87F-2025-05-15-19-06-44","","null","","images/semantic_sequence/exploring_nature_semantic/exploring_nature_semantic_8.png","null","",""
"","","","","","image-button-response","96","611211","0.0-14.0-1.0-1.2","37E9D517073E451AB46539D6192DD87F","37E9D517073E451AB46539D6192DD87F","764ab8cf-c7de-4eff-b6b6-c077bb454499","051c06f1-75cc-4548-856d-4923ddaba0dc","{""num_scrambled_semantic"":""8"",""num_scrambled_causal"":""4"",""num_scrambled_schematic"":""4"",""participantId"":""37E9D517073E451AB46539D6192DD87F"",""assignmentId"":""764ab8cf-c7de-4eff-b6b6-c077bb454499"",""projectId"":""051c06f1-75cc-4548-856d-4923ddaba0dc""}","https://test12345.live/?num_scrambled_semantic=8&num_scrambled_causal=4&num_scrambled_schematic=4&participantId=37E9D517073E451AB46539D6192DD87F&assignmentId=764ab8cf-c7de-4eff-b6b6-c077bb454499&projectId=051c06f1-75cc-4548-856d-4923ddaba0dc","37E9D517073E451AB46539D6192DD87F-2025-05-15-19-06-44","","1205","","images/semantic_sequence/exploring_nature_semantic/exploring_nature_semantic_8.png","0","",""
"","","","","","image-button-response","97","613015","0.0-14.0-1.0-2.2","37E9D517073E451AB46539D6192DD87F","37E9D517073E451AB46539D6192DD87F","764ab8cf-c7de-4eff-b6b6-c077bb454499","051c06f1-75cc-4548-856d-4923ddaba0dc","{""num_scrambled_semantic"":""8"",""num_scrambled_causal"":""4"",""num_scrambled_schematic"":""4"",""participantId"":""37E9D517073E451AB46539D6192DD87F"",""assignmentId"":""764ab8cf-c7de-4eff-b6b6-c077bb454499"",""projectId"":""051c06f1-75cc-4548-856d-4923ddaba0dc""}","https://test12345.live/?num_scrambled_semantic=8&num_scrambled_causal=4&num_scrambled_schematic=4&participantId=37E9D517073E451AB46539D6192DD87F&assignmentId=764ab8cf-c7de-4eff-b6b6-c077bb454499&projectId=051c06f1-75cc-4548-856d-4923ddaba0dc","37E9D517073E451AB46539D6192DD87F-2025-05-15-19-06-44","","null","","[]","null","",""
"","","","","","image-button-response","98","617530","0.0-14.0-1.0-0.3","37E9D517073E451AB46539D6192DD87F","37E9D517073E451AB46539D6192DD87F","764ab8cf-c7de-4eff-b6b6-c077bb454499","051c06f1-75cc-4548-856d-4923ddaba0dc","{""num_scrambled_semantic"":""8"",""num_scrambled_causal"":""4"",""num_scrambled_schematic"":""4"",""participantId"":""37E9D517073E451AB46539D6192DD87F"",""assignmentId"":""764ab8cf-c7de-4eff-b6b6-c077bb454499"",""projectId"":""051c06f1-75cc-4548-856d-4923ddaba0dc""}","https://test12345.live/?num_scrambled_semantic=8&num_scrambled_causal=4&num_scrambled_schematic=4&participantId=37E9D517073E451AB46539D6192DD87F&assignmentId=764ab8cf-c7de-4eff-b6b6-c077bb454499&projectId=051c06f1-75cc-4548-856d-4923ddaba0dc","37E9D517073E451AB46539D6192DD87F-2025-05-15-19-06-44","","null","","images/semantic_sequence/exploring_nature_semantic/exploring_nature_semantic_5.png","null","",""
"","","","","","image-button-response","99","621546","0.0-14.0-1.0-1.3","37E9D517073E451AB46539D6192DD87F","37E9D517073E451AB46539D6192DD87F","764ab8cf-c7de-4eff-b6b6-c077bb454499","051c06f1-75cc-4548-856d-4923ddaba0dc","{""num_scrambled_semantic"":""8"",""num_scrambled_causal"":""4"",""num_scrambled_schematic"":""4"",""participantId"":""37E9D517073E451AB46539D6192DD87F"",""assignmentId"":""764ab8cf-c7de-4eff-b6b6-c077bb454499"",""projectId"":""051c06f1-75cc-4548-856d-4923ddaba0dc""}","https://test12345.live/?num_scrambled_semantic=8&num_scrambled_causal=4&num_scrambled_schematic=4&participantId=37E9D517073E451AB46539D6192DD87F&assignmentId=764ab8cf-c7de-4eff-b6b6-c077bb454499&projectId=051c06f1-75cc-4548-856d-4923ddaba0dc","37E9D517073E451AB46539D6192DD87F-2025-05-15-19-06-44","","null","","images/semantic_sequence/exploring_nature_semantic/exploring_nature_semantic_5.png","null","",""
"","","","","","image-button-response","100","623354","0.0-14.0-1.0-2.3","37E9D517073E451AB46539D6192DD87F","37E9D517073E451AB46539D6192DD87F","764ab8cf-c7de-4eff-b6b6-c077bb454499","051c06f1-75cc-4548-856d-4923ddaba0dc","{""num_scrambled_semantic"":""8"",""num_scrambled_causal"":""4"",""num_scrambled_schematic"":""4"",""participantId"":""37E9D517073E451AB46539D6192DD87F"",""assignmentId"":""764ab8cf-c7de-4eff-b6b6-c077bb454499"",""projectId"":""051c06f1-75cc-4548-856d-4923ddaba0dc""}","https://test12345.live/?num_scrambled_semantic=8&num_scrambled_causal=4&num_scrambled_schematic=4&participantId=37E9D517073E451AB46539D6192DD87F&assignmentId=764ab8cf-c7de-4eff-b6b6-c077bb454499&projectId=051c06f1-75cc-4548-856d-4923ddaba0dc","37E9D517073E451AB46539D6192DD87F-2025-05-15-19-06-44","","null","","[]","null","",""
"","","","","","image-button-response","101","627862","0.0-14.0-1.0-0.4","37E9D517073E451AB46539D6192DD87F","37E9D517073E451AB46539D6192DD87F","764ab8cf-c7de-4eff-b6b6-c077bb454499","051c06f1-75cc-4548-856d-4923ddaba0dc","{""num_scrambled_semantic"":""8"",""num_scrambled_causal"":""4"",""num_scrambled_schematic"":""4"",""participantId"":""37E9D517073E451AB46539D6192DD87F"",""assignmentId"":""764ab8cf-c7de-4eff-b6b6-c077bb454499"",""projectId"":""051c06f1-75cc-4548-856d-4923ddaba0dc""}","https://test12345.live/?num_scrambled_semantic=8&num_scrambled_causal=4&num_scrambled_schematic=4&participantId=37E9D517073E451AB46539D6192DD87F&assignmentId=764ab8cf-c7de-4eff-b6b6-c077bb454499&projectId=051c06f1-75cc-4548-856d-4923ddaba0dc","37E9D517073E451AB46539D6192DD87F-2025-05-15-19-06-44","","null","","images/semantic_sequence/exploring_nature_semantic/exploring_nature_semantic_1.png","null","",""
"","","","","","image-button-response","102","630278","0.0-14.0-1.0-1.4","37E9D517073E451AB46539D6192DD87F","37E9D517073E451AB46539D6192DD87F","764ab8cf-c7de-4eff-b6b6-c077bb454499","051c06f1-75cc-4548-856d-4923ddaba0dc","{""num_scrambled_semantic"":""8"",""num_scrambled_causal"":""4"",""num_scrambled_schematic"":""4"",""participantId"":""37E9D517073E451AB46539D6192DD87F"",""assignmentId"":""764ab8cf-c7de-4eff-b6b6-c077bb454499"",""projectId"":""051c06f1-75cc-4548-856d-4923ddaba0dc""}","https://test12345.live/?num_scrambled_semantic=8&num_scrambled_causal=4&num_scrambled_schematic=4&participantId=37E9D517073E451AB46539D6192DD87F&assignmentId=764ab8cf-c7de-4eff-b6b6-c077bb454499&projectId=051c06f1-75cc-4548-856d-4923ddaba0dc","37E9D517073E451AB46539D6192DD87F-2025-05-15-19-06-44","","2413","","images/semantic_sequence/exploring_nature_semantic/exploring_nature_semantic_1.png","0","",""
"","","","","","image-button-response","103","632086","0.0-14.0-1.0-2.4","37E9D517073E451AB46539D6192DD87F","37E9D517073E451AB46539D6192DD87F","764ab8cf-c7de-4eff-b6b6-c077bb454499","051c06f1-75cc-4548-856d-4923ddaba0dc","{""num_scrambled_semantic"":""8"",""num_scrambled_causal"":""4"",""num_scrambled_schematic"":""4"",""participantId"":""37E9D517073E451AB46539D6192DD87F"",""assignmentId"":""764ab8cf-c7de-4eff-b6b6-c077bb454499"",""projectId"":""051c06f1-75cc-4548-856d-4923ddaba0dc""}","https://test12345.live/?num_scrambled_semantic=8&num_scrambled_causal=4&num_scrambled_schematic=4&participantId=37E9D517073E451AB46539D6192DD87F&assignmentId=764ab8cf-c7de-4eff-b6b6-c077bb454499&projectId=051c06f1-75cc-4548-856d-4923ddaba0dc","37E9D517073E451AB46539D6192DD87F-2025-05-15-19-06-44","","null","","[]","null","",""
"","","","","","image-button-response","104","636596","0.0-14.0-1.0-0.5","37E9D517073E451AB46539D6192DD87F","37E9D517073E451AB46539D6192DD87F","764ab8cf-c7de-4eff-b6b6-c077bb454499","051c06f1-75cc-4548-856d-4923ddaba0dc","{""num_scrambled_semantic"":""8"",""num_scrambled_causal"":""4"",""num_scrambled_schematic"":""4"",""participantId"":""37E9D517073E451AB46539D6192DD87F"",""assignmentId"":""764ab8cf-c7de-4eff-b6b6-c077bb454499"",""projectId"":""051c06f1-75cc-4548-856d-4923ddaba0dc""}","https://test12345.live/?num_scrambled_semantic=8&num_scrambled_causal=4&num_scrambled_schematic=4&participantId=37E9D517073E451AB46539D6192DD87F&assignmentId=764ab8cf-c7de-4eff-b6b6-c077bb454499&projectId=051c06f1-75cc-4548-856d-4923ddaba0dc","37E9D517073E451AB46539D6192DD87F-2025-05-15-19-06-44","","null","","images/semantic_sequence/exploring_nature_semantic/exploring_nature_semantic_9.png","null","",""
"","","","","","image-button-response","105","640601","0.0-14.0-1.0-1.5","37E9D517073E451AB46539D6192DD87F","37E9D517073E451AB46539D6192DD87F","764ab8cf-c7de-4eff-b6b6-c077bb454499","051c06f1-75cc-4548-856d-4923ddaba0dc","{""num_scrambled_semantic"":""8"",""num_scrambled_causal"":""4"",""num_scrambled_schematic"":""4"",""participantId"":""37E9D517073E451AB46539D6192DD87F"",""assignmentId"":""764ab8cf-c7de-4eff-b6b6-c077bb454499"",""projectId"":""051c06f1-75cc-4548-856d-4923ddaba0dc""}","https://test12345.live/?num_scrambled_semantic=8&num_scrambled_causal=4&num_scrambled_schematic=4&participantId=37E9D517073E451AB46539D6192DD87F&assignmentId=764ab8cf-c7de-4eff-b6b6-c077bb454499&projectId=051c06f1-75cc-4548-856d-4923ddaba0dc","37E9D517073E451AB46539D6192DD87F-2025-05-15-19-06-44","","null","","images/semantic_sequence/exploring_nature_semantic/exploring_nature_semantic_9.png","null","",""
"","","","","","image-button-response","106","642404","0.0-14.0-1.0-2.5","37E9D517073E451AB46539D6192DD87F","37E9D517073E451AB46539D6192DD87F","764ab8cf-c7de-4eff-b6b6-c077bb454499","051c06f1-75cc-4548-856d-4923ddaba0dc","{""num_scrambled_semantic"":""8"",""num_scrambled_causal"":""4"",""num_scrambled_schematic"":""4"",""participantId"":""37E9D517073E451AB46539D6192DD87F"",""assignmentId"":""764ab8cf-c7de-4eff-b6b6-c077bb454499"",""projectId"":""051c06f1-75cc-4548-856d-4923ddaba0dc""}","https://test12345.live/?num_scrambled_semantic=8&num_scrambled_causal=4&num_scrambled_schematic=4&participantId=37E9D517073E451AB46539D6192DD87F&assignmentId=764ab8cf-c7de-4eff-b6b6-c077bb454499&projectId=051c06f1-75cc-4548-856d-4923ddaba0dc","37E9D517073E451AB46539D6192DD87F-2025-05-15-19-06-44","","null","","[]","null","",""
"","","","","","image-button-response","107","646911","0.0-14.0-1.0-0.6","37E9D517073E451AB46539D6192DD87F","37E9D517073E451AB46539D6192DD87F","764ab8cf-c7de-4eff-b6b6-c077bb454499","051c06f1-75cc-4548-856d-4923ddaba0dc","{""num_scrambled_semantic"":""8"",""num_scrambled_causal"":""4"",""num_scrambled_schematic"":""4"",""participantId"":""37E9D517073E451AB46539D6192DD87F"",""assignmentId"":""764ab8cf-c7de-4eff-b6b6-c077bb454499"",""projectId"":""051c06f1-75cc-4548-856d-4923ddaba0dc""}","https://test12345.live/?num_scrambled_semantic=8&num_scrambled_causal=4&num_scrambled_schematic=4&participantId=37E9D517073E451AB46539D6192DD87F&assignmentId=764ab8cf-c7de-4eff-b6b6-c077bb454499&projectId=051c06f1-75cc-4548-856d-4923ddaba0dc","37E9D517073E451AB46539D6192DD87F-2025-05-15-19-06-44","","null","","images/semantic_sequence/exploring_nature_semantic/exploring_nature_semantic_ten.png","null","",""
"","","","","","image-button-response","108","649610","0.0-14.0-1.0-1.6","37E9D517073E451AB46539D6192DD87F","37E9D517073E451AB46539D6192DD87F","764ab8cf-c7de-4eff-b6b6-c077bb454499","051c06f1-75cc-4548-856d-4923ddaba0dc","{""num_scrambled_semantic"":""8"",""num_scrambled_causal"":""4"",""num_scrambled_schematic"":""4"",""participantId"":""37E9D517073E451AB46539D6192DD87F"",""assignmentId"":""764ab8cf-c7de-4eff-b6b6-c077bb454499"",""projectId"":""051c06f1-75cc-4548-856d-4923ddaba0dc""}","https://test12345.live/?num_scrambled_semantic=8&num_scrambled_causal=4&num_scrambled_schematic=4&participantId=37E9D517073E451AB46539D6192DD87F&assignmentId=764ab8cf-c7de-4eff-b6b6-c077bb454499&projectId=051c06f1-75cc-4548-856d-4923ddaba0dc","37E9D517073E451AB46539D6192DD87F-2025-05-15-19-06-44","","2696","","images/semantic_sequence/exploring_nature_semantic/exploring_nature_semantic_ten.png","0","",""
"","","","","","image-button-response","109","651426","0.0-14.0-1.0-2.6","37E9D517073E451AB46539D6192DD87F","37E9D517073E451AB46539D6192DD87F","764ab8cf-c7de-4eff-b6b6-c077bb454499","051c06f1-75cc-4548-856d-4923ddaba0dc","{""num_scrambled_semantic"":""8"",""num_scrambled_causal"":""4"",""num_scrambled_schematic"":""4"",""participantId"":""37E9D517073E451AB46539D6192DD87F"",""assignmentId"":""764ab8cf-c7de-4eff-b6b6-c077bb454499"",""projectId"":""051c06f1-75cc-4548-856d-4923ddaba0dc""}","https://test12345.live/?num_scrambled_semantic=8&num_scrambled_causal=4&num_scrambled_schematic=4&participantId=37E9D517073E451AB46539D6192DD87F&assignmentId=764ab8cf-c7de-4eff-b6b6-c077bb454499&projectId=051c06f1-75cc-4548-856d-4923ddaba0dc","37E9D517073E451AB46539D6192DD87F-2025-05-15-19-06-44","","null","","[]","null","",""
"","","","","","image-button-response","110","655932","0.0-14.0-1.0-0.7","37E9D517073E451AB46539D6192DD87F","37E9D517073E451AB46539D6192DD87F","764ab8cf-c7de-4eff-b6b6-c077bb454499","051c06f1-75cc-4548-856d-4923ddaba0dc","{""num_scrambled_semantic"":""8"",""num_scrambled_causal"":""4"",""num_scrambled_schematic"":""4"",""participantId"":""37E9D517073E451AB46539D6192DD87F"",""assignmentId"":""764ab8cf-c7de-4eff-b6b6-c077bb454499"",""projectId"":""051c06f1-75cc-4548-856d-4923ddaba0dc""}","https://test12345.live/?num_scrambled_semantic=8&num_scrambled_causal=4&num_scrambled_schematic=4&participantId=37E9D517073E451AB46539D6192DD87F&assignmentId=764ab8cf-c7de-4eff-b6b6-c077bb454499&projectId=051c06f1-75cc-4548-856d-4923ddaba0dc","37E9D517073E451AB46539D6192DD87F-2025-05-15-19-06-44","","null","","images/semantic_sequence/exploring_nature_semantic/exploring_nature_semantic_7.png","null","",""
"","","","","","image-button-response","111","657608","0.0-14.0-1.0-1.7","37E9D517073E451AB46539D6192DD87F","37E9D517073E451AB46539D6192DD87F","764ab8cf-c7de-4eff-b6b6-c077bb454499","051c06f1-75cc-4548-856d-4923ddaba0dc","{""num_scrambled_semantic"":""8"",""num_scrambled_causal"":""4"",""num_scrambled_schematic"":""4"",""participantId"":""37E9D517073E451AB46539D6192DD87F"",""assignmentId"":""764ab8cf-c7de-4eff-b6b6-c077bb454499"",""projectId"":""051c06f1-75cc-4548-856d-4923ddaba0dc""}","https://test12345.live/?num_scrambled_semantic=8&num_scrambled_causal=4&num_scrambled_schematic=4&participantId=37E9D517073E451AB46539D6192DD87F&assignmentId=764ab8cf-c7de-4eff-b6b6-c077bb454499&projectId=051c06f1-75cc-4548-856d-4923ddaba0dc","37E9D517073E451AB46539D6192DD87F-2025-05-15-19-06-44","","1673","","images/semantic_sequence/exploring_nature_semantic/exploring_nature_semantic_7.png","0","",""
"","","","","","image-button-response","112","659423","0.0-14.0-1.0-2.7","37E9D517073E451AB46539D6192DD87F","37E9D517073E451AB46539D6192DD87F","764ab8cf-c7de-4eff-b6b6-c077bb454499","051c06f1-75cc-4548-856d-4923ddaba0dc","{""num_scrambled_semantic"":""8"",""num_scrambled_causal"":""4"",""num_scrambled_schematic"":""4"",""participantId"":""37E9D517073E451AB46539D6192DD87F"",""assignmentId"":""764ab8cf-c7de-4eff-b6b6-c077bb454499"",""projectId"":""051c06f1-75cc-4548-856d-4923ddaba0dc""}","https://test12345.live/?num_scrambled_semantic=8&num_scrambled_causal=4&num_scrambled_schematic=4&participantId=37E9D517073E451AB46539D6192DD87F&assignmentId=764ab8cf-c7de-4eff-b6b6-c077bb454499&projectId=051c06f1-75cc-4548-856d-4923ddaba0dc","37E9D517073E451AB46539D6192DD87F-2025-05-15-19-06-44","","null","","[]","null","",""
"","","","","","image-button-response","113","663929","0.0-14.0-1.0-0.8","37E9D517073E451AB46539D6192DD87F","37E9D517073E451AB46539D6192DD87F","764ab8cf-c7de-4eff-b6b6-c077bb454499","051c06f1-75cc-4548-856d-4923ddaba0dc","{""num_scrambled_semantic"":""8"",""num_scrambled_causal"":""4"",""num_scrambled_schematic"":""4"",""participantId"":""37E9D517073E451AB46539D6192DD87F"",""assignmentId"":""764ab8cf-c7de-4eff-b6b6-c077bb454499"",""projectId"":""051c06f1-75cc-4548-856d-4923ddaba0dc""}","https://test12345.live/?num_scrambled_semantic=8&num_scrambled_causal=4&num_scrambled_schematic=4&participantId=37E9D517073E451AB46539D6192DD87F&assignmentId=764ab8cf-c7de-4eff-b6b6-c077bb454499&projectId=051c06f1-75cc-4548-856d-4923ddaba0dc","37E9D517073E451AB46539D6192DD87F-2025-05-15-19-06-44","","null","","images/semantic_sequence/exploring_nature_semantic/exploring_nature_semantic_3.png","null","",""
"","","","","","image-button-response","114","665008","0.0-14.0-1.0-1.8","37E9D517073E451AB46539D6192DD87F","37E9D517073E451AB46539D6192DD87F","764ab8cf-c7de-4eff-b6b6-c077bb454499","051c06f1-75cc-4548-856d-4923ddaba0dc","{""num_scrambled_semantic"":""8"",""num_scrambled_causal"":""4"",""num_scrambled_schematic"":""4"",""participantId"":""37E9D517073E451AB46539D6192DD87F"",""assignmentId"":""764ab8cf-c7de-4eff-b6b6-c077bb454499"",""projectId"":""051c06f1-75cc-4548-856d-4923ddaba0dc""}","https://test12345.live/?num_scrambled_semantic=8&num_scrambled_causal=4&num_scrambled_schematic=4&participantId=37E9D517073E451AB46539D6192DD87F&assignmentId=764ab8cf-c7de-4eff-b6b6-c077bb454499&projectId=051c06f1-75cc-4548-856d-4923ddaba0dc","37E9D517073E451AB46539D6192DD87F-2025-05-15-19-06-44","","1078","","images/semantic_sequence/exploring_nature_semantic/exploring_nature_semantic_3.png","0","",""
