"success","timeout","failed_images","failed_audio","failed_video","trial_type","trial_index","time_elapsed","internal_node_id","subject","subject_id","study_id","session_id","urlvar","current_url","audio_id","view_history","rt","device_id","stimulus","response","estimated_stimulus_onset","seq_name"
"true","false","[]","[]","[]","preload","0","78","0.0-0.0","38847A12C5F4474FABDEC6FEA3AF0ED0","38847A12C5F4474FABDEC6FEA3AF0ED0","ccae45ef-6140-4db1-b12b-1dda977d6b6f","9076ac92-be42-43a2-9634-8b67c7fe93a7","{""num_scrambled_semantic"":""8"",""num_scrambled_causal"":""4"",""num_scrambled_schematic"":""4"",""participantId"":""38847A12C5F4474FABDEC6FEA3AF0ED0"",""assignmentId"":""ccae45ef-6140-4db1-b12b-1dda977d6b6f"",""projectId"":""9076ac92-be42-43a2-9634-8b67c7fe93a7""}","https://test12345.live/?num_scrambled_semantic=8&num_scrambled_causal=4&num_scrambled_schematic=4&participantId=38847A12C5F4474FABDEC6FEA3AF0ED0&assignmentId=ccae45ef-6140-4db1-b12b-1dda977d6b6f&projectId=9076ac92-be42-43a2-9634-8b67c7fe93a7","38847A12C5F4474FABDEC6FEA3AF0ED0-2025-05-22-19-17-17","","","","","","",""
"","","","","","instructions","1","7054","0.0-1.0","38847A12C5F4474FABDEC6FEA3AF0ED0","38847A12C5F4474FABDEC6FEA3AF0ED0","ccae45ef-6140-4db1-b12b-1dda977d6b6f","9076ac92-be42-43a2-9634-8b67c7fe93a7","{""num_scrambled_semantic"":""8"",""num_scrambled_causal"":""4"",""num_scrambled_schematic"":""4"",""participantId"":""38847A12C5F4474FABDEC6FEA3AF0ED0"",""assignmentId"":""ccae45ef-6140-4db1-b12b-1dda977d6b6f"",""projectId"":""9076ac92-be42-43a2-9634-8b67c7fe93a7""}","https://test12345.live/?num_scrambled_semantic=8&num_scrambled_causal=4&num_scrambled_schematic=4&participantId=38847A12C5F4474FABDEC6FEA3AF0ED0&assignmentId=ccae45ef-6140-4db1-b12b-1dda977d6b6f&projectId=9076ac92-be42-43a2-9634-8b67c7fe93a7","38847A12C5F4474FABDEC6FEA3AF0ED0-2025-05-22-19-17-17","[{""page_index"":0,""viewing_time"":6975}]","6976","","","","",""
"","","","","","instructions","2","11179","0.0-2.0","38847A12C5F4474FABDEC6FEA3AF0ED0","38847A12C5F4474FABDEC6FEA3AF0ED0","ccae45ef-6140-4db1-b12b-1dda977d6b6f","9076ac92-be42-43a2-9634-8b67c7fe93a7","{""num_scrambled_semantic"":""8"",""num_scrambled_causal"":""4"",""num_scrambled_schematic"":""4"",""participantId"":""38847A12C5F4474FABDEC6FEA3AF0ED0"",""assignmentId"":""ccae45ef-6140-4db1-b12b-1dda977d6b6f"",""projectId"":""9076ac92-be42-43a2-9634-8b67c7fe93a7""}","https://test12345.live/?num_scrambled_semantic=8&num_scrambled_causal=4&num_scrambled_schematic=4&participantId=38847A12C5F4474FABDEC6FEA3AF0ED0&assignmentId=ccae45ef-6140-4db1-b12b-1dda977d6b6f&projectId=9076ac92-be42-43a2-9634-8b67c7fe93a7","38847A12C5F4474FABDEC6FEA3AF0ED0-2025-05-22-19-17-17","[{""page_index"":0,""viewing_time"":4124}]","4124","","","","",""
"true","","","","","fullscreen","3","14020","0.0-3.0","38847A12C5F4474FABDEC6FEA3AF0ED0","38847A12C5F4474FABDEC6FEA3AF0ED0","ccae45ef-6140-4db1-b12b-1dda977d6b6f","9076ac92-be42-43a2-9634-8b67c7fe93a7","{""num_scrambled_semantic"":""8"",""num_scrambled_causal"":""4"",""num_scrambled_schematic"":""4"",""participantId"":""38847A12C5F4474FABDEC6FEA3AF0ED0"",""assignmentId"":""ccae45ef-6140-4db1-b12b-1dda977d6b6f"",""projectId"":""9076ac92-be42-43a2-9634-8b67c7fe93a7""}","https://test12345.live/?num_scrambled_semantic=8&num_scrambled_causal=4&num_scrambled_schematic=4&participantId=38847A12C5F4474FABDEC6FEA3AF0ED0&assignmentId=ccae45ef-6140-4db1-b12b-1dda977d6b6f&projectId=9076ac92-be42-43a2-9634-8b67c7fe93a7","38847A12C5F4474FABDEC6FEA3AF0ED0-2025-05-22-19-17-17","","1839","","","","",""
"","","","","","initialize-microphone","4","16637","0.0-4.0-0.0","38847A12C5F4474FABDEC6FEA3AF0ED0","38847A12C5F4474FABDEC6FEA3AF0ED0","ccae45ef-6140-4db1-b12b-1dda977d6b6f","9076ac92-be42-43a2-9634-8b67c7fe93a7","{""num_scrambled_semantic"":""8"",""num_scrambled_causal"":""4"",""num_scrambled_schematic"":""4"",""participantId"":""38847A12C5F4474FABDEC6FEA3AF0ED0"",""assignmentId"":""ccae45ef-6140-4db1-b12b-1dda977d6b6f"",""projectId"":""9076ac92-be42-43a2-9634-8b67c7fe93a7""}","https://test12345.live/?num_scrambled_semantic=8&num_scrambled_causal=4&num_scrambled_schematic=4&participantId=38847A12C5F4474FABDEC6FEA3AF0ED0&assignmentId=ccae45ef-6140-4db1-b12b-1dda977d6b6f&projectId=9076ac92-be42-43a2-9634-8b67c7fe93a7","38847A12C5F4474FABDEC6FEA3AF0ED0-2025-05-22-19-17-17","","","fbc319c54c25a539f8333cb838639fb5971710b13ffe85e5c63c7433eb7cb8cf","","","",""
"","","","","","html-audio-response","5","32314","0.0-4.0-1.0","38847A12C5F4474FABDEC6FEA3AF0ED0","38847A12C5F4474FABDEC6FEA3AF0ED0","ccae45ef-6140-4db1-b12b-1dda977d6b6f","9076ac92-be42-43a2-9634-8b67c7fe93a7","{""num_scrambled_semantic"":""8"",""num_scrambled_causal"":""4"",""num_scrambled_schematic"":""4"",""participantId"":""38847A12C5F4474FABDEC6FEA3AF0ED0"",""assignmentId"":""ccae45ef-6140-4db1-b12b-1dda977d6b6f"",""projectId"":""9076ac92-be42-43a2-9634-8b67c7fe93a7""}","https://test12345.live/?num_scrambled_semantic=8&num_scrambled_causal=4&num_scrambled_schematic=4&participantId=38847A12C5F4474FABDEC6FEA3AF0ED0&assignmentId=ccae45ef-6140-4db1-b12b-1dda977d6b6f&projectId=9076ac92-be42-43a2-9634-8b67c7fe93a7","38847A12C5F4474FABDEC6FEA3AF0ED0-2025-05-22-19-17-17","","4129","","<span style=""color: red; font-size: 24px""> NOW RECORDING</span>
        <p>Please test Microphone</p>","","5",""
"","","","","","html-button-response","6","34504","0.0-4.0-2.0","38847A12C5F4474FABDEC6FEA3AF0ED0","38847A12C5F4474FABDEC6FEA3AF0ED0","ccae45ef-6140-4db1-b12b-1dda977d6b6f","9076ac92-be42-43a2-9634-8b67c7fe93a7","{""num_scrambled_semantic"":""8"",""num_scrambled_causal"":""4"",""num_scrambled_schematic"":""4"",""participantId"":""38847A12C5F4474FABDEC6FEA3AF0ED0"",""assignmentId"":""ccae45ef-6140-4db1-b12b-1dda977d6b6f"",""projectId"":""9076ac92-be42-43a2-9634-8b67c7fe93a7""}","https://test12345.live/?num_scrambled_semantic=8&num_scrambled_causal=4&num_scrambled_schematic=4&participantId=38847A12C5F4474FABDEC6FEA3AF0ED0&assignmentId=ccae45ef-6140-4db1-b12b-1dda977d6b6f&projectId=9076ac92-be42-43a2-9634-8b67c7fe93a7","38847A12C5F4474FABDEC6FEA3AF0ED0-2025-05-22-19-17-17","","2187","","<p style=""font-size:48px; color:red;"">Is Microphone OK?</p>","1","",""
"","","","","","instructions","7","49704","0.0-5.0","38847A12C5F4474FABDEC6FEA3AF0ED0","38847A12C5F4474FABDEC6FEA3AF0ED0","ccae45ef-6140-4db1-b12b-1dda977d6b6f","9076ac92-be42-43a2-9634-8b67c7fe93a7","{""num_scrambled_semantic"":""8"",""num_scrambled_causal"":""4"",""num_scrambled_schematic"":""4"",""participantId"":""38847A12C5F4474FABDEC6FEA3AF0ED0"",""assignmentId"":""ccae45ef-6140-4db1-b12b-1dda977d6b6f"",""projectId"":""9076ac92-be42-43a2-9634-8b67c7fe93a7""}","https://test12345.live/?num_scrambled_semantic=8&num_scrambled_causal=4&num_scrambled_schematic=4&participantId=38847A12C5F4474FABDEC6FEA3AF0ED0&assignmentId=ccae45ef-6140-4db1-b12b-1dda977d6b6f&projectId=9076ac92-be42-43a2-9634-8b67c7fe93a7","38847A12C5F4474FABDEC6FEA3AF0ED0-2025-05-22-19-17-17","[{""page_index"":0,""viewing_time"":5854},{""page_index"":1,""viewing_time"":9345}]","15199","","","","",""
"","","","","","image-button-response","8","55709","0.0-6.0-0.0","38847A12C5F4474FABDEC6FEA3AF0ED0","38847A12C5F4474FABDEC6FEA3AF0ED0","ccae45ef-6140-4db1-b12b-1dda977d6b6f","9076ac92-be42-43a2-9634-8b67c7fe93a7","{""num_scrambled_semantic"":""8"",""num_scrambled_causal"":""4"",""num_scrambled_schematic"":""4"",""participantId"":""38847A12C5F4474FABDEC6FEA3AF0ED0"",""assignmentId"":""ccae45ef-6140-4db1-b12b-1dda977d6b6f"",""projectId"":""9076ac92-be42-43a2-9634-8b67c7fe93a7""}","https://test12345.live/?num_scrambled_semantic=8&num_scrambled_causal=4&num_scrambled_schematic=4&participantId=38847A12C5F4474FABDEC6FEA3AF0ED0&assignmentId=ccae45ef-6140-4db1-b12b-1dda977d6b6f&projectId=9076ac92-be42-43a2-9634-8b67c7fe93a7","38847A12C5F4474FABDEC6FEA3AF0ED0-2025-05-22-19-17-17","","null","","images/instructions/movie_0.png","null","",""
"","","","","","image-button-response","9","60212","0.0-6.0-1.0-0.0","38847A12C5F4474FABDEC6FEA3AF0ED0","38847A12C5F4474FABDEC6FEA3AF0ED0","ccae45ef-6140-4db1-b12b-1dda977d6b6f","9076ac92-be42-43a2-9634-8b67c7fe93a7","{""num_scrambled_semantic"":""8"",""num_scrambled_causal"":""4"",""num_scrambled_schematic"":""4"",""participantId"":""38847A12C5F4474FABDEC6FEA3AF0ED0"",""assignmentId"":""ccae45ef-6140-4db1-b12b-1dda977d6b6f"",""projectId"":""9076ac92-be42-43a2-9634-8b67c7fe93a7""}","https://test12345.live/?num_scrambled_semantic=8&num_scrambled_causal=4&num_scrambled_schematic=4&participantId=38847A12C5F4474FABDEC6FEA3AF0ED0&assignmentId=ccae45ef-6140-4db1-b12b-1dda977d6b6f&projectId=9076ac92-be42-43a2-9634-8b67c7fe93a7","38847A12C5F4474FABDEC6FEA3AF0ED0-2025-05-22-19-17-17","","null","","images/instructions/movie_1.png","null","",""
"","","","","","image-button-response","10","62741","0.0-6.0-1.0-1.0","38847A12C5F4474FABDEC6FEA3AF0ED0","38847A12C5F4474FABDEC6FEA3AF0ED0","ccae45ef-6140-4db1-b12b-1dda977d6b6f","9076ac92-be42-43a2-9634-8b67c7fe93a7","{""num_scrambled_semantic"":""8"",""num_scrambled_causal"":""4"",""num_scrambled_schematic"":""4"",""participantId"":""38847A12C5F4474FABDEC6FEA3AF0ED0"",""assignmentId"":""ccae45ef-6140-4db1-b12b-1dda977d6b6f"",""projectId"":""9076ac92-be42-43a2-9634-8b67c7fe93a7""}","https://test12345.live/?num_scrambled_semantic=8&num_scrambled_causal=4&num_scrambled_schematic=4&participantId=38847A12C5F4474FABDEC6FEA3AF0ED0&assignmentId=ccae45ef-6140-4db1-b12b-1dda977d6b6f&projectId=9076ac92-be42-43a2-9634-8b67c7fe93a7","38847A12C5F4474FABDEC6FEA3AF0ED0-2025-05-22-19-17-17","","2526","","images/instructions/movie_1.png","0","",""
"","","","","","image-button-response","11","64544","0.0-6.0-1.0-2.0","38847A12C5F4474FABDEC6FEA3AF0ED0","38847A12C5F4474FABDEC6FEA3AF0ED0","ccae45ef-6140-4db1-b12b-1dda977d6b6f","9076ac92-be42-43a2-9634-8b67c7fe93a7","{""num_scrambled_semantic"":""8"",""num_scrambled_causal"":""4"",""num_scrambled_schematic"":""4"",""participantId"":""38847A12C5F4474FABDEC6FEA3AF0ED0"",""assignmentId"":""ccae45ef-6140-4db1-b12b-1dda977d6b6f"",""projectId"":""9076ac92-be42-43a2-9634-8b67c7fe93a7""}","https://test12345.live/?num_scrambled_semantic=8&num_scrambled_causal=4&num_scrambled_schematic=4&participantId=38847A12C5F4474FABDEC6FEA3AF0ED0&assignmentId=ccae45ef-6140-4db1-b12b-1dda977d6b6f&projectId=9076ac92-be42-43a2-9634-8b67c7fe93a7","38847A12C5F4474FABDEC6FEA3AF0ED0-2025-05-22-19-17-17","","null","","[]","null","",""
"","","","","","image-button-response","12","69047","0.0-6.0-1.0-0.1","38847A12C5F4474FABDEC6FEA3AF0ED0","38847A12C5F4474FABDEC6FEA3AF0ED0","ccae45ef-6140-4db1-b12b-1dda977d6b6f","9076ac92-be42-43a2-9634-8b67c7fe93a7","{""num_scrambled_semantic"":""8"",""num_scrambled_causal"":""4"",""num_scrambled_schematic"":""4"",""participantId"":""38847A12C5F4474FABDEC6FEA3AF0ED0"",""assignmentId"":""ccae45ef-6140-4db1-b12b-1dda977d6b6f"",""projectId"":""9076ac92-be42-43a2-9634-8b67c7fe93a7""}","https://test12345.live/?num_scrambled_semantic=8&num_scrambled_causal=4&num_scrambled_schematic=4&participantId=38847A12C5F4474FABDEC6FEA3AF0ED0&assignmentId=ccae45ef-6140-4db1-b12b-1dda977d6b6f&projectId=9076ac92-be42-43a2-9634-8b67c7fe93a7","38847A12C5F4474FABDEC6FEA3AF0ED0-2025-05-22-19-17-17","","null","","images/instructions/movie_2.png","null","",""
"","","","","","image-button-response","13","70970","0.0-6.0-1.0-1.1","38847A12C5F4474FABDEC6FEA3AF0ED0","38847A12C5F4474FABDEC6FEA3AF0ED0","ccae45ef-6140-4db1-b12b-1dda977d6b6f","9076ac92-be42-43a2-9634-8b67c7fe93a7","{""num_scrambled_semantic"":""8"",""num_scrambled_causal"":""4"",""num_scrambled_schematic"":""4"",""participantId"":""38847A12C5F4474FABDEC6FEA3AF0ED0"",""assignmentId"":""ccae45ef-6140-4db1-b12b-1dda977d6b6f"",""projectId"":""9076ac92-be42-43a2-9634-8b67c7fe93a7""}","https://test12345.live/?num_scrambled_semantic=8&num_scrambled_causal=4&num_scrambled_schematic=4&participantId=38847A12C5F4474FABDEC6FEA3AF0ED0&assignmentId=ccae45ef-6140-4db1-b12b-1dda977d6b6f&projectId=9076ac92-be42-43a2-9634-8b67c7fe93a7","38847A12C5F4474FABDEC6FEA3AF0ED0-2025-05-22-19-17-17","","1920","","images/instructions/movie_2.png","0","",""
"","","","","","image-button-response","14","72773","0.0-6.0-1.0-2.1","38847A12C5F4474FABDEC6FEA3AF0ED0","38847A12C5F4474FABDEC6FEA3AF0ED0","ccae45ef-6140-4db1-b12b-1dda977d6b6f","9076ac92-be42-43a2-9634-8b67c7fe93a7","{""num_scrambled_semantic"":""8"",""num_scrambled_causal"":""4"",""num_scrambled_schematic"":""4"",""participantId"":""38847A12C5F4474FABDEC6FEA3AF0ED0"",""assignmentId"":""ccae45ef-6140-4db1-b12b-1dda977d6b6f"",""projectId"":""9076ac92-be42-43a2-9634-8b67c7fe93a7""}","https://test12345.live/?num_scrambled_semantic=8&num_scrambled_causal=4&num_scrambled_schematic=4&participantId=38847A12C5F4474FABDEC6FEA3AF0ED0&assignmentId=ccae45ef-6140-4db1-b12b-1dda977d6b6f&projectId=9076ac92-be42-43a2-9634-8b67c7fe93a7","38847A12C5F4474FABDEC6FEA3AF0ED0-2025-05-22-19-17-17","","null","","[]","null","",""
"","","","","","image-button-response","15","77275","0.0-6.0-1.0-0.2","38847A12C5F4474FABDEC6FEA3AF0ED0","38847A12C5F4474FABDEC6FEA3AF0ED0","ccae45ef-6140-4db1-b12b-1dda977d6b6f","9076ac92-be42-43a2-9634-8b67c7fe93a7","{""num_scrambled_semantic"":""8"",""num_scrambled_causal"":""4"",""num_scrambled_schematic"":""4"",""participantId"":""38847A12C5F4474FABDEC6FEA3AF0ED0"",""assignmentId"":""ccae45ef-6140-4db1-b12b-1dda977d6b6f"",""projectId"":""9076ac92-be42-43a2-9634-8b67c7fe93a7""}","https://test12345.live/?num_scrambled_semantic=8&num_scrambled_causal=4&num_scrambled_schematic=4&participantId=38847A12C5F4474FABDEC6FEA3AF0ED0&assignmentId=ccae45ef-6140-4db1-b12b-1dda977d6b6f&projectId=9076ac92-be42-43a2-9634-8b67c7fe93a7","38847A12C5F4474FABDEC6FEA3AF0ED0-2025-05-22-19-17-17","","null","","images/instructions/movie_3.png","null","",""
"","","","","","image-button-response","16","78414","0.0-6.0-1.0-1.2","38847A12C5F4474FABDEC6FEA3AF0ED0","38847A12C5F4474FABDEC6FEA3AF0ED0","ccae45ef-6140-4db1-b12b-1dda977d6b6f","9076ac92-be42-43a2-9634-8b67c7fe93a7","{""num_scrambled_semantic"":""8"",""num_scrambled_causal"":""4"",""num_scrambled_schematic"":""4"",""participantId"":""38847A12C5F4474FABDEC6FEA3AF0ED0"",""assignmentId"":""ccae45ef-6140-4db1-b12b-1dda977d6b6f"",""projectId"":""9076ac92-be42-43a2-9634-8b67c7fe93a7""}","https://test12345.live/?num_scrambled_semantic=8&num_scrambled_causal=4&num_scrambled_schematic=4&participantId=38847A12C5F4474FABDEC6FEA3AF0ED0&assignmentId=ccae45ef-6140-4db1-b12b-1dda977d6b6f&projectId=9076ac92-be42-43a2-9634-8b67c7fe93a7","38847A12C5F4474FABDEC6FEA3AF0ED0-2025-05-22-19-17-17","","1136","","images/instructions/movie_3.png","0","",""
"","","","","","image-button-response","17","80216","0.0-6.0-1.0-2.2","38847A12C5F4474FABDEC6FEA3AF0ED0","38847A12C5F4474FABDEC6FEA3AF0ED0","ccae45ef-6140-4db1-b12b-1dda977d6b6f","9076ac92-be42-43a2-9634-8b67c7fe93a7","{""num_scrambled_semantic"":""8"",""num_scrambled_causal"":""4"",""num_scrambled_schematic"":""4"",""participantId"":""38847A12C5F4474FABDEC6FEA3AF0ED0"",""assignmentId"":""ccae45ef-6140-4db1-b12b-1dda977d6b6f"",""projectId"":""9076ac92-be42-43a2-9634-8b67c7fe93a7""}","https://test12345.live/?num_scrambled_semantic=8&num_scrambled_causal=4&num_scrambled_schematic=4&participantId=38847A12C5F4474FABDEC6FEA3AF0ED0&assignmentId=ccae45ef-6140-4db1-b12b-1dda977d6b6f&projectId=9076ac92-be42-43a2-9634-8b67c7fe93a7","38847A12C5F4474FABDEC6FEA3AF0ED0-2025-05-22-19-17-17","","null","","[]","null","",""
"","","","","","image-button-response","18","84720","0.0-6.0-1.0-0.3","38847A12C5F4474FABDEC6FEA3AF0ED0","38847A12C5F4474FABDEC6FEA3AF0ED0","ccae45ef-6140-4db1-b12b-1dda977d6b6f","9076ac92-be42-43a2-9634-8b67c7fe93a7","{""num_scrambled_semantic"":""8"",""num_scrambled_causal"":""4"",""num_scrambled_schematic"":""4"",""participantId"":""38847A12C5F4474FABDEC6FEA3AF0ED0"",""assignmentId"":""ccae45ef-6140-4db1-b12b-1dda977d6b6f"",""projectId"":""9076ac92-be42-43a2-9634-8b67c7fe93a7""}","https://test12345.live/?num_scrambled_semantic=8&num_scrambled_causal=4&num_scrambled_schematic=4&participantId=38847A12C5F4474FABDEC6FEA3AF0ED0&assignmentId=ccae45ef-6140-4db1-b12b-1dda977d6b6f&projectId=9076ac92-be42-43a2-9634-8b67c7fe93a7","38847A12C5F4474FABDEC6FEA3AF0ED0-2025-05-22-19-17-17","","null","","images/instructions/movie_4.png","null","",""
"","","","","","image-button-response","19","86022","0.0-6.0-1.0-1.3","38847A12C5F4474FABDEC6FEA3AF0ED0","38847A12C5F4474FABDEC6FEA3AF0ED0","ccae45ef-6140-4db1-b12b-1dda977d6b6f","9076ac92-be42-43a2-9634-8b67c7fe93a7","{""num_scrambled_semantic"":""8"",""num_scrambled_causal"":""4"",""num_scrambled_schematic"":""4"",""participantId"":""38847A12C5F4474FABDEC6FEA3AF0ED0"",""assignmentId"":""ccae45ef-6140-4db1-b12b-1dda977d6b6f"",""projectId"":""9076ac92-be42-43a2-9634-8b67c7fe93a7""}","https://test12345.live/?num_scrambled_semantic=8&num_scrambled_causal=4&num_scrambled_schematic=4&participantId=38847A12C5F4474FABDEC6FEA3AF0ED0&assignmentId=ccae45ef-6140-4db1-b12b-1dda977d6b6f&projectId=9076ac92-be42-43a2-9634-8b67c7fe93a7","38847A12C5F4474FABDEC6FEA3AF0ED0-2025-05-22-19-17-17","","1299","","images/instructions/movie_4.png","0","",""
"","","","","","image-button-response","20","87824","0.0-6.0-1.0-2.3","38847A12C5F4474FABDEC6FEA3AF0ED0","38847A12C5F4474FABDEC6FEA3AF0ED0","ccae45ef-6140-4db1-b12b-1dda977d6b6f","9076ac92-be42-43a2-9634-8b67c7fe93a7","{""num_scrambled_semantic"":""8"",""num_scrambled_causal"":""4"",""num_scrambled_schematic"":""4"",""participantId"":""38847A12C5F4474FABDEC6FEA3AF0ED0"",""assignmentId"":""ccae45ef-6140-4db1-b12b-1dda977d6b6f"",""projectId"":""9076ac92-be42-43a2-9634-8b67c7fe93a7""}","https://test12345.live/?num_scrambled_semantic=8&num_scrambled_causal=4&num_scrambled_schematic=4&participantId=38847A12C5F4474FABDEC6FEA3AF0ED0&assignmentId=ccae45ef-6140-4db1-b12b-1dda977d6b6f&projectId=9076ac92-be42-43a2-9634-8b67c7fe93a7","38847A12C5F4474FABDEC6FEA3AF0ED0-2025-05-22-19-17-17","","null","","[]","null","",""
"","","","","","instructions","21","99299","0.0-7.0","38847A12C5F4474FABDEC6FEA3AF0ED0","38847A12C5F4474FABDEC6FEA3AF0ED0","ccae45ef-6140-4db1-b12b-1dda977d6b6f","9076ac92-be42-43a2-9634-8b67c7fe93a7","{""num_scrambled_semantic"":""8"",""num_scrambled_causal"":""4"",""num_scrambled_schematic"":""4"",""participantId"":""38847A12C5F4474FABDEC6FEA3AF0ED0"",""assignmentId"":""ccae45ef-6140-4db1-b12b-1dda977d6b6f"",""projectId"":""9076ac92-be42-43a2-9634-8b67c7fe93a7""}","https://test12345.live/?num_scrambled_semantic=8&num_scrambled_causal=4&num_scrambled_schematic=4&participantId=38847A12C5F4474FABDEC6FEA3AF0ED0&assignmentId=ccae45ef-6140-4db1-b12b-1dda977d6b6f&projectId=9076ac92-be42-43a2-9634-8b67c7fe93a7","38847A12C5F4474FABDEC6FEA3AF0ED0-2025-05-22-19-17-17","[{""page_index"":0,""viewing_time"":9838},{""page_index"":1,""viewing_time"":1636}]","11475","","","","",""
"","","","","","html-audio-response","22","160287","0.0-8.0","38847A12C5F4474FABDEC6FEA3AF0ED0","38847A12C5F4474FABDEC6FEA3AF0ED0","ccae45ef-6140-4db1-b12b-1dda977d6b6f","9076ac92-be42-43a2-9634-8b67c7fe93a7","{""num_scrambled_semantic"":""8"",""num_scrambled_causal"":""4"",""num_scrambled_schematic"":""4"",""participantId"":""38847A12C5F4474FABDEC6FEA3AF0ED0"",""assignmentId"":""ccae45ef-6140-4db1-b12b-1dda977d6b6f"",""projectId"":""9076ac92-be42-43a2-9634-8b67c7fe93a7""}","https://test12345.live/?num_scrambled_semantic=8&num_scrambled_causal=4&num_scrambled_schematic=4&participantId=38847A12C5F4474FABDEC6FEA3AF0ED0&assignmentId=ccae45ef-6140-4db1-b12b-1dda977d6b6f&projectId=9076ac92-be42-43a2-9634-8b67c7fe93a7","38847A12C5F4474FABDEC6FEA3AF0ED0-2025-05-22-19-17-17","","1418","","[""<span style=\""color: red; font-size: 24px\""> NOW RECORDING</span><p>Please say out loud all the images you saw in the exact order you saw them. Try to recall as many images as you can, but remember: getting the order right is more important than the number of images you recall.</p>""]","","4",""
"","","","","","instructions","23","161983","0.0-9.0","38847A12C5F4474FABDEC6FEA3AF0ED0","38847A12C5F4474FABDEC6FEA3AF0ED0","ccae45ef-6140-4db1-b12b-1dda977d6b6f","9076ac92-be42-43a2-9634-8b67c7fe93a7","{""num_scrambled_semantic"":""8"",""num_scrambled_causal"":""4"",""num_scrambled_schematic"":""4"",""participantId"":""38847A12C5F4474FABDEC6FEA3AF0ED0"",""assignmentId"":""ccae45ef-6140-4db1-b12b-1dda977d6b6f"",""projectId"":""9076ac92-be42-43a2-9634-8b67c7fe93a7""}","https://test12345.live/?num_scrambled_semantic=8&num_scrambled_causal=4&num_scrambled_schematic=4&participantId=38847A12C5F4474FABDEC6FEA3AF0ED0&assignmentId=ccae45ef-6140-4db1-b12b-1dda977d6b6f&projectId=9076ac92-be42-43a2-9634-8b67c7fe93a7","38847A12C5F4474FABDEC6FEA3AF0ED0-2025-05-22-19-17-17","[{""page_index"":0,""viewing_time"":1688}]","1688","","","","",""
"","","","","","image-button-response","24","167987","0.0-10.0-0.0","38847A12C5F4474FABDEC6FEA3AF0ED0","38847A12C5F4474FABDEC6FEA3AF0ED0","ccae45ef-6140-4db1-b12b-1dda977d6b6f","9076ac92-be42-43a2-9634-8b67c7fe93a7","{""num_scrambled_semantic"":""8"",""num_scrambled_causal"":""4"",""num_scrambled_schematic"":""4"",""participantId"":""38847A12C5F4474FABDEC6FEA3AF0ED0"",""assignmentId"":""ccae45ef-6140-4db1-b12b-1dda977d6b6f"",""projectId"":""9076ac92-be42-43a2-9634-8b67c7fe93a7""}","https://test12345.live/?num_scrambled_semantic=8&num_scrambled_causal=4&num_scrambled_schematic=4&participantId=38847A12C5F4474FABDEC6FEA3AF0ED0&assignmentId=ccae45ef-6140-4db1-b12b-1dda977d6b6f&projectId=9076ac92-be42-43a2-9634-8b67c7fe93a7","38847A12C5F4474FABDEC6FEA3AF0ED0-2025-05-22-19-17-17","","null","","images/causal_sequence/package_causal/package_causal_0.png","null","",""
"","","","","","image-button-response","25","172490","0.0-10.0-1.0-0.0","38847A12C5F4474FABDEC6FEA3AF0ED0","38847A12C5F4474FABDEC6FEA3AF0ED0","ccae45ef-6140-4db1-b12b-1dda977d6b6f","9076ac92-be42-43a2-9634-8b67c7fe93a7","{""num_scrambled_semantic"":""8"",""num_scrambled_causal"":""4"",""num_scrambled_schematic"":""4"",""participantId"":""38847A12C5F4474FABDEC6FEA3AF0ED0"",""assignmentId"":""ccae45ef-6140-4db1-b12b-1dda977d6b6f"",""projectId"":""9076ac92-be42-43a2-9634-8b67c7fe93a7""}","https://test12345.live/?num_scrambled_semantic=8&num_scrambled_causal=4&num_scrambled_schematic=4&participantId=38847A12C5F4474FABDEC6FEA3AF0ED0&assignmentId=ccae45ef-6140-4db1-b12b-1dda977d6b6f&projectId=9076ac92-be42-43a2-9634-8b67c7fe93a7","38847A12C5F4474FABDEC6FEA3AF0ED0-2025-05-22-19-17-17","","null","","images/causal_sequence/package_causal/package_causal_8.png","null","",""
"","","","","","image-button-response","26","174753","0.0-10.0-1.0-1.0","38847A12C5F4474FABDEC6FEA3AF0ED0","38847A12C5F4474FABDEC6FEA3AF0ED0","ccae45ef-6140-4db1-b12b-1dda977d6b6f","9076ac92-be42-43a2-9634-8b67c7fe93a7","{""num_scrambled_semantic"":""8"",""num_scrambled_causal"":""4"",""num_scrambled_schematic"":""4"",""participantId"":""38847A12C5F4474FABDEC6FEA3AF0ED0"",""assignmentId"":""ccae45ef-6140-4db1-b12b-1dda977d6b6f"",""projectId"":""9076ac92-be42-43a2-9634-8b67c7fe93a7""}","https://test12345.live/?num_scrambled_semantic=8&num_scrambled_causal=4&num_scrambled_schematic=4&participantId=38847A12C5F4474FABDEC6FEA3AF0ED0&assignmentId=ccae45ef-6140-4db1-b12b-1dda977d6b6f&projectId=9076ac92-be42-43a2-9634-8b67c7fe93a7","38847A12C5F4474FABDEC6FEA3AF0ED0-2025-05-22-19-17-17","","2260","","images/causal_sequence/package_causal/package_causal_8.png","0","",""
"","","","","","image-button-response","27","176555","0.0-10.0-1.0-2.0","38847A12C5F4474FABDEC6FEA3AF0ED0","38847A12C5F4474FABDEC6FEA3AF0ED0","ccae45ef-6140-4db1-b12b-1dda977d6b6f","9076ac92-be42-43a2-9634-8b67c7fe93a7","{""num_scrambled_semantic"":""8"",""num_scrambled_causal"":""4"",""num_scrambled_schematic"":""4"",""participantId"":""38847A12C5F4474FABDEC6FEA3AF0ED0"",""assignmentId"":""ccae45ef-6140-4db1-b12b-1dda977d6b6f"",""projectId"":""9076ac92-be42-43a2-9634-8b67c7fe93a7""}","https://test12345.live/?num_scrambled_semantic=8&num_scrambled_causal=4&num_scrambled_schematic=4&participantId=38847A12C5F4474FABDEC6FEA3AF0ED0&assignmentId=ccae45ef-6140-4db1-b12b-1dda977d6b6f&projectId=9076ac92-be42-43a2-9634-8b67c7fe93a7","38847A12C5F4474FABDEC6FEA3AF0ED0-2025-05-22-19-17-17","","null","","[]","null","",""
"","","","","","image-button-response","28","181058","0.0-10.0-1.0-0.1","38847A12C5F4474FABDEC6FEA3AF0ED0","38847A12C5F4474FABDEC6FEA3AF0ED0","ccae45ef-6140-4db1-b12b-1dda977d6b6f","9076ac92-be42-43a2-9634-8b67c7fe93a7","{""num_scrambled_semantic"":""8"",""num_scrambled_causal"":""4"",""num_scrambled_schematic"":""4"",""participantId"":""38847A12C5F4474FABDEC6FEA3AF0ED0"",""assignmentId"":""ccae45ef-6140-4db1-b12b-1dda977d6b6f"",""projectId"":""9076ac92-be42-43a2-9634-8b67c7fe93a7""}","https://test12345.live/?num_scrambled_semantic=8&num_scrambled_causal=4&num_scrambled_schematic=4&participantId=38847A12C5F4474FABDEC6FEA3AF0ED0&assignmentId=ccae45ef-6140-4db1-b12b-1dda977d6b6f&projectId=9076ac92-be42-43a2-9634-8b67c7fe93a7","38847A12C5F4474FABDEC6FEA3AF0ED0-2025-05-22-19-17-17","","null","","images/causal_sequence/package_causal/package_causal_7.png","null","",""
"","","","","","image-button-response","29","183586","0.0-10.0-1.0-1.1","38847A12C5F4474FABDEC6FEA3AF0ED0","38847A12C5F4474FABDEC6FEA3AF0ED0","ccae45ef-6140-4db1-b12b-1dda977d6b6f","9076ac92-be42-43a2-9634-8b67c7fe93a7","{""num_scrambled_semantic"":""8"",""num_scrambled_causal"":""4"",""num_scrambled_schematic"":""4"",""participantId"":""38847A12C5F4474FABDEC6FEA3AF0ED0"",""assignmentId"":""ccae45ef-6140-4db1-b12b-1dda977d6b6f"",""projectId"":""9076ac92-be42-43a2-9634-8b67c7fe93a7""}","https://test12345.live/?num_scrambled_semantic=8&num_scrambled_causal=4&num_scrambled_schematic=4&participantId=38847A12C5F4474FABDEC6FEA3AF0ED0&assignmentId=ccae45ef-6140-4db1-b12b-1dda977d6b6f&projectId=9076ac92-be42-43a2-9634-8b67c7fe93a7","38847A12C5F4474FABDEC6FEA3AF0ED0-2025-05-22-19-17-17","","2526","","images/causal_sequence/package_causal/package_causal_7.png","0","",""
"","","","","","image-button-response","30","185388","0.0-10.0-1.0-2.1","38847A12C5F4474FABDEC6FEA3AF0ED0","38847A12C5F4474FABDEC6FEA3AF0ED0","ccae45ef-6140-4db1-b12b-1dda977d6b6f","9076ac92-be42-43a2-9634-8b67c7fe93a7","{""num_scrambled_semantic"":""8"",""num_scrambled_causal"":""4"",""num_scrambled_schematic"":""4"",""participantId"":""38847A12C5F4474FABDEC6FEA3AF0ED0"",""assignmentId"":""ccae45ef-6140-4db1-b12b-1dda977d6b6f"",""projectId"":""9076ac92-be42-43a2-9634-8b67c7fe93a7""}","https://test12345.live/?num_scrambled_semantic=8&num_scrambled_causal=4&num_scrambled_schematic=4&participantId=38847A12C5F4474FABDEC6FEA3AF0ED0&assignmentId=ccae45ef-6140-4db1-b12b-1dda977d6b6f&projectId=9076ac92-be42-43a2-9634-8b67c7fe93a7","38847A12C5F4474FABDEC6FEA3AF0ED0-2025-05-22-19-17-17","","null","","[]","null","",""
"","","","","","image-button-response","31","189890","0.0-10.0-1.0-0.2","38847A12C5F4474FABDEC6FEA3AF0ED0","38847A12C5F4474FABDEC6FEA3AF0ED0","ccae45ef-6140-4db1-b12b-1dda977d6b6f","9076ac92-be42-43a2-9634-8b67c7fe93a7","{""num_scrambled_semantic"":""8"",""num_scrambled_causal"":""4"",""num_scrambled_schematic"":""4"",""participantId"":""38847A12C5F4474FABDEC6FEA3AF0ED0"",""assignmentId"":""ccae45ef-6140-4db1-b12b-1dda977d6b6f"",""projectId"":""9076ac92-be42-43a2-9634-8b67c7fe93a7""}","https://test12345.live/?num_scrambled_semantic=8&num_scrambled_causal=4&num_scrambled_schematic=4&participantId=38847A12C5F4474FABDEC6FEA3AF0ED0&assignmentId=ccae45ef-6140-4db1-b12b-1dda977d6b6f&projectId=9076ac92-be42-43a2-9634-8b67c7fe93a7","38847A12C5F4474FABDEC6FEA3AF0ED0-2025-05-22-19-17-17","","null","","images/causal_sequence/package_causal/package_causal_6.png","null","",""
"","","","","","image-button-response","32","190690","0.0-10.0-1.0-1.2","38847A12C5F4474FABDEC6FEA3AF0ED0","38847A12C5F4474FABDEC6FEA3AF0ED0","ccae45ef-6140-4db1-b12b-1dda977d6b6f","9076ac92-be42-43a2-9634-8b67c7fe93a7","{""num_scrambled_semantic"":""8"",""num_scrambled_causal"":""4"",""num_scrambled_schematic"":""4"",""participantId"":""38847A12C5F4474FABDEC6FEA3AF0ED0"",""assignmentId"":""ccae45ef-6140-4db1-b12b-1dda977d6b6f"",""projectId"":""9076ac92-be42-43a2-9634-8b67c7fe93a7""}","https://test12345.live/?num_scrambled_semantic=8&num_scrambled_causal=4&num_scrambled_schematic=4&participantId=38847A12C5F4474FABDEC6FEA3AF0ED0&assignmentId=ccae45ef-6140-4db1-b12b-1dda977d6b6f&projectId=9076ac92-be42-43a2-9634-8b67c7fe93a7","38847A12C5F4474FABDEC6FEA3AF0ED0-2025-05-22-19-17-17","","798","","images/causal_sequence/package_causal/package_causal_6.png","0","",""
"","","","","","image-button-response","33","192493","0.0-10.0-1.0-2.2","38847A12C5F4474FABDEC6FEA3AF0ED0","38847A12C5F4474FABDEC6FEA3AF0ED0","ccae45ef-6140-4db1-b12b-1dda977d6b6f","9076ac92-be42-43a2-9634-8b67c7fe93a7","{""num_scrambled_semantic"":""8"",""num_scrambled_causal"":""4"",""num_scrambled_schematic"":""4"",""participantId"":""38847A12C5F4474FABDEC6FEA3AF0ED0"",""assignmentId"":""ccae45ef-6140-4db1-b12b-1dda977d6b6f"",""projectId"":""9076ac92-be42-43a2-9634-8b67c7fe93a7""}","https://test12345.live/?num_scrambled_semantic=8&num_scrambled_causal=4&num_scrambled_schematic=4&participantId=38847A12C5F4474FABDEC6FEA3AF0ED0&assignmentId=ccae45ef-6140-4db1-b12b-1dda977d6b6f&projectId=9076ac92-be42-43a2-9634-8b67c7fe93a7","38847A12C5F4474FABDEC6FEA3AF0ED0-2025-05-22-19-17-17","","null","","[]","null","",""
"","","","","","image-button-response","34","196996","0.0-10.0-1.0-0.3","38847A12C5F4474FABDEC6FEA3AF0ED0","38847A12C5F4474FABDEC6FEA3AF0ED0","ccae45ef-6140-4db1-b12b-1dda977d6b6f","9076ac92-be42-43a2-9634-8b67c7fe93a7","{""num_scrambled_semantic"":""8"",""num_scrambled_causal"":""4"",""num_scrambled_schematic"":""4"",""participantId"":""38847A12C5F4474FABDEC6FEA3AF0ED0"",""assignmentId"":""ccae45ef-6140-4db1-b12b-1dda977d6b6f"",""projectId"":""9076ac92-be42-43a2-9634-8b67c7fe93a7""}","https://test12345.live/?num_scrambled_semantic=8&num_scrambled_causal=4&num_scrambled_schematic=4&participantId=38847A12C5F4474FABDEC6FEA3AF0ED0&assignmentId=ccae45ef-6140-4db1-b12b-1dda977d6b6f&projectId=9076ac92-be42-43a2-9634-8b67c7fe93a7","38847A12C5F4474FABDEC6FEA3AF0ED0-2025-05-22-19-17-17","","null","","images/causal_sequence/package_causal/package_causal_9.png","null","",""
"","","","","","image-button-response","35","198449","0.0-10.0-1.0-1.3","38847A12C5F4474FABDEC6FEA3AF0ED0","38847A12C5F4474FABDEC6FEA3AF0ED0","ccae45ef-6140-4db1-b12b-1dda977d6b6f","9076ac92-be42-43a2-9634-8b67c7fe93a7","{""num_scrambled_semantic"":""8"",""num_scrambled_causal"":""4"",""num_scrambled_schematic"":""4"",""participantId"":""38847A12C5F4474FABDEC6FEA3AF0ED0"",""assignmentId"":""ccae45ef-6140-4db1-b12b-1dda977d6b6f"",""projectId"":""9076ac92-be42-43a2-9634-8b67c7fe93a7""}","https://test12345.live/?num_scrambled_semantic=8&num_scrambled_causal=4&num_scrambled_schematic=4&participantId=38847A12C5F4474FABDEC6FEA3AF0ED0&assignmentId=ccae45ef-6140-4db1-b12b-1dda977d6b6f&projectId=9076ac92-be42-43a2-9634-8b67c7fe93a7","38847A12C5F4474FABDEC6FEA3AF0ED0-2025-05-22-19-17-17","","1450","","images/causal_sequence/package_causal/package_causal_9.png","0","",""
"","","","","","image-button-response","36","200251","0.0-10.0-1.0-2.3","38847A12C5F4474FABDEC6FEA3AF0ED0","38847A12C5F4474FABDEC6FEA3AF0ED0","ccae45ef-6140-4db1-b12b-1dda977d6b6f","9076ac92-be42-43a2-9634-8b67c7fe93a7","{""num_scrambled_semantic"":""8"",""num_scrambled_causal"":""4"",""num_scrambled_schematic"":""4"",""participantId"":""38847A12C5F4474FABDEC6FEA3AF0ED0"",""assignmentId"":""ccae45ef-6140-4db1-b12b-1dda977d6b6f"",""projectId"":""9076ac92-be42-43a2-9634-8b67c7fe93a7""}","https://test12345.live/?num_scrambled_semantic=8&num_scrambled_causal=4&num_scrambled_schematic=4&participantId=38847A12C5F4474FABDEC6FEA3AF0ED0&assignmentId=ccae45ef-6140-4db1-b12b-1dda977d6b6f&projectId=9076ac92-be42-43a2-9634-8b67c7fe93a7","38847A12C5F4474FABDEC6FEA3AF0ED0-2025-05-22-19-17-17","","null","","[]","null","",""
"","","","","","image-button-response","37","204753","0.0-10.0-1.0-0.4","38847A12C5F4474FABDEC6FEA3AF0ED0","38847A12C5F4474FABDEC6FEA3AF0ED0","ccae45ef-6140-4db1-b12b-1dda977d6b6f","9076ac92-be42-43a2-9634-8b67c7fe93a7","{""num_scrambled_semantic"":""8"",""num_scrambled_causal"":""4"",""num_scrambled_schematic"":""4"",""participantId"":""38847A12C5F4474FABDEC6FEA3AF0ED0"",""assignmentId"":""ccae45ef-6140-4db1-b12b-1dda977d6b6f"",""projectId"":""9076ac92-be42-43a2-9634-8b67c7fe93a7""}","https://test12345.live/?num_scrambled_semantic=8&num_scrambled_causal=4&num_scrambled_schematic=4&participantId=38847A12C5F4474FABDEC6FEA3AF0ED0&assignmentId=ccae45ef-6140-4db1-b12b-1dda977d6b6f&projectId=9076ac92-be42-43a2-9634-8b67c7fe93a7","38847A12C5F4474FABDEC6FEA3AF0ED0-2025-05-22-19-17-17","","null","","images/causal_sequence/package_causal/package_causal_3.png","null","",""
"","","","","","image-button-response","38","206270","0.0-10.0-1.0-1.4","38847A12C5F4474FABDEC6FEA3AF0ED0","38847A12C5F4474FABDEC6FEA3AF0ED0","ccae45ef-6140-4db1-b12b-1dda977d6b6f","9076ac92-be42-43a2-9634-8b67c7fe93a7","{""num_scrambled_semantic"":""8"",""num_scrambled_causal"":""4"",""num_scrambled_schematic"":""4"",""participantId"":""38847A12C5F4474FABDEC6FEA3AF0ED0"",""assignmentId"":""ccae45ef-6140-4db1-b12b-1dda977d6b6f"",""projectId"":""9076ac92-be42-43a2-9634-8b67c7fe93a7""}","https://test12345.live/?num_scrambled_semantic=8&num_scrambled_causal=4&num_scrambled_schematic=4&participantId=38847A12C5F4474FABDEC6FEA3AF0ED0&assignmentId=ccae45ef-6140-4db1-b12b-1dda977d6b6f&projectId=9076ac92-be42-43a2-9634-8b67c7fe93a7","38847A12C5F4474FABDEC6FEA3AF0ED0-2025-05-22-19-17-17","","1515","","images/causal_sequence/package_causal/package_causal_3.png","0","",""
"","","","","","image-button-response","39","208072","0.0-10.0-1.0-2.4","38847A12C5F4474FABDEC6FEA3AF0ED0","38847A12C5F4474FABDEC6FEA3AF0ED0","ccae45ef-6140-4db1-b12b-1dda977d6b6f","9076ac92-be42-43a2-9634-8b67c7fe93a7","{""num_scrambled_semantic"":""8"",""num_scrambled_causal"":""4"",""num_scrambled_schematic"":""4"",""participantId"":""38847A12C5F4474FABDEC6FEA3AF0ED0"",""assignmentId"":""ccae45ef-6140-4db1-b12b-1dda977d6b6f"",""projectId"":""9076ac92-be42-43a2-9634-8b67c7fe93a7""}","https://test12345.live/?num_scrambled_semantic=8&num_scrambled_causal=4&num_scrambled_schematic=4&participantId=38847A12C5F4474FABDEC6FEA3AF0ED0&assignmentId=ccae45ef-6140-4db1-b12b-1dda977d6b6f&projectId=9076ac92-be42-43a2-9634-8b67c7fe93a7","38847A12C5F4474FABDEC6FEA3AF0ED0-2025-05-22-19-17-17","","null","","[]","null","",""
"","","","","","image-button-response","40","212575","0.0-10.0-1.0-0.5","38847A12C5F4474FABDEC6FEA3AF0ED0","38847A12C5F4474FABDEC6FEA3AF0ED0","ccae45ef-6140-4db1-b12b-1dda977d6b6f","9076ac92-be42-43a2-9634-8b67c7fe93a7","{""num_scrambled_semantic"":""8"",""num_scrambled_causal"":""4"",""num_scrambled_schematic"":""4"",""participantId"":""38847A12C5F4474FABDEC6FEA3AF0ED0"",""assignmentId"":""ccae45ef-6140-4db1-b12b-1dda977d6b6f"",""projectId"":""9076ac92-be42-43a2-9634-8b67c7fe93a7""}","https://test12345.live/?num_scrambled_semantic=8&num_scrambled_causal=4&num_scrambled_schematic=4&participantId=38847A12C5F4474FABDEC6FEA3AF0ED0&assignmentId=ccae45ef-6140-4db1-b12b-1dda977d6b6f&projectId=9076ac92-be42-43a2-9634-8b67c7fe93a7","38847A12C5F4474FABDEC6FEA3AF0ED0-2025-05-22-19-17-17","","null","","images/causal_sequence/package_causal/package_causal_1.png","null","",""
"","","","","","image-button-response","41","216578","0.0-10.0-1.0-1.5","38847A12C5F4474FABDEC6FEA3AF0ED0","38847A12C5F4474FABDEC6FEA3AF0ED0","ccae45ef-6140-4db1-b12b-1dda977d6b6f","9076ac92-be42-43a2-9634-8b67c7fe93a7","{""num_scrambled_semantic"":""8"",""num_scrambled_causal"":""4"",""num_scrambled_schematic"":""4"",""participantId"":""38847A12C5F4474FABDEC6FEA3AF0ED0"",""assignmentId"":""ccae45ef-6140-4db1-b12b-1dda977d6b6f"",""projectId"":""9076ac92-be42-43a2-9634-8b67c7fe93a7""}","https://test12345.live/?num_scrambled_semantic=8&num_scrambled_causal=4&num_scrambled_schematic=4&participantId=38847A12C5F4474FABDEC6FEA3AF0ED0&assignmentId=ccae45ef-6140-4db1-b12b-1dda977d6b6f&projectId=9076ac92-be42-43a2-9634-8b67c7fe93a7","38847A12C5F4474FABDEC6FEA3AF0ED0-2025-05-22-19-17-17","","null","","images/causal_sequence/package_causal/package_causal_1.png","null","",""
"","","","","","image-button-response","42","218379","0.0-10.0-1.0-2.5","38847A12C5F4474FABDEC6FEA3AF0ED0","38847A12C5F4474FABDEC6FEA3AF0ED0","ccae45ef-6140-4db1-b12b-1dda977d6b6f","9076ac92-be42-43a2-9634-8b67c7fe93a7","{""num_scrambled_semantic"":""8"",""num_scrambled_causal"":""4"",""num_scrambled_schematic"":""4"",""participantId"":""38847A12C5F4474FABDEC6FEA3AF0ED0"",""assignmentId"":""ccae45ef-6140-4db1-b12b-1dda977d6b6f"",""projectId"":""9076ac92-be42-43a2-9634-8b67c7fe93a7""}","https://test12345.live/?num_scrambled_semantic=8&num_scrambled_causal=4&num_scrambled_schematic=4&participantId=38847A12C5F4474FABDEC6FEA3AF0ED0&assignmentId=ccae45ef-6140-4db1-b12b-1dda977d6b6f&projectId=9076ac92-be42-43a2-9634-8b67c7fe93a7","38847A12C5F4474FABDEC6FEA3AF0ED0-2025-05-22-19-17-17","","null","","[]","null","",""
"","","","","","image-button-response","43","222882","0.0-10.0-1.0-0.6","38847A12C5F4474FABDEC6FEA3AF0ED0","38847A12C5F4474FABDEC6FEA3AF0ED0","ccae45ef-6140-4db1-b12b-1dda977d6b6f","9076ac92-be42-43a2-9634-8b67c7fe93a7","{""num_scrambled_semantic"":""8"",""num_scrambled_causal"":""4"",""num_scrambled_schematic"":""4"",""participantId"":""38847A12C5F4474FABDEC6FEA3AF0ED0"",""assignmentId"":""ccae45ef-6140-4db1-b12b-1dda977d6b6f"",""projectId"":""9076ac92-be42-43a2-9634-8b67c7fe93a7""}","https://test12345.live/?num_scrambled_semantic=8&num_scrambled_causal=4&num_scrambled_schematic=4&participantId=38847A12C5F4474FABDEC6FEA3AF0ED0&assignmentId=ccae45ef-6140-4db1-b12b-1dda977d6b6f&projectId=9076ac92-be42-43a2-9634-8b67c7fe93a7","38847A12C5F4474FABDEC6FEA3AF0ED0-2025-05-22-19-17-17","","null","","images/causal_sequence/package_causal/package_causal_5.png","null","",""
"","","","","","image-button-response","44","223991","0.0-10.0-1.0-1.6","38847A12C5F4474FABDEC6FEA3AF0ED0","38847A12C5F4474FABDEC6FEA3AF0ED0","ccae45ef-6140-4db1-b12b-1dda977d6b6f","9076ac92-be42-43a2-9634-8b67c7fe93a7","{""num_scrambled_semantic"":""8"",""num_scrambled_causal"":""4"",""num_scrambled_schematic"":""4"",""participantId"":""38847A12C5F4474FABDEC6FEA3AF0ED0"",""assignmentId"":""ccae45ef-6140-4db1-b12b-1dda977d6b6f"",""projectId"":""9076ac92-be42-43a2-9634-8b67c7fe93a7""}","https://test12345.live/?num_scrambled_semantic=8&num_scrambled_causal=4&num_scrambled_schematic=4&participantId=38847A12C5F4474FABDEC6FEA3AF0ED0&assignmentId=ccae45ef-6140-4db1-b12b-1dda977d6b6f&projectId=9076ac92-be42-43a2-9634-8b67c7fe93a7","38847A12C5F4474FABDEC6FEA3AF0ED0-2025-05-22-19-17-17","","1107","","images/causal_sequence/package_causal/package_causal_5.png","0","",""
"","","","","","image-button-response","45","225795","0.0-10.0-1.0-2.6","38847A12C5F4474FABDEC6FEA3AF0ED0","38847A12C5F4474FABDEC6FEA3AF0ED0","ccae45ef-6140-4db1-b12b-1dda977d6b6f","9076ac92-be42-43a2-9634-8b67c7fe93a7","{""num_scrambled_semantic"":""8"",""num_scrambled_causal"":""4"",""num_scrambled_schematic"":""4"",""participantId"":""38847A12C5F4474FABDEC6FEA3AF0ED0"",""assignmentId"":""ccae45ef-6140-4db1-b12b-1dda977d6b6f"",""projectId"":""9076ac92-be42-43a2-9634-8b67c7fe93a7""}","https://test12345.live/?num_scrambled_semantic=8&num_scrambled_causal=4&num_scrambled_schematic=4&participantId=38847A12C5F4474FABDEC6FEA3AF0ED0&assignmentId=ccae45ef-6140-4db1-b12b-1dda977d6b6f&projectId=9076ac92-be42-43a2-9634-8b67c7fe93a7","38847A12C5F4474FABDEC6FEA3AF0ED0-2025-05-22-19-17-17","","null","","[]","null","",""
"","","","","","image-button-response","46","230299","0.0-10.0-1.0-0.7","38847A12C5F4474FABDEC6FEA3AF0ED0","38847A12C5F4474FABDEC6FEA3AF0ED0","ccae45ef-6140-4db1-b12b-1dda977d6b6f","9076ac92-be42-43a2-9634-8b67c7fe93a7","{""num_scrambled_semantic"":""8"",""num_scrambled_causal"":""4"",""num_scrambled_schematic"":""4"",""participantId"":""38847A12C5F4474FABDEC6FEA3AF0ED0"",""assignmentId"":""ccae45ef-6140-4db1-b12b-1dda977d6b6f"",""projectId"":""9076ac92-be42-43a2-9634-8b67c7fe93a7""}","https://test12345.live/?num_scrambled_semantic=8&num_scrambled_causal=4&num_scrambled_schematic=4&participantId=38847A12C5F4474FABDEC6FEA3AF0ED0&assignmentId=ccae45ef-6140-4db1-b12b-1dda977d6b6f&projectId=9076ac92-be42-43a2-9634-8b67c7fe93a7","38847A12C5F4474FABDEC6FEA3AF0ED0-2025-05-22-19-17-17","","null","","images/causal_sequence/package_causal/package_causal_2.png","null","",""
"","","","","","image-button-response","47","234301","0.0-10.0-1.0-1.7","38847A12C5F4474FABDEC6FEA3AF0ED0","38847A12C5F4474FABDEC6FEA3AF0ED0","ccae45ef-6140-4db1-b12b-1dda977d6b6f","9076ac92-be42-43a2-9634-8b67c7fe93a7","{""num_scrambled_semantic"":""8"",""num_scrambled_causal"":""4"",""num_scrambled_schematic"":""4"",""participantId"":""38847A12C5F4474FABDEC6FEA3AF0ED0"",""assignmentId"":""ccae45ef-6140-4db1-b12b-1dda977d6b6f"",""projectId"":""9076ac92-be42-43a2-9634-8b67c7fe93a7""}","https://test12345.live/?num_scrambled_semantic=8&num_scrambled_causal=4&num_scrambled_schematic=4&participantId=38847A12C5F4474FABDEC6FEA3AF0ED0&assignmentId=ccae45ef-6140-4db1-b12b-1dda977d6b6f&projectId=9076ac92-be42-43a2-9634-8b67c7fe93a7","38847A12C5F4474FABDEC6FEA3AF0ED0-2025-05-22-19-17-17","","null","","images/causal_sequence/package_causal/package_causal_2.png","null","",""
"","","","","","image-button-response","48","236103","0.0-10.0-1.0-2.7","38847A12C5F4474FABDEC6FEA3AF0ED0","38847A12C5F4474FABDEC6FEA3AF0ED0","ccae45ef-6140-4db1-b12b-1dda977d6b6f","9076ac92-be42-43a2-9634-8b67c7fe93a7","{""num_scrambled_semantic"":""8"",""num_scrambled_causal"":""4"",""num_scrambled_schematic"":""4"",""participantId"":""38847A12C5F4474FABDEC6FEA3AF0ED0"",""assignmentId"":""ccae45ef-6140-4db1-b12b-1dda977d6b6f"",""projectId"":""9076ac92-be42-43a2-9634-8b67c7fe93a7""}","https://test12345.live/?num_scrambled_semantic=8&num_scrambled_causal=4&num_scrambled_schematic=4&participantId=38847A12C5F4474FABDEC6FEA3AF0ED0&assignmentId=ccae45ef-6140-4db1-b12b-1dda977d6b6f&projectId=9076ac92-be42-43a2-9634-8b67c7fe93a7","38847A12C5F4474FABDEC6FEA3AF0ED0-2025-05-22-19-17-17","","null","","[]","null","",""
"","","","","","image-button-response","49","240607","0.0-10.0-1.0-0.8","38847A12C5F4474FABDEC6FEA3AF0ED0","38847A12C5F4474FABDEC6FEA3AF0ED0","ccae45ef-6140-4db1-b12b-1dda977d6b6f","9076ac92-be42-43a2-9634-8b67c7fe93a7","{""num_scrambled_semantic"":""8"",""num_scrambled_causal"":""4"",""num_scrambled_schematic"":""4"",""participantId"":""38847A12C5F4474FABDEC6FEA3AF0ED0"",""assignmentId"":""ccae45ef-6140-4db1-b12b-1dda977d6b6f"",""projectId"":""9076ac92-be42-43a2-9634-8b67c7fe93a7""}","https://test12345.live/?num_scrambled_semantic=8&num_scrambled_causal=4&num_scrambled_schematic=4&participantId=38847A12C5F4474FABDEC6FEA3AF0ED0&assignmentId=ccae45ef-6140-4db1-b12b-1dda977d6b6f&projectId=9076ac92-be42-43a2-9634-8b67c7fe93a7","38847A12C5F4474FABDEC6FEA3AF0ED0-2025-05-22-19-17-17","","null","","images/causal_sequence/package_causal/package_causal_4.png","null","",""
"","","","","","image-button-response","50","242308","0.0-10.0-1.0-1.8","38847A12C5F4474FABDEC6FEA3AF0ED0","38847A12C5F4474FABDEC6FEA3AF0ED0","ccae45ef-6140-4db1-b12b-1dda977d6b6f","9076ac92-be42-43a2-9634-8b67c7fe93a7","{""num_scrambled_semantic"":""8"",""num_scrambled_causal"":""4"",""num_scrambled_schematic"":""4"",""participantId"":""38847A12C5F4474FABDEC6FEA3AF0ED0"",""assignmentId"":""ccae45ef-6140-4db1-b12b-1dda977d6b6f"",""projectId"":""9076ac92-be42-43a2-9634-8b67c7fe93a7""}","https://test12345.live/?num_scrambled_semantic=8&num_scrambled_causal=4&num_scrambled_schematic=4&participantId=38847A12C5F4474FABDEC6FEA3AF0ED0&assignmentId=ccae45ef-6140-4db1-b12b-1dda977d6b6f&projectId=9076ac92-be42-43a2-9634-8b67c7fe93a7","38847A12C5F4474FABDEC6FEA3AF0ED0-2025-05-22-19-17-17","","1696","","images/causal_sequence/package_causal/package_causal_4.png","1","",""
"","","","","","image-button-response","51","244110","0.0-10.0-1.0-2.8","38847A12C5F4474FABDEC6FEA3AF0ED0","38847A12C5F4474FABDEC6FEA3AF0ED0","ccae45ef-6140-4db1-b12b-1dda977d6b6f","9076ac92-be42-43a2-9634-8b67c7fe93a7","{""num_scrambled_semantic"":""8"",""num_scrambled_causal"":""4"",""num_scrambled_schematic"":""4"",""participantId"":""38847A12C5F4474FABDEC6FEA3AF0ED0"",""assignmentId"":""ccae45ef-6140-4db1-b12b-1dda977d6b6f"",""projectId"":""9076ac92-be42-43a2-9634-8b67c7fe93a7""}","https://test12345.live/?num_scrambled_semantic=8&num_scrambled_causal=4&num_scrambled_schematic=4&participantId=38847A12C5F4474FABDEC6FEA3AF0ED0&assignmentId=ccae45ef-6140-4db1-b12b-1dda977d6b6f&projectId=9076ac92-be42-43a2-9634-8b67c7fe93a7","38847A12C5F4474FABDEC6FEA3AF0ED0-2025-05-22-19-17-17","","null","","[]","null","",""
"","","","","","image-button-response","52","248613","0.0-10.0-1.0-0.9","38847A12C5F4474FABDEC6FEA3AF0ED0","38847A12C5F4474FABDEC6FEA3AF0ED0","ccae45ef-6140-4db1-b12b-1dda977d6b6f","9076ac92-be42-43a2-9634-8b67c7fe93a7","{""num_scrambled_semantic"":""8"",""num_scrambled_causal"":""4"",""num_scrambled_schematic"":""4"",""participantId"":""38847A12C5F4474FABDEC6FEA3AF0ED0"",""assignmentId"":""ccae45ef-6140-4db1-b12b-1dda977d6b6f"",""projectId"":""9076ac92-be42-43a2-9634-8b67c7fe93a7""}","https://test12345.live/?num_scrambled_semantic=8&num_scrambled_causal=4&num_scrambled_schematic=4&participantId=38847A12C5F4474FABDEC6FEA3AF0ED0&assignmentId=ccae45ef-6140-4db1-b12b-1dda977d6b6f&projectId=9076ac92-be42-43a2-9634-8b67c7fe93a7","38847A12C5F4474FABDEC6FEA3AF0ED0-2025-05-22-19-17-17","","null","","images/causal_sequence/package_causal/package_causal_ten.png","null","",""
"","","","","","image-button-response","53","250084","0.0-10.0-1.0-1.9","38847A12C5F4474FABDEC6FEA3AF0ED0","38847A12C5F4474FABDEC6FEA3AF0ED0","ccae45ef-6140-4db1-b12b-1dda977d6b6f","9076ac92-be42-43a2-9634-8b67c7fe93a7","{""num_scrambled_semantic"":""8"",""num_scrambled_causal"":""4"",""num_scrambled_schematic"":""4"",""participantId"":""38847A12C5F4474FABDEC6FEA3AF0ED0"",""assignmentId"":""ccae45ef-6140-4db1-b12b-1dda977d6b6f"",""projectId"":""9076ac92-be42-43a2-9634-8b67c7fe93a7""}","https://test12345.live/?num_scrambled_semantic=8&num_scrambled_causal=4&num_scrambled_schematic=4&participantId=38847A12C5F4474FABDEC6FEA3AF0ED0&assignmentId=ccae45ef-6140-4db1-b12b-1dda977d6b6f&projectId=9076ac92-be42-43a2-9634-8b67c7fe93a7","38847A12C5F4474FABDEC6FEA3AF0ED0-2025-05-22-19-17-17","","1467","","images/causal_sequence/package_causal/package_causal_ten.png","0","",""
"","","","","","image-button-response","54","251888","0.0-10.0-1.0-2.9","38847A12C5F4474FABDEC6FEA3AF0ED0","38847A12C5F4474FABDEC6FEA3AF0ED0","ccae45ef-6140-4db1-b12b-1dda977d6b6f","9076ac92-be42-43a2-9634-8b67c7fe93a7","{""num_scrambled_semantic"":""8"",""num_scrambled_causal"":""4"",""num_scrambled_schematic"":""4"",""participantId"":""38847A12C5F4474FABDEC6FEA3AF0ED0"",""assignmentId"":""ccae45ef-6140-4db1-b12b-1dda977d6b6f"",""projectId"":""9076ac92-be42-43a2-9634-8b67c7fe93a7""}","https://test12345.live/?num_scrambled_semantic=8&num_scrambled_causal=4&num_scrambled_schematic=4&participantId=38847A12C5F4474FABDEC6FEA3AF0ED0&assignmentId=ccae45ef-6140-4db1-b12b-1dda977d6b6f&projectId=9076ac92-be42-43a2-9634-8b67c7fe93a7","38847A12C5F4474FABDEC6FEA3AF0ED0-2025-05-22-19-17-17","","null","","[]","null","",""
"","","","","","html-audio-response","55","285679","0.0-11.0","38847A12C5F4474FABDEC6FEA3AF0ED0","38847A12C5F4474FABDEC6FEA3AF0ED0","ccae45ef-6140-4db1-b12b-1dda977d6b6f","9076ac92-be42-43a2-9634-8b67c7fe93a7","{""num_scrambled_semantic"":""8"",""num_scrambled_causal"":""4"",""num_scrambled_schematic"":""4"",""participantId"":""38847A12C5F4474FABDEC6FEA3AF0ED0"",""assignmentId"":""ccae45ef-6140-4db1-b12b-1dda977d6b6f"",""projectId"":""9076ac92-be42-43a2-9634-8b67c7fe93a7""}","https://test12345.live/?num_scrambled_semantic=8&num_scrambled_causal=4&num_scrambled_schematic=4&participantId=38847A12C5F4474FABDEC6FEA3AF0ED0&assignmentId=ccae45ef-6140-4db1-b12b-1dda977d6b6f&projectId=9076ac92-be42-43a2-9634-8b67c7fe93a7","38847A12C5F4474FABDEC6FEA3AF0ED0-2025-05-22-19-17-17","","32659","","[""<span style=\""color: red; font-size: 24px\""> NOW RECORDING</span><p>Please say out loud all the images you saw, in the exact order you saw them. Try to recall as many images as you can, but remember: getting the order right is more important than the number of images you recall.</p>""]","","2","package_causal"
"","","","","","image-button-response","56","291690","0.0-12.0-0.0","38847A12C5F4474FABDEC6FEA3AF0ED0","38847A12C5F4474FABDEC6FEA3AF0ED0","ccae45ef-6140-4db1-b12b-1dda977d6b6f","9076ac92-be42-43a2-9634-8b67c7fe93a7","{""num_scrambled_semantic"":""8"",""num_scrambled_causal"":""4"",""num_scrambled_schematic"":""4"",""participantId"":""38847A12C5F4474FABDEC6FEA3AF0ED0"",""assignmentId"":""ccae45ef-6140-4db1-b12b-1dda977d6b6f"",""projectId"":""9076ac92-be42-43a2-9634-8b67c7fe93a7""}","https://test12345.live/?num_scrambled_semantic=8&num_scrambled_causal=4&num_scrambled_schematic=4&participantId=38847A12C5F4474FABDEC6FEA3AF0ED0&assignmentId=ccae45ef-6140-4db1-b12b-1dda977d6b6f&projectId=9076ac92-be42-43a2-9634-8b67c7fe93a7","38847A12C5F4474FABDEC6FEA3AF0ED0-2025-05-22-19-17-17","","null","","images/semantic_sequence/redecorating_semantic/redecorating_semantic_0.png","null","",""
"","","","","","image-button-response","57","296193","0.0-12.0-1.0-0.0","38847A12C5F4474FABDEC6FEA3AF0ED0","38847A12C5F4474FABDEC6FEA3AF0ED0","ccae45ef-6140-4db1-b12b-1dda977d6b6f","9076ac92-be42-43a2-9634-8b67c7fe93a7","{""num_scrambled_semantic"":""8"",""num_scrambled_causal"":""4"",""num_scrambled_schematic"":""4"",""participantId"":""38847A12C5F4474FABDEC6FEA3AF0ED0"",""assignmentId"":""ccae45ef-6140-4db1-b12b-1dda977d6b6f"",""projectId"":""9076ac92-be42-43a2-9634-8b67c7fe93a7""}","https://test12345.live/?num_scrambled_semantic=8&num_scrambled_causal=4&num_scrambled_schematic=4&participantId=38847A12C5F4474FABDEC6FEA3AF0ED0&assignmentId=ccae45ef-6140-4db1-b12b-1dda977d6b6f&projectId=9076ac92-be42-43a2-9634-8b67c7fe93a7","38847A12C5F4474FABDEC6FEA3AF0ED0-2025-05-22-19-17-17","","null","","images/semantic_sequence/redecorating_semantic/redecorating_semantic_6.png","null","",""
"","","","","","image-button-response","58","299000","0.0-12.0-1.0-1.0","38847A12C5F4474FABDEC6FEA3AF0ED0","38847A12C5F4474FABDEC6FEA3AF0ED0","ccae45ef-6140-4db1-b12b-1dda977d6b6f","9076ac92-be42-43a2-9634-8b67c7fe93a7","{""num_scrambled_semantic"":""8"",""num_scrambled_causal"":""4"",""num_scrambled_schematic"":""4"",""participantId"":""38847A12C5F4474FABDEC6FEA3AF0ED0"",""assignmentId"":""ccae45ef-6140-4db1-b12b-1dda977d6b6f"",""projectId"":""9076ac92-be42-43a2-9634-8b67c7fe93a7""}","https://test12345.live/?num_scrambled_semantic=8&num_scrambled_causal=4&num_scrambled_schematic=4&participantId=38847A12C5F4474FABDEC6FEA3AF0ED0&assignmentId=ccae45ef-6140-4db1-b12b-1dda977d6b6f&projectId=9076ac92-be42-43a2-9634-8b67c7fe93a7","38847A12C5F4474FABDEC6FEA3AF0ED0-2025-05-22-19-17-17","","2805","","images/semantic_sequence/redecorating_semantic/redecorating_semantic_6.png","0","",""
"","","","","","image-button-response","59","300803","0.0-12.0-1.0-2.0","38847A12C5F4474FABDEC6FEA3AF0ED0","38847A12C5F4474FABDEC6FEA3AF0ED0","ccae45ef-6140-4db1-b12b-1dda977d6b6f","9076ac92-be42-43a2-9634-8b67c7fe93a7","{""num_scrambled_semantic"":""8"",""num_scrambled_causal"":""4"",""num_scrambled_schematic"":""4"",""participantId"":""38847A12C5F4474FABDEC6FEA3AF0ED0"",""assignmentId"":""ccae45ef-6140-4db1-b12b-1dda977d6b6f"",""projectId"":""9076ac92-be42-43a2-9634-8b67c7fe93a7""}","https://test12345.live/?num_scrambled_semantic=8&num_scrambled_causal=4&num_scrambled_schematic=4&participantId=38847A12C5F4474FABDEC6FEA3AF0ED0&assignmentId=ccae45ef-6140-4db1-b12b-1dda977d6b6f&projectId=9076ac92-be42-43a2-9634-8b67c7fe93a7","38847A12C5F4474FABDEC6FEA3AF0ED0-2025-05-22-19-17-17","","null","","[]","null","",""
"","","","","","image-button-response","60","305308","0.0-12.0-1.0-0.1","38847A12C5F4474FABDEC6FEA3AF0ED0","38847A12C5F4474FABDEC6FEA3AF0ED0","ccae45ef-6140-4db1-b12b-1dda977d6b6f","9076ac92-be42-43a2-9634-8b67c7fe93a7","{""num_scrambled_semantic"":""8"",""num_scrambled_causal"":""4"",""num_scrambled_schematic"":""4"",""participantId"":""38847A12C5F4474FABDEC6FEA3AF0ED0"",""assignmentId"":""ccae45ef-6140-4db1-b12b-1dda977d6b6f"",""projectId"":""9076ac92-be42-43a2-9634-8b67c7fe93a7""}","https://test12345.live/?num_scrambled_semantic=8&num_scrambled_causal=4&num_scrambled_schematic=4&participantId=38847A12C5F4474FABDEC6FEA3AF0ED0&assignmentId=ccae45ef-6140-4db1-b12b-1dda977d6b6f&projectId=9076ac92-be42-43a2-9634-8b67c7fe93a7","38847A12C5F4474FABDEC6FEA3AF0ED0-2025-05-22-19-17-17","","null","","images/semantic_sequence/redecorating_semantic/redecorating_semantic_5.png","null","",""
"","","","","","image-button-response","61","306585","0.0-12.0-1.0-1.1","38847A12C5F4474FABDEC6FEA3AF0ED0","38847A12C5F4474FABDEC6FEA3AF0ED0","ccae45ef-6140-4db1-b12b-1dda977d6b6f","9076ac92-be42-43a2-9634-8b67c7fe93a7","{""num_scrambled_semantic"":""8"",""num_scrambled_causal"":""4"",""num_scrambled_schematic"":""4"",""participantId"":""38847A12C5F4474FABDEC6FEA3AF0ED0"",""assignmentId"":""ccae45ef-6140-4db1-b12b-1dda977d6b6f"",""projectId"":""9076ac92-be42-43a2-9634-8b67c7fe93a7""}","https://test12345.live/?num_scrambled_semantic=8&num_scrambled_causal=4&num_scrambled_schematic=4&participantId=38847A12C5F4474FABDEC6FEA3AF0ED0&assignmentId=ccae45ef-6140-4db1-b12b-1dda977d6b6f&projectId=9076ac92-be42-43a2-9634-8b67c7fe93a7","38847A12C5F4474FABDEC6FEA3AF0ED0-2025-05-22-19-17-17","","1273","","images/semantic_sequence/redecorating_semantic/redecorating_semantic_5.png","0","",""
"","","","","","image-button-response","62","308389","0.0-12.0-1.0-2.1","38847A12C5F4474FABDEC6FEA3AF0ED0","38847A12C5F4474FABDEC6FEA3AF0ED0","ccae45ef-6140-4db1-b12b-1dda977d6b6f","9076ac92-be42-43a2-9634-8b67c7fe93a7","{""num_scrambled_semantic"":""8"",""num_scrambled_causal"":""4"",""num_scrambled_schematic"":""4"",""participantId"":""38847A12C5F4474FABDEC6FEA3AF0ED0"",""assignmentId"":""ccae45ef-6140-4db1-b12b-1dda977d6b6f"",""projectId"":""9076ac92-be42-43a2-9634-8b67c7fe93a7""}","https://test12345.live/?num_scrambled_semantic=8&num_scrambled_causal=4&num_scrambled_schematic=4&participantId=38847A12C5F4474FABDEC6FEA3AF0ED0&assignmentId=ccae45ef-6140-4db1-b12b-1dda977d6b6f&projectId=9076ac92-be42-43a2-9634-8b67c7fe93a7","38847A12C5F4474FABDEC6FEA3AF0ED0-2025-05-22-19-17-17","","null","","[]","null","",""
"","","","","","image-button-response","63","312894","0.0-12.0-1.0-0.2","38847A12C5F4474FABDEC6FEA3AF0ED0","38847A12C5F4474FABDEC6FEA3AF0ED0","ccae45ef-6140-4db1-b12b-1dda977d6b6f","9076ac92-be42-43a2-9634-8b67c7fe93a7","{""num_scrambled_semantic"":""8"",""num_scrambled_causal"":""4"",""num_scrambled_schematic"":""4"",""participantId"":""38847A12C5F4474FABDEC6FEA3AF0ED0"",""assignmentId"":""ccae45ef-6140-4db1-b12b-1dda977d6b6f"",""projectId"":""9076ac92-be42-43a2-9634-8b67c7fe93a7""}","https://test12345.live/?num_scrambled_semantic=8&num_scrambled_causal=4&num_scrambled_schematic=4&participantId=38847A12C5F4474FABDEC6FEA3AF0ED0&assignmentId=ccae45ef-6140-4db1-b12b-1dda977d6b6f&projectId=9076ac92-be42-43a2-9634-8b67c7fe93a7","38847A12C5F4474FABDEC6FEA3AF0ED0-2025-05-22-19-17-17","","null","","images/semantic_sequence/redecorating_semantic/redecorating_semantic_1.png","null","",""
"","","","","","image-button-response","64","314594","0.0-12.0-1.0-1.2","38847A12C5F4474FABDEC6FEA3AF0ED0","38847A12C5F4474FABDEC6FEA3AF0ED0","ccae45ef-6140-4db1-b12b-1dda977d6b6f","9076ac92-be42-43a2-9634-8b67c7fe93a7","{""num_scrambled_semantic"":""8"",""num_scrambled_causal"":""4"",""num_scrambled_schematic"":""4"",""participantId"":""38847A12C5F4474FABDEC6FEA3AF0ED0"",""assignmentId"":""ccae45ef-6140-4db1-b12b-1dda977d6b6f"",""projectId"":""9076ac92-be42-43a2-9634-8b67c7fe93a7""}","https://test12345.live/?num_scrambled_semantic=8&num_scrambled_causal=4&num_scrambled_schematic=4&participantId=38847A12C5F4474FABDEC6FEA3AF0ED0&assignmentId=ccae45ef-6140-4db1-b12b-1dda977d6b6f&projectId=9076ac92-be42-43a2-9634-8b67c7fe93a7","38847A12C5F4474FABDEC6FEA3AF0ED0-2025-05-22-19-17-17","","1697","","images/semantic_sequence/redecorating_semantic/redecorating_semantic_1.png","0","",""
"","","","","","image-button-response","65","316397","0.0-12.0-1.0-2.2","38847A12C5F4474FABDEC6FEA3AF0ED0","38847A12C5F4474FABDEC6FEA3AF0ED0","ccae45ef-6140-4db1-b12b-1dda977d6b6f","9076ac92-be42-43a2-9634-8b67c7fe93a7","{""num_scrambled_semantic"":""8"",""num_scrambled_causal"":""4"",""num_scrambled_schematic"":""4"",""participantId"":""38847A12C5F4474FABDEC6FEA3AF0ED0"",""assignmentId"":""ccae45ef-6140-4db1-b12b-1dda977d6b6f"",""projectId"":""9076ac92-be42-43a2-9634-8b67c7fe93a7""}","https://test12345.live/?num_scrambled_semantic=8&num_scrambled_causal=4&num_scrambled_schematic=4&participantId=38847A12C5F4474FABDEC6FEA3AF0ED0&assignmentId=ccae45ef-6140-4db1-b12b-1dda977d6b6f&projectId=9076ac92-be42-43a2-9634-8b67c7fe93a7","38847A12C5F4474FABDEC6FEA3AF0ED0-2025-05-22-19-17-17","","null","","[]","null","",""
"","","","","","image-button-response","66","320901","0.0-12.0-1.0-0.3","38847A12C5F4474FABDEC6FEA3AF0ED0","38847A12C5F4474FABDEC6FEA3AF0ED0","ccae45ef-6140-4db1-b12b-1dda977d6b6f","9076ac92-be42-43a2-9634-8b67c7fe93a7","{""num_scrambled_semantic"":""8"",""num_scrambled_causal"":""4"",""num_scrambled_schematic"":""4"",""participantId"":""38847A12C5F4474FABDEC6FEA3AF0ED0"",""assignmentId"":""ccae45ef-6140-4db1-b12b-1dda977d6b6f"",""projectId"":""9076ac92-be42-43a2-9634-8b67c7fe93a7""}","https://test12345.live/?num_scrambled_semantic=8&num_scrambled_causal=4&num_scrambled_schematic=4&participantId=38847A12C5F4474FABDEC6FEA3AF0ED0&assignmentId=ccae45ef-6140-4db1-b12b-1dda977d6b6f&projectId=9076ac92-be42-43a2-9634-8b67c7fe93a7","38847A12C5F4474FABDEC6FEA3AF0ED0-2025-05-22-19-17-17","","null","","images/semantic_sequence/redecorating_semantic/redecorating_semantic_2.png","null","",""
"","","","","","image-button-response","67","323695","0.0-12.0-1.0-1.3","38847A12C5F4474FABDEC6FEA3AF0ED0","38847A12C5F4474FABDEC6FEA3AF0ED0","ccae45ef-6140-4db1-b12b-1dda977d6b6f","9076ac92-be42-43a2-9634-8b67c7fe93a7","{""num_scrambled_semantic"":""8"",""num_scrambled_causal"":""4"",""num_scrambled_schematic"":""4"",""participantId"":""38847A12C5F4474FABDEC6FEA3AF0ED0"",""assignmentId"":""ccae45ef-6140-4db1-b12b-1dda977d6b6f"",""projectId"":""9076ac92-be42-43a2-9634-8b67c7fe93a7""}","https://test12345.live/?num_scrambled_semantic=8&num_scrambled_causal=4&num_scrambled_schematic=4&participantId=38847A12C5F4474FABDEC6FEA3AF0ED0&assignmentId=ccae45ef-6140-4db1-b12b-1dda977d6b6f&projectId=9076ac92-be42-43a2-9634-8b67c7fe93a7","38847A12C5F4474FABDEC6FEA3AF0ED0-2025-05-22-19-17-17","","2791","","images/semantic_sequence/redecorating_semantic/redecorating_semantic_2.png","0","",""
"","","","","","image-button-response","68","325498","0.0-12.0-1.0-2.3","38847A12C5F4474FABDEC6FEA3AF0ED0","38847A12C5F4474FABDEC6FEA3AF0ED0","ccae45ef-6140-4db1-b12b-1dda977d6b6f","9076ac92-be42-43a2-9634-8b67c7fe93a7","{""num_scrambled_semantic"":""8"",""num_scrambled_causal"":""4"",""num_scrambled_schematic"":""4"",""participantId"":""38847A12C5F4474FABDEC6FEA3AF0ED0"",""assignmentId"":""ccae45ef-6140-4db1-b12b-1dda977d6b6f"",""projectId"":""9076ac92-be42-43a2-9634-8b67c7fe93a7""}","https://test12345.live/?num_scrambled_semantic=8&num_scrambled_causal=4&num_scrambled_schematic=4&participantId=38847A12C5F4474FABDEC6FEA3AF0ED0&assignmentId=ccae45ef-6140-4db1-b12b-1dda977d6b6f&projectId=9076ac92-be42-43a2-9634-8b67c7fe93a7","38847A12C5F4474FABDEC6FEA3AF0ED0-2025-05-22-19-17-17","","null","","[]","null","",""
"","","","","","image-button-response","69","330001","0.0-12.0-1.0-0.4","38847A12C5F4474FABDEC6FEA3AF0ED0","38847A12C5F4474FABDEC6FEA3AF0ED0","ccae45ef-6140-4db1-b12b-1dda977d6b6f","9076ac92-be42-43a2-9634-8b67c7fe93a7","{""num_scrambled_semantic"":""8"",""num_scrambled_causal"":""4"",""num_scrambled_schematic"":""4"",""participantId"":""38847A12C5F4474FABDEC6FEA3AF0ED0"",""assignmentId"":""ccae45ef-6140-4db1-b12b-1dda977d6b6f"",""projectId"":""9076ac92-be42-43a2-9634-8b67c7fe93a7""}","https://test12345.live/?num_scrambled_semantic=8&num_scrambled_causal=4&num_scrambled_schematic=4&participantId=38847A12C5F4474FABDEC6FEA3AF0ED0&assignmentId=ccae45ef-6140-4db1-b12b-1dda977d6b6f&projectId=9076ac92-be42-43a2-9634-8b67c7fe93a7","38847A12C5F4474FABDEC6FEA3AF0ED0-2025-05-22-19-17-17","","null","","images/semantic_sequence/redecorating_semantic/redecorating_semantic_7.png","null","",""
"","","","","","image-button-response","70","331329","0.0-12.0-1.0-1.4","38847A12C5F4474FABDEC6FEA3AF0ED0","38847A12C5F4474FABDEC6FEA3AF0ED0","ccae45ef-6140-4db1-b12b-1dda977d6b6f","9076ac92-be42-43a2-9634-8b67c7fe93a7","{""num_scrambled_semantic"":""8"",""num_scrambled_causal"":""4"",""num_scrambled_schematic"":""4"",""participantId"":""38847A12C5F4474FABDEC6FEA3AF0ED0"",""assignmentId"":""ccae45ef-6140-4db1-b12b-1dda977d6b6f"",""projectId"":""9076ac92-be42-43a2-9634-8b67c7fe93a7""}","https://test12345.live/?num_scrambled_semantic=8&num_scrambled_causal=4&num_scrambled_schematic=4&participantId=38847A12C5F4474FABDEC6FEA3AF0ED0&assignmentId=ccae45ef-6140-4db1-b12b-1dda977d6b6f&projectId=9076ac92-be42-43a2-9634-8b67c7fe93a7","38847A12C5F4474FABDEC6FEA3AF0ED0-2025-05-22-19-17-17","","1326","","images/semantic_sequence/redecorating_semantic/redecorating_semantic_7.png","0","",""
"","","","","","image-button-response","71","333131","0.0-12.0-1.0-2.4","38847A12C5F4474FABDEC6FEA3AF0ED0","38847A12C5F4474FABDEC6FEA3AF0ED0","ccae45ef-6140-4db1-b12b-1dda977d6b6f","9076ac92-be42-43a2-9634-8b67c7fe93a7","{""num_scrambled_semantic"":""8"",""num_scrambled_causal"":""4"",""num_scrambled_schematic"":""4"",""participantId"":""38847A12C5F4474FABDEC6FEA3AF0ED0"",""assignmentId"":""ccae45ef-6140-4db1-b12b-1dda977d6b6f"",""projectId"":""9076ac92-be42-43a2-9634-8b67c7fe93a7""}","https://test12345.live/?num_scrambled_semantic=8&num_scrambled_causal=4&num_scrambled_schematic=4&participantId=38847A12C5F4474FABDEC6FEA3AF0ED0&assignmentId=ccae45ef-6140-4db1-b12b-1dda977d6b6f&projectId=9076ac92-be42-43a2-9634-8b67c7fe93a7","38847A12C5F4474FABDEC6FEA3AF0ED0-2025-05-22-19-17-17","","null","","[]","null","",""
"","","","","","image-button-response","72","337633","0.0-12.0-1.0-0.5","38847A12C5F4474FABDEC6FEA3AF0ED0","38847A12C5F4474FABDEC6FEA3AF0ED0","ccae45ef-6140-4db1-b12b-1dda977d6b6f","9076ac92-be42-43a2-9634-8b67c7fe93a7","{""num_scrambled_semantic"":""8"",""num_scrambled_causal"":""4"",""num_scrambled_schematic"":""4"",""participantId"":""38847A12C5F4474FABDEC6FEA3AF0ED0"",""assignmentId"":""ccae45ef-6140-4db1-b12b-1dda977d6b6f"",""projectId"":""9076ac92-be42-43a2-9634-8b67c7fe93a7""}","https://test12345.live/?num_scrambled_semantic=8&num_scrambled_causal=4&num_scrambled_schematic=4&participantId=38847A12C5F4474FABDEC6FEA3AF0ED0&assignmentId=ccae45ef-6140-4db1-b12b-1dda977d6b6f&projectId=9076ac92-be42-43a2-9634-8b67c7fe93a7","38847A12C5F4474FABDEC6FEA3AF0ED0-2025-05-22-19-17-17","","null","","images/semantic_sequence/redecorating_semantic/redecorating_semantic_3.png","null","",""
"","","","","","image-button-response","73","339818","0.0-12.0-1.0-1.5","38847A12C5F4474FABDEC6FEA3AF0ED0","38847A12C5F4474FABDEC6FEA3AF0ED0","ccae45ef-6140-4db1-b12b-1dda977d6b6f","9076ac92-be42-43a2-9634-8b67c7fe93a7","{""num_scrambled_semantic"":""8"",""num_scrambled_causal"":""4"",""num_scrambled_schematic"":""4"",""participantId"":""38847A12C5F4474FABDEC6FEA3AF0ED0"",""assignmentId"":""ccae45ef-6140-4db1-b12b-1dda977d6b6f"",""projectId"":""9076ac92-be42-43a2-9634-8b67c7fe93a7""}","https://test12345.live/?num_scrambled_semantic=8&num_scrambled_causal=4&num_scrambled_schematic=4&participantId=38847A12C5F4474FABDEC6FEA3AF0ED0&assignmentId=ccae45ef-6140-4db1-b12b-1dda977d6b6f&projectId=9076ac92-be42-43a2-9634-8b67c7fe93a7","38847A12C5F4474FABDEC6FEA3AF0ED0-2025-05-22-19-17-17","","2183","","images/semantic_sequence/redecorating_semantic/redecorating_semantic_3.png","0","",""
"","","","","","image-button-response","74","341620","0.0-12.0-1.0-2.5","38847A12C5F4474FABDEC6FEA3AF0ED0","38847A12C5F4474FABDEC6FEA3AF0ED0","ccae45ef-6140-4db1-b12b-1dda977d6b6f","9076ac92-be42-43a2-9634-8b67c7fe93a7","{""num_scrambled_semantic"":""8"",""num_scrambled_causal"":""4"",""num_scrambled_schematic"":""4"",""participantId"":""38847A12C5F4474FABDEC6FEA3AF0ED0"",""assignmentId"":""ccae45ef-6140-4db1-b12b-1dda977d6b6f"",""projectId"":""9076ac92-be42-43a2-9634-8b67c7fe93a7""}","https://test12345.live/?num_scrambled_semantic=8&num_scrambled_causal=4&num_scrambled_schematic=4&participantId=38847A12C5F4474FABDEC6FEA3AF0ED0&assignmentId=ccae45ef-6140-4db1-b12b-1dda977d6b6f&projectId=9076ac92-be42-43a2-9634-8b67c7fe93a7","38847A12C5F4474FABDEC6FEA3AF0ED0-2025-05-22-19-17-17","","null","","[]","null","",""
"","","","","","image-button-response","75","346123","0.0-12.0-1.0-0.6","38847A12C5F4474FABDEC6FEA3AF0ED0","38847A12C5F4474FABDEC6FEA3AF0ED0","ccae45ef-6140-4db1-b12b-1dda977d6b6f","9076ac92-be42-43a2-9634-8b67c7fe93a7","{""num_scrambled_semantic"":""8"",""num_scrambled_causal"":""4"",""num_scrambled_schematic"":""4"",""participantId"":""38847A12C5F4474FABDEC6FEA3AF0ED0"",""assignmentId"":""ccae45ef-6140-4db1-b12b-1dda977d6b6f"",""projectId"":""9076ac92-be42-43a2-9634-8b67c7fe93a7""}","https://test12345.live/?num_scrambled_semantic=8&num_scrambled_causal=4&num_scrambled_schematic=4&participantId=38847A12C5F4474FABDEC6FEA3AF0ED0&assignmentId=ccae45ef-6140-4db1-b12b-1dda977d6b6f&projectId=9076ac92-be42-43a2-9634-8b67c7fe93a7","38847A12C5F4474FABDEC6FEA3AF0ED0-2025-05-22-19-17-17","","null","","images/semantic_sequence/redecorating_semantic/redecorating_semantic_ten.png","null","",""
"","","","","","image-button-response","76","346963","0.0-12.0-1.0-1.6","38847A12C5F4474FABDEC6FEA3AF0ED0","38847A12C5F4474FABDEC6FEA3AF0ED0","ccae45ef-6140-4db1-b12b-1dda977d6b6f","9076ac92-be42-43a2-9634-8b67c7fe93a7","{""num_scrambled_semantic"":""8"",""num_scrambled_causal"":""4"",""num_scrambled_schematic"":""4"",""participantId"":""38847A12C5F4474FABDEC6FEA3AF0ED0"",""assignmentId"":""ccae45ef-6140-4db1-b12b-1dda977d6b6f"",""projectId"":""9076ac92-be42-43a2-9634-8b67c7fe93a7""}","https://test12345.live/?num_scrambled_semantic=8&num_scrambled_causal=4&num_scrambled_schematic=4&participantId=38847A12C5F4474FABDEC6FEA3AF0ED0&assignmentId=ccae45ef-6140-4db1-b12b-1dda977d6b6f&projectId=9076ac92-be42-43a2-9634-8b67c7fe93a7","38847A12C5F4474FABDEC6FEA3AF0ED0-2025-05-22-19-17-17","","838","","images/semantic_sequence/redecorating_semantic/redecorating_semantic_ten.png","0","",""
"","","","","","image-button-response","77","348766","0.0-12.0-1.0-2.6","38847A12C5F4474FABDEC6FEA3AF0ED0","38847A12C5F4474FABDEC6FEA3AF0ED0","ccae45ef-6140-4db1-b12b-1dda977d6b6f","9076ac92-be42-43a2-9634-8b67c7fe93a7","{""num_scrambled_semantic"":""8"",""num_scrambled_causal"":""4"",""num_scrambled_schematic"":""4"",""participantId"":""38847A12C5F4474FABDEC6FEA3AF0ED0"",""assignmentId"":""ccae45ef-6140-4db1-b12b-1dda977d6b6f"",""projectId"":""9076ac92-be42-43a2-9634-8b67c7fe93a7""}","https://test12345.live/?num_scrambled_semantic=8&num_scrambled_causal=4&num_scrambled_schematic=4&participantId=38847A12C5F4474FABDEC6FEA3AF0ED0&assignmentId=ccae45ef-6140-4db1-b12b-1dda977d6b6f&projectId=9076ac92-be42-43a2-9634-8b67c7fe93a7","38847A12C5F4474FABDEC6FEA3AF0ED0-2025-05-22-19-17-17","","null","","[]","null","",""
"","","","","","image-button-response","78","353269","0.0-12.0-1.0-0.7","38847A12C5F4474FABDEC6FEA3AF0ED0","38847A12C5F4474FABDEC6FEA3AF0ED0","ccae45ef-6140-4db1-b12b-1dda977d6b6f","9076ac92-be42-43a2-9634-8b67c7fe93a7","{""num_scrambled_semantic"":""8"",""num_scrambled_causal"":""4"",""num_scrambled_schematic"":""4"",""participantId"":""38847A12C5F4474FABDEC6FEA3AF0ED0"",""assignmentId"":""ccae45ef-6140-4db1-b12b-1dda977d6b6f"",""projectId"":""9076ac92-be42-43a2-9634-8b67c7fe93a7""}","https://test12345.live/?num_scrambled_semantic=8&num_scrambled_causal=4&num_scrambled_schematic=4&participantId=38847A12C5F4474FABDEC6FEA3AF0ED0&assignmentId=ccae45ef-6140-4db1-b12b-1dda977d6b6f&projectId=9076ac92-be42-43a2-9634-8b67c7fe93a7","38847A12C5F4474FABDEC6FEA3AF0ED0-2025-05-22-19-17-17","","null","","images/semantic_sequence/redecorating_semantic/redecorating_semantic_4.png","null","",""
"","","","","","image-button-response","79","355041","0.0-12.0-1.0-1.7","38847A12C5F4474FABDEC6FEA3AF0ED0","38847A12C5F4474FABDEC6FEA3AF0ED0","ccae45ef-6140-4db1-b12b-1dda977d6b6f","9076ac92-be42-43a2-9634-8b67c7fe93a7","{""num_scrambled_semantic"":""8"",""num_scrambled_causal"":""4"",""num_scrambled_schematic"":""4"",""participantId"":""38847A12C5F4474FABDEC6FEA3AF0ED0"",""assignmentId"":""ccae45ef-6140-4db1-b12b-1dda977d6b6f"",""projectId"":""9076ac92-be42-43a2-9634-8b67c7fe93a7""}","https://test12345.live/?num_scrambled_semantic=8&num_scrambled_causal=4&num_scrambled_schematic=4&participantId=38847A12C5F4474FABDEC6FEA3AF0ED0&assignmentId=ccae45ef-6140-4db1-b12b-1dda977d6b6f&projectId=9076ac92-be42-43a2-9634-8b67c7fe93a7","38847A12C5F4474FABDEC6FEA3AF0ED0-2025-05-22-19-17-17","","1770","","images/semantic_sequence/redecorating_semantic/redecorating_semantic_4.png","0","",""
"","","","","","image-button-response","80","356844","0.0-12.0-1.0-2.7","38847A12C5F4474FABDEC6FEA3AF0ED0","38847A12C5F4474FABDEC6FEA3AF0ED0","ccae45ef-6140-4db1-b12b-1dda977d6b6f","9076ac92-be42-43a2-9634-8b67c7fe93a7","{""num_scrambled_semantic"":""8"",""num_scrambled_causal"":""4"",""num_scrambled_schematic"":""4"",""participantId"":""38847A12C5F4474FABDEC6FEA3AF0ED0"",""assignmentId"":""ccae45ef-6140-4db1-b12b-1dda977d6b6f"",""projectId"":""9076ac92-be42-43a2-9634-8b67c7fe93a7""}","https://test12345.live/?num_scrambled_semantic=8&num_scrambled_causal=4&num_scrambled_schematic=4&participantId=38847A12C5F4474FABDEC6FEA3AF0ED0&assignmentId=ccae45ef-6140-4db1-b12b-1dda977d6b6f&projectId=9076ac92-be42-43a2-9634-8b67c7fe93a7","38847A12C5F4474FABDEC6FEA3AF0ED0-2025-05-22-19-17-17","","null","","[]","null","",""
"","","","","","image-button-response","81","361347","0.0-12.0-1.0-0.8","38847A12C5F4474FABDEC6FEA3AF0ED0","38847A12C5F4474FABDEC6FEA3AF0ED0","ccae45ef-6140-4db1-b12b-1dda977d6b6f","9076ac92-be42-43a2-9634-8b67c7fe93a7","{""num_scrambled_semantic"":""8"",""num_scrambled_causal"":""4"",""num_scrambled_schematic"":""4"",""participantId"":""38847A12C5F4474FABDEC6FEA3AF0ED0"",""assignmentId"":""ccae45ef-6140-4db1-b12b-1dda977d6b6f"",""projectId"":""9076ac92-be42-43a2-9634-8b67c7fe93a7""}","https://test12345.live/?num_scrambled_semantic=8&num_scrambled_causal=4&num_scrambled_schematic=4&participantId=38847A12C5F4474FABDEC6FEA3AF0ED0&assignmentId=ccae45ef-6140-4db1-b12b-1dda977d6b6f&projectId=9076ac92-be42-43a2-9634-8b67c7fe93a7","38847A12C5F4474FABDEC6FEA3AF0ED0-2025-05-22-19-17-17","","null","","images/semantic_sequence/redecorating_semantic/redecorating_semantic_8.png","null","",""
"","","","","","image-button-response","82","362528","0.0-12.0-1.0-1.8","38847A12C5F4474FABDEC6FEA3AF0ED0","38847A12C5F4474FABDEC6FEA3AF0ED0","ccae45ef-6140-4db1-b12b-1dda977d6b6f","9076ac92-be42-43a2-9634-8b67c7fe93a7","{""num_scrambled_semantic"":""8"",""num_scrambled_causal"":""4"",""num_scrambled_schematic"":""4"",""participantId"":""38847A12C5F4474FABDEC6FEA3AF0ED0"",""assignmentId"":""ccae45ef-6140-4db1-b12b-1dda977d6b6f"",""projectId"":""9076ac92-be42-43a2-9634-8b67c7fe93a7""}","https://test12345.live/?num_scrambled_semantic=8&num_scrambled_causal=4&num_scrambled_schematic=4&participantId=38847A12C5F4474FABDEC6FEA3AF0ED0&assignmentId=ccae45ef-6140-4db1-b12b-1dda977d6b6f&projectId=9076ac92-be42-43a2-9634-8b67c7fe93a7","38847A12C5F4474FABDEC6FEA3AF0ED0-2025-05-22-19-17-17","","1179","","images/semantic_sequence/redecorating_semantic/redecorating_semantic_8.png","0","",""
"","","","","","image-button-response","83","364331","0.0-12.0-1.0-2.8","38847A12C5F4474FABDEC6FEA3AF0ED0","38847A12C5F4474FABDEC6FEA3AF0ED0","ccae45ef-6140-4db1-b12b-1dda977d6b6f","9076ac92-be42-43a2-9634-8b67c7fe93a7","{""num_scrambled_semantic"":""8"",""num_scrambled_causal"":""4"",""num_scrambled_schematic"":""4"",""participantId"":""38847A12C5F4474FABDEC6FEA3AF0ED0"",""assignmentId"":""ccae45ef-6140-4db1-b12b-1dda977d6b6f"",""projectId"":""9076ac92-be42-43a2-9634-8b67c7fe93a7""}","https://test12345.live/?num_scrambled_semantic=8&num_scrambled_causal=4&num_scrambled_schematic=4&participantId=38847A12C5F4474FABDEC6FEA3AF0ED0&assignmentId=ccae45ef-6140-4db1-b12b-1dda977d6b6f&projectId=9076ac92-be42-43a2-9634-8b67c7fe93a7","38847A12C5F4474FABDEC6FEA3AF0ED0-2025-05-22-19-17-17","","null","","[]","null","",""
"","","","","","image-button-response","84","368834","0.0-12.0-1.0-0.9","38847A12C5F4474FABDEC6FEA3AF0ED0","38847A12C5F4474FABDEC6FEA3AF0ED0","ccae45ef-6140-4db1-b12b-1dda977d6b6f","9076ac92-be42-43a2-9634-8b67c7fe93a7","{""num_scrambled_semantic"":""8"",""num_scrambled_causal"":""4"",""num_scrambled_schematic"":""4"",""participantId"":""38847A12C5F4474FABDEC6FEA3AF0ED0"",""assignmentId"":""ccae45ef-6140-4db1-b12b-1dda977d6b6f"",""projectId"":""9076ac92-be42-43a2-9634-8b67c7fe93a7""}","https://test12345.live/?num_scrambled_semantic=8&num_scrambled_causal=4&num_scrambled_schematic=4&participantId=38847A12C5F4474FABDEC6FEA3AF0ED0&assignmentId=ccae45ef-6140-4db1-b12b-1dda977d6b6f&projectId=9076ac92-be42-43a2-9634-8b67c7fe93a7","38847A12C5F4474FABDEC6FEA3AF0ED0-2025-05-22-19-17-17","","null","","images/semantic_sequence/redecorating_semantic/redecorating_semantic_9.png","null","",""
"","","","","","image-button-response","85","370439","0.0-12.0-1.0-1.9","38847A12C5F4474FABDEC6FEA3AF0ED0","38847A12C5F4474FABDEC6FEA3AF0ED0","ccae45ef-6140-4db1-b12b-1dda977d6b6f","9076ac92-be42-43a2-9634-8b67c7fe93a7","{""num_scrambled_semantic"":""8"",""num_scrambled_causal"":""4"",""num_scrambled_schematic"":""4"",""participantId"":""38847A12C5F4474FABDEC6FEA3AF0ED0"",""assignmentId"":""ccae45ef-6140-4db1-b12b-1dda977d6b6f"",""projectId"":""9076ac92-be42-43a2-9634-8b67c7fe93a7""}","https://test12345.live/?num_scrambled_semantic=8&num_scrambled_causal=4&num_scrambled_schematic=4&participantId=38847A12C5F4474FABDEC6FEA3AF0ED0&assignmentId=ccae45ef-6140-4db1-b12b-1dda977d6b6f&projectId=9076ac92-be42-43a2-9634-8b67c7fe93a7","38847A12C5F4474FABDEC6FEA3AF0ED0-2025-05-22-19-17-17","","1603","","images/semantic_sequence/redecorating_semantic/redecorating_semantic_9.png","0","",""
"","","","","","image-button-response","86","372241","0.0-12.0-1.0-2.9","38847A12C5F4474FABDEC6FEA3AF0ED0","38847A12C5F4474FABDEC6FEA3AF0ED0","ccae45ef-6140-4db1-b12b-1dda977d6b6f","9076ac92-be42-43a2-9634-8b67c7fe93a7","{""num_scrambled_semantic"":""8"",""num_scrambled_causal"":""4"",""num_scrambled_schematic"":""4"",""participantId"":""38847A12C5F4474FABDEC6FEA3AF0ED0"",""assignmentId"":""ccae45ef-6140-4db1-b12b-1dda977d6b6f"",""projectId"":""9076ac92-be42-43a2-9634-8b67c7fe93a7""}","https://test12345.live/?num_scrambled_semantic=8&num_scrambled_causal=4&num_scrambled_schematic=4&participantId=38847A12C5F4474FABDEC6FEA3AF0ED0&assignmentId=ccae45ef-6140-4db1-b12b-1dda977d6b6f&projectId=9076ac92-be42-43a2-9634-8b67c7fe93a7","38847A12C5F4474FABDEC6FEA3AF0ED0-2025-05-22-19-17-17","","null","","[]","null","",""
"","","","","","html-audio-response","87","400608","0.0-13.0","38847A12C5F4474FABDEC6FEA3AF0ED0","38847A12C5F4474FABDEC6FEA3AF0ED0","ccae45ef-6140-4db1-b12b-1dda977d6b6f","9076ac92-be42-43a2-9634-8b67c7fe93a7","{""num_scrambled_semantic"":""8"",""num_scrambled_causal"":""4"",""num_scrambled_schematic"":""4"",""participantId"":""38847A12C5F4474FABDEC6FEA3AF0ED0"",""assignmentId"":""ccae45ef-6140-4db1-b12b-1dda977d6b6f"",""projectId"":""9076ac92-be42-43a2-9634-8b67c7fe93a7""}","https://test12345.live/?num_scrambled_semantic=8&num_scrambled_causal=4&num_scrambled_schematic=4&participantId=38847A12C5F4474FABDEC6FEA3AF0ED0&assignmentId=ccae45ef-6140-4db1-b12b-1dda977d6b6f&projectId=9076ac92-be42-43a2-9634-8b67c7fe93a7","38847A12C5F4474FABDEC6FEA3AF0ED0-2025-05-22-19-17-17","","26991","","[""<span style=\""color: red; font-size: 24px\""> NOW RECORDING</span><p>Please say out loud all the images you saw, in the exact order you saw them. Try to recall as many images as you can, but remember: getting the order right is more important than the number of images you recall.</p>""]","","2","redecorating_semantic"
"","","","","","image-button-response","88","406619","0.0-14.0-0.0","38847A12C5F4474FABDEC6FEA3AF0ED0","38847A12C5F4474FABDEC6FEA3AF0ED0","ccae45ef-6140-4db1-b12b-1dda977d6b6f","9076ac92-be42-43a2-9634-8b67c7fe93a7","{""num_scrambled_semantic"":""8"",""num_scrambled_causal"":""4"",""num_scrambled_schematic"":""4"",""participantId"":""38847A12C5F4474FABDEC6FEA3AF0ED0"",""assignmentId"":""ccae45ef-6140-4db1-b12b-1dda977d6b6f"",""projectId"":""9076ac92-be42-43a2-9634-8b67c7fe93a7""}","https://test12345.live/?num_scrambled_semantic=8&num_scrambled_causal=4&num_scrambled_schematic=4&participantId=38847A12C5F4474FABDEC6FEA3AF0ED0&assignmentId=ccae45ef-6140-4db1-b12b-1dda977d6b6f&projectId=9076ac92-be42-43a2-9634-8b67c7fe93a7","38847A12C5F4474FABDEC6FEA3AF0ED0-2025-05-22-19-17-17","","null","","images/schematic_sequence/interview_scheme/interview_scheme_0.png","null","",""
"","","","","","image-button-response","89","411122","0.0-14.0-1.0-0.0","38847A12C5F4474FABDEC6FEA3AF0ED0","38847A12C5F4474FABDEC6FEA3AF0ED0","ccae45ef-6140-4db1-b12b-1dda977d6b6f","9076ac92-be42-43a2-9634-8b67c7fe93a7","{""num_scrambled_semantic"":""8"",""num_scrambled_causal"":""4"",""num_scrambled_schematic"":""4"",""participantId"":""38847A12C5F4474FABDEC6FEA3AF0ED0"",""assignmentId"":""ccae45ef-6140-4db1-b12b-1dda977d6b6f"",""projectId"":""9076ac92-be42-43a2-9634-8b67c7fe93a7""}","https://test12345.live/?num_scrambled_semantic=8&num_scrambled_causal=4&num_scrambled_schematic=4&participantId=38847A12C5F4474FABDEC6FEA3AF0ED0&assignmentId=ccae45ef-6140-4db1-b12b-1dda977d6b6f&projectId=9076ac92-be42-43a2-9634-8b67c7fe93a7","38847A12C5F4474FABDEC6FEA3AF0ED0-2025-05-22-19-17-17","","null","","images/schematic_sequence/interview_scheme/interview_scheme_1.png","null","",""
"","","","","","image-button-response","90","415084","0.0-14.0-1.0-1.0","38847A12C5F4474FABDEC6FEA3AF0ED0","38847A12C5F4474FABDEC6FEA3AF0ED0","ccae45ef-6140-4db1-b12b-1dda977d6b6f","9076ac92-be42-43a2-9634-8b67c7fe93a7","{""num_scrambled_semantic"":""8"",""num_scrambled_causal"":""4"",""num_scrambled_schematic"":""4"",""participantId"":""38847A12C5F4474FABDEC6FEA3AF0ED0"",""assignmentId"":""ccae45ef-6140-4db1-b12b-1dda977d6b6f"",""projectId"":""9076ac92-be42-43a2-9634-8b67c7fe93a7""}","https://test12345.live/?num_scrambled_semantic=8&num_scrambled_causal=4&num_scrambled_schematic=4&participantId=38847A12C5F4474FABDEC6FEA3AF0ED0&assignmentId=ccae45ef-6140-4db1-b12b-1dda977d6b6f&projectId=9076ac92-be42-43a2-9634-8b67c7fe93a7","38847A12C5F4474FABDEC6FEA3AF0ED0-2025-05-22-19-17-17","","3959","","images/schematic_sequence/interview_scheme/interview_scheme_1.png","1","",""
"","","","","","image-button-response","91","416886","0.0-14.0-1.0-2.0","38847A12C5F4474FABDEC6FEA3AF0ED0","38847A12C5F4474FABDEC6FEA3AF0ED0","ccae45ef-6140-4db1-b12b-1dda977d6b6f","9076ac92-be42-43a2-9634-8b67c7fe93a7","{""num_scrambled_semantic"":""8"",""num_scrambled_causal"":""4"",""num_scrambled_schematic"":""4"",""participantId"":""38847A12C5F4474FABDEC6FEA3AF0ED0"",""assignmentId"":""ccae45ef-6140-4db1-b12b-1dda977d6b6f"",""projectId"":""9076ac92-be42-43a2-9634-8b67c7fe93a7""}","https://test12345.live/?num_scrambled_semantic=8&num_scrambled_causal=4&num_scrambled_schematic=4&participantId=38847A12C5F4474FABDEC6FEA3AF0ED0&assignmentId=ccae45ef-6140-4db1-b12b-1dda977d6b6f&projectId=9076ac92-be42-43a2-9634-8b67c7fe93a7","38847A12C5F4474FABDEC6FEA3AF0ED0-2025-05-22-19-17-17","","null","","[]","null","",""
"","","","","","image-button-response","92","421388","0.0-14.0-1.0-0.1","38847A12C5F4474FABDEC6FEA3AF0ED0","38847A12C5F4474FABDEC6FEA3AF0ED0","ccae45ef-6140-4db1-b12b-1dda977d6b6f","9076ac92-be42-43a2-9634-8b67c7fe93a7","{""num_scrambled_semantic"":""8"",""num_scrambled_causal"":""4"",""num_scrambled_schematic"":""4"",""participantId"":""38847A12C5F4474FABDEC6FEA3AF0ED0"",""assignmentId"":""ccae45ef-6140-4db1-b12b-1dda977d6b6f"",""projectId"":""9076ac92-be42-43a2-9634-8b67c7fe93a7""}","https://test12345.live/?num_scrambled_semantic=8&num_scrambled_causal=4&num_scrambled_schematic=4&participantId=38847A12C5F4474FABDEC6FEA3AF0ED0&assignmentId=ccae45ef-6140-4db1-b12b-1dda977d6b6f&projectId=9076ac92-be42-43a2-9634-8b67c7fe93a7","38847A12C5F4474FABDEC6FEA3AF0ED0-2025-05-22-19-17-17","","null","","images/schematic_sequence/interview_scheme/interview_scheme_2.png","null","",""
"","","","","","image-button-response","93","423244","0.0-14.0-1.0-1.1","38847A12C5F4474FABDEC6FEA3AF0ED0","38847A12C5F4474FABDEC6FEA3AF0ED0","ccae45ef-6140-4db1-b12b-1dda977d6b6f","9076ac92-be42-43a2-9634-8b67c7fe93a7","{""num_scrambled_semantic"":""8"",""num_scrambled_causal"":""4"",""num_scrambled_schematic"":""4"",""participantId"":""38847A12C5F4474FABDEC6FEA3AF0ED0"",""assignmentId"":""ccae45ef-6140-4db1-b12b-1dda977d6b6f"",""projectId"":""9076ac92-be42-43a2-9634-8b67c7fe93a7""}","https://test12345.live/?num_scrambled_semantic=8&num_scrambled_causal=4&num_scrambled_schematic=4&participantId=38847A12C5F4474FABDEC6FEA3AF0ED0&assignmentId=ccae45ef-6140-4db1-b12b-1dda977d6b6f&projectId=9076ac92-be42-43a2-9634-8b67c7fe93a7","38847A12C5F4474FABDEC6FEA3AF0ED0-2025-05-22-19-17-17","","1854","","images/schematic_sequence/interview_scheme/interview_scheme_2.png","1","",""
"","","","","","image-button-response","94","425046","0.0-14.0-1.0-2.1","38847A12C5F4474FABDEC6FEA3AF0ED0","38847A12C5F4474FABDEC6FEA3AF0ED0","ccae45ef-6140-4db1-b12b-1dda977d6b6f","9076ac92-be42-43a2-9634-8b67c7fe93a7","{""num_scrambled_semantic"":""8"",""num_scrambled_causal"":""4"",""num_scrambled_schematic"":""4"",""participantId"":""38847A12C5F4474FABDEC6FEA3AF0ED0"",""assignmentId"":""ccae45ef-6140-4db1-b12b-1dda977d6b6f"",""projectId"":""9076ac92-be42-43a2-9634-8b67c7fe93a7""}","https://test12345.live/?num_scrambled_semantic=8&num_scrambled_causal=4&num_scrambled_schematic=4&participantId=38847A12C5F4474FABDEC6FEA3AF0ED0&assignmentId=ccae45ef-6140-4db1-b12b-1dda977d6b6f&projectId=9076ac92-be42-43a2-9634-8b67c7fe93a7","38847A12C5F4474FABDEC6FEA3AF0ED0-2025-05-22-19-17-17","","null","","[]","null","",""
"","","","","","image-button-response","95","429551","0.0-14.0-1.0-0.2","38847A12C5F4474FABDEC6FEA3AF0ED0","38847A12C5F4474FABDEC6FEA3AF0ED0","ccae45ef-6140-4db1-b12b-1dda977d6b6f","9076ac92-be42-43a2-9634-8b67c7fe93a7","{""num_scrambled_semantic"":""8"",""num_scrambled_causal"":""4"",""num_scrambled_schematic"":""4"",""participantId"":""38847A12C5F4474FABDEC6FEA3AF0ED0"",""assignmentId"":""ccae45ef-6140-4db1-b12b-1dda977d6b6f"",""projectId"":""9076ac92-be42-43a2-9634-8b67c7fe93a7""}","https://test12345.live/?num_scrambled_semantic=8&num_scrambled_causal=4&num_scrambled_schematic=4&participantId=38847A12C5F4474FABDEC6FEA3AF0ED0&assignmentId=ccae45ef-6140-4db1-b12b-1dda977d6b6f&projectId=9076ac92-be42-43a2-9634-8b67c7fe93a7","38847A12C5F4474FABDEC6FEA3AF0ED0-2025-05-22-19-17-17","","null","","images/schematic_sequence/interview_scheme/interview_scheme_3.png","null","",""
"","","","","","image-button-response","96","433553","0.0-14.0-1.0-1.2","38847A12C5F4474FABDEC6FEA3AF0ED0","38847A12C5F4474FABDEC6FEA3AF0ED0","ccae45ef-6140-4db1-b12b-1dda977d6b6f","9076ac92-be42-43a2-9634-8b67c7fe93a7","{""num_scrambled_semantic"":""8"",""num_scrambled_causal"":""4"",""num_scrambled_schematic"":""4"",""participantId"":""38847A12C5F4474FABDEC6FEA3AF0ED0"",""assignmentId"":""ccae45ef-6140-4db1-b12b-1dda977d6b6f"",""projectId"":""9076ac92-be42-43a2-9634-8b67c7fe93a7""}","https://test12345.live/?num_scrambled_semantic=8&num_scrambled_causal=4&num_scrambled_schematic=4&participantId=38847A12C5F4474FABDEC6FEA3AF0ED0&assignmentId=ccae45ef-6140-4db1-b12b-1dda977d6b6f&projectId=9076ac92-be42-43a2-9634-8b67c7fe93a7","38847A12C5F4474FABDEC6FEA3AF0ED0-2025-05-22-19-17-17","","null","","images/schematic_sequence/interview_scheme/interview_scheme_3.png","null","",""
"","","","","","image-button-response","97","435354","0.0-14.0-1.0-2.2","38847A12C5F4474FABDEC6FEA3AF0ED0","38847A12C5F4474FABDEC6FEA3AF0ED0","ccae45ef-6140-4db1-b12b-1dda977d6b6f","9076ac92-be42-43a2-9634-8b67c7fe93a7","{""num_scrambled_semantic"":""8"",""num_scrambled_causal"":""4"",""num_scrambled_schematic"":""4"",""participantId"":""38847A12C5F4474FABDEC6FEA3AF0ED0"",""assignmentId"":""ccae45ef-6140-4db1-b12b-1dda977d6b6f"",""projectId"":""9076ac92-be42-43a2-9634-8b67c7fe93a7""}","https://test12345.live/?num_scrambled_semantic=8&num_scrambled_causal=4&num_scrambled_schematic=4&participantId=38847A12C5F4474FABDEC6FEA3AF0ED0&assignmentId=ccae45ef-6140-4db1-b12b-1dda977d6b6f&projectId=9076ac92-be42-43a2-9634-8b67c7fe93a7","38847A12C5F4474FABDEC6FEA3AF0ED0-2025-05-22-19-17-17","","null","","[]","null","",""
"","","","","","image-button-response","98","439858","0.0-14.0-1.0-0.3","38847A12C5F4474FABDEC6FEA3AF0ED0","38847A12C5F4474FABDEC6FEA3AF0ED0","ccae45ef-6140-4db1-b12b-1dda977d6b6f","9076ac92-be42-43a2-9634-8b67c7fe93a7","{""num_scrambled_semantic"":""8"",""num_scrambled_causal"":""4"",""num_scrambled_schematic"":""4"",""participantId"":""38847A12C5F4474FABDEC6FEA3AF0ED0"",""assignmentId"":""ccae45ef-6140-4db1-b12b-1dda977d6b6f"",""projectId"":""9076ac92-be42-43a2-9634-8b67c7fe93a7""}","https://test12345.live/?num_scrambled_semantic=8&num_scrambled_causal=4&num_scrambled_schematic=4&participantId=38847A12C5F4474FABDEC6FEA3AF0ED0&assignmentId=ccae45ef-6140-4db1-b12b-1dda977d6b6f&projectId=9076ac92-be42-43a2-9634-8b67c7fe93a7","38847A12C5F4474FABDEC6FEA3AF0ED0-2025-05-22-19-17-17","","null","","images/schematic_sequence/interview_scheme/interview_scheme_4.png","null","",""
"","","","","","image-button-response","99","440970","0.0-14.0-1.0-1.3","38847A12C5F4474FABDEC6FEA3AF0ED0","38847A12C5F4474FABDEC6FEA3AF0ED0","ccae45ef-6140-4db1-b12b-1dda977d6b6f","9076ac92-be42-43a2-9634-8b67c7fe93a7","{""num_scrambled_semantic"":""8"",""num_scrambled_causal"":""4"",""num_scrambled_schematic"":""4"",""participantId"":""38847A12C5F4474FABDEC6FEA3AF0ED0"",""assignmentId"":""ccae45ef-6140-4db1-b12b-1dda977d6b6f"",""projectId"":""9076ac92-be42-43a2-9634-8b67c7fe93a7""}","https://test12345.live/?num_scrambled_semantic=8&num_scrambled_causal=4&num_scrambled_schematic=4&participantId=38847A12C5F4474FABDEC6FEA3AF0ED0&assignmentId=ccae45ef-6140-4db1-b12b-1dda977d6b6f&projectId=9076ac92-be42-43a2-9634-8b67c7fe93a7","38847A12C5F4474FABDEC6FEA3AF0ED0-2025-05-22-19-17-17","","1110","","images/schematic_sequence/interview_scheme/interview_scheme_4.png","1","",""
"","","","","","image-button-response","100","442772","0.0-14.0-1.0-2.3","38847A12C5F4474FABDEC6FEA3AF0ED0","38847A12C5F4474FABDEC6FEA3AF0ED0","ccae45ef-6140-4db1-b12b-1dda977d6b6f","9076ac92-be42-43a2-9634-8b67c7fe93a7","{""num_scrambled_semantic"":""8"",""num_scrambled_causal"":""4"",""num_scrambled_schematic"":""4"",""participantId"":""38847A12C5F4474FABDEC6FEA3AF0ED0"",""assignmentId"":""ccae45ef-6140-4db1-b12b-1dda977d6b6f"",""projectId"":""9076ac92-be42-43a2-9634-8b67c7fe93a7""}","https://test12345.live/?num_scrambled_semantic=8&num_scrambled_causal=4&num_scrambled_schematic=4&participantId=38847A12C5F4474FABDEC6FEA3AF0ED0&assignmentId=ccae45ef-6140-4db1-b12b-1dda977d6b6f&projectId=9076ac92-be42-43a2-9634-8b67c7fe93a7","38847A12C5F4474FABDEC6FEA3AF0ED0-2025-05-22-19-17-17","","null","","[]","null","",""
"","","","","","image-button-response","101","447276","0.0-14.0-1.0-0.4","38847A12C5F4474FABDEC6FEA3AF0ED0","38847A12C5F4474FABDEC6FEA3AF0ED0","ccae45ef-6140-4db1-b12b-1dda977d6b6f","9076ac92-be42-43a2-9634-8b67c7fe93a7","{""num_scrambled_semantic"":""8"",""num_scrambled_causal"":""4"",""num_scrambled_schematic"":""4"",""participantId"":""38847A12C5F4474FABDEC6FEA3AF0ED0"",""assignmentId"":""ccae45ef-6140-4db1-b12b-1dda977d6b6f"",""projectId"":""9076ac92-be42-43a2-9634-8b67c7fe93a7""}","https://test12345.live/?num_scrambled_semantic=8&num_scrambled_causal=4&num_scrambled_schematic=4&participantId=38847A12C5F4474FABDEC6FEA3AF0ED0&assignmentId=ccae45ef-6140-4db1-b12b-1dda977d6b6f&projectId=9076ac92-be42-43a2-9634-8b67c7fe93a7","38847A12C5F4474FABDEC6FEA3AF0ED0-2025-05-22-19-17-17","","null","","images/schematic_sequence/interview_scheme/interview_scheme_5.png","null","",""
"","","","","","image-button-response","102","449064","0.0-14.0-1.0-1.4","38847A12C5F4474FABDEC6FEA3AF0ED0","38847A12C5F4474FABDEC6FEA3AF0ED0","ccae45ef-6140-4db1-b12b-1dda977d6b6f","9076ac92-be42-43a2-9634-8b67c7fe93a7","{""num_scrambled_semantic"":""8"",""num_scrambled_causal"":""4"",""num_scrambled_schematic"":""4"",""participantId"":""38847A12C5F4474FABDEC6FEA3AF0ED0"",""assignmentId"":""ccae45ef-6140-4db1-b12b-1dda977d6b6f"",""projectId"":""9076ac92-be42-43a2-9634-8b67c7fe93a7""}","https://test12345.live/?num_scrambled_semantic=8&num_scrambled_causal=4&num_scrambled_schematic=4&participantId=38847A12C5F4474FABDEC6FEA3AF0ED0&assignmentId=ccae45ef-6140-4db1-b12b-1dda977d6b6f&projectId=9076ac92-be42-43a2-9634-8b67c7fe93a7","38847A12C5F4474FABDEC6FEA3AF0ED0-2025-05-22-19-17-17","","1786","","images/schematic_sequence/interview_scheme/interview_scheme_5.png","0","",""
"","","","","","image-button-response","103","450866","0.0-14.0-1.0-2.4","38847A12C5F4474FABDEC6FEA3AF0ED0","38847A12C5F4474FABDEC6FEA3AF0ED0","ccae45ef-6140-4db1-b12b-1dda977d6b6f","9076ac92-be42-43a2-9634-8b67c7fe93a7","{""num_scrambled_semantic"":""8"",""num_scrambled_causal"":""4"",""num_scrambled_schematic"":""4"",""participantId"":""38847A12C5F4474FABDEC6FEA3AF0ED0"",""assignmentId"":""ccae45ef-6140-4db1-b12b-1dda977d6b6f"",""projectId"":""9076ac92-be42-43a2-9634-8b67c7fe93a7""}","https://test12345.live/?num_scrambled_semantic=8&num_scrambled_causal=4&num_scrambled_schematic=4&participantId=38847A12C5F4474FABDEC6FEA3AF0ED0&assignmentId=ccae45ef-6140-4db1-b12b-1dda977d6b6f&projectId=9076ac92-be42-43a2-9634-8b67c7fe93a7","38847A12C5F4474FABDEC6FEA3AF0ED0-2025-05-22-19-17-17","","null","","[]","null","",""
"","","","","","image-button-response","104","455370","0.0-14.0-1.0-0.5","38847A12C5F4474FABDEC6FEA3AF0ED0","38847A12C5F4474FABDEC6FEA3AF0ED0","ccae45ef-6140-4db1-b12b-1dda977d6b6f","9076ac92-be42-43a2-9634-8b67c7fe93a7","{""num_scrambled_semantic"":""8"",""num_scrambled_causal"":""4"",""num_scrambled_schematic"":""4"",""participantId"":""38847A12C5F4474FABDEC6FEA3AF0ED0"",""assignmentId"":""ccae45ef-6140-4db1-b12b-1dda977d6b6f"",""projectId"":""9076ac92-be42-43a2-9634-8b67c7fe93a7""}","https://test12345.live/?num_scrambled_semantic=8&num_scrambled_causal=4&num_scrambled_schematic=4&participantId=38847A12C5F4474FABDEC6FEA3AF0ED0&assignmentId=ccae45ef-6140-4db1-b12b-1dda977d6b6f&projectId=9076ac92-be42-43a2-9634-8b67c7fe93a7","38847A12C5F4474FABDEC6FEA3AF0ED0-2025-05-22-19-17-17","","null","","images/schematic_sequence/interview_scheme/interview_scheme_6.png","null","",""
"","","","","","image-button-response","105","457342","0.0-14.0-1.0-1.5","38847A12C5F4474FABDEC6FEA3AF0ED0","38847A12C5F4474FABDEC6FEA3AF0ED0","ccae45ef-6140-4db1-b12b-1dda977d6b6f","9076ac92-be42-43a2-9634-8b67c7fe93a7","{""num_scrambled_semantic"":""8"",""num_scrambled_causal"":""4"",""num_scrambled_schematic"":""4"",""participantId"":""38847A12C5F4474FABDEC6FEA3AF0ED0"",""assignmentId"":""ccae45ef-6140-4db1-b12b-1dda977d6b6f"",""projectId"":""9076ac92-be42-43a2-9634-8b67c7fe93a7""}","https://test12345.live/?num_scrambled_semantic=8&num_scrambled_causal=4&num_scrambled_schematic=4&participantId=38847A12C5F4474FABDEC6FEA3AF0ED0&assignmentId=ccae45ef-6140-4db1-b12b-1dda977d6b6f&projectId=9076ac92-be42-43a2-9634-8b67c7fe93a7","38847A12C5F4474FABDEC6FEA3AF0ED0-2025-05-22-19-17-17","","1969","","images/schematic_sequence/interview_scheme/interview_scheme_6.png","0","",""
"","","","","","image-button-response","106","459144","0.0-14.0-1.0-2.5","38847A12C5F4474FABDEC6FEA3AF0ED0","38847A12C5F4474FABDEC6FEA3AF0ED0","ccae45ef-6140-4db1-b12b-1dda977d6b6f","9076ac92-be42-43a2-9634-8b67c7fe93a7","{""num_scrambled_semantic"":""8"",""num_scrambled_causal"":""4"",""num_scrambled_schematic"":""4"",""participantId"":""38847A12C5F4474FABDEC6FEA3AF0ED0"",""assignmentId"":""ccae45ef-6140-4db1-b12b-1dda977d6b6f"",""projectId"":""9076ac92-be42-43a2-9634-8b67c7fe93a7""}","https://test12345.live/?num_scrambled_semantic=8&num_scrambled_causal=4&num_scrambled_schematic=4&participantId=38847A12C5F4474FABDEC6FEA3AF0ED0&assignmentId=ccae45ef-6140-4db1-b12b-1dda977d6b6f&projectId=9076ac92-be42-43a2-9634-8b67c7fe93a7","38847A12C5F4474FABDEC6FEA3AF0ED0-2025-05-22-19-17-17","","null","","[]","null","",""
"","","","","","image-button-response","107","463646","0.0-14.0-1.0-0.6","38847A12C5F4474FABDEC6FEA3AF0ED0","38847A12C5F4474FABDEC6FEA3AF0ED0","ccae45ef-6140-4db1-b12b-1dda977d6b6f","9076ac92-be42-43a2-9634-8b67c7fe93a7","{""num_scrambled_semantic"":""8"",""num_scrambled_causal"":""4"",""num_scrambled_schematic"":""4"",""participantId"":""38847A12C5F4474FABDEC6FEA3AF0ED0"",""assignmentId"":""ccae45ef-6140-4db1-b12b-1dda977d6b6f"",""projectId"":""9076ac92-be42-43a2-9634-8b67c7fe93a7""}","https://test12345.live/?num_scrambled_semantic=8&num_scrambled_causal=4&num_scrambled_schematic=4&participantId=38847A12C5F4474FABDEC6FEA3AF0ED0&assignmentId=ccae45ef-6140-4db1-b12b-1dda977d6b6f&projectId=9076ac92-be42-43a2-9634-8b67c7fe93a7","38847A12C5F4474FABDEC6FEA3AF0ED0-2025-05-22-19-17-17","","null","","images/schematic_sequence/interview_scheme/interview_scheme_7.png","null","",""
"","","","","","image-button-response","108","464556","0.0-14.0-1.0-1.6","38847A12C5F4474FABDEC6FEA3AF0ED0","38847A12C5F4474FABDEC6FEA3AF0ED0","ccae45ef-6140-4db1-b12b-1dda977d6b6f","9076ac92-be42-43a2-9634-8b67c7fe93a7","{""num_scrambled_semantic"":""8"",""num_scrambled_causal"":""4"",""num_scrambled_schematic"":""4"",""participantId"":""38847A12C5F4474FABDEC6FEA3AF0ED0"",""assignmentId"":""ccae45ef-6140-4db1-b12b-1dda977d6b6f"",""projectId"":""9076ac92-be42-43a2-9634-8b67c7fe93a7""}","https://test12345.live/?num_scrambled_semantic=8&num_scrambled_causal=4&num_scrambled_schematic=4&participantId=38847A12C5F4474FABDEC6FEA3AF0ED0&assignmentId=ccae45ef-6140-4db1-b12b-1dda977d6b6f&projectId=9076ac92-be42-43a2-9634-8b67c7fe93a7","38847A12C5F4474FABDEC6FEA3AF0ED0-2025-05-22-19-17-17","","907","","images/schematic_sequence/interview_scheme/interview_scheme_7.png","0","",""
"","","","","","image-button-response","109","466358","0.0-14.0-1.0-2.6","38847A12C5F4474FABDEC6FEA3AF0ED0","38847A12C5F4474FABDEC6FEA3AF0ED0","ccae45ef-6140-4db1-b12b-1dda977d6b6f","9076ac92-be42-43a2-9634-8b67c7fe93a7","{""num_scrambled_semantic"":""8"",""num_scrambled_causal"":""4"",""num_scrambled_schematic"":""4"",""participantId"":""38847A12C5F4474FABDEC6FEA3AF0ED0"",""assignmentId"":""ccae45ef-6140-4db1-b12b-1dda977d6b6f"",""projectId"":""9076ac92-be42-43a2-9634-8b67c7fe93a7""}","https://test12345.live/?num_scrambled_semantic=8&num_scrambled_causal=4&num_scrambled_schematic=4&participantId=38847A12C5F4474FABDEC6FEA3AF0ED0&assignmentId=ccae45ef-6140-4db1-b12b-1dda977d6b6f&projectId=9076ac92-be42-43a2-9634-8b67c7fe93a7","38847A12C5F4474FABDEC6FEA3AF0ED0-2025-05-22-19-17-17","","null","","[]","null","",""
"","","","","","image-button-response","110","470861","0.0-14.0-1.0-0.7","38847A12C5F4474FABDEC6FEA3AF0ED0","38847A12C5F4474FABDEC6FEA3AF0ED0","ccae45ef-6140-4db1-b12b-1dda977d6b6f","9076ac92-be42-43a2-9634-8b67c7fe93a7","{""num_scrambled_semantic"":""8"",""num_scrambled_causal"":""4"",""num_scrambled_schematic"":""4"",""participantId"":""38847A12C5F4474FABDEC6FEA3AF0ED0"",""assignmentId"":""ccae45ef-6140-4db1-b12b-1dda977d6b6f"",""projectId"":""9076ac92-be42-43a2-9634-8b67c7fe93a7""}","https://test12345.live/?num_scrambled_semantic=8&num_scrambled_causal=4&num_scrambled_schematic=4&participantId=38847A12C5F4474FABDEC6FEA3AF0ED0&assignmentId=ccae45ef-6140-4db1-b12b-1dda977d6b6f&projectId=9076ac92-be42-43a2-9634-8b67c7fe93a7","38847A12C5F4474FABDEC6FEA3AF0ED0-2025-05-22-19-17-17","","null","","images/schematic_sequence/interview_scheme/interview_scheme_8.png","null","",""
"","","","","","image-button-response","111","473620","0.0-14.0-1.0-1.7","38847A12C5F4474FABDEC6FEA3AF0ED0","38847A12C5F4474FABDEC6FEA3AF0ED0","ccae45ef-6140-4db1-b12b-1dda977d6b6f","9076ac92-be42-43a2-9634-8b67c7fe93a7","{""num_scrambled_semantic"":""8"",""num_scrambled_causal"":""4"",""num_scrambled_schematic"":""4"",""participantId"":""38847A12C5F4474FABDEC6FEA3AF0ED0"",""assignmentId"":""ccae45ef-6140-4db1-b12b-1dda977d6b6f"",""projectId"":""9076ac92-be42-43a2-9634-8b67c7fe93a7""}","https://test12345.live/?num_scrambled_semantic=8&num_scrambled_causal=4&num_scrambled_schematic=4&participantId=38847A12C5F4474FABDEC6FEA3AF0ED0&assignmentId=ccae45ef-6140-4db1-b12b-1dda977d6b6f&projectId=9076ac92-be42-43a2-9634-8b67c7fe93a7","38847A12C5F4474FABDEC6FEA3AF0ED0-2025-05-22-19-17-17","","2757","","images/schematic_sequence/interview_scheme/interview_scheme_8.png","0","",""
"","","","","","image-button-response","112","475421","0.0-14.0-1.0-2.7","38847A12C5F4474FABDEC6FEA3AF0ED0","38847A12C5F4474FABDEC6FEA3AF0ED0","ccae45ef-6140-4db1-b12b-1dda977d6b6f","9076ac92-be42-43a2-9634-8b67c7fe93a7","{""num_scrambled_semantic"":""8"",""num_scrambled_causal"":""4"",""num_scrambled_schematic"":""4"",""participantId"":""38847A12C5F4474FABDEC6FEA3AF0ED0"",""assignmentId"":""ccae45ef-6140-4db1-b12b-1dda977d6b6f"",""projectId"":""9076ac92-be42-43a2-9634-8b67c7fe93a7""}","https://test12345.live/?num_scrambled_semantic=8&num_scrambled_causal=4&num_scrambled_schematic=4&participantId=38847A12C5F4474FABDEC6FEA3AF0ED0&assignmentId=ccae45ef-6140-4db1-b12b-1dda977d6b6f&projectId=9076ac92-be42-43a2-9634-8b67c7fe93a7","38847A12C5F4474FABDEC6FEA3AF0ED0-2025-05-22-19-17-17","","null","","[]","null","",""
"","","","","","image-button-response","113","479923","0.0-14.0-1.0-0.8","38847A12C5F4474FABDEC6FEA3AF0ED0","38847A12C5F4474FABDEC6FEA3AF0ED0","ccae45ef-6140-4db1-b12b-1dda977d6b6f","9076ac92-be42-43a2-9634-8b67c7fe93a7","{""num_scrambled_semantic"":""8"",""num_scrambled_causal"":""4"",""num_scrambled_schematic"":""4"",""participantId"":""38847A12C5F4474FABDEC6FEA3AF0ED0"",""assignmentId"":""ccae45ef-6140-4db1-b12b-1dda977d6b6f"",""projectId"":""9076ac92-be42-43a2-9634-8b67c7fe93a7""}","https://test12345.live/?num_scrambled_semantic=8&num_scrambled_causal=4&num_scrambled_schematic=4&participantId=38847A12C5F4474FABDEC6FEA3AF0ED0&assignmentId=ccae45ef-6140-4db1-b12b-1dda977d6b6f&projectId=9076ac92-be42-43a2-9634-8b67c7fe93a7","38847A12C5F4474FABDEC6FEA3AF0ED0-2025-05-22-19-17-17","","null","","images/schematic_sequence/interview_scheme/interview_scheme_9.png","null","",""
"","","","","","image-button-response","114","481034","0.0-14.0-1.0-1.8","38847A12C5F4474FABDEC6FEA3AF0ED0","38847A12C5F4474FABDEC6FEA3AF0ED0","ccae45ef-6140-4db1-b12b-1dda977d6b6f","9076ac92-be42-43a2-9634-8b67c7fe93a7","{""num_scrambled_semantic"":""8"",""num_scrambled_causal"":""4"",""num_scrambled_schematic"":""4"",""participantId"":""38847A12C5F4474FABDEC6FEA3AF0ED0"",""assignmentId"":""ccae45ef-6140-4db1-b12b-1dda977d6b6f"",""projectId"":""9076ac92-be42-43a2-9634-8b67c7fe93a7""}","https://test12345.live/?num_scrambled_semantic=8&num_scrambled_causal=4&num_scrambled_schematic=4&participantId=38847A12C5F4474FABDEC6FEA3AF0ED0&assignmentId=ccae45ef-6140-4db1-b12b-1dda977d6b6f&projectId=9076ac92-be42-43a2-9634-8b67c7fe93a7","38847A12C5F4474FABDEC6FEA3AF0ED0-2025-05-22-19-17-17","","1109","","images/schematic_sequence/interview_scheme/interview_scheme_9.png","0","",""
