"success","timeout","failed_images","failed_audio","failed_video","trial_type","trial_index","time_elapsed","internal_node_id","subject","subject_id","study_id","session_id","urlvar","current_url","audio_id","view_history","rt","device_id","stimulus","response","estimated_stimulus_onset","seq_name"
"true","false","[]","[]","[]","preload","0","15880","0.0-0.0","389FB9674BAD4EC890991AA25B11011A","389FB9674BAD4EC890991AA25B11011A","a426f6b4-31c5-495f-9c09-83203b811d9f","9076ac92-be42-43a2-9634-8b67c7fe93a7","{""num_scrambled_semantic"":""8"",""num_scrambled_causal"":""4"",""num_scrambled_schematic"":""4"",""participantId"":""389FB9674BAD4EC890991AA25B11011A"",""assignmentId"":""a426f6b4-31c5-495f-9c09-83203b811d9f"",""projectId"":""9076ac92-be42-43a2-9634-8b67c7fe93a7""}","https://test12345.live/?num_scrambled_semantic=8&num_scrambled_causal=4&num_scrambled_schematic=4&participantId=389FB9674BAD4EC890991AA25B11011A&assignmentId=a426f6b4-31c5-495f-9c09-83203b811d9f&projectId=9076ac92-be42-43a2-9634-8b67c7fe93a7","389FB9674BAD4EC890991AA25B11011A-2025-05-22-19-34-44","","","","","","",""
"","","","","","instructions","1","61027","0.0-1.0","389FB9674BAD4EC890991AA25B11011A","389FB9674BAD4EC890991AA25B11011A","a426f6b4-31c5-495f-9c09-83203b811d9f","9076ac92-be42-43a2-9634-8b67c7fe93a7","{""num_scrambled_semantic"":""8"",""num_scrambled_causal"":""4"",""num_scrambled_schematic"":""4"",""participantId"":""389FB9674BAD4EC890991AA25B11011A"",""assignmentId"":""a426f6b4-31c5-495f-9c09-83203b811d9f"",""projectId"":""9076ac92-be42-43a2-9634-8b67c7fe93a7""}","https://test12345.live/?num_scrambled_semantic=8&num_scrambled_causal=4&num_scrambled_schematic=4&participantId=389FB9674BAD4EC890991AA25B11011A&assignmentId=a426f6b4-31c5-495f-9c09-83203b811d9f&projectId=9076ac92-be42-43a2-9634-8b67c7fe93a7","389FB9674BAD4EC890991AA25B11011A-2025-05-22-19-34-44","[{""page_index"":0,""viewing_time"":45148}]","45148","","","","",""
"","","","","","instructions","2","65156","0.0-2.0","389FB9674BAD4EC890991AA25B11011A","389FB9674BAD4EC890991AA25B11011A","a426f6b4-31c5-495f-9c09-83203b811d9f","9076ac92-be42-43a2-9634-8b67c7fe93a7","{""num_scrambled_semantic"":""8"",""num_scrambled_causal"":""4"",""num_scrambled_schematic"":""4"",""participantId"":""389FB9674BAD4EC890991AA25B11011A"",""assignmentId"":""a426f6b4-31c5-495f-9c09-83203b811d9f"",""projectId"":""9076ac92-be42-43a2-9634-8b67c7fe93a7""}","https://test12345.live/?num_scrambled_semantic=8&num_scrambled_causal=4&num_scrambled_schematic=4&participantId=389FB9674BAD4EC890991AA25B11011A&assignmentId=a426f6b4-31c5-495f-9c09-83203b811d9f&projectId=9076ac92-be42-43a2-9634-8b67c7fe93a7","389FB9674BAD4EC890991AA25B11011A-2025-05-22-19-34-44","[{""page_index"":0,""viewing_time"":4128}]","4129","","","","",""
"true","","","","","fullscreen","3","67540","0.0-3.0","389FB9674BAD4EC890991AA25B11011A","389FB9674BAD4EC890991AA25B11011A","a426f6b4-31c5-495f-9c09-83203b811d9f","9076ac92-be42-43a2-9634-8b67c7fe93a7","{""num_scrambled_semantic"":""8"",""num_scrambled_causal"":""4"",""num_scrambled_schematic"":""4"",""participantId"":""389FB9674BAD4EC890991AA25B11011A"",""assignmentId"":""a426f6b4-31c5-495f-9c09-83203b811d9f"",""projectId"":""9076ac92-be42-43a2-9634-8b67c7fe93a7""}","https://test12345.live/?num_scrambled_semantic=8&num_scrambled_causal=4&num_scrambled_schematic=4&participantId=389FB9674BAD4EC890991AA25B11011A&assignmentId=a426f6b4-31c5-495f-9c09-83203b811d9f&projectId=9076ac92-be42-43a2-9634-8b67c7fe93a7","389FB9674BAD4EC890991AA25B11011A-2025-05-22-19-34-44","","1383","","","","",""
"","","","","","initialize-microphone","4","76284","0.0-4.0-0.0","389FB9674BAD4EC890991AA25B11011A","389FB9674BAD4EC890991AA25B11011A","a426f6b4-31c5-495f-9c09-83203b811d9f","9076ac92-be42-43a2-9634-8b67c7fe93a7","{""num_scrambled_semantic"":""8"",""num_scrambled_causal"":""4"",""num_scrambled_schematic"":""4"",""participantId"":""389FB9674BAD4EC890991AA25B11011A"",""assignmentId"":""a426f6b4-31c5-495f-9c09-83203b811d9f"",""projectId"":""9076ac92-be42-43a2-9634-8b67c7fe93a7""}","https://test12345.live/?num_scrambled_semantic=8&num_scrambled_causal=4&num_scrambled_schematic=4&participantId=389FB9674BAD4EC890991AA25B11011A&assignmentId=a426f6b4-31c5-495f-9c09-83203b811d9f&projectId=9076ac92-be42-43a2-9634-8b67c7fe93a7","389FB9674BAD4EC890991AA25B11011A-2025-05-22-19-34-44","","","79881df7df88d5fe46b5ddd090f70f6a1dfdb4a2fb2a3689d0d724807245a64d","","","",""
"","","","","","html-audio-response","5","85867","0.0-4.0-1.0","389FB9674BAD4EC890991AA25B11011A","389FB9674BAD4EC890991AA25B11011A","a426f6b4-31c5-495f-9c09-83203b811d9f","9076ac92-be42-43a2-9634-8b67c7fe93a7","{""num_scrambled_semantic"":""8"",""num_scrambled_causal"":""4"",""num_scrambled_schematic"":""4"",""participantId"":""389FB9674BAD4EC890991AA25B11011A"",""assignmentId"":""a426f6b4-31c5-495f-9c09-83203b811d9f"",""projectId"":""9076ac92-be42-43a2-9634-8b67c7fe93a7""}","https://test12345.live/?num_scrambled_semantic=8&num_scrambled_causal=4&num_scrambled_schematic=4&participantId=389FB9674BAD4EC890991AA25B11011A&assignmentId=a426f6b4-31c5-495f-9c09-83203b811d9f&projectId=9076ac92-be42-43a2-9634-8b67c7fe93a7","389FB9674BAD4EC890991AA25B11011A-2025-05-22-19-34-44","","3172","","<span style=""color: red; font-size: 24px""> NOW RECORDING</span>
        <p>Please test Microphone</p>","","7",""
"","","","","","html-button-response","6","87532","0.0-4.0-2.0","389FB9674BAD4EC890991AA25B11011A","389FB9674BAD4EC890991AA25B11011A","a426f6b4-31c5-495f-9c09-83203b811d9f","9076ac92-be42-43a2-9634-8b67c7fe93a7","{""num_scrambled_semantic"":""8"",""num_scrambled_causal"":""4"",""num_scrambled_schematic"":""4"",""participantId"":""389FB9674BAD4EC890991AA25B11011A"",""assignmentId"":""a426f6b4-31c5-495f-9c09-83203b811d9f"",""projectId"":""9076ac92-be42-43a2-9634-8b67c7fe93a7""}","https://test12345.live/?num_scrambled_semantic=8&num_scrambled_causal=4&num_scrambled_schematic=4&participantId=389FB9674BAD4EC890991AA25B11011A&assignmentId=a426f6b4-31c5-495f-9c09-83203b811d9f&projectId=9076ac92-be42-43a2-9634-8b67c7fe93a7","389FB9674BAD4EC890991AA25B11011A-2025-05-22-19-34-44","","1664","","<p style=""font-size:48px; color:red;"">Is Microphone OK?</p>","1","",""
"","","","","","instructions","7","101752","0.0-5.0","389FB9674BAD4EC890991AA25B11011A","389FB9674BAD4EC890991AA25B11011A","a426f6b4-31c5-495f-9c09-83203b811d9f","9076ac92-be42-43a2-9634-8b67c7fe93a7","{""num_scrambled_semantic"":""8"",""num_scrambled_causal"":""4"",""num_scrambled_schematic"":""4"",""participantId"":""389FB9674BAD4EC890991AA25B11011A"",""assignmentId"":""a426f6b4-31c5-495f-9c09-83203b811d9f"",""projectId"":""9076ac92-be42-43a2-9634-8b67c7fe93a7""}","https://test12345.live/?num_scrambled_semantic=8&num_scrambled_causal=4&num_scrambled_schematic=4&participantId=389FB9674BAD4EC890991AA25B11011A&assignmentId=a426f6b4-31c5-495f-9c09-83203b811d9f&projectId=9076ac92-be42-43a2-9634-8b67c7fe93a7","389FB9674BAD4EC890991AA25B11011A-2025-05-22-19-34-44","[{""page_index"":0,""viewing_time"":4522},{""page_index"":1,""viewing_time"":9698}]","14220","","","","",""
"","","","","","image-button-response","8","107759","0.0-6.0-0.0","389FB9674BAD4EC890991AA25B11011A","389FB9674BAD4EC890991AA25B11011A","a426f6b4-31c5-495f-9c09-83203b811d9f","9076ac92-be42-43a2-9634-8b67c7fe93a7","{""num_scrambled_semantic"":""8"",""num_scrambled_causal"":""4"",""num_scrambled_schematic"":""4"",""participantId"":""389FB9674BAD4EC890991AA25B11011A"",""assignmentId"":""a426f6b4-31c5-495f-9c09-83203b811d9f"",""projectId"":""9076ac92-be42-43a2-9634-8b67c7fe93a7""}","https://test12345.live/?num_scrambled_semantic=8&num_scrambled_causal=4&num_scrambled_schematic=4&participantId=389FB9674BAD4EC890991AA25B11011A&assignmentId=a426f6b4-31c5-495f-9c09-83203b811d9f&projectId=9076ac92-be42-43a2-9634-8b67c7fe93a7","389FB9674BAD4EC890991AA25B11011A-2025-05-22-19-34-44","","null","","images/instructions/movie_0.png","null","",""
"","","","","","image-button-response","9","112265","0.0-6.0-1.0-0.0","389FB9674BAD4EC890991AA25B11011A","389FB9674BAD4EC890991AA25B11011A","a426f6b4-31c5-495f-9c09-83203b811d9f","9076ac92-be42-43a2-9634-8b67c7fe93a7","{""num_scrambled_semantic"":""8"",""num_scrambled_causal"":""4"",""num_scrambled_schematic"":""4"",""participantId"":""389FB9674BAD4EC890991AA25B11011A"",""assignmentId"":""a426f6b4-31c5-495f-9c09-83203b811d9f"",""projectId"":""9076ac92-be42-43a2-9634-8b67c7fe93a7""}","https://test12345.live/?num_scrambled_semantic=8&num_scrambled_causal=4&num_scrambled_schematic=4&participantId=389FB9674BAD4EC890991AA25B11011A&assignmentId=a426f6b4-31c5-495f-9c09-83203b811d9f&projectId=9076ac92-be42-43a2-9634-8b67c7fe93a7","389FB9674BAD4EC890991AA25B11011A-2025-05-22-19-34-44","","null","","images/instructions/movie_1.png","null","",""
"","","","","","image-button-response","10","115893","0.0-6.0-1.0-1.0","389FB9674BAD4EC890991AA25B11011A","389FB9674BAD4EC890991AA25B11011A","a426f6b4-31c5-495f-9c09-83203b811d9f","9076ac92-be42-43a2-9634-8b67c7fe93a7","{""num_scrambled_semantic"":""8"",""num_scrambled_causal"":""4"",""num_scrambled_schematic"":""4"",""participantId"":""389FB9674BAD4EC890991AA25B11011A"",""assignmentId"":""a426f6b4-31c5-495f-9c09-83203b811d9f"",""projectId"":""9076ac92-be42-43a2-9634-8b67c7fe93a7""}","https://test12345.live/?num_scrambled_semantic=8&num_scrambled_causal=4&num_scrambled_schematic=4&participantId=389FB9674BAD4EC890991AA25B11011A&assignmentId=a426f6b4-31c5-495f-9c09-83203b811d9f&projectId=9076ac92-be42-43a2-9634-8b67c7fe93a7","389FB9674BAD4EC890991AA25B11011A-2025-05-22-19-34-44","","3627","","images/instructions/movie_1.png","0","",""
"","","","","","image-button-response","11","117697","0.0-6.0-1.0-2.0","389FB9674BAD4EC890991AA25B11011A","389FB9674BAD4EC890991AA25B11011A","a426f6b4-31c5-495f-9c09-83203b811d9f","9076ac92-be42-43a2-9634-8b67c7fe93a7","{""num_scrambled_semantic"":""8"",""num_scrambled_causal"":""4"",""num_scrambled_schematic"":""4"",""participantId"":""389FB9674BAD4EC890991AA25B11011A"",""assignmentId"":""a426f6b4-31c5-495f-9c09-83203b811d9f"",""projectId"":""9076ac92-be42-43a2-9634-8b67c7fe93a7""}","https://test12345.live/?num_scrambled_semantic=8&num_scrambled_causal=4&num_scrambled_schematic=4&participantId=389FB9674BAD4EC890991AA25B11011A&assignmentId=a426f6b4-31c5-495f-9c09-83203b811d9f&projectId=9076ac92-be42-43a2-9634-8b67c7fe93a7","389FB9674BAD4EC890991AA25B11011A-2025-05-22-19-34-44","","null","","[]","null","",""
"","","","","","image-button-response","12","122202","0.0-6.0-1.0-0.1","389FB9674BAD4EC890991AA25B11011A","389FB9674BAD4EC890991AA25B11011A","a426f6b4-31c5-495f-9c09-83203b811d9f","9076ac92-be42-43a2-9634-8b67c7fe93a7","{""num_scrambled_semantic"":""8"",""num_scrambled_causal"":""4"",""num_scrambled_schematic"":""4"",""participantId"":""389FB9674BAD4EC890991AA25B11011A"",""assignmentId"":""a426f6b4-31c5-495f-9c09-83203b811d9f"",""projectId"":""9076ac92-be42-43a2-9634-8b67c7fe93a7""}","https://test12345.live/?num_scrambled_semantic=8&num_scrambled_causal=4&num_scrambled_schematic=4&participantId=389FB9674BAD4EC890991AA25B11011A&assignmentId=a426f6b4-31c5-495f-9c09-83203b811d9f&projectId=9076ac92-be42-43a2-9634-8b67c7fe93a7","389FB9674BAD4EC890991AA25B11011A-2025-05-22-19-34-44","","null","","images/instructions/movie_2.png","null","",""
"","","","","","image-button-response","13","126205","0.0-6.0-1.0-1.1","389FB9674BAD4EC890991AA25B11011A","389FB9674BAD4EC890991AA25B11011A","a426f6b4-31c5-495f-9c09-83203b811d9f","9076ac92-be42-43a2-9634-8b67c7fe93a7","{""num_scrambled_semantic"":""8"",""num_scrambled_causal"":""4"",""num_scrambled_schematic"":""4"",""participantId"":""389FB9674BAD4EC890991AA25B11011A"",""assignmentId"":""a426f6b4-31c5-495f-9c09-83203b811d9f"",""projectId"":""9076ac92-be42-43a2-9634-8b67c7fe93a7""}","https://test12345.live/?num_scrambled_semantic=8&num_scrambled_causal=4&num_scrambled_schematic=4&participantId=389FB9674BAD4EC890991AA25B11011A&assignmentId=a426f6b4-31c5-495f-9c09-83203b811d9f&projectId=9076ac92-be42-43a2-9634-8b67c7fe93a7","389FB9674BAD4EC890991AA25B11011A-2025-05-22-19-34-44","","null","","images/instructions/movie_2.png","null","",""
"","","","","","image-button-response","14","128009","0.0-6.0-1.0-2.1","389FB9674BAD4EC890991AA25B11011A","389FB9674BAD4EC890991AA25B11011A","a426f6b4-31c5-495f-9c09-83203b811d9f","9076ac92-be42-43a2-9634-8b67c7fe93a7","{""num_scrambled_semantic"":""8"",""num_scrambled_causal"":""4"",""num_scrambled_schematic"":""4"",""participantId"":""389FB9674BAD4EC890991AA25B11011A"",""assignmentId"":""a426f6b4-31c5-495f-9c09-83203b811d9f"",""projectId"":""9076ac92-be42-43a2-9634-8b67c7fe93a7""}","https://test12345.live/?num_scrambled_semantic=8&num_scrambled_causal=4&num_scrambled_schematic=4&participantId=389FB9674BAD4EC890991AA25B11011A&assignmentId=a426f6b4-31c5-495f-9c09-83203b811d9f&projectId=9076ac92-be42-43a2-9634-8b67c7fe93a7","389FB9674BAD4EC890991AA25B11011A-2025-05-22-19-34-44","","null","","[]","null","",""
"","","","","","image-button-response","15","132512","0.0-6.0-1.0-0.2","389FB9674BAD4EC890991AA25B11011A","389FB9674BAD4EC890991AA25B11011A","a426f6b4-31c5-495f-9c09-83203b811d9f","9076ac92-be42-43a2-9634-8b67c7fe93a7","{""num_scrambled_semantic"":""8"",""num_scrambled_causal"":""4"",""num_scrambled_schematic"":""4"",""participantId"":""389FB9674BAD4EC890991AA25B11011A"",""assignmentId"":""a426f6b4-31c5-495f-9c09-83203b811d9f"",""projectId"":""9076ac92-be42-43a2-9634-8b67c7fe93a7""}","https://test12345.live/?num_scrambled_semantic=8&num_scrambled_causal=4&num_scrambled_schematic=4&participantId=389FB9674BAD4EC890991AA25B11011A&assignmentId=a426f6b4-31c5-495f-9c09-83203b811d9f&projectId=9076ac92-be42-43a2-9634-8b67c7fe93a7","389FB9674BAD4EC890991AA25B11011A-2025-05-22-19-34-44","","null","","images/instructions/movie_3.png","null","",""
"","","","","","image-button-response","16","134534","0.0-6.0-1.0-1.2","389FB9674BAD4EC890991AA25B11011A","389FB9674BAD4EC890991AA25B11011A","a426f6b4-31c5-495f-9c09-83203b811d9f","9076ac92-be42-43a2-9634-8b67c7fe93a7","{""num_scrambled_semantic"":""8"",""num_scrambled_causal"":""4"",""num_scrambled_schematic"":""4"",""participantId"":""389FB9674BAD4EC890991AA25B11011A"",""assignmentId"":""a426f6b4-31c5-495f-9c09-83203b811d9f"",""projectId"":""9076ac92-be42-43a2-9634-8b67c7fe93a7""}","https://test12345.live/?num_scrambled_semantic=8&num_scrambled_causal=4&num_scrambled_schematic=4&participantId=389FB9674BAD4EC890991AA25B11011A&assignmentId=a426f6b4-31c5-495f-9c09-83203b811d9f&projectId=9076ac92-be42-43a2-9634-8b67c7fe93a7","389FB9674BAD4EC890991AA25B11011A-2025-05-22-19-34-44","","2021","","images/instructions/movie_3.png","0","",""
"","","","","","image-button-response","17","136341","0.0-6.0-1.0-2.2","389FB9674BAD4EC890991AA25B11011A","389FB9674BAD4EC890991AA25B11011A","a426f6b4-31c5-495f-9c09-83203b811d9f","9076ac92-be42-43a2-9634-8b67c7fe93a7","{""num_scrambled_semantic"":""8"",""num_scrambled_causal"":""4"",""num_scrambled_schematic"":""4"",""participantId"":""389FB9674BAD4EC890991AA25B11011A"",""assignmentId"":""a426f6b4-31c5-495f-9c09-83203b811d9f"",""projectId"":""9076ac92-be42-43a2-9634-8b67c7fe93a7""}","https://test12345.live/?num_scrambled_semantic=8&num_scrambled_causal=4&num_scrambled_schematic=4&participantId=389FB9674BAD4EC890991AA25B11011A&assignmentId=a426f6b4-31c5-495f-9c09-83203b811d9f&projectId=9076ac92-be42-43a2-9634-8b67c7fe93a7","389FB9674BAD4EC890991AA25B11011A-2025-05-22-19-34-44","","null","","[]","null","",""
"","","","","","image-button-response","18","140842","0.0-6.0-1.0-0.3","389FB9674BAD4EC890991AA25B11011A","389FB9674BAD4EC890991AA25B11011A","a426f6b4-31c5-495f-9c09-83203b811d9f","9076ac92-be42-43a2-9634-8b67c7fe93a7","{""num_scrambled_semantic"":""8"",""num_scrambled_causal"":""4"",""num_scrambled_schematic"":""4"",""participantId"":""389FB9674BAD4EC890991AA25B11011A"",""assignmentId"":""a426f6b4-31c5-495f-9c09-83203b811d9f"",""projectId"":""9076ac92-be42-43a2-9634-8b67c7fe93a7""}","https://test12345.live/?num_scrambled_semantic=8&num_scrambled_causal=4&num_scrambled_schematic=4&participantId=389FB9674BAD4EC890991AA25B11011A&assignmentId=a426f6b4-31c5-495f-9c09-83203b811d9f&projectId=9076ac92-be42-43a2-9634-8b67c7fe93a7","389FB9674BAD4EC890991AA25B11011A-2025-05-22-19-34-44","","null","","images/instructions/movie_4.png","null","",""
"","","","","","image-button-response","19","141948","0.0-6.0-1.0-1.3","389FB9674BAD4EC890991AA25B11011A","389FB9674BAD4EC890991AA25B11011A","a426f6b4-31c5-495f-9c09-83203b811d9f","9076ac92-be42-43a2-9634-8b67c7fe93a7","{""num_scrambled_semantic"":""8"",""num_scrambled_causal"":""4"",""num_scrambled_schematic"":""4"",""participantId"":""389FB9674BAD4EC890991AA25B11011A"",""assignmentId"":""a426f6b4-31c5-495f-9c09-83203b811d9f"",""projectId"":""9076ac92-be42-43a2-9634-8b67c7fe93a7""}","https://test12345.live/?num_scrambled_semantic=8&num_scrambled_causal=4&num_scrambled_schematic=4&participantId=389FB9674BAD4EC890991AA25B11011A&assignmentId=a426f6b4-31c5-495f-9c09-83203b811d9f&projectId=9076ac92-be42-43a2-9634-8b67c7fe93a7","389FB9674BAD4EC890991AA25B11011A-2025-05-22-19-34-44","","1106","","images/instructions/movie_4.png","0","",""
"","","","","","image-button-response","20","143750","0.0-6.0-1.0-2.3","389FB9674BAD4EC890991AA25B11011A","389FB9674BAD4EC890991AA25B11011A","a426f6b4-31c5-495f-9c09-83203b811d9f","9076ac92-be42-43a2-9634-8b67c7fe93a7","{""num_scrambled_semantic"":""8"",""num_scrambled_causal"":""4"",""num_scrambled_schematic"":""4"",""participantId"":""389FB9674BAD4EC890991AA25B11011A"",""assignmentId"":""a426f6b4-31c5-495f-9c09-83203b811d9f"",""projectId"":""9076ac92-be42-43a2-9634-8b67c7fe93a7""}","https://test12345.live/?num_scrambled_semantic=8&num_scrambled_causal=4&num_scrambled_schematic=4&participantId=389FB9674BAD4EC890991AA25B11011A&assignmentId=a426f6b4-31c5-495f-9c09-83203b811d9f&projectId=9076ac92-be42-43a2-9634-8b67c7fe93a7","389FB9674BAD4EC890991AA25B11011A-2025-05-22-19-34-44","","null","","[]","null","",""
"","","","","","instructions","21","161693","0.0-7.0","389FB9674BAD4EC890991AA25B11011A","389FB9674BAD4EC890991AA25B11011A","a426f6b4-31c5-495f-9c09-83203b811d9f","9076ac92-be42-43a2-9634-8b67c7fe93a7","{""num_scrambled_semantic"":""8"",""num_scrambled_causal"":""4"",""num_scrambled_schematic"":""4"",""participantId"":""389FB9674BAD4EC890991AA25B11011A"",""assignmentId"":""a426f6b4-31c5-495f-9c09-83203b811d9f"",""projectId"":""9076ac92-be42-43a2-9634-8b67c7fe93a7""}","https://test12345.live/?num_scrambled_semantic=8&num_scrambled_causal=4&num_scrambled_schematic=4&participantId=389FB9674BAD4EC890991AA25B11011A&assignmentId=a426f6b4-31c5-495f-9c09-83203b811d9f&projectId=9076ac92-be42-43a2-9634-8b67c7fe93a7","389FB9674BAD4EC890991AA25B11011A-2025-05-22-19-34-44","[{""page_index"":0,""viewing_time"":16603},{""page_index"":1,""viewing_time"":1340}]","17944","","","","",""
"","","","","","html-audio-response","22","192584","0.0-8.0","389FB9674BAD4EC890991AA25B11011A","389FB9674BAD4EC890991AA25B11011A","a426f6b4-31c5-495f-9c09-83203b811d9f","9076ac92-be42-43a2-9634-8b67c7fe93a7","{""num_scrambled_semantic"":""8"",""num_scrambled_causal"":""4"",""num_scrambled_schematic"":""4"",""participantId"":""389FB9674BAD4EC890991AA25B11011A"",""assignmentId"":""a426f6b4-31c5-495f-9c09-83203b811d9f"",""projectId"":""9076ac92-be42-43a2-9634-8b67c7fe93a7""}","https://test12345.live/?num_scrambled_semantic=8&num_scrambled_causal=4&num_scrambled_schematic=4&participantId=389FB9674BAD4EC890991AA25B11011A&assignmentId=a426f6b4-31c5-495f-9c09-83203b811d9f&projectId=9076ac92-be42-43a2-9634-8b67c7fe93a7","389FB9674BAD4EC890991AA25B11011A-2025-05-22-19-34-44","","18613","","[""<span style=\""color: red; font-size: 24px\""> NOW RECORDING</span><p>Please say out loud all the images you saw in the exact order you saw them. Try to recall as many images as you can, but remember: getting the order right is more important than the number of images you recall.</p>""]","","10",""
"","","","","","instructions","23","194328","0.0-9.0","389FB9674BAD4EC890991AA25B11011A","389FB9674BAD4EC890991AA25B11011A","a426f6b4-31c5-495f-9c09-83203b811d9f","9076ac92-be42-43a2-9634-8b67c7fe93a7","{""num_scrambled_semantic"":""8"",""num_scrambled_causal"":""4"",""num_scrambled_schematic"":""4"",""participantId"":""389FB9674BAD4EC890991AA25B11011A"",""assignmentId"":""a426f6b4-31c5-495f-9c09-83203b811d9f"",""projectId"":""9076ac92-be42-43a2-9634-8b67c7fe93a7""}","https://test12345.live/?num_scrambled_semantic=8&num_scrambled_causal=4&num_scrambled_schematic=4&participantId=389FB9674BAD4EC890991AA25B11011A&assignmentId=a426f6b4-31c5-495f-9c09-83203b811d9f&projectId=9076ac92-be42-43a2-9634-8b67c7fe93a7","389FB9674BAD4EC890991AA25B11011A-2025-05-22-19-34-44","[{""page_index"":0,""viewing_time"":1740}]","1740","","","","",""
"","","","","","image-button-response","24","200333","0.0-10.0-0.0","389FB9674BAD4EC890991AA25B11011A","389FB9674BAD4EC890991AA25B11011A","a426f6b4-31c5-495f-9c09-83203b811d9f","9076ac92-be42-43a2-9634-8b67c7fe93a7","{""num_scrambled_semantic"":""8"",""num_scrambled_causal"":""4"",""num_scrambled_schematic"":""4"",""participantId"":""389FB9674BAD4EC890991AA25B11011A"",""assignmentId"":""a426f6b4-31c5-495f-9c09-83203b811d9f"",""projectId"":""9076ac92-be42-43a2-9634-8b67c7fe93a7""}","https://test12345.live/?num_scrambled_semantic=8&num_scrambled_causal=4&num_scrambled_schematic=4&participantId=389FB9674BAD4EC890991AA25B11011A&assignmentId=a426f6b4-31c5-495f-9c09-83203b811d9f&projectId=9076ac92-be42-43a2-9634-8b67c7fe93a7","389FB9674BAD4EC890991AA25B11011A-2025-05-22-19-34-44","","null","","images/semantic_sequence/market_semantic/market_semantic_0.png","null","",""
"","","","","","image-button-response","25","204838","0.0-10.0-1.0-0.0","389FB9674BAD4EC890991AA25B11011A","389FB9674BAD4EC890991AA25B11011A","a426f6b4-31c5-495f-9c09-83203b811d9f","9076ac92-be42-43a2-9634-8b67c7fe93a7","{""num_scrambled_semantic"":""8"",""num_scrambled_causal"":""4"",""num_scrambled_schematic"":""4"",""participantId"":""389FB9674BAD4EC890991AA25B11011A"",""assignmentId"":""a426f6b4-31c5-495f-9c09-83203b811d9f"",""projectId"":""9076ac92-be42-43a2-9634-8b67c7fe93a7""}","https://test12345.live/?num_scrambled_semantic=8&num_scrambled_causal=4&num_scrambled_schematic=4&participantId=389FB9674BAD4EC890991AA25B11011A&assignmentId=a426f6b4-31c5-495f-9c09-83203b811d9f&projectId=9076ac92-be42-43a2-9634-8b67c7fe93a7","389FB9674BAD4EC890991AA25B11011A-2025-05-22-19-34-44","","null","","images/semantic_sequence/market_semantic/market_semantic_1.png","null","",""
"","","","","","image-button-response","26","207052","0.0-10.0-1.0-1.0","389FB9674BAD4EC890991AA25B11011A","389FB9674BAD4EC890991AA25B11011A","a426f6b4-31c5-495f-9c09-83203b811d9f","9076ac92-be42-43a2-9634-8b67c7fe93a7","{""num_scrambled_semantic"":""8"",""num_scrambled_causal"":""4"",""num_scrambled_schematic"":""4"",""participantId"":""389FB9674BAD4EC890991AA25B11011A"",""assignmentId"":""a426f6b4-31c5-495f-9c09-83203b811d9f"",""projectId"":""9076ac92-be42-43a2-9634-8b67c7fe93a7""}","https://test12345.live/?num_scrambled_semantic=8&num_scrambled_causal=4&num_scrambled_schematic=4&participantId=389FB9674BAD4EC890991AA25B11011A&assignmentId=a426f6b4-31c5-495f-9c09-83203b811d9f&projectId=9076ac92-be42-43a2-9634-8b67c7fe93a7","389FB9674BAD4EC890991AA25B11011A-2025-05-22-19-34-44","","2213","","images/semantic_sequence/market_semantic/market_semantic_1.png","1","",""
"","","","","","image-button-response","27","208858","0.0-10.0-1.0-2.0","389FB9674BAD4EC890991AA25B11011A","389FB9674BAD4EC890991AA25B11011A","a426f6b4-31c5-495f-9c09-83203b811d9f","9076ac92-be42-43a2-9634-8b67c7fe93a7","{""num_scrambled_semantic"":""8"",""num_scrambled_causal"":""4"",""num_scrambled_schematic"":""4"",""participantId"":""389FB9674BAD4EC890991AA25B11011A"",""assignmentId"":""a426f6b4-31c5-495f-9c09-83203b811d9f"",""projectId"":""9076ac92-be42-43a2-9634-8b67c7fe93a7""}","https://test12345.live/?num_scrambled_semantic=8&num_scrambled_causal=4&num_scrambled_schematic=4&participantId=389FB9674BAD4EC890991AA25B11011A&assignmentId=a426f6b4-31c5-495f-9c09-83203b811d9f&projectId=9076ac92-be42-43a2-9634-8b67c7fe93a7","389FB9674BAD4EC890991AA25B11011A-2025-05-22-19-34-44","","null","","[]","null","",""
"","","","","","image-button-response","28","213363","0.0-10.0-1.0-0.1","389FB9674BAD4EC890991AA25B11011A","389FB9674BAD4EC890991AA25B11011A","a426f6b4-31c5-495f-9c09-83203b811d9f","9076ac92-be42-43a2-9634-8b67c7fe93a7","{""num_scrambled_semantic"":""8"",""num_scrambled_causal"":""4"",""num_scrambled_schematic"":""4"",""participantId"":""389FB9674BAD4EC890991AA25B11011A"",""assignmentId"":""a426f6b4-31c5-495f-9c09-83203b811d9f"",""projectId"":""9076ac92-be42-43a2-9634-8b67c7fe93a7""}","https://test12345.live/?num_scrambled_semantic=8&num_scrambled_causal=4&num_scrambled_schematic=4&participantId=389FB9674BAD4EC890991AA25B11011A&assignmentId=a426f6b4-31c5-495f-9c09-83203b811d9f&projectId=9076ac92-be42-43a2-9634-8b67c7fe93a7","389FB9674BAD4EC890991AA25B11011A-2025-05-22-19-34-44","","null","","images/semantic_sequence/market_semantic/market_semantic_4.png","null","",""
"","","","","","image-button-response","29","215219","0.0-10.0-1.0-1.1","389FB9674BAD4EC890991AA25B11011A","389FB9674BAD4EC890991AA25B11011A","a426f6b4-31c5-495f-9c09-83203b811d9f","9076ac92-be42-43a2-9634-8b67c7fe93a7","{""num_scrambled_semantic"":""8"",""num_scrambled_causal"":""4"",""num_scrambled_schematic"":""4"",""participantId"":""389FB9674BAD4EC890991AA25B11011A"",""assignmentId"":""a426f6b4-31c5-495f-9c09-83203b811d9f"",""projectId"":""9076ac92-be42-43a2-9634-8b67c7fe93a7""}","https://test12345.live/?num_scrambled_semantic=8&num_scrambled_causal=4&num_scrambled_schematic=4&participantId=389FB9674BAD4EC890991AA25B11011A&assignmentId=a426f6b4-31c5-495f-9c09-83203b811d9f&projectId=9076ac92-be42-43a2-9634-8b67c7fe93a7","389FB9674BAD4EC890991AA25B11011A-2025-05-22-19-34-44","","1856","","images/semantic_sequence/market_semantic/market_semantic_4.png","0","",""
"","","","","","image-button-response","30","217025","0.0-10.0-1.0-2.1","389FB9674BAD4EC890991AA25B11011A","389FB9674BAD4EC890991AA25B11011A","a426f6b4-31c5-495f-9c09-83203b811d9f","9076ac92-be42-43a2-9634-8b67c7fe93a7","{""num_scrambled_semantic"":""8"",""num_scrambled_causal"":""4"",""num_scrambled_schematic"":""4"",""participantId"":""389FB9674BAD4EC890991AA25B11011A"",""assignmentId"":""a426f6b4-31c5-495f-9c09-83203b811d9f"",""projectId"":""9076ac92-be42-43a2-9634-8b67c7fe93a7""}","https://test12345.live/?num_scrambled_semantic=8&num_scrambled_causal=4&num_scrambled_schematic=4&participantId=389FB9674BAD4EC890991AA25B11011A&assignmentId=a426f6b4-31c5-495f-9c09-83203b811d9f&projectId=9076ac92-be42-43a2-9634-8b67c7fe93a7","389FB9674BAD4EC890991AA25B11011A-2025-05-22-19-34-44","","null","","[]","null","",""
"","","","","","image-button-response","31","221527","0.0-10.0-1.0-0.2","389FB9674BAD4EC890991AA25B11011A","389FB9674BAD4EC890991AA25B11011A","a426f6b4-31c5-495f-9c09-83203b811d9f","9076ac92-be42-43a2-9634-8b67c7fe93a7","{""num_scrambled_semantic"":""8"",""num_scrambled_causal"":""4"",""num_scrambled_schematic"":""4"",""participantId"":""389FB9674BAD4EC890991AA25B11011A"",""assignmentId"":""a426f6b4-31c5-495f-9c09-83203b811d9f"",""projectId"":""9076ac92-be42-43a2-9634-8b67c7fe93a7""}","https://test12345.live/?num_scrambled_semantic=8&num_scrambled_causal=4&num_scrambled_schematic=4&participantId=389FB9674BAD4EC890991AA25B11011A&assignmentId=a426f6b4-31c5-495f-9c09-83203b811d9f&projectId=9076ac92-be42-43a2-9634-8b67c7fe93a7","389FB9674BAD4EC890991AA25B11011A-2025-05-22-19-34-44","","null","","images/semantic_sequence/market_semantic/market_semantic_7.png","null","",""
"","","","","","image-button-response","32","222588","0.0-10.0-1.0-1.2","389FB9674BAD4EC890991AA25B11011A","389FB9674BAD4EC890991AA25B11011A","a426f6b4-31c5-495f-9c09-83203b811d9f","9076ac92-be42-43a2-9634-8b67c7fe93a7","{""num_scrambled_semantic"":""8"",""num_scrambled_causal"":""4"",""num_scrambled_schematic"":""4"",""participantId"":""389FB9674BAD4EC890991AA25B11011A"",""assignmentId"":""a426f6b4-31c5-495f-9c09-83203b811d9f"",""projectId"":""9076ac92-be42-43a2-9634-8b67c7fe93a7""}","https://test12345.live/?num_scrambled_semantic=8&num_scrambled_causal=4&num_scrambled_schematic=4&participantId=389FB9674BAD4EC890991AA25B11011A&assignmentId=a426f6b4-31c5-495f-9c09-83203b811d9f&projectId=9076ac92-be42-43a2-9634-8b67c7fe93a7","389FB9674BAD4EC890991AA25B11011A-2025-05-22-19-34-44","","1060","","images/semantic_sequence/market_semantic/market_semantic_7.png","0","",""
"","","","","","image-button-response","33","224393","0.0-10.0-1.0-2.2","389FB9674BAD4EC890991AA25B11011A","389FB9674BAD4EC890991AA25B11011A","a426f6b4-31c5-495f-9c09-83203b811d9f","9076ac92-be42-43a2-9634-8b67c7fe93a7","{""num_scrambled_semantic"":""8"",""num_scrambled_causal"":""4"",""num_scrambled_schematic"":""4"",""participantId"":""389FB9674BAD4EC890991AA25B11011A"",""assignmentId"":""a426f6b4-31c5-495f-9c09-83203b811d9f"",""projectId"":""9076ac92-be42-43a2-9634-8b67c7fe93a7""}","https://test12345.live/?num_scrambled_semantic=8&num_scrambled_causal=4&num_scrambled_schematic=4&participantId=389FB9674BAD4EC890991AA25B11011A&assignmentId=a426f6b4-31c5-495f-9c09-83203b811d9f&projectId=9076ac92-be42-43a2-9634-8b67c7fe93a7","389FB9674BAD4EC890991AA25B11011A-2025-05-22-19-34-44","","null","","[]","null","",""
"","","","","","image-button-response","34","228897","0.0-10.0-1.0-0.3","389FB9674BAD4EC890991AA25B11011A","389FB9674BAD4EC890991AA25B11011A","a426f6b4-31c5-495f-9c09-83203b811d9f","9076ac92-be42-43a2-9634-8b67c7fe93a7","{""num_scrambled_semantic"":""8"",""num_scrambled_causal"":""4"",""num_scrambled_schematic"":""4"",""participantId"":""389FB9674BAD4EC890991AA25B11011A"",""assignmentId"":""a426f6b4-31c5-495f-9c09-83203b811d9f"",""projectId"":""9076ac92-be42-43a2-9634-8b67c7fe93a7""}","https://test12345.live/?num_scrambled_semantic=8&num_scrambled_causal=4&num_scrambled_schematic=4&participantId=389FB9674BAD4EC890991AA25B11011A&assignmentId=a426f6b4-31c5-495f-9c09-83203b811d9f&projectId=9076ac92-be42-43a2-9634-8b67c7fe93a7","389FB9674BAD4EC890991AA25B11011A-2025-05-22-19-34-44","","null","","images/semantic_sequence/market_semantic/market_semantic_2.png","null","",""
"","","","","","image-button-response","35","231453","0.0-10.0-1.0-1.3","389FB9674BAD4EC890991AA25B11011A","389FB9674BAD4EC890991AA25B11011A","a426f6b4-31c5-495f-9c09-83203b811d9f","9076ac92-be42-43a2-9634-8b67c7fe93a7","{""num_scrambled_semantic"":""8"",""num_scrambled_causal"":""4"",""num_scrambled_schematic"":""4"",""participantId"":""389FB9674BAD4EC890991AA25B11011A"",""assignmentId"":""a426f6b4-31c5-495f-9c09-83203b811d9f"",""projectId"":""9076ac92-be42-43a2-9634-8b67c7fe93a7""}","https://test12345.live/?num_scrambled_semantic=8&num_scrambled_causal=4&num_scrambled_schematic=4&participantId=389FB9674BAD4EC890991AA25B11011A&assignmentId=a426f6b4-31c5-495f-9c09-83203b811d9f&projectId=9076ac92-be42-43a2-9634-8b67c7fe93a7","389FB9674BAD4EC890991AA25B11011A-2025-05-22-19-34-44","","2555","","images/semantic_sequence/market_semantic/market_semantic_2.png","1","",""
"","","","","","image-button-response","36","233255","0.0-10.0-1.0-2.3","389FB9674BAD4EC890991AA25B11011A","389FB9674BAD4EC890991AA25B11011A","a426f6b4-31c5-495f-9c09-83203b811d9f","9076ac92-be42-43a2-9634-8b67c7fe93a7","{""num_scrambled_semantic"":""8"",""num_scrambled_causal"":""4"",""num_scrambled_schematic"":""4"",""participantId"":""389FB9674BAD4EC890991AA25B11011A"",""assignmentId"":""a426f6b4-31c5-495f-9c09-83203b811d9f"",""projectId"":""9076ac92-be42-43a2-9634-8b67c7fe93a7""}","https://test12345.live/?num_scrambled_semantic=8&num_scrambled_causal=4&num_scrambled_schematic=4&participantId=389FB9674BAD4EC890991AA25B11011A&assignmentId=a426f6b4-31c5-495f-9c09-83203b811d9f&projectId=9076ac92-be42-43a2-9634-8b67c7fe93a7","389FB9674BAD4EC890991AA25B11011A-2025-05-22-19-34-44","","null","","[]","null","",""
"","","","","","image-button-response","37","237757","0.0-10.0-1.0-0.4","389FB9674BAD4EC890991AA25B11011A","389FB9674BAD4EC890991AA25B11011A","a426f6b4-31c5-495f-9c09-83203b811d9f","9076ac92-be42-43a2-9634-8b67c7fe93a7","{""num_scrambled_semantic"":""8"",""num_scrambled_causal"":""4"",""num_scrambled_schematic"":""4"",""participantId"":""389FB9674BAD4EC890991AA25B11011A"",""assignmentId"":""a426f6b4-31c5-495f-9c09-83203b811d9f"",""projectId"":""9076ac92-be42-43a2-9634-8b67c7fe93a7""}","https://test12345.live/?num_scrambled_semantic=8&num_scrambled_causal=4&num_scrambled_schematic=4&participantId=389FB9674BAD4EC890991AA25B11011A&assignmentId=a426f6b4-31c5-495f-9c09-83203b811d9f&projectId=9076ac92-be42-43a2-9634-8b67c7fe93a7","389FB9674BAD4EC890991AA25B11011A-2025-05-22-19-34-44","","null","","images/semantic_sequence/market_semantic/market_semantic_ten.png","null","",""
"","","","","","image-button-response","38","241761","0.0-10.0-1.0-1.4","389FB9674BAD4EC890991AA25B11011A","389FB9674BAD4EC890991AA25B11011A","a426f6b4-31c5-495f-9c09-83203b811d9f","9076ac92-be42-43a2-9634-8b67c7fe93a7","{""num_scrambled_semantic"":""8"",""num_scrambled_causal"":""4"",""num_scrambled_schematic"":""4"",""participantId"":""389FB9674BAD4EC890991AA25B11011A"",""assignmentId"":""a426f6b4-31c5-495f-9c09-83203b811d9f"",""projectId"":""9076ac92-be42-43a2-9634-8b67c7fe93a7""}","https://test12345.live/?num_scrambled_semantic=8&num_scrambled_causal=4&num_scrambled_schematic=4&participantId=389FB9674BAD4EC890991AA25B11011A&assignmentId=a426f6b4-31c5-495f-9c09-83203b811d9f&projectId=9076ac92-be42-43a2-9634-8b67c7fe93a7","389FB9674BAD4EC890991AA25B11011A-2025-05-22-19-34-44","","null","","images/semantic_sequence/market_semantic/market_semantic_ten.png","null","",""
"","","","","","image-button-response","39","243567","0.0-10.0-1.0-2.4","389FB9674BAD4EC890991AA25B11011A","389FB9674BAD4EC890991AA25B11011A","a426f6b4-31c5-495f-9c09-83203b811d9f","9076ac92-be42-43a2-9634-8b67c7fe93a7","{""num_scrambled_semantic"":""8"",""num_scrambled_causal"":""4"",""num_scrambled_schematic"":""4"",""participantId"":""389FB9674BAD4EC890991AA25B11011A"",""assignmentId"":""a426f6b4-31c5-495f-9c09-83203b811d9f"",""projectId"":""9076ac92-be42-43a2-9634-8b67c7fe93a7""}","https://test12345.live/?num_scrambled_semantic=8&num_scrambled_causal=4&num_scrambled_schematic=4&participantId=389FB9674BAD4EC890991AA25B11011A&assignmentId=a426f6b4-31c5-495f-9c09-83203b811d9f&projectId=9076ac92-be42-43a2-9634-8b67c7fe93a7","389FB9674BAD4EC890991AA25B11011A-2025-05-22-19-34-44","","null","","[]","null","",""
"","","","","","image-button-response","40","248073","0.0-10.0-1.0-0.5","389FB9674BAD4EC890991AA25B11011A","389FB9674BAD4EC890991AA25B11011A","a426f6b4-31c5-495f-9c09-83203b811d9f","9076ac92-be42-43a2-9634-8b67c7fe93a7","{""num_scrambled_semantic"":""8"",""num_scrambled_causal"":""4"",""num_scrambled_schematic"":""4"",""participantId"":""389FB9674BAD4EC890991AA25B11011A"",""assignmentId"":""a426f6b4-31c5-495f-9c09-83203b811d9f"",""projectId"":""9076ac92-be42-43a2-9634-8b67c7fe93a7""}","https://test12345.live/?num_scrambled_semantic=8&num_scrambled_causal=4&num_scrambled_schematic=4&participantId=389FB9674BAD4EC890991AA25B11011A&assignmentId=a426f6b4-31c5-495f-9c09-83203b811d9f&projectId=9076ac92-be42-43a2-9634-8b67c7fe93a7","389FB9674BAD4EC890991AA25B11011A-2025-05-22-19-34-44","","null","","images/semantic_sequence/market_semantic/market_semantic_8.png","null","",""
"","","","","","image-button-response","41","250871","0.0-10.0-1.0-1.5","389FB9674BAD4EC890991AA25B11011A","389FB9674BAD4EC890991AA25B11011A","a426f6b4-31c5-495f-9c09-83203b811d9f","9076ac92-be42-43a2-9634-8b67c7fe93a7","{""num_scrambled_semantic"":""8"",""num_scrambled_causal"":""4"",""num_scrambled_schematic"":""4"",""participantId"":""389FB9674BAD4EC890991AA25B11011A"",""assignmentId"":""a426f6b4-31c5-495f-9c09-83203b811d9f"",""projectId"":""9076ac92-be42-43a2-9634-8b67c7fe93a7""}","https://test12345.live/?num_scrambled_semantic=8&num_scrambled_causal=4&num_scrambled_schematic=4&participantId=389FB9674BAD4EC890991AA25B11011A&assignmentId=a426f6b4-31c5-495f-9c09-83203b811d9f&projectId=9076ac92-be42-43a2-9634-8b67c7fe93a7","389FB9674BAD4EC890991AA25B11011A-2025-05-22-19-34-44","","2797","","images/semantic_sequence/market_semantic/market_semantic_8.png","0","",""
"","","","","","image-button-response","42","252676","0.0-10.0-1.0-2.5","389FB9674BAD4EC890991AA25B11011A","389FB9674BAD4EC890991AA25B11011A","a426f6b4-31c5-495f-9c09-83203b811d9f","9076ac92-be42-43a2-9634-8b67c7fe93a7","{""num_scrambled_semantic"":""8"",""num_scrambled_causal"":""4"",""num_scrambled_schematic"":""4"",""participantId"":""389FB9674BAD4EC890991AA25B11011A"",""assignmentId"":""a426f6b4-31c5-495f-9c09-83203b811d9f"",""projectId"":""9076ac92-be42-43a2-9634-8b67c7fe93a7""}","https://test12345.live/?num_scrambled_semantic=8&num_scrambled_causal=4&num_scrambled_schematic=4&participantId=389FB9674BAD4EC890991AA25B11011A&assignmentId=a426f6b4-31c5-495f-9c09-83203b811d9f&projectId=9076ac92-be42-43a2-9634-8b67c7fe93a7","389FB9674BAD4EC890991AA25B11011A-2025-05-22-19-34-44","","null","","[]","null","",""
"","","","","","image-button-response","43","257183","0.0-10.0-1.0-0.6","389FB9674BAD4EC890991AA25B11011A","389FB9674BAD4EC890991AA25B11011A","a426f6b4-31c5-495f-9c09-83203b811d9f","9076ac92-be42-43a2-9634-8b67c7fe93a7","{""num_scrambled_semantic"":""8"",""num_scrambled_causal"":""4"",""num_scrambled_schematic"":""4"",""participantId"":""389FB9674BAD4EC890991AA25B11011A"",""assignmentId"":""a426f6b4-31c5-495f-9c09-83203b811d9f"",""projectId"":""9076ac92-be42-43a2-9634-8b67c7fe93a7""}","https://test12345.live/?num_scrambled_semantic=8&num_scrambled_causal=4&num_scrambled_schematic=4&participantId=389FB9674BAD4EC890991AA25B11011A&assignmentId=a426f6b4-31c5-495f-9c09-83203b811d9f&projectId=9076ac92-be42-43a2-9634-8b67c7fe93a7","389FB9674BAD4EC890991AA25B11011A-2025-05-22-19-34-44","","null","","images/semantic_sequence/market_semantic/market_semantic_3.png","null","",""
"","","","","","image-button-response","44","259645","0.0-10.0-1.0-1.6","389FB9674BAD4EC890991AA25B11011A","389FB9674BAD4EC890991AA25B11011A","a426f6b4-31c5-495f-9c09-83203b811d9f","9076ac92-be42-43a2-9634-8b67c7fe93a7","{""num_scrambled_semantic"":""8"",""num_scrambled_causal"":""4"",""num_scrambled_schematic"":""4"",""participantId"":""389FB9674BAD4EC890991AA25B11011A"",""assignmentId"":""a426f6b4-31c5-495f-9c09-83203b811d9f"",""projectId"":""9076ac92-be42-43a2-9634-8b67c7fe93a7""}","https://test12345.live/?num_scrambled_semantic=8&num_scrambled_causal=4&num_scrambled_schematic=4&participantId=389FB9674BAD4EC890991AA25B11011A&assignmentId=a426f6b4-31c5-495f-9c09-83203b811d9f&projectId=9076ac92-be42-43a2-9634-8b67c7fe93a7","389FB9674BAD4EC890991AA25B11011A-2025-05-22-19-34-44","","2462","","images/semantic_sequence/market_semantic/market_semantic_3.png","1","",""
"","","","","","image-button-response","45","261451","0.0-10.0-1.0-2.6","389FB9674BAD4EC890991AA25B11011A","389FB9674BAD4EC890991AA25B11011A","a426f6b4-31c5-495f-9c09-83203b811d9f","9076ac92-be42-43a2-9634-8b67c7fe93a7","{""num_scrambled_semantic"":""8"",""num_scrambled_causal"":""4"",""num_scrambled_schematic"":""4"",""participantId"":""389FB9674BAD4EC890991AA25B11011A"",""assignmentId"":""a426f6b4-31c5-495f-9c09-83203b811d9f"",""projectId"":""9076ac92-be42-43a2-9634-8b67c7fe93a7""}","https://test12345.live/?num_scrambled_semantic=8&num_scrambled_causal=4&num_scrambled_schematic=4&participantId=389FB9674BAD4EC890991AA25B11011A&assignmentId=a426f6b4-31c5-495f-9c09-83203b811d9f&projectId=9076ac92-be42-43a2-9634-8b67c7fe93a7","389FB9674BAD4EC890991AA25B11011A-2025-05-22-19-34-44","","null","","[]","null","",""
"","","","","","image-button-response","46","265956","0.0-10.0-1.0-0.7","389FB9674BAD4EC890991AA25B11011A","389FB9674BAD4EC890991AA25B11011A","a426f6b4-31c5-495f-9c09-83203b811d9f","9076ac92-be42-43a2-9634-8b67c7fe93a7","{""num_scrambled_semantic"":""8"",""num_scrambled_causal"":""4"",""num_scrambled_schematic"":""4"",""participantId"":""389FB9674BAD4EC890991AA25B11011A"",""assignmentId"":""a426f6b4-31c5-495f-9c09-83203b811d9f"",""projectId"":""9076ac92-be42-43a2-9634-8b67c7fe93a7""}","https://test12345.live/?num_scrambled_semantic=8&num_scrambled_causal=4&num_scrambled_schematic=4&participantId=389FB9674BAD4EC890991AA25B11011A&assignmentId=a426f6b4-31c5-495f-9c09-83203b811d9f&projectId=9076ac92-be42-43a2-9634-8b67c7fe93a7","389FB9674BAD4EC890991AA25B11011A-2025-05-22-19-34-44","","null","","images/semantic_sequence/market_semantic/market_semantic_9.png","null","",""
"","","","","","image-button-response","47","269388","0.0-10.0-1.0-1.7","389FB9674BAD4EC890991AA25B11011A","389FB9674BAD4EC890991AA25B11011A","a426f6b4-31c5-495f-9c09-83203b811d9f","9076ac92-be42-43a2-9634-8b67c7fe93a7","{""num_scrambled_semantic"":""8"",""num_scrambled_causal"":""4"",""num_scrambled_schematic"":""4"",""participantId"":""389FB9674BAD4EC890991AA25B11011A"",""assignmentId"":""a426f6b4-31c5-495f-9c09-83203b811d9f"",""projectId"":""9076ac92-be42-43a2-9634-8b67c7fe93a7""}","https://test12345.live/?num_scrambled_semantic=8&num_scrambled_causal=4&num_scrambled_schematic=4&participantId=389FB9674BAD4EC890991AA25B11011A&assignmentId=a426f6b4-31c5-495f-9c09-83203b811d9f&projectId=9076ac92-be42-43a2-9634-8b67c7fe93a7","389FB9674BAD4EC890991AA25B11011A-2025-05-22-19-34-44","","3432","","images/semantic_sequence/market_semantic/market_semantic_9.png","0","",""
"","","","","","image-button-response","48","271194","0.0-10.0-1.0-2.7","389FB9674BAD4EC890991AA25B11011A","389FB9674BAD4EC890991AA25B11011A","a426f6b4-31c5-495f-9c09-83203b811d9f","9076ac92-be42-43a2-9634-8b67c7fe93a7","{""num_scrambled_semantic"":""8"",""num_scrambled_causal"":""4"",""num_scrambled_schematic"":""4"",""participantId"":""389FB9674BAD4EC890991AA25B11011A"",""assignmentId"":""a426f6b4-31c5-495f-9c09-83203b811d9f"",""projectId"":""9076ac92-be42-43a2-9634-8b67c7fe93a7""}","https://test12345.live/?num_scrambled_semantic=8&num_scrambled_causal=4&num_scrambled_schematic=4&participantId=389FB9674BAD4EC890991AA25B11011A&assignmentId=a426f6b4-31c5-495f-9c09-83203b811d9f&projectId=9076ac92-be42-43a2-9634-8b67c7fe93a7","389FB9674BAD4EC890991AA25B11011A-2025-05-22-19-34-44","","null","","[]","null","",""
"","","","","","image-button-response","49","275697","0.0-10.0-1.0-0.8","389FB9674BAD4EC890991AA25B11011A","389FB9674BAD4EC890991AA25B11011A","a426f6b4-31c5-495f-9c09-83203b811d9f","9076ac92-be42-43a2-9634-8b67c7fe93a7","{""num_scrambled_semantic"":""8"",""num_scrambled_causal"":""4"",""num_scrambled_schematic"":""4"",""participantId"":""389FB9674BAD4EC890991AA25B11011A"",""assignmentId"":""a426f6b4-31c5-495f-9c09-83203b811d9f"",""projectId"":""9076ac92-be42-43a2-9634-8b67c7fe93a7""}","https://test12345.live/?num_scrambled_semantic=8&num_scrambled_causal=4&num_scrambled_schematic=4&participantId=389FB9674BAD4EC890991AA25B11011A&assignmentId=a426f6b4-31c5-495f-9c09-83203b811d9f&projectId=9076ac92-be42-43a2-9634-8b67c7fe93a7","389FB9674BAD4EC890991AA25B11011A-2025-05-22-19-34-44","","null","","images/semantic_sequence/market_semantic/market_semantic_5.png","null","",""
"","","","","","image-button-response","50","277107","0.0-10.0-1.0-1.8","389FB9674BAD4EC890991AA25B11011A","389FB9674BAD4EC890991AA25B11011A","a426f6b4-31c5-495f-9c09-83203b811d9f","9076ac92-be42-43a2-9634-8b67c7fe93a7","{""num_scrambled_semantic"":""8"",""num_scrambled_causal"":""4"",""num_scrambled_schematic"":""4"",""participantId"":""389FB9674BAD4EC890991AA25B11011A"",""assignmentId"":""a426f6b4-31c5-495f-9c09-83203b811d9f"",""projectId"":""9076ac92-be42-43a2-9634-8b67c7fe93a7""}","https://test12345.live/?num_scrambled_semantic=8&num_scrambled_causal=4&num_scrambled_schematic=4&participantId=389FB9674BAD4EC890991AA25B11011A&assignmentId=a426f6b4-31c5-495f-9c09-83203b811d9f&projectId=9076ac92-be42-43a2-9634-8b67c7fe93a7","389FB9674BAD4EC890991AA25B11011A-2025-05-22-19-34-44","","1409","","images/semantic_sequence/market_semantic/market_semantic_5.png","1","",""
"","","","","","image-button-response","51","278911","0.0-10.0-1.0-2.8","389FB9674BAD4EC890991AA25B11011A","389FB9674BAD4EC890991AA25B11011A","a426f6b4-31c5-495f-9c09-83203b811d9f","9076ac92-be42-43a2-9634-8b67c7fe93a7","{""num_scrambled_semantic"":""8"",""num_scrambled_causal"":""4"",""num_scrambled_schematic"":""4"",""participantId"":""389FB9674BAD4EC890991AA25B11011A"",""assignmentId"":""a426f6b4-31c5-495f-9c09-83203b811d9f"",""projectId"":""9076ac92-be42-43a2-9634-8b67c7fe93a7""}","https://test12345.live/?num_scrambled_semantic=8&num_scrambled_causal=4&num_scrambled_schematic=4&participantId=389FB9674BAD4EC890991AA25B11011A&assignmentId=a426f6b4-31c5-495f-9c09-83203b811d9f&projectId=9076ac92-be42-43a2-9634-8b67c7fe93a7","389FB9674BAD4EC890991AA25B11011A-2025-05-22-19-34-44","","null","","[]","null","",""
"","","","","","image-button-response","52","283417","0.0-10.0-1.0-0.9","389FB9674BAD4EC890991AA25B11011A","389FB9674BAD4EC890991AA25B11011A","a426f6b4-31c5-495f-9c09-83203b811d9f","9076ac92-be42-43a2-9634-8b67c7fe93a7","{""num_scrambled_semantic"":""8"",""num_scrambled_causal"":""4"",""num_scrambled_schematic"":""4"",""participantId"":""389FB9674BAD4EC890991AA25B11011A"",""assignmentId"":""a426f6b4-31c5-495f-9c09-83203b811d9f"",""projectId"":""9076ac92-be42-43a2-9634-8b67c7fe93a7""}","https://test12345.live/?num_scrambled_semantic=8&num_scrambled_causal=4&num_scrambled_schematic=4&participantId=389FB9674BAD4EC890991AA25B11011A&assignmentId=a426f6b4-31c5-495f-9c09-83203b811d9f&projectId=9076ac92-be42-43a2-9634-8b67c7fe93a7","389FB9674BAD4EC890991AA25B11011A-2025-05-22-19-34-44","","null","","images/semantic_sequence/market_semantic/market_semantic_6.png","null","",""
"","","","","","image-button-response","53","285723","0.0-10.0-1.0-1.9","389FB9674BAD4EC890991AA25B11011A","389FB9674BAD4EC890991AA25B11011A","a426f6b4-31c5-495f-9c09-83203b811d9f","9076ac92-be42-43a2-9634-8b67c7fe93a7","{""num_scrambled_semantic"":""8"",""num_scrambled_causal"":""4"",""num_scrambled_schematic"":""4"",""participantId"":""389FB9674BAD4EC890991AA25B11011A"",""assignmentId"":""a426f6b4-31c5-495f-9c09-83203b811d9f"",""projectId"":""9076ac92-be42-43a2-9634-8b67c7fe93a7""}","https://test12345.live/?num_scrambled_semantic=8&num_scrambled_causal=4&num_scrambled_schematic=4&participantId=389FB9674BAD4EC890991AA25B11011A&assignmentId=a426f6b4-31c5-495f-9c09-83203b811d9f&projectId=9076ac92-be42-43a2-9634-8b67c7fe93a7","389FB9674BAD4EC890991AA25B11011A-2025-05-22-19-34-44","","2305","","images/semantic_sequence/market_semantic/market_semantic_6.png","1","",""
"","","","","","image-button-response","54","287525","0.0-10.0-1.0-2.9","389FB9674BAD4EC890991AA25B11011A","389FB9674BAD4EC890991AA25B11011A","a426f6b4-31c5-495f-9c09-83203b811d9f","9076ac92-be42-43a2-9634-8b67c7fe93a7","{""num_scrambled_semantic"":""8"",""num_scrambled_causal"":""4"",""num_scrambled_schematic"":""4"",""participantId"":""389FB9674BAD4EC890991AA25B11011A"",""assignmentId"":""a426f6b4-31c5-495f-9c09-83203b811d9f"",""projectId"":""9076ac92-be42-43a2-9634-8b67c7fe93a7""}","https://test12345.live/?num_scrambled_semantic=8&num_scrambled_causal=4&num_scrambled_schematic=4&participantId=389FB9674BAD4EC890991AA25B11011A&assignmentId=a426f6b4-31c5-495f-9c09-83203b811d9f&projectId=9076ac92-be42-43a2-9634-8b67c7fe93a7","389FB9674BAD4EC890991AA25B11011A-2025-05-22-19-34-44","","null","","[]","null","",""
"","","","","","html-audio-response","55","331229","0.0-11.0","389FB9674BAD4EC890991AA25B11011A","389FB9674BAD4EC890991AA25B11011A","a426f6b4-31c5-495f-9c09-83203b811d9f","9076ac92-be42-43a2-9634-8b67c7fe93a7","{""num_scrambled_semantic"":""8"",""num_scrambled_causal"":""4"",""num_scrambled_schematic"":""4"",""participantId"":""389FB9674BAD4EC890991AA25B11011A"",""assignmentId"":""a426f6b4-31c5-495f-9c09-83203b811d9f"",""projectId"":""9076ac92-be42-43a2-9634-8b67c7fe93a7""}","https://test12345.live/?num_scrambled_semantic=8&num_scrambled_causal=4&num_scrambled_schematic=4&participantId=389FB9674BAD4EC890991AA25B11011A&assignmentId=a426f6b4-31c5-495f-9c09-83203b811d9f&projectId=9076ac92-be42-43a2-9634-8b67c7fe93a7","389FB9674BAD4EC890991AA25B11011A-2025-05-22-19-34-44","","37370","","[""<span style=\""color: red; font-size: 24px\""> NOW RECORDING</span><p>Please say out loud all the images you saw, in the exact order you saw them. Try to recall as many images as you can, but remember: getting the order right is more important than the number of images you recall.</p>""]","","1","market_semantic"
"","","","","","image-button-response","56","337238","0.0-12.0-0.0","389FB9674BAD4EC890991AA25B11011A","389FB9674BAD4EC890991AA25B11011A","a426f6b4-31c5-495f-9c09-83203b811d9f","9076ac92-be42-43a2-9634-8b67c7fe93a7","{""num_scrambled_semantic"":""8"",""num_scrambled_causal"":""4"",""num_scrambled_schematic"":""4"",""participantId"":""389FB9674BAD4EC890991AA25B11011A"",""assignmentId"":""a426f6b4-31c5-495f-9c09-83203b811d9f"",""projectId"":""9076ac92-be42-43a2-9634-8b67c7fe93a7""}","https://test12345.live/?num_scrambled_semantic=8&num_scrambled_causal=4&num_scrambled_schematic=4&participantId=389FB9674BAD4EC890991AA25B11011A&assignmentId=a426f6b4-31c5-495f-9c09-83203b811d9f&projectId=9076ac92-be42-43a2-9634-8b67c7fe93a7","389FB9674BAD4EC890991AA25B11011A-2025-05-22-19-34-44","","null","","images/semantic_sequence/self_care_activities_semantic/self_care_activities_semantic_0.png","null","",""
"","","","","","image-button-response","57","341739","0.0-12.0-1.0-0.0","389FB9674BAD4EC890991AA25B11011A","389FB9674BAD4EC890991AA25B11011A","a426f6b4-31c5-495f-9c09-83203b811d9f","9076ac92-be42-43a2-9634-8b67c7fe93a7","{""num_scrambled_semantic"":""8"",""num_scrambled_causal"":""4"",""num_scrambled_schematic"":""4"",""participantId"":""389FB9674BAD4EC890991AA25B11011A"",""assignmentId"":""a426f6b4-31c5-495f-9c09-83203b811d9f"",""projectId"":""9076ac92-be42-43a2-9634-8b67c7fe93a7""}","https://test12345.live/?num_scrambled_semantic=8&num_scrambled_causal=4&num_scrambled_schematic=4&participantId=389FB9674BAD4EC890991AA25B11011A&assignmentId=a426f6b4-31c5-495f-9c09-83203b811d9f&projectId=9076ac92-be42-43a2-9634-8b67c7fe93a7","389FB9674BAD4EC890991AA25B11011A-2025-05-22-19-34-44","","null","","images/semantic_sequence/self_care_activities_semantic/self_care_activities_semantic_5.png","null","",""
"","","","","","image-button-response","58","345743","0.0-12.0-1.0-1.0","389FB9674BAD4EC890991AA25B11011A","389FB9674BAD4EC890991AA25B11011A","a426f6b4-31c5-495f-9c09-83203b811d9f","9076ac92-be42-43a2-9634-8b67c7fe93a7","{""num_scrambled_semantic"":""8"",""num_scrambled_causal"":""4"",""num_scrambled_schematic"":""4"",""participantId"":""389FB9674BAD4EC890991AA25B11011A"",""assignmentId"":""a426f6b4-31c5-495f-9c09-83203b811d9f"",""projectId"":""9076ac92-be42-43a2-9634-8b67c7fe93a7""}","https://test12345.live/?num_scrambled_semantic=8&num_scrambled_causal=4&num_scrambled_schematic=4&participantId=389FB9674BAD4EC890991AA25B11011A&assignmentId=a426f6b4-31c5-495f-9c09-83203b811d9f&projectId=9076ac92-be42-43a2-9634-8b67c7fe93a7","389FB9674BAD4EC890991AA25B11011A-2025-05-22-19-34-44","","null","","images/semantic_sequence/self_care_activities_semantic/self_care_activities_semantic_5.png","null","",""
"","","","","","image-button-response","59","347549","0.0-12.0-1.0-2.0","389FB9674BAD4EC890991AA25B11011A","389FB9674BAD4EC890991AA25B11011A","a426f6b4-31c5-495f-9c09-83203b811d9f","9076ac92-be42-43a2-9634-8b67c7fe93a7","{""num_scrambled_semantic"":""8"",""num_scrambled_causal"":""4"",""num_scrambled_schematic"":""4"",""participantId"":""389FB9674BAD4EC890991AA25B11011A"",""assignmentId"":""a426f6b4-31c5-495f-9c09-83203b811d9f"",""projectId"":""9076ac92-be42-43a2-9634-8b67c7fe93a7""}","https://test12345.live/?num_scrambled_semantic=8&num_scrambled_causal=4&num_scrambled_schematic=4&participantId=389FB9674BAD4EC890991AA25B11011A&assignmentId=a426f6b4-31c5-495f-9c09-83203b811d9f&projectId=9076ac92-be42-43a2-9634-8b67c7fe93a7","389FB9674BAD4EC890991AA25B11011A-2025-05-22-19-34-44","","null","","[]","null","",""
"","","","","","image-button-response","60","352053","0.0-12.0-1.0-0.1","389FB9674BAD4EC890991AA25B11011A","389FB9674BAD4EC890991AA25B11011A","a426f6b4-31c5-495f-9c09-83203b811d9f","9076ac92-be42-43a2-9634-8b67c7fe93a7","{""num_scrambled_semantic"":""8"",""num_scrambled_causal"":""4"",""num_scrambled_schematic"":""4"",""participantId"":""389FB9674BAD4EC890991AA25B11011A"",""assignmentId"":""a426f6b4-31c5-495f-9c09-83203b811d9f"",""projectId"":""9076ac92-be42-43a2-9634-8b67c7fe93a7""}","https://test12345.live/?num_scrambled_semantic=8&num_scrambled_causal=4&num_scrambled_schematic=4&participantId=389FB9674BAD4EC890991AA25B11011A&assignmentId=a426f6b4-31c5-495f-9c09-83203b811d9f&projectId=9076ac92-be42-43a2-9634-8b67c7fe93a7","389FB9674BAD4EC890991AA25B11011A-2025-05-22-19-34-44","","null","","images/semantic_sequence/self_care_activities_semantic/self_care_activities_semantic_7.png","null","",""
"","","","","","image-button-response","61","355002","0.0-12.0-1.0-1.1","389FB9674BAD4EC890991AA25B11011A","389FB9674BAD4EC890991AA25B11011A","a426f6b4-31c5-495f-9c09-83203b811d9f","9076ac92-be42-43a2-9634-8b67c7fe93a7","{""num_scrambled_semantic"":""8"",""num_scrambled_causal"":""4"",""num_scrambled_schematic"":""4"",""participantId"":""389FB9674BAD4EC890991AA25B11011A"",""assignmentId"":""a426f6b4-31c5-495f-9c09-83203b811d9f"",""projectId"":""9076ac92-be42-43a2-9634-8b67c7fe93a7""}","https://test12345.live/?num_scrambled_semantic=8&num_scrambled_causal=4&num_scrambled_schematic=4&participantId=389FB9674BAD4EC890991AA25B11011A&assignmentId=a426f6b4-31c5-495f-9c09-83203b811d9f&projectId=9076ac92-be42-43a2-9634-8b67c7fe93a7","389FB9674BAD4EC890991AA25B11011A-2025-05-22-19-34-44","","2948","","images/semantic_sequence/self_care_activities_semantic/self_care_activities_semantic_7.png","0","",""
"","","","","","image-button-response","62","356805","0.0-12.0-1.0-2.1","389FB9674BAD4EC890991AA25B11011A","389FB9674BAD4EC890991AA25B11011A","a426f6b4-31c5-495f-9c09-83203b811d9f","9076ac92-be42-43a2-9634-8b67c7fe93a7","{""num_scrambled_semantic"":""8"",""num_scrambled_causal"":""4"",""num_scrambled_schematic"":""4"",""participantId"":""389FB9674BAD4EC890991AA25B11011A"",""assignmentId"":""a426f6b4-31c5-495f-9c09-83203b811d9f"",""projectId"":""9076ac92-be42-43a2-9634-8b67c7fe93a7""}","https://test12345.live/?num_scrambled_semantic=8&num_scrambled_causal=4&num_scrambled_schematic=4&participantId=389FB9674BAD4EC890991AA25B11011A&assignmentId=a426f6b4-31c5-495f-9c09-83203b811d9f&projectId=9076ac92-be42-43a2-9634-8b67c7fe93a7","389FB9674BAD4EC890991AA25B11011A-2025-05-22-19-34-44","","null","","[]","null","",""
"","","","","","image-button-response","63","361311","0.0-12.0-1.0-0.2","389FB9674BAD4EC890991AA25B11011A","389FB9674BAD4EC890991AA25B11011A","a426f6b4-31c5-495f-9c09-83203b811d9f","9076ac92-be42-43a2-9634-8b67c7fe93a7","{""num_scrambled_semantic"":""8"",""num_scrambled_causal"":""4"",""num_scrambled_schematic"":""4"",""participantId"":""389FB9674BAD4EC890991AA25B11011A"",""assignmentId"":""a426f6b4-31c5-495f-9c09-83203b811d9f"",""projectId"":""9076ac92-be42-43a2-9634-8b67c7fe93a7""}","https://test12345.live/?num_scrambled_semantic=8&num_scrambled_causal=4&num_scrambled_schematic=4&participantId=389FB9674BAD4EC890991AA25B11011A&assignmentId=a426f6b4-31c5-495f-9c09-83203b811d9f&projectId=9076ac92-be42-43a2-9634-8b67c7fe93a7","389FB9674BAD4EC890991AA25B11011A-2025-05-22-19-34-44","","null","","images/semantic_sequence/self_care_activities_semantic/self_care_activities_semantic_3.png","null","",""
"","","","","","image-button-response","64","362359","0.0-12.0-1.0-1.2","389FB9674BAD4EC890991AA25B11011A","389FB9674BAD4EC890991AA25B11011A","a426f6b4-31c5-495f-9c09-83203b811d9f","9076ac92-be42-43a2-9634-8b67c7fe93a7","{""num_scrambled_semantic"":""8"",""num_scrambled_causal"":""4"",""num_scrambled_schematic"":""4"",""participantId"":""389FB9674BAD4EC890991AA25B11011A"",""assignmentId"":""a426f6b4-31c5-495f-9c09-83203b811d9f"",""projectId"":""9076ac92-be42-43a2-9634-8b67c7fe93a7""}","https://test12345.live/?num_scrambled_semantic=8&num_scrambled_causal=4&num_scrambled_schematic=4&participantId=389FB9674BAD4EC890991AA25B11011A&assignmentId=a426f6b4-31c5-495f-9c09-83203b811d9f&projectId=9076ac92-be42-43a2-9634-8b67c7fe93a7","389FB9674BAD4EC890991AA25B11011A-2025-05-22-19-34-44","","1047","","images/semantic_sequence/self_care_activities_semantic/self_care_activities_semantic_3.png","0","",""
"","","","","","image-button-response","65","364164","0.0-12.0-1.0-2.2","389FB9674BAD4EC890991AA25B11011A","389FB9674BAD4EC890991AA25B11011A","a426f6b4-31c5-495f-9c09-83203b811d9f","9076ac92-be42-43a2-9634-8b67c7fe93a7","{""num_scrambled_semantic"":""8"",""num_scrambled_causal"":""4"",""num_scrambled_schematic"":""4"",""participantId"":""389FB9674BAD4EC890991AA25B11011A"",""assignmentId"":""a426f6b4-31c5-495f-9c09-83203b811d9f"",""projectId"":""9076ac92-be42-43a2-9634-8b67c7fe93a7""}","https://test12345.live/?num_scrambled_semantic=8&num_scrambled_causal=4&num_scrambled_schematic=4&participantId=389FB9674BAD4EC890991AA25B11011A&assignmentId=a426f6b4-31c5-495f-9c09-83203b811d9f&projectId=9076ac92-be42-43a2-9634-8b67c7fe93a7","389FB9674BAD4EC890991AA25B11011A-2025-05-22-19-34-44","","null","","[]","null","",""
"","","","","","image-button-response","66","368668","0.0-12.0-1.0-0.3","389FB9674BAD4EC890991AA25B11011A","389FB9674BAD4EC890991AA25B11011A","a426f6b4-31c5-495f-9c09-83203b811d9f","9076ac92-be42-43a2-9634-8b67c7fe93a7","{""num_scrambled_semantic"":""8"",""num_scrambled_causal"":""4"",""num_scrambled_schematic"":""4"",""participantId"":""389FB9674BAD4EC890991AA25B11011A"",""assignmentId"":""a426f6b4-31c5-495f-9c09-83203b811d9f"",""projectId"":""9076ac92-be42-43a2-9634-8b67c7fe93a7""}","https://test12345.live/?num_scrambled_semantic=8&num_scrambled_causal=4&num_scrambled_schematic=4&participantId=389FB9674BAD4EC890991AA25B11011A&assignmentId=a426f6b4-31c5-495f-9c09-83203b811d9f&projectId=9076ac92-be42-43a2-9634-8b67c7fe93a7","389FB9674BAD4EC890991AA25B11011A-2025-05-22-19-34-44","","null","","images/semantic_sequence/self_care_activities_semantic/self_care_activities_semantic_6.png","null","",""
"","","","","","image-button-response","67","371349","0.0-12.0-1.0-1.3","389FB9674BAD4EC890991AA25B11011A","389FB9674BAD4EC890991AA25B11011A","a426f6b4-31c5-495f-9c09-83203b811d9f","9076ac92-be42-43a2-9634-8b67c7fe93a7","{""num_scrambled_semantic"":""8"",""num_scrambled_causal"":""4"",""num_scrambled_schematic"":""4"",""participantId"":""389FB9674BAD4EC890991AA25B11011A"",""assignmentId"":""a426f6b4-31c5-495f-9c09-83203b811d9f"",""projectId"":""9076ac92-be42-43a2-9634-8b67c7fe93a7""}","https://test12345.live/?num_scrambled_semantic=8&num_scrambled_causal=4&num_scrambled_schematic=4&participantId=389FB9674BAD4EC890991AA25B11011A&assignmentId=a426f6b4-31c5-495f-9c09-83203b811d9f&projectId=9076ac92-be42-43a2-9634-8b67c7fe93a7","389FB9674BAD4EC890991AA25B11011A-2025-05-22-19-34-44","","2680","","images/semantic_sequence/self_care_activities_semantic/self_care_activities_semantic_6.png","1","",""
"","","","","","image-button-response","68","373154","0.0-12.0-1.0-2.3","389FB9674BAD4EC890991AA25B11011A","389FB9674BAD4EC890991AA25B11011A","a426f6b4-31c5-495f-9c09-83203b811d9f","9076ac92-be42-43a2-9634-8b67c7fe93a7","{""num_scrambled_semantic"":""8"",""num_scrambled_causal"":""4"",""num_scrambled_schematic"":""4"",""participantId"":""389FB9674BAD4EC890991AA25B11011A"",""assignmentId"":""a426f6b4-31c5-495f-9c09-83203b811d9f"",""projectId"":""9076ac92-be42-43a2-9634-8b67c7fe93a7""}","https://test12345.live/?num_scrambled_semantic=8&num_scrambled_causal=4&num_scrambled_schematic=4&participantId=389FB9674BAD4EC890991AA25B11011A&assignmentId=a426f6b4-31c5-495f-9c09-83203b811d9f&projectId=9076ac92-be42-43a2-9634-8b67c7fe93a7","389FB9674BAD4EC890991AA25B11011A-2025-05-22-19-34-44","","null","","[]","null","",""
"","","","","","image-button-response","69","377660","0.0-12.0-1.0-0.4","389FB9674BAD4EC890991AA25B11011A","389FB9674BAD4EC890991AA25B11011A","a426f6b4-31c5-495f-9c09-83203b811d9f","9076ac92-be42-43a2-9634-8b67c7fe93a7","{""num_scrambled_semantic"":""8"",""num_scrambled_causal"":""4"",""num_scrambled_schematic"":""4"",""participantId"":""389FB9674BAD4EC890991AA25B11011A"",""assignmentId"":""a426f6b4-31c5-495f-9c09-83203b811d9f"",""projectId"":""9076ac92-be42-43a2-9634-8b67c7fe93a7""}","https://test12345.live/?num_scrambled_semantic=8&num_scrambled_causal=4&num_scrambled_schematic=4&participantId=389FB9674BAD4EC890991AA25B11011A&assignmentId=a426f6b4-31c5-495f-9c09-83203b811d9f&projectId=9076ac92-be42-43a2-9634-8b67c7fe93a7","389FB9674BAD4EC890991AA25B11011A-2025-05-22-19-34-44","","null","","images/semantic_sequence/self_care_activities_semantic/self_care_activities_semantic_4.png","null","",""
"","","","","","image-button-response","70","381159","0.0-12.0-1.0-1.4","389FB9674BAD4EC890991AA25B11011A","389FB9674BAD4EC890991AA25B11011A","a426f6b4-31c5-495f-9c09-83203b811d9f","9076ac92-be42-43a2-9634-8b67c7fe93a7","{""num_scrambled_semantic"":""8"",""num_scrambled_causal"":""4"",""num_scrambled_schematic"":""4"",""participantId"":""389FB9674BAD4EC890991AA25B11011A"",""assignmentId"":""a426f6b4-31c5-495f-9c09-83203b811d9f"",""projectId"":""9076ac92-be42-43a2-9634-8b67c7fe93a7""}","https://test12345.live/?num_scrambled_semantic=8&num_scrambled_causal=4&num_scrambled_schematic=4&participantId=389FB9674BAD4EC890991AA25B11011A&assignmentId=a426f6b4-31c5-495f-9c09-83203b811d9f&projectId=9076ac92-be42-43a2-9634-8b67c7fe93a7","389FB9674BAD4EC890991AA25B11011A-2025-05-22-19-34-44","","3499","","images/semantic_sequence/self_care_activities_semantic/self_care_activities_semantic_4.png","0","",""
"","","","","","image-button-response","71","382960","0.0-12.0-1.0-2.4","389FB9674BAD4EC890991AA25B11011A","389FB9674BAD4EC890991AA25B11011A","a426f6b4-31c5-495f-9c09-83203b811d9f","9076ac92-be42-43a2-9634-8b67c7fe93a7","{""num_scrambled_semantic"":""8"",""num_scrambled_causal"":""4"",""num_scrambled_schematic"":""4"",""participantId"":""389FB9674BAD4EC890991AA25B11011A"",""assignmentId"":""a426f6b4-31c5-495f-9c09-83203b811d9f"",""projectId"":""9076ac92-be42-43a2-9634-8b67c7fe93a7""}","https://test12345.live/?num_scrambled_semantic=8&num_scrambled_causal=4&num_scrambled_schematic=4&participantId=389FB9674BAD4EC890991AA25B11011A&assignmentId=a426f6b4-31c5-495f-9c09-83203b811d9f&projectId=9076ac92-be42-43a2-9634-8b67c7fe93a7","389FB9674BAD4EC890991AA25B11011A-2025-05-22-19-34-44","","null","","[]","null","",""
"","","","","","image-button-response","72","387464","0.0-12.0-1.0-0.5","389FB9674BAD4EC890991AA25B11011A","389FB9674BAD4EC890991AA25B11011A","a426f6b4-31c5-495f-9c09-83203b811d9f","9076ac92-be42-43a2-9634-8b67c7fe93a7","{""num_scrambled_semantic"":""8"",""num_scrambled_causal"":""4"",""num_scrambled_schematic"":""4"",""participantId"":""389FB9674BAD4EC890991AA25B11011A"",""assignmentId"":""a426f6b4-31c5-495f-9c09-83203b811d9f"",""projectId"":""9076ac92-be42-43a2-9634-8b67c7fe93a7""}","https://test12345.live/?num_scrambled_semantic=8&num_scrambled_causal=4&num_scrambled_schematic=4&participantId=389FB9674BAD4EC890991AA25B11011A&assignmentId=a426f6b4-31c5-495f-9c09-83203b811d9f&projectId=9076ac92-be42-43a2-9634-8b67c7fe93a7","389FB9674BAD4EC890991AA25B11011A-2025-05-22-19-34-44","","null","","images/semantic_sequence/self_care_activities_semantic/self_care_activities_semantic_8.png","null","",""
"","","","","","image-button-response","73","389101","0.0-12.0-1.0-1.5","389FB9674BAD4EC890991AA25B11011A","389FB9674BAD4EC890991AA25B11011A","a426f6b4-31c5-495f-9c09-83203b811d9f","9076ac92-be42-43a2-9634-8b67c7fe93a7","{""num_scrambled_semantic"":""8"",""num_scrambled_causal"":""4"",""num_scrambled_schematic"":""4"",""participantId"":""389FB9674BAD4EC890991AA25B11011A"",""assignmentId"":""a426f6b4-31c5-495f-9c09-83203b811d9f"",""projectId"":""9076ac92-be42-43a2-9634-8b67c7fe93a7""}","https://test12345.live/?num_scrambled_semantic=8&num_scrambled_causal=4&num_scrambled_schematic=4&participantId=389FB9674BAD4EC890991AA25B11011A&assignmentId=a426f6b4-31c5-495f-9c09-83203b811d9f&projectId=9076ac92-be42-43a2-9634-8b67c7fe93a7","389FB9674BAD4EC890991AA25B11011A-2025-05-22-19-34-44","","1637","","images/semantic_sequence/self_care_activities_semantic/self_care_activities_semantic_8.png","0","",""
"","","","","","image-button-response","74","390903","0.0-12.0-1.0-2.5","389FB9674BAD4EC890991AA25B11011A","389FB9674BAD4EC890991AA25B11011A","a426f6b4-31c5-495f-9c09-83203b811d9f","9076ac92-be42-43a2-9634-8b67c7fe93a7","{""num_scrambled_semantic"":""8"",""num_scrambled_causal"":""4"",""num_scrambled_schematic"":""4"",""participantId"":""389FB9674BAD4EC890991AA25B11011A"",""assignmentId"":""a426f6b4-31c5-495f-9c09-83203b811d9f"",""projectId"":""9076ac92-be42-43a2-9634-8b67c7fe93a7""}","https://test12345.live/?num_scrambled_semantic=8&num_scrambled_causal=4&num_scrambled_schematic=4&participantId=389FB9674BAD4EC890991AA25B11011A&assignmentId=a426f6b4-31c5-495f-9c09-83203b811d9f&projectId=9076ac92-be42-43a2-9634-8b67c7fe93a7","389FB9674BAD4EC890991AA25B11011A-2025-05-22-19-34-44","","null","","[]","null","",""
"","","","","","image-button-response","75","395405","0.0-12.0-1.0-0.6","389FB9674BAD4EC890991AA25B11011A","389FB9674BAD4EC890991AA25B11011A","a426f6b4-31c5-495f-9c09-83203b811d9f","9076ac92-be42-43a2-9634-8b67c7fe93a7","{""num_scrambled_semantic"":""8"",""num_scrambled_causal"":""4"",""num_scrambled_schematic"":""4"",""participantId"":""389FB9674BAD4EC890991AA25B11011A"",""assignmentId"":""a426f6b4-31c5-495f-9c09-83203b811d9f"",""projectId"":""9076ac92-be42-43a2-9634-8b67c7fe93a7""}","https://test12345.live/?num_scrambled_semantic=8&num_scrambled_causal=4&num_scrambled_schematic=4&participantId=389FB9674BAD4EC890991AA25B11011A&assignmentId=a426f6b4-31c5-495f-9c09-83203b811d9f&projectId=9076ac92-be42-43a2-9634-8b67c7fe93a7","389FB9674BAD4EC890991AA25B11011A-2025-05-22-19-34-44","","null","","images/semantic_sequence/self_care_activities_semantic/self_care_activities_semantic_ten.png","null","",""
"","","","","","image-button-response","76","398698","0.0-12.0-1.0-1.6","389FB9674BAD4EC890991AA25B11011A","389FB9674BAD4EC890991AA25B11011A","a426f6b4-31c5-495f-9c09-83203b811d9f","9076ac92-be42-43a2-9634-8b67c7fe93a7","{""num_scrambled_semantic"":""8"",""num_scrambled_causal"":""4"",""num_scrambled_schematic"":""4"",""participantId"":""389FB9674BAD4EC890991AA25B11011A"",""assignmentId"":""a426f6b4-31c5-495f-9c09-83203b811d9f"",""projectId"":""9076ac92-be42-43a2-9634-8b67c7fe93a7""}","https://test12345.live/?num_scrambled_semantic=8&num_scrambled_causal=4&num_scrambled_schematic=4&participantId=389FB9674BAD4EC890991AA25B11011A&assignmentId=a426f6b4-31c5-495f-9c09-83203b811d9f&projectId=9076ac92-be42-43a2-9634-8b67c7fe93a7","389FB9674BAD4EC890991AA25B11011A-2025-05-22-19-34-44","","3292","","images/semantic_sequence/self_care_activities_semantic/self_care_activities_semantic_ten.png","0","",""
"","","","","","image-button-response","77","400503","0.0-12.0-1.0-2.6","389FB9674BAD4EC890991AA25B11011A","389FB9674BAD4EC890991AA25B11011A","a426f6b4-31c5-495f-9c09-83203b811d9f","9076ac92-be42-43a2-9634-8b67c7fe93a7","{""num_scrambled_semantic"":""8"",""num_scrambled_causal"":""4"",""num_scrambled_schematic"":""4"",""participantId"":""389FB9674BAD4EC890991AA25B11011A"",""assignmentId"":""a426f6b4-31c5-495f-9c09-83203b811d9f"",""projectId"":""9076ac92-be42-43a2-9634-8b67c7fe93a7""}","https://test12345.live/?num_scrambled_semantic=8&num_scrambled_causal=4&num_scrambled_schematic=4&participantId=389FB9674BAD4EC890991AA25B11011A&assignmentId=a426f6b4-31c5-495f-9c09-83203b811d9f&projectId=9076ac92-be42-43a2-9634-8b67c7fe93a7","389FB9674BAD4EC890991AA25B11011A-2025-05-22-19-34-44","","null","","[]","null","",""
"","","","","","image-button-response","78","405005","0.0-12.0-1.0-0.7","389FB9674BAD4EC890991AA25B11011A","389FB9674BAD4EC890991AA25B11011A","a426f6b4-31c5-495f-9c09-83203b811d9f","9076ac92-be42-43a2-9634-8b67c7fe93a7","{""num_scrambled_semantic"":""8"",""num_scrambled_causal"":""4"",""num_scrambled_schematic"":""4"",""participantId"":""389FB9674BAD4EC890991AA25B11011A"",""assignmentId"":""a426f6b4-31c5-495f-9c09-83203b811d9f"",""projectId"":""9076ac92-be42-43a2-9634-8b67c7fe93a7""}","https://test12345.live/?num_scrambled_semantic=8&num_scrambled_causal=4&num_scrambled_schematic=4&participantId=389FB9674BAD4EC890991AA25B11011A&assignmentId=a426f6b4-31c5-495f-9c09-83203b811d9f&projectId=9076ac92-be42-43a2-9634-8b67c7fe93a7","389FB9674BAD4EC890991AA25B11011A-2025-05-22-19-34-44","","null","","images/semantic_sequence/self_care_activities_semantic/self_care_activities_semantic_9.png","null","",""
"","","","","","image-button-response","79","406269","0.0-12.0-1.0-1.7","389FB9674BAD4EC890991AA25B11011A","389FB9674BAD4EC890991AA25B11011A","a426f6b4-31c5-495f-9c09-83203b811d9f","9076ac92-be42-43a2-9634-8b67c7fe93a7","{""num_scrambled_semantic"":""8"",""num_scrambled_causal"":""4"",""num_scrambled_schematic"":""4"",""participantId"":""389FB9674BAD4EC890991AA25B11011A"",""assignmentId"":""a426f6b4-31c5-495f-9c09-83203b811d9f"",""projectId"":""9076ac92-be42-43a2-9634-8b67c7fe93a7""}","https://test12345.live/?num_scrambled_semantic=8&num_scrambled_causal=4&num_scrambled_schematic=4&participantId=389FB9674BAD4EC890991AA25B11011A&assignmentId=a426f6b4-31c5-495f-9c09-83203b811d9f&projectId=9076ac92-be42-43a2-9634-8b67c7fe93a7","389FB9674BAD4EC890991AA25B11011A-2025-05-22-19-34-44","","1263","","images/semantic_sequence/self_care_activities_semantic/self_care_activities_semantic_9.png","0","",""
"","","","","","image-button-response","80","408073","0.0-12.0-1.0-2.7","389FB9674BAD4EC890991AA25B11011A","389FB9674BAD4EC890991AA25B11011A","a426f6b4-31c5-495f-9c09-83203b811d9f","9076ac92-be42-43a2-9634-8b67c7fe93a7","{""num_scrambled_semantic"":""8"",""num_scrambled_causal"":""4"",""num_scrambled_schematic"":""4"",""participantId"":""389FB9674BAD4EC890991AA25B11011A"",""assignmentId"":""a426f6b4-31c5-495f-9c09-83203b811d9f"",""projectId"":""9076ac92-be42-43a2-9634-8b67c7fe93a7""}","https://test12345.live/?num_scrambled_semantic=8&num_scrambled_causal=4&num_scrambled_schematic=4&participantId=389FB9674BAD4EC890991AA25B11011A&assignmentId=a426f6b4-31c5-495f-9c09-83203b811d9f&projectId=9076ac92-be42-43a2-9634-8b67c7fe93a7","389FB9674BAD4EC890991AA25B11011A-2025-05-22-19-34-44","","null","","[]","null","",""
"","","","","","image-button-response","81","412575","0.0-12.0-1.0-0.8","389FB9674BAD4EC890991AA25B11011A","389FB9674BAD4EC890991AA25B11011A","a426f6b4-31c5-495f-9c09-83203b811d9f","9076ac92-be42-43a2-9634-8b67c7fe93a7","{""num_scrambled_semantic"":""8"",""num_scrambled_causal"":""4"",""num_scrambled_schematic"":""4"",""participantId"":""389FB9674BAD4EC890991AA25B11011A"",""assignmentId"":""a426f6b4-31c5-495f-9c09-83203b811d9f"",""projectId"":""9076ac92-be42-43a2-9634-8b67c7fe93a7""}","https://test12345.live/?num_scrambled_semantic=8&num_scrambled_causal=4&num_scrambled_schematic=4&participantId=389FB9674BAD4EC890991AA25B11011A&assignmentId=a426f6b4-31c5-495f-9c09-83203b811d9f&projectId=9076ac92-be42-43a2-9634-8b67c7fe93a7","389FB9674BAD4EC890991AA25B11011A-2025-05-22-19-34-44","","null","","images/semantic_sequence/self_care_activities_semantic/self_care_activities_semantic_2.png","null","",""
"","","","","","image-button-response","82","415798","0.0-12.0-1.0-1.8","389FB9674BAD4EC890991AA25B11011A","389FB9674BAD4EC890991AA25B11011A","a426f6b4-31c5-495f-9c09-83203b811d9f","9076ac92-be42-43a2-9634-8b67c7fe93a7","{""num_scrambled_semantic"":""8"",""num_scrambled_causal"":""4"",""num_scrambled_schematic"":""4"",""participantId"":""389FB9674BAD4EC890991AA25B11011A"",""assignmentId"":""a426f6b4-31c5-495f-9c09-83203b811d9f"",""projectId"":""9076ac92-be42-43a2-9634-8b67c7fe93a7""}","https://test12345.live/?num_scrambled_semantic=8&num_scrambled_causal=4&num_scrambled_schematic=4&participantId=389FB9674BAD4EC890991AA25B11011A&assignmentId=a426f6b4-31c5-495f-9c09-83203b811d9f&projectId=9076ac92-be42-43a2-9634-8b67c7fe93a7","389FB9674BAD4EC890991AA25B11011A-2025-05-22-19-34-44","","3222","","images/semantic_sequence/self_care_activities_semantic/self_care_activities_semantic_2.png","0","",""
"","","","","","image-button-response","83","417603","0.0-12.0-1.0-2.8","389FB9674BAD4EC890991AA25B11011A","389FB9674BAD4EC890991AA25B11011A","a426f6b4-31c5-495f-9c09-83203b811d9f","9076ac92-be42-43a2-9634-8b67c7fe93a7","{""num_scrambled_semantic"":""8"",""num_scrambled_causal"":""4"",""num_scrambled_schematic"":""4"",""participantId"":""389FB9674BAD4EC890991AA25B11011A"",""assignmentId"":""a426f6b4-31c5-495f-9c09-83203b811d9f"",""projectId"":""9076ac92-be42-43a2-9634-8b67c7fe93a7""}","https://test12345.live/?num_scrambled_semantic=8&num_scrambled_causal=4&num_scrambled_schematic=4&participantId=389FB9674BAD4EC890991AA25B11011A&assignmentId=a426f6b4-31c5-495f-9c09-83203b811d9f&projectId=9076ac92-be42-43a2-9634-8b67c7fe93a7","389FB9674BAD4EC890991AA25B11011A-2025-05-22-19-34-44","","null","","[]","null","",""
"","","","","","image-button-response","84","422105","0.0-12.0-1.0-0.9","389FB9674BAD4EC890991AA25B11011A","389FB9674BAD4EC890991AA25B11011A","a426f6b4-31c5-495f-9c09-83203b811d9f","9076ac92-be42-43a2-9634-8b67c7fe93a7","{""num_scrambled_semantic"":""8"",""num_scrambled_causal"":""4"",""num_scrambled_schematic"":""4"",""participantId"":""389FB9674BAD4EC890991AA25B11011A"",""assignmentId"":""a426f6b4-31c5-495f-9c09-83203b811d9f"",""projectId"":""9076ac92-be42-43a2-9634-8b67c7fe93a7""}","https://test12345.live/?num_scrambled_semantic=8&num_scrambled_causal=4&num_scrambled_schematic=4&participantId=389FB9674BAD4EC890991AA25B11011A&assignmentId=a426f6b4-31c5-495f-9c09-83203b811d9f&projectId=9076ac92-be42-43a2-9634-8b67c7fe93a7","389FB9674BAD4EC890991AA25B11011A-2025-05-22-19-34-44","","null","","images/semantic_sequence/self_care_activities_semantic/self_care_activities_semantic_1.png","null","",""
"","","","","","image-button-response","85","424878","0.0-12.0-1.0-1.9","389FB9674BAD4EC890991AA25B11011A","389FB9674BAD4EC890991AA25B11011A","a426f6b4-31c5-495f-9c09-83203b811d9f","9076ac92-be42-43a2-9634-8b67c7fe93a7","{""num_scrambled_semantic"":""8"",""num_scrambled_causal"":""4"",""num_scrambled_schematic"":""4"",""participantId"":""389FB9674BAD4EC890991AA25B11011A"",""assignmentId"":""a426f6b4-31c5-495f-9c09-83203b811d9f"",""projectId"":""9076ac92-be42-43a2-9634-8b67c7fe93a7""}","https://test12345.live/?num_scrambled_semantic=8&num_scrambled_causal=4&num_scrambled_schematic=4&participantId=389FB9674BAD4EC890991AA25B11011A&assignmentId=a426f6b4-31c5-495f-9c09-83203b811d9f&projectId=9076ac92-be42-43a2-9634-8b67c7fe93a7","389FB9674BAD4EC890991AA25B11011A-2025-05-22-19-34-44","","2772","","images/semantic_sequence/self_care_activities_semantic/self_care_activities_semantic_1.png","0","",""
"","","","","","image-button-response","86","426680","0.0-12.0-1.0-2.9","389FB9674BAD4EC890991AA25B11011A","389FB9674BAD4EC890991AA25B11011A","a426f6b4-31c5-495f-9c09-83203b811d9f","9076ac92-be42-43a2-9634-8b67c7fe93a7","{""num_scrambled_semantic"":""8"",""num_scrambled_causal"":""4"",""num_scrambled_schematic"":""4"",""participantId"":""389FB9674BAD4EC890991AA25B11011A"",""assignmentId"":""a426f6b4-31c5-495f-9c09-83203b811d9f"",""projectId"":""9076ac92-be42-43a2-9634-8b67c7fe93a7""}","https://test12345.live/?num_scrambled_semantic=8&num_scrambled_causal=4&num_scrambled_schematic=4&participantId=389FB9674BAD4EC890991AA25B11011A&assignmentId=a426f6b4-31c5-495f-9c09-83203b811d9f&projectId=9076ac92-be42-43a2-9634-8b67c7fe93a7","389FB9674BAD4EC890991AA25B11011A-2025-05-22-19-34-44","","null","","[]","null","",""
"","","","","","html-audio-response","87","471542","0.0-13.0","389FB9674BAD4EC890991AA25B11011A","389FB9674BAD4EC890991AA25B11011A","a426f6b4-31c5-495f-9c09-83203b811d9f","9076ac92-be42-43a2-9634-8b67c7fe93a7","{""num_scrambled_semantic"":""8"",""num_scrambled_causal"":""4"",""num_scrambled_schematic"":""4"",""participantId"":""389FB9674BAD4EC890991AA25B11011A"",""assignmentId"":""a426f6b4-31c5-495f-9c09-83203b811d9f"",""projectId"":""9076ac92-be42-43a2-9634-8b67c7fe93a7""}","https://test12345.live/?num_scrambled_semantic=8&num_scrambled_causal=4&num_scrambled_schematic=4&participantId=389FB9674BAD4EC890991AA25B11011A&assignmentId=a426f6b4-31c5-495f-9c09-83203b811d9f&projectId=9076ac92-be42-43a2-9634-8b67c7fe93a7","389FB9674BAD4EC890991AA25B11011A-2025-05-22-19-34-44","","41840","","[""<span style=\""color: red; font-size: 24px\""> NOW RECORDING</span><p>Please say out loud all the images you saw, in the exact order you saw them. Try to recall as many images as you can, but remember: getting the order right is more important than the number of images you recall.</p>""]","","1","self_care_activities_semantic"
"","","","","","image-button-response","88","477551","0.0-14.0-0.0","389FB9674BAD4EC890991AA25B11011A","389FB9674BAD4EC890991AA25B11011A","a426f6b4-31c5-495f-9c09-83203b811d9f","9076ac92-be42-43a2-9634-8b67c7fe93a7","{""num_scrambled_semantic"":""8"",""num_scrambled_causal"":""4"",""num_scrambled_schematic"":""4"",""participantId"":""389FB9674BAD4EC890991AA25B11011A"",""assignmentId"":""a426f6b4-31c5-495f-9c09-83203b811d9f"",""projectId"":""9076ac92-be42-43a2-9634-8b67c7fe93a7""}","https://test12345.live/?num_scrambled_semantic=8&num_scrambled_causal=4&num_scrambled_schematic=4&participantId=389FB9674BAD4EC890991AA25B11011A&assignmentId=a426f6b4-31c5-495f-9c09-83203b811d9f&projectId=9076ac92-be42-43a2-9634-8b67c7fe93a7","389FB9674BAD4EC890991AA25B11011A-2025-05-22-19-34-44","","null","","images/semantic_sequence/physical_activity_semantic/physical_activity_semantic_0.png","null","",""
"","","","","","image-button-response","89","482057","0.0-14.0-1.0-0.0","389FB9674BAD4EC890991AA25B11011A","389FB9674BAD4EC890991AA25B11011A","a426f6b4-31c5-495f-9c09-83203b811d9f","9076ac92-be42-43a2-9634-8b67c7fe93a7","{""num_scrambled_semantic"":""8"",""num_scrambled_causal"":""4"",""num_scrambled_schematic"":""4"",""participantId"":""389FB9674BAD4EC890991AA25B11011A"",""assignmentId"":""a426f6b4-31c5-495f-9c09-83203b811d9f"",""projectId"":""9076ac92-be42-43a2-9634-8b67c7fe93a7""}","https://test12345.live/?num_scrambled_semantic=8&num_scrambled_causal=4&num_scrambled_schematic=4&participantId=389FB9674BAD4EC890991AA25B11011A&assignmentId=a426f6b4-31c5-495f-9c09-83203b811d9f&projectId=9076ac92-be42-43a2-9634-8b67c7fe93a7","389FB9674BAD4EC890991AA25B11011A-2025-05-22-19-34-44","","null","","images/semantic_sequence/physical_activity_semantic/physical_activity_semantic_1.png","null","",""
"","","","","","image-button-response","90","483850","0.0-14.0-1.0-1.0","389FB9674BAD4EC890991AA25B11011A","389FB9674BAD4EC890991AA25B11011A","a426f6b4-31c5-495f-9c09-83203b811d9f","9076ac92-be42-43a2-9634-8b67c7fe93a7","{""num_scrambled_semantic"":""8"",""num_scrambled_causal"":""4"",""num_scrambled_schematic"":""4"",""participantId"":""389FB9674BAD4EC890991AA25B11011A"",""assignmentId"":""a426f6b4-31c5-495f-9c09-83203b811d9f"",""projectId"":""9076ac92-be42-43a2-9634-8b67c7fe93a7""}","https://test12345.live/?num_scrambled_semantic=8&num_scrambled_causal=4&num_scrambled_schematic=4&participantId=389FB9674BAD4EC890991AA25B11011A&assignmentId=a426f6b4-31c5-495f-9c09-83203b811d9f&projectId=9076ac92-be42-43a2-9634-8b67c7fe93a7","389FB9674BAD4EC890991AA25B11011A-2025-05-22-19-34-44","","1792","","images/semantic_sequence/physical_activity_semantic/physical_activity_semantic_1.png","0","",""
"","","","","","image-button-response","91","485653","0.0-14.0-1.0-2.0","389FB9674BAD4EC890991AA25B11011A","389FB9674BAD4EC890991AA25B11011A","a426f6b4-31c5-495f-9c09-83203b811d9f","9076ac92-be42-43a2-9634-8b67c7fe93a7","{""num_scrambled_semantic"":""8"",""num_scrambled_causal"":""4"",""num_scrambled_schematic"":""4"",""participantId"":""389FB9674BAD4EC890991AA25B11011A"",""assignmentId"":""a426f6b4-31c5-495f-9c09-83203b811d9f"",""projectId"":""9076ac92-be42-43a2-9634-8b67c7fe93a7""}","https://test12345.live/?num_scrambled_semantic=8&num_scrambled_causal=4&num_scrambled_schematic=4&participantId=389FB9674BAD4EC890991AA25B11011A&assignmentId=a426f6b4-31c5-495f-9c09-83203b811d9f&projectId=9076ac92-be42-43a2-9634-8b67c7fe93a7","389FB9674BAD4EC890991AA25B11011A-2025-05-22-19-34-44","","null","","[]","null","",""
"","","","","","image-button-response","92","490154","0.0-14.0-1.0-0.1","389FB9674BAD4EC890991AA25B11011A","389FB9674BAD4EC890991AA25B11011A","a426f6b4-31c5-495f-9c09-83203b811d9f","9076ac92-be42-43a2-9634-8b67c7fe93a7","{""num_scrambled_semantic"":""8"",""num_scrambled_causal"":""4"",""num_scrambled_schematic"":""4"",""participantId"":""389FB9674BAD4EC890991AA25B11011A"",""assignmentId"":""a426f6b4-31c5-495f-9c09-83203b811d9f"",""projectId"":""9076ac92-be42-43a2-9634-8b67c7fe93a7""}","https://test12345.live/?num_scrambled_semantic=8&num_scrambled_causal=4&num_scrambled_schematic=4&participantId=389FB9674BAD4EC890991AA25B11011A&assignmentId=a426f6b4-31c5-495f-9c09-83203b811d9f&projectId=9076ac92-be42-43a2-9634-8b67c7fe93a7","389FB9674BAD4EC890991AA25B11011A-2025-05-22-19-34-44","","null","","images/semantic_sequence/physical_activity_semantic/physical_activity_semantic_2.png","null","",""
"","","","","","image-button-response","93","492287","0.0-14.0-1.0-1.1","389FB9674BAD4EC890991AA25B11011A","389FB9674BAD4EC890991AA25B11011A","a426f6b4-31c5-495f-9c09-83203b811d9f","9076ac92-be42-43a2-9634-8b67c7fe93a7","{""num_scrambled_semantic"":""8"",""num_scrambled_causal"":""4"",""num_scrambled_schematic"":""4"",""participantId"":""389FB9674BAD4EC890991AA25B11011A"",""assignmentId"":""a426f6b4-31c5-495f-9c09-83203b811d9f"",""projectId"":""9076ac92-be42-43a2-9634-8b67c7fe93a7""}","https://test12345.live/?num_scrambled_semantic=8&num_scrambled_causal=4&num_scrambled_schematic=4&participantId=389FB9674BAD4EC890991AA25B11011A&assignmentId=a426f6b4-31c5-495f-9c09-83203b811d9f&projectId=9076ac92-be42-43a2-9634-8b67c7fe93a7","389FB9674BAD4EC890991AA25B11011A-2025-05-22-19-34-44","","2133","","images/semantic_sequence/physical_activity_semantic/physical_activity_semantic_2.png","0","",""
"","","","","","image-button-response","94","494089","0.0-14.0-1.0-2.1","389FB9674BAD4EC890991AA25B11011A","389FB9674BAD4EC890991AA25B11011A","a426f6b4-31c5-495f-9c09-83203b811d9f","9076ac92-be42-43a2-9634-8b67c7fe93a7","{""num_scrambled_semantic"":""8"",""num_scrambled_causal"":""4"",""num_scrambled_schematic"":""4"",""participantId"":""389FB9674BAD4EC890991AA25B11011A"",""assignmentId"":""a426f6b4-31c5-495f-9c09-83203b811d9f"",""projectId"":""9076ac92-be42-43a2-9634-8b67c7fe93a7""}","https://test12345.live/?num_scrambled_semantic=8&num_scrambled_causal=4&num_scrambled_schematic=4&participantId=389FB9674BAD4EC890991AA25B11011A&assignmentId=a426f6b4-31c5-495f-9c09-83203b811d9f&projectId=9076ac92-be42-43a2-9634-8b67c7fe93a7","389FB9674BAD4EC890991AA25B11011A-2025-05-22-19-34-44","","null","","[]","null","",""
"","","","","","image-button-response","95","498592","0.0-14.0-1.0-0.2","389FB9674BAD4EC890991AA25B11011A","389FB9674BAD4EC890991AA25B11011A","a426f6b4-31c5-495f-9c09-83203b811d9f","9076ac92-be42-43a2-9634-8b67c7fe93a7","{""num_scrambled_semantic"":""8"",""num_scrambled_causal"":""4"",""num_scrambled_schematic"":""4"",""participantId"":""389FB9674BAD4EC890991AA25B11011A"",""assignmentId"":""a426f6b4-31c5-495f-9c09-83203b811d9f"",""projectId"":""9076ac92-be42-43a2-9634-8b67c7fe93a7""}","https://test12345.live/?num_scrambled_semantic=8&num_scrambled_causal=4&num_scrambled_schematic=4&participantId=389FB9674BAD4EC890991AA25B11011A&assignmentId=a426f6b4-31c5-495f-9c09-83203b811d9f&projectId=9076ac92-be42-43a2-9634-8b67c7fe93a7","389FB9674BAD4EC890991AA25B11011A-2025-05-22-19-34-44","","null","","images/semantic_sequence/physical_activity_semantic/physical_activity_semantic_3.png","null","",""
"","","","","","image-button-response","96","502597","0.0-14.0-1.0-1.2","389FB9674BAD4EC890991AA25B11011A","389FB9674BAD4EC890991AA25B11011A","a426f6b4-31c5-495f-9c09-83203b811d9f","9076ac92-be42-43a2-9634-8b67c7fe93a7","{""num_scrambled_semantic"":""8"",""num_scrambled_causal"":""4"",""num_scrambled_schematic"":""4"",""participantId"":""389FB9674BAD4EC890991AA25B11011A"",""assignmentId"":""a426f6b4-31c5-495f-9c09-83203b811d9f"",""projectId"":""9076ac92-be42-43a2-9634-8b67c7fe93a7""}","https://test12345.live/?num_scrambled_semantic=8&num_scrambled_causal=4&num_scrambled_schematic=4&participantId=389FB9674BAD4EC890991AA25B11011A&assignmentId=a426f6b4-31c5-495f-9c09-83203b811d9f&projectId=9076ac92-be42-43a2-9634-8b67c7fe93a7","389FB9674BAD4EC890991AA25B11011A-2025-05-22-19-34-44","","null","","images/semantic_sequence/physical_activity_semantic/physical_activity_semantic_3.png","null","",""
"","","","","","image-button-response","97","504399","0.0-14.0-1.0-2.2","389FB9674BAD4EC890991AA25B11011A","389FB9674BAD4EC890991AA25B11011A","a426f6b4-31c5-495f-9c09-83203b811d9f","9076ac92-be42-43a2-9634-8b67c7fe93a7","{""num_scrambled_semantic"":""8"",""num_scrambled_causal"":""4"",""num_scrambled_schematic"":""4"",""participantId"":""389FB9674BAD4EC890991AA25B11011A"",""assignmentId"":""a426f6b4-31c5-495f-9c09-83203b811d9f"",""projectId"":""9076ac92-be42-43a2-9634-8b67c7fe93a7""}","https://test12345.live/?num_scrambled_semantic=8&num_scrambled_causal=4&num_scrambled_schematic=4&participantId=389FB9674BAD4EC890991AA25B11011A&assignmentId=a426f6b4-31c5-495f-9c09-83203b811d9f&projectId=9076ac92-be42-43a2-9634-8b67c7fe93a7","389FB9674BAD4EC890991AA25B11011A-2025-05-22-19-34-44","","null","","[]","null","",""
"","","","","","image-button-response","98","508906","0.0-14.0-1.0-0.3","389FB9674BAD4EC890991AA25B11011A","389FB9674BAD4EC890991AA25B11011A","a426f6b4-31c5-495f-9c09-83203b811d9f","9076ac92-be42-43a2-9634-8b67c7fe93a7","{""num_scrambled_semantic"":""8"",""num_scrambled_causal"":""4"",""num_scrambled_schematic"":""4"",""participantId"":""389FB9674BAD4EC890991AA25B11011A"",""assignmentId"":""a426f6b4-31c5-495f-9c09-83203b811d9f"",""projectId"":""9076ac92-be42-43a2-9634-8b67c7fe93a7""}","https://test12345.live/?num_scrambled_semantic=8&num_scrambled_causal=4&num_scrambled_schematic=4&participantId=389FB9674BAD4EC890991AA25B11011A&assignmentId=a426f6b4-31c5-495f-9c09-83203b811d9f&projectId=9076ac92-be42-43a2-9634-8b67c7fe93a7","389FB9674BAD4EC890991AA25B11011A-2025-05-22-19-34-44","","null","","images/semantic_sequence/physical_activity_semantic/physical_activity_semantic_4.png","null","",""
"","","","","","image-button-response","99","509827","0.0-14.0-1.0-1.3","389FB9674BAD4EC890991AA25B11011A","389FB9674BAD4EC890991AA25B11011A","a426f6b4-31c5-495f-9c09-83203b811d9f","9076ac92-be42-43a2-9634-8b67c7fe93a7","{""num_scrambled_semantic"":""8"",""num_scrambled_causal"":""4"",""num_scrambled_schematic"":""4"",""participantId"":""389FB9674BAD4EC890991AA25B11011A"",""assignmentId"":""a426f6b4-31c5-495f-9c09-83203b811d9f"",""projectId"":""9076ac92-be42-43a2-9634-8b67c7fe93a7""}","https://test12345.live/?num_scrambled_semantic=8&num_scrambled_causal=4&num_scrambled_schematic=4&participantId=389FB9674BAD4EC890991AA25B11011A&assignmentId=a426f6b4-31c5-495f-9c09-83203b811d9f&projectId=9076ac92-be42-43a2-9634-8b67c7fe93a7","389FB9674BAD4EC890991AA25B11011A-2025-05-22-19-34-44","","920","","images/semantic_sequence/physical_activity_semantic/physical_activity_semantic_4.png","0","",""
"","","","","","image-button-response","100","511629","0.0-14.0-1.0-2.3","389FB9674BAD4EC890991AA25B11011A","389FB9674BAD4EC890991AA25B11011A","a426f6b4-31c5-495f-9c09-83203b811d9f","9076ac92-be42-43a2-9634-8b67c7fe93a7","{""num_scrambled_semantic"":""8"",""num_scrambled_causal"":""4"",""num_scrambled_schematic"":""4"",""participantId"":""389FB9674BAD4EC890991AA25B11011A"",""assignmentId"":""a426f6b4-31c5-495f-9c09-83203b811d9f"",""projectId"":""9076ac92-be42-43a2-9634-8b67c7fe93a7""}","https://test12345.live/?num_scrambled_semantic=8&num_scrambled_causal=4&num_scrambled_schematic=4&participantId=389FB9674BAD4EC890991AA25B11011A&assignmentId=a426f6b4-31c5-495f-9c09-83203b811d9f&projectId=9076ac92-be42-43a2-9634-8b67c7fe93a7","389FB9674BAD4EC890991AA25B11011A-2025-05-22-19-34-44","","null","","[]","null","",""
"","","","","","image-button-response","101","516134","0.0-14.0-1.0-0.4","389FB9674BAD4EC890991AA25B11011A","389FB9674BAD4EC890991AA25B11011A","a426f6b4-31c5-495f-9c09-83203b811d9f","9076ac92-be42-43a2-9634-8b67c7fe93a7","{""num_scrambled_semantic"":""8"",""num_scrambled_causal"":""4"",""num_scrambled_schematic"":""4"",""participantId"":""389FB9674BAD4EC890991AA25B11011A"",""assignmentId"":""a426f6b4-31c5-495f-9c09-83203b811d9f"",""projectId"":""9076ac92-be42-43a2-9634-8b67c7fe93a7""}","https://test12345.live/?num_scrambled_semantic=8&num_scrambled_causal=4&num_scrambled_schematic=4&participantId=389FB9674BAD4EC890991AA25B11011A&assignmentId=a426f6b4-31c5-495f-9c09-83203b811d9f&projectId=9076ac92-be42-43a2-9634-8b67c7fe93a7","389FB9674BAD4EC890991AA25B11011A-2025-05-22-19-34-44","","null","","images/semantic_sequence/physical_activity_semantic/physical_activity_semantic_5.png","null","",""
"","","","","","image-button-response","102","520130","0.0-14.0-1.0-1.4","389FB9674BAD4EC890991AA25B11011A","389FB9674BAD4EC890991AA25B11011A","a426f6b4-31c5-495f-9c09-83203b811d9f","9076ac92-be42-43a2-9634-8b67c7fe93a7","{""num_scrambled_semantic"":""8"",""num_scrambled_causal"":""4"",""num_scrambled_schematic"":""4"",""participantId"":""389FB9674BAD4EC890991AA25B11011A"",""assignmentId"":""a426f6b4-31c5-495f-9c09-83203b811d9f"",""projectId"":""9076ac92-be42-43a2-9634-8b67c7fe93a7""}","https://test12345.live/?num_scrambled_semantic=8&num_scrambled_causal=4&num_scrambled_schematic=4&participantId=389FB9674BAD4EC890991AA25B11011A&assignmentId=a426f6b4-31c5-495f-9c09-83203b811d9f&projectId=9076ac92-be42-43a2-9634-8b67c7fe93a7","389FB9674BAD4EC890991AA25B11011A-2025-05-22-19-34-44","","3996","","images/semantic_sequence/physical_activity_semantic/physical_activity_semantic_5.png","0","",""
"","","","","","image-button-response","103","521935","0.0-14.0-1.0-2.4","389FB9674BAD4EC890991AA25B11011A","389FB9674BAD4EC890991AA25B11011A","a426f6b4-31c5-495f-9c09-83203b811d9f","9076ac92-be42-43a2-9634-8b67c7fe93a7","{""num_scrambled_semantic"":""8"",""num_scrambled_causal"":""4"",""num_scrambled_schematic"":""4"",""participantId"":""389FB9674BAD4EC890991AA25B11011A"",""assignmentId"":""a426f6b4-31c5-495f-9c09-83203b811d9f"",""projectId"":""9076ac92-be42-43a2-9634-8b67c7fe93a7""}","https://test12345.live/?num_scrambled_semantic=8&num_scrambled_causal=4&num_scrambled_schematic=4&participantId=389FB9674BAD4EC890991AA25B11011A&assignmentId=a426f6b4-31c5-495f-9c09-83203b811d9f&projectId=9076ac92-be42-43a2-9634-8b67c7fe93a7","389FB9674BAD4EC890991AA25B11011A-2025-05-22-19-34-44","","null","","[]","null","",""
"","","","","","image-button-response","104","526439","0.0-14.0-1.0-0.5","389FB9674BAD4EC890991AA25B11011A","389FB9674BAD4EC890991AA25B11011A","a426f6b4-31c5-495f-9c09-83203b811d9f","9076ac92-be42-43a2-9634-8b67c7fe93a7","{""num_scrambled_semantic"":""8"",""num_scrambled_causal"":""4"",""num_scrambled_schematic"":""4"",""participantId"":""389FB9674BAD4EC890991AA25B11011A"",""assignmentId"":""a426f6b4-31c5-495f-9c09-83203b811d9f"",""projectId"":""9076ac92-be42-43a2-9634-8b67c7fe93a7""}","https://test12345.live/?num_scrambled_semantic=8&num_scrambled_causal=4&num_scrambled_schematic=4&participantId=389FB9674BAD4EC890991AA25B11011A&assignmentId=a426f6b4-31c5-495f-9c09-83203b811d9f&projectId=9076ac92-be42-43a2-9634-8b67c7fe93a7","389FB9674BAD4EC890991AA25B11011A-2025-05-22-19-34-44","","null","","images/semantic_sequence/physical_activity_semantic/physical_activity_semantic_6.png","null","",""
"","","","","","image-button-response","105","529918","0.0-14.0-1.0-1.5","389FB9674BAD4EC890991AA25B11011A","389FB9674BAD4EC890991AA25B11011A","a426f6b4-31c5-495f-9c09-83203b811d9f","9076ac92-be42-43a2-9634-8b67c7fe93a7","{""num_scrambled_semantic"":""8"",""num_scrambled_causal"":""4"",""num_scrambled_schematic"":""4"",""participantId"":""389FB9674BAD4EC890991AA25B11011A"",""assignmentId"":""a426f6b4-31c5-495f-9c09-83203b811d9f"",""projectId"":""9076ac92-be42-43a2-9634-8b67c7fe93a7""}","https://test12345.live/?num_scrambled_semantic=8&num_scrambled_causal=4&num_scrambled_schematic=4&participantId=389FB9674BAD4EC890991AA25B11011A&assignmentId=a426f6b4-31c5-495f-9c09-83203b811d9f&projectId=9076ac92-be42-43a2-9634-8b67c7fe93a7","389FB9674BAD4EC890991AA25B11011A-2025-05-22-19-34-44","","3479","","images/semantic_sequence/physical_activity_semantic/physical_activity_semantic_6.png","0","",""
"","","","","","image-button-response","106","531721","0.0-14.0-1.0-2.5","389FB9674BAD4EC890991AA25B11011A","389FB9674BAD4EC890991AA25B11011A","a426f6b4-31c5-495f-9c09-83203b811d9f","9076ac92-be42-43a2-9634-8b67c7fe93a7","{""num_scrambled_semantic"":""8"",""num_scrambled_causal"":""4"",""num_scrambled_schematic"":""4"",""participantId"":""389FB9674BAD4EC890991AA25B11011A"",""assignmentId"":""a426f6b4-31c5-495f-9c09-83203b811d9f"",""projectId"":""9076ac92-be42-43a2-9634-8b67c7fe93a7""}","https://test12345.live/?num_scrambled_semantic=8&num_scrambled_causal=4&num_scrambled_schematic=4&participantId=389FB9674BAD4EC890991AA25B11011A&assignmentId=a426f6b4-31c5-495f-9c09-83203b811d9f&projectId=9076ac92-be42-43a2-9634-8b67c7fe93a7","389FB9674BAD4EC890991AA25B11011A-2025-05-22-19-34-44","","null","","[]","null","",""
"","","","","","image-button-response","107","536222","0.0-14.0-1.0-0.6","389FB9674BAD4EC890991AA25B11011A","389FB9674BAD4EC890991AA25B11011A","a426f6b4-31c5-495f-9c09-83203b811d9f","9076ac92-be42-43a2-9634-8b67c7fe93a7","{""num_scrambled_semantic"":""8"",""num_scrambled_causal"":""4"",""num_scrambled_schematic"":""4"",""participantId"":""389FB9674BAD4EC890991AA25B11011A"",""assignmentId"":""a426f6b4-31c5-495f-9c09-83203b811d9f"",""projectId"":""9076ac92-be42-43a2-9634-8b67c7fe93a7""}","https://test12345.live/?num_scrambled_semantic=8&num_scrambled_causal=4&num_scrambled_schematic=4&participantId=389FB9674BAD4EC890991AA25B11011A&assignmentId=a426f6b4-31c5-495f-9c09-83203b811d9f&projectId=9076ac92-be42-43a2-9634-8b67c7fe93a7","389FB9674BAD4EC890991AA25B11011A-2025-05-22-19-34-44","","null","","images/semantic_sequence/physical_activity_semantic/physical_activity_semantic_7.png","null","",""
"","","","","","image-button-response","108","537040","0.0-14.0-1.0-1.6","389FB9674BAD4EC890991AA25B11011A","389FB9674BAD4EC890991AA25B11011A","a426f6b4-31c5-495f-9c09-83203b811d9f","9076ac92-be42-43a2-9634-8b67c7fe93a7","{""num_scrambled_semantic"":""8"",""num_scrambled_causal"":""4"",""num_scrambled_schematic"":""4"",""participantId"":""389FB9674BAD4EC890991AA25B11011A"",""assignmentId"":""a426f6b4-31c5-495f-9c09-83203b811d9f"",""projectId"":""9076ac92-be42-43a2-9634-8b67c7fe93a7""}","https://test12345.live/?num_scrambled_semantic=8&num_scrambled_causal=4&num_scrambled_schematic=4&participantId=389FB9674BAD4EC890991AA25B11011A&assignmentId=a426f6b4-31c5-495f-9c09-83203b811d9f&projectId=9076ac92-be42-43a2-9634-8b67c7fe93a7","389FB9674BAD4EC890991AA25B11011A-2025-05-22-19-34-44","","817","","images/semantic_sequence/physical_activity_semantic/physical_activity_semantic_7.png","0","",""
"","","","","","image-button-response","109","538845","0.0-14.0-1.0-2.6","389FB9674BAD4EC890991AA25B11011A","389FB9674BAD4EC890991AA25B11011A","a426f6b4-31c5-495f-9c09-83203b811d9f","9076ac92-be42-43a2-9634-8b67c7fe93a7","{""num_scrambled_semantic"":""8"",""num_scrambled_causal"":""4"",""num_scrambled_schematic"":""4"",""participantId"":""389FB9674BAD4EC890991AA25B11011A"",""assignmentId"":""a426f6b4-31c5-495f-9c09-83203b811d9f"",""projectId"":""9076ac92-be42-43a2-9634-8b67c7fe93a7""}","https://test12345.live/?num_scrambled_semantic=8&num_scrambled_causal=4&num_scrambled_schematic=4&participantId=389FB9674BAD4EC890991AA25B11011A&assignmentId=a426f6b4-31c5-495f-9c09-83203b811d9f&projectId=9076ac92-be42-43a2-9634-8b67c7fe93a7","389FB9674BAD4EC890991AA25B11011A-2025-05-22-19-34-44","","null","","[]","null","",""
"","","","","","image-button-response","110","543351","0.0-14.0-1.0-0.7","389FB9674BAD4EC890991AA25B11011A","389FB9674BAD4EC890991AA25B11011A","a426f6b4-31c5-495f-9c09-83203b811d9f","9076ac92-be42-43a2-9634-8b67c7fe93a7","{""num_scrambled_semantic"":""8"",""num_scrambled_causal"":""4"",""num_scrambled_schematic"":""4"",""participantId"":""389FB9674BAD4EC890991AA25B11011A"",""assignmentId"":""a426f6b4-31c5-495f-9c09-83203b811d9f"",""projectId"":""9076ac92-be42-43a2-9634-8b67c7fe93a7""}","https://test12345.live/?num_scrambled_semantic=8&num_scrambled_causal=4&num_scrambled_schematic=4&participantId=389FB9674BAD4EC890991AA25B11011A&assignmentId=a426f6b4-31c5-495f-9c09-83203b811d9f&projectId=9076ac92-be42-43a2-9634-8b67c7fe93a7","389FB9674BAD4EC890991AA25B11011A-2025-05-22-19-34-44","","null","","images/semantic_sequence/physical_activity_semantic/physical_activity_semantic_8.png","null","",""
"","","","","","image-button-response","111","545477","0.0-14.0-1.0-1.7","389FB9674BAD4EC890991AA25B11011A","389FB9674BAD4EC890991AA25B11011A","a426f6b4-31c5-495f-9c09-83203b811d9f","9076ac92-be42-43a2-9634-8b67c7fe93a7","{""num_scrambled_semantic"":""8"",""num_scrambled_causal"":""4"",""num_scrambled_schematic"":""4"",""participantId"":""389FB9674BAD4EC890991AA25B11011A"",""assignmentId"":""a426f6b4-31c5-495f-9c09-83203b811d9f"",""projectId"":""9076ac92-be42-43a2-9634-8b67c7fe93a7""}","https://test12345.live/?num_scrambled_semantic=8&num_scrambled_causal=4&num_scrambled_schematic=4&participantId=389FB9674BAD4EC890991AA25B11011A&assignmentId=a426f6b4-31c5-495f-9c09-83203b811d9f&projectId=9076ac92-be42-43a2-9634-8b67c7fe93a7","389FB9674BAD4EC890991AA25B11011A-2025-05-22-19-34-44","","2125","","images/semantic_sequence/physical_activity_semantic/physical_activity_semantic_8.png","0","",""
"","","","","","image-button-response","112","547282","0.0-14.0-1.0-2.7","389FB9674BAD4EC890991AA25B11011A","389FB9674BAD4EC890991AA25B11011A","a426f6b4-31c5-495f-9c09-83203b811d9f","9076ac92-be42-43a2-9634-8b67c7fe93a7","{""num_scrambled_semantic"":""8"",""num_scrambled_causal"":""4"",""num_scrambled_schematic"":""4"",""participantId"":""389FB9674BAD4EC890991AA25B11011A"",""assignmentId"":""a426f6b4-31c5-495f-9c09-83203b811d9f"",""projectId"":""9076ac92-be42-43a2-9634-8b67c7fe93a7""}","https://test12345.live/?num_scrambled_semantic=8&num_scrambled_causal=4&num_scrambled_schematic=4&participantId=389FB9674BAD4EC890991AA25B11011A&assignmentId=a426f6b4-31c5-495f-9c09-83203b811d9f&projectId=9076ac92-be42-43a2-9634-8b67c7fe93a7","389FB9674BAD4EC890991AA25B11011A-2025-05-22-19-34-44","","null","","[]","null","",""
"","","","","","image-button-response","113","551784","0.0-14.0-1.0-0.8","389FB9674BAD4EC890991AA25B11011A","389FB9674BAD4EC890991AA25B11011A","a426f6b4-31c5-495f-9c09-83203b811d9f","9076ac92-be42-43a2-9634-8b67c7fe93a7","{""num_scrambled_semantic"":""8"",""num_scrambled_causal"":""4"",""num_scrambled_schematic"":""4"",""participantId"":""389FB9674BAD4EC890991AA25B11011A"",""assignmentId"":""a426f6b4-31c5-495f-9c09-83203b811d9f"",""projectId"":""9076ac92-be42-43a2-9634-8b67c7fe93a7""}","https://test12345.live/?num_scrambled_semantic=8&num_scrambled_causal=4&num_scrambled_schematic=4&participantId=389FB9674BAD4EC890991AA25B11011A&assignmentId=a426f6b4-31c5-495f-9c09-83203b811d9f&projectId=9076ac92-be42-43a2-9634-8b67c7fe93a7","389FB9674BAD4EC890991AA25B11011A-2025-05-22-19-34-44","","null","","images/semantic_sequence/physical_activity_semantic/physical_activity_semantic_9.png","null","",""
