"success","timeout","failed_images","failed_audio","failed_video","trial_type","trial_index","time_elapsed","internal_node_id","subject","subject_id","study_id","session_id","urlvar","current_url","audio_id","view_history","rt","device_id","stimulus","response","estimated_stimulus_onset","seq_name"
"true","false","[]","[]","[]","preload","0","3818","0.0-0.0","39131E2917134F0BBDE7AA001438CF7E","39131E2917134F0BBDE7AA001438CF7E","801d661b-3901-425c-a3d3-813ecf3f259c","a9f3d40c-5730-405c-b25e-1034c4c56f3f","{""num_scrambled_semantic"":""8"",""num_scrambled_causal"":""4"",""num_scrambled_schematic"":""4"",""participantId"":""39131E2917134F0BBDE7AA001438CF7E"",""assignmentId"":""801d661b-3901-425c-a3d3-813ecf3f259c"",""projectId"":""a9f3d40c-5730-405c-b25e-1034c4c56f3f""}","https://test12345.live/?num_scrambled_semantic=8&num_scrambled_causal=4&num_scrambled_schematic=4&participantId=39131E2917134F0BBDE7AA001438CF7E&assignmentId=801d661b-3901-425c-a3d3-813ecf3f259c&projectId=a9f3d40c-5730-405c-b25e-1034c4c56f3f","39131E2917134F0BBDE7AA001438CF7E-2025-08-07-19-22-56","","","","","","",""
"","","","","","instructions","1","33584","0.0-1.0","39131E2917134F0BBDE7AA001438CF7E","39131E2917134F0BBDE7AA001438CF7E","801d661b-3901-425c-a3d3-813ecf3f259c","a9f3d40c-5730-405c-b25e-1034c4c56f3f","{""num_scrambled_semantic"":""8"",""num_scrambled_causal"":""4"",""num_scrambled_schematic"":""4"",""participantId"":""39131E2917134F0BBDE7AA001438CF7E"",""assignmentId"":""801d661b-3901-425c-a3d3-813ecf3f259c"",""projectId"":""a9f3d40c-5730-405c-b25e-1034c4c56f3f""}","https://test12345.live/?num_scrambled_semantic=8&num_scrambled_causal=4&num_scrambled_schematic=4&participantId=39131E2917134F0BBDE7AA001438CF7E&assignmentId=801d661b-3901-425c-a3d3-813ecf3f259c&projectId=a9f3d40c-5730-405c-b25e-1034c4c56f3f","39131E2917134F0BBDE7AA001438CF7E-2025-08-07-19-22-56","[{""page_index"":0,""viewing_time"":29766}]","29766","","","","",""
"","","","","","instructions","2","39674","0.0-2.0","39131E2917134F0BBDE7AA001438CF7E","39131E2917134F0BBDE7AA001438CF7E","801d661b-3901-425c-a3d3-813ecf3f259c","a9f3d40c-5730-405c-b25e-1034c4c56f3f","{""num_scrambled_semantic"":""8"",""num_scrambled_causal"":""4"",""num_scrambled_schematic"":""4"",""participantId"":""39131E2917134F0BBDE7AA001438CF7E"",""assignmentId"":""801d661b-3901-425c-a3d3-813ecf3f259c"",""projectId"":""a9f3d40c-5730-405c-b25e-1034c4c56f3f""}","https://test12345.live/?num_scrambled_semantic=8&num_scrambled_causal=4&num_scrambled_schematic=4&participantId=39131E2917134F0BBDE7AA001438CF7E&assignmentId=801d661b-3901-425c-a3d3-813ecf3f259c&projectId=a9f3d40c-5730-405c-b25e-1034c4c56f3f","39131E2917134F0BBDE7AA001438CF7E-2025-08-07-19-22-56","[{""page_index"":0,""viewing_time"":6089}]","6089","","","","",""
"true","","","","","fullscreen","3","45522","0.0-3.0","39131E2917134F0BBDE7AA001438CF7E","39131E2917134F0BBDE7AA001438CF7E","801d661b-3901-425c-a3d3-813ecf3f259c","a9f3d40c-5730-405c-b25e-1034c4c56f3f","{""num_scrambled_semantic"":""8"",""num_scrambled_causal"":""4"",""num_scrambled_schematic"":""4"",""participantId"":""39131E2917134F0BBDE7AA001438CF7E"",""assignmentId"":""801d661b-3901-425c-a3d3-813ecf3f259c"",""projectId"":""a9f3d40c-5730-405c-b25e-1034c4c56f3f""}","https://test12345.live/?num_scrambled_semantic=8&num_scrambled_causal=4&num_scrambled_schematic=4&participantId=39131E2917134F0BBDE7AA001438CF7E&assignmentId=801d661b-3901-425c-a3d3-813ecf3f259c&projectId=a9f3d40c-5730-405c-b25e-1034c4c56f3f","39131E2917134F0BBDE7AA001438CF7E-2025-08-07-19-22-56","","4846","","","","",""
"","","","","","initialize-microphone","4","54246","0.0-4.0-0.0","39131E2917134F0BBDE7AA001438CF7E","39131E2917134F0BBDE7AA001438CF7E","801d661b-3901-425c-a3d3-813ecf3f259c","a9f3d40c-5730-405c-b25e-1034c4c56f3f","{""num_scrambled_semantic"":""8"",""num_scrambled_causal"":""4"",""num_scrambled_schematic"":""4"",""participantId"":""39131E2917134F0BBDE7AA001438CF7E"",""assignmentId"":""801d661b-3901-425c-a3d3-813ecf3f259c"",""projectId"":""a9f3d40c-5730-405c-b25e-1034c4c56f3f""}","https://test12345.live/?num_scrambled_semantic=8&num_scrambled_causal=4&num_scrambled_schematic=4&participantId=39131E2917134F0BBDE7AA001438CF7E&assignmentId=801d661b-3901-425c-a3d3-813ecf3f259c&projectId=a9f3d40c-5730-405c-b25e-1034c4c56f3f","39131E2917134F0BBDE7AA001438CF7E-2025-08-07-19-22-56","","","3ab993b0acd6a0ebb88d2ba29cc4940f73f1477d1ddc491a21fda5a66b9e3522","","","",""
"","","","","","html-audio-response","5","66985","0.0-4.0-1.0","39131E2917134F0BBDE7AA001438CF7E","39131E2917134F0BBDE7AA001438CF7E","801d661b-3901-425c-a3d3-813ecf3f259c","a9f3d40c-5730-405c-b25e-1034c4c56f3f","{""num_scrambled_semantic"":""8"",""num_scrambled_causal"":""4"",""num_scrambled_schematic"":""4"",""participantId"":""39131E2917134F0BBDE7AA001438CF7E"",""assignmentId"":""801d661b-3901-425c-a3d3-813ecf3f259c"",""projectId"":""a9f3d40c-5730-405c-b25e-1034c4c56f3f""}","https://test12345.live/?num_scrambled_semantic=8&num_scrambled_causal=4&num_scrambled_schematic=4&participantId=39131E2917134F0BBDE7AA001438CF7E&assignmentId=801d661b-3901-425c-a3d3-813ecf3f259c&projectId=a9f3d40c-5730-405c-b25e-1034c4c56f3f","39131E2917134F0BBDE7AA001438CF7E-2025-08-07-19-22-56","","5918","","<span style=""color: red; font-size: 24px""> NOW RECORDING</span>
        <p>Please test Microphone</p>","","3",""
"","","","","","html-button-response","6","69058","0.0-4.0-2.0","39131E2917134F0BBDE7AA001438CF7E","39131E2917134F0BBDE7AA001438CF7E","801d661b-3901-425c-a3d3-813ecf3f259c","a9f3d40c-5730-405c-b25e-1034c4c56f3f","{""num_scrambled_semantic"":""8"",""num_scrambled_causal"":""4"",""num_scrambled_schematic"":""4"",""participantId"":""39131E2917134F0BBDE7AA001438CF7E"",""assignmentId"":""801d661b-3901-425c-a3d3-813ecf3f259c"",""projectId"":""a9f3d40c-5730-405c-b25e-1034c4c56f3f""}","https://test12345.live/?num_scrambled_semantic=8&num_scrambled_causal=4&num_scrambled_schematic=4&participantId=39131E2917134F0BBDE7AA001438CF7E&assignmentId=801d661b-3901-425c-a3d3-813ecf3f259c&projectId=a9f3d40c-5730-405c-b25e-1034c4c56f3f","39131E2917134F0BBDE7AA001438CF7E-2025-08-07-19-22-56","","2072","","<p style=""font-size:48px; color:red;"">Is Microphone OK?</p>","1","",""
"","","","","","instructions","7","89880","0.0-5.0","39131E2917134F0BBDE7AA001438CF7E","39131E2917134F0BBDE7AA001438CF7E","801d661b-3901-425c-a3d3-813ecf3f259c","a9f3d40c-5730-405c-b25e-1034c4c56f3f","{""num_scrambled_semantic"":""8"",""num_scrambled_causal"":""4"",""num_scrambled_schematic"":""4"",""participantId"":""39131E2917134F0BBDE7AA001438CF7E"",""assignmentId"":""801d661b-3901-425c-a3d3-813ecf3f259c"",""projectId"":""a9f3d40c-5730-405c-b25e-1034c4c56f3f""}","https://test12345.live/?num_scrambled_semantic=8&num_scrambled_causal=4&num_scrambled_schematic=4&participantId=39131E2917134F0BBDE7AA001438CF7E&assignmentId=801d661b-3901-425c-a3d3-813ecf3f259c&projectId=a9f3d40c-5730-405c-b25e-1034c4c56f3f","39131E2917134F0BBDE7AA001438CF7E-2025-08-07-19-22-56","[{""page_index"":0,""viewing_time"":11634},{""page_index"":1,""viewing_time"":9188}]","20822","","","","",""
"","","","","","image-button-response","8","95887","0.0-6.0-0.0","39131E2917134F0BBDE7AA001438CF7E","39131E2917134F0BBDE7AA001438CF7E","801d661b-3901-425c-a3d3-813ecf3f259c","a9f3d40c-5730-405c-b25e-1034c4c56f3f","{""num_scrambled_semantic"":""8"",""num_scrambled_causal"":""4"",""num_scrambled_schematic"":""4"",""participantId"":""39131E2917134F0BBDE7AA001438CF7E"",""assignmentId"":""801d661b-3901-425c-a3d3-813ecf3f259c"",""projectId"":""a9f3d40c-5730-405c-b25e-1034c4c56f3f""}","https://test12345.live/?num_scrambled_semantic=8&num_scrambled_causal=4&num_scrambled_schematic=4&participantId=39131E2917134F0BBDE7AA001438CF7E&assignmentId=801d661b-3901-425c-a3d3-813ecf3f259c&projectId=a9f3d40c-5730-405c-b25e-1034c4c56f3f","39131E2917134F0BBDE7AA001438CF7E-2025-08-07-19-22-56","","null","","images/instructions/movie_0.png","null","",""
"","","","","","image-button-response","9","100392","0.0-6.0-1.0-0.0","39131E2917134F0BBDE7AA001438CF7E","39131E2917134F0BBDE7AA001438CF7E","801d661b-3901-425c-a3d3-813ecf3f259c","a9f3d40c-5730-405c-b25e-1034c4c56f3f","{""num_scrambled_semantic"":""8"",""num_scrambled_causal"":""4"",""num_scrambled_schematic"":""4"",""participantId"":""39131E2917134F0BBDE7AA001438CF7E"",""assignmentId"":""801d661b-3901-425c-a3d3-813ecf3f259c"",""projectId"":""a9f3d40c-5730-405c-b25e-1034c4c56f3f""}","https://test12345.live/?num_scrambled_semantic=8&num_scrambled_causal=4&num_scrambled_schematic=4&participantId=39131E2917134F0BBDE7AA001438CF7E&assignmentId=801d661b-3901-425c-a3d3-813ecf3f259c&projectId=a9f3d40c-5730-405c-b25e-1034c4c56f3f","39131E2917134F0BBDE7AA001438CF7E-2025-08-07-19-22-56","","null","","images/instructions/movie_1.png","null","",""
"","","","","","image-button-response","10","103667","0.0-6.0-1.0-1.0","39131E2917134F0BBDE7AA001438CF7E","39131E2917134F0BBDE7AA001438CF7E","801d661b-3901-425c-a3d3-813ecf3f259c","a9f3d40c-5730-405c-b25e-1034c4c56f3f","{""num_scrambled_semantic"":""8"",""num_scrambled_causal"":""4"",""num_scrambled_schematic"":""4"",""participantId"":""39131E2917134F0BBDE7AA001438CF7E"",""assignmentId"":""801d661b-3901-425c-a3d3-813ecf3f259c"",""projectId"":""a9f3d40c-5730-405c-b25e-1034c4c56f3f""}","https://test12345.live/?num_scrambled_semantic=8&num_scrambled_causal=4&num_scrambled_schematic=4&participantId=39131E2917134F0BBDE7AA001438CF7E&assignmentId=801d661b-3901-425c-a3d3-813ecf3f259c&projectId=a9f3d40c-5730-405c-b25e-1034c4c56f3f","39131E2917134F0BBDE7AA001438CF7E-2025-08-07-19-22-56","","3274","","images/instructions/movie_1.png","0","",""
"","","","","","image-button-response","11","105473","0.0-6.0-1.0-2.0","39131E2917134F0BBDE7AA001438CF7E","39131E2917134F0BBDE7AA001438CF7E","801d661b-3901-425c-a3d3-813ecf3f259c","a9f3d40c-5730-405c-b25e-1034c4c56f3f","{""num_scrambled_semantic"":""8"",""num_scrambled_causal"":""4"",""num_scrambled_schematic"":""4"",""participantId"":""39131E2917134F0BBDE7AA001438CF7E"",""assignmentId"":""801d661b-3901-425c-a3d3-813ecf3f259c"",""projectId"":""a9f3d40c-5730-405c-b25e-1034c4c56f3f""}","https://test12345.live/?num_scrambled_semantic=8&num_scrambled_causal=4&num_scrambled_schematic=4&participantId=39131E2917134F0BBDE7AA001438CF7E&assignmentId=801d661b-3901-425c-a3d3-813ecf3f259c&projectId=a9f3d40c-5730-405c-b25e-1034c4c56f3f","39131E2917134F0BBDE7AA001438CF7E-2025-08-07-19-22-56","","null","","[]","null","",""
"","","","","","image-button-response","12","109983","0.0-6.0-1.0-0.1","39131E2917134F0BBDE7AA001438CF7E","39131E2917134F0BBDE7AA001438CF7E","801d661b-3901-425c-a3d3-813ecf3f259c","a9f3d40c-5730-405c-b25e-1034c4c56f3f","{""num_scrambled_semantic"":""8"",""num_scrambled_causal"":""4"",""num_scrambled_schematic"":""4"",""participantId"":""39131E2917134F0BBDE7AA001438CF7E"",""assignmentId"":""801d661b-3901-425c-a3d3-813ecf3f259c"",""projectId"":""a9f3d40c-5730-405c-b25e-1034c4c56f3f""}","https://test12345.live/?num_scrambled_semantic=8&num_scrambled_causal=4&num_scrambled_schematic=4&participantId=39131E2917134F0BBDE7AA001438CF7E&assignmentId=801d661b-3901-425c-a3d3-813ecf3f259c&projectId=a9f3d40c-5730-405c-b25e-1034c4c56f3f","39131E2917134F0BBDE7AA001438CF7E-2025-08-07-19-22-56","","null","","images/instructions/movie_2.png","null","",""
"","","","","","image-button-response","13","113987","0.0-6.0-1.0-1.1","39131E2917134F0BBDE7AA001438CF7E","39131E2917134F0BBDE7AA001438CF7E","801d661b-3901-425c-a3d3-813ecf3f259c","a9f3d40c-5730-405c-b25e-1034c4c56f3f","{""num_scrambled_semantic"":""8"",""num_scrambled_causal"":""4"",""num_scrambled_schematic"":""4"",""participantId"":""39131E2917134F0BBDE7AA001438CF7E"",""assignmentId"":""801d661b-3901-425c-a3d3-813ecf3f259c"",""projectId"":""a9f3d40c-5730-405c-b25e-1034c4c56f3f""}","https://test12345.live/?num_scrambled_semantic=8&num_scrambled_causal=4&num_scrambled_schematic=4&participantId=39131E2917134F0BBDE7AA001438CF7E&assignmentId=801d661b-3901-425c-a3d3-813ecf3f259c&projectId=a9f3d40c-5730-405c-b25e-1034c4c56f3f","39131E2917134F0BBDE7AA001438CF7E-2025-08-07-19-22-56","","null","","images/instructions/movie_2.png","null","",""
"","","","","","image-button-response","14","115789","0.0-6.0-1.0-2.1","39131E2917134F0BBDE7AA001438CF7E","39131E2917134F0BBDE7AA001438CF7E","801d661b-3901-425c-a3d3-813ecf3f259c","a9f3d40c-5730-405c-b25e-1034c4c56f3f","{""num_scrambled_semantic"":""8"",""num_scrambled_causal"":""4"",""num_scrambled_schematic"":""4"",""participantId"":""39131E2917134F0BBDE7AA001438CF7E"",""assignmentId"":""801d661b-3901-425c-a3d3-813ecf3f259c"",""projectId"":""a9f3d40c-5730-405c-b25e-1034c4c56f3f""}","https://test12345.live/?num_scrambled_semantic=8&num_scrambled_causal=4&num_scrambled_schematic=4&participantId=39131E2917134F0BBDE7AA001438CF7E&assignmentId=801d661b-3901-425c-a3d3-813ecf3f259c&projectId=a9f3d40c-5730-405c-b25e-1034c4c56f3f","39131E2917134F0BBDE7AA001438CF7E-2025-08-07-19-22-56","","null","","[]","null","",""
"","","","","","image-button-response","15","120300","0.0-6.0-1.0-0.2","39131E2917134F0BBDE7AA001438CF7E","39131E2917134F0BBDE7AA001438CF7E","801d661b-3901-425c-a3d3-813ecf3f259c","a9f3d40c-5730-405c-b25e-1034c4c56f3f","{""num_scrambled_semantic"":""8"",""num_scrambled_causal"":""4"",""num_scrambled_schematic"":""4"",""participantId"":""39131E2917134F0BBDE7AA001438CF7E"",""assignmentId"":""801d661b-3901-425c-a3d3-813ecf3f259c"",""projectId"":""a9f3d40c-5730-405c-b25e-1034c4c56f3f""}","https://test12345.live/?num_scrambled_semantic=8&num_scrambled_causal=4&num_scrambled_schematic=4&participantId=39131E2917134F0BBDE7AA001438CF7E&assignmentId=801d661b-3901-425c-a3d3-813ecf3f259c&projectId=a9f3d40c-5730-405c-b25e-1034c4c56f3f","39131E2917134F0BBDE7AA001438CF7E-2025-08-07-19-22-56","","null","","images/instructions/movie_3.png","null","",""
"","","","","","image-button-response","16","122432","0.0-6.0-1.0-1.2","39131E2917134F0BBDE7AA001438CF7E","39131E2917134F0BBDE7AA001438CF7E","801d661b-3901-425c-a3d3-813ecf3f259c","a9f3d40c-5730-405c-b25e-1034c4c56f3f","{""num_scrambled_semantic"":""8"",""num_scrambled_causal"":""4"",""num_scrambled_schematic"":""4"",""participantId"":""39131E2917134F0BBDE7AA001438CF7E"",""assignmentId"":""801d661b-3901-425c-a3d3-813ecf3f259c"",""projectId"":""a9f3d40c-5730-405c-b25e-1034c4c56f3f""}","https://test12345.live/?num_scrambled_semantic=8&num_scrambled_causal=4&num_scrambled_schematic=4&participantId=39131E2917134F0BBDE7AA001438CF7E&assignmentId=801d661b-3901-425c-a3d3-813ecf3f259c&projectId=a9f3d40c-5730-405c-b25e-1034c4c56f3f","39131E2917134F0BBDE7AA001438CF7E-2025-08-07-19-22-56","","2131","","images/instructions/movie_3.png","0","",""
"","","","","","image-button-response","17","124237","0.0-6.0-1.0-2.2","39131E2917134F0BBDE7AA001438CF7E","39131E2917134F0BBDE7AA001438CF7E","801d661b-3901-425c-a3d3-813ecf3f259c","a9f3d40c-5730-405c-b25e-1034c4c56f3f","{""num_scrambled_semantic"":""8"",""num_scrambled_causal"":""4"",""num_scrambled_schematic"":""4"",""participantId"":""39131E2917134F0BBDE7AA001438CF7E"",""assignmentId"":""801d661b-3901-425c-a3d3-813ecf3f259c"",""projectId"":""a9f3d40c-5730-405c-b25e-1034c4c56f3f""}","https://test12345.live/?num_scrambled_semantic=8&num_scrambled_causal=4&num_scrambled_schematic=4&participantId=39131E2917134F0BBDE7AA001438CF7E&assignmentId=801d661b-3901-425c-a3d3-813ecf3f259c&projectId=a9f3d40c-5730-405c-b25e-1034c4c56f3f","39131E2917134F0BBDE7AA001438CF7E-2025-08-07-19-22-56","","null","","[]","null","",""
"","","","","","image-button-response","18","128738","0.0-6.0-1.0-0.3","39131E2917134F0BBDE7AA001438CF7E","39131E2917134F0BBDE7AA001438CF7E","801d661b-3901-425c-a3d3-813ecf3f259c","a9f3d40c-5730-405c-b25e-1034c4c56f3f","{""num_scrambled_semantic"":""8"",""num_scrambled_causal"":""4"",""num_scrambled_schematic"":""4"",""participantId"":""39131E2917134F0BBDE7AA001438CF7E"",""assignmentId"":""801d661b-3901-425c-a3d3-813ecf3f259c"",""projectId"":""a9f3d40c-5730-405c-b25e-1034c4c56f3f""}","https://test12345.live/?num_scrambled_semantic=8&num_scrambled_causal=4&num_scrambled_schematic=4&participantId=39131E2917134F0BBDE7AA001438CF7E&assignmentId=801d661b-3901-425c-a3d3-813ecf3f259c&projectId=a9f3d40c-5730-405c-b25e-1034c4c56f3f","39131E2917134F0BBDE7AA001438CF7E-2025-08-07-19-22-56","","null","","images/instructions/movie_4.png","null","",""
"","","","","","image-button-response","19","130178","0.0-6.0-1.0-1.3","39131E2917134F0BBDE7AA001438CF7E","39131E2917134F0BBDE7AA001438CF7E","801d661b-3901-425c-a3d3-813ecf3f259c","a9f3d40c-5730-405c-b25e-1034c4c56f3f","{""num_scrambled_semantic"":""8"",""num_scrambled_causal"":""4"",""num_scrambled_schematic"":""4"",""participantId"":""39131E2917134F0BBDE7AA001438CF7E"",""assignmentId"":""801d661b-3901-425c-a3d3-813ecf3f259c"",""projectId"":""a9f3d40c-5730-405c-b25e-1034c4c56f3f""}","https://test12345.live/?num_scrambled_semantic=8&num_scrambled_causal=4&num_scrambled_schematic=4&participantId=39131E2917134F0BBDE7AA001438CF7E&assignmentId=801d661b-3901-425c-a3d3-813ecf3f259c&projectId=a9f3d40c-5730-405c-b25e-1034c4c56f3f","39131E2917134F0BBDE7AA001438CF7E-2025-08-07-19-22-56","","1439","","images/instructions/movie_4.png","0","",""
"","","","","","image-button-response","20","131984","0.0-6.0-1.0-2.3","39131E2917134F0BBDE7AA001438CF7E","39131E2917134F0BBDE7AA001438CF7E","801d661b-3901-425c-a3d3-813ecf3f259c","a9f3d40c-5730-405c-b25e-1034c4c56f3f","{""num_scrambled_semantic"":""8"",""num_scrambled_causal"":""4"",""num_scrambled_schematic"":""4"",""participantId"":""39131E2917134F0BBDE7AA001438CF7E"",""assignmentId"":""801d661b-3901-425c-a3d3-813ecf3f259c"",""projectId"":""a9f3d40c-5730-405c-b25e-1034c4c56f3f""}","https://test12345.live/?num_scrambled_semantic=8&num_scrambled_causal=4&num_scrambled_schematic=4&participantId=39131E2917134F0BBDE7AA001438CF7E&assignmentId=801d661b-3901-425c-a3d3-813ecf3f259c&projectId=a9f3d40c-5730-405c-b25e-1034c4c56f3f","39131E2917134F0BBDE7AA001438CF7E-2025-08-07-19-22-56","","null","","[]","null","",""
"","","","","","instructions","21","141862","0.0-7.0","39131E2917134F0BBDE7AA001438CF7E","39131E2917134F0BBDE7AA001438CF7E","801d661b-3901-425c-a3d3-813ecf3f259c","a9f3d40c-5730-405c-b25e-1034c4c56f3f","{""num_scrambled_semantic"":""8"",""num_scrambled_causal"":""4"",""num_scrambled_schematic"":""4"",""participantId"":""39131E2917134F0BBDE7AA001438CF7E"",""assignmentId"":""801d661b-3901-425c-a3d3-813ecf3f259c"",""projectId"":""a9f3d40c-5730-405c-b25e-1034c4c56f3f""}","https://test12345.live/?num_scrambled_semantic=8&num_scrambled_causal=4&num_scrambled_schematic=4&participantId=39131E2917134F0BBDE7AA001438CF7E&assignmentId=801d661b-3901-425c-a3d3-813ecf3f259c&projectId=a9f3d40c-5730-405c-b25e-1034c4c56f3f","39131E2917134F0BBDE7AA001438CF7E-2025-08-07-19-22-56","[{""page_index"":0,""viewing_time"":8393},{""page_index"":1,""viewing_time"":1485}]","9878","","","","",""
"","","","","","html-audio-response","22","184456","0.0-8.0","39131E2917134F0BBDE7AA001438CF7E","39131E2917134F0BBDE7AA001438CF7E","801d661b-3901-425c-a3d3-813ecf3f259c","a9f3d40c-5730-405c-b25e-1034c4c56f3f","{""num_scrambled_semantic"":""8"",""num_scrambled_causal"":""4"",""num_scrambled_schematic"":""4"",""participantId"":""39131E2917134F0BBDE7AA001438CF7E"",""assignmentId"":""801d661b-3901-425c-a3d3-813ecf3f259c"",""projectId"":""a9f3d40c-5730-405c-b25e-1034c4c56f3f""}","https://test12345.live/?num_scrambled_semantic=8&num_scrambled_causal=4&num_scrambled_schematic=4&participantId=39131E2917134F0BBDE7AA001438CF7E&assignmentId=801d661b-3901-425c-a3d3-813ecf3f259c&projectId=a9f3d40c-5730-405c-b25e-1034c4c56f3f","39131E2917134F0BBDE7AA001438CF7E-2025-08-07-19-22-56","","40965","","[""<span style=\""color: red; font-size: 24px\""> NOW RECORDING</span><p>Please say out loud all the images you saw, as many as you can remember. The images can be said in any order.</p>""]","","1",""
"","","","","","instructions","23","185727","0.0-9.0","39131E2917134F0BBDE7AA001438CF7E","39131E2917134F0BBDE7AA001438CF7E","801d661b-3901-425c-a3d3-813ecf3f259c","a9f3d40c-5730-405c-b25e-1034c4c56f3f","{""num_scrambled_semantic"":""8"",""num_scrambled_causal"":""4"",""num_scrambled_schematic"":""4"",""participantId"":""39131E2917134F0BBDE7AA001438CF7E"",""assignmentId"":""801d661b-3901-425c-a3d3-813ecf3f259c"",""projectId"":""a9f3d40c-5730-405c-b25e-1034c4c56f3f""}","https://test12345.live/?num_scrambled_semantic=8&num_scrambled_causal=4&num_scrambled_schematic=4&participantId=39131E2917134F0BBDE7AA001438CF7E&assignmentId=801d661b-3901-425c-a3d3-813ecf3f259c&projectId=a9f3d40c-5730-405c-b25e-1034c4c56f3f","39131E2917134F0BBDE7AA001438CF7E-2025-08-07-19-22-56","[{""page_index"":0,""viewing_time"":1265}]","1266","","","","",""
"","","","","","image-button-response","24","191740","0.0-10.0-0.0","39131E2917134F0BBDE7AA001438CF7E","39131E2917134F0BBDE7AA001438CF7E","801d661b-3901-425c-a3d3-813ecf3f259c","a9f3d40c-5730-405c-b25e-1034c4c56f3f","{""num_scrambled_semantic"":""8"",""num_scrambled_causal"":""4"",""num_scrambled_schematic"":""4"",""participantId"":""39131E2917134F0BBDE7AA001438CF7E"",""assignmentId"":""801d661b-3901-425c-a3d3-813ecf3f259c"",""projectId"":""a9f3d40c-5730-405c-b25e-1034c4c56f3f""}","https://test12345.live/?num_scrambled_semantic=8&num_scrambled_causal=4&num_scrambled_schematic=4&participantId=39131E2917134F0BBDE7AA001438CF7E&assignmentId=801d661b-3901-425c-a3d3-813ecf3f259c&projectId=a9f3d40c-5730-405c-b25e-1034c4c56f3f","39131E2917134F0BBDE7AA001438CF7E-2025-08-07-19-22-56","","null","","images/semantic_sequence/maintaining_a_car_semantic/maintaining_a_car_semantic_0.png","null","",""
"","","","","","image-button-response","25","196250","0.0-10.0-1.0-0.0","39131E2917134F0BBDE7AA001438CF7E","39131E2917134F0BBDE7AA001438CF7E","801d661b-3901-425c-a3d3-813ecf3f259c","a9f3d40c-5730-405c-b25e-1034c4c56f3f","{""num_scrambled_semantic"":""8"",""num_scrambled_causal"":""4"",""num_scrambled_schematic"":""4"",""participantId"":""39131E2917134F0BBDE7AA001438CF7E"",""assignmentId"":""801d661b-3901-425c-a3d3-813ecf3f259c"",""projectId"":""a9f3d40c-5730-405c-b25e-1034c4c56f3f""}","https://test12345.live/?num_scrambled_semantic=8&num_scrambled_causal=4&num_scrambled_schematic=4&participantId=39131E2917134F0BBDE7AA001438CF7E&assignmentId=801d661b-3901-425c-a3d3-813ecf3f259c&projectId=a9f3d40c-5730-405c-b25e-1034c4c56f3f","39131E2917134F0BBDE7AA001438CF7E-2025-08-07-19-22-56","","null","","images/semantic_sequence/maintaining_a_car_semantic/maintaining_a_car_semantic_6.png","null","",""
"","","","","","image-button-response","26","198000","0.0-10.0-1.0-1.0","39131E2917134F0BBDE7AA001438CF7E","39131E2917134F0BBDE7AA001438CF7E","801d661b-3901-425c-a3d3-813ecf3f259c","a9f3d40c-5730-405c-b25e-1034c4c56f3f","{""num_scrambled_semantic"":""8"",""num_scrambled_causal"":""4"",""num_scrambled_schematic"":""4"",""participantId"":""39131E2917134F0BBDE7AA001438CF7E"",""assignmentId"":""801d661b-3901-425c-a3d3-813ecf3f259c"",""projectId"":""a9f3d40c-5730-405c-b25e-1034c4c56f3f""}","https://test12345.live/?num_scrambled_semantic=8&num_scrambled_causal=4&num_scrambled_schematic=4&participantId=39131E2917134F0BBDE7AA001438CF7E&assignmentId=801d661b-3901-425c-a3d3-813ecf3f259c&projectId=a9f3d40c-5730-405c-b25e-1034c4c56f3f","39131E2917134F0BBDE7AA001438CF7E-2025-08-07-19-22-56","","1749","","images/semantic_sequence/maintaining_a_car_semantic/maintaining_a_car_semantic_6.png","0","",""
"","","","","","image-button-response","27","199803","0.0-10.0-1.0-2.0","39131E2917134F0BBDE7AA001438CF7E","39131E2917134F0BBDE7AA001438CF7E","801d661b-3901-425c-a3d3-813ecf3f259c","a9f3d40c-5730-405c-b25e-1034c4c56f3f","{""num_scrambled_semantic"":""8"",""num_scrambled_causal"":""4"",""num_scrambled_schematic"":""4"",""participantId"":""39131E2917134F0BBDE7AA001438CF7E"",""assignmentId"":""801d661b-3901-425c-a3d3-813ecf3f259c"",""projectId"":""a9f3d40c-5730-405c-b25e-1034c4c56f3f""}","https://test12345.live/?num_scrambled_semantic=8&num_scrambled_causal=4&num_scrambled_schematic=4&participantId=39131E2917134F0BBDE7AA001438CF7E&assignmentId=801d661b-3901-425c-a3d3-813ecf3f259c&projectId=a9f3d40c-5730-405c-b25e-1034c4c56f3f","39131E2917134F0BBDE7AA001438CF7E-2025-08-07-19-22-56","","null","","[]","null","",""
"","","","","","image-button-response","28","204308","0.0-10.0-1.0-0.1","39131E2917134F0BBDE7AA001438CF7E","39131E2917134F0BBDE7AA001438CF7E","801d661b-3901-425c-a3d3-813ecf3f259c","a9f3d40c-5730-405c-b25e-1034c4c56f3f","{""num_scrambled_semantic"":""8"",""num_scrambled_causal"":""4"",""num_scrambled_schematic"":""4"",""participantId"":""39131E2917134F0BBDE7AA001438CF7E"",""assignmentId"":""801d661b-3901-425c-a3d3-813ecf3f259c"",""projectId"":""a9f3d40c-5730-405c-b25e-1034c4c56f3f""}","https://test12345.live/?num_scrambled_semantic=8&num_scrambled_causal=4&num_scrambled_schematic=4&participantId=39131E2917134F0BBDE7AA001438CF7E&assignmentId=801d661b-3901-425c-a3d3-813ecf3f259c&projectId=a9f3d40c-5730-405c-b25e-1034c4c56f3f","39131E2917134F0BBDE7AA001438CF7E-2025-08-07-19-22-56","","null","","images/semantic_sequence/maintaining_a_car_semantic/maintaining_a_car_semantic_9.png","null","",""
"","","","","","image-button-response","29","205658","0.0-10.0-1.0-1.1","39131E2917134F0BBDE7AA001438CF7E","39131E2917134F0BBDE7AA001438CF7E","801d661b-3901-425c-a3d3-813ecf3f259c","a9f3d40c-5730-405c-b25e-1034c4c56f3f","{""num_scrambled_semantic"":""8"",""num_scrambled_causal"":""4"",""num_scrambled_schematic"":""4"",""participantId"":""39131E2917134F0BBDE7AA001438CF7E"",""assignmentId"":""801d661b-3901-425c-a3d3-813ecf3f259c"",""projectId"":""a9f3d40c-5730-405c-b25e-1034c4c56f3f""}","https://test12345.live/?num_scrambled_semantic=8&num_scrambled_causal=4&num_scrambled_schematic=4&participantId=39131E2917134F0BBDE7AA001438CF7E&assignmentId=801d661b-3901-425c-a3d3-813ecf3f259c&projectId=a9f3d40c-5730-405c-b25e-1034c4c56f3f","39131E2917134F0BBDE7AA001438CF7E-2025-08-07-19-22-56","","1349","","images/semantic_sequence/maintaining_a_car_semantic/maintaining_a_car_semantic_9.png","0","",""
"","","","","","image-button-response","30","207469","0.0-10.0-1.0-2.1","39131E2917134F0BBDE7AA001438CF7E","39131E2917134F0BBDE7AA001438CF7E","801d661b-3901-425c-a3d3-813ecf3f259c","a9f3d40c-5730-405c-b25e-1034c4c56f3f","{""num_scrambled_semantic"":""8"",""num_scrambled_causal"":""4"",""num_scrambled_schematic"":""4"",""participantId"":""39131E2917134F0BBDE7AA001438CF7E"",""assignmentId"":""801d661b-3901-425c-a3d3-813ecf3f259c"",""projectId"":""a9f3d40c-5730-405c-b25e-1034c4c56f3f""}","https://test12345.live/?num_scrambled_semantic=8&num_scrambled_causal=4&num_scrambled_schematic=4&participantId=39131E2917134F0BBDE7AA001438CF7E&assignmentId=801d661b-3901-425c-a3d3-813ecf3f259c&projectId=a9f3d40c-5730-405c-b25e-1034c4c56f3f","39131E2917134F0BBDE7AA001438CF7E-2025-08-07-19-22-56","","null","","[]","null","",""
"","","","","","image-button-response","31","211982","0.0-10.0-1.0-0.2","39131E2917134F0BBDE7AA001438CF7E","39131E2917134F0BBDE7AA001438CF7E","801d661b-3901-425c-a3d3-813ecf3f259c","a9f3d40c-5730-405c-b25e-1034c4c56f3f","{""num_scrambled_semantic"":""8"",""num_scrambled_causal"":""4"",""num_scrambled_schematic"":""4"",""participantId"":""39131E2917134F0BBDE7AA001438CF7E"",""assignmentId"":""801d661b-3901-425c-a3d3-813ecf3f259c"",""projectId"":""a9f3d40c-5730-405c-b25e-1034c4c56f3f""}","https://test12345.live/?num_scrambled_semantic=8&num_scrambled_causal=4&num_scrambled_schematic=4&participantId=39131E2917134F0BBDE7AA001438CF7E&assignmentId=801d661b-3901-425c-a3d3-813ecf3f259c&projectId=a9f3d40c-5730-405c-b25e-1034c4c56f3f","39131E2917134F0BBDE7AA001438CF7E-2025-08-07-19-22-56","","null","","images/semantic_sequence/maintaining_a_car_semantic/maintaining_a_car_semantic_7.png","null","",""
"","","","","","image-button-response","32","214058","0.0-10.0-1.0-1.2","39131E2917134F0BBDE7AA001438CF7E","39131E2917134F0BBDE7AA001438CF7E","801d661b-3901-425c-a3d3-813ecf3f259c","a9f3d40c-5730-405c-b25e-1034c4c56f3f","{""num_scrambled_semantic"":""8"",""num_scrambled_causal"":""4"",""num_scrambled_schematic"":""4"",""participantId"":""39131E2917134F0BBDE7AA001438CF7E"",""assignmentId"":""801d661b-3901-425c-a3d3-813ecf3f259c"",""projectId"":""a9f3d40c-5730-405c-b25e-1034c4c56f3f""}","https://test12345.live/?num_scrambled_semantic=8&num_scrambled_causal=4&num_scrambled_schematic=4&participantId=39131E2917134F0BBDE7AA001438CF7E&assignmentId=801d661b-3901-425c-a3d3-813ecf3f259c&projectId=a9f3d40c-5730-405c-b25e-1034c4c56f3f","39131E2917134F0BBDE7AA001438CF7E-2025-08-07-19-22-56","","2075","","images/semantic_sequence/maintaining_a_car_semantic/maintaining_a_car_semantic_7.png","0","",""
"","","","","","image-button-response","33","215864","0.0-10.0-1.0-2.2","39131E2917134F0BBDE7AA001438CF7E","39131E2917134F0BBDE7AA001438CF7E","801d661b-3901-425c-a3d3-813ecf3f259c","a9f3d40c-5730-405c-b25e-1034c4c56f3f","{""num_scrambled_semantic"":""8"",""num_scrambled_causal"":""4"",""num_scrambled_schematic"":""4"",""participantId"":""39131E2917134F0BBDE7AA001438CF7E"",""assignmentId"":""801d661b-3901-425c-a3d3-813ecf3f259c"",""projectId"":""a9f3d40c-5730-405c-b25e-1034c4c56f3f""}","https://test12345.live/?num_scrambled_semantic=8&num_scrambled_causal=4&num_scrambled_schematic=4&participantId=39131E2917134F0BBDE7AA001438CF7E&assignmentId=801d661b-3901-425c-a3d3-813ecf3f259c&projectId=a9f3d40c-5730-405c-b25e-1034c4c56f3f","39131E2917134F0BBDE7AA001438CF7E-2025-08-07-19-22-56","","null","","[]","null","",""
"","","","","","image-button-response","34","220367","0.0-10.0-1.0-0.3","39131E2917134F0BBDE7AA001438CF7E","39131E2917134F0BBDE7AA001438CF7E","801d661b-3901-425c-a3d3-813ecf3f259c","a9f3d40c-5730-405c-b25e-1034c4c56f3f","{""num_scrambled_semantic"":""8"",""num_scrambled_causal"":""4"",""num_scrambled_schematic"":""4"",""participantId"":""39131E2917134F0BBDE7AA001438CF7E"",""assignmentId"":""801d661b-3901-425c-a3d3-813ecf3f259c"",""projectId"":""a9f3d40c-5730-405c-b25e-1034c4c56f3f""}","https://test12345.live/?num_scrambled_semantic=8&num_scrambled_causal=4&num_scrambled_schematic=4&participantId=39131E2917134F0BBDE7AA001438CF7E&assignmentId=801d661b-3901-425c-a3d3-813ecf3f259c&projectId=a9f3d40c-5730-405c-b25e-1034c4c56f3f","39131E2917134F0BBDE7AA001438CF7E-2025-08-07-19-22-56","","null","","images/semantic_sequence/maintaining_a_car_semantic/maintaining_a_car_semantic_ten.png","null","",""
"","","","","","image-button-response","35","221013","0.0-10.0-1.0-1.3","39131E2917134F0BBDE7AA001438CF7E","39131E2917134F0BBDE7AA001438CF7E","801d661b-3901-425c-a3d3-813ecf3f259c","a9f3d40c-5730-405c-b25e-1034c4c56f3f","{""num_scrambled_semantic"":""8"",""num_scrambled_causal"":""4"",""num_scrambled_schematic"":""4"",""participantId"":""39131E2917134F0BBDE7AA001438CF7E"",""assignmentId"":""801d661b-3901-425c-a3d3-813ecf3f259c"",""projectId"":""a9f3d40c-5730-405c-b25e-1034c4c56f3f""}","https://test12345.live/?num_scrambled_semantic=8&num_scrambled_causal=4&num_scrambled_schematic=4&participantId=39131E2917134F0BBDE7AA001438CF7E&assignmentId=801d661b-3901-425c-a3d3-813ecf3f259c&projectId=a9f3d40c-5730-405c-b25e-1034c4c56f3f","39131E2917134F0BBDE7AA001438CF7E-2025-08-07-19-22-56","","645","","images/semantic_sequence/maintaining_a_car_semantic/maintaining_a_car_semantic_ten.png","0","",""
"","","","","","image-button-response","36","222819","0.0-10.0-1.0-2.3","39131E2917134F0BBDE7AA001438CF7E","39131E2917134F0BBDE7AA001438CF7E","801d661b-3901-425c-a3d3-813ecf3f259c","a9f3d40c-5730-405c-b25e-1034c4c56f3f","{""num_scrambled_semantic"":""8"",""num_scrambled_causal"":""4"",""num_scrambled_schematic"":""4"",""participantId"":""39131E2917134F0BBDE7AA001438CF7E"",""assignmentId"":""801d661b-3901-425c-a3d3-813ecf3f259c"",""projectId"":""a9f3d40c-5730-405c-b25e-1034c4c56f3f""}","https://test12345.live/?num_scrambled_semantic=8&num_scrambled_causal=4&num_scrambled_schematic=4&participantId=39131E2917134F0BBDE7AA001438CF7E&assignmentId=801d661b-3901-425c-a3d3-813ecf3f259c&projectId=a9f3d40c-5730-405c-b25e-1034c4c56f3f","39131E2917134F0BBDE7AA001438CF7E-2025-08-07-19-22-56","","null","","[]","null","",""
"","","","","","image-button-response","37","227328","0.0-10.0-1.0-0.4","39131E2917134F0BBDE7AA001438CF7E","39131E2917134F0BBDE7AA001438CF7E","801d661b-3901-425c-a3d3-813ecf3f259c","a9f3d40c-5730-405c-b25e-1034c4c56f3f","{""num_scrambled_semantic"":""8"",""num_scrambled_causal"":""4"",""num_scrambled_schematic"":""4"",""participantId"":""39131E2917134F0BBDE7AA001438CF7E"",""assignmentId"":""801d661b-3901-425c-a3d3-813ecf3f259c"",""projectId"":""a9f3d40c-5730-405c-b25e-1034c4c56f3f""}","https://test12345.live/?num_scrambled_semantic=8&num_scrambled_causal=4&num_scrambled_schematic=4&participantId=39131E2917134F0BBDE7AA001438CF7E&assignmentId=801d661b-3901-425c-a3d3-813ecf3f259c&projectId=a9f3d40c-5730-405c-b25e-1034c4c56f3f","39131E2917134F0BBDE7AA001438CF7E-2025-08-07-19-22-56","","null","","images/semantic_sequence/maintaining_a_car_semantic/maintaining_a_car_semantic_4.png","null","",""
"","","","","","image-button-response","38","228209","0.0-10.0-1.0-1.4","39131E2917134F0BBDE7AA001438CF7E","39131E2917134F0BBDE7AA001438CF7E","801d661b-3901-425c-a3d3-813ecf3f259c","a9f3d40c-5730-405c-b25e-1034c4c56f3f","{""num_scrambled_semantic"":""8"",""num_scrambled_causal"":""4"",""num_scrambled_schematic"":""4"",""participantId"":""39131E2917134F0BBDE7AA001438CF7E"",""assignmentId"":""801d661b-3901-425c-a3d3-813ecf3f259c"",""projectId"":""a9f3d40c-5730-405c-b25e-1034c4c56f3f""}","https://test12345.live/?num_scrambled_semantic=8&num_scrambled_causal=4&num_scrambled_schematic=4&participantId=39131E2917134F0BBDE7AA001438CF7E&assignmentId=801d661b-3901-425c-a3d3-813ecf3f259c&projectId=a9f3d40c-5730-405c-b25e-1034c4c56f3f","39131E2917134F0BBDE7AA001438CF7E-2025-08-07-19-22-56","","880","","images/semantic_sequence/maintaining_a_car_semantic/maintaining_a_car_semantic_4.png","0","",""
"","","","","","image-button-response","39","230012","0.0-10.0-1.0-2.4","39131E2917134F0BBDE7AA001438CF7E","39131E2917134F0BBDE7AA001438CF7E","801d661b-3901-425c-a3d3-813ecf3f259c","a9f3d40c-5730-405c-b25e-1034c4c56f3f","{""num_scrambled_semantic"":""8"",""num_scrambled_causal"":""4"",""num_scrambled_schematic"":""4"",""participantId"":""39131E2917134F0BBDE7AA001438CF7E"",""assignmentId"":""801d661b-3901-425c-a3d3-813ecf3f259c"",""projectId"":""a9f3d40c-5730-405c-b25e-1034c4c56f3f""}","https://test12345.live/?num_scrambled_semantic=8&num_scrambled_causal=4&num_scrambled_schematic=4&participantId=39131E2917134F0BBDE7AA001438CF7E&assignmentId=801d661b-3901-425c-a3d3-813ecf3f259c&projectId=a9f3d40c-5730-405c-b25e-1034c4c56f3f","39131E2917134F0BBDE7AA001438CF7E-2025-08-07-19-22-56","","null","","[]","null","",""
"","","","","","image-button-response","40","234514","0.0-10.0-1.0-0.5","39131E2917134F0BBDE7AA001438CF7E","39131E2917134F0BBDE7AA001438CF7E","801d661b-3901-425c-a3d3-813ecf3f259c","a9f3d40c-5730-405c-b25e-1034c4c56f3f","{""num_scrambled_semantic"":""8"",""num_scrambled_causal"":""4"",""num_scrambled_schematic"":""4"",""participantId"":""39131E2917134F0BBDE7AA001438CF7E"",""assignmentId"":""801d661b-3901-425c-a3d3-813ecf3f259c"",""projectId"":""a9f3d40c-5730-405c-b25e-1034c4c56f3f""}","https://test12345.live/?num_scrambled_semantic=8&num_scrambled_causal=4&num_scrambled_schematic=4&participantId=39131E2917134F0BBDE7AA001438CF7E&assignmentId=801d661b-3901-425c-a3d3-813ecf3f259c&projectId=a9f3d40c-5730-405c-b25e-1034c4c56f3f","39131E2917134F0BBDE7AA001438CF7E-2025-08-07-19-22-56","","null","","images/semantic_sequence/maintaining_a_car_semantic/maintaining_a_car_semantic_8.png","null","",""
"","","","","","image-button-response","41","236721","0.0-10.0-1.0-1.5","39131E2917134F0BBDE7AA001438CF7E","39131E2917134F0BBDE7AA001438CF7E","801d661b-3901-425c-a3d3-813ecf3f259c","a9f3d40c-5730-405c-b25e-1034c4c56f3f","{""num_scrambled_semantic"":""8"",""num_scrambled_causal"":""4"",""num_scrambled_schematic"":""4"",""participantId"":""39131E2917134F0BBDE7AA001438CF7E"",""assignmentId"":""801d661b-3901-425c-a3d3-813ecf3f259c"",""projectId"":""a9f3d40c-5730-405c-b25e-1034c4c56f3f""}","https://test12345.live/?num_scrambled_semantic=8&num_scrambled_causal=4&num_scrambled_schematic=4&participantId=39131E2917134F0BBDE7AA001438CF7E&assignmentId=801d661b-3901-425c-a3d3-813ecf3f259c&projectId=a9f3d40c-5730-405c-b25e-1034c4c56f3f","39131E2917134F0BBDE7AA001438CF7E-2025-08-07-19-22-56","","2206","","images/semantic_sequence/maintaining_a_car_semantic/maintaining_a_car_semantic_8.png","0","",""
"","","","","","image-button-response","42","238537","0.0-10.0-1.0-2.5","39131E2917134F0BBDE7AA001438CF7E","39131E2917134F0BBDE7AA001438CF7E","801d661b-3901-425c-a3d3-813ecf3f259c","a9f3d40c-5730-405c-b25e-1034c4c56f3f","{""num_scrambled_semantic"":""8"",""num_scrambled_causal"":""4"",""num_scrambled_schematic"":""4"",""participantId"":""39131E2917134F0BBDE7AA001438CF7E"",""assignmentId"":""801d661b-3901-425c-a3d3-813ecf3f259c"",""projectId"":""a9f3d40c-5730-405c-b25e-1034c4c56f3f""}","https://test12345.live/?num_scrambled_semantic=8&num_scrambled_causal=4&num_scrambled_schematic=4&participantId=39131E2917134F0BBDE7AA001438CF7E&assignmentId=801d661b-3901-425c-a3d3-813ecf3f259c&projectId=a9f3d40c-5730-405c-b25e-1034c4c56f3f","39131E2917134F0BBDE7AA001438CF7E-2025-08-07-19-22-56","","null","","[]","null","",""
"","","","","","image-button-response","43","243041","0.0-10.0-1.0-0.6","39131E2917134F0BBDE7AA001438CF7E","39131E2917134F0BBDE7AA001438CF7E","801d661b-3901-425c-a3d3-813ecf3f259c","a9f3d40c-5730-405c-b25e-1034c4c56f3f","{""num_scrambled_semantic"":""8"",""num_scrambled_causal"":""4"",""num_scrambled_schematic"":""4"",""participantId"":""39131E2917134F0BBDE7AA001438CF7E"",""assignmentId"":""801d661b-3901-425c-a3d3-813ecf3f259c"",""projectId"":""a9f3d40c-5730-405c-b25e-1034c4c56f3f""}","https://test12345.live/?num_scrambled_semantic=8&num_scrambled_causal=4&num_scrambled_schematic=4&participantId=39131E2917134F0BBDE7AA001438CF7E&assignmentId=801d661b-3901-425c-a3d3-813ecf3f259c&projectId=a9f3d40c-5730-405c-b25e-1034c4c56f3f","39131E2917134F0BBDE7AA001438CF7E-2025-08-07-19-22-56","","null","","images/semantic_sequence/maintaining_a_car_semantic/maintaining_a_car_semantic_5.png","null","",""
"","","","","","image-button-response","44","243814","0.0-10.0-1.0-1.6","39131E2917134F0BBDE7AA001438CF7E","39131E2917134F0BBDE7AA001438CF7E","801d661b-3901-425c-a3d3-813ecf3f259c","a9f3d40c-5730-405c-b25e-1034c4c56f3f","{""num_scrambled_semantic"":""8"",""num_scrambled_causal"":""4"",""num_scrambled_schematic"":""4"",""participantId"":""39131E2917134F0BBDE7AA001438CF7E"",""assignmentId"":""801d661b-3901-425c-a3d3-813ecf3f259c"",""projectId"":""a9f3d40c-5730-405c-b25e-1034c4c56f3f""}","https://test12345.live/?num_scrambled_semantic=8&num_scrambled_causal=4&num_scrambled_schematic=4&participantId=39131E2917134F0BBDE7AA001438CF7E&assignmentId=801d661b-3901-425c-a3d3-813ecf3f259c&projectId=a9f3d40c-5730-405c-b25e-1034c4c56f3f","39131E2917134F0BBDE7AA001438CF7E-2025-08-07-19-22-56","","773","","images/semantic_sequence/maintaining_a_car_semantic/maintaining_a_car_semantic_5.png","0","",""
"","","","","","image-button-response","45","245620","0.0-10.0-1.0-2.6","39131E2917134F0BBDE7AA001438CF7E","39131E2917134F0BBDE7AA001438CF7E","801d661b-3901-425c-a3d3-813ecf3f259c","a9f3d40c-5730-405c-b25e-1034c4c56f3f","{""num_scrambled_semantic"":""8"",""num_scrambled_causal"":""4"",""num_scrambled_schematic"":""4"",""participantId"":""39131E2917134F0BBDE7AA001438CF7E"",""assignmentId"":""801d661b-3901-425c-a3d3-813ecf3f259c"",""projectId"":""a9f3d40c-5730-405c-b25e-1034c4c56f3f""}","https://test12345.live/?num_scrambled_semantic=8&num_scrambled_causal=4&num_scrambled_schematic=4&participantId=39131E2917134F0BBDE7AA001438CF7E&assignmentId=801d661b-3901-425c-a3d3-813ecf3f259c&projectId=a9f3d40c-5730-405c-b25e-1034c4c56f3f","39131E2917134F0BBDE7AA001438CF7E-2025-08-07-19-22-56","","null","","[]","null","",""
"","","","","","image-button-response","46","250125","0.0-10.0-1.0-0.7","39131E2917134F0BBDE7AA001438CF7E","39131E2917134F0BBDE7AA001438CF7E","801d661b-3901-425c-a3d3-813ecf3f259c","a9f3d40c-5730-405c-b25e-1034c4c56f3f","{""num_scrambled_semantic"":""8"",""num_scrambled_causal"":""4"",""num_scrambled_schematic"":""4"",""participantId"":""39131E2917134F0BBDE7AA001438CF7E"",""assignmentId"":""801d661b-3901-425c-a3d3-813ecf3f259c"",""projectId"":""a9f3d40c-5730-405c-b25e-1034c4c56f3f""}","https://test12345.live/?num_scrambled_semantic=8&num_scrambled_causal=4&num_scrambled_schematic=4&participantId=39131E2917134F0BBDE7AA001438CF7E&assignmentId=801d661b-3901-425c-a3d3-813ecf3f259c&projectId=a9f3d40c-5730-405c-b25e-1034c4c56f3f","39131E2917134F0BBDE7AA001438CF7E-2025-08-07-19-22-56","","null","","images/semantic_sequence/maintaining_a_car_semantic/maintaining_a_car_semantic_3.png","null","",""
"","","","","","image-button-response","47","251646","0.0-10.0-1.0-1.7","39131E2917134F0BBDE7AA001438CF7E","39131E2917134F0BBDE7AA001438CF7E","801d661b-3901-425c-a3d3-813ecf3f259c","a9f3d40c-5730-405c-b25e-1034c4c56f3f","{""num_scrambled_semantic"":""8"",""num_scrambled_causal"":""4"",""num_scrambled_schematic"":""4"",""participantId"":""39131E2917134F0BBDE7AA001438CF7E"",""assignmentId"":""801d661b-3901-425c-a3d3-813ecf3f259c"",""projectId"":""a9f3d40c-5730-405c-b25e-1034c4c56f3f""}","https://test12345.live/?num_scrambled_semantic=8&num_scrambled_causal=4&num_scrambled_schematic=4&participantId=39131E2917134F0BBDE7AA001438CF7E&assignmentId=801d661b-3901-425c-a3d3-813ecf3f259c&projectId=a9f3d40c-5730-405c-b25e-1034c4c56f3f","39131E2917134F0BBDE7AA001438CF7E-2025-08-07-19-22-56","","1520","","images/semantic_sequence/maintaining_a_car_semantic/maintaining_a_car_semantic_3.png","0","",""
"","","","","","image-button-response","48","253455","0.0-10.0-1.0-2.7","39131E2917134F0BBDE7AA001438CF7E","39131E2917134F0BBDE7AA001438CF7E","801d661b-3901-425c-a3d3-813ecf3f259c","a9f3d40c-5730-405c-b25e-1034c4c56f3f","{""num_scrambled_semantic"":""8"",""num_scrambled_causal"":""4"",""num_scrambled_schematic"":""4"",""participantId"":""39131E2917134F0BBDE7AA001438CF7E"",""assignmentId"":""801d661b-3901-425c-a3d3-813ecf3f259c"",""projectId"":""a9f3d40c-5730-405c-b25e-1034c4c56f3f""}","https://test12345.live/?num_scrambled_semantic=8&num_scrambled_causal=4&num_scrambled_schematic=4&participantId=39131E2917134F0BBDE7AA001438CF7E&assignmentId=801d661b-3901-425c-a3d3-813ecf3f259c&projectId=a9f3d40c-5730-405c-b25e-1034c4c56f3f","39131E2917134F0BBDE7AA001438CF7E-2025-08-07-19-22-56","","null","","[]","null","",""
"","","","","","image-button-response","49","257965","0.0-10.0-1.0-0.8","39131E2917134F0BBDE7AA001438CF7E","39131E2917134F0BBDE7AA001438CF7E","801d661b-3901-425c-a3d3-813ecf3f259c","a9f3d40c-5730-405c-b25e-1034c4c56f3f","{""num_scrambled_semantic"":""8"",""num_scrambled_causal"":""4"",""num_scrambled_schematic"":""4"",""participantId"":""39131E2917134F0BBDE7AA001438CF7E"",""assignmentId"":""801d661b-3901-425c-a3d3-813ecf3f259c"",""projectId"":""a9f3d40c-5730-405c-b25e-1034c4c56f3f""}","https://test12345.live/?num_scrambled_semantic=8&num_scrambled_causal=4&num_scrambled_schematic=4&participantId=39131E2917134F0BBDE7AA001438CF7E&assignmentId=801d661b-3901-425c-a3d3-813ecf3f259c&projectId=a9f3d40c-5730-405c-b25e-1034c4c56f3f","39131E2917134F0BBDE7AA001438CF7E-2025-08-07-19-22-56","","null","","images/semantic_sequence/maintaining_a_car_semantic/maintaining_a_car_semantic_2.png","null","",""
"","","","","","image-button-response","50","258904","0.0-10.0-1.0-1.8","39131E2917134F0BBDE7AA001438CF7E","39131E2917134F0BBDE7AA001438CF7E","801d661b-3901-425c-a3d3-813ecf3f259c","a9f3d40c-5730-405c-b25e-1034c4c56f3f","{""num_scrambled_semantic"":""8"",""num_scrambled_causal"":""4"",""num_scrambled_schematic"":""4"",""participantId"":""39131E2917134F0BBDE7AA001438CF7E"",""assignmentId"":""801d661b-3901-425c-a3d3-813ecf3f259c"",""projectId"":""a9f3d40c-5730-405c-b25e-1034c4c56f3f""}","https://test12345.live/?num_scrambled_semantic=8&num_scrambled_causal=4&num_scrambled_schematic=4&participantId=39131E2917134F0BBDE7AA001438CF7E&assignmentId=801d661b-3901-425c-a3d3-813ecf3f259c&projectId=a9f3d40c-5730-405c-b25e-1034c4c56f3f","39131E2917134F0BBDE7AA001438CF7E-2025-08-07-19-22-56","","939","","images/semantic_sequence/maintaining_a_car_semantic/maintaining_a_car_semantic_2.png","0","",""
"","","","","","image-button-response","51","260720","0.0-10.0-1.0-2.8","39131E2917134F0BBDE7AA001438CF7E","39131E2917134F0BBDE7AA001438CF7E","801d661b-3901-425c-a3d3-813ecf3f259c","a9f3d40c-5730-405c-b25e-1034c4c56f3f","{""num_scrambled_semantic"":""8"",""num_scrambled_causal"":""4"",""num_scrambled_schematic"":""4"",""participantId"":""39131E2917134F0BBDE7AA001438CF7E"",""assignmentId"":""801d661b-3901-425c-a3d3-813ecf3f259c"",""projectId"":""a9f3d40c-5730-405c-b25e-1034c4c56f3f""}","https://test12345.live/?num_scrambled_semantic=8&num_scrambled_causal=4&num_scrambled_schematic=4&participantId=39131E2917134F0BBDE7AA001438CF7E&assignmentId=801d661b-3901-425c-a3d3-813ecf3f259c&projectId=a9f3d40c-5730-405c-b25e-1034c4c56f3f","39131E2917134F0BBDE7AA001438CF7E-2025-08-07-19-22-56","","null","","[]","null","",""
"","","","","","image-button-response","52","265227","0.0-10.0-1.0-0.9","39131E2917134F0BBDE7AA001438CF7E","39131E2917134F0BBDE7AA001438CF7E","801d661b-3901-425c-a3d3-813ecf3f259c","a9f3d40c-5730-405c-b25e-1034c4c56f3f","{""num_scrambled_semantic"":""8"",""num_scrambled_causal"":""4"",""num_scrambled_schematic"":""4"",""participantId"":""39131E2917134F0BBDE7AA001438CF7E"",""assignmentId"":""801d661b-3901-425c-a3d3-813ecf3f259c"",""projectId"":""a9f3d40c-5730-405c-b25e-1034c4c56f3f""}","https://test12345.live/?num_scrambled_semantic=8&num_scrambled_causal=4&num_scrambled_schematic=4&participantId=39131E2917134F0BBDE7AA001438CF7E&assignmentId=801d661b-3901-425c-a3d3-813ecf3f259c&projectId=a9f3d40c-5730-405c-b25e-1034c4c56f3f","39131E2917134F0BBDE7AA001438CF7E-2025-08-07-19-22-56","","null","","images/semantic_sequence/maintaining_a_car_semantic/maintaining_a_car_semantic_1.png","null","",""
"","","","","","image-button-response","53","266032","0.0-10.0-1.0-1.9","39131E2917134F0BBDE7AA001438CF7E","39131E2917134F0BBDE7AA001438CF7E","801d661b-3901-425c-a3d3-813ecf3f259c","a9f3d40c-5730-405c-b25e-1034c4c56f3f","{""num_scrambled_semantic"":""8"",""num_scrambled_causal"":""4"",""num_scrambled_schematic"":""4"",""participantId"":""39131E2917134F0BBDE7AA001438CF7E"",""assignmentId"":""801d661b-3901-425c-a3d3-813ecf3f259c"",""projectId"":""a9f3d40c-5730-405c-b25e-1034c4c56f3f""}","https://test12345.live/?num_scrambled_semantic=8&num_scrambled_causal=4&num_scrambled_schematic=4&participantId=39131E2917134F0BBDE7AA001438CF7E&assignmentId=801d661b-3901-425c-a3d3-813ecf3f259c&projectId=a9f3d40c-5730-405c-b25e-1034c4c56f3f","39131E2917134F0BBDE7AA001438CF7E-2025-08-07-19-22-56","","805","","images/semantic_sequence/maintaining_a_car_semantic/maintaining_a_car_semantic_1.png","0","",""
"","","","","","image-button-response","54","267835","0.0-10.0-1.0-2.9","39131E2917134F0BBDE7AA001438CF7E","39131E2917134F0BBDE7AA001438CF7E","801d661b-3901-425c-a3d3-813ecf3f259c","a9f3d40c-5730-405c-b25e-1034c4c56f3f","{""num_scrambled_semantic"":""8"",""num_scrambled_causal"":""4"",""num_scrambled_schematic"":""4"",""participantId"":""39131E2917134F0BBDE7AA001438CF7E"",""assignmentId"":""801d661b-3901-425c-a3d3-813ecf3f259c"",""projectId"":""a9f3d40c-5730-405c-b25e-1034c4c56f3f""}","https://test12345.live/?num_scrambled_semantic=8&num_scrambled_causal=4&num_scrambled_schematic=4&participantId=39131E2917134F0BBDE7AA001438CF7E&assignmentId=801d661b-3901-425c-a3d3-813ecf3f259c&projectId=a9f3d40c-5730-405c-b25e-1034c4c56f3f","39131E2917134F0BBDE7AA001438CF7E-2025-08-07-19-22-56","","null","","[]","null","",""
"","","","","","html-audio-response","55","308935","0.0-11.0","39131E2917134F0BBDE7AA001438CF7E","39131E2917134F0BBDE7AA001438CF7E","801d661b-3901-425c-a3d3-813ecf3f259c","a9f3d40c-5730-405c-b25e-1034c4c56f3f","{""num_scrambled_semantic"":""8"",""num_scrambled_causal"":""4"",""num_scrambled_schematic"":""4"",""participantId"":""39131E2917134F0BBDE7AA001438CF7E"",""assignmentId"":""801d661b-3901-425c-a3d3-813ecf3f259c"",""projectId"":""a9f3d40c-5730-405c-b25e-1034c4c56f3f""}","https://test12345.live/?num_scrambled_semantic=8&num_scrambled_causal=4&num_scrambled_schematic=4&participantId=39131E2917134F0BBDE7AA001438CF7E&assignmentId=801d661b-3901-425c-a3d3-813ecf3f259c&projectId=a9f3d40c-5730-405c-b25e-1034c4c56f3f","39131E2917134F0BBDE7AA001438CF7E-2025-08-07-19-22-56","","32381","","[""<span style=\""color: red; font-size: 24px\""> NOW RECORDING</span><p>Please say out loud all the images you saw, as many as you can remember. The images can be said in any order.</p>""]","","1","maintaining_a_car_semantic"
"","","","","","image-button-response","56","314952","0.0-12.0-0.0","39131E2917134F0BBDE7AA001438CF7E","39131E2917134F0BBDE7AA001438CF7E","801d661b-3901-425c-a3d3-813ecf3f259c","a9f3d40c-5730-405c-b25e-1034c4c56f3f","{""num_scrambled_semantic"":""8"",""num_scrambled_causal"":""4"",""num_scrambled_schematic"":""4"",""participantId"":""39131E2917134F0BBDE7AA001438CF7E"",""assignmentId"":""801d661b-3901-425c-a3d3-813ecf3f259c"",""projectId"":""a9f3d40c-5730-405c-b25e-1034c4c56f3f""}","https://test12345.live/?num_scrambled_semantic=8&num_scrambled_causal=4&num_scrambled_schematic=4&participantId=39131E2917134F0BBDE7AA001438CF7E&assignmentId=801d661b-3901-425c-a3d3-813ecf3f259c&projectId=a9f3d40c-5730-405c-b25e-1034c4c56f3f","39131E2917134F0BBDE7AA001438CF7E-2025-08-07-19-22-56","","null","","images/causal_sequence/museum_causal/museum_causal_0.png","null","",""
"","","","","","image-button-response","57","319466","0.0-12.0-1.0-0.0","39131E2917134F0BBDE7AA001438CF7E","39131E2917134F0BBDE7AA001438CF7E","801d661b-3901-425c-a3d3-813ecf3f259c","a9f3d40c-5730-405c-b25e-1034c4c56f3f","{""num_scrambled_semantic"":""8"",""num_scrambled_causal"":""4"",""num_scrambled_schematic"":""4"",""participantId"":""39131E2917134F0BBDE7AA001438CF7E"",""assignmentId"":""801d661b-3901-425c-a3d3-813ecf3f259c"",""projectId"":""a9f3d40c-5730-405c-b25e-1034c4c56f3f""}","https://test12345.live/?num_scrambled_semantic=8&num_scrambled_causal=4&num_scrambled_schematic=4&participantId=39131E2917134F0BBDE7AA001438CF7E&assignmentId=801d661b-3901-425c-a3d3-813ecf3f259c&projectId=a9f3d40c-5730-405c-b25e-1034c4c56f3f","39131E2917134F0BBDE7AA001438CF7E-2025-08-07-19-22-56","","null","","images/causal_sequence/museum_causal/museum_causal_5.png","null","",""
"","","","","","image-button-response","58","321455","0.0-12.0-1.0-1.0","39131E2917134F0BBDE7AA001438CF7E","39131E2917134F0BBDE7AA001438CF7E","801d661b-3901-425c-a3d3-813ecf3f259c","a9f3d40c-5730-405c-b25e-1034c4c56f3f","{""num_scrambled_semantic"":""8"",""num_scrambled_causal"":""4"",""num_scrambled_schematic"":""4"",""participantId"":""39131E2917134F0BBDE7AA001438CF7E"",""assignmentId"":""801d661b-3901-425c-a3d3-813ecf3f259c"",""projectId"":""a9f3d40c-5730-405c-b25e-1034c4c56f3f""}","https://test12345.live/?num_scrambled_semantic=8&num_scrambled_causal=4&num_scrambled_schematic=4&participantId=39131E2917134F0BBDE7AA001438CF7E&assignmentId=801d661b-3901-425c-a3d3-813ecf3f259c&projectId=a9f3d40c-5730-405c-b25e-1034c4c56f3f","39131E2917134F0BBDE7AA001438CF7E-2025-08-07-19-22-56","","1989","","images/causal_sequence/museum_causal/museum_causal_5.png","0","",""
"","","","","","image-button-response","59","323261","0.0-12.0-1.0-2.0","39131E2917134F0BBDE7AA001438CF7E","39131E2917134F0BBDE7AA001438CF7E","801d661b-3901-425c-a3d3-813ecf3f259c","a9f3d40c-5730-405c-b25e-1034c4c56f3f","{""num_scrambled_semantic"":""8"",""num_scrambled_causal"":""4"",""num_scrambled_schematic"":""4"",""participantId"":""39131E2917134F0BBDE7AA001438CF7E"",""assignmentId"":""801d661b-3901-425c-a3d3-813ecf3f259c"",""projectId"":""a9f3d40c-5730-405c-b25e-1034c4c56f3f""}","https://test12345.live/?num_scrambled_semantic=8&num_scrambled_causal=4&num_scrambled_schematic=4&participantId=39131E2917134F0BBDE7AA001438CF7E&assignmentId=801d661b-3901-425c-a3d3-813ecf3f259c&projectId=a9f3d40c-5730-405c-b25e-1034c4c56f3f","39131E2917134F0BBDE7AA001438CF7E-2025-08-07-19-22-56","","null","","[]","null","",""
"","","","","","image-button-response","60","327770","0.0-12.0-1.0-0.1","39131E2917134F0BBDE7AA001438CF7E","39131E2917134F0BBDE7AA001438CF7E","801d661b-3901-425c-a3d3-813ecf3f259c","a9f3d40c-5730-405c-b25e-1034c4c56f3f","{""num_scrambled_semantic"":""8"",""num_scrambled_causal"":""4"",""num_scrambled_schematic"":""4"",""participantId"":""39131E2917134F0BBDE7AA001438CF7E"",""assignmentId"":""801d661b-3901-425c-a3d3-813ecf3f259c"",""projectId"":""a9f3d40c-5730-405c-b25e-1034c4c56f3f""}","https://test12345.live/?num_scrambled_semantic=8&num_scrambled_causal=4&num_scrambled_schematic=4&participantId=39131E2917134F0BBDE7AA001438CF7E&assignmentId=801d661b-3901-425c-a3d3-813ecf3f259c&projectId=a9f3d40c-5730-405c-b25e-1034c4c56f3f","39131E2917134F0BBDE7AA001438CF7E-2025-08-07-19-22-56","","null","","images/causal_sequence/museum_causal/museum_causal_8.png","null","",""
"","","","","","image-button-response","61","328785","0.0-12.0-1.0-1.1","39131E2917134F0BBDE7AA001438CF7E","39131E2917134F0BBDE7AA001438CF7E","801d661b-3901-425c-a3d3-813ecf3f259c","a9f3d40c-5730-405c-b25e-1034c4c56f3f","{""num_scrambled_semantic"":""8"",""num_scrambled_causal"":""4"",""num_scrambled_schematic"":""4"",""participantId"":""39131E2917134F0BBDE7AA001438CF7E"",""assignmentId"":""801d661b-3901-425c-a3d3-813ecf3f259c"",""projectId"":""a9f3d40c-5730-405c-b25e-1034c4c56f3f""}","https://test12345.live/?num_scrambled_semantic=8&num_scrambled_causal=4&num_scrambled_schematic=4&participantId=39131E2917134F0BBDE7AA001438CF7E&assignmentId=801d661b-3901-425c-a3d3-813ecf3f259c&projectId=a9f3d40c-5730-405c-b25e-1034c4c56f3f","39131E2917134F0BBDE7AA001438CF7E-2025-08-07-19-22-56","","1015","","images/causal_sequence/museum_causal/museum_causal_8.png","0","",""
"","","","","","image-button-response","62","330587","0.0-12.0-1.0-2.1","39131E2917134F0BBDE7AA001438CF7E","39131E2917134F0BBDE7AA001438CF7E","801d661b-3901-425c-a3d3-813ecf3f259c","a9f3d40c-5730-405c-b25e-1034c4c56f3f","{""num_scrambled_semantic"":""8"",""num_scrambled_causal"":""4"",""num_scrambled_schematic"":""4"",""participantId"":""39131E2917134F0BBDE7AA001438CF7E"",""assignmentId"":""801d661b-3901-425c-a3d3-813ecf3f259c"",""projectId"":""a9f3d40c-5730-405c-b25e-1034c4c56f3f""}","https://test12345.live/?num_scrambled_semantic=8&num_scrambled_causal=4&num_scrambled_schematic=4&participantId=39131E2917134F0BBDE7AA001438CF7E&assignmentId=801d661b-3901-425c-a3d3-813ecf3f259c&projectId=a9f3d40c-5730-405c-b25e-1034c4c56f3f","39131E2917134F0BBDE7AA001438CF7E-2025-08-07-19-22-56","","null","","[]","null","",""
"","","","","","image-button-response","63","335091","0.0-12.0-1.0-0.2","39131E2917134F0BBDE7AA001438CF7E","39131E2917134F0BBDE7AA001438CF7E","801d661b-3901-425c-a3d3-813ecf3f259c","a9f3d40c-5730-405c-b25e-1034c4c56f3f","{""num_scrambled_semantic"":""8"",""num_scrambled_causal"":""4"",""num_scrambled_schematic"":""4"",""participantId"":""39131E2917134F0BBDE7AA001438CF7E"",""assignmentId"":""801d661b-3901-425c-a3d3-813ecf3f259c"",""projectId"":""a9f3d40c-5730-405c-b25e-1034c4c56f3f""}","https://test12345.live/?num_scrambled_semantic=8&num_scrambled_causal=4&num_scrambled_schematic=4&participantId=39131E2917134F0BBDE7AA001438CF7E&assignmentId=801d661b-3901-425c-a3d3-813ecf3f259c&projectId=a9f3d40c-5730-405c-b25e-1034c4c56f3f","39131E2917134F0BBDE7AA001438CF7E-2025-08-07-19-22-56","","null","","images/causal_sequence/museum_causal/museum_causal_1.png","null","",""
"","","","","","image-button-response","64","336070","0.0-12.0-1.0-1.2","39131E2917134F0BBDE7AA001438CF7E","39131E2917134F0BBDE7AA001438CF7E","801d661b-3901-425c-a3d3-813ecf3f259c","a9f3d40c-5730-405c-b25e-1034c4c56f3f","{""num_scrambled_semantic"":""8"",""num_scrambled_causal"":""4"",""num_scrambled_schematic"":""4"",""participantId"":""39131E2917134F0BBDE7AA001438CF7E"",""assignmentId"":""801d661b-3901-425c-a3d3-813ecf3f259c"",""projectId"":""a9f3d40c-5730-405c-b25e-1034c4c56f3f""}","https://test12345.live/?num_scrambled_semantic=8&num_scrambled_causal=4&num_scrambled_schematic=4&participantId=39131E2917134F0BBDE7AA001438CF7E&assignmentId=801d661b-3901-425c-a3d3-813ecf3f259c&projectId=a9f3d40c-5730-405c-b25e-1034c4c56f3f","39131E2917134F0BBDE7AA001438CF7E-2025-08-07-19-22-56","","978","","images/causal_sequence/museum_causal/museum_causal_1.png","0","",""
"","","","","","image-button-response","65","337880","0.0-12.0-1.0-2.2","39131E2917134F0BBDE7AA001438CF7E","39131E2917134F0BBDE7AA001438CF7E","801d661b-3901-425c-a3d3-813ecf3f259c","a9f3d40c-5730-405c-b25e-1034c4c56f3f","{""num_scrambled_semantic"":""8"",""num_scrambled_causal"":""4"",""num_scrambled_schematic"":""4"",""participantId"":""39131E2917134F0BBDE7AA001438CF7E"",""assignmentId"":""801d661b-3901-425c-a3d3-813ecf3f259c"",""projectId"":""a9f3d40c-5730-405c-b25e-1034c4c56f3f""}","https://test12345.live/?num_scrambled_semantic=8&num_scrambled_causal=4&num_scrambled_schematic=4&participantId=39131E2917134F0BBDE7AA001438CF7E&assignmentId=801d661b-3901-425c-a3d3-813ecf3f259c&projectId=a9f3d40c-5730-405c-b25e-1034c4c56f3f","39131E2917134F0BBDE7AA001438CF7E-2025-08-07-19-22-56","","null","","[]","null","",""
"","","","","","image-button-response","66","342388","0.0-12.0-1.0-0.3","39131E2917134F0BBDE7AA001438CF7E","39131E2917134F0BBDE7AA001438CF7E","801d661b-3901-425c-a3d3-813ecf3f259c","a9f3d40c-5730-405c-b25e-1034c4c56f3f","{""num_scrambled_semantic"":""8"",""num_scrambled_causal"":""4"",""num_scrambled_schematic"":""4"",""participantId"":""39131E2917134F0BBDE7AA001438CF7E"",""assignmentId"":""801d661b-3901-425c-a3d3-813ecf3f259c"",""projectId"":""a9f3d40c-5730-405c-b25e-1034c4c56f3f""}","https://test12345.live/?num_scrambled_semantic=8&num_scrambled_causal=4&num_scrambled_schematic=4&participantId=39131E2917134F0BBDE7AA001438CF7E&assignmentId=801d661b-3901-425c-a3d3-813ecf3f259c&projectId=a9f3d40c-5730-405c-b25e-1034c4c56f3f","39131E2917134F0BBDE7AA001438CF7E-2025-08-07-19-22-56","","null","","images/causal_sequence/museum_causal/museum_causal_2.png","null","",""
"","","","","","image-button-response","67","344684","0.0-12.0-1.0-1.3","39131E2917134F0BBDE7AA001438CF7E","39131E2917134F0BBDE7AA001438CF7E","801d661b-3901-425c-a3d3-813ecf3f259c","a9f3d40c-5730-405c-b25e-1034c4c56f3f","{""num_scrambled_semantic"":""8"",""num_scrambled_causal"":""4"",""num_scrambled_schematic"":""4"",""participantId"":""39131E2917134F0BBDE7AA001438CF7E"",""assignmentId"":""801d661b-3901-425c-a3d3-813ecf3f259c"",""projectId"":""a9f3d40c-5730-405c-b25e-1034c4c56f3f""}","https://test12345.live/?num_scrambled_semantic=8&num_scrambled_causal=4&num_scrambled_schematic=4&participantId=39131E2917134F0BBDE7AA001438CF7E&assignmentId=801d661b-3901-425c-a3d3-813ecf3f259c&projectId=a9f3d40c-5730-405c-b25e-1034c4c56f3f","39131E2917134F0BBDE7AA001438CF7E-2025-08-07-19-22-56","","2296","","images/causal_sequence/museum_causal/museum_causal_2.png","0","",""
"","","","","","image-button-response","68","346494","0.0-12.0-1.0-2.3","39131E2917134F0BBDE7AA001438CF7E","39131E2917134F0BBDE7AA001438CF7E","801d661b-3901-425c-a3d3-813ecf3f259c","a9f3d40c-5730-405c-b25e-1034c4c56f3f","{""num_scrambled_semantic"":""8"",""num_scrambled_causal"":""4"",""num_scrambled_schematic"":""4"",""participantId"":""39131E2917134F0BBDE7AA001438CF7E"",""assignmentId"":""801d661b-3901-425c-a3d3-813ecf3f259c"",""projectId"":""a9f3d40c-5730-405c-b25e-1034c4c56f3f""}","https://test12345.live/?num_scrambled_semantic=8&num_scrambled_causal=4&num_scrambled_schematic=4&participantId=39131E2917134F0BBDE7AA001438CF7E&assignmentId=801d661b-3901-425c-a3d3-813ecf3f259c&projectId=a9f3d40c-5730-405c-b25e-1034c4c56f3f","39131E2917134F0BBDE7AA001438CF7E-2025-08-07-19-22-56","","null","","[]","null","",""
"","","","","","image-button-response","69","351009","0.0-12.0-1.0-0.4","39131E2917134F0BBDE7AA001438CF7E","39131E2917134F0BBDE7AA001438CF7E","801d661b-3901-425c-a3d3-813ecf3f259c","a9f3d40c-5730-405c-b25e-1034c4c56f3f","{""num_scrambled_semantic"":""8"",""num_scrambled_causal"":""4"",""num_scrambled_schematic"":""4"",""participantId"":""39131E2917134F0BBDE7AA001438CF7E"",""assignmentId"":""801d661b-3901-425c-a3d3-813ecf3f259c"",""projectId"":""a9f3d40c-5730-405c-b25e-1034c4c56f3f""}","https://test12345.live/?num_scrambled_semantic=8&num_scrambled_causal=4&num_scrambled_schematic=4&participantId=39131E2917134F0BBDE7AA001438CF7E&assignmentId=801d661b-3901-425c-a3d3-813ecf3f259c&projectId=a9f3d40c-5730-405c-b25e-1034c4c56f3f","39131E2917134F0BBDE7AA001438CF7E-2025-08-07-19-22-56","","null","","images/causal_sequence/museum_causal/museum_causal_9.png","null","",""
"","","","","","image-button-response","70","352212","0.0-12.0-1.0-1.4","39131E2917134F0BBDE7AA001438CF7E","39131E2917134F0BBDE7AA001438CF7E","801d661b-3901-425c-a3d3-813ecf3f259c","a9f3d40c-5730-405c-b25e-1034c4c56f3f","{""num_scrambled_semantic"":""8"",""num_scrambled_causal"":""4"",""num_scrambled_schematic"":""4"",""participantId"":""39131E2917134F0BBDE7AA001438CF7E"",""assignmentId"":""801d661b-3901-425c-a3d3-813ecf3f259c"",""projectId"":""a9f3d40c-5730-405c-b25e-1034c4c56f3f""}","https://test12345.live/?num_scrambled_semantic=8&num_scrambled_causal=4&num_scrambled_schematic=4&participantId=39131E2917134F0BBDE7AA001438CF7E&assignmentId=801d661b-3901-425c-a3d3-813ecf3f259c&projectId=a9f3d40c-5730-405c-b25e-1034c4c56f3f","39131E2917134F0BBDE7AA001438CF7E-2025-08-07-19-22-56","","1203","","images/causal_sequence/museum_causal/museum_causal_9.png","1","",""
"","","","","","image-button-response","71","354025","0.0-12.0-1.0-2.4","39131E2917134F0BBDE7AA001438CF7E","39131E2917134F0BBDE7AA001438CF7E","801d661b-3901-425c-a3d3-813ecf3f259c","a9f3d40c-5730-405c-b25e-1034c4c56f3f","{""num_scrambled_semantic"":""8"",""num_scrambled_causal"":""4"",""num_scrambled_schematic"":""4"",""participantId"":""39131E2917134F0BBDE7AA001438CF7E"",""assignmentId"":""801d661b-3901-425c-a3d3-813ecf3f259c"",""projectId"":""a9f3d40c-5730-405c-b25e-1034c4c56f3f""}","https://test12345.live/?num_scrambled_semantic=8&num_scrambled_causal=4&num_scrambled_schematic=4&participantId=39131E2917134F0BBDE7AA001438CF7E&assignmentId=801d661b-3901-425c-a3d3-813ecf3f259c&projectId=a9f3d40c-5730-405c-b25e-1034c4c56f3f","39131E2917134F0BBDE7AA001438CF7E-2025-08-07-19-22-56","","null","","[]","null","",""
"","","","","","image-button-response","72","358526","0.0-12.0-1.0-0.5","39131E2917134F0BBDE7AA001438CF7E","39131E2917134F0BBDE7AA001438CF7E","801d661b-3901-425c-a3d3-813ecf3f259c","a9f3d40c-5730-405c-b25e-1034c4c56f3f","{""num_scrambled_semantic"":""8"",""num_scrambled_causal"":""4"",""num_scrambled_schematic"":""4"",""participantId"":""39131E2917134F0BBDE7AA001438CF7E"",""assignmentId"":""801d661b-3901-425c-a3d3-813ecf3f259c"",""projectId"":""a9f3d40c-5730-405c-b25e-1034c4c56f3f""}","https://test12345.live/?num_scrambled_semantic=8&num_scrambled_causal=4&num_scrambled_schematic=4&participantId=39131E2917134F0BBDE7AA001438CF7E&assignmentId=801d661b-3901-425c-a3d3-813ecf3f259c&projectId=a9f3d40c-5730-405c-b25e-1034c4c56f3f","39131E2917134F0BBDE7AA001438CF7E-2025-08-07-19-22-56","","null","","images/causal_sequence/museum_causal/museum_causal_3.png","null","",""
"","","","","","image-button-response","73","359295","0.0-12.0-1.0-1.5","39131E2917134F0BBDE7AA001438CF7E","39131E2917134F0BBDE7AA001438CF7E","801d661b-3901-425c-a3d3-813ecf3f259c","a9f3d40c-5730-405c-b25e-1034c4c56f3f","{""num_scrambled_semantic"":""8"",""num_scrambled_causal"":""4"",""num_scrambled_schematic"":""4"",""participantId"":""39131E2917134F0BBDE7AA001438CF7E"",""assignmentId"":""801d661b-3901-425c-a3d3-813ecf3f259c"",""projectId"":""a9f3d40c-5730-405c-b25e-1034c4c56f3f""}","https://test12345.live/?num_scrambled_semantic=8&num_scrambled_causal=4&num_scrambled_schematic=4&participantId=39131E2917134F0BBDE7AA001438CF7E&assignmentId=801d661b-3901-425c-a3d3-813ecf3f259c&projectId=a9f3d40c-5730-405c-b25e-1034c4c56f3f","39131E2917134F0BBDE7AA001438CF7E-2025-08-07-19-22-56","","769","","images/causal_sequence/museum_causal/museum_causal_3.png","0","",""
"","","","","","image-button-response","74","361099","0.0-12.0-1.0-2.5","39131E2917134F0BBDE7AA001438CF7E","39131E2917134F0BBDE7AA001438CF7E","801d661b-3901-425c-a3d3-813ecf3f259c","a9f3d40c-5730-405c-b25e-1034c4c56f3f","{""num_scrambled_semantic"":""8"",""num_scrambled_causal"":""4"",""num_scrambled_schematic"":""4"",""participantId"":""39131E2917134F0BBDE7AA001438CF7E"",""assignmentId"":""801d661b-3901-425c-a3d3-813ecf3f259c"",""projectId"":""a9f3d40c-5730-405c-b25e-1034c4c56f3f""}","https://test12345.live/?num_scrambled_semantic=8&num_scrambled_causal=4&num_scrambled_schematic=4&participantId=39131E2917134F0BBDE7AA001438CF7E&assignmentId=801d661b-3901-425c-a3d3-813ecf3f259c&projectId=a9f3d40c-5730-405c-b25e-1034c4c56f3f","39131E2917134F0BBDE7AA001438CF7E-2025-08-07-19-22-56","","null","","[]","null","",""
"","","","","","image-button-response","75","365611","0.0-12.0-1.0-0.6","39131E2917134F0BBDE7AA001438CF7E","39131E2917134F0BBDE7AA001438CF7E","801d661b-3901-425c-a3d3-813ecf3f259c","a9f3d40c-5730-405c-b25e-1034c4c56f3f","{""num_scrambled_semantic"":""8"",""num_scrambled_causal"":""4"",""num_scrambled_schematic"":""4"",""participantId"":""39131E2917134F0BBDE7AA001438CF7E"",""assignmentId"":""801d661b-3901-425c-a3d3-813ecf3f259c"",""projectId"":""a9f3d40c-5730-405c-b25e-1034c4c56f3f""}","https://test12345.live/?num_scrambled_semantic=8&num_scrambled_causal=4&num_scrambled_schematic=4&participantId=39131E2917134F0BBDE7AA001438CF7E&assignmentId=801d661b-3901-425c-a3d3-813ecf3f259c&projectId=a9f3d40c-5730-405c-b25e-1034c4c56f3f","39131E2917134F0BBDE7AA001438CF7E-2025-08-07-19-22-56","","null","","images/causal_sequence/museum_causal/museum_causal_7.png","null","",""
"","","","","","image-button-response","76","367518","0.0-12.0-1.0-1.6","39131E2917134F0BBDE7AA001438CF7E","39131E2917134F0BBDE7AA001438CF7E","801d661b-3901-425c-a3d3-813ecf3f259c","a9f3d40c-5730-405c-b25e-1034c4c56f3f","{""num_scrambled_semantic"":""8"",""num_scrambled_causal"":""4"",""num_scrambled_schematic"":""4"",""participantId"":""39131E2917134F0BBDE7AA001438CF7E"",""assignmentId"":""801d661b-3901-425c-a3d3-813ecf3f259c"",""projectId"":""a9f3d40c-5730-405c-b25e-1034c4c56f3f""}","https://test12345.live/?num_scrambled_semantic=8&num_scrambled_causal=4&num_scrambled_schematic=4&participantId=39131E2917134F0BBDE7AA001438CF7E&assignmentId=801d661b-3901-425c-a3d3-813ecf3f259c&projectId=a9f3d40c-5730-405c-b25e-1034c4c56f3f","39131E2917134F0BBDE7AA001438CF7E-2025-08-07-19-22-56","","1907","","images/causal_sequence/museum_causal/museum_causal_7.png","1","",""
"","","","","","image-button-response","77","369321","0.0-12.0-1.0-2.6","39131E2917134F0BBDE7AA001438CF7E","39131E2917134F0BBDE7AA001438CF7E","801d661b-3901-425c-a3d3-813ecf3f259c","a9f3d40c-5730-405c-b25e-1034c4c56f3f","{""num_scrambled_semantic"":""8"",""num_scrambled_causal"":""4"",""num_scrambled_schematic"":""4"",""participantId"":""39131E2917134F0BBDE7AA001438CF7E"",""assignmentId"":""801d661b-3901-425c-a3d3-813ecf3f259c"",""projectId"":""a9f3d40c-5730-405c-b25e-1034c4c56f3f""}","https://test12345.live/?num_scrambled_semantic=8&num_scrambled_causal=4&num_scrambled_schematic=4&participantId=39131E2917134F0BBDE7AA001438CF7E&assignmentId=801d661b-3901-425c-a3d3-813ecf3f259c&projectId=a9f3d40c-5730-405c-b25e-1034c4c56f3f","39131E2917134F0BBDE7AA001438CF7E-2025-08-07-19-22-56","","null","","[]","null","",""
"","","","","","image-button-response","78","373826","0.0-12.0-1.0-0.7","39131E2917134F0BBDE7AA001438CF7E","39131E2917134F0BBDE7AA001438CF7E","801d661b-3901-425c-a3d3-813ecf3f259c","a9f3d40c-5730-405c-b25e-1034c4c56f3f","{""num_scrambled_semantic"":""8"",""num_scrambled_causal"":""4"",""num_scrambled_schematic"":""4"",""participantId"":""39131E2917134F0BBDE7AA001438CF7E"",""assignmentId"":""801d661b-3901-425c-a3d3-813ecf3f259c"",""projectId"":""a9f3d40c-5730-405c-b25e-1034c4c56f3f""}","https://test12345.live/?num_scrambled_semantic=8&num_scrambled_causal=4&num_scrambled_schematic=4&participantId=39131E2917134F0BBDE7AA001438CF7E&assignmentId=801d661b-3901-425c-a3d3-813ecf3f259c&projectId=a9f3d40c-5730-405c-b25e-1034c4c56f3f","39131E2917134F0BBDE7AA001438CF7E-2025-08-07-19-22-56","","null","","images/causal_sequence/museum_causal/museum_causal_6.png","null","",""
"","","","","","image-button-response","79","374886","0.0-12.0-1.0-1.7","39131E2917134F0BBDE7AA001438CF7E","39131E2917134F0BBDE7AA001438CF7E","801d661b-3901-425c-a3d3-813ecf3f259c","a9f3d40c-5730-405c-b25e-1034c4c56f3f","{""num_scrambled_semantic"":""8"",""num_scrambled_causal"":""4"",""num_scrambled_schematic"":""4"",""participantId"":""39131E2917134F0BBDE7AA001438CF7E"",""assignmentId"":""801d661b-3901-425c-a3d3-813ecf3f259c"",""projectId"":""a9f3d40c-5730-405c-b25e-1034c4c56f3f""}","https://test12345.live/?num_scrambled_semantic=8&num_scrambled_causal=4&num_scrambled_schematic=4&participantId=39131E2917134F0BBDE7AA001438CF7E&assignmentId=801d661b-3901-425c-a3d3-813ecf3f259c&projectId=a9f3d40c-5730-405c-b25e-1034c4c56f3f","39131E2917134F0BBDE7AA001438CF7E-2025-08-07-19-22-56","","1059","","images/causal_sequence/museum_causal/museum_causal_6.png","0","",""
"","","","","","image-button-response","80","376692","0.0-12.0-1.0-2.7","39131E2917134F0BBDE7AA001438CF7E","39131E2917134F0BBDE7AA001438CF7E","801d661b-3901-425c-a3d3-813ecf3f259c","a9f3d40c-5730-405c-b25e-1034c4c56f3f","{""num_scrambled_semantic"":""8"",""num_scrambled_causal"":""4"",""num_scrambled_schematic"":""4"",""participantId"":""39131E2917134F0BBDE7AA001438CF7E"",""assignmentId"":""801d661b-3901-425c-a3d3-813ecf3f259c"",""projectId"":""a9f3d40c-5730-405c-b25e-1034c4c56f3f""}","https://test12345.live/?num_scrambled_semantic=8&num_scrambled_causal=4&num_scrambled_schematic=4&participantId=39131E2917134F0BBDE7AA001438CF7E&assignmentId=801d661b-3901-425c-a3d3-813ecf3f259c&projectId=a9f3d40c-5730-405c-b25e-1034c4c56f3f","39131E2917134F0BBDE7AA001438CF7E-2025-08-07-19-22-56","","null","","[]","null","",""
"","","","","","image-button-response","81","381193","0.0-12.0-1.0-0.8","39131E2917134F0BBDE7AA001438CF7E","39131E2917134F0BBDE7AA001438CF7E","801d661b-3901-425c-a3d3-813ecf3f259c","a9f3d40c-5730-405c-b25e-1034c4c56f3f","{""num_scrambled_semantic"":""8"",""num_scrambled_causal"":""4"",""num_scrambled_schematic"":""4"",""participantId"":""39131E2917134F0BBDE7AA001438CF7E"",""assignmentId"":""801d661b-3901-425c-a3d3-813ecf3f259c"",""projectId"":""a9f3d40c-5730-405c-b25e-1034c4c56f3f""}","https://test12345.live/?num_scrambled_semantic=8&num_scrambled_causal=4&num_scrambled_schematic=4&participantId=39131E2917134F0BBDE7AA001438CF7E&assignmentId=801d661b-3901-425c-a3d3-813ecf3f259c&projectId=a9f3d40c-5730-405c-b25e-1034c4c56f3f","39131E2917134F0BBDE7AA001438CF7E-2025-08-07-19-22-56","","null","","images/causal_sequence/museum_causal/museum_causal_ten.png","null","",""
"","","","","","image-button-response","82","381739","0.0-12.0-1.0-1.8","39131E2917134F0BBDE7AA001438CF7E","39131E2917134F0BBDE7AA001438CF7E","801d661b-3901-425c-a3d3-813ecf3f259c","a9f3d40c-5730-405c-b25e-1034c4c56f3f","{""num_scrambled_semantic"":""8"",""num_scrambled_causal"":""4"",""num_scrambled_schematic"":""4"",""participantId"":""39131E2917134F0BBDE7AA001438CF7E"",""assignmentId"":""801d661b-3901-425c-a3d3-813ecf3f259c"",""projectId"":""a9f3d40c-5730-405c-b25e-1034c4c56f3f""}","https://test12345.live/?num_scrambled_semantic=8&num_scrambled_causal=4&num_scrambled_schematic=4&participantId=39131E2917134F0BBDE7AA001438CF7E&assignmentId=801d661b-3901-425c-a3d3-813ecf3f259c&projectId=a9f3d40c-5730-405c-b25e-1034c4c56f3f","39131E2917134F0BBDE7AA001438CF7E-2025-08-07-19-22-56","","545","","images/causal_sequence/museum_causal/museum_causal_ten.png","0","",""
"","","","","","image-button-response","83","383552","0.0-12.0-1.0-2.8","39131E2917134F0BBDE7AA001438CF7E","39131E2917134F0BBDE7AA001438CF7E","801d661b-3901-425c-a3d3-813ecf3f259c","a9f3d40c-5730-405c-b25e-1034c4c56f3f","{""num_scrambled_semantic"":""8"",""num_scrambled_causal"":""4"",""num_scrambled_schematic"":""4"",""participantId"":""39131E2917134F0BBDE7AA001438CF7E"",""assignmentId"":""801d661b-3901-425c-a3d3-813ecf3f259c"",""projectId"":""a9f3d40c-5730-405c-b25e-1034c4c56f3f""}","https://test12345.live/?num_scrambled_semantic=8&num_scrambled_causal=4&num_scrambled_schematic=4&participantId=39131E2917134F0BBDE7AA001438CF7E&assignmentId=801d661b-3901-425c-a3d3-813ecf3f259c&projectId=a9f3d40c-5730-405c-b25e-1034c4c56f3f","39131E2917134F0BBDE7AA001438CF7E-2025-08-07-19-22-56","","null","","[]","null","",""
"","","","","","image-button-response","84","388056","0.0-12.0-1.0-0.9","39131E2917134F0BBDE7AA001438CF7E","39131E2917134F0BBDE7AA001438CF7E","801d661b-3901-425c-a3d3-813ecf3f259c","a9f3d40c-5730-405c-b25e-1034c4c56f3f","{""num_scrambled_semantic"":""8"",""num_scrambled_causal"":""4"",""num_scrambled_schematic"":""4"",""participantId"":""39131E2917134F0BBDE7AA001438CF7E"",""assignmentId"":""801d661b-3901-425c-a3d3-813ecf3f259c"",""projectId"":""a9f3d40c-5730-405c-b25e-1034c4c56f3f""}","https://test12345.live/?num_scrambled_semantic=8&num_scrambled_causal=4&num_scrambled_schematic=4&participantId=39131E2917134F0BBDE7AA001438CF7E&assignmentId=801d661b-3901-425c-a3d3-813ecf3f259c&projectId=a9f3d40c-5730-405c-b25e-1034c4c56f3f","39131E2917134F0BBDE7AA001438CF7E-2025-08-07-19-22-56","","null","","images/causal_sequence/museum_causal/museum_causal_4.png","null","",""
"","","","","","image-button-response","85","389225","0.0-12.0-1.0-1.9","39131E2917134F0BBDE7AA001438CF7E","39131E2917134F0BBDE7AA001438CF7E","801d661b-3901-425c-a3d3-813ecf3f259c","a9f3d40c-5730-405c-b25e-1034c4c56f3f","{""num_scrambled_semantic"":""8"",""num_scrambled_causal"":""4"",""num_scrambled_schematic"":""4"",""participantId"":""39131E2917134F0BBDE7AA001438CF7E"",""assignmentId"":""801d661b-3901-425c-a3d3-813ecf3f259c"",""projectId"":""a9f3d40c-5730-405c-b25e-1034c4c56f3f""}","https://test12345.live/?num_scrambled_semantic=8&num_scrambled_causal=4&num_scrambled_schematic=4&participantId=39131E2917134F0BBDE7AA001438CF7E&assignmentId=801d661b-3901-425c-a3d3-813ecf3f259c&projectId=a9f3d40c-5730-405c-b25e-1034c4c56f3f","39131E2917134F0BBDE7AA001438CF7E-2025-08-07-19-22-56","","1169","","images/causal_sequence/museum_causal/museum_causal_4.png","1","",""
"","","","","","image-button-response","86","391026","0.0-12.0-1.0-2.9","39131E2917134F0BBDE7AA001438CF7E","39131E2917134F0BBDE7AA001438CF7E","801d661b-3901-425c-a3d3-813ecf3f259c","a9f3d40c-5730-405c-b25e-1034c4c56f3f","{""num_scrambled_semantic"":""8"",""num_scrambled_causal"":""4"",""num_scrambled_schematic"":""4"",""participantId"":""39131E2917134F0BBDE7AA001438CF7E"",""assignmentId"":""801d661b-3901-425c-a3d3-813ecf3f259c"",""projectId"":""a9f3d40c-5730-405c-b25e-1034c4c56f3f""}","https://test12345.live/?num_scrambled_semantic=8&num_scrambled_causal=4&num_scrambled_schematic=4&participantId=39131E2917134F0BBDE7AA001438CF7E&assignmentId=801d661b-3901-425c-a3d3-813ecf3f259c&projectId=a9f3d40c-5730-405c-b25e-1034c4c56f3f","39131E2917134F0BBDE7AA001438CF7E-2025-08-07-19-22-56","","null","","[]","null","",""
"","","","","","html-audio-response","87","433747","0.0-13.0","39131E2917134F0BBDE7AA001438CF7E","39131E2917134F0BBDE7AA001438CF7E","801d661b-3901-425c-a3d3-813ecf3f259c","a9f3d40c-5730-405c-b25e-1034c4c56f3f","{""num_scrambled_semantic"":""8"",""num_scrambled_causal"":""4"",""num_scrambled_schematic"":""4"",""participantId"":""39131E2917134F0BBDE7AA001438CF7E"",""assignmentId"":""801d661b-3901-425c-a3d3-813ecf3f259c"",""projectId"":""a9f3d40c-5730-405c-b25e-1034c4c56f3f""}","https://test12345.live/?num_scrambled_semantic=8&num_scrambled_causal=4&num_scrambled_schematic=4&participantId=39131E2917134F0BBDE7AA001438CF7E&assignmentId=801d661b-3901-425c-a3d3-813ecf3f259c&projectId=a9f3d40c-5730-405c-b25e-1034c4c56f3f","39131E2917134F0BBDE7AA001438CF7E-2025-08-07-19-22-56","","41029","","[""<span style=\""color: red; font-size: 24px\""> NOW RECORDING</span><p>Please say out loud all the images you saw, as many as you can remember. The images can be said in any order.</p>""]","","1","museum_causal"
"","","","","","image-button-response","88","439754","0.0-14.0-0.0","39131E2917134F0BBDE7AA001438CF7E","39131E2917134F0BBDE7AA001438CF7E","801d661b-3901-425c-a3d3-813ecf3f259c","a9f3d40c-5730-405c-b25e-1034c4c56f3f","{""num_scrambled_semantic"":""8"",""num_scrambled_causal"":""4"",""num_scrambled_schematic"":""4"",""participantId"":""39131E2917134F0BBDE7AA001438CF7E"",""assignmentId"":""801d661b-3901-425c-a3d3-813ecf3f259c"",""projectId"":""a9f3d40c-5730-405c-b25e-1034c4c56f3f""}","https://test12345.live/?num_scrambled_semantic=8&num_scrambled_causal=4&num_scrambled_schematic=4&participantId=39131E2917134F0BBDE7AA001438CF7E&assignmentId=801d661b-3901-425c-a3d3-813ecf3f259c&projectId=a9f3d40c-5730-405c-b25e-1034c4c56f3f","39131E2917134F0BBDE7AA001438CF7E-2025-08-07-19-22-56","","null","","images/semantic_sequence/using_technology_semantic/using_technology_semantic_0.png","null","",""
"","","","","","image-button-response","89","444261","0.0-14.0-1.0-0.0","39131E2917134F0BBDE7AA001438CF7E","39131E2917134F0BBDE7AA001438CF7E","801d661b-3901-425c-a3d3-813ecf3f259c","a9f3d40c-5730-405c-b25e-1034c4c56f3f","{""num_scrambled_semantic"":""8"",""num_scrambled_causal"":""4"",""num_scrambled_schematic"":""4"",""participantId"":""39131E2917134F0BBDE7AA001438CF7E"",""assignmentId"":""801d661b-3901-425c-a3d3-813ecf3f259c"",""projectId"":""a9f3d40c-5730-405c-b25e-1034c4c56f3f""}","https://test12345.live/?num_scrambled_semantic=8&num_scrambled_causal=4&num_scrambled_schematic=4&participantId=39131E2917134F0BBDE7AA001438CF7E&assignmentId=801d661b-3901-425c-a3d3-813ecf3f259c&projectId=a9f3d40c-5730-405c-b25e-1034c4c56f3f","39131E2917134F0BBDE7AA001438CF7E-2025-08-07-19-22-56","","null","","images/semantic_sequence/using_technology_semantic/using_technology_semantic_3.png","null","",""
"","","","","","image-button-response","90","446050","0.0-14.0-1.0-1.0","39131E2917134F0BBDE7AA001438CF7E","39131E2917134F0BBDE7AA001438CF7E","801d661b-3901-425c-a3d3-813ecf3f259c","a9f3d40c-5730-405c-b25e-1034c4c56f3f","{""num_scrambled_semantic"":""8"",""num_scrambled_causal"":""4"",""num_scrambled_schematic"":""4"",""participantId"":""39131E2917134F0BBDE7AA001438CF7E"",""assignmentId"":""801d661b-3901-425c-a3d3-813ecf3f259c"",""projectId"":""a9f3d40c-5730-405c-b25e-1034c4c56f3f""}","https://test12345.live/?num_scrambled_semantic=8&num_scrambled_causal=4&num_scrambled_schematic=4&participantId=39131E2917134F0BBDE7AA001438CF7E&assignmentId=801d661b-3901-425c-a3d3-813ecf3f259c&projectId=a9f3d40c-5730-405c-b25e-1034c4c56f3f","39131E2917134F0BBDE7AA001438CF7E-2025-08-07-19-22-56","","1788","","images/semantic_sequence/using_technology_semantic/using_technology_semantic_3.png","0","",""
"","","","","","image-button-response","91","447862","0.0-14.0-1.0-2.0","39131E2917134F0BBDE7AA001438CF7E","39131E2917134F0BBDE7AA001438CF7E","801d661b-3901-425c-a3d3-813ecf3f259c","a9f3d40c-5730-405c-b25e-1034c4c56f3f","{""num_scrambled_semantic"":""8"",""num_scrambled_causal"":""4"",""num_scrambled_schematic"":""4"",""participantId"":""39131E2917134F0BBDE7AA001438CF7E"",""assignmentId"":""801d661b-3901-425c-a3d3-813ecf3f259c"",""projectId"":""a9f3d40c-5730-405c-b25e-1034c4c56f3f""}","https://test12345.live/?num_scrambled_semantic=8&num_scrambled_causal=4&num_scrambled_schematic=4&participantId=39131E2917134F0BBDE7AA001438CF7E&assignmentId=801d661b-3901-425c-a3d3-813ecf3f259c&projectId=a9f3d40c-5730-405c-b25e-1034c4c56f3f","39131E2917134F0BBDE7AA001438CF7E-2025-08-07-19-22-56","","null","","[]","null","",""
"","","","","","image-button-response","92","452368","0.0-14.0-1.0-0.1","39131E2917134F0BBDE7AA001438CF7E","39131E2917134F0BBDE7AA001438CF7E","801d661b-3901-425c-a3d3-813ecf3f259c","a9f3d40c-5730-405c-b25e-1034c4c56f3f","{""num_scrambled_semantic"":""8"",""num_scrambled_causal"":""4"",""num_scrambled_schematic"":""4"",""participantId"":""39131E2917134F0BBDE7AA001438CF7E"",""assignmentId"":""801d661b-3901-425c-a3d3-813ecf3f259c"",""projectId"":""a9f3d40c-5730-405c-b25e-1034c4c56f3f""}","https://test12345.live/?num_scrambled_semantic=8&num_scrambled_causal=4&num_scrambled_schematic=4&participantId=39131E2917134F0BBDE7AA001438CF7E&assignmentId=801d661b-3901-425c-a3d3-813ecf3f259c&projectId=a9f3d40c-5730-405c-b25e-1034c4c56f3f","39131E2917134F0BBDE7AA001438CF7E-2025-08-07-19-22-56","","null","","images/semantic_sequence/using_technology_semantic/using_technology_semantic_5.png","null","",""
"","","","","","image-button-response","93","452799","0.0-14.0-1.0-1.1","39131E2917134F0BBDE7AA001438CF7E","39131E2917134F0BBDE7AA001438CF7E","801d661b-3901-425c-a3d3-813ecf3f259c","a9f3d40c-5730-405c-b25e-1034c4c56f3f","{""num_scrambled_semantic"":""8"",""num_scrambled_causal"":""4"",""num_scrambled_schematic"":""4"",""participantId"":""39131E2917134F0BBDE7AA001438CF7E"",""assignmentId"":""801d661b-3901-425c-a3d3-813ecf3f259c"",""projectId"":""a9f3d40c-5730-405c-b25e-1034c4c56f3f""}","https://test12345.live/?num_scrambled_semantic=8&num_scrambled_causal=4&num_scrambled_schematic=4&participantId=39131E2917134F0BBDE7AA001438CF7E&assignmentId=801d661b-3901-425c-a3d3-813ecf3f259c&projectId=a9f3d40c-5730-405c-b25e-1034c4c56f3f","39131E2917134F0BBDE7AA001438CF7E-2025-08-07-19-22-56","","431","","images/semantic_sequence/using_technology_semantic/using_technology_semantic_5.png","0","",""
"","","","","","image-button-response","94","454606","0.0-14.0-1.0-2.1","39131E2917134F0BBDE7AA001438CF7E","39131E2917134F0BBDE7AA001438CF7E","801d661b-3901-425c-a3d3-813ecf3f259c","a9f3d40c-5730-405c-b25e-1034c4c56f3f","{""num_scrambled_semantic"":""8"",""num_scrambled_causal"":""4"",""num_scrambled_schematic"":""4"",""participantId"":""39131E2917134F0BBDE7AA001438CF7E"",""assignmentId"":""801d661b-3901-425c-a3d3-813ecf3f259c"",""projectId"":""a9f3d40c-5730-405c-b25e-1034c4c56f3f""}","https://test12345.live/?num_scrambled_semantic=8&num_scrambled_causal=4&num_scrambled_schematic=4&participantId=39131E2917134F0BBDE7AA001438CF7E&assignmentId=801d661b-3901-425c-a3d3-813ecf3f259c&projectId=a9f3d40c-5730-405c-b25e-1034c4c56f3f","39131E2917134F0BBDE7AA001438CF7E-2025-08-07-19-22-56","","null","","[]","null","",""
"","","","","","image-button-response","95","459116","0.0-14.0-1.0-0.2","39131E2917134F0BBDE7AA001438CF7E","39131E2917134F0BBDE7AA001438CF7E","801d661b-3901-425c-a3d3-813ecf3f259c","a9f3d40c-5730-405c-b25e-1034c4c56f3f","{""num_scrambled_semantic"":""8"",""num_scrambled_causal"":""4"",""num_scrambled_schematic"":""4"",""participantId"":""39131E2917134F0BBDE7AA001438CF7E"",""assignmentId"":""801d661b-3901-425c-a3d3-813ecf3f259c"",""projectId"":""a9f3d40c-5730-405c-b25e-1034c4c56f3f""}","https://test12345.live/?num_scrambled_semantic=8&num_scrambled_causal=4&num_scrambled_schematic=4&participantId=39131E2917134F0BBDE7AA001438CF7E&assignmentId=801d661b-3901-425c-a3d3-813ecf3f259c&projectId=a9f3d40c-5730-405c-b25e-1034c4c56f3f","39131E2917134F0BBDE7AA001438CF7E-2025-08-07-19-22-56","","null","","images/semantic_sequence/using_technology_semantic/using_technology_semantic_1.png","null","",""
"","","","","","image-button-response","96","459908","0.0-14.0-1.0-1.2","39131E2917134F0BBDE7AA001438CF7E","39131E2917134F0BBDE7AA001438CF7E","801d661b-3901-425c-a3d3-813ecf3f259c","a9f3d40c-5730-405c-b25e-1034c4c56f3f","{""num_scrambled_semantic"":""8"",""num_scrambled_causal"":""4"",""num_scrambled_schematic"":""4"",""participantId"":""39131E2917134F0BBDE7AA001438CF7E"",""assignmentId"":""801d661b-3901-425c-a3d3-813ecf3f259c"",""projectId"":""a9f3d40c-5730-405c-b25e-1034c4c56f3f""}","https://test12345.live/?num_scrambled_semantic=8&num_scrambled_causal=4&num_scrambled_schematic=4&participantId=39131E2917134F0BBDE7AA001438CF7E&assignmentId=801d661b-3901-425c-a3d3-813ecf3f259c&projectId=a9f3d40c-5730-405c-b25e-1034c4c56f3f","39131E2917134F0BBDE7AA001438CF7E-2025-08-07-19-22-56","","791","","images/semantic_sequence/using_technology_semantic/using_technology_semantic_1.png","0","",""
"","","","","","image-button-response","97","461717","0.0-14.0-1.0-2.2","39131E2917134F0BBDE7AA001438CF7E","39131E2917134F0BBDE7AA001438CF7E","801d661b-3901-425c-a3d3-813ecf3f259c","a9f3d40c-5730-405c-b25e-1034c4c56f3f","{""num_scrambled_semantic"":""8"",""num_scrambled_causal"":""4"",""num_scrambled_schematic"":""4"",""participantId"":""39131E2917134F0BBDE7AA001438CF7E"",""assignmentId"":""801d661b-3901-425c-a3d3-813ecf3f259c"",""projectId"":""a9f3d40c-5730-405c-b25e-1034c4c56f3f""}","https://test12345.live/?num_scrambled_semantic=8&num_scrambled_causal=4&num_scrambled_schematic=4&participantId=39131E2917134F0BBDE7AA001438CF7E&assignmentId=801d661b-3901-425c-a3d3-813ecf3f259c&projectId=a9f3d40c-5730-405c-b25e-1034c4c56f3f","39131E2917134F0BBDE7AA001438CF7E-2025-08-07-19-22-56","","null","","[]","null","",""
"","","","","","image-button-response","98","466231","0.0-14.0-1.0-0.3","39131E2917134F0BBDE7AA001438CF7E","39131E2917134F0BBDE7AA001438CF7E","801d661b-3901-425c-a3d3-813ecf3f259c","a9f3d40c-5730-405c-b25e-1034c4c56f3f","{""num_scrambled_semantic"":""8"",""num_scrambled_causal"":""4"",""num_scrambled_schematic"":""4"",""participantId"":""39131E2917134F0BBDE7AA001438CF7E"",""assignmentId"":""801d661b-3901-425c-a3d3-813ecf3f259c"",""projectId"":""a9f3d40c-5730-405c-b25e-1034c4c56f3f""}","https://test12345.live/?num_scrambled_semantic=8&num_scrambled_causal=4&num_scrambled_schematic=4&participantId=39131E2917134F0BBDE7AA001438CF7E&assignmentId=801d661b-3901-425c-a3d3-813ecf3f259c&projectId=a9f3d40c-5730-405c-b25e-1034c4c56f3f","39131E2917134F0BBDE7AA001438CF7E-2025-08-07-19-22-56","","null","","images/semantic_sequence/using_technology_semantic/using_technology_semantic_8.png","null","",""
"","","","","","image-button-response","99","466638","0.0-14.0-1.0-1.3","39131E2917134F0BBDE7AA001438CF7E","39131E2917134F0BBDE7AA001438CF7E","801d661b-3901-425c-a3d3-813ecf3f259c","a9f3d40c-5730-405c-b25e-1034c4c56f3f","{""num_scrambled_semantic"":""8"",""num_scrambled_causal"":""4"",""num_scrambled_schematic"":""4"",""participantId"":""39131E2917134F0BBDE7AA001438CF7E"",""assignmentId"":""801d661b-3901-425c-a3d3-813ecf3f259c"",""projectId"":""a9f3d40c-5730-405c-b25e-1034c4c56f3f""}","https://test12345.live/?num_scrambled_semantic=8&num_scrambled_causal=4&num_scrambled_schematic=4&participantId=39131E2917134F0BBDE7AA001438CF7E&assignmentId=801d661b-3901-425c-a3d3-813ecf3f259c&projectId=a9f3d40c-5730-405c-b25e-1034c4c56f3f","39131E2917134F0BBDE7AA001438CF7E-2025-08-07-19-22-56","","406","","images/semantic_sequence/using_technology_semantic/using_technology_semantic_8.png","0","",""
"","","","","","image-button-response","100","468443","0.0-14.0-1.0-2.3","39131E2917134F0BBDE7AA001438CF7E","39131E2917134F0BBDE7AA001438CF7E","801d661b-3901-425c-a3d3-813ecf3f259c","a9f3d40c-5730-405c-b25e-1034c4c56f3f","{""num_scrambled_semantic"":""8"",""num_scrambled_causal"":""4"",""num_scrambled_schematic"":""4"",""participantId"":""39131E2917134F0BBDE7AA001438CF7E"",""assignmentId"":""801d661b-3901-425c-a3d3-813ecf3f259c"",""projectId"":""a9f3d40c-5730-405c-b25e-1034c4c56f3f""}","https://test12345.live/?num_scrambled_semantic=8&num_scrambled_causal=4&num_scrambled_schematic=4&participantId=39131E2917134F0BBDE7AA001438CF7E&assignmentId=801d661b-3901-425c-a3d3-813ecf3f259c&projectId=a9f3d40c-5730-405c-b25e-1034c4c56f3f","39131E2917134F0BBDE7AA001438CF7E-2025-08-07-19-22-56","","null","","[]","null","",""
"","","","","","image-button-response","101","472949","0.0-14.0-1.0-0.4","39131E2917134F0BBDE7AA001438CF7E","39131E2917134F0BBDE7AA001438CF7E","801d661b-3901-425c-a3d3-813ecf3f259c","a9f3d40c-5730-405c-b25e-1034c4c56f3f","{""num_scrambled_semantic"":""8"",""num_scrambled_causal"":""4"",""num_scrambled_schematic"":""4"",""participantId"":""39131E2917134F0BBDE7AA001438CF7E"",""assignmentId"":""801d661b-3901-425c-a3d3-813ecf3f259c"",""projectId"":""a9f3d40c-5730-405c-b25e-1034c4c56f3f""}","https://test12345.live/?num_scrambled_semantic=8&num_scrambled_causal=4&num_scrambled_schematic=4&participantId=39131E2917134F0BBDE7AA001438CF7E&assignmentId=801d661b-3901-425c-a3d3-813ecf3f259c&projectId=a9f3d40c-5730-405c-b25e-1034c4c56f3f","39131E2917134F0BBDE7AA001438CF7E-2025-08-07-19-22-56","","null","","images/semantic_sequence/using_technology_semantic/using_technology_semantic_6.png","null","",""
"","","","","","image-button-response","102","473373","0.0-14.0-1.0-1.4","39131E2917134F0BBDE7AA001438CF7E","39131E2917134F0BBDE7AA001438CF7E","801d661b-3901-425c-a3d3-813ecf3f259c","a9f3d40c-5730-405c-b25e-1034c4c56f3f","{""num_scrambled_semantic"":""8"",""num_scrambled_causal"":""4"",""num_scrambled_schematic"":""4"",""participantId"":""39131E2917134F0BBDE7AA001438CF7E"",""assignmentId"":""801d661b-3901-425c-a3d3-813ecf3f259c"",""projectId"":""a9f3d40c-5730-405c-b25e-1034c4c56f3f""}","https://test12345.live/?num_scrambled_semantic=8&num_scrambled_causal=4&num_scrambled_schematic=4&participantId=39131E2917134F0BBDE7AA001438CF7E&assignmentId=801d661b-3901-425c-a3d3-813ecf3f259c&projectId=a9f3d40c-5730-405c-b25e-1034c4c56f3f","39131E2917134F0BBDE7AA001438CF7E-2025-08-07-19-22-56","","423","","images/semantic_sequence/using_technology_semantic/using_technology_semantic_6.png","0","",""
"","","","","","image-button-response","103","475180","0.0-14.0-1.0-2.4","39131E2917134F0BBDE7AA001438CF7E","39131E2917134F0BBDE7AA001438CF7E","801d661b-3901-425c-a3d3-813ecf3f259c","a9f3d40c-5730-405c-b25e-1034c4c56f3f","{""num_scrambled_semantic"":""8"",""num_scrambled_causal"":""4"",""num_scrambled_schematic"":""4"",""participantId"":""39131E2917134F0BBDE7AA001438CF7E"",""assignmentId"":""801d661b-3901-425c-a3d3-813ecf3f259c"",""projectId"":""a9f3d40c-5730-405c-b25e-1034c4c56f3f""}","https://test12345.live/?num_scrambled_semantic=8&num_scrambled_causal=4&num_scrambled_schematic=4&participantId=39131E2917134F0BBDE7AA001438CF7E&assignmentId=801d661b-3901-425c-a3d3-813ecf3f259c&projectId=a9f3d40c-5730-405c-b25e-1034c4c56f3f","39131E2917134F0BBDE7AA001438CF7E-2025-08-07-19-22-56","","null","","[]","null","",""
"","","","","","image-button-response","104","479691","0.0-14.0-1.0-0.5","39131E2917134F0BBDE7AA001438CF7E","39131E2917134F0BBDE7AA001438CF7E","801d661b-3901-425c-a3d3-813ecf3f259c","a9f3d40c-5730-405c-b25e-1034c4c56f3f","{""num_scrambled_semantic"":""8"",""num_scrambled_causal"":""4"",""num_scrambled_schematic"":""4"",""participantId"":""39131E2917134F0BBDE7AA001438CF7E"",""assignmentId"":""801d661b-3901-425c-a3d3-813ecf3f259c"",""projectId"":""a9f3d40c-5730-405c-b25e-1034c4c56f3f""}","https://test12345.live/?num_scrambled_semantic=8&num_scrambled_causal=4&num_scrambled_schematic=4&participantId=39131E2917134F0BBDE7AA001438CF7E&assignmentId=801d661b-3901-425c-a3d3-813ecf3f259c&projectId=a9f3d40c-5730-405c-b25e-1034c4c56f3f","39131E2917134F0BBDE7AA001438CF7E-2025-08-07-19-22-56","","null","","images/semantic_sequence/using_technology_semantic/using_technology_semantic_4.png","null","",""
"","","","","","image-button-response","105","480086","0.0-14.0-1.0-1.5","39131E2917134F0BBDE7AA001438CF7E","39131E2917134F0BBDE7AA001438CF7E","801d661b-3901-425c-a3d3-813ecf3f259c","a9f3d40c-5730-405c-b25e-1034c4c56f3f","{""num_scrambled_semantic"":""8"",""num_scrambled_causal"":""4"",""num_scrambled_schematic"":""4"",""participantId"":""39131E2917134F0BBDE7AA001438CF7E"",""assignmentId"":""801d661b-3901-425c-a3d3-813ecf3f259c"",""projectId"":""a9f3d40c-5730-405c-b25e-1034c4c56f3f""}","https://test12345.live/?num_scrambled_semantic=8&num_scrambled_causal=4&num_scrambled_schematic=4&participantId=39131E2917134F0BBDE7AA001438CF7E&assignmentId=801d661b-3901-425c-a3d3-813ecf3f259c&projectId=a9f3d40c-5730-405c-b25e-1034c4c56f3f","39131E2917134F0BBDE7AA001438CF7E-2025-08-07-19-22-56","","395","","images/semantic_sequence/using_technology_semantic/using_technology_semantic_4.png","0","",""
"","","","","","image-button-response","106","481899","0.0-14.0-1.0-2.5","39131E2917134F0BBDE7AA001438CF7E","39131E2917134F0BBDE7AA001438CF7E","801d661b-3901-425c-a3d3-813ecf3f259c","a9f3d40c-5730-405c-b25e-1034c4c56f3f","{""num_scrambled_semantic"":""8"",""num_scrambled_causal"":""4"",""num_scrambled_schematic"":""4"",""participantId"":""39131E2917134F0BBDE7AA001438CF7E"",""assignmentId"":""801d661b-3901-425c-a3d3-813ecf3f259c"",""projectId"":""a9f3d40c-5730-405c-b25e-1034c4c56f3f""}","https://test12345.live/?num_scrambled_semantic=8&num_scrambled_causal=4&num_scrambled_schematic=4&participantId=39131E2917134F0BBDE7AA001438CF7E&assignmentId=801d661b-3901-425c-a3d3-813ecf3f259c&projectId=a9f3d40c-5730-405c-b25e-1034c4c56f3f","39131E2917134F0BBDE7AA001438CF7E-2025-08-07-19-22-56","","null","","[]","null","",""
"","","","","","image-button-response","107","486403","0.0-14.0-1.0-0.6","39131E2917134F0BBDE7AA001438CF7E","39131E2917134F0BBDE7AA001438CF7E","801d661b-3901-425c-a3d3-813ecf3f259c","a9f3d40c-5730-405c-b25e-1034c4c56f3f","{""num_scrambled_semantic"":""8"",""num_scrambled_causal"":""4"",""num_scrambled_schematic"":""4"",""participantId"":""39131E2917134F0BBDE7AA001438CF7E"",""assignmentId"":""801d661b-3901-425c-a3d3-813ecf3f259c"",""projectId"":""a9f3d40c-5730-405c-b25e-1034c4c56f3f""}","https://test12345.live/?num_scrambled_semantic=8&num_scrambled_causal=4&num_scrambled_schematic=4&participantId=39131E2917134F0BBDE7AA001438CF7E&assignmentId=801d661b-3901-425c-a3d3-813ecf3f259c&projectId=a9f3d40c-5730-405c-b25e-1034c4c56f3f","39131E2917134F0BBDE7AA001438CF7E-2025-08-07-19-22-56","","null","","images/semantic_sequence/using_technology_semantic/using_technology_semantic_7.png","null","",""
"","","","","","image-button-response","108","487088","0.0-14.0-1.0-1.6","39131E2917134F0BBDE7AA001438CF7E","39131E2917134F0BBDE7AA001438CF7E","801d661b-3901-425c-a3d3-813ecf3f259c","a9f3d40c-5730-405c-b25e-1034c4c56f3f","{""num_scrambled_semantic"":""8"",""num_scrambled_causal"":""4"",""num_scrambled_schematic"":""4"",""participantId"":""39131E2917134F0BBDE7AA001438CF7E"",""assignmentId"":""801d661b-3901-425c-a3d3-813ecf3f259c"",""projectId"":""a9f3d40c-5730-405c-b25e-1034c4c56f3f""}","https://test12345.live/?num_scrambled_semantic=8&num_scrambled_causal=4&num_scrambled_schematic=4&participantId=39131E2917134F0BBDE7AA001438CF7E&assignmentId=801d661b-3901-425c-a3d3-813ecf3f259c&projectId=a9f3d40c-5730-405c-b25e-1034c4c56f3f","39131E2917134F0BBDE7AA001438CF7E-2025-08-07-19-22-56","","685","","images/semantic_sequence/using_technology_semantic/using_technology_semantic_7.png","0","",""
"","","","","","image-button-response","109","488903","0.0-14.0-1.0-2.6","39131E2917134F0BBDE7AA001438CF7E","39131E2917134F0BBDE7AA001438CF7E","801d661b-3901-425c-a3d3-813ecf3f259c","a9f3d40c-5730-405c-b25e-1034c4c56f3f","{""num_scrambled_semantic"":""8"",""num_scrambled_causal"":""4"",""num_scrambled_schematic"":""4"",""participantId"":""39131E2917134F0BBDE7AA001438CF7E"",""assignmentId"":""801d661b-3901-425c-a3d3-813ecf3f259c"",""projectId"":""a9f3d40c-5730-405c-b25e-1034c4c56f3f""}","https://test12345.live/?num_scrambled_semantic=8&num_scrambled_causal=4&num_scrambled_schematic=4&participantId=39131E2917134F0BBDE7AA001438CF7E&assignmentId=801d661b-3901-425c-a3d3-813ecf3f259c&projectId=a9f3d40c-5730-405c-b25e-1034c4c56f3f","39131E2917134F0BBDE7AA001438CF7E-2025-08-07-19-22-56","","null","","[]","null","",""
"","","","","","image-button-response","110","493415","0.0-14.0-1.0-0.7","39131E2917134F0BBDE7AA001438CF7E","39131E2917134F0BBDE7AA001438CF7E","801d661b-3901-425c-a3d3-813ecf3f259c","a9f3d40c-5730-405c-b25e-1034c4c56f3f","{""num_scrambled_semantic"":""8"",""num_scrambled_causal"":""4"",""num_scrambled_schematic"":""4"",""participantId"":""39131E2917134F0BBDE7AA001438CF7E"",""assignmentId"":""801d661b-3901-425c-a3d3-813ecf3f259c"",""projectId"":""a9f3d40c-5730-405c-b25e-1034c4c56f3f""}","https://test12345.live/?num_scrambled_semantic=8&num_scrambled_causal=4&num_scrambled_schematic=4&participantId=39131E2917134F0BBDE7AA001438CF7E&assignmentId=801d661b-3901-425c-a3d3-813ecf3f259c&projectId=a9f3d40c-5730-405c-b25e-1034c4c56f3f","39131E2917134F0BBDE7AA001438CF7E-2025-08-07-19-22-56","","null","","images/semantic_sequence/using_technology_semantic/using_technology_semantic_9.png","null","",""
"","","","","","image-button-response","111","494152","0.0-14.0-1.0-1.7","39131E2917134F0BBDE7AA001438CF7E","39131E2917134F0BBDE7AA001438CF7E","801d661b-3901-425c-a3d3-813ecf3f259c","a9f3d40c-5730-405c-b25e-1034c4c56f3f","{""num_scrambled_semantic"":""8"",""num_scrambled_causal"":""4"",""num_scrambled_schematic"":""4"",""participantId"":""39131E2917134F0BBDE7AA001438CF7E"",""assignmentId"":""801d661b-3901-425c-a3d3-813ecf3f259c"",""projectId"":""a9f3d40c-5730-405c-b25e-1034c4c56f3f""}","https://test12345.live/?num_scrambled_semantic=8&num_scrambled_causal=4&num_scrambled_schematic=4&participantId=39131E2917134F0BBDE7AA001438CF7E&assignmentId=801d661b-3901-425c-a3d3-813ecf3f259c&projectId=a9f3d40c-5730-405c-b25e-1034c4c56f3f","39131E2917134F0BBDE7AA001438CF7E-2025-08-07-19-22-56","","736","","images/semantic_sequence/using_technology_semantic/using_technology_semantic_9.png","0","",""
"","","","","","image-button-response","112","495967","0.0-14.0-1.0-2.7","39131E2917134F0BBDE7AA001438CF7E","39131E2917134F0BBDE7AA001438CF7E","801d661b-3901-425c-a3d3-813ecf3f259c","a9f3d40c-5730-405c-b25e-1034c4c56f3f","{""num_scrambled_semantic"":""8"",""num_scrambled_causal"":""4"",""num_scrambled_schematic"":""4"",""participantId"":""39131E2917134F0BBDE7AA001438CF7E"",""assignmentId"":""801d661b-3901-425c-a3d3-813ecf3f259c"",""projectId"":""a9f3d40c-5730-405c-b25e-1034c4c56f3f""}","https://test12345.live/?num_scrambled_semantic=8&num_scrambled_causal=4&num_scrambled_schematic=4&participantId=39131E2917134F0BBDE7AA001438CF7E&assignmentId=801d661b-3901-425c-a3d3-813ecf3f259c&projectId=a9f3d40c-5730-405c-b25e-1034c4c56f3f","39131E2917134F0BBDE7AA001438CF7E-2025-08-07-19-22-56","","null","","[]","null","",""
"","","","","","image-button-response","113","500478","0.0-14.0-1.0-0.8","39131E2917134F0BBDE7AA001438CF7E","39131E2917134F0BBDE7AA001438CF7E","801d661b-3901-425c-a3d3-813ecf3f259c","a9f3d40c-5730-405c-b25e-1034c4c56f3f","{""num_scrambled_semantic"":""8"",""num_scrambled_causal"":""4"",""num_scrambled_schematic"":""4"",""participantId"":""39131E2917134F0BBDE7AA001438CF7E"",""assignmentId"":""801d661b-3901-425c-a3d3-813ecf3f259c"",""projectId"":""a9f3d40c-5730-405c-b25e-1034c4c56f3f""}","https://test12345.live/?num_scrambled_semantic=8&num_scrambled_causal=4&num_scrambled_schematic=4&participantId=39131E2917134F0BBDE7AA001438CF7E&assignmentId=801d661b-3901-425c-a3d3-813ecf3f259c&projectId=a9f3d40c-5730-405c-b25e-1034c4c56f3f","39131E2917134F0BBDE7AA001438CF7E-2025-08-07-19-22-56","","null","","images/semantic_sequence/using_technology_semantic/using_technology_semantic_2.png","null","",""
