"success","timeout","failed_images","failed_audio","failed_video","trial_type","trial_index","time_elapsed","internal_node_id","subject","subject_id","study_id","session_id","urlvar","current_url","audio_id","view_history","rt","device_id","stimulus","response","estimated_stimulus_onset","seq_name"
"true","false","[]","[]","[]","preload","0","20401","0.0-0.0","397B4FC93D8C490681BDE6D882491A3B","397B4FC93D8C490681BDE6D882491A3B","0198bcf3-2b9e-74f2-b612-41c071d5b112","0198bbb8-fd11-701d-9147-68794ad37298","{""num_scrambled_semantic"":""8"",""num_scrambled_causal"":""4"",""num_scrambled_schematic"":""4"",""participantId"":""397B4FC93D8C490681BDE6D882491A3B"",""assignmentId"":""0198bcf3-2b9e-74f2-b612-41c071d5b112"",""projectId"":""0198bbb8-fd11-701d-9147-68794ad37298""}","https://test12345.live/?num_scrambled_semantic=8&num_scrambled_causal=4&num_scrambled_schematic=4&participantId=397B4FC93D8C490681BDE6D882491A3B&assignmentId=0198bcf3-2b9e-74f2-b612-41c071d5b112&projectId=0198bbb8-fd11-701d-9147-68794ad37298","397B4FC93D8C490681BDE6D882491A3B-2025-08-18-12-04-43","","","","","","",""
"","","","","","instructions","1","44501","0.0-1.0","397B4FC93D8C490681BDE6D882491A3B","397B4FC93D8C490681BDE6D882491A3B","0198bcf3-2b9e-74f2-b612-41c071d5b112","0198bbb8-fd11-701d-9147-68794ad37298","{""num_scrambled_semantic"":""8"",""num_scrambled_causal"":""4"",""num_scrambled_schematic"":""4"",""participantId"":""397B4FC93D8C490681BDE6D882491A3B"",""assignmentId"":""0198bcf3-2b9e-74f2-b612-41c071d5b112"",""projectId"":""0198bbb8-fd11-701d-9147-68794ad37298""}","https://test12345.live/?num_scrambled_semantic=8&num_scrambled_causal=4&num_scrambled_schematic=4&participantId=397B4FC93D8C490681BDE6D882491A3B&assignmentId=0198bcf3-2b9e-74f2-b612-41c071d5b112&projectId=0198bbb8-fd11-701d-9147-68794ad37298","397B4FC93D8C490681BDE6D882491A3B-2025-08-18-12-04-43","[{""page_index"":0,""viewing_time"":24097}]","24098","","","","",""
"","","","","","instructions","2","58798","0.0-2.0","397B4FC93D8C490681BDE6D882491A3B","397B4FC93D8C490681BDE6D882491A3B","0198bcf3-2b9e-74f2-b612-41c071d5b112","0198bbb8-fd11-701d-9147-68794ad37298","{""num_scrambled_semantic"":""8"",""num_scrambled_causal"":""4"",""num_scrambled_schematic"":""4"",""participantId"":""397B4FC93D8C490681BDE6D882491A3B"",""assignmentId"":""0198bcf3-2b9e-74f2-b612-41c071d5b112"",""projectId"":""0198bbb8-fd11-701d-9147-68794ad37298""}","https://test12345.live/?num_scrambled_semantic=8&num_scrambled_causal=4&num_scrambled_schematic=4&participantId=397B4FC93D8C490681BDE6D882491A3B&assignmentId=0198bcf3-2b9e-74f2-b612-41c071d5b112&projectId=0198bbb8-fd11-701d-9147-68794ad37298","397B4FC93D8C490681BDE6D882491A3B-2025-08-18-12-04-43","[{""page_index"":0,""viewing_time"":14295}]","14296","","","","",""
"true","","","","","fullscreen","3","74244","0.0-3.0","397B4FC93D8C490681BDE6D882491A3B","397B4FC93D8C490681BDE6D882491A3B","0198bcf3-2b9e-74f2-b612-41c071d5b112","0198bbb8-fd11-701d-9147-68794ad37298","{""num_scrambled_semantic"":""8"",""num_scrambled_causal"":""4"",""num_scrambled_schematic"":""4"",""participantId"":""397B4FC93D8C490681BDE6D882491A3B"",""assignmentId"":""0198bcf3-2b9e-74f2-b612-41c071d5b112"",""projectId"":""0198bbb8-fd11-701d-9147-68794ad37298""}","https://test12345.live/?num_scrambled_semantic=8&num_scrambled_causal=4&num_scrambled_schematic=4&participantId=397B4FC93D8C490681BDE6D882491A3B&assignmentId=0198bcf3-2b9e-74f2-b612-41c071d5b112&projectId=0198bbb8-fd11-701d-9147-68794ad37298","397B4FC93D8C490681BDE6D882491A3B-2025-08-18-12-04-43","","14439","","","","",""
"","","","","","initialize-microphone","4","88808","0.0-4.0-0.0","397B4FC93D8C490681BDE6D882491A3B","397B4FC93D8C490681BDE6D882491A3B","0198bcf3-2b9e-74f2-b612-41c071d5b112","0198bbb8-fd11-701d-9147-68794ad37298","{""num_scrambled_semantic"":""8"",""num_scrambled_causal"":""4"",""num_scrambled_schematic"":""4"",""participantId"":""397B4FC93D8C490681BDE6D882491A3B"",""assignmentId"":""0198bcf3-2b9e-74f2-b612-41c071d5b112"",""projectId"":""0198bbb8-fd11-701d-9147-68794ad37298""}","https://test12345.live/?num_scrambled_semantic=8&num_scrambled_causal=4&num_scrambled_schematic=4&participantId=397B4FC93D8C490681BDE6D882491A3B&assignmentId=0198bcf3-2b9e-74f2-b612-41c071d5b112&projectId=0198bbb8-fd11-701d-9147-68794ad37298","397B4FC93D8C490681BDE6D882491A3B-2025-08-18-12-04-43","","","b938784d7b2348e132cd075e3beb530d6dafefb336db38668f251da502bb8854","","","",""
"","","","","","html-audio-response","5","106022","0.0-4.0-1.0","397B4FC93D8C490681BDE6D882491A3B","397B4FC93D8C490681BDE6D882491A3B","0198bcf3-2b9e-74f2-b612-41c071d5b112","0198bbb8-fd11-701d-9147-68794ad37298","{""num_scrambled_semantic"":""8"",""num_scrambled_causal"":""4"",""num_scrambled_schematic"":""4"",""participantId"":""397B4FC93D8C490681BDE6D882491A3B"",""assignmentId"":""0198bcf3-2b9e-74f2-b612-41c071d5b112"",""projectId"":""0198bbb8-fd11-701d-9147-68794ad37298""}","https://test12345.live/?num_scrambled_semantic=8&num_scrambled_causal=4&num_scrambled_schematic=4&participantId=397B4FC93D8C490681BDE6D882491A3B&assignmentId=0198bcf3-2b9e-74f2-b612-41c071d5b112&projectId=0198bbb8-fd11-701d-9147-68794ad37298","397B4FC93D8C490681BDE6D882491A3B-2025-08-18-12-04-43","","3403","","<span style=""color: red; font-size: 24px""> NOW RECORDING</span>
        <p>Please test Microphone</p>","","9",""
"","","","","","html-button-response","6","108637","0.0-4.0-2.0","397B4FC93D8C490681BDE6D882491A3B","397B4FC93D8C490681BDE6D882491A3B","0198bcf3-2b9e-74f2-b612-41c071d5b112","0198bbb8-fd11-701d-9147-68794ad37298","{""num_scrambled_semantic"":""8"",""num_scrambled_causal"":""4"",""num_scrambled_schematic"":""4"",""participantId"":""397B4FC93D8C490681BDE6D882491A3B"",""assignmentId"":""0198bcf3-2b9e-74f2-b612-41c071d5b112"",""projectId"":""0198bbb8-fd11-701d-9147-68794ad37298""}","https://test12345.live/?num_scrambled_semantic=8&num_scrambled_causal=4&num_scrambled_schematic=4&participantId=397B4FC93D8C490681BDE6D882491A3B&assignmentId=0198bcf3-2b9e-74f2-b612-41c071d5b112&projectId=0198bbb8-fd11-701d-9147-68794ad37298","397B4FC93D8C490681BDE6D882491A3B-2025-08-18-12-04-43","","2612","","<p style=""font-size:48px; color:red;"">Is Microphone OK?</p>","1","",""
"","","","","","instructions","7","122426","0.0-5.0","397B4FC93D8C490681BDE6D882491A3B","397B4FC93D8C490681BDE6D882491A3B","0198bcf3-2b9e-74f2-b612-41c071d5b112","0198bbb8-fd11-701d-9147-68794ad37298","{""num_scrambled_semantic"":""8"",""num_scrambled_causal"":""4"",""num_scrambled_schematic"":""4"",""participantId"":""397B4FC93D8C490681BDE6D882491A3B"",""assignmentId"":""0198bcf3-2b9e-74f2-b612-41c071d5b112"",""projectId"":""0198bbb8-fd11-701d-9147-68794ad37298""}","https://test12345.live/?num_scrambled_semantic=8&num_scrambled_causal=4&num_scrambled_schematic=4&participantId=397B4FC93D8C490681BDE6D882491A3B&assignmentId=0198bcf3-2b9e-74f2-b612-41c071d5b112&projectId=0198bbb8-fd11-701d-9147-68794ad37298","397B4FC93D8C490681BDE6D882491A3B-2025-08-18-12-04-43","[{""page_index"":0,""viewing_time"":6728},{""page_index"":1,""viewing_time"":7060}]","13788","","","","",""
"","","","","","image-button-response","8","128436","0.0-6.0-0.0","397B4FC93D8C490681BDE6D882491A3B","397B4FC93D8C490681BDE6D882491A3B","0198bcf3-2b9e-74f2-b612-41c071d5b112","0198bbb8-fd11-701d-9147-68794ad37298","{""num_scrambled_semantic"":""8"",""num_scrambled_causal"":""4"",""num_scrambled_schematic"":""4"",""participantId"":""397B4FC93D8C490681BDE6D882491A3B"",""assignmentId"":""0198bcf3-2b9e-74f2-b612-41c071d5b112"",""projectId"":""0198bbb8-fd11-701d-9147-68794ad37298""}","https://test12345.live/?num_scrambled_semantic=8&num_scrambled_causal=4&num_scrambled_schematic=4&participantId=397B4FC93D8C490681BDE6D882491A3B&assignmentId=0198bcf3-2b9e-74f2-b612-41c071d5b112&projectId=0198bbb8-fd11-701d-9147-68794ad37298","397B4FC93D8C490681BDE6D882491A3B-2025-08-18-12-04-43","","null","","images/instructions/movie_0.png","null","",""
"","","","","","image-button-response","9","132943","0.0-6.0-1.0-0.0","397B4FC93D8C490681BDE6D882491A3B","397B4FC93D8C490681BDE6D882491A3B","0198bcf3-2b9e-74f2-b612-41c071d5b112","0198bbb8-fd11-701d-9147-68794ad37298","{""num_scrambled_semantic"":""8"",""num_scrambled_causal"":""4"",""num_scrambled_schematic"":""4"",""participantId"":""397B4FC93D8C490681BDE6D882491A3B"",""assignmentId"":""0198bcf3-2b9e-74f2-b612-41c071d5b112"",""projectId"":""0198bbb8-fd11-701d-9147-68794ad37298""}","https://test12345.live/?num_scrambled_semantic=8&num_scrambled_causal=4&num_scrambled_schematic=4&participantId=397B4FC93D8C490681BDE6D882491A3B&assignmentId=0198bcf3-2b9e-74f2-b612-41c071d5b112&projectId=0198bbb8-fd11-701d-9147-68794ad37298","397B4FC93D8C490681BDE6D882491A3B-2025-08-18-12-04-43","","null","","images/instructions/movie_1.png","null","",""
"","","","","","image-button-response","10","136961","0.0-6.0-1.0-1.0","397B4FC93D8C490681BDE6D882491A3B","397B4FC93D8C490681BDE6D882491A3B","0198bcf3-2b9e-74f2-b612-41c071d5b112","0198bbb8-fd11-701d-9147-68794ad37298","{""num_scrambled_semantic"":""8"",""num_scrambled_causal"":""4"",""num_scrambled_schematic"":""4"",""participantId"":""397B4FC93D8C490681BDE6D882491A3B"",""assignmentId"":""0198bcf3-2b9e-74f2-b612-41c071d5b112"",""projectId"":""0198bbb8-fd11-701d-9147-68794ad37298""}","https://test12345.live/?num_scrambled_semantic=8&num_scrambled_causal=4&num_scrambled_schematic=4&participantId=397B4FC93D8C490681BDE6D882491A3B&assignmentId=0198bcf3-2b9e-74f2-b612-41c071d5b112&projectId=0198bbb8-fd11-701d-9147-68794ad37298","397B4FC93D8C490681BDE6D882491A3B-2025-08-18-12-04-43","","null","","images/instructions/movie_1.png","null","",""
"","","","","","image-button-response","11","147765","0.0-6.0-1.0-2.0","397B4FC93D8C490681BDE6D882491A3B","397B4FC93D8C490681BDE6D882491A3B","0198bcf3-2b9e-74f2-b612-41c071d5b112","0198bbb8-fd11-701d-9147-68794ad37298","{""num_scrambled_semantic"":""8"",""num_scrambled_causal"":""4"",""num_scrambled_schematic"":""4"",""participantId"":""397B4FC93D8C490681BDE6D882491A3B"",""assignmentId"":""0198bcf3-2b9e-74f2-b612-41c071d5b112"",""projectId"":""0198bbb8-fd11-701d-9147-68794ad37298""}","https://test12345.live/?num_scrambled_semantic=8&num_scrambled_causal=4&num_scrambled_schematic=4&participantId=397B4FC93D8C490681BDE6D882491A3B&assignmentId=0198bcf3-2b9e-74f2-b612-41c071d5b112&projectId=0198bbb8-fd11-701d-9147-68794ad37298","397B4FC93D8C490681BDE6D882491A3B-2025-08-18-12-04-43","","null","","[]","null","",""
"","","","","","image-button-response","12","152287","0.0-6.0-1.0-0.1","397B4FC93D8C490681BDE6D882491A3B","397B4FC93D8C490681BDE6D882491A3B","0198bcf3-2b9e-74f2-b612-41c071d5b112","0198bbb8-fd11-701d-9147-68794ad37298","{""num_scrambled_semantic"":""8"",""num_scrambled_causal"":""4"",""num_scrambled_schematic"":""4"",""participantId"":""397B4FC93D8C490681BDE6D882491A3B"",""assignmentId"":""0198bcf3-2b9e-74f2-b612-41c071d5b112"",""projectId"":""0198bbb8-fd11-701d-9147-68794ad37298""}","https://test12345.live/?num_scrambled_semantic=8&num_scrambled_causal=4&num_scrambled_schematic=4&participantId=397B4FC93D8C490681BDE6D882491A3B&assignmentId=0198bcf3-2b9e-74f2-b612-41c071d5b112&projectId=0198bbb8-fd11-701d-9147-68794ad37298","397B4FC93D8C490681BDE6D882491A3B-2025-08-18-12-04-43","","null","","images/instructions/movie_2.png","null","",""
"","","","","","image-button-response","13","154398","0.0-6.0-1.0-1.1","397B4FC93D8C490681BDE6D882491A3B","397B4FC93D8C490681BDE6D882491A3B","0198bcf3-2b9e-74f2-b612-41c071d5b112","0198bbb8-fd11-701d-9147-68794ad37298","{""num_scrambled_semantic"":""8"",""num_scrambled_causal"":""4"",""num_scrambled_schematic"":""4"",""participantId"":""397B4FC93D8C490681BDE6D882491A3B"",""assignmentId"":""0198bcf3-2b9e-74f2-b612-41c071d5b112"",""projectId"":""0198bbb8-fd11-701d-9147-68794ad37298""}","https://test12345.live/?num_scrambled_semantic=8&num_scrambled_causal=4&num_scrambled_schematic=4&participantId=397B4FC93D8C490681BDE6D882491A3B&assignmentId=0198bcf3-2b9e-74f2-b612-41c071d5b112&projectId=0198bbb8-fd11-701d-9147-68794ad37298","397B4FC93D8C490681BDE6D882491A3B-2025-08-18-12-04-43","","2110","","images/instructions/movie_2.png","0","",""
"","","","","","image-button-response","14","165211","0.0-6.0-1.0-2.1","397B4FC93D8C490681BDE6D882491A3B","397B4FC93D8C490681BDE6D882491A3B","0198bcf3-2b9e-74f2-b612-41c071d5b112","0198bbb8-fd11-701d-9147-68794ad37298","{""num_scrambled_semantic"":""8"",""num_scrambled_causal"":""4"",""num_scrambled_schematic"":""4"",""participantId"":""397B4FC93D8C490681BDE6D882491A3B"",""assignmentId"":""0198bcf3-2b9e-74f2-b612-41c071d5b112"",""projectId"":""0198bbb8-fd11-701d-9147-68794ad37298""}","https://test12345.live/?num_scrambled_semantic=8&num_scrambled_causal=4&num_scrambled_schematic=4&participantId=397B4FC93D8C490681BDE6D882491A3B&assignmentId=0198bcf3-2b9e-74f2-b612-41c071d5b112&projectId=0198bbb8-fd11-701d-9147-68794ad37298","397B4FC93D8C490681BDE6D882491A3B-2025-08-18-12-04-43","","null","","[]","null","",""
"","","","","","image-button-response","15","169713","0.0-6.0-1.0-0.2","397B4FC93D8C490681BDE6D882491A3B","397B4FC93D8C490681BDE6D882491A3B","0198bcf3-2b9e-74f2-b612-41c071d5b112","0198bbb8-fd11-701d-9147-68794ad37298","{""num_scrambled_semantic"":""8"",""num_scrambled_causal"":""4"",""num_scrambled_schematic"":""4"",""participantId"":""397B4FC93D8C490681BDE6D882491A3B"",""assignmentId"":""0198bcf3-2b9e-74f2-b612-41c071d5b112"",""projectId"":""0198bbb8-fd11-701d-9147-68794ad37298""}","https://test12345.live/?num_scrambled_semantic=8&num_scrambled_causal=4&num_scrambled_schematic=4&participantId=397B4FC93D8C490681BDE6D882491A3B&assignmentId=0198bcf3-2b9e-74f2-b612-41c071d5b112&projectId=0198bbb8-fd11-701d-9147-68794ad37298","397B4FC93D8C490681BDE6D882491A3B-2025-08-18-12-04-43","","null","","images/instructions/movie_3.png","null","",""
"","","","","","image-button-response","16","171156","0.0-6.0-1.0-1.2","397B4FC93D8C490681BDE6D882491A3B","397B4FC93D8C490681BDE6D882491A3B","0198bcf3-2b9e-74f2-b612-41c071d5b112","0198bbb8-fd11-701d-9147-68794ad37298","{""num_scrambled_semantic"":""8"",""num_scrambled_causal"":""4"",""num_scrambled_schematic"":""4"",""participantId"":""397B4FC93D8C490681BDE6D882491A3B"",""assignmentId"":""0198bcf3-2b9e-74f2-b612-41c071d5b112"",""projectId"":""0198bbb8-fd11-701d-9147-68794ad37298""}","https://test12345.live/?num_scrambled_semantic=8&num_scrambled_causal=4&num_scrambled_schematic=4&participantId=397B4FC93D8C490681BDE6D882491A3B&assignmentId=0198bcf3-2b9e-74f2-b612-41c071d5b112&projectId=0198bbb8-fd11-701d-9147-68794ad37298","397B4FC93D8C490681BDE6D882491A3B-2025-08-18-12-04-43","","1441","","images/instructions/movie_3.png","0","",""
"","","","","","image-button-response","17","181968","0.0-6.0-1.0-2.2","397B4FC93D8C490681BDE6D882491A3B","397B4FC93D8C490681BDE6D882491A3B","0198bcf3-2b9e-74f2-b612-41c071d5b112","0198bbb8-fd11-701d-9147-68794ad37298","{""num_scrambled_semantic"":""8"",""num_scrambled_causal"":""4"",""num_scrambled_schematic"":""4"",""participantId"":""397B4FC93D8C490681BDE6D882491A3B"",""assignmentId"":""0198bcf3-2b9e-74f2-b612-41c071d5b112"",""projectId"":""0198bbb8-fd11-701d-9147-68794ad37298""}","https://test12345.live/?num_scrambled_semantic=8&num_scrambled_causal=4&num_scrambled_schematic=4&participantId=397B4FC93D8C490681BDE6D882491A3B&assignmentId=0198bcf3-2b9e-74f2-b612-41c071d5b112&projectId=0198bbb8-fd11-701d-9147-68794ad37298","397B4FC93D8C490681BDE6D882491A3B-2025-08-18-12-04-43","","null","","[]","null","",""
"","","","","","image-button-response","18","186480","0.0-6.0-1.0-0.3","397B4FC93D8C490681BDE6D882491A3B","397B4FC93D8C490681BDE6D882491A3B","0198bcf3-2b9e-74f2-b612-41c071d5b112","0198bbb8-fd11-701d-9147-68794ad37298","{""num_scrambled_semantic"":""8"",""num_scrambled_causal"":""4"",""num_scrambled_schematic"":""4"",""participantId"":""397B4FC93D8C490681BDE6D882491A3B"",""assignmentId"":""0198bcf3-2b9e-74f2-b612-41c071d5b112"",""projectId"":""0198bbb8-fd11-701d-9147-68794ad37298""}","https://test12345.live/?num_scrambled_semantic=8&num_scrambled_causal=4&num_scrambled_schematic=4&participantId=397B4FC93D8C490681BDE6D882491A3B&assignmentId=0198bcf3-2b9e-74f2-b612-41c071d5b112&projectId=0198bbb8-fd11-701d-9147-68794ad37298","397B4FC93D8C490681BDE6D882491A3B-2025-08-18-12-04-43","","null","","images/instructions/movie_4.png","null","",""
"","","","","","image-button-response","19","187464","0.0-6.0-1.0-1.3","397B4FC93D8C490681BDE6D882491A3B","397B4FC93D8C490681BDE6D882491A3B","0198bcf3-2b9e-74f2-b612-41c071d5b112","0198bbb8-fd11-701d-9147-68794ad37298","{""num_scrambled_semantic"":""8"",""num_scrambled_causal"":""4"",""num_scrambled_schematic"":""4"",""participantId"":""397B4FC93D8C490681BDE6D882491A3B"",""assignmentId"":""0198bcf3-2b9e-74f2-b612-41c071d5b112"",""projectId"":""0198bbb8-fd11-701d-9147-68794ad37298""}","https://test12345.live/?num_scrambled_semantic=8&num_scrambled_causal=4&num_scrambled_schematic=4&participantId=397B4FC93D8C490681BDE6D882491A3B&assignmentId=0198bcf3-2b9e-74f2-b612-41c071d5b112&projectId=0198bbb8-fd11-701d-9147-68794ad37298","397B4FC93D8C490681BDE6D882491A3B-2025-08-18-12-04-43","","982","","images/instructions/movie_4.png","0","",""
"","","","","","image-button-response","20","198277","0.0-6.0-1.0-2.3","397B4FC93D8C490681BDE6D882491A3B","397B4FC93D8C490681BDE6D882491A3B","0198bcf3-2b9e-74f2-b612-41c071d5b112","0198bbb8-fd11-701d-9147-68794ad37298","{""num_scrambled_semantic"":""8"",""num_scrambled_causal"":""4"",""num_scrambled_schematic"":""4"",""participantId"":""397B4FC93D8C490681BDE6D882491A3B"",""assignmentId"":""0198bcf3-2b9e-74f2-b612-41c071d5b112"",""projectId"":""0198bbb8-fd11-701d-9147-68794ad37298""}","https://test12345.live/?num_scrambled_semantic=8&num_scrambled_causal=4&num_scrambled_schematic=4&participantId=397B4FC93D8C490681BDE6D882491A3B&assignmentId=0198bcf3-2b9e-74f2-b612-41c071d5b112&projectId=0198bbb8-fd11-701d-9147-68794ad37298","397B4FC93D8C490681BDE6D882491A3B-2025-08-18-12-04-43","","null","","[]","null","",""
"","","","","","instructions","21","209117","0.0-7.0","397B4FC93D8C490681BDE6D882491A3B","397B4FC93D8C490681BDE6D882491A3B","0198bcf3-2b9e-74f2-b612-41c071d5b112","0198bbb8-fd11-701d-9147-68794ad37298","{""num_scrambled_semantic"":""8"",""num_scrambled_causal"":""4"",""num_scrambled_schematic"":""4"",""participantId"":""397B4FC93D8C490681BDE6D882491A3B"",""assignmentId"":""0198bcf3-2b9e-74f2-b612-41c071d5b112"",""projectId"":""0198bbb8-fd11-701d-9147-68794ad37298""}","https://test12345.live/?num_scrambled_semantic=8&num_scrambled_causal=4&num_scrambled_schematic=4&participantId=397B4FC93D8C490681BDE6D882491A3B&assignmentId=0198bcf3-2b9e-74f2-b612-41c071d5b112&projectId=0198bbb8-fd11-701d-9147-68794ad37298","397B4FC93D8C490681BDE6D882491A3B-2025-08-18-12-04-43","[{""page_index"":0,""viewing_time"":9011},{""page_index"":1,""viewing_time"":1829}]","10840","","","","",""
"","","","","","html-audio-response","22","246554","0.0-8.0","397B4FC93D8C490681BDE6D882491A3B","397B4FC93D8C490681BDE6D882491A3B","0198bcf3-2b9e-74f2-b612-41c071d5b112","0198bbb8-fd11-701d-9147-68794ad37298","{""num_scrambled_semantic"":""8"",""num_scrambled_causal"":""4"",""num_scrambled_schematic"":""4"",""participantId"":""397B4FC93D8C490681BDE6D882491A3B"",""assignmentId"":""0198bcf3-2b9e-74f2-b612-41c071d5b112"",""projectId"":""0198bbb8-fd11-701d-9147-68794ad37298""}","https://test12345.live/?num_scrambled_semantic=8&num_scrambled_causal=4&num_scrambled_schematic=4&participantId=397B4FC93D8C490681BDE6D882491A3B&assignmentId=0198bcf3-2b9e-74f2-b612-41c071d5b112&projectId=0198bbb8-fd11-701d-9147-68794ad37298","397B4FC93D8C490681BDE6D882491A3B-2025-08-18-12-04-43","","28398","","[""<span style=\""color: red; font-size: 24px\""> NOW RECORDING</span><p>Please say out loud all the images you saw, as many as you can remember. The images can be said in any order.</p>""]","","2",""
"","","","","","instructions","23","248414","0.0-9.0","397B4FC93D8C490681BDE6D882491A3B","397B4FC93D8C490681BDE6D882491A3B","0198bcf3-2b9e-74f2-b612-41c071d5b112","0198bbb8-fd11-701d-9147-68794ad37298","{""num_scrambled_semantic"":""8"",""num_scrambled_causal"":""4"",""num_scrambled_schematic"":""4"",""participantId"":""397B4FC93D8C490681BDE6D882491A3B"",""assignmentId"":""0198bcf3-2b9e-74f2-b612-41c071d5b112"",""projectId"":""0198bbb8-fd11-701d-9147-68794ad37298""}","https://test12345.live/?num_scrambled_semantic=8&num_scrambled_causal=4&num_scrambled_schematic=4&participantId=397B4FC93D8C490681BDE6D882491A3B&assignmentId=0198bcf3-2b9e-74f2-b612-41c071d5b112&projectId=0198bbb8-fd11-701d-9147-68794ad37298","397B4FC93D8C490681BDE6D882491A3B-2025-08-18-12-04-43","[{""page_index"":0,""viewing_time"":1846}]","1846","","","","",""
"","","","","","image-button-response","24","254425","0.0-10.0-0.0","397B4FC93D8C490681BDE6D882491A3B","397B4FC93D8C490681BDE6D882491A3B","0198bcf3-2b9e-74f2-b612-41c071d5b112","0198bbb8-fd11-701d-9147-68794ad37298","{""num_scrambled_semantic"":""8"",""num_scrambled_causal"":""4"",""num_scrambled_schematic"":""4"",""participantId"":""397B4FC93D8C490681BDE6D882491A3B"",""assignmentId"":""0198bcf3-2b9e-74f2-b612-41c071d5b112"",""projectId"":""0198bbb8-fd11-701d-9147-68794ad37298""}","https://test12345.live/?num_scrambled_semantic=8&num_scrambled_causal=4&num_scrambled_schematic=4&participantId=397B4FC93D8C490681BDE6D882491A3B&assignmentId=0198bcf3-2b9e-74f2-b612-41c071d5b112&projectId=0198bbb8-fd11-701d-9147-68794ad37298","397B4FC93D8C490681BDE6D882491A3B-2025-08-18-12-04-43","","null","","images/semantic_sequence/physical_activity_semantic/physical_activity_semantic_0.png","null","",""
"","","","","","image-button-response","25","258932","0.0-10.0-1.0-0.0","397B4FC93D8C490681BDE6D882491A3B","397B4FC93D8C490681BDE6D882491A3B","0198bcf3-2b9e-74f2-b612-41c071d5b112","0198bbb8-fd11-701d-9147-68794ad37298","{""num_scrambled_semantic"":""8"",""num_scrambled_causal"":""4"",""num_scrambled_schematic"":""4"",""participantId"":""397B4FC93D8C490681BDE6D882491A3B"",""assignmentId"":""0198bcf3-2b9e-74f2-b612-41c071d5b112"",""projectId"":""0198bbb8-fd11-701d-9147-68794ad37298""}","https://test12345.live/?num_scrambled_semantic=8&num_scrambled_causal=4&num_scrambled_schematic=4&participantId=397B4FC93D8C490681BDE6D882491A3B&assignmentId=0198bcf3-2b9e-74f2-b612-41c071d5b112&projectId=0198bbb8-fd11-701d-9147-68794ad37298","397B4FC93D8C490681BDE6D882491A3B-2025-08-18-12-04-43","","null","","images/semantic_sequence/physical_activity_semantic/physical_activity_semantic_5.png","null","",""
"","","","","","image-button-response","26","260640","0.0-10.0-1.0-1.0","397B4FC93D8C490681BDE6D882491A3B","397B4FC93D8C490681BDE6D882491A3B","0198bcf3-2b9e-74f2-b612-41c071d5b112","0198bbb8-fd11-701d-9147-68794ad37298","{""num_scrambled_semantic"":""8"",""num_scrambled_causal"":""4"",""num_scrambled_schematic"":""4"",""participantId"":""397B4FC93D8C490681BDE6D882491A3B"",""assignmentId"":""0198bcf3-2b9e-74f2-b612-41c071d5b112"",""projectId"":""0198bbb8-fd11-701d-9147-68794ad37298""}","https://test12345.live/?num_scrambled_semantic=8&num_scrambled_causal=4&num_scrambled_schematic=4&participantId=397B4FC93D8C490681BDE6D882491A3B&assignmentId=0198bcf3-2b9e-74f2-b612-41c071d5b112&projectId=0198bbb8-fd11-701d-9147-68794ad37298","397B4FC93D8C490681BDE6D882491A3B-2025-08-18-12-04-43","","1706","","images/semantic_sequence/physical_activity_semantic/physical_activity_semantic_5.png","0","",""
"","","","","","image-button-response","27","271445","0.0-10.0-1.0-2.0","397B4FC93D8C490681BDE6D882491A3B","397B4FC93D8C490681BDE6D882491A3B","0198bcf3-2b9e-74f2-b612-41c071d5b112","0198bbb8-fd11-701d-9147-68794ad37298","{""num_scrambled_semantic"":""8"",""num_scrambled_causal"":""4"",""num_scrambled_schematic"":""4"",""participantId"":""397B4FC93D8C490681BDE6D882491A3B"",""assignmentId"":""0198bcf3-2b9e-74f2-b612-41c071d5b112"",""projectId"":""0198bbb8-fd11-701d-9147-68794ad37298""}","https://test12345.live/?num_scrambled_semantic=8&num_scrambled_causal=4&num_scrambled_schematic=4&participantId=397B4FC93D8C490681BDE6D882491A3B&assignmentId=0198bcf3-2b9e-74f2-b612-41c071d5b112&projectId=0198bbb8-fd11-701d-9147-68794ad37298","397B4FC93D8C490681BDE6D882491A3B-2025-08-18-12-04-43","","null","","[]","null","",""
"","","","","","image-button-response","28","275956","0.0-10.0-1.0-0.1","397B4FC93D8C490681BDE6D882491A3B","397B4FC93D8C490681BDE6D882491A3B","0198bcf3-2b9e-74f2-b612-41c071d5b112","0198bbb8-fd11-701d-9147-68794ad37298","{""num_scrambled_semantic"":""8"",""num_scrambled_causal"":""4"",""num_scrambled_schematic"":""4"",""participantId"":""397B4FC93D8C490681BDE6D882491A3B"",""assignmentId"":""0198bcf3-2b9e-74f2-b612-41c071d5b112"",""projectId"":""0198bbb8-fd11-701d-9147-68794ad37298""}","https://test12345.live/?num_scrambled_semantic=8&num_scrambled_causal=4&num_scrambled_schematic=4&participantId=397B4FC93D8C490681BDE6D882491A3B&assignmentId=0198bcf3-2b9e-74f2-b612-41c071d5b112&projectId=0198bbb8-fd11-701d-9147-68794ad37298","397B4FC93D8C490681BDE6D882491A3B-2025-08-18-12-04-43","","null","","images/semantic_sequence/physical_activity_semantic/physical_activity_semantic_7.png","null","",""
"","","","","","image-button-response","29","278279","0.0-10.0-1.0-1.1","397B4FC93D8C490681BDE6D882491A3B","397B4FC93D8C490681BDE6D882491A3B","0198bcf3-2b9e-74f2-b612-41c071d5b112","0198bbb8-fd11-701d-9147-68794ad37298","{""num_scrambled_semantic"":""8"",""num_scrambled_causal"":""4"",""num_scrambled_schematic"":""4"",""participantId"":""397B4FC93D8C490681BDE6D882491A3B"",""assignmentId"":""0198bcf3-2b9e-74f2-b612-41c071d5b112"",""projectId"":""0198bbb8-fd11-701d-9147-68794ad37298""}","https://test12345.live/?num_scrambled_semantic=8&num_scrambled_causal=4&num_scrambled_schematic=4&participantId=397B4FC93D8C490681BDE6D882491A3B&assignmentId=0198bcf3-2b9e-74f2-b612-41c071d5b112&projectId=0198bbb8-fd11-701d-9147-68794ad37298","397B4FC93D8C490681BDE6D882491A3B-2025-08-18-12-04-43","","2321","","images/semantic_sequence/physical_activity_semantic/physical_activity_semantic_7.png","0","",""
"","","","","","image-button-response","30","289092","0.0-10.0-1.0-2.1","397B4FC93D8C490681BDE6D882491A3B","397B4FC93D8C490681BDE6D882491A3B","0198bcf3-2b9e-74f2-b612-41c071d5b112","0198bbb8-fd11-701d-9147-68794ad37298","{""num_scrambled_semantic"":""8"",""num_scrambled_causal"":""4"",""num_scrambled_schematic"":""4"",""participantId"":""397B4FC93D8C490681BDE6D882491A3B"",""assignmentId"":""0198bcf3-2b9e-74f2-b612-41c071d5b112"",""projectId"":""0198bbb8-fd11-701d-9147-68794ad37298""}","https://test12345.live/?num_scrambled_semantic=8&num_scrambled_causal=4&num_scrambled_schematic=4&participantId=397B4FC93D8C490681BDE6D882491A3B&assignmentId=0198bcf3-2b9e-74f2-b612-41c071d5b112&projectId=0198bbb8-fd11-701d-9147-68794ad37298","397B4FC93D8C490681BDE6D882491A3B-2025-08-18-12-04-43","","null","","[]","null","",""
"","","","","","image-button-response","31","293602","0.0-10.0-1.0-0.2","397B4FC93D8C490681BDE6D882491A3B","397B4FC93D8C490681BDE6D882491A3B","0198bcf3-2b9e-74f2-b612-41c071d5b112","0198bbb8-fd11-701d-9147-68794ad37298","{""num_scrambled_semantic"":""8"",""num_scrambled_causal"":""4"",""num_scrambled_schematic"":""4"",""participantId"":""397B4FC93D8C490681BDE6D882491A3B"",""assignmentId"":""0198bcf3-2b9e-74f2-b612-41c071d5b112"",""projectId"":""0198bbb8-fd11-701d-9147-68794ad37298""}","https://test12345.live/?num_scrambled_semantic=8&num_scrambled_causal=4&num_scrambled_schematic=4&participantId=397B4FC93D8C490681BDE6D882491A3B&assignmentId=0198bcf3-2b9e-74f2-b612-41c071d5b112&projectId=0198bbb8-fd11-701d-9147-68794ad37298","397B4FC93D8C490681BDE6D882491A3B-2025-08-18-12-04-43","","null","","images/semantic_sequence/physical_activity_semantic/physical_activity_semantic_3.png","null","",""
"","","","","","image-button-response","32","295115","0.0-10.0-1.0-1.2","397B4FC93D8C490681BDE6D882491A3B","397B4FC93D8C490681BDE6D882491A3B","0198bcf3-2b9e-74f2-b612-41c071d5b112","0198bbb8-fd11-701d-9147-68794ad37298","{""num_scrambled_semantic"":""8"",""num_scrambled_causal"":""4"",""num_scrambled_schematic"":""4"",""participantId"":""397B4FC93D8C490681BDE6D882491A3B"",""assignmentId"":""0198bcf3-2b9e-74f2-b612-41c071d5b112"",""projectId"":""0198bbb8-fd11-701d-9147-68794ad37298""}","https://test12345.live/?num_scrambled_semantic=8&num_scrambled_causal=4&num_scrambled_schematic=4&participantId=397B4FC93D8C490681BDE6D882491A3B&assignmentId=0198bcf3-2b9e-74f2-b612-41c071d5b112&projectId=0198bbb8-fd11-701d-9147-68794ad37298","397B4FC93D8C490681BDE6D882491A3B-2025-08-18-12-04-43","","1510","","images/semantic_sequence/physical_activity_semantic/physical_activity_semantic_3.png","0","",""
"","","","","","image-button-response","33","305917","0.0-10.0-1.0-2.2","397B4FC93D8C490681BDE6D882491A3B","397B4FC93D8C490681BDE6D882491A3B","0198bcf3-2b9e-74f2-b612-41c071d5b112","0198bbb8-fd11-701d-9147-68794ad37298","{""num_scrambled_semantic"":""8"",""num_scrambled_causal"":""4"",""num_scrambled_schematic"":""4"",""participantId"":""397B4FC93D8C490681BDE6D882491A3B"",""assignmentId"":""0198bcf3-2b9e-74f2-b612-41c071d5b112"",""projectId"":""0198bbb8-fd11-701d-9147-68794ad37298""}","https://test12345.live/?num_scrambled_semantic=8&num_scrambled_causal=4&num_scrambled_schematic=4&participantId=397B4FC93D8C490681BDE6D882491A3B&assignmentId=0198bcf3-2b9e-74f2-b612-41c071d5b112&projectId=0198bbb8-fd11-701d-9147-68794ad37298","397B4FC93D8C490681BDE6D882491A3B-2025-08-18-12-04-43","","null","","[]","null","",""
"","","","","","image-button-response","34","310431","0.0-10.0-1.0-0.3","397B4FC93D8C490681BDE6D882491A3B","397B4FC93D8C490681BDE6D882491A3B","0198bcf3-2b9e-74f2-b612-41c071d5b112","0198bbb8-fd11-701d-9147-68794ad37298","{""num_scrambled_semantic"":""8"",""num_scrambled_causal"":""4"",""num_scrambled_schematic"":""4"",""participantId"":""397B4FC93D8C490681BDE6D882491A3B"",""assignmentId"":""0198bcf3-2b9e-74f2-b612-41c071d5b112"",""projectId"":""0198bbb8-fd11-701d-9147-68794ad37298""}","https://test12345.live/?num_scrambled_semantic=8&num_scrambled_causal=4&num_scrambled_schematic=4&participantId=397B4FC93D8C490681BDE6D882491A3B&assignmentId=0198bcf3-2b9e-74f2-b612-41c071d5b112&projectId=0198bbb8-fd11-701d-9147-68794ad37298","397B4FC93D8C490681BDE6D882491A3B-2025-08-18-12-04-43","","null","","images/semantic_sequence/physical_activity_semantic/physical_activity_semantic_2.png","null","",""
"","","","","","image-button-response","35","311626","0.0-10.0-1.0-1.3","397B4FC93D8C490681BDE6D882491A3B","397B4FC93D8C490681BDE6D882491A3B","0198bcf3-2b9e-74f2-b612-41c071d5b112","0198bbb8-fd11-701d-9147-68794ad37298","{""num_scrambled_semantic"":""8"",""num_scrambled_causal"":""4"",""num_scrambled_schematic"":""4"",""participantId"":""397B4FC93D8C490681BDE6D882491A3B"",""assignmentId"":""0198bcf3-2b9e-74f2-b612-41c071d5b112"",""projectId"":""0198bbb8-fd11-701d-9147-68794ad37298""}","https://test12345.live/?num_scrambled_semantic=8&num_scrambled_causal=4&num_scrambled_schematic=4&participantId=397B4FC93D8C490681BDE6D882491A3B&assignmentId=0198bcf3-2b9e-74f2-b612-41c071d5b112&projectId=0198bbb8-fd11-701d-9147-68794ad37298","397B4FC93D8C490681BDE6D882491A3B-2025-08-18-12-04-43","","1193","","images/semantic_sequence/physical_activity_semantic/physical_activity_semantic_2.png","0","",""
"","","","","","image-button-response","36","322431","0.0-10.0-1.0-2.3","397B4FC93D8C490681BDE6D882491A3B","397B4FC93D8C490681BDE6D882491A3B","0198bcf3-2b9e-74f2-b612-41c071d5b112","0198bbb8-fd11-701d-9147-68794ad37298","{""num_scrambled_semantic"":""8"",""num_scrambled_causal"":""4"",""num_scrambled_schematic"":""4"",""participantId"":""397B4FC93D8C490681BDE6D882491A3B"",""assignmentId"":""0198bcf3-2b9e-74f2-b612-41c071d5b112"",""projectId"":""0198bbb8-fd11-701d-9147-68794ad37298""}","https://test12345.live/?num_scrambled_semantic=8&num_scrambled_causal=4&num_scrambled_schematic=4&participantId=397B4FC93D8C490681BDE6D882491A3B&assignmentId=0198bcf3-2b9e-74f2-b612-41c071d5b112&projectId=0198bbb8-fd11-701d-9147-68794ad37298","397B4FC93D8C490681BDE6D882491A3B-2025-08-18-12-04-43","","null","","[]","null","",""
"","","","","","image-button-response","37","326934","0.0-10.0-1.0-0.4","397B4FC93D8C490681BDE6D882491A3B","397B4FC93D8C490681BDE6D882491A3B","0198bcf3-2b9e-74f2-b612-41c071d5b112","0198bbb8-fd11-701d-9147-68794ad37298","{""num_scrambled_semantic"":""8"",""num_scrambled_causal"":""4"",""num_scrambled_schematic"":""4"",""participantId"":""397B4FC93D8C490681BDE6D882491A3B"",""assignmentId"":""0198bcf3-2b9e-74f2-b612-41c071d5b112"",""projectId"":""0198bbb8-fd11-701d-9147-68794ad37298""}","https://test12345.live/?num_scrambled_semantic=8&num_scrambled_causal=4&num_scrambled_schematic=4&participantId=397B4FC93D8C490681BDE6D882491A3B&assignmentId=0198bcf3-2b9e-74f2-b612-41c071d5b112&projectId=0198bbb8-fd11-701d-9147-68794ad37298","397B4FC93D8C490681BDE6D882491A3B-2025-08-18-12-04-43","","null","","images/semantic_sequence/physical_activity_semantic/physical_activity_semantic_9.png","null","",""
"","","","","","image-button-response","38","328406","0.0-10.0-1.0-1.4","397B4FC93D8C490681BDE6D882491A3B","397B4FC93D8C490681BDE6D882491A3B","0198bcf3-2b9e-74f2-b612-41c071d5b112","0198bbb8-fd11-701d-9147-68794ad37298","{""num_scrambled_semantic"":""8"",""num_scrambled_causal"":""4"",""num_scrambled_schematic"":""4"",""participantId"":""397B4FC93D8C490681BDE6D882491A3B"",""assignmentId"":""0198bcf3-2b9e-74f2-b612-41c071d5b112"",""projectId"":""0198bbb8-fd11-701d-9147-68794ad37298""}","https://test12345.live/?num_scrambled_semantic=8&num_scrambled_causal=4&num_scrambled_schematic=4&participantId=397B4FC93D8C490681BDE6D882491A3B&assignmentId=0198bcf3-2b9e-74f2-b612-41c071d5b112&projectId=0198bbb8-fd11-701d-9147-68794ad37298","397B4FC93D8C490681BDE6D882491A3B-2025-08-18-12-04-43","","1471","","images/semantic_sequence/physical_activity_semantic/physical_activity_semantic_9.png","0","",""
"","","","","","image-button-response","39","339211","0.0-10.0-1.0-2.4","397B4FC93D8C490681BDE6D882491A3B","397B4FC93D8C490681BDE6D882491A3B","0198bcf3-2b9e-74f2-b612-41c071d5b112","0198bbb8-fd11-701d-9147-68794ad37298","{""num_scrambled_semantic"":""8"",""num_scrambled_causal"":""4"",""num_scrambled_schematic"":""4"",""participantId"":""397B4FC93D8C490681BDE6D882491A3B"",""assignmentId"":""0198bcf3-2b9e-74f2-b612-41c071d5b112"",""projectId"":""0198bbb8-fd11-701d-9147-68794ad37298""}","https://test12345.live/?num_scrambled_semantic=8&num_scrambled_causal=4&num_scrambled_schematic=4&participantId=397B4FC93D8C490681BDE6D882491A3B&assignmentId=0198bcf3-2b9e-74f2-b612-41c071d5b112&projectId=0198bbb8-fd11-701d-9147-68794ad37298","397B4FC93D8C490681BDE6D882491A3B-2025-08-18-12-04-43","","null","","[]","null","",""
"","","","","","image-button-response","40","343715","0.0-10.0-1.0-0.5","397B4FC93D8C490681BDE6D882491A3B","397B4FC93D8C490681BDE6D882491A3B","0198bcf3-2b9e-74f2-b612-41c071d5b112","0198bbb8-fd11-701d-9147-68794ad37298","{""num_scrambled_semantic"":""8"",""num_scrambled_causal"":""4"",""num_scrambled_schematic"":""4"",""participantId"":""397B4FC93D8C490681BDE6D882491A3B"",""assignmentId"":""0198bcf3-2b9e-74f2-b612-41c071d5b112"",""projectId"":""0198bbb8-fd11-701d-9147-68794ad37298""}","https://test12345.live/?num_scrambled_semantic=8&num_scrambled_causal=4&num_scrambled_schematic=4&participantId=397B4FC93D8C490681BDE6D882491A3B&assignmentId=0198bcf3-2b9e-74f2-b612-41c071d5b112&projectId=0198bbb8-fd11-701d-9147-68794ad37298","397B4FC93D8C490681BDE6D882491A3B-2025-08-18-12-04-43","","null","","images/semantic_sequence/physical_activity_semantic/physical_activity_semantic_1.png","null","",""
"","","","","","image-button-response","41","344899","0.0-10.0-1.0-1.5","397B4FC93D8C490681BDE6D882491A3B","397B4FC93D8C490681BDE6D882491A3B","0198bcf3-2b9e-74f2-b612-41c071d5b112","0198bbb8-fd11-701d-9147-68794ad37298","{""num_scrambled_semantic"":""8"",""num_scrambled_causal"":""4"",""num_scrambled_schematic"":""4"",""participantId"":""397B4FC93D8C490681BDE6D882491A3B"",""assignmentId"":""0198bcf3-2b9e-74f2-b612-41c071d5b112"",""projectId"":""0198bbb8-fd11-701d-9147-68794ad37298""}","https://test12345.live/?num_scrambled_semantic=8&num_scrambled_causal=4&num_scrambled_schematic=4&participantId=397B4FC93D8C490681BDE6D882491A3B&assignmentId=0198bcf3-2b9e-74f2-b612-41c071d5b112&projectId=0198bbb8-fd11-701d-9147-68794ad37298","397B4FC93D8C490681BDE6D882491A3B-2025-08-18-12-04-43","","1182","","images/semantic_sequence/physical_activity_semantic/physical_activity_semantic_1.png","0","",""
"","","","","","image-button-response","42","355712","0.0-10.0-1.0-2.5","397B4FC93D8C490681BDE6D882491A3B","397B4FC93D8C490681BDE6D882491A3B","0198bcf3-2b9e-74f2-b612-41c071d5b112","0198bbb8-fd11-701d-9147-68794ad37298","{""num_scrambled_semantic"":""8"",""num_scrambled_causal"":""4"",""num_scrambled_schematic"":""4"",""participantId"":""397B4FC93D8C490681BDE6D882491A3B"",""assignmentId"":""0198bcf3-2b9e-74f2-b612-41c071d5b112"",""projectId"":""0198bbb8-fd11-701d-9147-68794ad37298""}","https://test12345.live/?num_scrambled_semantic=8&num_scrambled_causal=4&num_scrambled_schematic=4&participantId=397B4FC93D8C490681BDE6D882491A3B&assignmentId=0198bcf3-2b9e-74f2-b612-41c071d5b112&projectId=0198bbb8-fd11-701d-9147-68794ad37298","397B4FC93D8C490681BDE6D882491A3B-2025-08-18-12-04-43","","null","","[]","null","",""
"","","","","","image-button-response","43","360223","0.0-10.0-1.0-0.6","397B4FC93D8C490681BDE6D882491A3B","397B4FC93D8C490681BDE6D882491A3B","0198bcf3-2b9e-74f2-b612-41c071d5b112","0198bbb8-fd11-701d-9147-68794ad37298","{""num_scrambled_semantic"":""8"",""num_scrambled_causal"":""4"",""num_scrambled_schematic"":""4"",""participantId"":""397B4FC93D8C490681BDE6D882491A3B"",""assignmentId"":""0198bcf3-2b9e-74f2-b612-41c071d5b112"",""projectId"":""0198bbb8-fd11-701d-9147-68794ad37298""}","https://test12345.live/?num_scrambled_semantic=8&num_scrambled_causal=4&num_scrambled_schematic=4&participantId=397B4FC93D8C490681BDE6D882491A3B&assignmentId=0198bcf3-2b9e-74f2-b612-41c071d5b112&projectId=0198bbb8-fd11-701d-9147-68794ad37298","397B4FC93D8C490681BDE6D882491A3B-2025-08-18-12-04-43","","null","","images/semantic_sequence/physical_activity_semantic/physical_activity_semantic_6.png","null","",""
"","","","","","image-button-response","44","362294","0.0-10.0-1.0-1.6","397B4FC93D8C490681BDE6D882491A3B","397B4FC93D8C490681BDE6D882491A3B","0198bcf3-2b9e-74f2-b612-41c071d5b112","0198bbb8-fd11-701d-9147-68794ad37298","{""num_scrambled_semantic"":""8"",""num_scrambled_causal"":""4"",""num_scrambled_schematic"":""4"",""participantId"":""397B4FC93D8C490681BDE6D882491A3B"",""assignmentId"":""0198bcf3-2b9e-74f2-b612-41c071d5b112"",""projectId"":""0198bbb8-fd11-701d-9147-68794ad37298""}","https://test12345.live/?num_scrambled_semantic=8&num_scrambled_causal=4&num_scrambled_schematic=4&participantId=397B4FC93D8C490681BDE6D882491A3B&assignmentId=0198bcf3-2b9e-74f2-b612-41c071d5b112&projectId=0198bbb8-fd11-701d-9147-68794ad37298","397B4FC93D8C490681BDE6D882491A3B-2025-08-18-12-04-43","","2069","","images/semantic_sequence/physical_activity_semantic/physical_activity_semantic_6.png","0","",""
"","","","","","image-button-response","45","373110","0.0-10.0-1.0-2.6","397B4FC93D8C490681BDE6D882491A3B","397B4FC93D8C490681BDE6D882491A3B","0198bcf3-2b9e-74f2-b612-41c071d5b112","0198bbb8-fd11-701d-9147-68794ad37298","{""num_scrambled_semantic"":""8"",""num_scrambled_causal"":""4"",""num_scrambled_schematic"":""4"",""participantId"":""397B4FC93D8C490681BDE6D882491A3B"",""assignmentId"":""0198bcf3-2b9e-74f2-b612-41c071d5b112"",""projectId"":""0198bbb8-fd11-701d-9147-68794ad37298""}","https://test12345.live/?num_scrambled_semantic=8&num_scrambled_causal=4&num_scrambled_schematic=4&participantId=397B4FC93D8C490681BDE6D882491A3B&assignmentId=0198bcf3-2b9e-74f2-b612-41c071d5b112&projectId=0198bbb8-fd11-701d-9147-68794ad37298","397B4FC93D8C490681BDE6D882491A3B-2025-08-18-12-04-43","","null","","[]","null","",""
"","","","","","image-button-response","46","377622","0.0-10.0-1.0-0.7","397B4FC93D8C490681BDE6D882491A3B","397B4FC93D8C490681BDE6D882491A3B","0198bcf3-2b9e-74f2-b612-41c071d5b112","0198bbb8-fd11-701d-9147-68794ad37298","{""num_scrambled_semantic"":""8"",""num_scrambled_causal"":""4"",""num_scrambled_schematic"":""4"",""participantId"":""397B4FC93D8C490681BDE6D882491A3B"",""assignmentId"":""0198bcf3-2b9e-74f2-b612-41c071d5b112"",""projectId"":""0198bbb8-fd11-701d-9147-68794ad37298""}","https://test12345.live/?num_scrambled_semantic=8&num_scrambled_causal=4&num_scrambled_schematic=4&participantId=397B4FC93D8C490681BDE6D882491A3B&assignmentId=0198bcf3-2b9e-74f2-b612-41c071d5b112&projectId=0198bbb8-fd11-701d-9147-68794ad37298","397B4FC93D8C490681BDE6D882491A3B-2025-08-18-12-04-43","","null","","images/semantic_sequence/physical_activity_semantic/physical_activity_semantic_8.png","null","",""
"","","","","","image-button-response","47","378956","0.0-10.0-1.0-1.7","397B4FC93D8C490681BDE6D882491A3B","397B4FC93D8C490681BDE6D882491A3B","0198bcf3-2b9e-74f2-b612-41c071d5b112","0198bbb8-fd11-701d-9147-68794ad37298","{""num_scrambled_semantic"":""8"",""num_scrambled_causal"":""4"",""num_scrambled_schematic"":""4"",""participantId"":""397B4FC93D8C490681BDE6D882491A3B"",""assignmentId"":""0198bcf3-2b9e-74f2-b612-41c071d5b112"",""projectId"":""0198bbb8-fd11-701d-9147-68794ad37298""}","https://test12345.live/?num_scrambled_semantic=8&num_scrambled_causal=4&num_scrambled_schematic=4&participantId=397B4FC93D8C490681BDE6D882491A3B&assignmentId=0198bcf3-2b9e-74f2-b612-41c071d5b112&projectId=0198bbb8-fd11-701d-9147-68794ad37298","397B4FC93D8C490681BDE6D882491A3B-2025-08-18-12-04-43","","1332","","images/semantic_sequence/physical_activity_semantic/physical_activity_semantic_8.png","0","",""
"","","","","","image-button-response","48","389770","0.0-10.0-1.0-2.7","397B4FC93D8C490681BDE6D882491A3B","397B4FC93D8C490681BDE6D882491A3B","0198bcf3-2b9e-74f2-b612-41c071d5b112","0198bbb8-fd11-701d-9147-68794ad37298","{""num_scrambled_semantic"":""8"",""num_scrambled_causal"":""4"",""num_scrambled_schematic"":""4"",""participantId"":""397B4FC93D8C490681BDE6D882491A3B"",""assignmentId"":""0198bcf3-2b9e-74f2-b612-41c071d5b112"",""projectId"":""0198bbb8-fd11-701d-9147-68794ad37298""}","https://test12345.live/?num_scrambled_semantic=8&num_scrambled_causal=4&num_scrambled_schematic=4&participantId=397B4FC93D8C490681BDE6D882491A3B&assignmentId=0198bcf3-2b9e-74f2-b612-41c071d5b112&projectId=0198bbb8-fd11-701d-9147-68794ad37298","397B4FC93D8C490681BDE6D882491A3B-2025-08-18-12-04-43","","null","","[]","null","",""
"","","","","","image-button-response","49","394273","0.0-10.0-1.0-0.8","397B4FC93D8C490681BDE6D882491A3B","397B4FC93D8C490681BDE6D882491A3B","0198bcf3-2b9e-74f2-b612-41c071d5b112","0198bbb8-fd11-701d-9147-68794ad37298","{""num_scrambled_semantic"":""8"",""num_scrambled_causal"":""4"",""num_scrambled_schematic"":""4"",""participantId"":""397B4FC93D8C490681BDE6D882491A3B"",""assignmentId"":""0198bcf3-2b9e-74f2-b612-41c071d5b112"",""projectId"":""0198bbb8-fd11-701d-9147-68794ad37298""}","https://test12345.live/?num_scrambled_semantic=8&num_scrambled_causal=4&num_scrambled_schematic=4&participantId=397B4FC93D8C490681BDE6D882491A3B&assignmentId=0198bcf3-2b9e-74f2-b612-41c071d5b112&projectId=0198bbb8-fd11-701d-9147-68794ad37298","397B4FC93D8C490681BDE6D882491A3B-2025-08-18-12-04-43","","null","","images/semantic_sequence/physical_activity_semantic/physical_activity_semantic_ten.png","null","",""
"","","","","","image-button-response","50","397092","0.0-10.0-1.0-1.8","397B4FC93D8C490681BDE6D882491A3B","397B4FC93D8C490681BDE6D882491A3B","0198bcf3-2b9e-74f2-b612-41c071d5b112","0198bbb8-fd11-701d-9147-68794ad37298","{""num_scrambled_semantic"":""8"",""num_scrambled_causal"":""4"",""num_scrambled_schematic"":""4"",""participantId"":""397B4FC93D8C490681BDE6D882491A3B"",""assignmentId"":""0198bcf3-2b9e-74f2-b612-41c071d5b112"",""projectId"":""0198bbb8-fd11-701d-9147-68794ad37298""}","https://test12345.live/?num_scrambled_semantic=8&num_scrambled_causal=4&num_scrambled_schematic=4&participantId=397B4FC93D8C490681BDE6D882491A3B&assignmentId=0198bcf3-2b9e-74f2-b612-41c071d5b112&projectId=0198bbb8-fd11-701d-9147-68794ad37298","397B4FC93D8C490681BDE6D882491A3B-2025-08-18-12-04-43","","2817","","images/semantic_sequence/physical_activity_semantic/physical_activity_semantic_ten.png","0","",""
"","","","","","image-button-response","51","407907","0.0-10.0-1.0-2.8","397B4FC93D8C490681BDE6D882491A3B","397B4FC93D8C490681BDE6D882491A3B","0198bcf3-2b9e-74f2-b612-41c071d5b112","0198bbb8-fd11-701d-9147-68794ad37298","{""num_scrambled_semantic"":""8"",""num_scrambled_causal"":""4"",""num_scrambled_schematic"":""4"",""participantId"":""397B4FC93D8C490681BDE6D882491A3B"",""assignmentId"":""0198bcf3-2b9e-74f2-b612-41c071d5b112"",""projectId"":""0198bbb8-fd11-701d-9147-68794ad37298""}","https://test12345.live/?num_scrambled_semantic=8&num_scrambled_causal=4&num_scrambled_schematic=4&participantId=397B4FC93D8C490681BDE6D882491A3B&assignmentId=0198bcf3-2b9e-74f2-b612-41c071d5b112&projectId=0198bbb8-fd11-701d-9147-68794ad37298","397B4FC93D8C490681BDE6D882491A3B-2025-08-18-12-04-43","","null","","[]","null","",""
"","","","","","image-button-response","52","412419","0.0-10.0-1.0-0.9","397B4FC93D8C490681BDE6D882491A3B","397B4FC93D8C490681BDE6D882491A3B","0198bcf3-2b9e-74f2-b612-41c071d5b112","0198bbb8-fd11-701d-9147-68794ad37298","{""num_scrambled_semantic"":""8"",""num_scrambled_causal"":""4"",""num_scrambled_schematic"":""4"",""participantId"":""397B4FC93D8C490681BDE6D882491A3B"",""assignmentId"":""0198bcf3-2b9e-74f2-b612-41c071d5b112"",""projectId"":""0198bbb8-fd11-701d-9147-68794ad37298""}","https://test12345.live/?num_scrambled_semantic=8&num_scrambled_causal=4&num_scrambled_schematic=4&participantId=397B4FC93D8C490681BDE6D882491A3B&assignmentId=0198bcf3-2b9e-74f2-b612-41c071d5b112&projectId=0198bbb8-fd11-701d-9147-68794ad37298","397B4FC93D8C490681BDE6D882491A3B-2025-08-18-12-04-43","","null","","images/semantic_sequence/physical_activity_semantic/physical_activity_semantic_4.png","null","",""
"","","","","","image-button-response","53","413638","0.0-10.0-1.0-1.9","397B4FC93D8C490681BDE6D882491A3B","397B4FC93D8C490681BDE6D882491A3B","0198bcf3-2b9e-74f2-b612-41c071d5b112","0198bbb8-fd11-701d-9147-68794ad37298","{""num_scrambled_semantic"":""8"",""num_scrambled_causal"":""4"",""num_scrambled_schematic"":""4"",""participantId"":""397B4FC93D8C490681BDE6D882491A3B"",""assignmentId"":""0198bcf3-2b9e-74f2-b612-41c071d5b112"",""projectId"":""0198bbb8-fd11-701d-9147-68794ad37298""}","https://test12345.live/?num_scrambled_semantic=8&num_scrambled_causal=4&num_scrambled_schematic=4&participantId=397B4FC93D8C490681BDE6D882491A3B&assignmentId=0198bcf3-2b9e-74f2-b612-41c071d5b112&projectId=0198bbb8-fd11-701d-9147-68794ad37298","397B4FC93D8C490681BDE6D882491A3B-2025-08-18-12-04-43","","1218","","images/semantic_sequence/physical_activity_semantic/physical_activity_semantic_4.png","0","",""
"","","","","","image-button-response","54","424454","0.0-10.0-1.0-2.9","397B4FC93D8C490681BDE6D882491A3B","397B4FC93D8C490681BDE6D882491A3B","0198bcf3-2b9e-74f2-b612-41c071d5b112","0198bbb8-fd11-701d-9147-68794ad37298","{""num_scrambled_semantic"":""8"",""num_scrambled_causal"":""4"",""num_scrambled_schematic"":""4"",""participantId"":""397B4FC93D8C490681BDE6D882491A3B"",""assignmentId"":""0198bcf3-2b9e-74f2-b612-41c071d5b112"",""projectId"":""0198bbb8-fd11-701d-9147-68794ad37298""}","https://test12345.live/?num_scrambled_semantic=8&num_scrambled_causal=4&num_scrambled_schematic=4&participantId=397B4FC93D8C490681BDE6D882491A3B&assignmentId=0198bcf3-2b9e-74f2-b612-41c071d5b112&projectId=0198bbb8-fd11-701d-9147-68794ad37298","397B4FC93D8C490681BDE6D882491A3B-2025-08-18-12-04-43","","null","","[]","null","",""
"","","","","","html-audio-response","55","455506","0.0-11.0","397B4FC93D8C490681BDE6D882491A3B","397B4FC93D8C490681BDE6D882491A3B","0198bcf3-2b9e-74f2-b612-41c071d5b112","0198bbb8-fd11-701d-9147-68794ad37298","{""num_scrambled_semantic"":""8"",""num_scrambled_causal"":""4"",""num_scrambled_schematic"":""4"",""participantId"":""397B4FC93D8C490681BDE6D882491A3B"",""assignmentId"":""0198bcf3-2b9e-74f2-b612-41c071d5b112"",""projectId"":""0198bbb8-fd11-701d-9147-68794ad37298""}","https://test12345.live/?num_scrambled_semantic=8&num_scrambled_causal=4&num_scrambled_schematic=4&participantId=397B4FC93D8C490681BDE6D882491A3B&assignmentId=0198bcf3-2b9e-74f2-b612-41c071d5b112&projectId=0198bbb8-fd11-701d-9147-68794ad37298","397B4FC93D8C490681BDE6D882491A3B-2025-08-18-12-04-43","","28099","","[""<span style=\""color: red; font-size: 24px\""> NOW RECORDING</span><p>Please say out loud all the images you saw, as many as you can remember. The images can be said in any order.</p>""]","","2","physical_activity_semantic"
"","","","","","image-button-response","56","461537","0.0-12.0-0.0","397B4FC93D8C490681BDE6D882491A3B","397B4FC93D8C490681BDE6D882491A3B","0198bcf3-2b9e-74f2-b612-41c071d5b112","0198bbb8-fd11-701d-9147-68794ad37298","{""num_scrambled_semantic"":""8"",""num_scrambled_causal"":""4"",""num_scrambled_schematic"":""4"",""participantId"":""397B4FC93D8C490681BDE6D882491A3B"",""assignmentId"":""0198bcf3-2b9e-74f2-b612-41c071d5b112"",""projectId"":""0198bbb8-fd11-701d-9147-68794ad37298""}","https://test12345.live/?num_scrambled_semantic=8&num_scrambled_causal=4&num_scrambled_schematic=4&participantId=397B4FC93D8C490681BDE6D882491A3B&assignmentId=0198bcf3-2b9e-74f2-b612-41c071d5b112&projectId=0198bbb8-fd11-701d-9147-68794ad37298","397B4FC93D8C490681BDE6D882491A3B-2025-08-18-12-04-43","","null","","images/semantic_sequence/redecorating_semantic/redecorating_semantic_0.png","null","",""
"","","","","","image-button-response","57","466047","0.0-12.0-1.0-0.0","397B4FC93D8C490681BDE6D882491A3B","397B4FC93D8C490681BDE6D882491A3B","0198bcf3-2b9e-74f2-b612-41c071d5b112","0198bbb8-fd11-701d-9147-68794ad37298","{""num_scrambled_semantic"":""8"",""num_scrambled_causal"":""4"",""num_scrambled_schematic"":""4"",""participantId"":""397B4FC93D8C490681BDE6D882491A3B"",""assignmentId"":""0198bcf3-2b9e-74f2-b612-41c071d5b112"",""projectId"":""0198bbb8-fd11-701d-9147-68794ad37298""}","https://test12345.live/?num_scrambled_semantic=8&num_scrambled_causal=4&num_scrambled_schematic=4&participantId=397B4FC93D8C490681BDE6D882491A3B&assignmentId=0198bcf3-2b9e-74f2-b612-41c071d5b112&projectId=0198bbb8-fd11-701d-9147-68794ad37298","397B4FC93D8C490681BDE6D882491A3B-2025-08-18-12-04-43","","null","","images/semantic_sequence/redecorating_semantic/redecorating_semantic_9.png","null","",""
"","","","","","image-button-response","58","468309","0.0-12.0-1.0-1.0","397B4FC93D8C490681BDE6D882491A3B","397B4FC93D8C490681BDE6D882491A3B","0198bcf3-2b9e-74f2-b612-41c071d5b112","0198bbb8-fd11-701d-9147-68794ad37298","{""num_scrambled_semantic"":""8"",""num_scrambled_causal"":""4"",""num_scrambled_schematic"":""4"",""participantId"":""397B4FC93D8C490681BDE6D882491A3B"",""assignmentId"":""0198bcf3-2b9e-74f2-b612-41c071d5b112"",""projectId"":""0198bbb8-fd11-701d-9147-68794ad37298""}","https://test12345.live/?num_scrambled_semantic=8&num_scrambled_causal=4&num_scrambled_schematic=4&participantId=397B4FC93D8C490681BDE6D882491A3B&assignmentId=0198bcf3-2b9e-74f2-b612-41c071d5b112&projectId=0198bbb8-fd11-701d-9147-68794ad37298","397B4FC93D8C490681BDE6D882491A3B-2025-08-18-12-04-43","","2261","","images/semantic_sequence/redecorating_semantic/redecorating_semantic_9.png","0","",""
"","","","","","image-button-response","59","479120","0.0-12.0-1.0-2.0","397B4FC93D8C490681BDE6D882491A3B","397B4FC93D8C490681BDE6D882491A3B","0198bcf3-2b9e-74f2-b612-41c071d5b112","0198bbb8-fd11-701d-9147-68794ad37298","{""num_scrambled_semantic"":""8"",""num_scrambled_causal"":""4"",""num_scrambled_schematic"":""4"",""participantId"":""397B4FC93D8C490681BDE6D882491A3B"",""assignmentId"":""0198bcf3-2b9e-74f2-b612-41c071d5b112"",""projectId"":""0198bbb8-fd11-701d-9147-68794ad37298""}","https://test12345.live/?num_scrambled_semantic=8&num_scrambled_causal=4&num_scrambled_schematic=4&participantId=397B4FC93D8C490681BDE6D882491A3B&assignmentId=0198bcf3-2b9e-74f2-b612-41c071d5b112&projectId=0198bbb8-fd11-701d-9147-68794ad37298","397B4FC93D8C490681BDE6D882491A3B-2025-08-18-12-04-43","","null","","[]","null","",""
"","","","","","image-button-response","60","483632","0.0-12.0-1.0-0.1","397B4FC93D8C490681BDE6D882491A3B","397B4FC93D8C490681BDE6D882491A3B","0198bcf3-2b9e-74f2-b612-41c071d5b112","0198bbb8-fd11-701d-9147-68794ad37298","{""num_scrambled_semantic"":""8"",""num_scrambled_causal"":""4"",""num_scrambled_schematic"":""4"",""participantId"":""397B4FC93D8C490681BDE6D882491A3B"",""assignmentId"":""0198bcf3-2b9e-74f2-b612-41c071d5b112"",""projectId"":""0198bbb8-fd11-701d-9147-68794ad37298""}","https://test12345.live/?num_scrambled_semantic=8&num_scrambled_causal=4&num_scrambled_schematic=4&participantId=397B4FC93D8C490681BDE6D882491A3B&assignmentId=0198bcf3-2b9e-74f2-b612-41c071d5b112&projectId=0198bbb8-fd11-701d-9147-68794ad37298","397B4FC93D8C490681BDE6D882491A3B-2025-08-18-12-04-43","","null","","images/semantic_sequence/redecorating_semantic/redecorating_semantic_7.png","null","",""
"","","","","","image-button-response","61","486068","0.0-12.0-1.0-1.1","397B4FC93D8C490681BDE6D882491A3B","397B4FC93D8C490681BDE6D882491A3B","0198bcf3-2b9e-74f2-b612-41c071d5b112","0198bbb8-fd11-701d-9147-68794ad37298","{""num_scrambled_semantic"":""8"",""num_scrambled_causal"":""4"",""num_scrambled_schematic"":""4"",""participantId"":""397B4FC93D8C490681BDE6D882491A3B"",""assignmentId"":""0198bcf3-2b9e-74f2-b612-41c071d5b112"",""projectId"":""0198bbb8-fd11-701d-9147-68794ad37298""}","https://test12345.live/?num_scrambled_semantic=8&num_scrambled_causal=4&num_scrambled_schematic=4&participantId=397B4FC93D8C490681BDE6D882491A3B&assignmentId=0198bcf3-2b9e-74f2-b612-41c071d5b112&projectId=0198bbb8-fd11-701d-9147-68794ad37298","397B4FC93D8C490681BDE6D882491A3B-2025-08-18-12-04-43","","2434","","images/semantic_sequence/redecorating_semantic/redecorating_semantic_7.png","0","",""
"","","","","","image-button-response","62","496879","0.0-12.0-1.0-2.1","397B4FC93D8C490681BDE6D882491A3B","397B4FC93D8C490681BDE6D882491A3B","0198bcf3-2b9e-74f2-b612-41c071d5b112","0198bbb8-fd11-701d-9147-68794ad37298","{""num_scrambled_semantic"":""8"",""num_scrambled_causal"":""4"",""num_scrambled_schematic"":""4"",""participantId"":""397B4FC93D8C490681BDE6D882491A3B"",""assignmentId"":""0198bcf3-2b9e-74f2-b612-41c071d5b112"",""projectId"":""0198bbb8-fd11-701d-9147-68794ad37298""}","https://test12345.live/?num_scrambled_semantic=8&num_scrambled_causal=4&num_scrambled_schematic=4&participantId=397B4FC93D8C490681BDE6D882491A3B&assignmentId=0198bcf3-2b9e-74f2-b612-41c071d5b112&projectId=0198bbb8-fd11-701d-9147-68794ad37298","397B4FC93D8C490681BDE6D882491A3B-2025-08-18-12-04-43","","null","","[]","null","",""
"","","","","","image-button-response","63","501390","0.0-12.0-1.0-0.2","397B4FC93D8C490681BDE6D882491A3B","397B4FC93D8C490681BDE6D882491A3B","0198bcf3-2b9e-74f2-b612-41c071d5b112","0198bbb8-fd11-701d-9147-68794ad37298","{""num_scrambled_semantic"":""8"",""num_scrambled_causal"":""4"",""num_scrambled_schematic"":""4"",""participantId"":""397B4FC93D8C490681BDE6D882491A3B"",""assignmentId"":""0198bcf3-2b9e-74f2-b612-41c071d5b112"",""projectId"":""0198bbb8-fd11-701d-9147-68794ad37298""}","https://test12345.live/?num_scrambled_semantic=8&num_scrambled_causal=4&num_scrambled_schematic=4&participantId=397B4FC93D8C490681BDE6D882491A3B&assignmentId=0198bcf3-2b9e-74f2-b612-41c071d5b112&projectId=0198bbb8-fd11-701d-9147-68794ad37298","397B4FC93D8C490681BDE6D882491A3B-2025-08-18-12-04-43","","null","","images/semantic_sequence/redecorating_semantic/redecorating_semantic_2.png","null","",""
"","","","","","image-button-response","64","503591","0.0-12.0-1.0-1.2","397B4FC93D8C490681BDE6D882491A3B","397B4FC93D8C490681BDE6D882491A3B","0198bcf3-2b9e-74f2-b612-41c071d5b112","0198bbb8-fd11-701d-9147-68794ad37298","{""num_scrambled_semantic"":""8"",""num_scrambled_causal"":""4"",""num_scrambled_schematic"":""4"",""participantId"":""397B4FC93D8C490681BDE6D882491A3B"",""assignmentId"":""0198bcf3-2b9e-74f2-b612-41c071d5b112"",""projectId"":""0198bbb8-fd11-701d-9147-68794ad37298""}","https://test12345.live/?num_scrambled_semantic=8&num_scrambled_causal=4&num_scrambled_schematic=4&participantId=397B4FC93D8C490681BDE6D882491A3B&assignmentId=0198bcf3-2b9e-74f2-b612-41c071d5b112&projectId=0198bbb8-fd11-701d-9147-68794ad37298","397B4FC93D8C490681BDE6D882491A3B-2025-08-18-12-04-43","","2200","","images/semantic_sequence/redecorating_semantic/redecorating_semantic_2.png","0","",""
"","","","","","image-button-response","65","514402","0.0-12.0-1.0-2.2","397B4FC93D8C490681BDE6D882491A3B","397B4FC93D8C490681BDE6D882491A3B","0198bcf3-2b9e-74f2-b612-41c071d5b112","0198bbb8-fd11-701d-9147-68794ad37298","{""num_scrambled_semantic"":""8"",""num_scrambled_causal"":""4"",""num_scrambled_schematic"":""4"",""participantId"":""397B4FC93D8C490681BDE6D882491A3B"",""assignmentId"":""0198bcf3-2b9e-74f2-b612-41c071d5b112"",""projectId"":""0198bbb8-fd11-701d-9147-68794ad37298""}","https://test12345.live/?num_scrambled_semantic=8&num_scrambled_causal=4&num_scrambled_schematic=4&participantId=397B4FC93D8C490681BDE6D882491A3B&assignmentId=0198bcf3-2b9e-74f2-b612-41c071d5b112&projectId=0198bbb8-fd11-701d-9147-68794ad37298","397B4FC93D8C490681BDE6D882491A3B-2025-08-18-12-04-43","","null","","[]","null","",""
"","","","","","image-button-response","66","518910","0.0-12.0-1.0-0.3","397B4FC93D8C490681BDE6D882491A3B","397B4FC93D8C490681BDE6D882491A3B","0198bcf3-2b9e-74f2-b612-41c071d5b112","0198bbb8-fd11-701d-9147-68794ad37298","{""num_scrambled_semantic"":""8"",""num_scrambled_causal"":""4"",""num_scrambled_schematic"":""4"",""participantId"":""397B4FC93D8C490681BDE6D882491A3B"",""assignmentId"":""0198bcf3-2b9e-74f2-b612-41c071d5b112"",""projectId"":""0198bbb8-fd11-701d-9147-68794ad37298""}","https://test12345.live/?num_scrambled_semantic=8&num_scrambled_causal=4&num_scrambled_schematic=4&participantId=397B4FC93D8C490681BDE6D882491A3B&assignmentId=0198bcf3-2b9e-74f2-b612-41c071d5b112&projectId=0198bbb8-fd11-701d-9147-68794ad37298","397B4FC93D8C490681BDE6D882491A3B-2025-08-18-12-04-43","","null","","images/semantic_sequence/redecorating_semantic/redecorating_semantic_1.png","null","",""
"","","","","","image-button-response","67","520194","0.0-12.0-1.0-1.3","397B4FC93D8C490681BDE6D882491A3B","397B4FC93D8C490681BDE6D882491A3B","0198bcf3-2b9e-74f2-b612-41c071d5b112","0198bbb8-fd11-701d-9147-68794ad37298","{""num_scrambled_semantic"":""8"",""num_scrambled_causal"":""4"",""num_scrambled_schematic"":""4"",""participantId"":""397B4FC93D8C490681BDE6D882491A3B"",""assignmentId"":""0198bcf3-2b9e-74f2-b612-41c071d5b112"",""projectId"":""0198bbb8-fd11-701d-9147-68794ad37298""}","https://test12345.live/?num_scrambled_semantic=8&num_scrambled_causal=4&num_scrambled_schematic=4&participantId=397B4FC93D8C490681BDE6D882491A3B&assignmentId=0198bcf3-2b9e-74f2-b612-41c071d5b112&projectId=0198bbb8-fd11-701d-9147-68794ad37298","397B4FC93D8C490681BDE6D882491A3B-2025-08-18-12-04-43","","1283","","images/semantic_sequence/redecorating_semantic/redecorating_semantic_1.png","0","",""
"","","","","","image-button-response","68","531000","0.0-12.0-1.0-2.3","397B4FC93D8C490681BDE6D882491A3B","397B4FC93D8C490681BDE6D882491A3B","0198bcf3-2b9e-74f2-b612-41c071d5b112","0198bbb8-fd11-701d-9147-68794ad37298","{""num_scrambled_semantic"":""8"",""num_scrambled_causal"":""4"",""num_scrambled_schematic"":""4"",""participantId"":""397B4FC93D8C490681BDE6D882491A3B"",""assignmentId"":""0198bcf3-2b9e-74f2-b612-41c071d5b112"",""projectId"":""0198bbb8-fd11-701d-9147-68794ad37298""}","https://test12345.live/?num_scrambled_semantic=8&num_scrambled_causal=4&num_scrambled_schematic=4&participantId=397B4FC93D8C490681BDE6D882491A3B&assignmentId=0198bcf3-2b9e-74f2-b612-41c071d5b112&projectId=0198bbb8-fd11-701d-9147-68794ad37298","397B4FC93D8C490681BDE6D882491A3B-2025-08-18-12-04-43","","null","","[]","null","",""
"","","","","","image-button-response","69","535504","0.0-12.0-1.0-0.4","397B4FC93D8C490681BDE6D882491A3B","397B4FC93D8C490681BDE6D882491A3B","0198bcf3-2b9e-74f2-b612-41c071d5b112","0198bbb8-fd11-701d-9147-68794ad37298","{""num_scrambled_semantic"":""8"",""num_scrambled_causal"":""4"",""num_scrambled_schematic"":""4"",""participantId"":""397B4FC93D8C490681BDE6D882491A3B"",""assignmentId"":""0198bcf3-2b9e-74f2-b612-41c071d5b112"",""projectId"":""0198bbb8-fd11-701d-9147-68794ad37298""}","https://test12345.live/?num_scrambled_semantic=8&num_scrambled_causal=4&num_scrambled_schematic=4&participantId=397B4FC93D8C490681BDE6D882491A3B&assignmentId=0198bcf3-2b9e-74f2-b612-41c071d5b112&projectId=0198bbb8-fd11-701d-9147-68794ad37298","397B4FC93D8C490681BDE6D882491A3B-2025-08-18-12-04-43","","null","","images/semantic_sequence/redecorating_semantic/redecorating_semantic_3.png","null","",""
"","","","","","image-button-response","70","537391","0.0-12.0-1.0-1.4","397B4FC93D8C490681BDE6D882491A3B","397B4FC93D8C490681BDE6D882491A3B","0198bcf3-2b9e-74f2-b612-41c071d5b112","0198bbb8-fd11-701d-9147-68794ad37298","{""num_scrambled_semantic"":""8"",""num_scrambled_causal"":""4"",""num_scrambled_schematic"":""4"",""participantId"":""397B4FC93D8C490681BDE6D882491A3B"",""assignmentId"":""0198bcf3-2b9e-74f2-b612-41c071d5b112"",""projectId"":""0198bbb8-fd11-701d-9147-68794ad37298""}","https://test12345.live/?num_scrambled_semantic=8&num_scrambled_causal=4&num_scrambled_schematic=4&participantId=397B4FC93D8C490681BDE6D882491A3B&assignmentId=0198bcf3-2b9e-74f2-b612-41c071d5b112&projectId=0198bbb8-fd11-701d-9147-68794ad37298","397B4FC93D8C490681BDE6D882491A3B-2025-08-18-12-04-43","","1885","","images/semantic_sequence/redecorating_semantic/redecorating_semantic_3.png","0","",""
"","","","","","image-button-response","71","548208","0.0-12.0-1.0-2.4","397B4FC93D8C490681BDE6D882491A3B","397B4FC93D8C490681BDE6D882491A3B","0198bcf3-2b9e-74f2-b612-41c071d5b112","0198bbb8-fd11-701d-9147-68794ad37298","{""num_scrambled_semantic"":""8"",""num_scrambled_causal"":""4"",""num_scrambled_schematic"":""4"",""participantId"":""397B4FC93D8C490681BDE6D882491A3B"",""assignmentId"":""0198bcf3-2b9e-74f2-b612-41c071d5b112"",""projectId"":""0198bbb8-fd11-701d-9147-68794ad37298""}","https://test12345.live/?num_scrambled_semantic=8&num_scrambled_causal=4&num_scrambled_schematic=4&participantId=397B4FC93D8C490681BDE6D882491A3B&assignmentId=0198bcf3-2b9e-74f2-b612-41c071d5b112&projectId=0198bbb8-fd11-701d-9147-68794ad37298","397B4FC93D8C490681BDE6D882491A3B-2025-08-18-12-04-43","","null","","[]","null","",""
"","","","","","image-button-response","72","552718","0.0-12.0-1.0-0.5","397B4FC93D8C490681BDE6D882491A3B","397B4FC93D8C490681BDE6D882491A3B","0198bcf3-2b9e-74f2-b612-41c071d5b112","0198bbb8-fd11-701d-9147-68794ad37298","{""num_scrambled_semantic"":""8"",""num_scrambled_causal"":""4"",""num_scrambled_schematic"":""4"",""participantId"":""397B4FC93D8C490681BDE6D882491A3B"",""assignmentId"":""0198bcf3-2b9e-74f2-b612-41c071d5b112"",""projectId"":""0198bbb8-fd11-701d-9147-68794ad37298""}","https://test12345.live/?num_scrambled_semantic=8&num_scrambled_causal=4&num_scrambled_schematic=4&participantId=397B4FC93D8C490681BDE6D882491A3B&assignmentId=0198bcf3-2b9e-74f2-b612-41c071d5b112&projectId=0198bbb8-fd11-701d-9147-68794ad37298","397B4FC93D8C490681BDE6D882491A3B-2025-08-18-12-04-43","","null","","images/semantic_sequence/redecorating_semantic/redecorating_semantic_ten.png","null","",""
"","","","","","image-button-response","73","554500","0.0-12.0-1.0-1.5","397B4FC93D8C490681BDE6D882491A3B","397B4FC93D8C490681BDE6D882491A3B","0198bcf3-2b9e-74f2-b612-41c071d5b112","0198bbb8-fd11-701d-9147-68794ad37298","{""num_scrambled_semantic"":""8"",""num_scrambled_causal"":""4"",""num_scrambled_schematic"":""4"",""participantId"":""397B4FC93D8C490681BDE6D882491A3B"",""assignmentId"":""0198bcf3-2b9e-74f2-b612-41c071d5b112"",""projectId"":""0198bbb8-fd11-701d-9147-68794ad37298""}","https://test12345.live/?num_scrambled_semantic=8&num_scrambled_causal=4&num_scrambled_schematic=4&participantId=397B4FC93D8C490681BDE6D882491A3B&assignmentId=0198bcf3-2b9e-74f2-b612-41c071d5b112&projectId=0198bbb8-fd11-701d-9147-68794ad37298","397B4FC93D8C490681BDE6D882491A3B-2025-08-18-12-04-43","","1780","","images/semantic_sequence/redecorating_semantic/redecorating_semantic_ten.png","0","",""
"","","","","","image-button-response","74","565317","0.0-12.0-1.0-2.5","397B4FC93D8C490681BDE6D882491A3B","397B4FC93D8C490681BDE6D882491A3B","0198bcf3-2b9e-74f2-b612-41c071d5b112","0198bbb8-fd11-701d-9147-68794ad37298","{""num_scrambled_semantic"":""8"",""num_scrambled_causal"":""4"",""num_scrambled_schematic"":""4"",""participantId"":""397B4FC93D8C490681BDE6D882491A3B"",""assignmentId"":""0198bcf3-2b9e-74f2-b612-41c071d5b112"",""projectId"":""0198bbb8-fd11-701d-9147-68794ad37298""}","https://test12345.live/?num_scrambled_semantic=8&num_scrambled_causal=4&num_scrambled_schematic=4&participantId=397B4FC93D8C490681BDE6D882491A3B&assignmentId=0198bcf3-2b9e-74f2-b612-41c071d5b112&projectId=0198bbb8-fd11-701d-9147-68794ad37298","397B4FC93D8C490681BDE6D882491A3B-2025-08-18-12-04-43","","null","","[]","null","",""
"","","","","","image-button-response","75","569830","0.0-12.0-1.0-0.6","397B4FC93D8C490681BDE6D882491A3B","397B4FC93D8C490681BDE6D882491A3B","0198bcf3-2b9e-74f2-b612-41c071d5b112","0198bbb8-fd11-701d-9147-68794ad37298","{""num_scrambled_semantic"":""8"",""num_scrambled_causal"":""4"",""num_scrambled_schematic"":""4"",""participantId"":""397B4FC93D8C490681BDE6D882491A3B"",""assignmentId"":""0198bcf3-2b9e-74f2-b612-41c071d5b112"",""projectId"":""0198bbb8-fd11-701d-9147-68794ad37298""}","https://test12345.live/?num_scrambled_semantic=8&num_scrambled_causal=4&num_scrambled_schematic=4&participantId=397B4FC93D8C490681BDE6D882491A3B&assignmentId=0198bcf3-2b9e-74f2-b612-41c071d5b112&projectId=0198bbb8-fd11-701d-9147-68794ad37298","397B4FC93D8C490681BDE6D882491A3B-2025-08-18-12-04-43","","null","","images/semantic_sequence/redecorating_semantic/redecorating_semantic_8.png","null","",""
"","","","","","image-button-response","76","571648","0.0-12.0-1.0-1.6","397B4FC93D8C490681BDE6D882491A3B","397B4FC93D8C490681BDE6D882491A3B","0198bcf3-2b9e-74f2-b612-41c071d5b112","0198bbb8-fd11-701d-9147-68794ad37298","{""num_scrambled_semantic"":""8"",""num_scrambled_causal"":""4"",""num_scrambled_schematic"":""4"",""participantId"":""397B4FC93D8C490681BDE6D882491A3B"",""assignmentId"":""0198bcf3-2b9e-74f2-b612-41c071d5b112"",""projectId"":""0198bbb8-fd11-701d-9147-68794ad37298""}","https://test12345.live/?num_scrambled_semantic=8&num_scrambled_causal=4&num_scrambled_schematic=4&participantId=397B4FC93D8C490681BDE6D882491A3B&assignmentId=0198bcf3-2b9e-74f2-b612-41c071d5b112&projectId=0198bbb8-fd11-701d-9147-68794ad37298","397B4FC93D8C490681BDE6D882491A3B-2025-08-18-12-04-43","","1816","","images/semantic_sequence/redecorating_semantic/redecorating_semantic_8.png","0","",""
"","","","","","image-button-response","77","582457","0.0-12.0-1.0-2.6","397B4FC93D8C490681BDE6D882491A3B","397B4FC93D8C490681BDE6D882491A3B","0198bcf3-2b9e-74f2-b612-41c071d5b112","0198bbb8-fd11-701d-9147-68794ad37298","{""num_scrambled_semantic"":""8"",""num_scrambled_causal"":""4"",""num_scrambled_schematic"":""4"",""participantId"":""397B4FC93D8C490681BDE6D882491A3B"",""assignmentId"":""0198bcf3-2b9e-74f2-b612-41c071d5b112"",""projectId"":""0198bbb8-fd11-701d-9147-68794ad37298""}","https://test12345.live/?num_scrambled_semantic=8&num_scrambled_causal=4&num_scrambled_schematic=4&participantId=397B4FC93D8C490681BDE6D882491A3B&assignmentId=0198bcf3-2b9e-74f2-b612-41c071d5b112&projectId=0198bbb8-fd11-701d-9147-68794ad37298","397B4FC93D8C490681BDE6D882491A3B-2025-08-18-12-04-43","","null","","[]","null","",""
"","","","","","image-button-response","78","586959","0.0-12.0-1.0-0.7","397B4FC93D8C490681BDE6D882491A3B","397B4FC93D8C490681BDE6D882491A3B","0198bcf3-2b9e-74f2-b612-41c071d5b112","0198bbb8-fd11-701d-9147-68794ad37298","{""num_scrambled_semantic"":""8"",""num_scrambled_causal"":""4"",""num_scrambled_schematic"":""4"",""participantId"":""397B4FC93D8C490681BDE6D882491A3B"",""assignmentId"":""0198bcf3-2b9e-74f2-b612-41c071d5b112"",""projectId"":""0198bbb8-fd11-701d-9147-68794ad37298""}","https://test12345.live/?num_scrambled_semantic=8&num_scrambled_causal=4&num_scrambled_schematic=4&participantId=397B4FC93D8C490681BDE6D882491A3B&assignmentId=0198bcf3-2b9e-74f2-b612-41c071d5b112&projectId=0198bbb8-fd11-701d-9147-68794ad37298","397B4FC93D8C490681BDE6D882491A3B-2025-08-18-12-04-43","","null","","images/semantic_sequence/redecorating_semantic/redecorating_semantic_4.png","null","",""
"","","","","","image-button-response","79","589028","0.0-12.0-1.0-1.7","397B4FC93D8C490681BDE6D882491A3B","397B4FC93D8C490681BDE6D882491A3B","0198bcf3-2b9e-74f2-b612-41c071d5b112","0198bbb8-fd11-701d-9147-68794ad37298","{""num_scrambled_semantic"":""8"",""num_scrambled_causal"":""4"",""num_scrambled_schematic"":""4"",""participantId"":""397B4FC93D8C490681BDE6D882491A3B"",""assignmentId"":""0198bcf3-2b9e-74f2-b612-41c071d5b112"",""projectId"":""0198bbb8-fd11-701d-9147-68794ad37298""}","https://test12345.live/?num_scrambled_semantic=8&num_scrambled_causal=4&num_scrambled_schematic=4&participantId=397B4FC93D8C490681BDE6D882491A3B&assignmentId=0198bcf3-2b9e-74f2-b612-41c071d5b112&projectId=0198bbb8-fd11-701d-9147-68794ad37298","397B4FC93D8C490681BDE6D882491A3B-2025-08-18-12-04-43","","2067","","images/semantic_sequence/redecorating_semantic/redecorating_semantic_4.png","0","",""
"","","","","","image-button-response","80","599830","0.0-12.0-1.0-2.7","397B4FC93D8C490681BDE6D882491A3B","397B4FC93D8C490681BDE6D882491A3B","0198bcf3-2b9e-74f2-b612-41c071d5b112","0198bbb8-fd11-701d-9147-68794ad37298","{""num_scrambled_semantic"":""8"",""num_scrambled_causal"":""4"",""num_scrambled_schematic"":""4"",""participantId"":""397B4FC93D8C490681BDE6D882491A3B"",""assignmentId"":""0198bcf3-2b9e-74f2-b612-41c071d5b112"",""projectId"":""0198bbb8-fd11-701d-9147-68794ad37298""}","https://test12345.live/?num_scrambled_semantic=8&num_scrambled_causal=4&num_scrambled_schematic=4&participantId=397B4FC93D8C490681BDE6D882491A3B&assignmentId=0198bcf3-2b9e-74f2-b612-41c071d5b112&projectId=0198bbb8-fd11-701d-9147-68794ad37298","397B4FC93D8C490681BDE6D882491A3B-2025-08-18-12-04-43","","null","","[]","null","",""
"","","","","","image-button-response","81","604338","0.0-12.0-1.0-0.8","397B4FC93D8C490681BDE6D882491A3B","397B4FC93D8C490681BDE6D882491A3B","0198bcf3-2b9e-74f2-b612-41c071d5b112","0198bbb8-fd11-701d-9147-68794ad37298","{""num_scrambled_semantic"":""8"",""num_scrambled_causal"":""4"",""num_scrambled_schematic"":""4"",""participantId"":""397B4FC93D8C490681BDE6D882491A3B"",""assignmentId"":""0198bcf3-2b9e-74f2-b612-41c071d5b112"",""projectId"":""0198bbb8-fd11-701d-9147-68794ad37298""}","https://test12345.live/?num_scrambled_semantic=8&num_scrambled_causal=4&num_scrambled_schematic=4&participantId=397B4FC93D8C490681BDE6D882491A3B&assignmentId=0198bcf3-2b9e-74f2-b612-41c071d5b112&projectId=0198bbb8-fd11-701d-9147-68794ad37298","397B4FC93D8C490681BDE6D882491A3B-2025-08-18-12-04-43","","null","","images/semantic_sequence/redecorating_semantic/redecorating_semantic_5.png","null","",""
"","","","","","image-button-response","82","608343","0.0-12.0-1.0-1.8","397B4FC93D8C490681BDE6D882491A3B","397B4FC93D8C490681BDE6D882491A3B","0198bcf3-2b9e-74f2-b612-41c071d5b112","0198bbb8-fd11-701d-9147-68794ad37298","{""num_scrambled_semantic"":""8"",""num_scrambled_causal"":""4"",""num_scrambled_schematic"":""4"",""participantId"":""397B4FC93D8C490681BDE6D882491A3B"",""assignmentId"":""0198bcf3-2b9e-74f2-b612-41c071d5b112"",""projectId"":""0198bbb8-fd11-701d-9147-68794ad37298""}","https://test12345.live/?num_scrambled_semantic=8&num_scrambled_causal=4&num_scrambled_schematic=4&participantId=397B4FC93D8C490681BDE6D882491A3B&assignmentId=0198bcf3-2b9e-74f2-b612-41c071d5b112&projectId=0198bbb8-fd11-701d-9147-68794ad37298","397B4FC93D8C490681BDE6D882491A3B-2025-08-18-12-04-43","","null","","images/semantic_sequence/redecorating_semantic/redecorating_semantic_5.png","null","",""
"","","","","","image-button-response","83","619147","0.0-12.0-1.0-2.8","397B4FC93D8C490681BDE6D882491A3B","397B4FC93D8C490681BDE6D882491A3B","0198bcf3-2b9e-74f2-b612-41c071d5b112","0198bbb8-fd11-701d-9147-68794ad37298","{""num_scrambled_semantic"":""8"",""num_scrambled_causal"":""4"",""num_scrambled_schematic"":""4"",""participantId"":""397B4FC93D8C490681BDE6D882491A3B"",""assignmentId"":""0198bcf3-2b9e-74f2-b612-41c071d5b112"",""projectId"":""0198bbb8-fd11-701d-9147-68794ad37298""}","https://test12345.live/?num_scrambled_semantic=8&num_scrambled_causal=4&num_scrambled_schematic=4&participantId=397B4FC93D8C490681BDE6D882491A3B&assignmentId=0198bcf3-2b9e-74f2-b612-41c071d5b112&projectId=0198bbb8-fd11-701d-9147-68794ad37298","397B4FC93D8C490681BDE6D882491A3B-2025-08-18-12-04-43","","null","","[]","null","",""
"","","","","","image-button-response","84","623652","0.0-12.0-1.0-0.9","397B4FC93D8C490681BDE6D882491A3B","397B4FC93D8C490681BDE6D882491A3B","0198bcf3-2b9e-74f2-b612-41c071d5b112","0198bbb8-fd11-701d-9147-68794ad37298","{""num_scrambled_semantic"":""8"",""num_scrambled_causal"":""4"",""num_scrambled_schematic"":""4"",""participantId"":""397B4FC93D8C490681BDE6D882491A3B"",""assignmentId"":""0198bcf3-2b9e-74f2-b612-41c071d5b112"",""projectId"":""0198bbb8-fd11-701d-9147-68794ad37298""}","https://test12345.live/?num_scrambled_semantic=8&num_scrambled_causal=4&num_scrambled_schematic=4&participantId=397B4FC93D8C490681BDE6D882491A3B&assignmentId=0198bcf3-2b9e-74f2-b612-41c071d5b112&projectId=0198bbb8-fd11-701d-9147-68794ad37298","397B4FC93D8C490681BDE6D882491A3B-2025-08-18-12-04-43","","null","","images/semantic_sequence/redecorating_semantic/redecorating_semantic_6.png","null","",""
"","","","","","image-button-response","85","626478","0.0-12.0-1.0-1.9","397B4FC93D8C490681BDE6D882491A3B","397B4FC93D8C490681BDE6D882491A3B","0198bcf3-2b9e-74f2-b612-41c071d5b112","0198bbb8-fd11-701d-9147-68794ad37298","{""num_scrambled_semantic"":""8"",""num_scrambled_causal"":""4"",""num_scrambled_schematic"":""4"",""participantId"":""397B4FC93D8C490681BDE6D882491A3B"",""assignmentId"":""0198bcf3-2b9e-74f2-b612-41c071d5b112"",""projectId"":""0198bbb8-fd11-701d-9147-68794ad37298""}","https://test12345.live/?num_scrambled_semantic=8&num_scrambled_causal=4&num_scrambled_schematic=4&participantId=397B4FC93D8C490681BDE6D882491A3B&assignmentId=0198bcf3-2b9e-74f2-b612-41c071d5b112&projectId=0198bbb8-fd11-701d-9147-68794ad37298","397B4FC93D8C490681BDE6D882491A3B-2025-08-18-12-04-43","","2824","","images/semantic_sequence/redecorating_semantic/redecorating_semantic_6.png","0","",""
"","","","","","image-button-response","86","637282","0.0-12.0-1.0-2.9","397B4FC93D8C490681BDE6D882491A3B","397B4FC93D8C490681BDE6D882491A3B","0198bcf3-2b9e-74f2-b612-41c071d5b112","0198bbb8-fd11-701d-9147-68794ad37298","{""num_scrambled_semantic"":""8"",""num_scrambled_causal"":""4"",""num_scrambled_schematic"":""4"",""participantId"":""397B4FC93D8C490681BDE6D882491A3B"",""assignmentId"":""0198bcf3-2b9e-74f2-b612-41c071d5b112"",""projectId"":""0198bbb8-fd11-701d-9147-68794ad37298""}","https://test12345.live/?num_scrambled_semantic=8&num_scrambled_causal=4&num_scrambled_schematic=4&participantId=397B4FC93D8C490681BDE6D882491A3B&assignmentId=0198bcf3-2b9e-74f2-b612-41c071d5b112&projectId=0198bbb8-fd11-701d-9147-68794ad37298","397B4FC93D8C490681BDE6D882491A3B-2025-08-18-12-04-43","","null","","[]","null","",""
"","","","","","html-audio-response","87","679738","0.0-13.0","397B4FC93D8C490681BDE6D882491A3B","397B4FC93D8C490681BDE6D882491A3B","0198bcf3-2b9e-74f2-b612-41c071d5b112","0198bbb8-fd11-701d-9147-68794ad37298","{""num_scrambled_semantic"":""8"",""num_scrambled_causal"":""4"",""num_scrambled_schematic"":""4"",""participantId"":""397B4FC93D8C490681BDE6D882491A3B"",""assignmentId"":""0198bcf3-2b9e-74f2-b612-41c071d5b112"",""projectId"":""0198bbb8-fd11-701d-9147-68794ad37298""}","https://test12345.live/?num_scrambled_semantic=8&num_scrambled_causal=4&num_scrambled_schematic=4&participantId=397B4FC93D8C490681BDE6D882491A3B&assignmentId=0198bcf3-2b9e-74f2-b612-41c071d5b112&projectId=0198bbb8-fd11-701d-9147-68794ad37298","397B4FC93D8C490681BDE6D882491A3B-2025-08-18-12-04-43","","41296","","[""<span style=\""color: red; font-size: 24px\""> NOW RECORDING</span><p>Please say out loud all the images you saw, as many as you can remember. The images can be said in any order.</p>""]","","2","redecorating_semantic"
"","","","","","image-button-response","88","685755","0.0-14.0-0.0","397B4FC93D8C490681BDE6D882491A3B","397B4FC93D8C490681BDE6D882491A3B","0198bcf3-2b9e-74f2-b612-41c071d5b112","0198bbb8-fd11-701d-9147-68794ad37298","{""num_scrambled_semantic"":""8"",""num_scrambled_causal"":""4"",""num_scrambled_schematic"":""4"",""participantId"":""397B4FC93D8C490681BDE6D882491A3B"",""assignmentId"":""0198bcf3-2b9e-74f2-b612-41c071d5b112"",""projectId"":""0198bbb8-fd11-701d-9147-68794ad37298""}","https://test12345.live/?num_scrambled_semantic=8&num_scrambled_causal=4&num_scrambled_schematic=4&participantId=397B4FC93D8C490681BDE6D882491A3B&assignmentId=0198bcf3-2b9e-74f2-b612-41c071d5b112&projectId=0198bbb8-fd11-701d-9147-68794ad37298","397B4FC93D8C490681BDE6D882491A3B-2025-08-18-12-04-43","","null","","images/semantic_sequence/creative_activities_semantic/creative_activities_semantic_0.png","null","",""
"","","","","","image-button-response","89","690265","0.0-14.0-1.0-0.0","397B4FC93D8C490681BDE6D882491A3B","397B4FC93D8C490681BDE6D882491A3B","0198bcf3-2b9e-74f2-b612-41c071d5b112","0198bbb8-fd11-701d-9147-68794ad37298","{""num_scrambled_semantic"":""8"",""num_scrambled_causal"":""4"",""num_scrambled_schematic"":""4"",""participantId"":""397B4FC93D8C490681BDE6D882491A3B"",""assignmentId"":""0198bcf3-2b9e-74f2-b612-41c071d5b112"",""projectId"":""0198bbb8-fd11-701d-9147-68794ad37298""}","https://test12345.live/?num_scrambled_semantic=8&num_scrambled_causal=4&num_scrambled_schematic=4&participantId=397B4FC93D8C490681BDE6D882491A3B&assignmentId=0198bcf3-2b9e-74f2-b612-41c071d5b112&projectId=0198bbb8-fd11-701d-9147-68794ad37298","397B4FC93D8C490681BDE6D882491A3B-2025-08-18-12-04-43","","null","","images/semantic_sequence/creative_activities_semantic/creative_activities_semantic_7.png","null","",""
"","","","","","image-button-response","90","693772","0.0-14.0-1.0-1.0","397B4FC93D8C490681BDE6D882491A3B","397B4FC93D8C490681BDE6D882491A3B","0198bcf3-2b9e-74f2-b612-41c071d5b112","0198bbb8-fd11-701d-9147-68794ad37298","{""num_scrambled_semantic"":""8"",""num_scrambled_causal"":""4"",""num_scrambled_schematic"":""4"",""participantId"":""397B4FC93D8C490681BDE6D882491A3B"",""assignmentId"":""0198bcf3-2b9e-74f2-b612-41c071d5b112"",""projectId"":""0198bbb8-fd11-701d-9147-68794ad37298""}","https://test12345.live/?num_scrambled_semantic=8&num_scrambled_causal=4&num_scrambled_schematic=4&participantId=397B4FC93D8C490681BDE6D882491A3B&assignmentId=0198bcf3-2b9e-74f2-b612-41c071d5b112&projectId=0198bbb8-fd11-701d-9147-68794ad37298","397B4FC93D8C490681BDE6D882491A3B-2025-08-18-12-04-43","","3505","","images/semantic_sequence/creative_activities_semantic/creative_activities_semantic_7.png","0","",""
"","","","","","image-button-response","91","704590","0.0-14.0-1.0-2.0","397B4FC93D8C490681BDE6D882491A3B","397B4FC93D8C490681BDE6D882491A3B","0198bcf3-2b9e-74f2-b612-41c071d5b112","0198bbb8-fd11-701d-9147-68794ad37298","{""num_scrambled_semantic"":""8"",""num_scrambled_causal"":""4"",""num_scrambled_schematic"":""4"",""participantId"":""397B4FC93D8C490681BDE6D882491A3B"",""assignmentId"":""0198bcf3-2b9e-74f2-b612-41c071d5b112"",""projectId"":""0198bbb8-fd11-701d-9147-68794ad37298""}","https://test12345.live/?num_scrambled_semantic=8&num_scrambled_causal=4&num_scrambled_schematic=4&participantId=397B4FC93D8C490681BDE6D882491A3B&assignmentId=0198bcf3-2b9e-74f2-b612-41c071d5b112&projectId=0198bbb8-fd11-701d-9147-68794ad37298","397B4FC93D8C490681BDE6D882491A3B-2025-08-18-12-04-43","","null","","[]","null","",""
"","","","","","image-button-response","92","709092","0.0-14.0-1.0-0.1","397B4FC93D8C490681BDE6D882491A3B","397B4FC93D8C490681BDE6D882491A3B","0198bcf3-2b9e-74f2-b612-41c071d5b112","0198bbb8-fd11-701d-9147-68794ad37298","{""num_scrambled_semantic"":""8"",""num_scrambled_causal"":""4"",""num_scrambled_schematic"":""4"",""participantId"":""397B4FC93D8C490681BDE6D882491A3B"",""assignmentId"":""0198bcf3-2b9e-74f2-b612-41c071d5b112"",""projectId"":""0198bbb8-fd11-701d-9147-68794ad37298""}","https://test12345.live/?num_scrambled_semantic=8&num_scrambled_causal=4&num_scrambled_schematic=4&participantId=397B4FC93D8C490681BDE6D882491A3B&assignmentId=0198bcf3-2b9e-74f2-b612-41c071d5b112&projectId=0198bbb8-fd11-701d-9147-68794ad37298","397B4FC93D8C490681BDE6D882491A3B-2025-08-18-12-04-43","","null","","images/semantic_sequence/creative_activities_semantic/creative_activities_semantic_6.png","null","",""
"","","","","","image-button-response","93","710138","0.0-14.0-1.0-1.1","397B4FC93D8C490681BDE6D882491A3B","397B4FC93D8C490681BDE6D882491A3B","0198bcf3-2b9e-74f2-b612-41c071d5b112","0198bbb8-fd11-701d-9147-68794ad37298","{""num_scrambled_semantic"":""8"",""num_scrambled_causal"":""4"",""num_scrambled_schematic"":""4"",""participantId"":""397B4FC93D8C490681BDE6D882491A3B"",""assignmentId"":""0198bcf3-2b9e-74f2-b612-41c071d5b112"",""projectId"":""0198bbb8-fd11-701d-9147-68794ad37298""}","https://test12345.live/?num_scrambled_semantic=8&num_scrambled_causal=4&num_scrambled_schematic=4&participantId=397B4FC93D8C490681BDE6D882491A3B&assignmentId=0198bcf3-2b9e-74f2-b612-41c071d5b112&projectId=0198bbb8-fd11-701d-9147-68794ad37298","397B4FC93D8C490681BDE6D882491A3B-2025-08-18-12-04-43","","1045","","images/semantic_sequence/creative_activities_semantic/creative_activities_semantic_6.png","0","",""
"","","","","","image-button-response","94","720950","0.0-14.0-1.0-2.1","397B4FC93D8C490681BDE6D882491A3B","397B4FC93D8C490681BDE6D882491A3B","0198bcf3-2b9e-74f2-b612-41c071d5b112","0198bbb8-fd11-701d-9147-68794ad37298","{""num_scrambled_semantic"":""8"",""num_scrambled_causal"":""4"",""num_scrambled_schematic"":""4"",""participantId"":""397B4FC93D8C490681BDE6D882491A3B"",""assignmentId"":""0198bcf3-2b9e-74f2-b612-41c071d5b112"",""projectId"":""0198bbb8-fd11-701d-9147-68794ad37298""}","https://test12345.live/?num_scrambled_semantic=8&num_scrambled_causal=4&num_scrambled_schematic=4&participantId=397B4FC93D8C490681BDE6D882491A3B&assignmentId=0198bcf3-2b9e-74f2-b612-41c071d5b112&projectId=0198bbb8-fd11-701d-9147-68794ad37298","397B4FC93D8C490681BDE6D882491A3B-2025-08-18-12-04-43","","null","","[]","null","",""
"","","","","","image-button-response","95","725461","0.0-14.0-1.0-0.2","397B4FC93D8C490681BDE6D882491A3B","397B4FC93D8C490681BDE6D882491A3B","0198bcf3-2b9e-74f2-b612-41c071d5b112","0198bbb8-fd11-701d-9147-68794ad37298","{""num_scrambled_semantic"":""8"",""num_scrambled_causal"":""4"",""num_scrambled_schematic"":""4"",""participantId"":""397B4FC93D8C490681BDE6D882491A3B"",""assignmentId"":""0198bcf3-2b9e-74f2-b612-41c071d5b112"",""projectId"":""0198bbb8-fd11-701d-9147-68794ad37298""}","https://test12345.live/?num_scrambled_semantic=8&num_scrambled_causal=4&num_scrambled_schematic=4&participantId=397B4FC93D8C490681BDE6D882491A3B&assignmentId=0198bcf3-2b9e-74f2-b612-41c071d5b112&projectId=0198bbb8-fd11-701d-9147-68794ad37298","397B4FC93D8C490681BDE6D882491A3B-2025-08-18-12-04-43","","null","","images/semantic_sequence/creative_activities_semantic/creative_activities_semantic_ten.png","null","",""
"","","","","","image-button-response","96","728085","0.0-14.0-1.0-1.2","397B4FC93D8C490681BDE6D882491A3B","397B4FC93D8C490681BDE6D882491A3B","0198bcf3-2b9e-74f2-b612-41c071d5b112","0198bbb8-fd11-701d-9147-68794ad37298","{""num_scrambled_semantic"":""8"",""num_scrambled_causal"":""4"",""num_scrambled_schematic"":""4"",""participantId"":""397B4FC93D8C490681BDE6D882491A3B"",""assignmentId"":""0198bcf3-2b9e-74f2-b612-41c071d5b112"",""projectId"":""0198bbb8-fd11-701d-9147-68794ad37298""}","https://test12345.live/?num_scrambled_semantic=8&num_scrambled_causal=4&num_scrambled_schematic=4&participantId=397B4FC93D8C490681BDE6D882491A3B&assignmentId=0198bcf3-2b9e-74f2-b612-41c071d5b112&projectId=0198bbb8-fd11-701d-9147-68794ad37298","397B4FC93D8C490681BDE6D882491A3B-2025-08-18-12-04-43","","2621","","images/semantic_sequence/creative_activities_semantic/creative_activities_semantic_ten.png","0","",""
"","","","","","image-button-response","97","738902","0.0-14.0-1.0-2.2","397B4FC93D8C490681BDE6D882491A3B","397B4FC93D8C490681BDE6D882491A3B","0198bcf3-2b9e-74f2-b612-41c071d5b112","0198bbb8-fd11-701d-9147-68794ad37298","{""num_scrambled_semantic"":""8"",""num_scrambled_causal"":""4"",""num_scrambled_schematic"":""4"",""participantId"":""397B4FC93D8C490681BDE6D882491A3B"",""assignmentId"":""0198bcf3-2b9e-74f2-b612-41c071d5b112"",""projectId"":""0198bbb8-fd11-701d-9147-68794ad37298""}","https://test12345.live/?num_scrambled_semantic=8&num_scrambled_causal=4&num_scrambled_schematic=4&participantId=397B4FC93D8C490681BDE6D882491A3B&assignmentId=0198bcf3-2b9e-74f2-b612-41c071d5b112&projectId=0198bbb8-fd11-701d-9147-68794ad37298","397B4FC93D8C490681BDE6D882491A3B-2025-08-18-12-04-43","","null","","[]","null","",""
"","","","","","image-button-response","98","743419","0.0-14.0-1.0-0.3","397B4FC93D8C490681BDE6D882491A3B","397B4FC93D8C490681BDE6D882491A3B","0198bcf3-2b9e-74f2-b612-41c071d5b112","0198bbb8-fd11-701d-9147-68794ad37298","{""num_scrambled_semantic"":""8"",""num_scrambled_causal"":""4"",""num_scrambled_schematic"":""4"",""participantId"":""397B4FC93D8C490681BDE6D882491A3B"",""assignmentId"":""0198bcf3-2b9e-74f2-b612-41c071d5b112"",""projectId"":""0198bbb8-fd11-701d-9147-68794ad37298""}","https://test12345.live/?num_scrambled_semantic=8&num_scrambled_causal=4&num_scrambled_schematic=4&participantId=397B4FC93D8C490681BDE6D882491A3B&assignmentId=0198bcf3-2b9e-74f2-b612-41c071d5b112&projectId=0198bbb8-fd11-701d-9147-68794ad37298","397B4FC93D8C490681BDE6D882491A3B-2025-08-18-12-04-43","","null","","images/semantic_sequence/creative_activities_semantic/creative_activities_semantic_4.png","null","",""
"","","","","","image-button-response","99","745658","0.0-14.0-1.0-1.3","397B4FC93D8C490681BDE6D882491A3B","397B4FC93D8C490681BDE6D882491A3B","0198bcf3-2b9e-74f2-b612-41c071d5b112","0198bbb8-fd11-701d-9147-68794ad37298","{""num_scrambled_semantic"":""8"",""num_scrambled_causal"":""4"",""num_scrambled_schematic"":""4"",""participantId"":""397B4FC93D8C490681BDE6D882491A3B"",""assignmentId"":""0198bcf3-2b9e-74f2-b612-41c071d5b112"",""projectId"":""0198bbb8-fd11-701d-9147-68794ad37298""}","https://test12345.live/?num_scrambled_semantic=8&num_scrambled_causal=4&num_scrambled_schematic=4&participantId=397B4FC93D8C490681BDE6D882491A3B&assignmentId=0198bcf3-2b9e-74f2-b612-41c071d5b112&projectId=0198bbb8-fd11-701d-9147-68794ad37298","397B4FC93D8C490681BDE6D882491A3B-2025-08-18-12-04-43","","2237","","images/semantic_sequence/creative_activities_semantic/creative_activities_semantic_4.png","0","",""
"","","","","","image-button-response","100","756467","0.0-14.0-1.0-2.3","397B4FC93D8C490681BDE6D882491A3B","397B4FC93D8C490681BDE6D882491A3B","0198bcf3-2b9e-74f2-b612-41c071d5b112","0198bbb8-fd11-701d-9147-68794ad37298","{""num_scrambled_semantic"":""8"",""num_scrambled_causal"":""4"",""num_scrambled_schematic"":""4"",""participantId"":""397B4FC93D8C490681BDE6D882491A3B"",""assignmentId"":""0198bcf3-2b9e-74f2-b612-41c071d5b112"",""projectId"":""0198bbb8-fd11-701d-9147-68794ad37298""}","https://test12345.live/?num_scrambled_semantic=8&num_scrambled_causal=4&num_scrambled_schematic=4&participantId=397B4FC93D8C490681BDE6D882491A3B&assignmentId=0198bcf3-2b9e-74f2-b612-41c071d5b112&projectId=0198bbb8-fd11-701d-9147-68794ad37298","397B4FC93D8C490681BDE6D882491A3B-2025-08-18-12-04-43","","null","","[]","null","",""
"","","","","","image-button-response","101","760983","0.0-14.0-1.0-0.4","397B4FC93D8C490681BDE6D882491A3B","397B4FC93D8C490681BDE6D882491A3B","0198bcf3-2b9e-74f2-b612-41c071d5b112","0198bbb8-fd11-701d-9147-68794ad37298","{""num_scrambled_semantic"":""8"",""num_scrambled_causal"":""4"",""num_scrambled_schematic"":""4"",""participantId"":""397B4FC93D8C490681BDE6D882491A3B"",""assignmentId"":""0198bcf3-2b9e-74f2-b612-41c071d5b112"",""projectId"":""0198bbb8-fd11-701d-9147-68794ad37298""}","https://test12345.live/?num_scrambled_semantic=8&num_scrambled_causal=4&num_scrambled_schematic=4&participantId=397B4FC93D8C490681BDE6D882491A3B&assignmentId=0198bcf3-2b9e-74f2-b612-41c071d5b112&projectId=0198bbb8-fd11-701d-9147-68794ad37298","397B4FC93D8C490681BDE6D882491A3B-2025-08-18-12-04-43","","null","","images/semantic_sequence/creative_activities_semantic/creative_activities_semantic_9.png","null","",""
"","","","","","image-button-response","102","762554","0.0-14.0-1.0-1.4","397B4FC93D8C490681BDE6D882491A3B","397B4FC93D8C490681BDE6D882491A3B","0198bcf3-2b9e-74f2-b612-41c071d5b112","0198bbb8-fd11-701d-9147-68794ad37298","{""num_scrambled_semantic"":""8"",""num_scrambled_causal"":""4"",""num_scrambled_schematic"":""4"",""participantId"":""397B4FC93D8C490681BDE6D882491A3B"",""assignmentId"":""0198bcf3-2b9e-74f2-b612-41c071d5b112"",""projectId"":""0198bbb8-fd11-701d-9147-68794ad37298""}","https://test12345.live/?num_scrambled_semantic=8&num_scrambled_causal=4&num_scrambled_schematic=4&participantId=397B4FC93D8C490681BDE6D882491A3B&assignmentId=0198bcf3-2b9e-74f2-b612-41c071d5b112&projectId=0198bbb8-fd11-701d-9147-68794ad37298","397B4FC93D8C490681BDE6D882491A3B-2025-08-18-12-04-43","","1569","","images/semantic_sequence/creative_activities_semantic/creative_activities_semantic_9.png","0","",""
"","","","","","image-button-response","103","773356","0.0-14.0-1.0-2.4","397B4FC93D8C490681BDE6D882491A3B","397B4FC93D8C490681BDE6D882491A3B","0198bcf3-2b9e-74f2-b612-41c071d5b112","0198bbb8-fd11-701d-9147-68794ad37298","{""num_scrambled_semantic"":""8"",""num_scrambled_causal"":""4"",""num_scrambled_schematic"":""4"",""participantId"":""397B4FC93D8C490681BDE6D882491A3B"",""assignmentId"":""0198bcf3-2b9e-74f2-b612-41c071d5b112"",""projectId"":""0198bbb8-fd11-701d-9147-68794ad37298""}","https://test12345.live/?num_scrambled_semantic=8&num_scrambled_causal=4&num_scrambled_schematic=4&participantId=397B4FC93D8C490681BDE6D882491A3B&assignmentId=0198bcf3-2b9e-74f2-b612-41c071d5b112&projectId=0198bbb8-fd11-701d-9147-68794ad37298","397B4FC93D8C490681BDE6D882491A3B-2025-08-18-12-04-43","","null","","[]","null","",""
"","","","","","image-button-response","104","777859","0.0-14.0-1.0-0.5","397B4FC93D8C490681BDE6D882491A3B","397B4FC93D8C490681BDE6D882491A3B","0198bcf3-2b9e-74f2-b612-41c071d5b112","0198bbb8-fd11-701d-9147-68794ad37298","{""num_scrambled_semantic"":""8"",""num_scrambled_causal"":""4"",""num_scrambled_schematic"":""4"",""participantId"":""397B4FC93D8C490681BDE6D882491A3B"",""assignmentId"":""0198bcf3-2b9e-74f2-b612-41c071d5b112"",""projectId"":""0198bbb8-fd11-701d-9147-68794ad37298""}","https://test12345.live/?num_scrambled_semantic=8&num_scrambled_causal=4&num_scrambled_schematic=4&participantId=397B4FC93D8C490681BDE6D882491A3B&assignmentId=0198bcf3-2b9e-74f2-b612-41c071d5b112&projectId=0198bbb8-fd11-701d-9147-68794ad37298","397B4FC93D8C490681BDE6D882491A3B-2025-08-18-12-04-43","","null","","images/semantic_sequence/creative_activities_semantic/creative_activities_semantic_1.png","null","",""
"","","","","","image-button-response","105","780192","0.0-14.0-1.0-1.5","397B4FC93D8C490681BDE6D882491A3B","397B4FC93D8C490681BDE6D882491A3B","0198bcf3-2b9e-74f2-b612-41c071d5b112","0198bbb8-fd11-701d-9147-68794ad37298","{""num_scrambled_semantic"":""8"",""num_scrambled_causal"":""4"",""num_scrambled_schematic"":""4"",""participantId"":""397B4FC93D8C490681BDE6D882491A3B"",""assignmentId"":""0198bcf3-2b9e-74f2-b612-41c071d5b112"",""projectId"":""0198bbb8-fd11-701d-9147-68794ad37298""}","https://test12345.live/?num_scrambled_semantic=8&num_scrambled_causal=4&num_scrambled_schematic=4&participantId=397B4FC93D8C490681BDE6D882491A3B&assignmentId=0198bcf3-2b9e-74f2-b612-41c071d5b112&projectId=0198bbb8-fd11-701d-9147-68794ad37298","397B4FC93D8C490681BDE6D882491A3B-2025-08-18-12-04-43","","2330","","images/semantic_sequence/creative_activities_semantic/creative_activities_semantic_1.png","0","",""
"","","","","","image-button-response","106","791003","0.0-14.0-1.0-2.5","397B4FC93D8C490681BDE6D882491A3B","397B4FC93D8C490681BDE6D882491A3B","0198bcf3-2b9e-74f2-b612-41c071d5b112","0198bbb8-fd11-701d-9147-68794ad37298","{""num_scrambled_semantic"":""8"",""num_scrambled_causal"":""4"",""num_scrambled_schematic"":""4"",""participantId"":""397B4FC93D8C490681BDE6D882491A3B"",""assignmentId"":""0198bcf3-2b9e-74f2-b612-41c071d5b112"",""projectId"":""0198bbb8-fd11-701d-9147-68794ad37298""}","https://test12345.live/?num_scrambled_semantic=8&num_scrambled_causal=4&num_scrambled_schematic=4&participantId=397B4FC93D8C490681BDE6D882491A3B&assignmentId=0198bcf3-2b9e-74f2-b612-41c071d5b112&projectId=0198bbb8-fd11-701d-9147-68794ad37298","397B4FC93D8C490681BDE6D882491A3B-2025-08-18-12-04-43","","null","","[]","null","",""
"","","","","","image-button-response","107","795507","0.0-14.0-1.0-0.6","397B4FC93D8C490681BDE6D882491A3B","397B4FC93D8C490681BDE6D882491A3B","0198bcf3-2b9e-74f2-b612-41c071d5b112","0198bbb8-fd11-701d-9147-68794ad37298","{""num_scrambled_semantic"":""8"",""num_scrambled_causal"":""4"",""num_scrambled_schematic"":""4"",""participantId"":""397B4FC93D8C490681BDE6D882491A3B"",""assignmentId"":""0198bcf3-2b9e-74f2-b612-41c071d5b112"",""projectId"":""0198bbb8-fd11-701d-9147-68794ad37298""}","https://test12345.live/?num_scrambled_semantic=8&num_scrambled_causal=4&num_scrambled_schematic=4&participantId=397B4FC93D8C490681BDE6D882491A3B&assignmentId=0198bcf3-2b9e-74f2-b612-41c071d5b112&projectId=0198bbb8-fd11-701d-9147-68794ad37298","397B4FC93D8C490681BDE6D882491A3B-2025-08-18-12-04-43","","null","","images/semantic_sequence/creative_activities_semantic/creative_activities_semantic_2.png","null","",""
"","","","","","image-button-response","108","797390","0.0-14.0-1.0-1.6","397B4FC93D8C490681BDE6D882491A3B","397B4FC93D8C490681BDE6D882491A3B","0198bcf3-2b9e-74f2-b612-41c071d5b112","0198bbb8-fd11-701d-9147-68794ad37298","{""num_scrambled_semantic"":""8"",""num_scrambled_causal"":""4"",""num_scrambled_schematic"":""4"",""participantId"":""397B4FC93D8C490681BDE6D882491A3B"",""assignmentId"":""0198bcf3-2b9e-74f2-b612-41c071d5b112"",""projectId"":""0198bbb8-fd11-701d-9147-68794ad37298""}","https://test12345.live/?num_scrambled_semantic=8&num_scrambled_causal=4&num_scrambled_schematic=4&participantId=397B4FC93D8C490681BDE6D882491A3B&assignmentId=0198bcf3-2b9e-74f2-b612-41c071d5b112&projectId=0198bbb8-fd11-701d-9147-68794ad37298","397B4FC93D8C490681BDE6D882491A3B-2025-08-18-12-04-43","","1881","","images/semantic_sequence/creative_activities_semantic/creative_activities_semantic_2.png","0","",""
"","","","","","image-button-response","109","808197","0.0-14.0-1.0-2.6","397B4FC93D8C490681BDE6D882491A3B","397B4FC93D8C490681BDE6D882491A3B","0198bcf3-2b9e-74f2-b612-41c071d5b112","0198bbb8-fd11-701d-9147-68794ad37298","{""num_scrambled_semantic"":""8"",""num_scrambled_causal"":""4"",""num_scrambled_schematic"":""4"",""participantId"":""397B4FC93D8C490681BDE6D882491A3B"",""assignmentId"":""0198bcf3-2b9e-74f2-b612-41c071d5b112"",""projectId"":""0198bbb8-fd11-701d-9147-68794ad37298""}","https://test12345.live/?num_scrambled_semantic=8&num_scrambled_causal=4&num_scrambled_schematic=4&participantId=397B4FC93D8C490681BDE6D882491A3B&assignmentId=0198bcf3-2b9e-74f2-b612-41c071d5b112&projectId=0198bbb8-fd11-701d-9147-68794ad37298","397B4FC93D8C490681BDE6D882491A3B-2025-08-18-12-04-43","","null","","[]","null","",""
"","","","","","image-button-response","110","812710","0.0-14.0-1.0-0.7","397B4FC93D8C490681BDE6D882491A3B","397B4FC93D8C490681BDE6D882491A3B","0198bcf3-2b9e-74f2-b612-41c071d5b112","0198bbb8-fd11-701d-9147-68794ad37298","{""num_scrambled_semantic"":""8"",""num_scrambled_causal"":""4"",""num_scrambled_schematic"":""4"",""participantId"":""397B4FC93D8C490681BDE6D882491A3B"",""assignmentId"":""0198bcf3-2b9e-74f2-b612-41c071d5b112"",""projectId"":""0198bbb8-fd11-701d-9147-68794ad37298""}","https://test12345.live/?num_scrambled_semantic=8&num_scrambled_causal=4&num_scrambled_schematic=4&participantId=397B4FC93D8C490681BDE6D882491A3B&assignmentId=0198bcf3-2b9e-74f2-b612-41c071d5b112&projectId=0198bbb8-fd11-701d-9147-68794ad37298","397B4FC93D8C490681BDE6D882491A3B-2025-08-18-12-04-43","","null","","images/semantic_sequence/creative_activities_semantic/creative_activities_semantic_5.png","null","",""
"","","","","","image-button-response","111","814360","0.0-14.0-1.0-1.7","397B4FC93D8C490681BDE6D882491A3B","397B4FC93D8C490681BDE6D882491A3B","0198bcf3-2b9e-74f2-b612-41c071d5b112","0198bbb8-fd11-701d-9147-68794ad37298","{""num_scrambled_semantic"":""8"",""num_scrambled_causal"":""4"",""num_scrambled_schematic"":""4"",""participantId"":""397B4FC93D8C490681BDE6D882491A3B"",""assignmentId"":""0198bcf3-2b9e-74f2-b612-41c071d5b112"",""projectId"":""0198bbb8-fd11-701d-9147-68794ad37298""}","https://test12345.live/?num_scrambled_semantic=8&num_scrambled_causal=4&num_scrambled_schematic=4&participantId=397B4FC93D8C490681BDE6D882491A3B&assignmentId=0198bcf3-2b9e-74f2-b612-41c071d5b112&projectId=0198bbb8-fd11-701d-9147-68794ad37298","397B4FC93D8C490681BDE6D882491A3B-2025-08-18-12-04-43","","1647","","images/semantic_sequence/creative_activities_semantic/creative_activities_semantic_5.png","0","",""
"","","","","","image-button-response","112","825167","0.0-14.0-1.0-2.7","397B4FC93D8C490681BDE6D882491A3B","397B4FC93D8C490681BDE6D882491A3B","0198bcf3-2b9e-74f2-b612-41c071d5b112","0198bbb8-fd11-701d-9147-68794ad37298","{""num_scrambled_semantic"":""8"",""num_scrambled_causal"":""4"",""num_scrambled_schematic"":""4"",""participantId"":""397B4FC93D8C490681BDE6D882491A3B"",""assignmentId"":""0198bcf3-2b9e-74f2-b612-41c071d5b112"",""projectId"":""0198bbb8-fd11-701d-9147-68794ad37298""}","https://test12345.live/?num_scrambled_semantic=8&num_scrambled_causal=4&num_scrambled_schematic=4&participantId=397B4FC93D8C490681BDE6D882491A3B&assignmentId=0198bcf3-2b9e-74f2-b612-41c071d5b112&projectId=0198bbb8-fd11-701d-9147-68794ad37298","397B4FC93D8C490681BDE6D882491A3B-2025-08-18-12-04-43","","null","","[]","null","",""
"","","","","","image-button-response","113","829671","0.0-14.0-1.0-0.8","397B4FC93D8C490681BDE6D882491A3B","397B4FC93D8C490681BDE6D882491A3B","0198bcf3-2b9e-74f2-b612-41c071d5b112","0198bbb8-fd11-701d-9147-68794ad37298","{""num_scrambled_semantic"":""8"",""num_scrambled_causal"":""4"",""num_scrambled_schematic"":""4"",""participantId"":""397B4FC93D8C490681BDE6D882491A3B"",""assignmentId"":""0198bcf3-2b9e-74f2-b612-41c071d5b112"",""projectId"":""0198bbb8-fd11-701d-9147-68794ad37298""}","https://test12345.live/?num_scrambled_semantic=8&num_scrambled_causal=4&num_scrambled_schematic=4&participantId=397B4FC93D8C490681BDE6D882491A3B&assignmentId=0198bcf3-2b9e-74f2-b612-41c071d5b112&projectId=0198bbb8-fd11-701d-9147-68794ad37298","397B4FC93D8C490681BDE6D882491A3B-2025-08-18-12-04-43","","null","","images/semantic_sequence/creative_activities_semantic/creative_activities_semantic_3.png","null","",""
