"success","timeout","failed_images","failed_audio","failed_video","trial_type","trial_index","time_elapsed","internal_node_id","subject","subject_id","study_id","session_id","urlvar","current_url","audio_id","view_history","rt","device_id","stimulus","response","estimated_stimulus_onset","seq_name"
"true","false","[]","[]","[]","preload","0","2111","0.0-0.0","3E8BB96C7CCC43ADB08CD25CDDACE23E","3E8BB96C7CCC43ADB08CD25CDDACE23E","da5d16e8-cb0b-4957-95ef-c4b1fc1f512c","a0a8f18c-a66e-4ba7-a170-23efbdc67501","{""participantId"":""3E8BB96C7CCC43ADB08CD25CDDACE23E"",""assignmentId"":""da5d16e8-cb0b-4957-95ef-c4b1fc1f512c"",""projectId"":""a0a8f18c-a66e-4ba7-a170-23efbdc67501""}","https://test12345.live/?participantId=3E8BB96C7CCC43ADB08CD25CDDACE23E&assignmentId=da5d16e8-cb0b-4957-95ef-c4b1fc1f512c&projectId=a0a8f18c-a66e-4ba7-a170-23efbdc67501","3E8BB96C7CCC43ADB08CD25CDDACE23E-2024-11-24-17-41-06","","","","","","",""
"","","","","","instructions","1","18838","0.0-1.0","3E8BB96C7CCC43ADB08CD25CDDACE23E","3E8BB96C7CCC43ADB08CD25CDDACE23E","da5d16e8-cb0b-4957-95ef-c4b1fc1f512c","a0a8f18c-a66e-4ba7-a170-23efbdc67501","{""participantId"":""3E8BB96C7CCC43ADB08CD25CDDACE23E"",""assignmentId"":""da5d16e8-cb0b-4957-95ef-c4b1fc1f512c"",""projectId"":""a0a8f18c-a66e-4ba7-a170-23efbdc67501""}","https://test12345.live/?participantId=3E8BB96C7CCC43ADB08CD25CDDACE23E&assignmentId=da5d16e8-cb0b-4957-95ef-c4b1fc1f512c&projectId=a0a8f18c-a66e-4ba7-a170-23efbdc67501","3E8BB96C7CCC43ADB08CD25CDDACE23E-2024-11-24-17-41-06","[{""page_index"":0,""viewing_time"":16726}]","16727","","","","",""
"","","","","","instructions","2","23800","0.0-2.0","3E8BB96C7CCC43ADB08CD25CDDACE23E","3E8BB96C7CCC43ADB08CD25CDDACE23E","da5d16e8-cb0b-4957-95ef-c4b1fc1f512c","a0a8f18c-a66e-4ba7-a170-23efbdc67501","{""participantId"":""3E8BB96C7CCC43ADB08CD25CDDACE23E"",""assignmentId"":""da5d16e8-cb0b-4957-95ef-c4b1fc1f512c"",""projectId"":""a0a8f18c-a66e-4ba7-a170-23efbdc67501""}","https://test12345.live/?participantId=3E8BB96C7CCC43ADB08CD25CDDACE23E&assignmentId=da5d16e8-cb0b-4957-95ef-c4b1fc1f512c&projectId=a0a8f18c-a66e-4ba7-a170-23efbdc67501","3E8BB96C7CCC43ADB08CD25CDDACE23E-2024-11-24-17-41-06","[{""page_index"":0,""viewing_time"":4962}]","4962","","","","",""
"true","","","","","fullscreen","3","26129","0.0-3.0","3E8BB96C7CCC43ADB08CD25CDDACE23E","3E8BB96C7CCC43ADB08CD25CDDACE23E","da5d16e8-cb0b-4957-95ef-c4b1fc1f512c","a0a8f18c-a66e-4ba7-a170-23efbdc67501","{""participantId"":""3E8BB96C7CCC43ADB08CD25CDDACE23E"",""assignmentId"":""da5d16e8-cb0b-4957-95ef-c4b1fc1f512c"",""projectId"":""a0a8f18c-a66e-4ba7-a170-23efbdc67501""}","https://test12345.live/?participantId=3E8BB96C7CCC43ADB08CD25CDDACE23E&assignmentId=da5d16e8-cb0b-4957-95ef-c4b1fc1f512c&projectId=a0a8f18c-a66e-4ba7-a170-23efbdc67501","3E8BB96C7CCC43ADB08CD25CDDACE23E-2024-11-24-17-41-06","","1327","","","","",""
"","","","","","initialize-microphone","4","44408","0.0-4.0-0.0","3E8BB96C7CCC43ADB08CD25CDDACE23E","3E8BB96C7CCC43ADB08CD25CDDACE23E","da5d16e8-cb0b-4957-95ef-c4b1fc1f512c","a0a8f18c-a66e-4ba7-a170-23efbdc67501","{""participantId"":""3E8BB96C7CCC43ADB08CD25CDDACE23E"",""assignmentId"":""da5d16e8-cb0b-4957-95ef-c4b1fc1f512c"",""projectId"":""a0a8f18c-a66e-4ba7-a170-23efbdc67501""}","https://test12345.live/?participantId=3E8BB96C7CCC43ADB08CD25CDDACE23E&assignmentId=da5d16e8-cb0b-4957-95ef-c4b1fc1f512c&projectId=a0a8f18c-a66e-4ba7-a170-23efbdc67501","3E8BB96C7CCC43ADB08CD25CDDACE23E-2024-11-24-17-41-06","","","5c4a225ccd74544c758308eb4399cb6ad76ed2f11414c582d170504fe788c238","","","",""
"","","","","","html-audio-response","5","52757","0.0-4.0-1.0","3E8BB96C7CCC43ADB08CD25CDDACE23E","3E8BB96C7CCC43ADB08CD25CDDACE23E","da5d16e8-cb0b-4957-95ef-c4b1fc1f512c","a0a8f18c-a66e-4ba7-a170-23efbdc67501","{""participantId"":""3E8BB96C7CCC43ADB08CD25CDDACE23E"",""assignmentId"":""da5d16e8-cb0b-4957-95ef-c4b1fc1f512c"",""projectId"":""a0a8f18c-a66e-4ba7-a170-23efbdc67501""}","https://test12345.live/?participantId=3E8BB96C7CCC43ADB08CD25CDDACE23E&assignmentId=da5d16e8-cb0b-4957-95ef-c4b1fc1f512c&projectId=a0a8f18c-a66e-4ba7-a170-23efbdc67501","3E8BB96C7CCC43ADB08CD25CDDACE23E-2024-11-24-17-41-06","","3330","","<span style=""color: red; font-size: 24px""> NOW RECORDING</span>
        <p>Please test Microphone</p>","","2",""
"","","","","","html-button-response","6","54488","0.0-4.0-2.0","3E8BB96C7CCC43ADB08CD25CDDACE23E","3E8BB96C7CCC43ADB08CD25CDDACE23E","da5d16e8-cb0b-4957-95ef-c4b1fc1f512c","a0a8f18c-a66e-4ba7-a170-23efbdc67501","{""participantId"":""3E8BB96C7CCC43ADB08CD25CDDACE23E"",""assignmentId"":""da5d16e8-cb0b-4957-95ef-c4b1fc1f512c"",""projectId"":""a0a8f18c-a66e-4ba7-a170-23efbdc67501""}","https://test12345.live/?participantId=3E8BB96C7CCC43ADB08CD25CDDACE23E&assignmentId=da5d16e8-cb0b-4957-95ef-c4b1fc1f512c&projectId=a0a8f18c-a66e-4ba7-a170-23efbdc67501","3E8BB96C7CCC43ADB08CD25CDDACE23E-2024-11-24-17-41-06","","1731","","<p style=""font-size:48px; color:red;"">Is Microphone OK?</p>","1","",""
"","","","","","instructions","7","76318","0.0-5.0","3E8BB96C7CCC43ADB08CD25CDDACE23E","3E8BB96C7CCC43ADB08CD25CDDACE23E","da5d16e8-cb0b-4957-95ef-c4b1fc1f512c","a0a8f18c-a66e-4ba7-a170-23efbdc67501","{""participantId"":""3E8BB96C7CCC43ADB08CD25CDDACE23E"",""assignmentId"":""da5d16e8-cb0b-4957-95ef-c4b1fc1f512c"",""projectId"":""a0a8f18c-a66e-4ba7-a170-23efbdc67501""}","https://test12345.live/?participantId=3E8BB96C7CCC43ADB08CD25CDDACE23E&assignmentId=da5d16e8-cb0b-4957-95ef-c4b1fc1f512c&projectId=a0a8f18c-a66e-4ba7-a170-23efbdc67501","3E8BB96C7CCC43ADB08CD25CDDACE23E-2024-11-24-17-41-06","[{""page_index"":0,""viewing_time"":15717},{""page_index"":1,""viewing_time"":6112}]","21829","","","","",""
"","","","","","image-button-response","8","82329","0.0-6.0-0.0","3E8BB96C7CCC43ADB08CD25CDDACE23E","3E8BB96C7CCC43ADB08CD25CDDACE23E","da5d16e8-cb0b-4957-95ef-c4b1fc1f512c","a0a8f18c-a66e-4ba7-a170-23efbdc67501","{""participantId"":""3E8BB96C7CCC43ADB08CD25CDDACE23E"",""assignmentId"":""da5d16e8-cb0b-4957-95ef-c4b1fc1f512c"",""projectId"":""a0a8f18c-a66e-4ba7-a170-23efbdc67501""}","https://test12345.live/?participantId=3E8BB96C7CCC43ADB08CD25CDDACE23E&assignmentId=da5d16e8-cb0b-4957-95ef-c4b1fc1f512c&projectId=a0a8f18c-a66e-4ba7-a170-23efbdc67501","3E8BB96C7CCC43ADB08CD25CDDACE23E-2024-11-24-17-41-06","","null","","images/instructions/movie_0.png","null","",""
"","","","","","image-button-response","9","86841","0.0-6.0-1.0-0.0","3E8BB96C7CCC43ADB08CD25CDDACE23E","3E8BB96C7CCC43ADB08CD25CDDACE23E","da5d16e8-cb0b-4957-95ef-c4b1fc1f512c","a0a8f18c-a66e-4ba7-a170-23efbdc67501","{""participantId"":""3E8BB96C7CCC43ADB08CD25CDDACE23E"",""assignmentId"":""da5d16e8-cb0b-4957-95ef-c4b1fc1f512c"",""projectId"":""a0a8f18c-a66e-4ba7-a170-23efbdc67501""}","https://test12345.live/?participantId=3E8BB96C7CCC43ADB08CD25CDDACE23E&assignmentId=da5d16e8-cb0b-4957-95ef-c4b1fc1f512c&projectId=a0a8f18c-a66e-4ba7-a170-23efbdc67501","3E8BB96C7CCC43ADB08CD25CDDACE23E-2024-11-24-17-41-06","","null","","images/instructions/movie_1.png","null","",""
"","","","","","image-button-response","10","88831","0.0-6.0-1.0-1.0","3E8BB96C7CCC43ADB08CD25CDDACE23E","3E8BB96C7CCC43ADB08CD25CDDACE23E","da5d16e8-cb0b-4957-95ef-c4b1fc1f512c","a0a8f18c-a66e-4ba7-a170-23efbdc67501","{""participantId"":""3E8BB96C7CCC43ADB08CD25CDDACE23E"",""assignmentId"":""da5d16e8-cb0b-4957-95ef-c4b1fc1f512c"",""projectId"":""a0a8f18c-a66e-4ba7-a170-23efbdc67501""}","https://test12345.live/?participantId=3E8BB96C7CCC43ADB08CD25CDDACE23E&assignmentId=da5d16e8-cb0b-4957-95ef-c4b1fc1f512c&projectId=a0a8f18c-a66e-4ba7-a170-23efbdc67501","3E8BB96C7CCC43ADB08CD25CDDACE23E-2024-11-24-17-41-06","","1990","","images/instructions/movie_1.png","0","",""
"","","","","","image-button-response","11","90635","0.0-6.0-1.0-2.0","3E8BB96C7CCC43ADB08CD25CDDACE23E","3E8BB96C7CCC43ADB08CD25CDDACE23E","da5d16e8-cb0b-4957-95ef-c4b1fc1f512c","a0a8f18c-a66e-4ba7-a170-23efbdc67501","{""participantId"":""3E8BB96C7CCC43ADB08CD25CDDACE23E"",""assignmentId"":""da5d16e8-cb0b-4957-95ef-c4b1fc1f512c"",""projectId"":""a0a8f18c-a66e-4ba7-a170-23efbdc67501""}","https://test12345.live/?participantId=3E8BB96C7CCC43ADB08CD25CDDACE23E&assignmentId=da5d16e8-cb0b-4957-95ef-c4b1fc1f512c&projectId=a0a8f18c-a66e-4ba7-a170-23efbdc67501","3E8BB96C7CCC43ADB08CD25CDDACE23E-2024-11-24-17-41-06","","null","","[]","null","",""
"","","","","","image-button-response","12","95145","0.0-6.0-1.0-0.1","3E8BB96C7CCC43ADB08CD25CDDACE23E","3E8BB96C7CCC43ADB08CD25CDDACE23E","da5d16e8-cb0b-4957-95ef-c4b1fc1f512c","a0a8f18c-a66e-4ba7-a170-23efbdc67501","{""participantId"":""3E8BB96C7CCC43ADB08CD25CDDACE23E"",""assignmentId"":""da5d16e8-cb0b-4957-95ef-c4b1fc1f512c"",""projectId"":""a0a8f18c-a66e-4ba7-a170-23efbdc67501""}","https://test12345.live/?participantId=3E8BB96C7CCC43ADB08CD25CDDACE23E&assignmentId=da5d16e8-cb0b-4957-95ef-c4b1fc1f512c&projectId=a0a8f18c-a66e-4ba7-a170-23efbdc67501","3E8BB96C7CCC43ADB08CD25CDDACE23E-2024-11-24-17-41-06","","null","","images/instructions/movie_2.png","null","",""
"","","","","","image-button-response","13","97740","0.0-6.0-1.0-1.1","3E8BB96C7CCC43ADB08CD25CDDACE23E","3E8BB96C7CCC43ADB08CD25CDDACE23E","da5d16e8-cb0b-4957-95ef-c4b1fc1f512c","a0a8f18c-a66e-4ba7-a170-23efbdc67501","{""participantId"":""3E8BB96C7CCC43ADB08CD25CDDACE23E"",""assignmentId"":""da5d16e8-cb0b-4957-95ef-c4b1fc1f512c"",""projectId"":""a0a8f18c-a66e-4ba7-a170-23efbdc67501""}","https://test12345.live/?participantId=3E8BB96C7CCC43ADB08CD25CDDACE23E&assignmentId=da5d16e8-cb0b-4957-95ef-c4b1fc1f512c&projectId=a0a8f18c-a66e-4ba7-a170-23efbdc67501","3E8BB96C7CCC43ADB08CD25CDDACE23E-2024-11-24-17-41-06","","2594","","images/instructions/movie_2.png","0","",""
"","","","","","image-button-response","14","99548","0.0-6.0-1.0-2.1","3E8BB96C7CCC43ADB08CD25CDDACE23E","3E8BB96C7CCC43ADB08CD25CDDACE23E","da5d16e8-cb0b-4957-95ef-c4b1fc1f512c","a0a8f18c-a66e-4ba7-a170-23efbdc67501","{""participantId"":""3E8BB96C7CCC43ADB08CD25CDDACE23E"",""assignmentId"":""da5d16e8-cb0b-4957-95ef-c4b1fc1f512c"",""projectId"":""a0a8f18c-a66e-4ba7-a170-23efbdc67501""}","https://test12345.live/?participantId=3E8BB96C7CCC43ADB08CD25CDDACE23E&assignmentId=da5d16e8-cb0b-4957-95ef-c4b1fc1f512c&projectId=a0a8f18c-a66e-4ba7-a170-23efbdc67501","3E8BB96C7CCC43ADB08CD25CDDACE23E-2024-11-24-17-41-06","","null","","[]","null","",""
"","","","","","image-button-response","15","104057","0.0-6.0-1.0-0.2","3E8BB96C7CCC43ADB08CD25CDDACE23E","3E8BB96C7CCC43ADB08CD25CDDACE23E","da5d16e8-cb0b-4957-95ef-c4b1fc1f512c","a0a8f18c-a66e-4ba7-a170-23efbdc67501","{""participantId"":""3E8BB96C7CCC43ADB08CD25CDDACE23E"",""assignmentId"":""da5d16e8-cb0b-4957-95ef-c4b1fc1f512c"",""projectId"":""a0a8f18c-a66e-4ba7-a170-23efbdc67501""}","https://test12345.live/?participantId=3E8BB96C7CCC43ADB08CD25CDDACE23E&assignmentId=da5d16e8-cb0b-4957-95ef-c4b1fc1f512c&projectId=a0a8f18c-a66e-4ba7-a170-23efbdc67501","3E8BB96C7CCC43ADB08CD25CDDACE23E-2024-11-24-17-41-06","","null","","images/instructions/movie_3.png","null","",""
"","","","","","image-button-response","16","107820","0.0-6.0-1.0-1.2","3E8BB96C7CCC43ADB08CD25CDDACE23E","3E8BB96C7CCC43ADB08CD25CDDACE23E","da5d16e8-cb0b-4957-95ef-c4b1fc1f512c","a0a8f18c-a66e-4ba7-a170-23efbdc67501","{""participantId"":""3E8BB96C7CCC43ADB08CD25CDDACE23E"",""assignmentId"":""da5d16e8-cb0b-4957-95ef-c4b1fc1f512c"",""projectId"":""a0a8f18c-a66e-4ba7-a170-23efbdc67501""}","https://test12345.live/?participantId=3E8BB96C7CCC43ADB08CD25CDDACE23E&assignmentId=da5d16e8-cb0b-4957-95ef-c4b1fc1f512c&projectId=a0a8f18c-a66e-4ba7-a170-23efbdc67501","3E8BB96C7CCC43ADB08CD25CDDACE23E-2024-11-24-17-41-06","","3762","","images/instructions/movie_3.png","0","",""
"","","","","","image-button-response","17","109634","0.0-6.0-1.0-2.2","3E8BB96C7CCC43ADB08CD25CDDACE23E","3E8BB96C7CCC43ADB08CD25CDDACE23E","da5d16e8-cb0b-4957-95ef-c4b1fc1f512c","a0a8f18c-a66e-4ba7-a170-23efbdc67501","{""participantId"":""3E8BB96C7CCC43ADB08CD25CDDACE23E"",""assignmentId"":""da5d16e8-cb0b-4957-95ef-c4b1fc1f512c"",""projectId"":""a0a8f18c-a66e-4ba7-a170-23efbdc67501""}","https://test12345.live/?participantId=3E8BB96C7CCC43ADB08CD25CDDACE23E&assignmentId=da5d16e8-cb0b-4957-95ef-c4b1fc1f512c&projectId=a0a8f18c-a66e-4ba7-a170-23efbdc67501","3E8BB96C7CCC43ADB08CD25CDDACE23E-2024-11-24-17-41-06","","null","","[]","null","",""
"","","","","","image-button-response","18","114145","0.0-6.0-1.0-0.3","3E8BB96C7CCC43ADB08CD25CDDACE23E","3E8BB96C7CCC43ADB08CD25CDDACE23E","da5d16e8-cb0b-4957-95ef-c4b1fc1f512c","a0a8f18c-a66e-4ba7-a170-23efbdc67501","{""participantId"":""3E8BB96C7CCC43ADB08CD25CDDACE23E"",""assignmentId"":""da5d16e8-cb0b-4957-95ef-c4b1fc1f512c"",""projectId"":""a0a8f18c-a66e-4ba7-a170-23efbdc67501""}","https://test12345.live/?participantId=3E8BB96C7CCC43ADB08CD25CDDACE23E&assignmentId=da5d16e8-cb0b-4957-95ef-c4b1fc1f512c&projectId=a0a8f18c-a66e-4ba7-a170-23efbdc67501","3E8BB96C7CCC43ADB08CD25CDDACE23E-2024-11-24-17-41-06","","null","","images/instructions/movie_4.png","null","",""
"","","","","","image-button-response","19","116464","0.0-6.0-1.0-1.3","3E8BB96C7CCC43ADB08CD25CDDACE23E","3E8BB96C7CCC43ADB08CD25CDDACE23E","da5d16e8-cb0b-4957-95ef-c4b1fc1f512c","a0a8f18c-a66e-4ba7-a170-23efbdc67501","{""participantId"":""3E8BB96C7CCC43ADB08CD25CDDACE23E"",""assignmentId"":""da5d16e8-cb0b-4957-95ef-c4b1fc1f512c"",""projectId"":""a0a8f18c-a66e-4ba7-a170-23efbdc67501""}","https://test12345.live/?participantId=3E8BB96C7CCC43ADB08CD25CDDACE23E&assignmentId=da5d16e8-cb0b-4957-95ef-c4b1fc1f512c&projectId=a0a8f18c-a66e-4ba7-a170-23efbdc67501","3E8BB96C7CCC43ADB08CD25CDDACE23E-2024-11-24-17-41-06","","2319","","images/instructions/movie_4.png","0","",""
"","","","","","image-button-response","20","118272","0.0-6.0-1.0-2.3","3E8BB96C7CCC43ADB08CD25CDDACE23E","3E8BB96C7CCC43ADB08CD25CDDACE23E","da5d16e8-cb0b-4957-95ef-c4b1fc1f512c","a0a8f18c-a66e-4ba7-a170-23efbdc67501","{""participantId"":""3E8BB96C7CCC43ADB08CD25CDDACE23E"",""assignmentId"":""da5d16e8-cb0b-4957-95ef-c4b1fc1f512c"",""projectId"":""a0a8f18c-a66e-4ba7-a170-23efbdc67501""}","https://test12345.live/?participantId=3E8BB96C7CCC43ADB08CD25CDDACE23E&assignmentId=da5d16e8-cb0b-4957-95ef-c4b1fc1f512c&projectId=a0a8f18c-a66e-4ba7-a170-23efbdc67501","3E8BB96C7CCC43ADB08CD25CDDACE23E-2024-11-24-17-41-06","","null","","[]","null","",""
"","","","","","instructions","21","123341","0.0-7.0","3E8BB96C7CCC43ADB08CD25CDDACE23E","3E8BB96C7CCC43ADB08CD25CDDACE23E","da5d16e8-cb0b-4957-95ef-c4b1fc1f512c","a0a8f18c-a66e-4ba7-a170-23efbdc67501","{""participantId"":""3E8BB96C7CCC43ADB08CD25CDDACE23E"",""assignmentId"":""da5d16e8-cb0b-4957-95ef-c4b1fc1f512c"",""projectId"":""a0a8f18c-a66e-4ba7-a170-23efbdc67501""}","https://test12345.live/?participantId=3E8BB96C7CCC43ADB08CD25CDDACE23E&assignmentId=da5d16e8-cb0b-4957-95ef-c4b1fc1f512c&projectId=a0a8f18c-a66e-4ba7-a170-23efbdc67501","3E8BB96C7CCC43ADB08CD25CDDACE23E-2024-11-24-17-41-06","[{""page_index"":0,""viewing_time"":4136},{""page_index"":1,""viewing_time"":933}]","5069","","","","",""
"","","","","","html-audio-response","22","157480","0.0-8.0","3E8BB96C7CCC43ADB08CD25CDDACE23E","3E8BB96C7CCC43ADB08CD25CDDACE23E","da5d16e8-cb0b-4957-95ef-c4b1fc1f512c","a0a8f18c-a66e-4ba7-a170-23efbdc67501","{""participantId"":""3E8BB96C7CCC43ADB08CD25CDDACE23E"",""assignmentId"":""da5d16e8-cb0b-4957-95ef-c4b1fc1f512c"",""projectId"":""a0a8f18c-a66e-4ba7-a170-23efbdc67501""}","https://test12345.live/?participantId=3E8BB96C7CCC43ADB08CD25CDDACE23E&assignmentId=da5d16e8-cb0b-4957-95ef-c4b1fc1f512c&projectId=a0a8f18c-a66e-4ba7-a170-23efbdc67501","3E8BB96C7CCC43ADB08CD25CDDACE23E-2024-11-24-17-41-06","","9581","","[""<span style=\""color: red; font-size: 24px\""> NOW RECORDING</span><p>Please say out loud all the images you saw, as many as you can remember. The images can be said in any order.</p>""]","","1",""
"","","","","","instructions","23","158806","0.0-9.0","3E8BB96C7CCC43ADB08CD25CDDACE23E","3E8BB96C7CCC43ADB08CD25CDDACE23E","da5d16e8-cb0b-4957-95ef-c4b1fc1f512c","a0a8f18c-a66e-4ba7-a170-23efbdc67501","{""participantId"":""3E8BB96C7CCC43ADB08CD25CDDACE23E"",""assignmentId"":""da5d16e8-cb0b-4957-95ef-c4b1fc1f512c"",""projectId"":""a0a8f18c-a66e-4ba7-a170-23efbdc67501""}","https://test12345.live/?participantId=3E8BB96C7CCC43ADB08CD25CDDACE23E&assignmentId=da5d16e8-cb0b-4957-95ef-c4b1fc1f512c&projectId=a0a8f18c-a66e-4ba7-a170-23efbdc67501","3E8BB96C7CCC43ADB08CD25CDDACE23E-2024-11-24-17-41-06","[{""page_index"":0,""viewing_time"":1323}]","1323","","","","",""
"","","","","","image-button-response","24","164810","0.0-10.0-0.0","3E8BB96C7CCC43ADB08CD25CDDACE23E","3E8BB96C7CCC43ADB08CD25CDDACE23E","da5d16e8-cb0b-4957-95ef-c4b1fc1f512c","a0a8f18c-a66e-4ba7-a170-23efbdc67501","{""participantId"":""3E8BB96C7CCC43ADB08CD25CDDACE23E"",""assignmentId"":""da5d16e8-cb0b-4957-95ef-c4b1fc1f512c"",""projectId"":""a0a8f18c-a66e-4ba7-a170-23efbdc67501""}","https://test12345.live/?participantId=3E8BB96C7CCC43ADB08CD25CDDACE23E&assignmentId=da5d16e8-cb0b-4957-95ef-c4b1fc1f512c&projectId=a0a8f18c-a66e-4ba7-a170-23efbdc67501","3E8BB96C7CCC43ADB08CD25CDDACE23E-2024-11-24-17-41-06","","null","","images/causal_sequence/saving_a_cat_causal/saving_a_cat_causal_0.png","null","",""
"","","","","","image-button-response","25","169326","0.0-10.0-1.0-0.0","3E8BB96C7CCC43ADB08CD25CDDACE23E","3E8BB96C7CCC43ADB08CD25CDDACE23E","da5d16e8-cb0b-4957-95ef-c4b1fc1f512c","a0a8f18c-a66e-4ba7-a170-23efbdc67501","{""participantId"":""3E8BB96C7CCC43ADB08CD25CDDACE23E"",""assignmentId"":""da5d16e8-cb0b-4957-95ef-c4b1fc1f512c"",""projectId"":""a0a8f18c-a66e-4ba7-a170-23efbdc67501""}","https://test12345.live/?participantId=3E8BB96C7CCC43ADB08CD25CDDACE23E&assignmentId=da5d16e8-cb0b-4957-95ef-c4b1fc1f512c&projectId=a0a8f18c-a66e-4ba7-a170-23efbdc67501","3E8BB96C7CCC43ADB08CD25CDDACE23E-2024-11-24-17-41-06","","null","","images/causal_sequence/saving_a_cat_causal/saving_a_cat_causal_1.png","null","",""
"","","","","","image-button-response","26","173340","0.0-10.0-1.0-1.0","3E8BB96C7CCC43ADB08CD25CDDACE23E","3E8BB96C7CCC43ADB08CD25CDDACE23E","da5d16e8-cb0b-4957-95ef-c4b1fc1f512c","a0a8f18c-a66e-4ba7-a170-23efbdc67501","{""participantId"":""3E8BB96C7CCC43ADB08CD25CDDACE23E"",""assignmentId"":""da5d16e8-cb0b-4957-95ef-c4b1fc1f512c"",""projectId"":""a0a8f18c-a66e-4ba7-a170-23efbdc67501""}","https://test12345.live/?participantId=3E8BB96C7CCC43ADB08CD25CDDACE23E&assignmentId=da5d16e8-cb0b-4957-95ef-c4b1fc1f512c&projectId=a0a8f18c-a66e-4ba7-a170-23efbdc67501","3E8BB96C7CCC43ADB08CD25CDDACE23E-2024-11-24-17-41-06","","null","","images/causal_sequence/saving_a_cat_causal/saving_a_cat_causal_1.png","null","",""
"","","","","","image-button-response","27","175145","0.0-10.0-1.0-2.0","3E8BB96C7CCC43ADB08CD25CDDACE23E","3E8BB96C7CCC43ADB08CD25CDDACE23E","da5d16e8-cb0b-4957-95ef-c4b1fc1f512c","a0a8f18c-a66e-4ba7-a170-23efbdc67501","{""participantId"":""3E8BB96C7CCC43ADB08CD25CDDACE23E"",""assignmentId"":""da5d16e8-cb0b-4957-95ef-c4b1fc1f512c"",""projectId"":""a0a8f18c-a66e-4ba7-a170-23efbdc67501""}","https://test12345.live/?participantId=3E8BB96C7CCC43ADB08CD25CDDACE23E&assignmentId=da5d16e8-cb0b-4957-95ef-c4b1fc1f512c&projectId=a0a8f18c-a66e-4ba7-a170-23efbdc67501","3E8BB96C7CCC43ADB08CD25CDDACE23E-2024-11-24-17-41-06","","null","","[]","null","",""
"","","","","","image-button-response","28","179661","0.0-10.0-1.0-0.1","3E8BB96C7CCC43ADB08CD25CDDACE23E","3E8BB96C7CCC43ADB08CD25CDDACE23E","da5d16e8-cb0b-4957-95ef-c4b1fc1f512c","a0a8f18c-a66e-4ba7-a170-23efbdc67501","{""participantId"":""3E8BB96C7CCC43ADB08CD25CDDACE23E"",""assignmentId"":""da5d16e8-cb0b-4957-95ef-c4b1fc1f512c"",""projectId"":""a0a8f18c-a66e-4ba7-a170-23efbdc67501""}","https://test12345.live/?participantId=3E8BB96C7CCC43ADB08CD25CDDACE23E&assignmentId=da5d16e8-cb0b-4957-95ef-c4b1fc1f512c&projectId=a0a8f18c-a66e-4ba7-a170-23efbdc67501","3E8BB96C7CCC43ADB08CD25CDDACE23E-2024-11-24-17-41-06","","null","","images/causal_sequence/saving_a_cat_causal/saving_a_cat_causal_2.png","null","",""
"","","","","","image-button-response","29","181725","0.0-10.0-1.0-1.1","3E8BB96C7CCC43ADB08CD25CDDACE23E","3E8BB96C7CCC43ADB08CD25CDDACE23E","da5d16e8-cb0b-4957-95ef-c4b1fc1f512c","a0a8f18c-a66e-4ba7-a170-23efbdc67501","{""participantId"":""3E8BB96C7CCC43ADB08CD25CDDACE23E"",""assignmentId"":""da5d16e8-cb0b-4957-95ef-c4b1fc1f512c"",""projectId"":""a0a8f18c-a66e-4ba7-a170-23efbdc67501""}","https://test12345.live/?participantId=3E8BB96C7CCC43ADB08CD25CDDACE23E&assignmentId=da5d16e8-cb0b-4957-95ef-c4b1fc1f512c&projectId=a0a8f18c-a66e-4ba7-a170-23efbdc67501","3E8BB96C7CCC43ADB08CD25CDDACE23E-2024-11-24-17-41-06","","2064","","images/causal_sequence/saving_a_cat_causal/saving_a_cat_causal_2.png","1","",""
"","","","","","image-button-response","30","183530","0.0-10.0-1.0-2.1","3E8BB96C7CCC43ADB08CD25CDDACE23E","3E8BB96C7CCC43ADB08CD25CDDACE23E","da5d16e8-cb0b-4957-95ef-c4b1fc1f512c","a0a8f18c-a66e-4ba7-a170-23efbdc67501","{""participantId"":""3E8BB96C7CCC43ADB08CD25CDDACE23E"",""assignmentId"":""da5d16e8-cb0b-4957-95ef-c4b1fc1f512c"",""projectId"":""a0a8f18c-a66e-4ba7-a170-23efbdc67501""}","https://test12345.live/?participantId=3E8BB96C7CCC43ADB08CD25CDDACE23E&assignmentId=da5d16e8-cb0b-4957-95ef-c4b1fc1f512c&projectId=a0a8f18c-a66e-4ba7-a170-23efbdc67501","3E8BB96C7CCC43ADB08CD25CDDACE23E-2024-11-24-17-41-06","","null","","[]","null","",""
"","","","","","image-button-response","31","188046","0.0-10.0-1.0-0.2","3E8BB96C7CCC43ADB08CD25CDDACE23E","3E8BB96C7CCC43ADB08CD25CDDACE23E","da5d16e8-cb0b-4957-95ef-c4b1fc1f512c","a0a8f18c-a66e-4ba7-a170-23efbdc67501","{""participantId"":""3E8BB96C7CCC43ADB08CD25CDDACE23E"",""assignmentId"":""da5d16e8-cb0b-4957-95ef-c4b1fc1f512c"",""projectId"":""a0a8f18c-a66e-4ba7-a170-23efbdc67501""}","https://test12345.live/?participantId=3E8BB96C7CCC43ADB08CD25CDDACE23E&assignmentId=da5d16e8-cb0b-4957-95ef-c4b1fc1f512c&projectId=a0a8f18c-a66e-4ba7-a170-23efbdc67501","3E8BB96C7CCC43ADB08CD25CDDACE23E-2024-11-24-17-41-06","","null","","images/causal_sequence/saving_a_cat_causal/saving_a_cat_causal_3.png","null","",""
"","","","","","image-button-response","32","189874","0.0-10.0-1.0-1.2","3E8BB96C7CCC43ADB08CD25CDDACE23E","3E8BB96C7CCC43ADB08CD25CDDACE23E","da5d16e8-cb0b-4957-95ef-c4b1fc1f512c","a0a8f18c-a66e-4ba7-a170-23efbdc67501","{""participantId"":""3E8BB96C7CCC43ADB08CD25CDDACE23E"",""assignmentId"":""da5d16e8-cb0b-4957-95ef-c4b1fc1f512c"",""projectId"":""a0a8f18c-a66e-4ba7-a170-23efbdc67501""}","https://test12345.live/?participantId=3E8BB96C7CCC43ADB08CD25CDDACE23E&assignmentId=da5d16e8-cb0b-4957-95ef-c4b1fc1f512c&projectId=a0a8f18c-a66e-4ba7-a170-23efbdc67501","3E8BB96C7CCC43ADB08CD25CDDACE23E-2024-11-24-17-41-06","","1828","","images/causal_sequence/saving_a_cat_causal/saving_a_cat_causal_3.png","1","",""
"","","","","","image-button-response","33","191687","0.0-10.0-1.0-2.2","3E8BB96C7CCC43ADB08CD25CDDACE23E","3E8BB96C7CCC43ADB08CD25CDDACE23E","da5d16e8-cb0b-4957-95ef-c4b1fc1f512c","a0a8f18c-a66e-4ba7-a170-23efbdc67501","{""participantId"":""3E8BB96C7CCC43ADB08CD25CDDACE23E"",""assignmentId"":""da5d16e8-cb0b-4957-95ef-c4b1fc1f512c"",""projectId"":""a0a8f18c-a66e-4ba7-a170-23efbdc67501""}","https://test12345.live/?participantId=3E8BB96C7CCC43ADB08CD25CDDACE23E&assignmentId=da5d16e8-cb0b-4957-95ef-c4b1fc1f512c&projectId=a0a8f18c-a66e-4ba7-a170-23efbdc67501","3E8BB96C7CCC43ADB08CD25CDDACE23E-2024-11-24-17-41-06","","null","","[]","null","",""
"","","","","","image-button-response","34","196198","0.0-10.0-1.0-0.3","3E8BB96C7CCC43ADB08CD25CDDACE23E","3E8BB96C7CCC43ADB08CD25CDDACE23E","da5d16e8-cb0b-4957-95ef-c4b1fc1f512c","a0a8f18c-a66e-4ba7-a170-23efbdc67501","{""participantId"":""3E8BB96C7CCC43ADB08CD25CDDACE23E"",""assignmentId"":""da5d16e8-cb0b-4957-95ef-c4b1fc1f512c"",""projectId"":""a0a8f18c-a66e-4ba7-a170-23efbdc67501""}","https://test12345.live/?participantId=3E8BB96C7CCC43ADB08CD25CDDACE23E&assignmentId=da5d16e8-cb0b-4957-95ef-c4b1fc1f512c&projectId=a0a8f18c-a66e-4ba7-a170-23efbdc67501","3E8BB96C7CCC43ADB08CD25CDDACE23E-2024-11-24-17-41-06","","null","","images/causal_sequence/saving_a_cat_causal/saving_a_cat_causal_4.png","null","",""
"","","","","","image-button-response","35","198508","0.0-10.0-1.0-1.3","3E8BB96C7CCC43ADB08CD25CDDACE23E","3E8BB96C7CCC43ADB08CD25CDDACE23E","da5d16e8-cb0b-4957-95ef-c4b1fc1f512c","a0a8f18c-a66e-4ba7-a170-23efbdc67501","{""participantId"":""3E8BB96C7CCC43ADB08CD25CDDACE23E"",""assignmentId"":""da5d16e8-cb0b-4957-95ef-c4b1fc1f512c"",""projectId"":""a0a8f18c-a66e-4ba7-a170-23efbdc67501""}","https://test12345.live/?participantId=3E8BB96C7CCC43ADB08CD25CDDACE23E&assignmentId=da5d16e8-cb0b-4957-95ef-c4b1fc1f512c&projectId=a0a8f18c-a66e-4ba7-a170-23efbdc67501","3E8BB96C7CCC43ADB08CD25CDDACE23E-2024-11-24-17-41-06","","2309","","images/causal_sequence/saving_a_cat_causal/saving_a_cat_causal_4.png","0","",""
"","","","","","image-button-response","36","200317","0.0-10.0-1.0-2.3","3E8BB96C7CCC43ADB08CD25CDDACE23E","3E8BB96C7CCC43ADB08CD25CDDACE23E","da5d16e8-cb0b-4957-95ef-c4b1fc1f512c","a0a8f18c-a66e-4ba7-a170-23efbdc67501","{""participantId"":""3E8BB96C7CCC43ADB08CD25CDDACE23E"",""assignmentId"":""da5d16e8-cb0b-4957-95ef-c4b1fc1f512c"",""projectId"":""a0a8f18c-a66e-4ba7-a170-23efbdc67501""}","https://test12345.live/?participantId=3E8BB96C7CCC43ADB08CD25CDDACE23E&assignmentId=da5d16e8-cb0b-4957-95ef-c4b1fc1f512c&projectId=a0a8f18c-a66e-4ba7-a170-23efbdc67501","3E8BB96C7CCC43ADB08CD25CDDACE23E-2024-11-24-17-41-06","","null","","[]","null","",""
"","","","","","image-button-response","37","204825","0.0-10.0-1.0-0.4","3E8BB96C7CCC43ADB08CD25CDDACE23E","3E8BB96C7CCC43ADB08CD25CDDACE23E","da5d16e8-cb0b-4957-95ef-c4b1fc1f512c","a0a8f18c-a66e-4ba7-a170-23efbdc67501","{""participantId"":""3E8BB96C7CCC43ADB08CD25CDDACE23E"",""assignmentId"":""da5d16e8-cb0b-4957-95ef-c4b1fc1f512c"",""projectId"":""a0a8f18c-a66e-4ba7-a170-23efbdc67501""}","https://test12345.live/?participantId=3E8BB96C7CCC43ADB08CD25CDDACE23E&assignmentId=da5d16e8-cb0b-4957-95ef-c4b1fc1f512c&projectId=a0a8f18c-a66e-4ba7-a170-23efbdc67501","3E8BB96C7CCC43ADB08CD25CDDACE23E-2024-11-24-17-41-06","","null","","images/causal_sequence/saving_a_cat_causal/saving_a_cat_causal_5.png","null","",""
"","","","","","image-button-response","38","205941","0.0-10.0-1.0-1.4","3E8BB96C7CCC43ADB08CD25CDDACE23E","3E8BB96C7CCC43ADB08CD25CDDACE23E","da5d16e8-cb0b-4957-95ef-c4b1fc1f512c","a0a8f18c-a66e-4ba7-a170-23efbdc67501","{""participantId"":""3E8BB96C7CCC43ADB08CD25CDDACE23E"",""assignmentId"":""da5d16e8-cb0b-4957-95ef-c4b1fc1f512c"",""projectId"":""a0a8f18c-a66e-4ba7-a170-23efbdc67501""}","https://test12345.live/?participantId=3E8BB96C7CCC43ADB08CD25CDDACE23E&assignmentId=da5d16e8-cb0b-4957-95ef-c4b1fc1f512c&projectId=a0a8f18c-a66e-4ba7-a170-23efbdc67501","3E8BB96C7CCC43ADB08CD25CDDACE23E-2024-11-24-17-41-06","","1116","","images/causal_sequence/saving_a_cat_causal/saving_a_cat_causal_5.png","0","",""
"","","","","","image-button-response","39","207743","0.0-10.0-1.0-2.4","3E8BB96C7CCC43ADB08CD25CDDACE23E","3E8BB96C7CCC43ADB08CD25CDDACE23E","da5d16e8-cb0b-4957-95ef-c4b1fc1f512c","a0a8f18c-a66e-4ba7-a170-23efbdc67501","{""participantId"":""3E8BB96C7CCC43ADB08CD25CDDACE23E"",""assignmentId"":""da5d16e8-cb0b-4957-95ef-c4b1fc1f512c"",""projectId"":""a0a8f18c-a66e-4ba7-a170-23efbdc67501""}","https://test12345.live/?participantId=3E8BB96C7CCC43ADB08CD25CDDACE23E&assignmentId=da5d16e8-cb0b-4957-95ef-c4b1fc1f512c&projectId=a0a8f18c-a66e-4ba7-a170-23efbdc67501","3E8BB96C7CCC43ADB08CD25CDDACE23E-2024-11-24-17-41-06","","null","","[]","null","",""
"","","","","","image-button-response","40","212251","0.0-10.0-1.0-0.5","3E8BB96C7CCC43ADB08CD25CDDACE23E","3E8BB96C7CCC43ADB08CD25CDDACE23E","da5d16e8-cb0b-4957-95ef-c4b1fc1f512c","a0a8f18c-a66e-4ba7-a170-23efbdc67501","{""participantId"":""3E8BB96C7CCC43ADB08CD25CDDACE23E"",""assignmentId"":""da5d16e8-cb0b-4957-95ef-c4b1fc1f512c"",""projectId"":""a0a8f18c-a66e-4ba7-a170-23efbdc67501""}","https://test12345.live/?participantId=3E8BB96C7CCC43ADB08CD25CDDACE23E&assignmentId=da5d16e8-cb0b-4957-95ef-c4b1fc1f512c&projectId=a0a8f18c-a66e-4ba7-a170-23efbdc67501","3E8BB96C7CCC43ADB08CD25CDDACE23E-2024-11-24-17-41-06","","null","","images/causal_sequence/saving_a_cat_causal/saving_a_cat_causal_6.png","null","",""
"","","","","","image-button-response","41","214597","0.0-10.0-1.0-1.5","3E8BB96C7CCC43ADB08CD25CDDACE23E","3E8BB96C7CCC43ADB08CD25CDDACE23E","da5d16e8-cb0b-4957-95ef-c4b1fc1f512c","a0a8f18c-a66e-4ba7-a170-23efbdc67501","{""participantId"":""3E8BB96C7CCC43ADB08CD25CDDACE23E"",""assignmentId"":""da5d16e8-cb0b-4957-95ef-c4b1fc1f512c"",""projectId"":""a0a8f18c-a66e-4ba7-a170-23efbdc67501""}","https://test12345.live/?participantId=3E8BB96C7CCC43ADB08CD25CDDACE23E&assignmentId=da5d16e8-cb0b-4957-95ef-c4b1fc1f512c&projectId=a0a8f18c-a66e-4ba7-a170-23efbdc67501","3E8BB96C7CCC43ADB08CD25CDDACE23E-2024-11-24-17-41-06","","2346","","images/causal_sequence/saving_a_cat_causal/saving_a_cat_causal_6.png","0","",""
"","","","","","image-button-response","42","216399","0.0-10.0-1.0-2.5","3E8BB96C7CCC43ADB08CD25CDDACE23E","3E8BB96C7CCC43ADB08CD25CDDACE23E","da5d16e8-cb0b-4957-95ef-c4b1fc1f512c","a0a8f18c-a66e-4ba7-a170-23efbdc67501","{""participantId"":""3E8BB96C7CCC43ADB08CD25CDDACE23E"",""assignmentId"":""da5d16e8-cb0b-4957-95ef-c4b1fc1f512c"",""projectId"":""a0a8f18c-a66e-4ba7-a170-23efbdc67501""}","https://test12345.live/?participantId=3E8BB96C7CCC43ADB08CD25CDDACE23E&assignmentId=da5d16e8-cb0b-4957-95ef-c4b1fc1f512c&projectId=a0a8f18c-a66e-4ba7-a170-23efbdc67501","3E8BB96C7CCC43ADB08CD25CDDACE23E-2024-11-24-17-41-06","","null","","[]","null","",""
"","","","","","image-button-response","43","220906","0.0-10.0-1.0-0.6","3E8BB96C7CCC43ADB08CD25CDDACE23E","3E8BB96C7CCC43ADB08CD25CDDACE23E","da5d16e8-cb0b-4957-95ef-c4b1fc1f512c","a0a8f18c-a66e-4ba7-a170-23efbdc67501","{""participantId"":""3E8BB96C7CCC43ADB08CD25CDDACE23E"",""assignmentId"":""da5d16e8-cb0b-4957-95ef-c4b1fc1f512c"",""projectId"":""a0a8f18c-a66e-4ba7-a170-23efbdc67501""}","https://test12345.live/?participantId=3E8BB96C7CCC43ADB08CD25CDDACE23E&assignmentId=da5d16e8-cb0b-4957-95ef-c4b1fc1f512c&projectId=a0a8f18c-a66e-4ba7-a170-23efbdc67501","3E8BB96C7CCC43ADB08CD25CDDACE23E-2024-11-24-17-41-06","","null","","images/causal_sequence/saving_a_cat_causal/saving_a_cat_causal_7.png","null","",""
"","","","","","image-button-response","44","221915","0.0-10.0-1.0-1.6","3E8BB96C7CCC43ADB08CD25CDDACE23E","3E8BB96C7CCC43ADB08CD25CDDACE23E","da5d16e8-cb0b-4957-95ef-c4b1fc1f512c","a0a8f18c-a66e-4ba7-a170-23efbdc67501","{""participantId"":""3E8BB96C7CCC43ADB08CD25CDDACE23E"",""assignmentId"":""da5d16e8-cb0b-4957-95ef-c4b1fc1f512c"",""projectId"":""a0a8f18c-a66e-4ba7-a170-23efbdc67501""}","https://test12345.live/?participantId=3E8BB96C7CCC43ADB08CD25CDDACE23E&assignmentId=da5d16e8-cb0b-4957-95ef-c4b1fc1f512c&projectId=a0a8f18c-a66e-4ba7-a170-23efbdc67501","3E8BB96C7CCC43ADB08CD25CDDACE23E-2024-11-24-17-41-06","","1009","","images/causal_sequence/saving_a_cat_causal/saving_a_cat_causal_7.png","0","",""
"","","","","","image-button-response","45","223730","0.0-10.0-1.0-2.6","3E8BB96C7CCC43ADB08CD25CDDACE23E","3E8BB96C7CCC43ADB08CD25CDDACE23E","da5d16e8-cb0b-4957-95ef-c4b1fc1f512c","a0a8f18c-a66e-4ba7-a170-23efbdc67501","{""participantId"":""3E8BB96C7CCC43ADB08CD25CDDACE23E"",""assignmentId"":""da5d16e8-cb0b-4957-95ef-c4b1fc1f512c"",""projectId"":""a0a8f18c-a66e-4ba7-a170-23efbdc67501""}","https://test12345.live/?participantId=3E8BB96C7CCC43ADB08CD25CDDACE23E&assignmentId=da5d16e8-cb0b-4957-95ef-c4b1fc1f512c&projectId=a0a8f18c-a66e-4ba7-a170-23efbdc67501","3E8BB96C7CCC43ADB08CD25CDDACE23E-2024-11-24-17-41-06","","null","","[]","null","",""
"","","","","","image-button-response","46","228235","0.0-10.0-1.0-0.7","3E8BB96C7CCC43ADB08CD25CDDACE23E","3E8BB96C7CCC43ADB08CD25CDDACE23E","da5d16e8-cb0b-4957-95ef-c4b1fc1f512c","a0a8f18c-a66e-4ba7-a170-23efbdc67501","{""participantId"":""3E8BB96C7CCC43ADB08CD25CDDACE23E"",""assignmentId"":""da5d16e8-cb0b-4957-95ef-c4b1fc1f512c"",""projectId"":""a0a8f18c-a66e-4ba7-a170-23efbdc67501""}","https://test12345.live/?participantId=3E8BB96C7CCC43ADB08CD25CDDACE23E&assignmentId=da5d16e8-cb0b-4957-95ef-c4b1fc1f512c&projectId=a0a8f18c-a66e-4ba7-a170-23efbdc67501","3E8BB96C7CCC43ADB08CD25CDDACE23E-2024-11-24-17-41-06","","null","","images/causal_sequence/saving_a_cat_causal/saving_a_cat_causal_8.png","null","",""
"","","","","","image-button-response","47","229275","0.0-10.0-1.0-1.7","3E8BB96C7CCC43ADB08CD25CDDACE23E","3E8BB96C7CCC43ADB08CD25CDDACE23E","da5d16e8-cb0b-4957-95ef-c4b1fc1f512c","a0a8f18c-a66e-4ba7-a170-23efbdc67501","{""participantId"":""3E8BB96C7CCC43ADB08CD25CDDACE23E"",""assignmentId"":""da5d16e8-cb0b-4957-95ef-c4b1fc1f512c"",""projectId"":""a0a8f18c-a66e-4ba7-a170-23efbdc67501""}","https://test12345.live/?participantId=3E8BB96C7CCC43ADB08CD25CDDACE23E&assignmentId=da5d16e8-cb0b-4957-95ef-c4b1fc1f512c&projectId=a0a8f18c-a66e-4ba7-a170-23efbdc67501","3E8BB96C7CCC43ADB08CD25CDDACE23E-2024-11-24-17-41-06","","1039","","images/causal_sequence/saving_a_cat_causal/saving_a_cat_causal_8.png","0","",""
"","","","","","image-button-response","48","231089","0.0-10.0-1.0-2.7","3E8BB96C7CCC43ADB08CD25CDDACE23E","3E8BB96C7CCC43ADB08CD25CDDACE23E","da5d16e8-cb0b-4957-95ef-c4b1fc1f512c","a0a8f18c-a66e-4ba7-a170-23efbdc67501","{""participantId"":""3E8BB96C7CCC43ADB08CD25CDDACE23E"",""assignmentId"":""da5d16e8-cb0b-4957-95ef-c4b1fc1f512c"",""projectId"":""a0a8f18c-a66e-4ba7-a170-23efbdc67501""}","https://test12345.live/?participantId=3E8BB96C7CCC43ADB08CD25CDDACE23E&assignmentId=da5d16e8-cb0b-4957-95ef-c4b1fc1f512c&projectId=a0a8f18c-a66e-4ba7-a170-23efbdc67501","3E8BB96C7CCC43ADB08CD25CDDACE23E-2024-11-24-17-41-06","","null","","[]","null","",""
"","","","","","image-button-response","49","235598","0.0-10.0-1.0-0.8","3E8BB96C7CCC43ADB08CD25CDDACE23E","3E8BB96C7CCC43ADB08CD25CDDACE23E","da5d16e8-cb0b-4957-95ef-c4b1fc1f512c","a0a8f18c-a66e-4ba7-a170-23efbdc67501","{""participantId"":""3E8BB96C7CCC43ADB08CD25CDDACE23E"",""assignmentId"":""da5d16e8-cb0b-4957-95ef-c4b1fc1f512c"",""projectId"":""a0a8f18c-a66e-4ba7-a170-23efbdc67501""}","https://test12345.live/?participantId=3E8BB96C7CCC43ADB08CD25CDDACE23E&assignmentId=da5d16e8-cb0b-4957-95ef-c4b1fc1f512c&projectId=a0a8f18c-a66e-4ba7-a170-23efbdc67501","3E8BB96C7CCC43ADB08CD25CDDACE23E-2024-11-24-17-41-06","","null","","images/causal_sequence/saving_a_cat_causal/saving_a_cat_causal_9.png","null","",""
"","","","","","image-button-response","50","239069","0.0-10.0-1.0-1.8","3E8BB96C7CCC43ADB08CD25CDDACE23E","3E8BB96C7CCC43ADB08CD25CDDACE23E","da5d16e8-cb0b-4957-95ef-c4b1fc1f512c","a0a8f18c-a66e-4ba7-a170-23efbdc67501","{""participantId"":""3E8BB96C7CCC43ADB08CD25CDDACE23E"",""assignmentId"":""da5d16e8-cb0b-4957-95ef-c4b1fc1f512c"",""projectId"":""a0a8f18c-a66e-4ba7-a170-23efbdc67501""}","https://test12345.live/?participantId=3E8BB96C7CCC43ADB08CD25CDDACE23E&assignmentId=da5d16e8-cb0b-4957-95ef-c4b1fc1f512c&projectId=a0a8f18c-a66e-4ba7-a170-23efbdc67501","3E8BB96C7CCC43ADB08CD25CDDACE23E-2024-11-24-17-41-06","","3470","","images/causal_sequence/saving_a_cat_causal/saving_a_cat_causal_9.png","0","",""
"","","","","","image-button-response","51","240884","0.0-10.0-1.0-2.8","3E8BB96C7CCC43ADB08CD25CDDACE23E","3E8BB96C7CCC43ADB08CD25CDDACE23E","da5d16e8-cb0b-4957-95ef-c4b1fc1f512c","a0a8f18c-a66e-4ba7-a170-23efbdc67501","{""participantId"":""3E8BB96C7CCC43ADB08CD25CDDACE23E"",""assignmentId"":""da5d16e8-cb0b-4957-95ef-c4b1fc1f512c"",""projectId"":""a0a8f18c-a66e-4ba7-a170-23efbdc67501""}","https://test12345.live/?participantId=3E8BB96C7CCC43ADB08CD25CDDACE23E&assignmentId=da5d16e8-cb0b-4957-95ef-c4b1fc1f512c&projectId=a0a8f18c-a66e-4ba7-a170-23efbdc67501","3E8BB96C7CCC43ADB08CD25CDDACE23E-2024-11-24-17-41-06","","null","","[]","null","",""
"","","","","","image-button-response","52","245390","0.0-10.0-1.0-0.9","3E8BB96C7CCC43ADB08CD25CDDACE23E","3E8BB96C7CCC43ADB08CD25CDDACE23E","da5d16e8-cb0b-4957-95ef-c4b1fc1f512c","a0a8f18c-a66e-4ba7-a170-23efbdc67501","{""participantId"":""3E8BB96C7CCC43ADB08CD25CDDACE23E"",""assignmentId"":""da5d16e8-cb0b-4957-95ef-c4b1fc1f512c"",""projectId"":""a0a8f18c-a66e-4ba7-a170-23efbdc67501""}","https://test12345.live/?participantId=3E8BB96C7CCC43ADB08CD25CDDACE23E&assignmentId=da5d16e8-cb0b-4957-95ef-c4b1fc1f512c&projectId=a0a8f18c-a66e-4ba7-a170-23efbdc67501","3E8BB96C7CCC43ADB08CD25CDDACE23E-2024-11-24-17-41-06","","null","","images/causal_sequence/saving_a_cat_causal/saving_a_cat_causal_ten.png","null","",""
"","","","","","image-button-response","53","246949","0.0-10.0-1.0-1.9","3E8BB96C7CCC43ADB08CD25CDDACE23E","3E8BB96C7CCC43ADB08CD25CDDACE23E","da5d16e8-cb0b-4957-95ef-c4b1fc1f512c","a0a8f18c-a66e-4ba7-a170-23efbdc67501","{""participantId"":""3E8BB96C7CCC43ADB08CD25CDDACE23E"",""assignmentId"":""da5d16e8-cb0b-4957-95ef-c4b1fc1f512c"",""projectId"":""a0a8f18c-a66e-4ba7-a170-23efbdc67501""}","https://test12345.live/?participantId=3E8BB96C7CCC43ADB08CD25CDDACE23E&assignmentId=da5d16e8-cb0b-4957-95ef-c4b1fc1f512c&projectId=a0a8f18c-a66e-4ba7-a170-23efbdc67501","3E8BB96C7CCC43ADB08CD25CDDACE23E-2024-11-24-17-41-06","","1559","","images/causal_sequence/saving_a_cat_causal/saving_a_cat_causal_ten.png","0","",""
"","","","","","image-button-response","54","248761","0.0-10.0-1.0-2.9","3E8BB96C7CCC43ADB08CD25CDDACE23E","3E8BB96C7CCC43ADB08CD25CDDACE23E","da5d16e8-cb0b-4957-95ef-c4b1fc1f512c","a0a8f18c-a66e-4ba7-a170-23efbdc67501","{""participantId"":""3E8BB96C7CCC43ADB08CD25CDDACE23E"",""assignmentId"":""da5d16e8-cb0b-4957-95ef-c4b1fc1f512c"",""projectId"":""a0a8f18c-a66e-4ba7-a170-23efbdc67501""}","https://test12345.live/?participantId=3E8BB96C7CCC43ADB08CD25CDDACE23E&assignmentId=da5d16e8-cb0b-4957-95ef-c4b1fc1f512c&projectId=a0a8f18c-a66e-4ba7-a170-23efbdc67501","3E8BB96C7CCC43ADB08CD25CDDACE23E-2024-11-24-17-41-06","","null","","[]","null","",""
"","","","","","html-audio-response","55","279581","0.0-11.0","3E8BB96C7CCC43ADB08CD25CDDACE23E","3E8BB96C7CCC43ADB08CD25CDDACE23E","da5d16e8-cb0b-4957-95ef-c4b1fc1f512c","a0a8f18c-a66e-4ba7-a170-23efbdc67501","{""participantId"":""3E8BB96C7CCC43ADB08CD25CDDACE23E"",""assignmentId"":""da5d16e8-cb0b-4957-95ef-c4b1fc1f512c"",""projectId"":""a0a8f18c-a66e-4ba7-a170-23efbdc67501""}","https://test12345.live/?participantId=3E8BB96C7CCC43ADB08CD25CDDACE23E&assignmentId=da5d16e8-cb0b-4957-95ef-c4b1fc1f512c&projectId=a0a8f18c-a66e-4ba7-a170-23efbdc67501","3E8BB96C7CCC43ADB08CD25CDDACE23E-2024-11-24-17-41-06","","27464","","[""<span style=\""color: red; font-size: 24px\""> NOW RECORDING</span><p>Please say out loud all the images you saw, as many as you can remember. The images can be said in any order.</p>""]","","8","saving_a_cat_causal"
"","","","","","image-button-response","56","285590","0.0-12.0-0.0","3E8BB96C7CCC43ADB08CD25CDDACE23E","3E8BB96C7CCC43ADB08CD25CDDACE23E","da5d16e8-cb0b-4957-95ef-c4b1fc1f512c","a0a8f18c-a66e-4ba7-a170-23efbdc67501","{""participantId"":""3E8BB96C7CCC43ADB08CD25CDDACE23E"",""assignmentId"":""da5d16e8-cb0b-4957-95ef-c4b1fc1f512c"",""projectId"":""a0a8f18c-a66e-4ba7-a170-23efbdc67501""}","https://test12345.live/?participantId=3E8BB96C7CCC43ADB08CD25CDDACE23E&assignmentId=da5d16e8-cb0b-4957-95ef-c4b1fc1f512c&projectId=a0a8f18c-a66e-4ba7-a170-23efbdc67501","3E8BB96C7CCC43ADB08CD25CDDACE23E-2024-11-24-17-41-06","","null","","images/semantic_sequence/physical_activity_semantic/physical_activity_semantic_0.png","null","",""
"","","","","","image-button-response","57","290098","0.0-12.0-1.0-0.0","3E8BB96C7CCC43ADB08CD25CDDACE23E","3E8BB96C7CCC43ADB08CD25CDDACE23E","da5d16e8-cb0b-4957-95ef-c4b1fc1f512c","a0a8f18c-a66e-4ba7-a170-23efbdc67501","{""participantId"":""3E8BB96C7CCC43ADB08CD25CDDACE23E"",""assignmentId"":""da5d16e8-cb0b-4957-95ef-c4b1fc1f512c"",""projectId"":""a0a8f18c-a66e-4ba7-a170-23efbdc67501""}","https://test12345.live/?participantId=3E8BB96C7CCC43ADB08CD25CDDACE23E&assignmentId=da5d16e8-cb0b-4957-95ef-c4b1fc1f512c&projectId=a0a8f18c-a66e-4ba7-a170-23efbdc67501","3E8BB96C7CCC43ADB08CD25CDDACE23E-2024-11-24-17-41-06","","null","","images/semantic_sequence/physical_activity_semantic/physical_activity_semantic_1.png","null","",""
"","","","","","image-button-response","58","291383","0.0-12.0-1.0-1.0","3E8BB96C7CCC43ADB08CD25CDDACE23E","3E8BB96C7CCC43ADB08CD25CDDACE23E","da5d16e8-cb0b-4957-95ef-c4b1fc1f512c","a0a8f18c-a66e-4ba7-a170-23efbdc67501","{""participantId"":""3E8BB96C7CCC43ADB08CD25CDDACE23E"",""assignmentId"":""da5d16e8-cb0b-4957-95ef-c4b1fc1f512c"",""projectId"":""a0a8f18c-a66e-4ba7-a170-23efbdc67501""}","https://test12345.live/?participantId=3E8BB96C7CCC43ADB08CD25CDDACE23E&assignmentId=da5d16e8-cb0b-4957-95ef-c4b1fc1f512c&projectId=a0a8f18c-a66e-4ba7-a170-23efbdc67501","3E8BB96C7CCC43ADB08CD25CDDACE23E-2024-11-24-17-41-06","","1284","","images/semantic_sequence/physical_activity_semantic/physical_activity_semantic_1.png","0","",""
"","","","","","image-button-response","59","293192","0.0-12.0-1.0-2.0","3E8BB96C7CCC43ADB08CD25CDDACE23E","3E8BB96C7CCC43ADB08CD25CDDACE23E","da5d16e8-cb0b-4957-95ef-c4b1fc1f512c","a0a8f18c-a66e-4ba7-a170-23efbdc67501","{""participantId"":""3E8BB96C7CCC43ADB08CD25CDDACE23E"",""assignmentId"":""da5d16e8-cb0b-4957-95ef-c4b1fc1f512c"",""projectId"":""a0a8f18c-a66e-4ba7-a170-23efbdc67501""}","https://test12345.live/?participantId=3E8BB96C7CCC43ADB08CD25CDDACE23E&assignmentId=da5d16e8-cb0b-4957-95ef-c4b1fc1f512c&projectId=a0a8f18c-a66e-4ba7-a170-23efbdc67501","3E8BB96C7CCC43ADB08CD25CDDACE23E-2024-11-24-17-41-06","","null","","[]","null","",""
"","","","","","image-button-response","60","297704","0.0-12.0-1.0-0.1","3E8BB96C7CCC43ADB08CD25CDDACE23E","3E8BB96C7CCC43ADB08CD25CDDACE23E","da5d16e8-cb0b-4957-95ef-c4b1fc1f512c","a0a8f18c-a66e-4ba7-a170-23efbdc67501","{""participantId"":""3E8BB96C7CCC43ADB08CD25CDDACE23E"",""assignmentId"":""da5d16e8-cb0b-4957-95ef-c4b1fc1f512c"",""projectId"":""a0a8f18c-a66e-4ba7-a170-23efbdc67501""}","https://test12345.live/?participantId=3E8BB96C7CCC43ADB08CD25CDDACE23E&assignmentId=da5d16e8-cb0b-4957-95ef-c4b1fc1f512c&projectId=a0a8f18c-a66e-4ba7-a170-23efbdc67501","3E8BB96C7CCC43ADB08CD25CDDACE23E-2024-11-24-17-41-06","","null","","images/semantic_sequence/physical_activity_semantic/physical_activity_semantic_2.png","null","",""
"","","","","","image-button-response","61","298706","0.0-12.0-1.0-1.1","3E8BB96C7CCC43ADB08CD25CDDACE23E","3E8BB96C7CCC43ADB08CD25CDDACE23E","da5d16e8-cb0b-4957-95ef-c4b1fc1f512c","a0a8f18c-a66e-4ba7-a170-23efbdc67501","{""participantId"":""3E8BB96C7CCC43ADB08CD25CDDACE23E"",""assignmentId"":""da5d16e8-cb0b-4957-95ef-c4b1fc1f512c"",""projectId"":""a0a8f18c-a66e-4ba7-a170-23efbdc67501""}","https://test12345.live/?participantId=3E8BB96C7CCC43ADB08CD25CDDACE23E&assignmentId=da5d16e8-cb0b-4957-95ef-c4b1fc1f512c&projectId=a0a8f18c-a66e-4ba7-a170-23efbdc67501","3E8BB96C7CCC43ADB08CD25CDDACE23E-2024-11-24-17-41-06","","1001","","images/semantic_sequence/physical_activity_semantic/physical_activity_semantic_2.png","0","",""
"","","","","","image-button-response","62","300513","0.0-12.0-1.0-2.1","3E8BB96C7CCC43ADB08CD25CDDACE23E","3E8BB96C7CCC43ADB08CD25CDDACE23E","da5d16e8-cb0b-4957-95ef-c4b1fc1f512c","a0a8f18c-a66e-4ba7-a170-23efbdc67501","{""participantId"":""3E8BB96C7CCC43ADB08CD25CDDACE23E"",""assignmentId"":""da5d16e8-cb0b-4957-95ef-c4b1fc1f512c"",""projectId"":""a0a8f18c-a66e-4ba7-a170-23efbdc67501""}","https://test12345.live/?participantId=3E8BB96C7CCC43ADB08CD25CDDACE23E&assignmentId=da5d16e8-cb0b-4957-95ef-c4b1fc1f512c&projectId=a0a8f18c-a66e-4ba7-a170-23efbdc67501","3E8BB96C7CCC43ADB08CD25CDDACE23E-2024-11-24-17-41-06","","null","","[]","null","",""
"","","","","","image-button-response","63","305022","0.0-12.0-1.0-0.2","3E8BB96C7CCC43ADB08CD25CDDACE23E","3E8BB96C7CCC43ADB08CD25CDDACE23E","da5d16e8-cb0b-4957-95ef-c4b1fc1f512c","a0a8f18c-a66e-4ba7-a170-23efbdc67501","{""participantId"":""3E8BB96C7CCC43ADB08CD25CDDACE23E"",""assignmentId"":""da5d16e8-cb0b-4957-95ef-c4b1fc1f512c"",""projectId"":""a0a8f18c-a66e-4ba7-a170-23efbdc67501""}","https://test12345.live/?participantId=3E8BB96C7CCC43ADB08CD25CDDACE23E&assignmentId=da5d16e8-cb0b-4957-95ef-c4b1fc1f512c&projectId=a0a8f18c-a66e-4ba7-a170-23efbdc67501","3E8BB96C7CCC43ADB08CD25CDDACE23E-2024-11-24-17-41-06","","null","","images/semantic_sequence/physical_activity_semantic/physical_activity_semantic_3.png","null","",""
"","","","","","image-button-response","64","306037","0.0-12.0-1.0-1.2","3E8BB96C7CCC43ADB08CD25CDDACE23E","3E8BB96C7CCC43ADB08CD25CDDACE23E","da5d16e8-cb0b-4957-95ef-c4b1fc1f512c","a0a8f18c-a66e-4ba7-a170-23efbdc67501","{""participantId"":""3E8BB96C7CCC43ADB08CD25CDDACE23E"",""assignmentId"":""da5d16e8-cb0b-4957-95ef-c4b1fc1f512c"",""projectId"":""a0a8f18c-a66e-4ba7-a170-23efbdc67501""}","https://test12345.live/?participantId=3E8BB96C7CCC43ADB08CD25CDDACE23E&assignmentId=da5d16e8-cb0b-4957-95ef-c4b1fc1f512c&projectId=a0a8f18c-a66e-4ba7-a170-23efbdc67501","3E8BB96C7CCC43ADB08CD25CDDACE23E-2024-11-24-17-41-06","","1014","","images/semantic_sequence/physical_activity_semantic/physical_activity_semantic_3.png","0","",""
"","","","","","image-button-response","65","307845","0.0-12.0-1.0-2.2","3E8BB96C7CCC43ADB08CD25CDDACE23E","3E8BB96C7CCC43ADB08CD25CDDACE23E","da5d16e8-cb0b-4957-95ef-c4b1fc1f512c","a0a8f18c-a66e-4ba7-a170-23efbdc67501","{""participantId"":""3E8BB96C7CCC43ADB08CD25CDDACE23E"",""assignmentId"":""da5d16e8-cb0b-4957-95ef-c4b1fc1f512c"",""projectId"":""a0a8f18c-a66e-4ba7-a170-23efbdc67501""}","https://test12345.live/?participantId=3E8BB96C7CCC43ADB08CD25CDDACE23E&assignmentId=da5d16e8-cb0b-4957-95ef-c4b1fc1f512c&projectId=a0a8f18c-a66e-4ba7-a170-23efbdc67501","3E8BB96C7CCC43ADB08CD25CDDACE23E-2024-11-24-17-41-06","","null","","[]","null","",""
"","","","","","image-button-response","66","312351","0.0-12.0-1.0-0.3","3E8BB96C7CCC43ADB08CD25CDDACE23E","3E8BB96C7CCC43ADB08CD25CDDACE23E","da5d16e8-cb0b-4957-95ef-c4b1fc1f512c","a0a8f18c-a66e-4ba7-a170-23efbdc67501","{""participantId"":""3E8BB96C7CCC43ADB08CD25CDDACE23E"",""assignmentId"":""da5d16e8-cb0b-4957-95ef-c4b1fc1f512c"",""projectId"":""a0a8f18c-a66e-4ba7-a170-23efbdc67501""}","https://test12345.live/?participantId=3E8BB96C7CCC43ADB08CD25CDDACE23E&assignmentId=da5d16e8-cb0b-4957-95ef-c4b1fc1f512c&projectId=a0a8f18c-a66e-4ba7-a170-23efbdc67501","3E8BB96C7CCC43ADB08CD25CDDACE23E-2024-11-24-17-41-06","","null","","images/semantic_sequence/physical_activity_semantic/physical_activity_semantic_4.png","null","",""
"","","","","","image-button-response","67","313279","0.0-12.0-1.0-1.3","3E8BB96C7CCC43ADB08CD25CDDACE23E","3E8BB96C7CCC43ADB08CD25CDDACE23E","da5d16e8-cb0b-4957-95ef-c4b1fc1f512c","a0a8f18c-a66e-4ba7-a170-23efbdc67501","{""participantId"":""3E8BB96C7CCC43ADB08CD25CDDACE23E"",""assignmentId"":""da5d16e8-cb0b-4957-95ef-c4b1fc1f512c"",""projectId"":""a0a8f18c-a66e-4ba7-a170-23efbdc67501""}","https://test12345.live/?participantId=3E8BB96C7CCC43ADB08CD25CDDACE23E&assignmentId=da5d16e8-cb0b-4957-95ef-c4b1fc1f512c&projectId=a0a8f18c-a66e-4ba7-a170-23efbdc67501","3E8BB96C7CCC43ADB08CD25CDDACE23E-2024-11-24-17-41-06","","928","","images/semantic_sequence/physical_activity_semantic/physical_activity_semantic_4.png","0","",""
"","","","","","image-button-response","68","315092","0.0-12.0-1.0-2.3","3E8BB96C7CCC43ADB08CD25CDDACE23E","3E8BB96C7CCC43ADB08CD25CDDACE23E","da5d16e8-cb0b-4957-95ef-c4b1fc1f512c","a0a8f18c-a66e-4ba7-a170-23efbdc67501","{""participantId"":""3E8BB96C7CCC43ADB08CD25CDDACE23E"",""assignmentId"":""da5d16e8-cb0b-4957-95ef-c4b1fc1f512c"",""projectId"":""a0a8f18c-a66e-4ba7-a170-23efbdc67501""}","https://test12345.live/?participantId=3E8BB96C7CCC43ADB08CD25CDDACE23E&assignmentId=da5d16e8-cb0b-4957-95ef-c4b1fc1f512c&projectId=a0a8f18c-a66e-4ba7-a170-23efbdc67501","3E8BB96C7CCC43ADB08CD25CDDACE23E-2024-11-24-17-41-06","","null","","[]","null","",""
"","","","","","image-button-response","69","319595","0.0-12.0-1.0-0.4","3E8BB96C7CCC43ADB08CD25CDDACE23E","3E8BB96C7CCC43ADB08CD25CDDACE23E","da5d16e8-cb0b-4957-95ef-c4b1fc1f512c","a0a8f18c-a66e-4ba7-a170-23efbdc67501","{""participantId"":""3E8BB96C7CCC43ADB08CD25CDDACE23E"",""assignmentId"":""da5d16e8-cb0b-4957-95ef-c4b1fc1f512c"",""projectId"":""a0a8f18c-a66e-4ba7-a170-23efbdc67501""}","https://test12345.live/?participantId=3E8BB96C7CCC43ADB08CD25CDDACE23E&assignmentId=da5d16e8-cb0b-4957-95ef-c4b1fc1f512c&projectId=a0a8f18c-a66e-4ba7-a170-23efbdc67501","3E8BB96C7CCC43ADB08CD25CDDACE23E-2024-11-24-17-41-06","","null","","images/semantic_sequence/physical_activity_semantic/physical_activity_semantic_5.png","null","",""
"","","","","","image-button-response","70","322327","0.0-12.0-1.0-1.4","3E8BB96C7CCC43ADB08CD25CDDACE23E","3E8BB96C7CCC43ADB08CD25CDDACE23E","da5d16e8-cb0b-4957-95ef-c4b1fc1f512c","a0a8f18c-a66e-4ba7-a170-23efbdc67501","{""participantId"":""3E8BB96C7CCC43ADB08CD25CDDACE23E"",""assignmentId"":""da5d16e8-cb0b-4957-95ef-c4b1fc1f512c"",""projectId"":""a0a8f18c-a66e-4ba7-a170-23efbdc67501""}","https://test12345.live/?participantId=3E8BB96C7CCC43ADB08CD25CDDACE23E&assignmentId=da5d16e8-cb0b-4957-95ef-c4b1fc1f512c&projectId=a0a8f18c-a66e-4ba7-a170-23efbdc67501","3E8BB96C7CCC43ADB08CD25CDDACE23E-2024-11-24-17-41-06","","2732","","images/semantic_sequence/physical_activity_semantic/physical_activity_semantic_5.png","0","",""
"","","","","","image-button-response","71","324137","0.0-12.0-1.0-2.4","3E8BB96C7CCC43ADB08CD25CDDACE23E","3E8BB96C7CCC43ADB08CD25CDDACE23E","da5d16e8-cb0b-4957-95ef-c4b1fc1f512c","a0a8f18c-a66e-4ba7-a170-23efbdc67501","{""participantId"":""3E8BB96C7CCC43ADB08CD25CDDACE23E"",""assignmentId"":""da5d16e8-cb0b-4957-95ef-c4b1fc1f512c"",""projectId"":""a0a8f18c-a66e-4ba7-a170-23efbdc67501""}","https://test12345.live/?participantId=3E8BB96C7CCC43ADB08CD25CDDACE23E&assignmentId=da5d16e8-cb0b-4957-95ef-c4b1fc1f512c&projectId=a0a8f18c-a66e-4ba7-a170-23efbdc67501","3E8BB96C7CCC43ADB08CD25CDDACE23E-2024-11-24-17-41-06","","null","","[]","null","",""
"","","","","","image-button-response","72","328645","0.0-12.0-1.0-0.5","3E8BB96C7CCC43ADB08CD25CDDACE23E","3E8BB96C7CCC43ADB08CD25CDDACE23E","da5d16e8-cb0b-4957-95ef-c4b1fc1f512c","a0a8f18c-a66e-4ba7-a170-23efbdc67501","{""participantId"":""3E8BB96C7CCC43ADB08CD25CDDACE23E"",""assignmentId"":""da5d16e8-cb0b-4957-95ef-c4b1fc1f512c"",""projectId"":""a0a8f18c-a66e-4ba7-a170-23efbdc67501""}","https://test12345.live/?participantId=3E8BB96C7CCC43ADB08CD25CDDACE23E&assignmentId=da5d16e8-cb0b-4957-95ef-c4b1fc1f512c&projectId=a0a8f18c-a66e-4ba7-a170-23efbdc67501","3E8BB96C7CCC43ADB08CD25CDDACE23E-2024-11-24-17-41-06","","null","","images/semantic_sequence/physical_activity_semantic/physical_activity_semantic_6.png","null","",""
"","","","","","image-button-response","73","330391","0.0-12.0-1.0-1.5","3E8BB96C7CCC43ADB08CD25CDDACE23E","3E8BB96C7CCC43ADB08CD25CDDACE23E","da5d16e8-cb0b-4957-95ef-c4b1fc1f512c","a0a8f18c-a66e-4ba7-a170-23efbdc67501","{""participantId"":""3E8BB96C7CCC43ADB08CD25CDDACE23E"",""assignmentId"":""da5d16e8-cb0b-4957-95ef-c4b1fc1f512c"",""projectId"":""a0a8f18c-a66e-4ba7-a170-23efbdc67501""}","https://test12345.live/?participantId=3E8BB96C7CCC43ADB08CD25CDDACE23E&assignmentId=da5d16e8-cb0b-4957-95ef-c4b1fc1f512c&projectId=a0a8f18c-a66e-4ba7-a170-23efbdc67501","3E8BB96C7CCC43ADB08CD25CDDACE23E-2024-11-24-17-41-06","","1745","","images/semantic_sequence/physical_activity_semantic/physical_activity_semantic_6.png","0","",""
"","","","","","image-button-response","74","332198","0.0-12.0-1.0-2.5","3E8BB96C7CCC43ADB08CD25CDDACE23E","3E8BB96C7CCC43ADB08CD25CDDACE23E","da5d16e8-cb0b-4957-95ef-c4b1fc1f512c","a0a8f18c-a66e-4ba7-a170-23efbdc67501","{""participantId"":""3E8BB96C7CCC43ADB08CD25CDDACE23E"",""assignmentId"":""da5d16e8-cb0b-4957-95ef-c4b1fc1f512c"",""projectId"":""a0a8f18c-a66e-4ba7-a170-23efbdc67501""}","https://test12345.live/?participantId=3E8BB96C7CCC43ADB08CD25CDDACE23E&assignmentId=da5d16e8-cb0b-4957-95ef-c4b1fc1f512c&projectId=a0a8f18c-a66e-4ba7-a170-23efbdc67501","3E8BB96C7CCC43ADB08CD25CDDACE23E-2024-11-24-17-41-06","","null","","[]","null","",""
"","","","","","image-button-response","75","336703","0.0-12.0-1.0-0.6","3E8BB96C7CCC43ADB08CD25CDDACE23E","3E8BB96C7CCC43ADB08CD25CDDACE23E","da5d16e8-cb0b-4957-95ef-c4b1fc1f512c","a0a8f18c-a66e-4ba7-a170-23efbdc67501","{""participantId"":""3E8BB96C7CCC43ADB08CD25CDDACE23E"",""assignmentId"":""da5d16e8-cb0b-4957-95ef-c4b1fc1f512c"",""projectId"":""a0a8f18c-a66e-4ba7-a170-23efbdc67501""}","https://test12345.live/?participantId=3E8BB96C7CCC43ADB08CD25CDDACE23E&assignmentId=da5d16e8-cb0b-4957-95ef-c4b1fc1f512c&projectId=a0a8f18c-a66e-4ba7-a170-23efbdc67501","3E8BB96C7CCC43ADB08CD25CDDACE23E-2024-11-24-17-41-06","","null","","images/semantic_sequence/physical_activity_semantic/physical_activity_semantic_7.png","null","",""
"","","","","","image-button-response","76","338125","0.0-12.0-1.0-1.6","3E8BB96C7CCC43ADB08CD25CDDACE23E","3E8BB96C7CCC43ADB08CD25CDDACE23E","da5d16e8-cb0b-4957-95ef-c4b1fc1f512c","a0a8f18c-a66e-4ba7-a170-23efbdc67501","{""participantId"":""3E8BB96C7CCC43ADB08CD25CDDACE23E"",""assignmentId"":""da5d16e8-cb0b-4957-95ef-c4b1fc1f512c"",""projectId"":""a0a8f18c-a66e-4ba7-a170-23efbdc67501""}","https://test12345.live/?participantId=3E8BB96C7CCC43ADB08CD25CDDACE23E&assignmentId=da5d16e8-cb0b-4957-95ef-c4b1fc1f512c&projectId=a0a8f18c-a66e-4ba7-a170-23efbdc67501","3E8BB96C7CCC43ADB08CD25CDDACE23E-2024-11-24-17-41-06","","1422","","images/semantic_sequence/physical_activity_semantic/physical_activity_semantic_7.png","0","",""
"","","","","","image-button-response","77","339937","0.0-12.0-1.0-2.6","3E8BB96C7CCC43ADB08CD25CDDACE23E","3E8BB96C7CCC43ADB08CD25CDDACE23E","da5d16e8-cb0b-4957-95ef-c4b1fc1f512c","a0a8f18c-a66e-4ba7-a170-23efbdc67501","{""participantId"":""3E8BB96C7CCC43ADB08CD25CDDACE23E"",""assignmentId"":""da5d16e8-cb0b-4957-95ef-c4b1fc1f512c"",""projectId"":""a0a8f18c-a66e-4ba7-a170-23efbdc67501""}","https://test12345.live/?participantId=3E8BB96C7CCC43ADB08CD25CDDACE23E&assignmentId=da5d16e8-cb0b-4957-95ef-c4b1fc1f512c&projectId=a0a8f18c-a66e-4ba7-a170-23efbdc67501","3E8BB96C7CCC43ADB08CD25CDDACE23E-2024-11-24-17-41-06","","null","","[]","null","",""
"","","","","","image-button-response","78","344440","0.0-12.0-1.0-0.7","3E8BB96C7CCC43ADB08CD25CDDACE23E","3E8BB96C7CCC43ADB08CD25CDDACE23E","da5d16e8-cb0b-4957-95ef-c4b1fc1f512c","a0a8f18c-a66e-4ba7-a170-23efbdc67501","{""participantId"":""3E8BB96C7CCC43ADB08CD25CDDACE23E"",""assignmentId"":""da5d16e8-cb0b-4957-95ef-c4b1fc1f512c"",""projectId"":""a0a8f18c-a66e-4ba7-a170-23efbdc67501""}","https://test12345.live/?participantId=3E8BB96C7CCC43ADB08CD25CDDACE23E&assignmentId=da5d16e8-cb0b-4957-95ef-c4b1fc1f512c&projectId=a0a8f18c-a66e-4ba7-a170-23efbdc67501","3E8BB96C7CCC43ADB08CD25CDDACE23E-2024-11-24-17-41-06","","null","","images/semantic_sequence/physical_activity_semantic/physical_activity_semantic_8.png","null","",""
"","","","","","image-button-response","79","348377","0.0-12.0-1.0-1.7","3E8BB96C7CCC43ADB08CD25CDDACE23E","3E8BB96C7CCC43ADB08CD25CDDACE23E","da5d16e8-cb0b-4957-95ef-c4b1fc1f512c","a0a8f18c-a66e-4ba7-a170-23efbdc67501","{""participantId"":""3E8BB96C7CCC43ADB08CD25CDDACE23E"",""assignmentId"":""da5d16e8-cb0b-4957-95ef-c4b1fc1f512c"",""projectId"":""a0a8f18c-a66e-4ba7-a170-23efbdc67501""}","https://test12345.live/?participantId=3E8BB96C7CCC43ADB08CD25CDDACE23E&assignmentId=da5d16e8-cb0b-4957-95ef-c4b1fc1f512c&projectId=a0a8f18c-a66e-4ba7-a170-23efbdc67501","3E8BB96C7CCC43ADB08CD25CDDACE23E-2024-11-24-17-41-06","","3937","","images/semantic_sequence/physical_activity_semantic/physical_activity_semantic_8.png","0","",""
"","","","","","image-button-response","80","350182","0.0-12.0-1.0-2.7","3E8BB96C7CCC43ADB08CD25CDDACE23E","3E8BB96C7CCC43ADB08CD25CDDACE23E","da5d16e8-cb0b-4957-95ef-c4b1fc1f512c","a0a8f18c-a66e-4ba7-a170-23efbdc67501","{""participantId"":""3E8BB96C7CCC43ADB08CD25CDDACE23E"",""assignmentId"":""da5d16e8-cb0b-4957-95ef-c4b1fc1f512c"",""projectId"":""a0a8f18c-a66e-4ba7-a170-23efbdc67501""}","https://test12345.live/?participantId=3E8BB96C7CCC43ADB08CD25CDDACE23E&assignmentId=da5d16e8-cb0b-4957-95ef-c4b1fc1f512c&projectId=a0a8f18c-a66e-4ba7-a170-23efbdc67501","3E8BB96C7CCC43ADB08CD25CDDACE23E-2024-11-24-17-41-06","","null","","[]","null","",""
"","","","","","image-button-response","81","354691","0.0-12.0-1.0-0.8","3E8BB96C7CCC43ADB08CD25CDDACE23E","3E8BB96C7CCC43ADB08CD25CDDACE23E","da5d16e8-cb0b-4957-95ef-c4b1fc1f512c","a0a8f18c-a66e-4ba7-a170-23efbdc67501","{""participantId"":""3E8BB96C7CCC43ADB08CD25CDDACE23E"",""assignmentId"":""da5d16e8-cb0b-4957-95ef-c4b1fc1f512c"",""projectId"":""a0a8f18c-a66e-4ba7-a170-23efbdc67501""}","https://test12345.live/?participantId=3E8BB96C7CCC43ADB08CD25CDDACE23E&assignmentId=da5d16e8-cb0b-4957-95ef-c4b1fc1f512c&projectId=a0a8f18c-a66e-4ba7-a170-23efbdc67501","3E8BB96C7CCC43ADB08CD25CDDACE23E-2024-11-24-17-41-06","","null","","images/semantic_sequence/physical_activity_semantic/physical_activity_semantic_9.png","null","",""
"","","","","","image-button-response","82","356278","0.0-12.0-1.0-1.8","3E8BB96C7CCC43ADB08CD25CDDACE23E","3E8BB96C7CCC43ADB08CD25CDDACE23E","da5d16e8-cb0b-4957-95ef-c4b1fc1f512c","a0a8f18c-a66e-4ba7-a170-23efbdc67501","{""participantId"":""3E8BB96C7CCC43ADB08CD25CDDACE23E"",""assignmentId"":""da5d16e8-cb0b-4957-95ef-c4b1fc1f512c"",""projectId"":""a0a8f18c-a66e-4ba7-a170-23efbdc67501""}","https://test12345.live/?participantId=3E8BB96C7CCC43ADB08CD25CDDACE23E&assignmentId=da5d16e8-cb0b-4957-95ef-c4b1fc1f512c&projectId=a0a8f18c-a66e-4ba7-a170-23efbdc67501","3E8BB96C7CCC43ADB08CD25CDDACE23E-2024-11-24-17-41-06","","1586","","images/semantic_sequence/physical_activity_semantic/physical_activity_semantic_9.png","0","",""
"","","","","","image-button-response","83","358093","0.0-12.0-1.0-2.8","3E8BB96C7CCC43ADB08CD25CDDACE23E","3E8BB96C7CCC43ADB08CD25CDDACE23E","da5d16e8-cb0b-4957-95ef-c4b1fc1f512c","a0a8f18c-a66e-4ba7-a170-23efbdc67501","{""participantId"":""3E8BB96C7CCC43ADB08CD25CDDACE23E"",""assignmentId"":""da5d16e8-cb0b-4957-95ef-c4b1fc1f512c"",""projectId"":""a0a8f18c-a66e-4ba7-a170-23efbdc67501""}","https://test12345.live/?participantId=3E8BB96C7CCC43ADB08CD25CDDACE23E&assignmentId=da5d16e8-cb0b-4957-95ef-c4b1fc1f512c&projectId=a0a8f18c-a66e-4ba7-a170-23efbdc67501","3E8BB96C7CCC43ADB08CD25CDDACE23E-2024-11-24-17-41-06","","null","","[]","null","",""
"","","","","","image-button-response","84","362601","0.0-12.0-1.0-0.9","3E8BB96C7CCC43ADB08CD25CDDACE23E","3E8BB96C7CCC43ADB08CD25CDDACE23E","da5d16e8-cb0b-4957-95ef-c4b1fc1f512c","a0a8f18c-a66e-4ba7-a170-23efbdc67501","{""participantId"":""3E8BB96C7CCC43ADB08CD25CDDACE23E"",""assignmentId"":""da5d16e8-cb0b-4957-95ef-c4b1fc1f512c"",""projectId"":""a0a8f18c-a66e-4ba7-a170-23efbdc67501""}","https://test12345.live/?participantId=3E8BB96C7CCC43ADB08CD25CDDACE23E&assignmentId=da5d16e8-cb0b-4957-95ef-c4b1fc1f512c&projectId=a0a8f18c-a66e-4ba7-a170-23efbdc67501","3E8BB96C7CCC43ADB08CD25CDDACE23E-2024-11-24-17-41-06","","null","","images/semantic_sequence/physical_activity_semantic/physical_activity_semantic_ten.png","null","",""
"","","","","","image-button-response","85","363852","0.0-12.0-1.0-1.9","3E8BB96C7CCC43ADB08CD25CDDACE23E","3E8BB96C7CCC43ADB08CD25CDDACE23E","da5d16e8-cb0b-4957-95ef-c4b1fc1f512c","a0a8f18c-a66e-4ba7-a170-23efbdc67501","{""participantId"":""3E8BB96C7CCC43ADB08CD25CDDACE23E"",""assignmentId"":""da5d16e8-cb0b-4957-95ef-c4b1fc1f512c"",""projectId"":""a0a8f18c-a66e-4ba7-a170-23efbdc67501""}","https://test12345.live/?participantId=3E8BB96C7CCC43ADB08CD25CDDACE23E&assignmentId=da5d16e8-cb0b-4957-95ef-c4b1fc1f512c&projectId=a0a8f18c-a66e-4ba7-a170-23efbdc67501","3E8BB96C7CCC43ADB08CD25CDDACE23E-2024-11-24-17-41-06","","1251","","images/semantic_sequence/physical_activity_semantic/physical_activity_semantic_ten.png","0","",""
"","","","","","image-button-response","86","365658","0.0-12.0-1.0-2.9","3E8BB96C7CCC43ADB08CD25CDDACE23E","3E8BB96C7CCC43ADB08CD25CDDACE23E","da5d16e8-cb0b-4957-95ef-c4b1fc1f512c","a0a8f18c-a66e-4ba7-a170-23efbdc67501","{""participantId"":""3E8BB96C7CCC43ADB08CD25CDDACE23E"",""assignmentId"":""da5d16e8-cb0b-4957-95ef-c4b1fc1f512c"",""projectId"":""a0a8f18c-a66e-4ba7-a170-23efbdc67501""}","https://test12345.live/?participantId=3E8BB96C7CCC43ADB08CD25CDDACE23E&assignmentId=da5d16e8-cb0b-4957-95ef-c4b1fc1f512c&projectId=a0a8f18c-a66e-4ba7-a170-23efbdc67501","3E8BB96C7CCC43ADB08CD25CDDACE23E-2024-11-24-17-41-06","","null","","[]","null","",""
"","","","","","html-audio-response","87","391447","0.0-13.0","3E8BB96C7CCC43ADB08CD25CDDACE23E","3E8BB96C7CCC43ADB08CD25CDDACE23E","da5d16e8-cb0b-4957-95ef-c4b1fc1f512c","a0a8f18c-a66e-4ba7-a170-23efbdc67501","{""participantId"":""3E8BB96C7CCC43ADB08CD25CDDACE23E"",""assignmentId"":""da5d16e8-cb0b-4957-95ef-c4b1fc1f512c"",""projectId"":""a0a8f18c-a66e-4ba7-a170-23efbdc67501""}","https://test12345.live/?participantId=3E8BB96C7CCC43ADB08CD25CDDACE23E&assignmentId=da5d16e8-cb0b-4957-95ef-c4b1fc1f512c&projectId=a0a8f18c-a66e-4ba7-a170-23efbdc67501","3E8BB96C7CCC43ADB08CD25CDDACE23E-2024-11-24-17-41-06","","18963","","[""<span style=\""color: red; font-size: 24px\""> NOW RECORDING</span><p>Please say out loud all the images you saw, as many as you can remember. The images can be said in any order.</p>""]","","1","physical_activity_semantic"
"","","","","","image-button-response","88","397461","0.0-14.0-0.0","3E8BB96C7CCC43ADB08CD25CDDACE23E","3E8BB96C7CCC43ADB08CD25CDDACE23E","da5d16e8-cb0b-4957-95ef-c4b1fc1f512c","a0a8f18c-a66e-4ba7-a170-23efbdc67501","{""participantId"":""3E8BB96C7CCC43ADB08CD25CDDACE23E"",""assignmentId"":""da5d16e8-cb0b-4957-95ef-c4b1fc1f512c"",""projectId"":""a0a8f18c-a66e-4ba7-a170-23efbdc67501""}","https://test12345.live/?participantId=3E8BB96C7CCC43ADB08CD25CDDACE23E&assignmentId=da5d16e8-cb0b-4957-95ef-c4b1fc1f512c&projectId=a0a8f18c-a66e-4ba7-a170-23efbdc67501","3E8BB96C7CCC43ADB08CD25CDDACE23E-2024-11-24-17-41-06","","null","","images/schematic_sequence/flight_scheme/flight_scheme_0.png","null","",""
"","","","","","image-button-response","89","401969","0.0-14.0-1.0-0.0","3E8BB96C7CCC43ADB08CD25CDDACE23E","3E8BB96C7CCC43ADB08CD25CDDACE23E","da5d16e8-cb0b-4957-95ef-c4b1fc1f512c","a0a8f18c-a66e-4ba7-a170-23efbdc67501","{""participantId"":""3E8BB96C7CCC43ADB08CD25CDDACE23E"",""assignmentId"":""da5d16e8-cb0b-4957-95ef-c4b1fc1f512c"",""projectId"":""a0a8f18c-a66e-4ba7-a170-23efbdc67501""}","https://test12345.live/?participantId=3E8BB96C7CCC43ADB08CD25CDDACE23E&assignmentId=da5d16e8-cb0b-4957-95ef-c4b1fc1f512c&projectId=a0a8f18c-a66e-4ba7-a170-23efbdc67501","3E8BB96C7CCC43ADB08CD25CDDACE23E-2024-11-24-17-41-06","","null","","images/schematic_sequence/flight_scheme/flight_scheme_2.png","null","",""
"","","","","","image-button-response","90","403705","0.0-14.0-1.0-1.0","3E8BB96C7CCC43ADB08CD25CDDACE23E","3E8BB96C7CCC43ADB08CD25CDDACE23E","da5d16e8-cb0b-4957-95ef-c4b1fc1f512c","a0a8f18c-a66e-4ba7-a170-23efbdc67501","{""participantId"":""3E8BB96C7CCC43ADB08CD25CDDACE23E"",""assignmentId"":""da5d16e8-cb0b-4957-95ef-c4b1fc1f512c"",""projectId"":""a0a8f18c-a66e-4ba7-a170-23efbdc67501""}","https://test12345.live/?participantId=3E8BB96C7CCC43ADB08CD25CDDACE23E&assignmentId=da5d16e8-cb0b-4957-95ef-c4b1fc1f512c&projectId=a0a8f18c-a66e-4ba7-a170-23efbdc67501","3E8BB96C7CCC43ADB08CD25CDDACE23E-2024-11-24-17-41-06","","1735","","images/schematic_sequence/flight_scheme/flight_scheme_2.png","1","",""
"","","","","","image-button-response","91","405514","0.0-14.0-1.0-2.0","3E8BB96C7CCC43ADB08CD25CDDACE23E","3E8BB96C7CCC43ADB08CD25CDDACE23E","da5d16e8-cb0b-4957-95ef-c4b1fc1f512c","a0a8f18c-a66e-4ba7-a170-23efbdc67501","{""participantId"":""3E8BB96C7CCC43ADB08CD25CDDACE23E"",""assignmentId"":""da5d16e8-cb0b-4957-95ef-c4b1fc1f512c"",""projectId"":""a0a8f18c-a66e-4ba7-a170-23efbdc67501""}","https://test12345.live/?participantId=3E8BB96C7CCC43ADB08CD25CDDACE23E&assignmentId=da5d16e8-cb0b-4957-95ef-c4b1fc1f512c&projectId=a0a8f18c-a66e-4ba7-a170-23efbdc67501","3E8BB96C7CCC43ADB08CD25CDDACE23E-2024-11-24-17-41-06","","null","","[]","null","",""
"","","","","","image-button-response","92","410016","0.0-14.0-1.0-0.1","3E8BB96C7CCC43ADB08CD25CDDACE23E","3E8BB96C7CCC43ADB08CD25CDDACE23E","da5d16e8-cb0b-4957-95ef-c4b1fc1f512c","a0a8f18c-a66e-4ba7-a170-23efbdc67501","{""participantId"":""3E8BB96C7CCC43ADB08CD25CDDACE23E"",""assignmentId"":""da5d16e8-cb0b-4957-95ef-c4b1fc1f512c"",""projectId"":""a0a8f18c-a66e-4ba7-a170-23efbdc67501""}","https://test12345.live/?participantId=3E8BB96C7CCC43ADB08CD25CDDACE23E&assignmentId=da5d16e8-cb0b-4957-95ef-c4b1fc1f512c&projectId=a0a8f18c-a66e-4ba7-a170-23efbdc67501","3E8BB96C7CCC43ADB08CD25CDDACE23E-2024-11-24-17-41-06","","null","","images/schematic_sequence/flight_scheme/flight_scheme_ten.png","null","",""
"","","","","","image-button-response","93","411122","0.0-14.0-1.0-1.1","3E8BB96C7CCC43ADB08CD25CDDACE23E","3E8BB96C7CCC43ADB08CD25CDDACE23E","da5d16e8-cb0b-4957-95ef-c4b1fc1f512c","a0a8f18c-a66e-4ba7-a170-23efbdc67501","{""participantId"":""3E8BB96C7CCC43ADB08CD25CDDACE23E"",""assignmentId"":""da5d16e8-cb0b-4957-95ef-c4b1fc1f512c"",""projectId"":""a0a8f18c-a66e-4ba7-a170-23efbdc67501""}","https://test12345.live/?participantId=3E8BB96C7CCC43ADB08CD25CDDACE23E&assignmentId=da5d16e8-cb0b-4957-95ef-c4b1fc1f512c&projectId=a0a8f18c-a66e-4ba7-a170-23efbdc67501","3E8BB96C7CCC43ADB08CD25CDDACE23E-2024-11-24-17-41-06","","1106","","images/schematic_sequence/flight_scheme/flight_scheme_ten.png","0","",""
"","","","","","image-button-response","94","412931","0.0-14.0-1.0-2.1","3E8BB96C7CCC43ADB08CD25CDDACE23E","3E8BB96C7CCC43ADB08CD25CDDACE23E","da5d16e8-cb0b-4957-95ef-c4b1fc1f512c","a0a8f18c-a66e-4ba7-a170-23efbdc67501","{""participantId"":""3E8BB96C7CCC43ADB08CD25CDDACE23E"",""assignmentId"":""da5d16e8-cb0b-4957-95ef-c4b1fc1f512c"",""projectId"":""a0a8f18c-a66e-4ba7-a170-23efbdc67501""}","https://test12345.live/?participantId=3E8BB96C7CCC43ADB08CD25CDDACE23E&assignmentId=da5d16e8-cb0b-4957-95ef-c4b1fc1f512c&projectId=a0a8f18c-a66e-4ba7-a170-23efbdc67501","3E8BB96C7CCC43ADB08CD25CDDACE23E-2024-11-24-17-41-06","","null","","[]","null","",""
"","","","","","image-button-response","95","417432","0.0-14.0-1.0-0.2","3E8BB96C7CCC43ADB08CD25CDDACE23E","3E8BB96C7CCC43ADB08CD25CDDACE23E","da5d16e8-cb0b-4957-95ef-c4b1fc1f512c","a0a8f18c-a66e-4ba7-a170-23efbdc67501","{""participantId"":""3E8BB96C7CCC43ADB08CD25CDDACE23E"",""assignmentId"":""da5d16e8-cb0b-4957-95ef-c4b1fc1f512c"",""projectId"":""a0a8f18c-a66e-4ba7-a170-23efbdc67501""}","https://test12345.live/?participantId=3E8BB96C7CCC43ADB08CD25CDDACE23E&assignmentId=da5d16e8-cb0b-4957-95ef-c4b1fc1f512c&projectId=a0a8f18c-a66e-4ba7-a170-23efbdc67501","3E8BB96C7CCC43ADB08CD25CDDACE23E-2024-11-24-17-41-06","","null","","images/schematic_sequence/flight_scheme/flight_scheme_6.png","null","",""
"","","","","","image-button-response","96","418559","0.0-14.0-1.0-1.2","3E8BB96C7CCC43ADB08CD25CDDACE23E","3E8BB96C7CCC43ADB08CD25CDDACE23E","da5d16e8-cb0b-4957-95ef-c4b1fc1f512c","a0a8f18c-a66e-4ba7-a170-23efbdc67501","{""participantId"":""3E8BB96C7CCC43ADB08CD25CDDACE23E"",""assignmentId"":""da5d16e8-cb0b-4957-95ef-c4b1fc1f512c"",""projectId"":""a0a8f18c-a66e-4ba7-a170-23efbdc67501""}","https://test12345.live/?participantId=3E8BB96C7CCC43ADB08CD25CDDACE23E&assignmentId=da5d16e8-cb0b-4957-95ef-c4b1fc1f512c&projectId=a0a8f18c-a66e-4ba7-a170-23efbdc67501","3E8BB96C7CCC43ADB08CD25CDDACE23E-2024-11-24-17-41-06","","1126","","images/schematic_sequence/flight_scheme/flight_scheme_6.png","1","",""
"","","","","","image-button-response","97","420365","0.0-14.0-1.0-2.2","3E8BB96C7CCC43ADB08CD25CDDACE23E","3E8BB96C7CCC43ADB08CD25CDDACE23E","da5d16e8-cb0b-4957-95ef-c4b1fc1f512c","a0a8f18c-a66e-4ba7-a170-23efbdc67501","{""participantId"":""3E8BB96C7CCC43ADB08CD25CDDACE23E"",""assignmentId"":""da5d16e8-cb0b-4957-95ef-c4b1fc1f512c"",""projectId"":""a0a8f18c-a66e-4ba7-a170-23efbdc67501""}","https://test12345.live/?participantId=3E8BB96C7CCC43ADB08CD25CDDACE23E&assignmentId=da5d16e8-cb0b-4957-95ef-c4b1fc1f512c&projectId=a0a8f18c-a66e-4ba7-a170-23efbdc67501","3E8BB96C7CCC43ADB08CD25CDDACE23E-2024-11-24-17-41-06","","null","","[]","null","",""
"","","","","","image-button-response","98","424869","0.0-14.0-1.0-0.3","3E8BB96C7CCC43ADB08CD25CDDACE23E","3E8BB96C7CCC43ADB08CD25CDDACE23E","da5d16e8-cb0b-4957-95ef-c4b1fc1f512c","a0a8f18c-a66e-4ba7-a170-23efbdc67501","{""participantId"":""3E8BB96C7CCC43ADB08CD25CDDACE23E"",""assignmentId"":""da5d16e8-cb0b-4957-95ef-c4b1fc1f512c"",""projectId"":""a0a8f18c-a66e-4ba7-a170-23efbdc67501""}","https://test12345.live/?participantId=3E8BB96C7CCC43ADB08CD25CDDACE23E&assignmentId=da5d16e8-cb0b-4957-95ef-c4b1fc1f512c&projectId=a0a8f18c-a66e-4ba7-a170-23efbdc67501","3E8BB96C7CCC43ADB08CD25CDDACE23E-2024-11-24-17-41-06","","null","","images/schematic_sequence/flight_scheme/flight_scheme_9.png","null","",""
"","","","","","image-button-response","99","425871","0.0-14.0-1.0-1.3","3E8BB96C7CCC43ADB08CD25CDDACE23E","3E8BB96C7CCC43ADB08CD25CDDACE23E","da5d16e8-cb0b-4957-95ef-c4b1fc1f512c","a0a8f18c-a66e-4ba7-a170-23efbdc67501","{""participantId"":""3E8BB96C7CCC43ADB08CD25CDDACE23E"",""assignmentId"":""da5d16e8-cb0b-4957-95ef-c4b1fc1f512c"",""projectId"":""a0a8f18c-a66e-4ba7-a170-23efbdc67501""}","https://test12345.live/?participantId=3E8BB96C7CCC43ADB08CD25CDDACE23E&assignmentId=da5d16e8-cb0b-4957-95ef-c4b1fc1f512c&projectId=a0a8f18c-a66e-4ba7-a170-23efbdc67501","3E8BB96C7CCC43ADB08CD25CDDACE23E-2024-11-24-17-41-06","","1001","","images/schematic_sequence/flight_scheme/flight_scheme_9.png","0","",""
"","","","","","image-button-response","100","427681","0.0-14.0-1.0-2.3","3E8BB96C7CCC43ADB08CD25CDDACE23E","3E8BB96C7CCC43ADB08CD25CDDACE23E","da5d16e8-cb0b-4957-95ef-c4b1fc1f512c","a0a8f18c-a66e-4ba7-a170-23efbdc67501","{""participantId"":""3E8BB96C7CCC43ADB08CD25CDDACE23E"",""assignmentId"":""da5d16e8-cb0b-4957-95ef-c4b1fc1f512c"",""projectId"":""a0a8f18c-a66e-4ba7-a170-23efbdc67501""}","https://test12345.live/?participantId=3E8BB96C7CCC43ADB08CD25CDDACE23E&assignmentId=da5d16e8-cb0b-4957-95ef-c4b1fc1f512c&projectId=a0a8f18c-a66e-4ba7-a170-23efbdc67501","3E8BB96C7CCC43ADB08CD25CDDACE23E-2024-11-24-17-41-06","","null","","[]","null","",""
"","","","","","image-button-response","101","432193","0.0-14.0-1.0-0.4","3E8BB96C7CCC43ADB08CD25CDDACE23E","3E8BB96C7CCC43ADB08CD25CDDACE23E","da5d16e8-cb0b-4957-95ef-c4b1fc1f512c","a0a8f18c-a66e-4ba7-a170-23efbdc67501","{""participantId"":""3E8BB96C7CCC43ADB08CD25CDDACE23E"",""assignmentId"":""da5d16e8-cb0b-4957-95ef-c4b1fc1f512c"",""projectId"":""a0a8f18c-a66e-4ba7-a170-23efbdc67501""}","https://test12345.live/?participantId=3E8BB96C7CCC43ADB08CD25CDDACE23E&assignmentId=da5d16e8-cb0b-4957-95ef-c4b1fc1f512c&projectId=a0a8f18c-a66e-4ba7-a170-23efbdc67501","3E8BB96C7CCC43ADB08CD25CDDACE23E-2024-11-24-17-41-06","","null","","images/schematic_sequence/flight_scheme/flight_scheme_7.png","null","",""
"","","","","","image-button-response","102","433133","0.0-14.0-1.0-1.4","3E8BB96C7CCC43ADB08CD25CDDACE23E","3E8BB96C7CCC43ADB08CD25CDDACE23E","da5d16e8-cb0b-4957-95ef-c4b1fc1f512c","a0a8f18c-a66e-4ba7-a170-23efbdc67501","{""participantId"":""3E8BB96C7CCC43ADB08CD25CDDACE23E"",""assignmentId"":""da5d16e8-cb0b-4957-95ef-c4b1fc1f512c"",""projectId"":""a0a8f18c-a66e-4ba7-a170-23efbdc67501""}","https://test12345.live/?participantId=3E8BB96C7CCC43ADB08CD25CDDACE23E&assignmentId=da5d16e8-cb0b-4957-95ef-c4b1fc1f512c&projectId=a0a8f18c-a66e-4ba7-a170-23efbdc67501","3E8BB96C7CCC43ADB08CD25CDDACE23E-2024-11-24-17-41-06","","940","","images/schematic_sequence/flight_scheme/flight_scheme_7.png","1","",""
"","","","","","image-button-response","103","434936","0.0-14.0-1.0-2.4","3E8BB96C7CCC43ADB08CD25CDDACE23E","3E8BB96C7CCC43ADB08CD25CDDACE23E","da5d16e8-cb0b-4957-95ef-c4b1fc1f512c","a0a8f18c-a66e-4ba7-a170-23efbdc67501","{""participantId"":""3E8BB96C7CCC43ADB08CD25CDDACE23E"",""assignmentId"":""da5d16e8-cb0b-4957-95ef-c4b1fc1f512c"",""projectId"":""a0a8f18c-a66e-4ba7-a170-23efbdc67501""}","https://test12345.live/?participantId=3E8BB96C7CCC43ADB08CD25CDDACE23E&assignmentId=da5d16e8-cb0b-4957-95ef-c4b1fc1f512c&projectId=a0a8f18c-a66e-4ba7-a170-23efbdc67501","3E8BB96C7CCC43ADB08CD25CDDACE23E-2024-11-24-17-41-06","","null","","[]","null","",""
"","","","","","image-button-response","104","439440","0.0-14.0-1.0-0.5","3E8BB96C7CCC43ADB08CD25CDDACE23E","3E8BB96C7CCC43ADB08CD25CDDACE23E","da5d16e8-cb0b-4957-95ef-c4b1fc1f512c","a0a8f18c-a66e-4ba7-a170-23efbdc67501","{""participantId"":""3E8BB96C7CCC43ADB08CD25CDDACE23E"",""assignmentId"":""da5d16e8-cb0b-4957-95ef-c4b1fc1f512c"",""projectId"":""a0a8f18c-a66e-4ba7-a170-23efbdc67501""}","https://test12345.live/?participantId=3E8BB96C7CCC43ADB08CD25CDDACE23E&assignmentId=da5d16e8-cb0b-4957-95ef-c4b1fc1f512c&projectId=a0a8f18c-a66e-4ba7-a170-23efbdc67501","3E8BB96C7CCC43ADB08CD25CDDACE23E-2024-11-24-17-41-06","","null","","images/schematic_sequence/flight_scheme/flight_scheme_8.png","null","",""
"","","","","","image-button-response","105","439908","0.0-14.0-1.0-1.5","3E8BB96C7CCC43ADB08CD25CDDACE23E","3E8BB96C7CCC43ADB08CD25CDDACE23E","da5d16e8-cb0b-4957-95ef-c4b1fc1f512c","a0a8f18c-a66e-4ba7-a170-23efbdc67501","{""participantId"":""3E8BB96C7CCC43ADB08CD25CDDACE23E"",""assignmentId"":""da5d16e8-cb0b-4957-95ef-c4b1fc1f512c"",""projectId"":""a0a8f18c-a66e-4ba7-a170-23efbdc67501""}","https://test12345.live/?participantId=3E8BB96C7CCC43ADB08CD25CDDACE23E&assignmentId=da5d16e8-cb0b-4957-95ef-c4b1fc1f512c&projectId=a0a8f18c-a66e-4ba7-a170-23efbdc67501","3E8BB96C7CCC43ADB08CD25CDDACE23E-2024-11-24-17-41-06","","468","","images/schematic_sequence/flight_scheme/flight_scheme_8.png","1","",""
"","","","","","image-button-response","106","441724","0.0-14.0-1.0-2.5","3E8BB96C7CCC43ADB08CD25CDDACE23E","3E8BB96C7CCC43ADB08CD25CDDACE23E","da5d16e8-cb0b-4957-95ef-c4b1fc1f512c","a0a8f18c-a66e-4ba7-a170-23efbdc67501","{""participantId"":""3E8BB96C7CCC43ADB08CD25CDDACE23E"",""assignmentId"":""da5d16e8-cb0b-4957-95ef-c4b1fc1f512c"",""projectId"":""a0a8f18c-a66e-4ba7-a170-23efbdc67501""}","https://test12345.live/?participantId=3E8BB96C7CCC43ADB08CD25CDDACE23E&assignmentId=da5d16e8-cb0b-4957-95ef-c4b1fc1f512c&projectId=a0a8f18c-a66e-4ba7-a170-23efbdc67501","3E8BB96C7CCC43ADB08CD25CDDACE23E-2024-11-24-17-41-06","","null","","[]","null","",""
"","","","","","image-button-response","107","446232","0.0-14.0-1.0-0.6","3E8BB96C7CCC43ADB08CD25CDDACE23E","3E8BB96C7CCC43ADB08CD25CDDACE23E","da5d16e8-cb0b-4957-95ef-c4b1fc1f512c","a0a8f18c-a66e-4ba7-a170-23efbdc67501","{""participantId"":""3E8BB96C7CCC43ADB08CD25CDDACE23E"",""assignmentId"":""da5d16e8-cb0b-4957-95ef-c4b1fc1f512c"",""projectId"":""a0a8f18c-a66e-4ba7-a170-23efbdc67501""}","https://test12345.live/?participantId=3E8BB96C7CCC43ADB08CD25CDDACE23E&assignmentId=da5d16e8-cb0b-4957-95ef-c4b1fc1f512c&projectId=a0a8f18c-a66e-4ba7-a170-23efbdc67501","3E8BB96C7CCC43ADB08CD25CDDACE23E-2024-11-24-17-41-06","","null","","images/schematic_sequence/flight_scheme/flight_scheme_4.png","null","",""
"","","","","","image-button-response","108","447113","0.0-14.0-1.0-1.6","3E8BB96C7CCC43ADB08CD25CDDACE23E","3E8BB96C7CCC43ADB08CD25CDDACE23E","da5d16e8-cb0b-4957-95ef-c4b1fc1f512c","a0a8f18c-a66e-4ba7-a170-23efbdc67501","{""participantId"":""3E8BB96C7CCC43ADB08CD25CDDACE23E"",""assignmentId"":""da5d16e8-cb0b-4957-95ef-c4b1fc1f512c"",""projectId"":""a0a8f18c-a66e-4ba7-a170-23efbdc67501""}","https://test12345.live/?participantId=3E8BB96C7CCC43ADB08CD25CDDACE23E&assignmentId=da5d16e8-cb0b-4957-95ef-c4b1fc1f512c&projectId=a0a8f18c-a66e-4ba7-a170-23efbdc67501","3E8BB96C7CCC43ADB08CD25CDDACE23E-2024-11-24-17-41-06","","881","","images/schematic_sequence/flight_scheme/flight_scheme_4.png","0","",""
"","","","","","image-button-response","109","448926","0.0-14.0-1.0-2.6","3E8BB96C7CCC43ADB08CD25CDDACE23E","3E8BB96C7CCC43ADB08CD25CDDACE23E","da5d16e8-cb0b-4957-95ef-c4b1fc1f512c","a0a8f18c-a66e-4ba7-a170-23efbdc67501","{""participantId"":""3E8BB96C7CCC43ADB08CD25CDDACE23E"",""assignmentId"":""da5d16e8-cb0b-4957-95ef-c4b1fc1f512c"",""projectId"":""a0a8f18c-a66e-4ba7-a170-23efbdc67501""}","https://test12345.live/?participantId=3E8BB96C7CCC43ADB08CD25CDDACE23E&assignmentId=da5d16e8-cb0b-4957-95ef-c4b1fc1f512c&projectId=a0a8f18c-a66e-4ba7-a170-23efbdc67501","3E8BB96C7CCC43ADB08CD25CDDACE23E-2024-11-24-17-41-06","","null","","[]","null","",""
"","","","","","image-button-response","110","453433","0.0-14.0-1.0-0.7","3E8BB96C7CCC43ADB08CD25CDDACE23E","3E8BB96C7CCC43ADB08CD25CDDACE23E","da5d16e8-cb0b-4957-95ef-c4b1fc1f512c","a0a8f18c-a66e-4ba7-a170-23efbdc67501","{""participantId"":""3E8BB96C7CCC43ADB08CD25CDDACE23E"",""assignmentId"":""da5d16e8-cb0b-4957-95ef-c4b1fc1f512c"",""projectId"":""a0a8f18c-a66e-4ba7-a170-23efbdc67501""}","https://test12345.live/?participantId=3E8BB96C7CCC43ADB08CD25CDDACE23E&assignmentId=da5d16e8-cb0b-4957-95ef-c4b1fc1f512c&projectId=a0a8f18c-a66e-4ba7-a170-23efbdc67501","3E8BB96C7CCC43ADB08CD25CDDACE23E-2024-11-24-17-41-06","","null","","images/schematic_sequence/flight_scheme/flight_scheme_3.png","null","",""
"","","","","","image-button-response","111","454974","0.0-14.0-1.0-1.7","3E8BB96C7CCC43ADB08CD25CDDACE23E","3E8BB96C7CCC43ADB08CD25CDDACE23E","da5d16e8-cb0b-4957-95ef-c4b1fc1f512c","a0a8f18c-a66e-4ba7-a170-23efbdc67501","{""participantId"":""3E8BB96C7CCC43ADB08CD25CDDACE23E"",""assignmentId"":""da5d16e8-cb0b-4957-95ef-c4b1fc1f512c"",""projectId"":""a0a8f18c-a66e-4ba7-a170-23efbdc67501""}","https://test12345.live/?participantId=3E8BB96C7CCC43ADB08CD25CDDACE23E&assignmentId=da5d16e8-cb0b-4957-95ef-c4b1fc1f512c&projectId=a0a8f18c-a66e-4ba7-a170-23efbdc67501","3E8BB96C7CCC43ADB08CD25CDDACE23E-2024-11-24-17-41-06","","1540","","images/schematic_sequence/flight_scheme/flight_scheme_3.png","0","",""
"","","","","","image-button-response","112","456789","0.0-14.0-1.0-2.7","3E8BB96C7CCC43ADB08CD25CDDACE23E","3E8BB96C7CCC43ADB08CD25CDDACE23E","da5d16e8-cb0b-4957-95ef-c4b1fc1f512c","a0a8f18c-a66e-4ba7-a170-23efbdc67501","{""participantId"":""3E8BB96C7CCC43ADB08CD25CDDACE23E"",""assignmentId"":""da5d16e8-cb0b-4957-95ef-c4b1fc1f512c"",""projectId"":""a0a8f18c-a66e-4ba7-a170-23efbdc67501""}","https://test12345.live/?participantId=3E8BB96C7CCC43ADB08CD25CDDACE23E&assignmentId=da5d16e8-cb0b-4957-95ef-c4b1fc1f512c&projectId=a0a8f18c-a66e-4ba7-a170-23efbdc67501","3E8BB96C7CCC43ADB08CD25CDDACE23E-2024-11-24-17-41-06","","null","","[]","null","",""
"","","","","","image-button-response","113","461290","0.0-14.0-1.0-0.8","3E8BB96C7CCC43ADB08CD25CDDACE23E","3E8BB96C7CCC43ADB08CD25CDDACE23E","da5d16e8-cb0b-4957-95ef-c4b1fc1f512c","a0a8f18c-a66e-4ba7-a170-23efbdc67501","{""participantId"":""3E8BB96C7CCC43ADB08CD25CDDACE23E"",""assignmentId"":""da5d16e8-cb0b-4957-95ef-c4b1fc1f512c"",""projectId"":""a0a8f18c-a66e-4ba7-a170-23efbdc67501""}","https://test12345.live/?participantId=3E8BB96C7CCC43ADB08CD25CDDACE23E&assignmentId=da5d16e8-cb0b-4957-95ef-c4b1fc1f512c&projectId=a0a8f18c-a66e-4ba7-a170-23efbdc67501","3E8BB96C7CCC43ADB08CD25CDDACE23E-2024-11-24-17-41-06","","null","","images/schematic_sequence/flight_scheme/flight_scheme_1.png","null","",""
"","","","","","image-button-response","114","463764","0.0-14.0-1.0-1.8","3E8BB96C7CCC43ADB08CD25CDDACE23E","3E8BB96C7CCC43ADB08CD25CDDACE23E","da5d16e8-cb0b-4957-95ef-c4b1fc1f512c","a0a8f18c-a66e-4ba7-a170-23efbdc67501","{""participantId"":""3E8BB96C7CCC43ADB08CD25CDDACE23E"",""assignmentId"":""da5d16e8-cb0b-4957-95ef-c4b1fc1f512c"",""projectId"":""a0a8f18c-a66e-4ba7-a170-23efbdc67501""}","https://test12345.live/?participantId=3E8BB96C7CCC43ADB08CD25CDDACE23E&assignmentId=da5d16e8-cb0b-4957-95ef-c4b1fc1f512c&projectId=a0a8f18c-a66e-4ba7-a170-23efbdc67501","3E8BB96C7CCC43ADB08CD25CDDACE23E-2024-11-24-17-41-06","","2473","","images/schematic_sequence/flight_scheme/flight_scheme_1.png","0","",""
"","","","","","image-button-response","115","465564","0.0-14.0-1.0-2.8","3E8BB96C7CCC43ADB08CD25CDDACE23E","3E8BB96C7CCC43ADB08CD25CDDACE23E","da5d16e8-cb0b-4957-95ef-c4b1fc1f512c","a0a8f18c-a66e-4ba7-a170-23efbdc67501","{""participantId"":""3E8BB96C7CCC43ADB08CD25CDDACE23E"",""assignmentId"":""da5d16e8-cb0b-4957-95ef-c4b1fc1f512c"",""projectId"":""a0a8f18c-a66e-4ba7-a170-23efbdc67501""}","https://test12345.live/?participantId=3E8BB96C7CCC43ADB08CD25CDDACE23E&assignmentId=da5d16e8-cb0b-4957-95ef-c4b1fc1f512c&projectId=a0a8f18c-a66e-4ba7-a170-23efbdc67501","3E8BB96C7CCC43ADB08CD25CDDACE23E-2024-11-24-17-41-06","","null","","[]","null","",""
"","","","","","image-button-response","116","470073","0.0-14.0-1.0-0.9","3E8BB96C7CCC43ADB08CD25CDDACE23E","3E8BB96C7CCC43ADB08CD25CDDACE23E","da5d16e8-cb0b-4957-95ef-c4b1fc1f512c","a0a8f18c-a66e-4ba7-a170-23efbdc67501","{""participantId"":""3E8BB96C7CCC43ADB08CD25CDDACE23E"",""assignmentId"":""da5d16e8-cb0b-4957-95ef-c4b1fc1f512c"",""projectId"":""a0a8f18c-a66e-4ba7-a170-23efbdc67501""}","https://test12345.live/?participantId=3E8BB96C7CCC43ADB08CD25CDDACE23E&assignmentId=da5d16e8-cb0b-4957-95ef-c4b1fc1f512c&projectId=a0a8f18c-a66e-4ba7-a170-23efbdc67501","3E8BB96C7CCC43ADB08CD25CDDACE23E-2024-11-24-17-41-06","","null","","images/schematic_sequence/flight_scheme/flight_scheme_5.png","null","",""
"","","","","","image-button-response","117","471482","0.0-14.0-1.0-1.9","3E8BB96C7CCC43ADB08CD25CDDACE23E","3E8BB96C7CCC43ADB08CD25CDDACE23E","da5d16e8-cb0b-4957-95ef-c4b1fc1f512c","a0a8f18c-a66e-4ba7-a170-23efbdc67501","{""participantId"":""3E8BB96C7CCC43ADB08CD25CDDACE23E"",""assignmentId"":""da5d16e8-cb0b-4957-95ef-c4b1fc1f512c"",""projectId"":""a0a8f18c-a66e-4ba7-a170-23efbdc67501""}","https://test12345.live/?participantId=3E8BB96C7CCC43ADB08CD25CDDACE23E&assignmentId=da5d16e8-cb0b-4957-95ef-c4b1fc1f512c&projectId=a0a8f18c-a66e-4ba7-a170-23efbdc67501","3E8BB96C7CCC43ADB08CD25CDDACE23E-2024-11-24-17-41-06","","1409","","images/schematic_sequence/flight_scheme/flight_scheme_5.png","0","",""
"","","","","","image-button-response","118","473289","0.0-14.0-1.0-2.9","3E8BB96C7CCC43ADB08CD25CDDACE23E","3E8BB96C7CCC43ADB08CD25CDDACE23E","da5d16e8-cb0b-4957-95ef-c4b1fc1f512c","a0a8f18c-a66e-4ba7-a170-23efbdc67501","{""participantId"":""3E8BB96C7CCC43ADB08CD25CDDACE23E"",""assignmentId"":""da5d16e8-cb0b-4957-95ef-c4b1fc1f512c"",""projectId"":""a0a8f18c-a66e-4ba7-a170-23efbdc67501""}","https://test12345.live/?participantId=3E8BB96C7CCC43ADB08CD25CDDACE23E&assignmentId=da5d16e8-cb0b-4957-95ef-c4b1fc1f512c&projectId=a0a8f18c-a66e-4ba7-a170-23efbdc67501","3E8BB96C7CCC43ADB08CD25CDDACE23E-2024-11-24-17-41-06","","null","","[]","null","",""
"","","","","","html-audio-response","119","496921","0.0-15.0","3E8BB96C7CCC43ADB08CD25CDDACE23E","3E8BB96C7CCC43ADB08CD25CDDACE23E","da5d16e8-cb0b-4957-95ef-c4b1fc1f512c","a0a8f18c-a66e-4ba7-a170-23efbdc67501","{""participantId"":""3E8BB96C7CCC43ADB08CD25CDDACE23E"",""assignmentId"":""da5d16e8-cb0b-4957-95ef-c4b1fc1f512c"",""projectId"":""a0a8f18c-a66e-4ba7-a170-23efbdc67501""}","https://test12345.live/?participantId=3E8BB96C7CCC43ADB08CD25CDDACE23E&assignmentId=da5d16e8-cb0b-4957-95ef-c4b1fc1f512c&projectId=a0a8f18c-a66e-4ba7-a170-23efbdc67501","3E8BB96C7CCC43ADB08CD25CDDACE23E-2024-11-24-17-41-06","","22234","","[""<span style=\""color: red; font-size: 24px\""> NOW RECORDING</span><p>Please say out loud all the images you saw, as many as you can remember. The images can be said in any order.</p>""]","","1","flight_scheme"
"","","","","","image-button-response","120","502936","0.0-16.0-0.0","3E8BB96C7CCC43ADB08CD25CDDACE23E","3E8BB96C7CCC43ADB08CD25CDDACE23E","da5d16e8-cb0b-4957-95ef-c4b1fc1f512c","a0a8f18c-a66e-4ba7-a170-23efbdc67501","{""participantId"":""3E8BB96C7CCC43ADB08CD25CDDACE23E"",""assignmentId"":""da5d16e8-cb0b-4957-95ef-c4b1fc1f512c"",""projectId"":""a0a8f18c-a66e-4ba7-a170-23efbdc67501""}","https://test12345.live/?participantId=3E8BB96C7CCC43ADB08CD25CDDACE23E&assignmentId=da5d16e8-cb0b-4957-95ef-c4b1fc1f512c&projectId=a0a8f18c-a66e-4ba7-a170-23efbdc67501","3E8BB96C7CCC43ADB08CD25CDDACE23E-2024-11-24-17-41-06","","null","","images/causal_sequence/dog_causal/dog_causal_0.png","null","",""
"","","","","","image-button-response","121","507440","0.0-16.0-1.0-0.0","3E8BB96C7CCC43ADB08CD25CDDACE23E","3E8BB96C7CCC43ADB08CD25CDDACE23E","da5d16e8-cb0b-4957-95ef-c4b1fc1f512c","a0a8f18c-a66e-4ba7-a170-23efbdc67501","{""participantId"":""3E8BB96C7CCC43ADB08CD25CDDACE23E"",""assignmentId"":""da5d16e8-cb0b-4957-95ef-c4b1fc1f512c"",""projectId"":""a0a8f18c-a66e-4ba7-a170-23efbdc67501""}","https://test12345.live/?participantId=3E8BB96C7CCC43ADB08CD25CDDACE23E&assignmentId=da5d16e8-cb0b-4957-95ef-c4b1fc1f512c&projectId=a0a8f18c-a66e-4ba7-a170-23efbdc67501","3E8BB96C7CCC43ADB08CD25CDDACE23E-2024-11-24-17-41-06","","null","","images/causal_sequence/dog_causal/dog_causal_1.png","null","",""
"","","","","","image-button-response","122","509498","0.0-16.0-1.0-1.0","3E8BB96C7CCC43ADB08CD25CDDACE23E","3E8BB96C7CCC43ADB08CD25CDDACE23E","da5d16e8-cb0b-4957-95ef-c4b1fc1f512c","a0a8f18c-a66e-4ba7-a170-23efbdc67501","{""participantId"":""3E8BB96C7CCC43ADB08CD25CDDACE23E"",""assignmentId"":""da5d16e8-cb0b-4957-95ef-c4b1fc1f512c"",""projectId"":""a0a8f18c-a66e-4ba7-a170-23efbdc67501""}","https://test12345.live/?participantId=3E8BB96C7CCC43ADB08CD25CDDACE23E&assignmentId=da5d16e8-cb0b-4957-95ef-c4b1fc1f512c&projectId=a0a8f18c-a66e-4ba7-a170-23efbdc67501","3E8BB96C7CCC43ADB08CD25CDDACE23E-2024-11-24-17-41-06","","2057","","images/causal_sequence/dog_causal/dog_causal_1.png","0","",""
"","","","","","image-button-response","123","511311","0.0-16.0-1.0-2.0","3E8BB96C7CCC43ADB08CD25CDDACE23E","3E8BB96C7CCC43ADB08CD25CDDACE23E","da5d16e8-cb0b-4957-95ef-c4b1fc1f512c","a0a8f18c-a66e-4ba7-a170-23efbdc67501","{""participantId"":""3E8BB96C7CCC43ADB08CD25CDDACE23E"",""assignmentId"":""da5d16e8-cb0b-4957-95ef-c4b1fc1f512c"",""projectId"":""a0a8f18c-a66e-4ba7-a170-23efbdc67501""}","https://test12345.live/?participantId=3E8BB96C7CCC43ADB08CD25CDDACE23E&assignmentId=da5d16e8-cb0b-4957-95ef-c4b1fc1f512c&projectId=a0a8f18c-a66e-4ba7-a170-23efbdc67501","3E8BB96C7CCC43ADB08CD25CDDACE23E-2024-11-24-17-41-06","","null","","[]","null","",""
"","","","","","image-button-response","124","515821","0.0-16.0-1.0-0.1","3E8BB96C7CCC43ADB08CD25CDDACE23E","3E8BB96C7CCC43ADB08CD25CDDACE23E","da5d16e8-cb0b-4957-95ef-c4b1fc1f512c","a0a8f18c-a66e-4ba7-a170-23efbdc67501","{""participantId"":""3E8BB96C7CCC43ADB08CD25CDDACE23E"",""assignmentId"":""da5d16e8-cb0b-4957-95ef-c4b1fc1f512c"",""projectId"":""a0a8f18c-a66e-4ba7-a170-23efbdc67501""}","https://test12345.live/?participantId=3E8BB96C7CCC43ADB08CD25CDDACE23E&assignmentId=da5d16e8-cb0b-4957-95ef-c4b1fc1f512c&projectId=a0a8f18c-a66e-4ba7-a170-23efbdc67501","3E8BB96C7CCC43ADB08CD25CDDACE23E-2024-11-24-17-41-06","","null","","images/causal_sequence/dog_causal/dog_causal_2.png","null","",""
"","","","","","image-button-response","125","517727","0.0-16.0-1.0-1.1","3E8BB96C7CCC43ADB08CD25CDDACE23E","3E8BB96C7CCC43ADB08CD25CDDACE23E","da5d16e8-cb0b-4957-95ef-c4b1fc1f512c","a0a8f18c-a66e-4ba7-a170-23efbdc67501","{""participantId"":""3E8BB96C7CCC43ADB08CD25CDDACE23E"",""assignmentId"":""da5d16e8-cb0b-4957-95ef-c4b1fc1f512c"",""projectId"":""a0a8f18c-a66e-4ba7-a170-23efbdc67501""}","https://test12345.live/?participantId=3E8BB96C7CCC43ADB08CD25CDDACE23E&assignmentId=da5d16e8-cb0b-4957-95ef-c4b1fc1f512c&projectId=a0a8f18c-a66e-4ba7-a170-23efbdc67501","3E8BB96C7CCC43ADB08CD25CDDACE23E-2024-11-24-17-41-06","","1905","","images/causal_sequence/dog_causal/dog_causal_2.png","0","",""
"","","","","","image-button-response","126","519534","0.0-16.0-1.0-2.1","3E8BB96C7CCC43ADB08CD25CDDACE23E","3E8BB96C7CCC43ADB08CD25CDDACE23E","da5d16e8-cb0b-4957-95ef-c4b1fc1f512c","a0a8f18c-a66e-4ba7-a170-23efbdc67501","{""participantId"":""3E8BB96C7CCC43ADB08CD25CDDACE23E"",""assignmentId"":""da5d16e8-cb0b-4957-95ef-c4b1fc1f512c"",""projectId"":""a0a8f18c-a66e-4ba7-a170-23efbdc67501""}","https://test12345.live/?participantId=3E8BB96C7CCC43ADB08CD25CDDACE23E&assignmentId=da5d16e8-cb0b-4957-95ef-c4b1fc1f512c&projectId=a0a8f18c-a66e-4ba7-a170-23efbdc67501","3E8BB96C7CCC43ADB08CD25CDDACE23E-2024-11-24-17-41-06","","null","","[]","null","",""
"","","","","","image-button-response","127","524042","0.0-16.0-1.0-0.2","3E8BB96C7CCC43ADB08CD25CDDACE23E","3E8BB96C7CCC43ADB08CD25CDDACE23E","da5d16e8-cb0b-4957-95ef-c4b1fc1f512c","a0a8f18c-a66e-4ba7-a170-23efbdc67501","{""participantId"":""3E8BB96C7CCC43ADB08CD25CDDACE23E"",""assignmentId"":""da5d16e8-cb0b-4957-95ef-c4b1fc1f512c"",""projectId"":""a0a8f18c-a66e-4ba7-a170-23efbdc67501""}","https://test12345.live/?participantId=3E8BB96C7CCC43ADB08CD25CDDACE23E&assignmentId=da5d16e8-cb0b-4957-95ef-c4b1fc1f512c&projectId=a0a8f18c-a66e-4ba7-a170-23efbdc67501","3E8BB96C7CCC43ADB08CD25CDDACE23E-2024-11-24-17-41-06","","null","","images/causal_sequence/dog_causal/dog_causal_3.png","null","",""
"","","","","","image-button-response","128","525071","0.0-16.0-1.0-1.2","3E8BB96C7CCC43ADB08CD25CDDACE23E","3E8BB96C7CCC43ADB08CD25CDDACE23E","da5d16e8-cb0b-4957-95ef-c4b1fc1f512c","a0a8f18c-a66e-4ba7-a170-23efbdc67501","{""participantId"":""3E8BB96C7CCC43ADB08CD25CDDACE23E"",""assignmentId"":""da5d16e8-cb0b-4957-95ef-c4b1fc1f512c"",""projectId"":""a0a8f18c-a66e-4ba7-a170-23efbdc67501""}","https://test12345.live/?participantId=3E8BB96C7CCC43ADB08CD25CDDACE23E&assignmentId=da5d16e8-cb0b-4957-95ef-c4b1fc1f512c&projectId=a0a8f18c-a66e-4ba7-a170-23efbdc67501","3E8BB96C7CCC43ADB08CD25CDDACE23E-2024-11-24-17-41-06","","1028","","images/causal_sequence/dog_causal/dog_causal_3.png","0","",""
"","","","","","image-button-response","129","526881","0.0-16.0-1.0-2.2","3E8BB96C7CCC43ADB08CD25CDDACE23E","3E8BB96C7CCC43ADB08CD25CDDACE23E","da5d16e8-cb0b-4957-95ef-c4b1fc1f512c","a0a8f18c-a66e-4ba7-a170-23efbdc67501","{""participantId"":""3E8BB96C7CCC43ADB08CD25CDDACE23E"",""assignmentId"":""da5d16e8-cb0b-4957-95ef-c4b1fc1f512c"",""projectId"":""a0a8f18c-a66e-4ba7-a170-23efbdc67501""}","https://test12345.live/?participantId=3E8BB96C7CCC43ADB08CD25CDDACE23E&assignmentId=da5d16e8-cb0b-4957-95ef-c4b1fc1f512c&projectId=a0a8f18c-a66e-4ba7-a170-23efbdc67501","3E8BB96C7CCC43ADB08CD25CDDACE23E-2024-11-24-17-41-06","","null","","[]","null","",""
"","","","","","image-button-response","130","531388","0.0-16.0-1.0-0.3","3E8BB96C7CCC43ADB08CD25CDDACE23E","3E8BB96C7CCC43ADB08CD25CDDACE23E","da5d16e8-cb0b-4957-95ef-c4b1fc1f512c","a0a8f18c-a66e-4ba7-a170-23efbdc67501","{""participantId"":""3E8BB96C7CCC43ADB08CD25CDDACE23E"",""assignmentId"":""da5d16e8-cb0b-4957-95ef-c4b1fc1f512c"",""projectId"":""a0a8f18c-a66e-4ba7-a170-23efbdc67501""}","https://test12345.live/?participantId=3E8BB96C7CCC43ADB08CD25CDDACE23E&assignmentId=da5d16e8-cb0b-4957-95ef-c4b1fc1f512c&projectId=a0a8f18c-a66e-4ba7-a170-23efbdc67501","3E8BB96C7CCC43ADB08CD25CDDACE23E-2024-11-24-17-41-06","","null","","images/causal_sequence/dog_causal/dog_causal_4.png","null","",""
"","","","","","image-button-response","131","534111","0.0-16.0-1.0-1.3","3E8BB96C7CCC43ADB08CD25CDDACE23E","3E8BB96C7CCC43ADB08CD25CDDACE23E","da5d16e8-cb0b-4957-95ef-c4b1fc1f512c","a0a8f18c-a66e-4ba7-a170-23efbdc67501","{""participantId"":""3E8BB96C7CCC43ADB08CD25CDDACE23E"",""assignmentId"":""da5d16e8-cb0b-4957-95ef-c4b1fc1f512c"",""projectId"":""a0a8f18c-a66e-4ba7-a170-23efbdc67501""}","https://test12345.live/?participantId=3E8BB96C7CCC43ADB08CD25CDDACE23E&assignmentId=da5d16e8-cb0b-4957-95ef-c4b1fc1f512c&projectId=a0a8f18c-a66e-4ba7-a170-23efbdc67501","3E8BB96C7CCC43ADB08CD25CDDACE23E-2024-11-24-17-41-06","","2723","","images/causal_sequence/dog_causal/dog_causal_4.png","0","",""
"","","","","","image-button-response","132","535916","0.0-16.0-1.0-2.3","3E8BB96C7CCC43ADB08CD25CDDACE23E","3E8BB96C7CCC43ADB08CD25CDDACE23E","da5d16e8-cb0b-4957-95ef-c4b1fc1f512c","a0a8f18c-a66e-4ba7-a170-23efbdc67501","{""participantId"":""3E8BB96C7CCC43ADB08CD25CDDACE23E"",""assignmentId"":""da5d16e8-cb0b-4957-95ef-c4b1fc1f512c"",""projectId"":""a0a8f18c-a66e-4ba7-a170-23efbdc67501""}","https://test12345.live/?participantId=3E8BB96C7CCC43ADB08CD25CDDACE23E&assignmentId=da5d16e8-cb0b-4957-95ef-c4b1fc1f512c&projectId=a0a8f18c-a66e-4ba7-a170-23efbdc67501","3E8BB96C7CCC43ADB08CD25CDDACE23E-2024-11-24-17-41-06","","null","","[]","null","",""
"","","","","","image-button-response","133","540427","0.0-16.0-1.0-0.4","3E8BB96C7CCC43ADB08CD25CDDACE23E","3E8BB96C7CCC43ADB08CD25CDDACE23E","da5d16e8-cb0b-4957-95ef-c4b1fc1f512c","a0a8f18c-a66e-4ba7-a170-23efbdc67501","{""participantId"":""3E8BB96C7CCC43ADB08CD25CDDACE23E"",""assignmentId"":""da5d16e8-cb0b-4957-95ef-c4b1fc1f512c"",""projectId"":""a0a8f18c-a66e-4ba7-a170-23efbdc67501""}","https://test12345.live/?participantId=3E8BB96C7CCC43ADB08CD25CDDACE23E&assignmentId=da5d16e8-cb0b-4957-95ef-c4b1fc1f512c&projectId=a0a8f18c-a66e-4ba7-a170-23efbdc67501","3E8BB96C7CCC43ADB08CD25CDDACE23E-2024-11-24-17-41-06","","null","","images/causal_sequence/dog_causal/dog_causal_5.png","null","",""
"","","","","","image-button-response","134","541217","0.0-16.0-1.0-1.4","3E8BB96C7CCC43ADB08CD25CDDACE23E","3E8BB96C7CCC43ADB08CD25CDDACE23E","da5d16e8-cb0b-4957-95ef-c4b1fc1f512c","a0a8f18c-a66e-4ba7-a170-23efbdc67501","{""participantId"":""3E8BB96C7CCC43ADB08CD25CDDACE23E"",""assignmentId"":""da5d16e8-cb0b-4957-95ef-c4b1fc1f512c"",""projectId"":""a0a8f18c-a66e-4ba7-a170-23efbdc67501""}","https://test12345.live/?participantId=3E8BB96C7CCC43ADB08CD25CDDACE23E&assignmentId=da5d16e8-cb0b-4957-95ef-c4b1fc1f512c&projectId=a0a8f18c-a66e-4ba7-a170-23efbdc67501","3E8BB96C7CCC43ADB08CD25CDDACE23E-2024-11-24-17-41-06","","790","","images/causal_sequence/dog_causal/dog_causal_5.png","0","",""
"","","","","","image-button-response","135","543027","0.0-16.0-1.0-2.4","3E8BB96C7CCC43ADB08CD25CDDACE23E","3E8BB96C7CCC43ADB08CD25CDDACE23E","da5d16e8-cb0b-4957-95ef-c4b1fc1f512c","a0a8f18c-a66e-4ba7-a170-23efbdc67501","{""participantId"":""3E8BB96C7CCC43ADB08CD25CDDACE23E"",""assignmentId"":""da5d16e8-cb0b-4957-95ef-c4b1fc1f512c"",""projectId"":""a0a8f18c-a66e-4ba7-a170-23efbdc67501""}","https://test12345.live/?participantId=3E8BB96C7CCC43ADB08CD25CDDACE23E&assignmentId=da5d16e8-cb0b-4957-95ef-c4b1fc1f512c&projectId=a0a8f18c-a66e-4ba7-a170-23efbdc67501","3E8BB96C7CCC43ADB08CD25CDDACE23E-2024-11-24-17-41-06","","null","","[]","null","",""
"","","","","","image-button-response","136","547537","0.0-16.0-1.0-0.5","3E8BB96C7CCC43ADB08CD25CDDACE23E","3E8BB96C7CCC43ADB08CD25CDDACE23E","da5d16e8-cb0b-4957-95ef-c4b1fc1f512c","a0a8f18c-a66e-4ba7-a170-23efbdc67501","{""participantId"":""3E8BB96C7CCC43ADB08CD25CDDACE23E"",""assignmentId"":""da5d16e8-cb0b-4957-95ef-c4b1fc1f512c"",""projectId"":""a0a8f18c-a66e-4ba7-a170-23efbdc67501""}","https://test12345.live/?participantId=3E8BB96C7CCC43ADB08CD25CDDACE23E&assignmentId=da5d16e8-cb0b-4957-95ef-c4b1fc1f512c&projectId=a0a8f18c-a66e-4ba7-a170-23efbdc67501","3E8BB96C7CCC43ADB08CD25CDDACE23E-2024-11-24-17-41-06","","null","","images/causal_sequence/dog_causal/dog_causal_6.png","null","",""
"","","","","","image-button-response","137","548865","0.0-16.0-1.0-1.5","3E8BB96C7CCC43ADB08CD25CDDACE23E","3E8BB96C7CCC43ADB08CD25CDDACE23E","da5d16e8-cb0b-4957-95ef-c4b1fc1f512c","a0a8f18c-a66e-4ba7-a170-23efbdc67501","{""participantId"":""3E8BB96C7CCC43ADB08CD25CDDACE23E"",""assignmentId"":""da5d16e8-cb0b-4957-95ef-c4b1fc1f512c"",""projectId"":""a0a8f18c-a66e-4ba7-a170-23efbdc67501""}","https://test12345.live/?participantId=3E8BB96C7CCC43ADB08CD25CDDACE23E&assignmentId=da5d16e8-cb0b-4957-95ef-c4b1fc1f512c&projectId=a0a8f18c-a66e-4ba7-a170-23efbdc67501","3E8BB96C7CCC43ADB08CD25CDDACE23E-2024-11-24-17-41-06","","1327","","images/causal_sequence/dog_causal/dog_causal_6.png","0","",""
"","","","","","image-button-response","138","550677","0.0-16.0-1.0-2.5","3E8BB96C7CCC43ADB08CD25CDDACE23E","3E8BB96C7CCC43ADB08CD25CDDACE23E","da5d16e8-cb0b-4957-95ef-c4b1fc1f512c","a0a8f18c-a66e-4ba7-a170-23efbdc67501","{""participantId"":""3E8BB96C7CCC43ADB08CD25CDDACE23E"",""assignmentId"":""da5d16e8-cb0b-4957-95ef-c4b1fc1f512c"",""projectId"":""a0a8f18c-a66e-4ba7-a170-23efbdc67501""}","https://test12345.live/?participantId=3E8BB96C7CCC43ADB08CD25CDDACE23E&assignmentId=da5d16e8-cb0b-4957-95ef-c4b1fc1f512c&projectId=a0a8f18c-a66e-4ba7-a170-23efbdc67501","3E8BB96C7CCC43ADB08CD25CDDACE23E-2024-11-24-17-41-06","","null","","[]","null","",""
"","","","","","image-button-response","139","555178","0.0-16.0-1.0-0.6","3E8BB96C7CCC43ADB08CD25CDDACE23E","3E8BB96C7CCC43ADB08CD25CDDACE23E","da5d16e8-cb0b-4957-95ef-c4b1fc1f512c","a0a8f18c-a66e-4ba7-a170-23efbdc67501","{""participantId"":""3E8BB96C7CCC43ADB08CD25CDDACE23E"",""assignmentId"":""da5d16e8-cb0b-4957-95ef-c4b1fc1f512c"",""projectId"":""a0a8f18c-a66e-4ba7-a170-23efbdc67501""}","https://test12345.live/?participantId=3E8BB96C7CCC43ADB08CD25CDDACE23E&assignmentId=da5d16e8-cb0b-4957-95ef-c4b1fc1f512c&projectId=a0a8f18c-a66e-4ba7-a170-23efbdc67501","3E8BB96C7CCC43ADB08CD25CDDACE23E-2024-11-24-17-41-06","","null","","images/causal_sequence/dog_causal/dog_causal_7.png","null","",""
"","","","","","image-button-response","140","555929","0.0-16.0-1.0-1.6","3E8BB96C7CCC43ADB08CD25CDDACE23E","3E8BB96C7CCC43ADB08CD25CDDACE23E","da5d16e8-cb0b-4957-95ef-c4b1fc1f512c","a0a8f18c-a66e-4ba7-a170-23efbdc67501","{""participantId"":""3E8BB96C7CCC43ADB08CD25CDDACE23E"",""assignmentId"":""da5d16e8-cb0b-4957-95ef-c4b1fc1f512c"",""projectId"":""a0a8f18c-a66e-4ba7-a170-23efbdc67501""}","https://test12345.live/?participantId=3E8BB96C7CCC43ADB08CD25CDDACE23E&assignmentId=da5d16e8-cb0b-4957-95ef-c4b1fc1f512c&projectId=a0a8f18c-a66e-4ba7-a170-23efbdc67501","3E8BB96C7CCC43ADB08CD25CDDACE23E-2024-11-24-17-41-06","","750","","images/causal_sequence/dog_causal/dog_causal_7.png","0","",""
"","","","","","image-button-response","141","557736","0.0-16.0-1.0-2.6","3E8BB96C7CCC43ADB08CD25CDDACE23E","3E8BB96C7CCC43ADB08CD25CDDACE23E","da5d16e8-cb0b-4957-95ef-c4b1fc1f512c","a0a8f18c-a66e-4ba7-a170-23efbdc67501","{""participantId"":""3E8BB96C7CCC43ADB08CD25CDDACE23E"",""assignmentId"":""da5d16e8-cb0b-4957-95ef-c4b1fc1f512c"",""projectId"":""a0a8f18c-a66e-4ba7-a170-23efbdc67501""}","https://test12345.live/?participantId=3E8BB96C7CCC43ADB08CD25CDDACE23E&assignmentId=da5d16e8-cb0b-4957-95ef-c4b1fc1f512c&projectId=a0a8f18c-a66e-4ba7-a170-23efbdc67501","3E8BB96C7CCC43ADB08CD25CDDACE23E-2024-11-24-17-41-06","","null","","[]","null","",""
"","","","","","image-button-response","142","562250","0.0-16.0-1.0-0.7","3E8BB96C7CCC43ADB08CD25CDDACE23E","3E8BB96C7CCC43ADB08CD25CDDACE23E","da5d16e8-cb0b-4957-95ef-c4b1fc1f512c","a0a8f18c-a66e-4ba7-a170-23efbdc67501","{""participantId"":""3E8BB96C7CCC43ADB08CD25CDDACE23E"",""assignmentId"":""da5d16e8-cb0b-4957-95ef-c4b1fc1f512c"",""projectId"":""a0a8f18c-a66e-4ba7-a170-23efbdc67501""}","https://test12345.live/?participantId=3E8BB96C7CCC43ADB08CD25CDDACE23E&assignmentId=da5d16e8-cb0b-4957-95ef-c4b1fc1f512c&projectId=a0a8f18c-a66e-4ba7-a170-23efbdc67501","3E8BB96C7CCC43ADB08CD25CDDACE23E-2024-11-24-17-41-06","","null","","images/causal_sequence/dog_causal/dog_causal_8.png","null","",""
