"success","timeout","failed_images","failed_audio","failed_video","trial_type","trial_index","time_elapsed","internal_node_id","subject","subject_id","study_id","session_id","urlvar","current_url","audio_id","view_history","rt","device_id","stimulus","response","estimated_stimulus_onset","seq_name"
"true","false","[]","[]","[]","preload","0","56470","0.0-0.0","3E9F1278DDDE4280961F2B3413E2FCED","3E9F1278DDDE4280961F2B3413E2FCED","238e006e-9679-40f3-9ec4-bf2aee47d8cb","ba640c14-69c5-453e-80b2-29051492c0e0","{""num_scrambled_semantic"":""8"",""num_scrambled_causal"":""4"",""num_scrambled_schematic"":""4"",""participantId"":""3E9F1278DDDE4280961F2B3413E2FCED"",""assignmentId"":""238e006e-9679-40f3-9ec4-bf2aee47d8cb"",""projectId"":""ba640c14-69c5-453e-80b2-29051492c0e0""}","https://test12345.live/?num_scrambled_semantic=8&num_scrambled_causal=4&num_scrambled_schematic=4&participantId=3E9F1278DDDE4280961F2B3413E2FCED&assignmentId=238e006e-9679-40f3-9ec4-bf2aee47d8cb&projectId=ba640c14-69c5-453e-80b2-29051492c0e0","3E9F1278DDDE4280961F2B3413E2FCED-2025-05-14-20-57-55","","","","","","",""
"","","","","","instructions","1","130949","0.0-1.0","3E9F1278DDDE4280961F2B3413E2FCED","3E9F1278DDDE4280961F2B3413E2FCED","238e006e-9679-40f3-9ec4-bf2aee47d8cb","ba640c14-69c5-453e-80b2-29051492c0e0","{""num_scrambled_semantic"":""8"",""num_scrambled_causal"":""4"",""num_scrambled_schematic"":""4"",""participantId"":""3E9F1278DDDE4280961F2B3413E2FCED"",""assignmentId"":""238e006e-9679-40f3-9ec4-bf2aee47d8cb"",""projectId"":""ba640c14-69c5-453e-80b2-29051492c0e0""}","https://test12345.live/?num_scrambled_semantic=8&num_scrambled_causal=4&num_scrambled_schematic=4&participantId=3E9F1278DDDE4280961F2B3413E2FCED&assignmentId=238e006e-9679-40f3-9ec4-bf2aee47d8cb&projectId=ba640c14-69c5-453e-80b2-29051492c0e0","3E9F1278DDDE4280961F2B3413E2FCED-2025-05-14-20-57-55","[{""page_index"":0,""viewing_time"":74477}]","74477","","","","",""
"","","","","","instructions","2","208390","0.0-2.0","3E9F1278DDDE4280961F2B3413E2FCED","3E9F1278DDDE4280961F2B3413E2FCED","238e006e-9679-40f3-9ec4-bf2aee47d8cb","ba640c14-69c5-453e-80b2-29051492c0e0","{""num_scrambled_semantic"":""8"",""num_scrambled_causal"":""4"",""num_scrambled_schematic"":""4"",""participantId"":""3E9F1278DDDE4280961F2B3413E2FCED"",""assignmentId"":""238e006e-9679-40f3-9ec4-bf2aee47d8cb"",""projectId"":""ba640c14-69c5-453e-80b2-29051492c0e0""}","https://test12345.live/?num_scrambled_semantic=8&num_scrambled_causal=4&num_scrambled_schematic=4&participantId=3E9F1278DDDE4280961F2B3413E2FCED&assignmentId=238e006e-9679-40f3-9ec4-bf2aee47d8cb&projectId=ba640c14-69c5-453e-80b2-29051492c0e0","3E9F1278DDDE4280961F2B3413E2FCED-2025-05-14-20-57-55","[{""page_index"":0,""viewing_time"":77440}]","77441","","","","",""
"true","","","","","fullscreen","3","212271","0.0-3.0","3E9F1278DDDE4280961F2B3413E2FCED","3E9F1278DDDE4280961F2B3413E2FCED","238e006e-9679-40f3-9ec4-bf2aee47d8cb","ba640c14-69c5-453e-80b2-29051492c0e0","{""num_scrambled_semantic"":""8"",""num_scrambled_causal"":""4"",""num_scrambled_schematic"":""4"",""participantId"":""3E9F1278DDDE4280961F2B3413E2FCED"",""assignmentId"":""238e006e-9679-40f3-9ec4-bf2aee47d8cb"",""projectId"":""ba640c14-69c5-453e-80b2-29051492c0e0""}","https://test12345.live/?num_scrambled_semantic=8&num_scrambled_causal=4&num_scrambled_schematic=4&participantId=3E9F1278DDDE4280961F2B3413E2FCED&assignmentId=238e006e-9679-40f3-9ec4-bf2aee47d8cb&projectId=ba640c14-69c5-453e-80b2-29051492c0e0","3E9F1278DDDE4280961F2B3413E2FCED-2025-05-14-20-57-55","","2860","","","","",""
"","","","","","initialize-microphone","4","220329","0.0-4.0-0.0","3E9F1278DDDE4280961F2B3413E2FCED","3E9F1278DDDE4280961F2B3413E2FCED","238e006e-9679-40f3-9ec4-bf2aee47d8cb","ba640c14-69c5-453e-80b2-29051492c0e0","{""num_scrambled_semantic"":""8"",""num_scrambled_causal"":""4"",""num_scrambled_schematic"":""4"",""participantId"":""3E9F1278DDDE4280961F2B3413E2FCED"",""assignmentId"":""238e006e-9679-40f3-9ec4-bf2aee47d8cb"",""projectId"":""ba640c14-69c5-453e-80b2-29051492c0e0""}","https://test12345.live/?num_scrambled_semantic=8&num_scrambled_causal=4&num_scrambled_schematic=4&participantId=3E9F1278DDDE4280961F2B3413E2FCED&assignmentId=238e006e-9679-40f3-9ec4-bf2aee47d8cb&projectId=ba640c14-69c5-453e-80b2-29051492c0e0","3E9F1278DDDE4280961F2B3413E2FCED-2025-05-14-20-57-55","","","803b151d7d387f1f37b971a401e9444de885392c193d437340f200fa8918096d","","","",""
"","","","","","html-audio-response","5","257288","0.0-4.0-1.0","3E9F1278DDDE4280961F2B3413E2FCED","3E9F1278DDDE4280961F2B3413E2FCED","238e006e-9679-40f3-9ec4-bf2aee47d8cb","ba640c14-69c5-453e-80b2-29051492c0e0","{""num_scrambled_semantic"":""8"",""num_scrambled_causal"":""4"",""num_scrambled_schematic"":""4"",""participantId"":""3E9F1278DDDE4280961F2B3413E2FCED"",""assignmentId"":""238e006e-9679-40f3-9ec4-bf2aee47d8cb"",""projectId"":""ba640c14-69c5-453e-80b2-29051492c0e0""}","https://test12345.live/?num_scrambled_semantic=8&num_scrambled_causal=4&num_scrambled_schematic=4&participantId=3E9F1278DDDE4280961F2B3413E2FCED&assignmentId=238e006e-9679-40f3-9ec4-bf2aee47d8cb&projectId=ba640c14-69c5-453e-80b2-29051492c0e0","3E9F1278DDDE4280961F2B3413E2FCED-2025-05-14-20-57-55","","3339","","<span style=""color: red; font-size: 24px""> NOW RECORDING</span>
        <p>Please test Microphone</p>","","3",""
"","","","","","html-button-response","6","259140","0.0-4.0-2.0","3E9F1278DDDE4280961F2B3413E2FCED","3E9F1278DDDE4280961F2B3413E2FCED","238e006e-9679-40f3-9ec4-bf2aee47d8cb","ba640c14-69c5-453e-80b2-29051492c0e0","{""num_scrambled_semantic"":""8"",""num_scrambled_causal"":""4"",""num_scrambled_schematic"":""4"",""participantId"":""3E9F1278DDDE4280961F2B3413E2FCED"",""assignmentId"":""238e006e-9679-40f3-9ec4-bf2aee47d8cb"",""projectId"":""ba640c14-69c5-453e-80b2-29051492c0e0""}","https://test12345.live/?num_scrambled_semantic=8&num_scrambled_causal=4&num_scrambled_schematic=4&participantId=3E9F1278DDDE4280961F2B3413E2FCED&assignmentId=238e006e-9679-40f3-9ec4-bf2aee47d8cb&projectId=ba640c14-69c5-453e-80b2-29051492c0e0","3E9F1278DDDE4280961F2B3413E2FCED-2025-05-14-20-57-55","","1851","","<p style=""font-size:48px; color:red;"">Is Microphone OK?</p>","1","",""
"","","","","","instructions","7","272997","0.0-5.0","3E9F1278DDDE4280961F2B3413E2FCED","3E9F1278DDDE4280961F2B3413E2FCED","238e006e-9679-40f3-9ec4-bf2aee47d8cb","ba640c14-69c5-453e-80b2-29051492c0e0","{""num_scrambled_semantic"":""8"",""num_scrambled_causal"":""4"",""num_scrambled_schematic"":""4"",""participantId"":""3E9F1278DDDE4280961F2B3413E2FCED"",""assignmentId"":""238e006e-9679-40f3-9ec4-bf2aee47d8cb"",""projectId"":""ba640c14-69c5-453e-80b2-29051492c0e0""}","https://test12345.live/?num_scrambled_semantic=8&num_scrambled_causal=4&num_scrambled_schematic=4&participantId=3E9F1278DDDE4280961F2B3413E2FCED&assignmentId=238e006e-9679-40f3-9ec4-bf2aee47d8cb&projectId=ba640c14-69c5-453e-80b2-29051492c0e0","3E9F1278DDDE4280961F2B3413E2FCED-2025-05-14-20-57-55","[{""page_index"":0,""viewing_time"":6382},{""page_index"":1,""viewing_time"":7474}]","13856","","","","",""
"","","","","","image-button-response","8","279012","0.0-6.0-0.0","3E9F1278DDDE4280961F2B3413E2FCED","3E9F1278DDDE4280961F2B3413E2FCED","238e006e-9679-40f3-9ec4-bf2aee47d8cb","ba640c14-69c5-453e-80b2-29051492c0e0","{""num_scrambled_semantic"":""8"",""num_scrambled_causal"":""4"",""num_scrambled_schematic"":""4"",""participantId"":""3E9F1278DDDE4280961F2B3413E2FCED"",""assignmentId"":""238e006e-9679-40f3-9ec4-bf2aee47d8cb"",""projectId"":""ba640c14-69c5-453e-80b2-29051492c0e0""}","https://test12345.live/?num_scrambled_semantic=8&num_scrambled_causal=4&num_scrambled_schematic=4&participantId=3E9F1278DDDE4280961F2B3413E2FCED&assignmentId=238e006e-9679-40f3-9ec4-bf2aee47d8cb&projectId=ba640c14-69c5-453e-80b2-29051492c0e0","3E9F1278DDDE4280961F2B3413E2FCED-2025-05-14-20-57-55","","null","","images/instructions/movie_0.png","null","",""
"","","","","","image-button-response","9","283523","0.0-6.0-1.0-0.0","3E9F1278DDDE4280961F2B3413E2FCED","3E9F1278DDDE4280961F2B3413E2FCED","238e006e-9679-40f3-9ec4-bf2aee47d8cb","ba640c14-69c5-453e-80b2-29051492c0e0","{""num_scrambled_semantic"":""8"",""num_scrambled_causal"":""4"",""num_scrambled_schematic"":""4"",""participantId"":""3E9F1278DDDE4280961F2B3413E2FCED"",""assignmentId"":""238e006e-9679-40f3-9ec4-bf2aee47d8cb"",""projectId"":""ba640c14-69c5-453e-80b2-29051492c0e0""}","https://test12345.live/?num_scrambled_semantic=8&num_scrambled_causal=4&num_scrambled_schematic=4&participantId=3E9F1278DDDE4280961F2B3413E2FCED&assignmentId=238e006e-9679-40f3-9ec4-bf2aee47d8cb&projectId=ba640c14-69c5-453e-80b2-29051492c0e0","3E9F1278DDDE4280961F2B3413E2FCED-2025-05-14-20-57-55","","null","","images/instructions/movie_1.png","null","",""
"","","","","","image-button-response","10","286484","0.0-6.0-1.0-1.0","3E9F1278DDDE4280961F2B3413E2FCED","3E9F1278DDDE4280961F2B3413E2FCED","238e006e-9679-40f3-9ec4-bf2aee47d8cb","ba640c14-69c5-453e-80b2-29051492c0e0","{""num_scrambled_semantic"":""8"",""num_scrambled_causal"":""4"",""num_scrambled_schematic"":""4"",""participantId"":""3E9F1278DDDE4280961F2B3413E2FCED"",""assignmentId"":""238e006e-9679-40f3-9ec4-bf2aee47d8cb"",""projectId"":""ba640c14-69c5-453e-80b2-29051492c0e0""}","https://test12345.live/?num_scrambled_semantic=8&num_scrambled_causal=4&num_scrambled_schematic=4&participantId=3E9F1278DDDE4280961F2B3413E2FCED&assignmentId=238e006e-9679-40f3-9ec4-bf2aee47d8cb&projectId=ba640c14-69c5-453e-80b2-29051492c0e0","3E9F1278DDDE4280961F2B3413E2FCED-2025-05-14-20-57-55","","2960","","images/instructions/movie_1.png","0","",""
"","","","","","image-button-response","11","288291","0.0-6.0-1.0-2.0","3E9F1278DDDE4280961F2B3413E2FCED","3E9F1278DDDE4280961F2B3413E2FCED","238e006e-9679-40f3-9ec4-bf2aee47d8cb","ba640c14-69c5-453e-80b2-29051492c0e0","{""num_scrambled_semantic"":""8"",""num_scrambled_causal"":""4"",""num_scrambled_schematic"":""4"",""participantId"":""3E9F1278DDDE4280961F2B3413E2FCED"",""assignmentId"":""238e006e-9679-40f3-9ec4-bf2aee47d8cb"",""projectId"":""ba640c14-69c5-453e-80b2-29051492c0e0""}","https://test12345.live/?num_scrambled_semantic=8&num_scrambled_causal=4&num_scrambled_schematic=4&participantId=3E9F1278DDDE4280961F2B3413E2FCED&assignmentId=238e006e-9679-40f3-9ec4-bf2aee47d8cb&projectId=ba640c14-69c5-453e-80b2-29051492c0e0","3E9F1278DDDE4280961F2B3413E2FCED-2025-05-14-20-57-55","","null","","[]","null","",""
"","","","","","image-button-response","12","292804","0.0-6.0-1.0-0.1","3E9F1278DDDE4280961F2B3413E2FCED","3E9F1278DDDE4280961F2B3413E2FCED","238e006e-9679-40f3-9ec4-bf2aee47d8cb","ba640c14-69c5-453e-80b2-29051492c0e0","{""num_scrambled_semantic"":""8"",""num_scrambled_causal"":""4"",""num_scrambled_schematic"":""4"",""participantId"":""3E9F1278DDDE4280961F2B3413E2FCED"",""assignmentId"":""238e006e-9679-40f3-9ec4-bf2aee47d8cb"",""projectId"":""ba640c14-69c5-453e-80b2-29051492c0e0""}","https://test12345.live/?num_scrambled_semantic=8&num_scrambled_causal=4&num_scrambled_schematic=4&participantId=3E9F1278DDDE4280961F2B3413E2FCED&assignmentId=238e006e-9679-40f3-9ec4-bf2aee47d8cb&projectId=ba640c14-69c5-453e-80b2-29051492c0e0","3E9F1278DDDE4280961F2B3413E2FCED-2025-05-14-20-57-55","","null","","images/instructions/movie_2.png","null","",""
"","","","","","image-button-response","13","295477","0.0-6.0-1.0-1.1","3E9F1278DDDE4280961F2B3413E2FCED","3E9F1278DDDE4280961F2B3413E2FCED","238e006e-9679-40f3-9ec4-bf2aee47d8cb","ba640c14-69c5-453e-80b2-29051492c0e0","{""num_scrambled_semantic"":""8"",""num_scrambled_causal"":""4"",""num_scrambled_schematic"":""4"",""participantId"":""3E9F1278DDDE4280961F2B3413E2FCED"",""assignmentId"":""238e006e-9679-40f3-9ec4-bf2aee47d8cb"",""projectId"":""ba640c14-69c5-453e-80b2-29051492c0e0""}","https://test12345.live/?num_scrambled_semantic=8&num_scrambled_causal=4&num_scrambled_schematic=4&participantId=3E9F1278DDDE4280961F2B3413E2FCED&assignmentId=238e006e-9679-40f3-9ec4-bf2aee47d8cb&projectId=ba640c14-69c5-453e-80b2-29051492c0e0","3E9F1278DDDE4280961F2B3413E2FCED-2025-05-14-20-57-55","","2672","","images/instructions/movie_2.png","0","",""
"","","","","","image-button-response","14","297283","0.0-6.0-1.0-2.1","3E9F1278DDDE4280961F2B3413E2FCED","3E9F1278DDDE4280961F2B3413E2FCED","238e006e-9679-40f3-9ec4-bf2aee47d8cb","ba640c14-69c5-453e-80b2-29051492c0e0","{""num_scrambled_semantic"":""8"",""num_scrambled_causal"":""4"",""num_scrambled_schematic"":""4"",""participantId"":""3E9F1278DDDE4280961F2B3413E2FCED"",""assignmentId"":""238e006e-9679-40f3-9ec4-bf2aee47d8cb"",""projectId"":""ba640c14-69c5-453e-80b2-29051492c0e0""}","https://test12345.live/?num_scrambled_semantic=8&num_scrambled_causal=4&num_scrambled_schematic=4&participantId=3E9F1278DDDE4280961F2B3413E2FCED&assignmentId=238e006e-9679-40f3-9ec4-bf2aee47d8cb&projectId=ba640c14-69c5-453e-80b2-29051492c0e0","3E9F1278DDDE4280961F2B3413E2FCED-2025-05-14-20-57-55","","null","","[]","null","",""
"","","","","","image-button-response","15","301794","0.0-6.0-1.0-0.2","3E9F1278DDDE4280961F2B3413E2FCED","3E9F1278DDDE4280961F2B3413E2FCED","238e006e-9679-40f3-9ec4-bf2aee47d8cb","ba640c14-69c5-453e-80b2-29051492c0e0","{""num_scrambled_semantic"":""8"",""num_scrambled_causal"":""4"",""num_scrambled_schematic"":""4"",""participantId"":""3E9F1278DDDE4280961F2B3413E2FCED"",""assignmentId"":""238e006e-9679-40f3-9ec4-bf2aee47d8cb"",""projectId"":""ba640c14-69c5-453e-80b2-29051492c0e0""}","https://test12345.live/?num_scrambled_semantic=8&num_scrambled_causal=4&num_scrambled_schematic=4&participantId=3E9F1278DDDE4280961F2B3413E2FCED&assignmentId=238e006e-9679-40f3-9ec4-bf2aee47d8cb&projectId=ba640c14-69c5-453e-80b2-29051492c0e0","3E9F1278DDDE4280961F2B3413E2FCED-2025-05-14-20-57-55","","null","","images/instructions/movie_3.png","null","",""
"","","","","","image-button-response","16","302948","0.0-6.0-1.0-1.2","3E9F1278DDDE4280961F2B3413E2FCED","3E9F1278DDDE4280961F2B3413E2FCED","238e006e-9679-40f3-9ec4-bf2aee47d8cb","ba640c14-69c5-453e-80b2-29051492c0e0","{""num_scrambled_semantic"":""8"",""num_scrambled_causal"":""4"",""num_scrambled_schematic"":""4"",""participantId"":""3E9F1278DDDE4280961F2B3413E2FCED"",""assignmentId"":""238e006e-9679-40f3-9ec4-bf2aee47d8cb"",""projectId"":""ba640c14-69c5-453e-80b2-29051492c0e0""}","https://test12345.live/?num_scrambled_semantic=8&num_scrambled_causal=4&num_scrambled_schematic=4&participantId=3E9F1278DDDE4280961F2B3413E2FCED&assignmentId=238e006e-9679-40f3-9ec4-bf2aee47d8cb&projectId=ba640c14-69c5-453e-80b2-29051492c0e0","3E9F1278DDDE4280961F2B3413E2FCED-2025-05-14-20-57-55","","1153","","images/instructions/movie_3.png","0","",""
"","","","","","image-button-response","17","304754","0.0-6.0-1.0-2.2","3E9F1278DDDE4280961F2B3413E2FCED","3E9F1278DDDE4280961F2B3413E2FCED","238e006e-9679-40f3-9ec4-bf2aee47d8cb","ba640c14-69c5-453e-80b2-29051492c0e0","{""num_scrambled_semantic"":""8"",""num_scrambled_causal"":""4"",""num_scrambled_schematic"":""4"",""participantId"":""3E9F1278DDDE4280961F2B3413E2FCED"",""assignmentId"":""238e006e-9679-40f3-9ec4-bf2aee47d8cb"",""projectId"":""ba640c14-69c5-453e-80b2-29051492c0e0""}","https://test12345.live/?num_scrambled_semantic=8&num_scrambled_causal=4&num_scrambled_schematic=4&participantId=3E9F1278DDDE4280961F2B3413E2FCED&assignmentId=238e006e-9679-40f3-9ec4-bf2aee47d8cb&projectId=ba640c14-69c5-453e-80b2-29051492c0e0","3E9F1278DDDE4280961F2B3413E2FCED-2025-05-14-20-57-55","","null","","[]","null","",""
"","","","","","image-button-response","18","309269","0.0-6.0-1.0-0.3","3E9F1278DDDE4280961F2B3413E2FCED","3E9F1278DDDE4280961F2B3413E2FCED","238e006e-9679-40f3-9ec4-bf2aee47d8cb","ba640c14-69c5-453e-80b2-29051492c0e0","{""num_scrambled_semantic"":""8"",""num_scrambled_causal"":""4"",""num_scrambled_schematic"":""4"",""participantId"":""3E9F1278DDDE4280961F2B3413E2FCED"",""assignmentId"":""238e006e-9679-40f3-9ec4-bf2aee47d8cb"",""projectId"":""ba640c14-69c5-453e-80b2-29051492c0e0""}","https://test12345.live/?num_scrambled_semantic=8&num_scrambled_causal=4&num_scrambled_schematic=4&participantId=3E9F1278DDDE4280961F2B3413E2FCED&assignmentId=238e006e-9679-40f3-9ec4-bf2aee47d8cb&projectId=ba640c14-69c5-453e-80b2-29051492c0e0","3E9F1278DDDE4280961F2B3413E2FCED-2025-05-14-20-57-55","","null","","images/instructions/movie_4.png","null","",""
"","","","","","image-button-response","19","310339","0.0-6.0-1.0-1.3","3E9F1278DDDE4280961F2B3413E2FCED","3E9F1278DDDE4280961F2B3413E2FCED","238e006e-9679-40f3-9ec4-bf2aee47d8cb","ba640c14-69c5-453e-80b2-29051492c0e0","{""num_scrambled_semantic"":""8"",""num_scrambled_causal"":""4"",""num_scrambled_schematic"":""4"",""participantId"":""3E9F1278DDDE4280961F2B3413E2FCED"",""assignmentId"":""238e006e-9679-40f3-9ec4-bf2aee47d8cb"",""projectId"":""ba640c14-69c5-453e-80b2-29051492c0e0""}","https://test12345.live/?num_scrambled_semantic=8&num_scrambled_causal=4&num_scrambled_schematic=4&participantId=3E9F1278DDDE4280961F2B3413E2FCED&assignmentId=238e006e-9679-40f3-9ec4-bf2aee47d8cb&projectId=ba640c14-69c5-453e-80b2-29051492c0e0","3E9F1278DDDE4280961F2B3413E2FCED-2025-05-14-20-57-55","","1069","","images/instructions/movie_4.png","0","",""
"","","","","","image-button-response","20","312145","0.0-6.0-1.0-2.3","3E9F1278DDDE4280961F2B3413E2FCED","3E9F1278DDDE4280961F2B3413E2FCED","238e006e-9679-40f3-9ec4-bf2aee47d8cb","ba640c14-69c5-453e-80b2-29051492c0e0","{""num_scrambled_semantic"":""8"",""num_scrambled_causal"":""4"",""num_scrambled_schematic"":""4"",""participantId"":""3E9F1278DDDE4280961F2B3413E2FCED"",""assignmentId"":""238e006e-9679-40f3-9ec4-bf2aee47d8cb"",""projectId"":""ba640c14-69c5-453e-80b2-29051492c0e0""}","https://test12345.live/?num_scrambled_semantic=8&num_scrambled_causal=4&num_scrambled_schematic=4&participantId=3E9F1278DDDE4280961F2B3413E2FCED&assignmentId=238e006e-9679-40f3-9ec4-bf2aee47d8cb&projectId=ba640c14-69c5-453e-80b2-29051492c0e0","3E9F1278DDDE4280961F2B3413E2FCED-2025-05-14-20-57-55","","null","","[]","null","",""
"","","","","","instructions","21","320552","0.0-7.0","3E9F1278DDDE4280961F2B3413E2FCED","3E9F1278DDDE4280961F2B3413E2FCED","238e006e-9679-40f3-9ec4-bf2aee47d8cb","ba640c14-69c5-453e-80b2-29051492c0e0","{""num_scrambled_semantic"":""8"",""num_scrambled_causal"":""4"",""num_scrambled_schematic"":""4"",""participantId"":""3E9F1278DDDE4280961F2B3413E2FCED"",""assignmentId"":""238e006e-9679-40f3-9ec4-bf2aee47d8cb"",""projectId"":""ba640c14-69c5-453e-80b2-29051492c0e0""}","https://test12345.live/?num_scrambled_semantic=8&num_scrambled_causal=4&num_scrambled_schematic=4&participantId=3E9F1278DDDE4280961F2B3413E2FCED&assignmentId=238e006e-9679-40f3-9ec4-bf2aee47d8cb&projectId=ba640c14-69c5-453e-80b2-29051492c0e0","3E9F1278DDDE4280961F2B3413E2FCED-2025-05-14-20-57-55","[{""page_index"":0,""viewing_time"":6791},{""page_index"":1,""viewing_time"":1615}]","8406","","","","",""
"","","","","","html-audio-response","22","355678","0.0-8.0","3E9F1278DDDE4280961F2B3413E2FCED","3E9F1278DDDE4280961F2B3413E2FCED","238e006e-9679-40f3-9ec4-bf2aee47d8cb","ba640c14-69c5-453e-80b2-29051492c0e0","{""num_scrambled_semantic"":""8"",""num_scrambled_causal"":""4"",""num_scrambled_schematic"":""4"",""participantId"":""3E9F1278DDDE4280961F2B3413E2FCED"",""assignmentId"":""238e006e-9679-40f3-9ec4-bf2aee47d8cb"",""projectId"":""ba640c14-69c5-453e-80b2-29051492c0e0""}","https://test12345.live/?num_scrambled_semantic=8&num_scrambled_causal=4&num_scrambled_schematic=4&participantId=3E9F1278DDDE4280961F2B3413E2FCED&assignmentId=238e006e-9679-40f3-9ec4-bf2aee47d8cb&projectId=ba640c14-69c5-453e-80b2-29051492c0e0","3E9F1278DDDE4280961F2B3413E2FCED-2025-05-14-20-57-55","","20206","","[""<span style=\""color: red; font-size: 24px\""> NOW RECORDING</span><p>Please say out loud all the images you saw, as many as you can remember. The images can be said in any order.</p>""]","","1",""
"","","","","","instructions","23","358183","0.0-9.0","3E9F1278DDDE4280961F2B3413E2FCED","3E9F1278DDDE4280961F2B3413E2FCED","238e006e-9679-40f3-9ec4-bf2aee47d8cb","ba640c14-69c5-453e-80b2-29051492c0e0","{""num_scrambled_semantic"":""8"",""num_scrambled_causal"":""4"",""num_scrambled_schematic"":""4"",""participantId"":""3E9F1278DDDE4280961F2B3413E2FCED"",""assignmentId"":""238e006e-9679-40f3-9ec4-bf2aee47d8cb"",""projectId"":""ba640c14-69c5-453e-80b2-29051492c0e0""}","https://test12345.live/?num_scrambled_semantic=8&num_scrambled_causal=4&num_scrambled_schematic=4&participantId=3E9F1278DDDE4280961F2B3413E2FCED&assignmentId=238e006e-9679-40f3-9ec4-bf2aee47d8cb&projectId=ba640c14-69c5-453e-80b2-29051492c0e0","3E9F1278DDDE4280961F2B3413E2FCED-2025-05-14-20-57-55","[{""page_index"":0,""viewing_time"":2499}]","2499","","","","",""
"","","","","","image-button-response","24","364195","0.0-10.0-0.0","3E9F1278DDDE4280961F2B3413E2FCED","3E9F1278DDDE4280961F2B3413E2FCED","238e006e-9679-40f3-9ec4-bf2aee47d8cb","ba640c14-69c5-453e-80b2-29051492c0e0","{""num_scrambled_semantic"":""8"",""num_scrambled_causal"":""4"",""num_scrambled_schematic"":""4"",""participantId"":""3E9F1278DDDE4280961F2B3413E2FCED"",""assignmentId"":""238e006e-9679-40f3-9ec4-bf2aee47d8cb"",""projectId"":""ba640c14-69c5-453e-80b2-29051492c0e0""}","https://test12345.live/?num_scrambled_semantic=8&num_scrambled_causal=4&num_scrambled_schematic=4&participantId=3E9F1278DDDE4280961F2B3413E2FCED&assignmentId=238e006e-9679-40f3-9ec4-bf2aee47d8cb&projectId=ba640c14-69c5-453e-80b2-29051492c0e0","3E9F1278DDDE4280961F2B3413E2FCED-2025-05-14-20-57-55","","null","","images/semantic_sequence/physical_activity_semantic/physical_activity_semantic_0.png","null","",""
"","","","","","image-button-response","25","368707","0.0-10.0-1.0-0.0","3E9F1278DDDE4280961F2B3413E2FCED","3E9F1278DDDE4280961F2B3413E2FCED","238e006e-9679-40f3-9ec4-bf2aee47d8cb","ba640c14-69c5-453e-80b2-29051492c0e0","{""num_scrambled_semantic"":""8"",""num_scrambled_causal"":""4"",""num_scrambled_schematic"":""4"",""participantId"":""3E9F1278DDDE4280961F2B3413E2FCED"",""assignmentId"":""238e006e-9679-40f3-9ec4-bf2aee47d8cb"",""projectId"":""ba640c14-69c5-453e-80b2-29051492c0e0""}","https://test12345.live/?num_scrambled_semantic=8&num_scrambled_causal=4&num_scrambled_schematic=4&participantId=3E9F1278DDDE4280961F2B3413E2FCED&assignmentId=238e006e-9679-40f3-9ec4-bf2aee47d8cb&projectId=ba640c14-69c5-453e-80b2-29051492c0e0","3E9F1278DDDE4280961F2B3413E2FCED-2025-05-14-20-57-55","","null","","images/semantic_sequence/physical_activity_semantic/physical_activity_semantic_9.png","null","",""
"","","","","","image-button-response","26","370804","0.0-10.0-1.0-1.0","3E9F1278DDDE4280961F2B3413E2FCED","3E9F1278DDDE4280961F2B3413E2FCED","238e006e-9679-40f3-9ec4-bf2aee47d8cb","ba640c14-69c5-453e-80b2-29051492c0e0","{""num_scrambled_semantic"":""8"",""num_scrambled_causal"":""4"",""num_scrambled_schematic"":""4"",""participantId"":""3E9F1278DDDE4280961F2B3413E2FCED"",""assignmentId"":""238e006e-9679-40f3-9ec4-bf2aee47d8cb"",""projectId"":""ba640c14-69c5-453e-80b2-29051492c0e0""}","https://test12345.live/?num_scrambled_semantic=8&num_scrambled_causal=4&num_scrambled_schematic=4&participantId=3E9F1278DDDE4280961F2B3413E2FCED&assignmentId=238e006e-9679-40f3-9ec4-bf2aee47d8cb&projectId=ba640c14-69c5-453e-80b2-29051492c0e0","3E9F1278DDDE4280961F2B3413E2FCED-2025-05-14-20-57-55","","2096","","images/semantic_sequence/physical_activity_semantic/physical_activity_semantic_9.png","0","",""
"","","","","","image-button-response","27","372611","0.0-10.0-1.0-2.0","3E9F1278DDDE4280961F2B3413E2FCED","3E9F1278DDDE4280961F2B3413E2FCED","238e006e-9679-40f3-9ec4-bf2aee47d8cb","ba640c14-69c5-453e-80b2-29051492c0e0","{""num_scrambled_semantic"":""8"",""num_scrambled_causal"":""4"",""num_scrambled_schematic"":""4"",""participantId"":""3E9F1278DDDE4280961F2B3413E2FCED"",""assignmentId"":""238e006e-9679-40f3-9ec4-bf2aee47d8cb"",""projectId"":""ba640c14-69c5-453e-80b2-29051492c0e0""}","https://test12345.live/?num_scrambled_semantic=8&num_scrambled_causal=4&num_scrambled_schematic=4&participantId=3E9F1278DDDE4280961F2B3413E2FCED&assignmentId=238e006e-9679-40f3-9ec4-bf2aee47d8cb&projectId=ba640c14-69c5-453e-80b2-29051492c0e0","3E9F1278DDDE4280961F2B3413E2FCED-2025-05-14-20-57-55","","null","","[]","null","",""
"","","","","","image-button-response","28","377121","0.0-10.0-1.0-0.1","3E9F1278DDDE4280961F2B3413E2FCED","3E9F1278DDDE4280961F2B3413E2FCED","238e006e-9679-40f3-9ec4-bf2aee47d8cb","ba640c14-69c5-453e-80b2-29051492c0e0","{""num_scrambled_semantic"":""8"",""num_scrambled_causal"":""4"",""num_scrambled_schematic"":""4"",""participantId"":""3E9F1278DDDE4280961F2B3413E2FCED"",""assignmentId"":""238e006e-9679-40f3-9ec4-bf2aee47d8cb"",""projectId"":""ba640c14-69c5-453e-80b2-29051492c0e0""}","https://test12345.live/?num_scrambled_semantic=8&num_scrambled_causal=4&num_scrambled_schematic=4&participantId=3E9F1278DDDE4280961F2B3413E2FCED&assignmentId=238e006e-9679-40f3-9ec4-bf2aee47d8cb&projectId=ba640c14-69c5-453e-80b2-29051492c0e0","3E9F1278DDDE4280961F2B3413E2FCED-2025-05-14-20-57-55","","null","","images/semantic_sequence/physical_activity_semantic/physical_activity_semantic_4.png","null","",""
"","","","","","image-button-response","29","378356","0.0-10.0-1.0-1.1","3E9F1278DDDE4280961F2B3413E2FCED","3E9F1278DDDE4280961F2B3413E2FCED","238e006e-9679-40f3-9ec4-bf2aee47d8cb","ba640c14-69c5-453e-80b2-29051492c0e0","{""num_scrambled_semantic"":""8"",""num_scrambled_causal"":""4"",""num_scrambled_schematic"":""4"",""participantId"":""3E9F1278DDDE4280961F2B3413E2FCED"",""assignmentId"":""238e006e-9679-40f3-9ec4-bf2aee47d8cb"",""projectId"":""ba640c14-69c5-453e-80b2-29051492c0e0""}","https://test12345.live/?num_scrambled_semantic=8&num_scrambled_causal=4&num_scrambled_schematic=4&participantId=3E9F1278DDDE4280961F2B3413E2FCED&assignmentId=238e006e-9679-40f3-9ec4-bf2aee47d8cb&projectId=ba640c14-69c5-453e-80b2-29051492c0e0","3E9F1278DDDE4280961F2B3413E2FCED-2025-05-14-20-57-55","","1233","","images/semantic_sequence/physical_activity_semantic/physical_activity_semantic_4.png","0","",""
"","","","","","image-button-response","30","380161","0.0-10.0-1.0-2.1","3E9F1278DDDE4280961F2B3413E2FCED","3E9F1278DDDE4280961F2B3413E2FCED","238e006e-9679-40f3-9ec4-bf2aee47d8cb","ba640c14-69c5-453e-80b2-29051492c0e0","{""num_scrambled_semantic"":""8"",""num_scrambled_causal"":""4"",""num_scrambled_schematic"":""4"",""participantId"":""3E9F1278DDDE4280961F2B3413E2FCED"",""assignmentId"":""238e006e-9679-40f3-9ec4-bf2aee47d8cb"",""projectId"":""ba640c14-69c5-453e-80b2-29051492c0e0""}","https://test12345.live/?num_scrambled_semantic=8&num_scrambled_causal=4&num_scrambled_schematic=4&participantId=3E9F1278DDDE4280961F2B3413E2FCED&assignmentId=238e006e-9679-40f3-9ec4-bf2aee47d8cb&projectId=ba640c14-69c5-453e-80b2-29051492c0e0","3E9F1278DDDE4280961F2B3413E2FCED-2025-05-14-20-57-55","","null","","[]","null","",""
"","","","","","image-button-response","31","384675","0.0-10.0-1.0-0.2","3E9F1278DDDE4280961F2B3413E2FCED","3E9F1278DDDE4280961F2B3413E2FCED","238e006e-9679-40f3-9ec4-bf2aee47d8cb","ba640c14-69c5-453e-80b2-29051492c0e0","{""num_scrambled_semantic"":""8"",""num_scrambled_causal"":""4"",""num_scrambled_schematic"":""4"",""participantId"":""3E9F1278DDDE4280961F2B3413E2FCED"",""assignmentId"":""238e006e-9679-40f3-9ec4-bf2aee47d8cb"",""projectId"":""ba640c14-69c5-453e-80b2-29051492c0e0""}","https://test12345.live/?num_scrambled_semantic=8&num_scrambled_causal=4&num_scrambled_schematic=4&participantId=3E9F1278DDDE4280961F2B3413E2FCED&assignmentId=238e006e-9679-40f3-9ec4-bf2aee47d8cb&projectId=ba640c14-69c5-453e-80b2-29051492c0e0","3E9F1278DDDE4280961F2B3413E2FCED-2025-05-14-20-57-55","","null","","images/semantic_sequence/physical_activity_semantic/physical_activity_semantic_1.png","null","",""
"","","","","","image-button-response","32","385733","0.0-10.0-1.0-1.2","3E9F1278DDDE4280961F2B3413E2FCED","3E9F1278DDDE4280961F2B3413E2FCED","238e006e-9679-40f3-9ec4-bf2aee47d8cb","ba640c14-69c5-453e-80b2-29051492c0e0","{""num_scrambled_semantic"":""8"",""num_scrambled_causal"":""4"",""num_scrambled_schematic"":""4"",""participantId"":""3E9F1278DDDE4280961F2B3413E2FCED"",""assignmentId"":""238e006e-9679-40f3-9ec4-bf2aee47d8cb"",""projectId"":""ba640c14-69c5-453e-80b2-29051492c0e0""}","https://test12345.live/?num_scrambled_semantic=8&num_scrambled_causal=4&num_scrambled_schematic=4&participantId=3E9F1278DDDE4280961F2B3413E2FCED&assignmentId=238e006e-9679-40f3-9ec4-bf2aee47d8cb&projectId=ba640c14-69c5-453e-80b2-29051492c0e0","3E9F1278DDDE4280961F2B3413E2FCED-2025-05-14-20-57-55","","1057","","images/semantic_sequence/physical_activity_semantic/physical_activity_semantic_1.png","0","",""
"","","","","","image-button-response","33","387540","0.0-10.0-1.0-2.2","3E9F1278DDDE4280961F2B3413E2FCED","3E9F1278DDDE4280961F2B3413E2FCED","238e006e-9679-40f3-9ec4-bf2aee47d8cb","ba640c14-69c5-453e-80b2-29051492c0e0","{""num_scrambled_semantic"":""8"",""num_scrambled_causal"":""4"",""num_scrambled_schematic"":""4"",""participantId"":""3E9F1278DDDE4280961F2B3413E2FCED"",""assignmentId"":""238e006e-9679-40f3-9ec4-bf2aee47d8cb"",""projectId"":""ba640c14-69c5-453e-80b2-29051492c0e0""}","https://test12345.live/?num_scrambled_semantic=8&num_scrambled_causal=4&num_scrambled_schematic=4&participantId=3E9F1278DDDE4280961F2B3413E2FCED&assignmentId=238e006e-9679-40f3-9ec4-bf2aee47d8cb&projectId=ba640c14-69c5-453e-80b2-29051492c0e0","3E9F1278DDDE4280961F2B3413E2FCED-2025-05-14-20-57-55","","null","","[]","null","",""
"","","","","","image-button-response","34","392049","0.0-10.0-1.0-0.3","3E9F1278DDDE4280961F2B3413E2FCED","3E9F1278DDDE4280961F2B3413E2FCED","238e006e-9679-40f3-9ec4-bf2aee47d8cb","ba640c14-69c5-453e-80b2-29051492c0e0","{""num_scrambled_semantic"":""8"",""num_scrambled_causal"":""4"",""num_scrambled_schematic"":""4"",""participantId"":""3E9F1278DDDE4280961F2B3413E2FCED"",""assignmentId"":""238e006e-9679-40f3-9ec4-bf2aee47d8cb"",""projectId"":""ba640c14-69c5-453e-80b2-29051492c0e0""}","https://test12345.live/?num_scrambled_semantic=8&num_scrambled_causal=4&num_scrambled_schematic=4&participantId=3E9F1278DDDE4280961F2B3413E2FCED&assignmentId=238e006e-9679-40f3-9ec4-bf2aee47d8cb&projectId=ba640c14-69c5-453e-80b2-29051492c0e0","3E9F1278DDDE4280961F2B3413E2FCED-2025-05-14-20-57-55","","null","","images/semantic_sequence/physical_activity_semantic/physical_activity_semantic_2.png","null","",""
"","","","","","image-button-response","35","393268","0.0-10.0-1.0-1.3","3E9F1278DDDE4280961F2B3413E2FCED","3E9F1278DDDE4280961F2B3413E2FCED","238e006e-9679-40f3-9ec4-bf2aee47d8cb","ba640c14-69c5-453e-80b2-29051492c0e0","{""num_scrambled_semantic"":""8"",""num_scrambled_causal"":""4"",""num_scrambled_schematic"":""4"",""participantId"":""3E9F1278DDDE4280961F2B3413E2FCED"",""assignmentId"":""238e006e-9679-40f3-9ec4-bf2aee47d8cb"",""projectId"":""ba640c14-69c5-453e-80b2-29051492c0e0""}","https://test12345.live/?num_scrambled_semantic=8&num_scrambled_causal=4&num_scrambled_schematic=4&participantId=3E9F1278DDDE4280961F2B3413E2FCED&assignmentId=238e006e-9679-40f3-9ec4-bf2aee47d8cb&projectId=ba640c14-69c5-453e-80b2-29051492c0e0","3E9F1278DDDE4280961F2B3413E2FCED-2025-05-14-20-57-55","","1218","","images/semantic_sequence/physical_activity_semantic/physical_activity_semantic_2.png","0","",""
"","","","","","image-button-response","36","395075","0.0-10.0-1.0-2.3","3E9F1278DDDE4280961F2B3413E2FCED","3E9F1278DDDE4280961F2B3413E2FCED","238e006e-9679-40f3-9ec4-bf2aee47d8cb","ba640c14-69c5-453e-80b2-29051492c0e0","{""num_scrambled_semantic"":""8"",""num_scrambled_causal"":""4"",""num_scrambled_schematic"":""4"",""participantId"":""3E9F1278DDDE4280961F2B3413E2FCED"",""assignmentId"":""238e006e-9679-40f3-9ec4-bf2aee47d8cb"",""projectId"":""ba640c14-69c5-453e-80b2-29051492c0e0""}","https://test12345.live/?num_scrambled_semantic=8&num_scrambled_causal=4&num_scrambled_schematic=4&participantId=3E9F1278DDDE4280961F2B3413E2FCED&assignmentId=238e006e-9679-40f3-9ec4-bf2aee47d8cb&projectId=ba640c14-69c5-453e-80b2-29051492c0e0","3E9F1278DDDE4280961F2B3413E2FCED-2025-05-14-20-57-55","","null","","[]","null","",""
"","","","","","image-button-response","37","399581","0.0-10.0-1.0-0.4","3E9F1278DDDE4280961F2B3413E2FCED","3E9F1278DDDE4280961F2B3413E2FCED","238e006e-9679-40f3-9ec4-bf2aee47d8cb","ba640c14-69c5-453e-80b2-29051492c0e0","{""num_scrambled_semantic"":""8"",""num_scrambled_causal"":""4"",""num_scrambled_schematic"":""4"",""participantId"":""3E9F1278DDDE4280961F2B3413E2FCED"",""assignmentId"":""238e006e-9679-40f3-9ec4-bf2aee47d8cb"",""projectId"":""ba640c14-69c5-453e-80b2-29051492c0e0""}","https://test12345.live/?num_scrambled_semantic=8&num_scrambled_causal=4&num_scrambled_schematic=4&participantId=3E9F1278DDDE4280961F2B3413E2FCED&assignmentId=238e006e-9679-40f3-9ec4-bf2aee47d8cb&projectId=ba640c14-69c5-453e-80b2-29051492c0e0","3E9F1278DDDE4280961F2B3413E2FCED-2025-05-14-20-57-55","","null","","images/semantic_sequence/physical_activity_semantic/physical_activity_semantic_8.png","null","",""
"","","","","","image-button-response","38","400597","0.0-10.0-1.0-1.4","3E9F1278DDDE4280961F2B3413E2FCED","3E9F1278DDDE4280961F2B3413E2FCED","238e006e-9679-40f3-9ec4-bf2aee47d8cb","ba640c14-69c5-453e-80b2-29051492c0e0","{""num_scrambled_semantic"":""8"",""num_scrambled_causal"":""4"",""num_scrambled_schematic"":""4"",""participantId"":""3E9F1278DDDE4280961F2B3413E2FCED"",""assignmentId"":""238e006e-9679-40f3-9ec4-bf2aee47d8cb"",""projectId"":""ba640c14-69c5-453e-80b2-29051492c0e0""}","https://test12345.live/?num_scrambled_semantic=8&num_scrambled_causal=4&num_scrambled_schematic=4&participantId=3E9F1278DDDE4280961F2B3413E2FCED&assignmentId=238e006e-9679-40f3-9ec4-bf2aee47d8cb&projectId=ba640c14-69c5-453e-80b2-29051492c0e0","3E9F1278DDDE4280961F2B3413E2FCED-2025-05-14-20-57-55","","1015","","images/semantic_sequence/physical_activity_semantic/physical_activity_semantic_8.png","0","",""
"","","","","","image-button-response","39","402403","0.0-10.0-1.0-2.4","3E9F1278DDDE4280961F2B3413E2FCED","3E9F1278DDDE4280961F2B3413E2FCED","238e006e-9679-40f3-9ec4-bf2aee47d8cb","ba640c14-69c5-453e-80b2-29051492c0e0","{""num_scrambled_semantic"":""8"",""num_scrambled_causal"":""4"",""num_scrambled_schematic"":""4"",""participantId"":""3E9F1278DDDE4280961F2B3413E2FCED"",""assignmentId"":""238e006e-9679-40f3-9ec4-bf2aee47d8cb"",""projectId"":""ba640c14-69c5-453e-80b2-29051492c0e0""}","https://test12345.live/?num_scrambled_semantic=8&num_scrambled_causal=4&num_scrambled_schematic=4&participantId=3E9F1278DDDE4280961F2B3413E2FCED&assignmentId=238e006e-9679-40f3-9ec4-bf2aee47d8cb&projectId=ba640c14-69c5-453e-80b2-29051492c0e0","3E9F1278DDDE4280961F2B3413E2FCED-2025-05-14-20-57-55","","null","","[]","null","",""
"","","","","","image-button-response","40","406914","0.0-10.0-1.0-0.5","3E9F1278DDDE4280961F2B3413E2FCED","3E9F1278DDDE4280961F2B3413E2FCED","238e006e-9679-40f3-9ec4-bf2aee47d8cb","ba640c14-69c5-453e-80b2-29051492c0e0","{""num_scrambled_semantic"":""8"",""num_scrambled_causal"":""4"",""num_scrambled_schematic"":""4"",""participantId"":""3E9F1278DDDE4280961F2B3413E2FCED"",""assignmentId"":""238e006e-9679-40f3-9ec4-bf2aee47d8cb"",""projectId"":""ba640c14-69c5-453e-80b2-29051492c0e0""}","https://test12345.live/?num_scrambled_semantic=8&num_scrambled_causal=4&num_scrambled_schematic=4&participantId=3E9F1278DDDE4280961F2B3413E2FCED&assignmentId=238e006e-9679-40f3-9ec4-bf2aee47d8cb&projectId=ba640c14-69c5-453e-80b2-29051492c0e0","3E9F1278DDDE4280961F2B3413E2FCED-2025-05-14-20-57-55","","null","","images/semantic_sequence/physical_activity_semantic/physical_activity_semantic_3.png","null","",""
"","","","","","image-button-response","41","407988","0.0-10.0-1.0-1.5","3E9F1278DDDE4280961F2B3413E2FCED","3E9F1278DDDE4280961F2B3413E2FCED","238e006e-9679-40f3-9ec4-bf2aee47d8cb","ba640c14-69c5-453e-80b2-29051492c0e0","{""num_scrambled_semantic"":""8"",""num_scrambled_causal"":""4"",""num_scrambled_schematic"":""4"",""participantId"":""3E9F1278DDDE4280961F2B3413E2FCED"",""assignmentId"":""238e006e-9679-40f3-9ec4-bf2aee47d8cb"",""projectId"":""ba640c14-69c5-453e-80b2-29051492c0e0""}","https://test12345.live/?num_scrambled_semantic=8&num_scrambled_causal=4&num_scrambled_schematic=4&participantId=3E9F1278DDDE4280961F2B3413E2FCED&assignmentId=238e006e-9679-40f3-9ec4-bf2aee47d8cb&projectId=ba640c14-69c5-453e-80b2-29051492c0e0","3E9F1278DDDE4280961F2B3413E2FCED-2025-05-14-20-57-55","","1072","","images/semantic_sequence/physical_activity_semantic/physical_activity_semantic_3.png","0","",""
"","","","","","image-button-response","42","409794","0.0-10.0-1.0-2.5","3E9F1278DDDE4280961F2B3413E2FCED","3E9F1278DDDE4280961F2B3413E2FCED","238e006e-9679-40f3-9ec4-bf2aee47d8cb","ba640c14-69c5-453e-80b2-29051492c0e0","{""num_scrambled_semantic"":""8"",""num_scrambled_causal"":""4"",""num_scrambled_schematic"":""4"",""participantId"":""3E9F1278DDDE4280961F2B3413E2FCED"",""assignmentId"":""238e006e-9679-40f3-9ec4-bf2aee47d8cb"",""projectId"":""ba640c14-69c5-453e-80b2-29051492c0e0""}","https://test12345.live/?num_scrambled_semantic=8&num_scrambled_causal=4&num_scrambled_schematic=4&participantId=3E9F1278DDDE4280961F2B3413E2FCED&assignmentId=238e006e-9679-40f3-9ec4-bf2aee47d8cb&projectId=ba640c14-69c5-453e-80b2-29051492c0e0","3E9F1278DDDE4280961F2B3413E2FCED-2025-05-14-20-57-55","","null","","[]","null","",""
"","","","","","image-button-response","43","414305","0.0-10.0-1.0-0.6","3E9F1278DDDE4280961F2B3413E2FCED","3E9F1278DDDE4280961F2B3413E2FCED","238e006e-9679-40f3-9ec4-bf2aee47d8cb","ba640c14-69c5-453e-80b2-29051492c0e0","{""num_scrambled_semantic"":""8"",""num_scrambled_causal"":""4"",""num_scrambled_schematic"":""4"",""participantId"":""3E9F1278DDDE4280961F2B3413E2FCED"",""assignmentId"":""238e006e-9679-40f3-9ec4-bf2aee47d8cb"",""projectId"":""ba640c14-69c5-453e-80b2-29051492c0e0""}","https://test12345.live/?num_scrambled_semantic=8&num_scrambled_causal=4&num_scrambled_schematic=4&participantId=3E9F1278DDDE4280961F2B3413E2FCED&assignmentId=238e006e-9679-40f3-9ec4-bf2aee47d8cb&projectId=ba640c14-69c5-453e-80b2-29051492c0e0","3E9F1278DDDE4280961F2B3413E2FCED-2025-05-14-20-57-55","","null","","images/semantic_sequence/physical_activity_semantic/physical_activity_semantic_5.png","null","",""
"","","","","","image-button-response","44","415555","0.0-10.0-1.0-1.6","3E9F1278DDDE4280961F2B3413E2FCED","3E9F1278DDDE4280961F2B3413E2FCED","238e006e-9679-40f3-9ec4-bf2aee47d8cb","ba640c14-69c5-453e-80b2-29051492c0e0","{""num_scrambled_semantic"":""8"",""num_scrambled_causal"":""4"",""num_scrambled_schematic"":""4"",""participantId"":""3E9F1278DDDE4280961F2B3413E2FCED"",""assignmentId"":""238e006e-9679-40f3-9ec4-bf2aee47d8cb"",""projectId"":""ba640c14-69c5-453e-80b2-29051492c0e0""}","https://test12345.live/?num_scrambled_semantic=8&num_scrambled_causal=4&num_scrambled_schematic=4&participantId=3E9F1278DDDE4280961F2B3413E2FCED&assignmentId=238e006e-9679-40f3-9ec4-bf2aee47d8cb&projectId=ba640c14-69c5-453e-80b2-29051492c0e0","3E9F1278DDDE4280961F2B3413E2FCED-2025-05-14-20-57-55","","1248","","images/semantic_sequence/physical_activity_semantic/physical_activity_semantic_5.png","0","",""
"","","","","","image-button-response","45","417364","0.0-10.0-1.0-2.6","3E9F1278DDDE4280961F2B3413E2FCED","3E9F1278DDDE4280961F2B3413E2FCED","238e006e-9679-40f3-9ec4-bf2aee47d8cb","ba640c14-69c5-453e-80b2-29051492c0e0","{""num_scrambled_semantic"":""8"",""num_scrambled_causal"":""4"",""num_scrambled_schematic"":""4"",""participantId"":""3E9F1278DDDE4280961F2B3413E2FCED"",""assignmentId"":""238e006e-9679-40f3-9ec4-bf2aee47d8cb"",""projectId"":""ba640c14-69c5-453e-80b2-29051492c0e0""}","https://test12345.live/?num_scrambled_semantic=8&num_scrambled_causal=4&num_scrambled_schematic=4&participantId=3E9F1278DDDE4280961F2B3413E2FCED&assignmentId=238e006e-9679-40f3-9ec4-bf2aee47d8cb&projectId=ba640c14-69c5-453e-80b2-29051492c0e0","3E9F1278DDDE4280961F2B3413E2FCED-2025-05-14-20-57-55","","null","","[]","null","",""
"","","","","","image-button-response","46","421871","0.0-10.0-1.0-0.7","3E9F1278DDDE4280961F2B3413E2FCED","3E9F1278DDDE4280961F2B3413E2FCED","238e006e-9679-40f3-9ec4-bf2aee47d8cb","ba640c14-69c5-453e-80b2-29051492c0e0","{""num_scrambled_semantic"":""8"",""num_scrambled_causal"":""4"",""num_scrambled_schematic"":""4"",""participantId"":""3E9F1278DDDE4280961F2B3413E2FCED"",""assignmentId"":""238e006e-9679-40f3-9ec4-bf2aee47d8cb"",""projectId"":""ba640c14-69c5-453e-80b2-29051492c0e0""}","https://test12345.live/?num_scrambled_semantic=8&num_scrambled_causal=4&num_scrambled_schematic=4&participantId=3E9F1278DDDE4280961F2B3413E2FCED&assignmentId=238e006e-9679-40f3-9ec4-bf2aee47d8cb&projectId=ba640c14-69c5-453e-80b2-29051492c0e0","3E9F1278DDDE4280961F2B3413E2FCED-2025-05-14-20-57-55","","null","","images/semantic_sequence/physical_activity_semantic/physical_activity_semantic_7.png","null","",""
"","","","","","image-button-response","47","422963","0.0-10.0-1.0-1.7","3E9F1278DDDE4280961F2B3413E2FCED","3E9F1278DDDE4280961F2B3413E2FCED","238e006e-9679-40f3-9ec4-bf2aee47d8cb","ba640c14-69c5-453e-80b2-29051492c0e0","{""num_scrambled_semantic"":""8"",""num_scrambled_causal"":""4"",""num_scrambled_schematic"":""4"",""participantId"":""3E9F1278DDDE4280961F2B3413E2FCED"",""assignmentId"":""238e006e-9679-40f3-9ec4-bf2aee47d8cb"",""projectId"":""ba640c14-69c5-453e-80b2-29051492c0e0""}","https://test12345.live/?num_scrambled_semantic=8&num_scrambled_causal=4&num_scrambled_schematic=4&participantId=3E9F1278DDDE4280961F2B3413E2FCED&assignmentId=238e006e-9679-40f3-9ec4-bf2aee47d8cb&projectId=ba640c14-69c5-453e-80b2-29051492c0e0","3E9F1278DDDE4280961F2B3413E2FCED-2025-05-14-20-57-55","","1091","","images/semantic_sequence/physical_activity_semantic/physical_activity_semantic_7.png","0","",""
"","","","","","image-button-response","48","424771","0.0-10.0-1.0-2.7","3E9F1278DDDE4280961F2B3413E2FCED","3E9F1278DDDE4280961F2B3413E2FCED","238e006e-9679-40f3-9ec4-bf2aee47d8cb","ba640c14-69c5-453e-80b2-29051492c0e0","{""num_scrambled_semantic"":""8"",""num_scrambled_causal"":""4"",""num_scrambled_schematic"":""4"",""participantId"":""3E9F1278DDDE4280961F2B3413E2FCED"",""assignmentId"":""238e006e-9679-40f3-9ec4-bf2aee47d8cb"",""projectId"":""ba640c14-69c5-453e-80b2-29051492c0e0""}","https://test12345.live/?num_scrambled_semantic=8&num_scrambled_causal=4&num_scrambled_schematic=4&participantId=3E9F1278DDDE4280961F2B3413E2FCED&assignmentId=238e006e-9679-40f3-9ec4-bf2aee47d8cb&projectId=ba640c14-69c5-453e-80b2-29051492c0e0","3E9F1278DDDE4280961F2B3413E2FCED-2025-05-14-20-57-55","","null","","[]","null","",""
"","","","","","image-button-response","49","429289","0.0-10.0-1.0-0.8","3E9F1278DDDE4280961F2B3413E2FCED","3E9F1278DDDE4280961F2B3413E2FCED","238e006e-9679-40f3-9ec4-bf2aee47d8cb","ba640c14-69c5-453e-80b2-29051492c0e0","{""num_scrambled_semantic"":""8"",""num_scrambled_causal"":""4"",""num_scrambled_schematic"":""4"",""participantId"":""3E9F1278DDDE4280961F2B3413E2FCED"",""assignmentId"":""238e006e-9679-40f3-9ec4-bf2aee47d8cb"",""projectId"":""ba640c14-69c5-453e-80b2-29051492c0e0""}","https://test12345.live/?num_scrambled_semantic=8&num_scrambled_causal=4&num_scrambled_schematic=4&participantId=3E9F1278DDDE4280961F2B3413E2FCED&assignmentId=238e006e-9679-40f3-9ec4-bf2aee47d8cb&projectId=ba640c14-69c5-453e-80b2-29051492c0e0","3E9F1278DDDE4280961F2B3413E2FCED-2025-05-14-20-57-55","","null","","images/semantic_sequence/physical_activity_semantic/physical_activity_semantic_ten.png","null","",""
"","","","","","image-button-response","50","430276","0.0-10.0-1.0-1.8","3E9F1278DDDE4280961F2B3413E2FCED","3E9F1278DDDE4280961F2B3413E2FCED","238e006e-9679-40f3-9ec4-bf2aee47d8cb","ba640c14-69c5-453e-80b2-29051492c0e0","{""num_scrambled_semantic"":""8"",""num_scrambled_causal"":""4"",""num_scrambled_schematic"":""4"",""participantId"":""3E9F1278DDDE4280961F2B3413E2FCED"",""assignmentId"":""238e006e-9679-40f3-9ec4-bf2aee47d8cb"",""projectId"":""ba640c14-69c5-453e-80b2-29051492c0e0""}","https://test12345.live/?num_scrambled_semantic=8&num_scrambled_causal=4&num_scrambled_schematic=4&participantId=3E9F1278DDDE4280961F2B3413E2FCED&assignmentId=238e006e-9679-40f3-9ec4-bf2aee47d8cb&projectId=ba640c14-69c5-453e-80b2-29051492c0e0","3E9F1278DDDE4280961F2B3413E2FCED-2025-05-14-20-57-55","","985","","images/semantic_sequence/physical_activity_semantic/physical_activity_semantic_ten.png","0","",""
"","","","","","image-button-response","51","432084","0.0-10.0-1.0-2.8","3E9F1278DDDE4280961F2B3413E2FCED","3E9F1278DDDE4280961F2B3413E2FCED","238e006e-9679-40f3-9ec4-bf2aee47d8cb","ba640c14-69c5-453e-80b2-29051492c0e0","{""num_scrambled_semantic"":""8"",""num_scrambled_causal"":""4"",""num_scrambled_schematic"":""4"",""participantId"":""3E9F1278DDDE4280961F2B3413E2FCED"",""assignmentId"":""238e006e-9679-40f3-9ec4-bf2aee47d8cb"",""projectId"":""ba640c14-69c5-453e-80b2-29051492c0e0""}","https://test12345.live/?num_scrambled_semantic=8&num_scrambled_causal=4&num_scrambled_schematic=4&participantId=3E9F1278DDDE4280961F2B3413E2FCED&assignmentId=238e006e-9679-40f3-9ec4-bf2aee47d8cb&projectId=ba640c14-69c5-453e-80b2-29051492c0e0","3E9F1278DDDE4280961F2B3413E2FCED-2025-05-14-20-57-55","","null","","[]","null","",""
"","","","","","image-button-response","52","436599","0.0-10.0-1.0-0.9","3E9F1278DDDE4280961F2B3413E2FCED","3E9F1278DDDE4280961F2B3413E2FCED","238e006e-9679-40f3-9ec4-bf2aee47d8cb","ba640c14-69c5-453e-80b2-29051492c0e0","{""num_scrambled_semantic"":""8"",""num_scrambled_causal"":""4"",""num_scrambled_schematic"":""4"",""participantId"":""3E9F1278DDDE4280961F2B3413E2FCED"",""assignmentId"":""238e006e-9679-40f3-9ec4-bf2aee47d8cb"",""projectId"":""ba640c14-69c5-453e-80b2-29051492c0e0""}","https://test12345.live/?num_scrambled_semantic=8&num_scrambled_causal=4&num_scrambled_schematic=4&participantId=3E9F1278DDDE4280961F2B3413E2FCED&assignmentId=238e006e-9679-40f3-9ec4-bf2aee47d8cb&projectId=ba640c14-69c5-453e-80b2-29051492c0e0","3E9F1278DDDE4280961F2B3413E2FCED-2025-05-14-20-57-55","","null","","images/semantic_sequence/physical_activity_semantic/physical_activity_semantic_6.png","null","",""
"","","","","","image-button-response","53","437460","0.0-10.0-1.0-1.9","3E9F1278DDDE4280961F2B3413E2FCED","3E9F1278DDDE4280961F2B3413E2FCED","238e006e-9679-40f3-9ec4-bf2aee47d8cb","ba640c14-69c5-453e-80b2-29051492c0e0","{""num_scrambled_semantic"":""8"",""num_scrambled_causal"":""4"",""num_scrambled_schematic"":""4"",""participantId"":""3E9F1278DDDE4280961F2B3413E2FCED"",""assignmentId"":""238e006e-9679-40f3-9ec4-bf2aee47d8cb"",""projectId"":""ba640c14-69c5-453e-80b2-29051492c0e0""}","https://test12345.live/?num_scrambled_semantic=8&num_scrambled_causal=4&num_scrambled_schematic=4&participantId=3E9F1278DDDE4280961F2B3413E2FCED&assignmentId=238e006e-9679-40f3-9ec4-bf2aee47d8cb&projectId=ba640c14-69c5-453e-80b2-29051492c0e0","3E9F1278DDDE4280961F2B3413E2FCED-2025-05-14-20-57-55","","859","","images/semantic_sequence/physical_activity_semantic/physical_activity_semantic_6.png","0","",""
"","","","","","image-button-response","54","439268","0.0-10.0-1.0-2.9","3E9F1278DDDE4280961F2B3413E2FCED","3E9F1278DDDE4280961F2B3413E2FCED","238e006e-9679-40f3-9ec4-bf2aee47d8cb","ba640c14-69c5-453e-80b2-29051492c0e0","{""num_scrambled_semantic"":""8"",""num_scrambled_causal"":""4"",""num_scrambled_schematic"":""4"",""participantId"":""3E9F1278DDDE4280961F2B3413E2FCED"",""assignmentId"":""238e006e-9679-40f3-9ec4-bf2aee47d8cb"",""projectId"":""ba640c14-69c5-453e-80b2-29051492c0e0""}","https://test12345.live/?num_scrambled_semantic=8&num_scrambled_causal=4&num_scrambled_schematic=4&participantId=3E9F1278DDDE4280961F2B3413E2FCED&assignmentId=238e006e-9679-40f3-9ec4-bf2aee47d8cb&projectId=ba640c14-69c5-453e-80b2-29051492c0e0","3E9F1278DDDE4280961F2B3413E2FCED-2025-05-14-20-57-55","","null","","[]","null","",""
"","","","","","html-audio-response","55","464320","0.0-11.0","3E9F1278DDDE4280961F2B3413E2FCED","3E9F1278DDDE4280961F2B3413E2FCED","238e006e-9679-40f3-9ec4-bf2aee47d8cb","ba640c14-69c5-453e-80b2-29051492c0e0","{""num_scrambled_semantic"":""8"",""num_scrambled_causal"":""4"",""num_scrambled_schematic"":""4"",""participantId"":""3E9F1278DDDE4280961F2B3413E2FCED"",""assignmentId"":""238e006e-9679-40f3-9ec4-bf2aee47d8cb"",""projectId"":""ba640c14-69c5-453e-80b2-29051492c0e0""}","https://test12345.live/?num_scrambled_semantic=8&num_scrambled_causal=4&num_scrambled_schematic=4&participantId=3E9F1278DDDE4280961F2B3413E2FCED&assignmentId=238e006e-9679-40f3-9ec4-bf2aee47d8cb&projectId=ba640c14-69c5-453e-80b2-29051492c0e0","3E9F1278DDDE4280961F2B3413E2FCED-2025-05-14-20-57-55","","23181","","[""<span style=\""color: red; font-size: 24px\""> NOW RECORDING</span><p>Please say out loud all the images you saw, as many as you can remember. The images can be said in any order.</p>""]","","1","physical_activity_semantic"
"","","","","","image-button-response","56","470336","0.0-12.0-0.0","3E9F1278DDDE4280961F2B3413E2FCED","3E9F1278DDDE4280961F2B3413E2FCED","238e006e-9679-40f3-9ec4-bf2aee47d8cb","ba640c14-69c5-453e-80b2-29051492c0e0","{""num_scrambled_semantic"":""8"",""num_scrambled_causal"":""4"",""num_scrambled_schematic"":""4"",""participantId"":""3E9F1278DDDE4280961F2B3413E2FCED"",""assignmentId"":""238e006e-9679-40f3-9ec4-bf2aee47d8cb"",""projectId"":""ba640c14-69c5-453e-80b2-29051492c0e0""}","https://test12345.live/?num_scrambled_semantic=8&num_scrambled_causal=4&num_scrambled_schematic=4&participantId=3E9F1278DDDE4280961F2B3413E2FCED&assignmentId=238e006e-9679-40f3-9ec4-bf2aee47d8cb&projectId=ba640c14-69c5-453e-80b2-29051492c0e0","3E9F1278DDDE4280961F2B3413E2FCED-2025-05-14-20-57-55","","null","","images/schematic_sequence/flight_scheme/flight_scheme_0.png","null","",""
"","","","","","image-button-response","57","474852","0.0-12.0-1.0-0.0","3E9F1278DDDE4280961F2B3413E2FCED","3E9F1278DDDE4280961F2B3413E2FCED","238e006e-9679-40f3-9ec4-bf2aee47d8cb","ba640c14-69c5-453e-80b2-29051492c0e0","{""num_scrambled_semantic"":""8"",""num_scrambled_causal"":""4"",""num_scrambled_schematic"":""4"",""participantId"":""3E9F1278DDDE4280961F2B3413E2FCED"",""assignmentId"":""238e006e-9679-40f3-9ec4-bf2aee47d8cb"",""projectId"":""ba640c14-69c5-453e-80b2-29051492c0e0""}","https://test12345.live/?num_scrambled_semantic=8&num_scrambled_causal=4&num_scrambled_schematic=4&participantId=3E9F1278DDDE4280961F2B3413E2FCED&assignmentId=238e006e-9679-40f3-9ec4-bf2aee47d8cb&projectId=ba640c14-69c5-453e-80b2-29051492c0e0","3E9F1278DDDE4280961F2B3413E2FCED-2025-05-14-20-57-55","","null","","images/schematic_sequence/flight_scheme/flight_scheme_1.png","null","",""
"","","","","","image-button-response","58","477278","0.0-12.0-1.0-1.0","3E9F1278DDDE4280961F2B3413E2FCED","3E9F1278DDDE4280961F2B3413E2FCED","238e006e-9679-40f3-9ec4-bf2aee47d8cb","ba640c14-69c5-453e-80b2-29051492c0e0","{""num_scrambled_semantic"":""8"",""num_scrambled_causal"":""4"",""num_scrambled_schematic"":""4"",""participantId"":""3E9F1278DDDE4280961F2B3413E2FCED"",""assignmentId"":""238e006e-9679-40f3-9ec4-bf2aee47d8cb"",""projectId"":""ba640c14-69c5-453e-80b2-29051492c0e0""}","https://test12345.live/?num_scrambled_semantic=8&num_scrambled_causal=4&num_scrambled_schematic=4&participantId=3E9F1278DDDE4280961F2B3413E2FCED&assignmentId=238e006e-9679-40f3-9ec4-bf2aee47d8cb&projectId=ba640c14-69c5-453e-80b2-29051492c0e0","3E9F1278DDDE4280961F2B3413E2FCED-2025-05-14-20-57-55","","2425","","images/schematic_sequence/flight_scheme/flight_scheme_1.png","0","",""
"","","","","","image-button-response","59","479091","0.0-12.0-1.0-2.0","3E9F1278DDDE4280961F2B3413E2FCED","3E9F1278DDDE4280961F2B3413E2FCED","238e006e-9679-40f3-9ec4-bf2aee47d8cb","ba640c14-69c5-453e-80b2-29051492c0e0","{""num_scrambled_semantic"":""8"",""num_scrambled_causal"":""4"",""num_scrambled_schematic"":""4"",""participantId"":""3E9F1278DDDE4280961F2B3413E2FCED"",""assignmentId"":""238e006e-9679-40f3-9ec4-bf2aee47d8cb"",""projectId"":""ba640c14-69c5-453e-80b2-29051492c0e0""}","https://test12345.live/?num_scrambled_semantic=8&num_scrambled_causal=4&num_scrambled_schematic=4&participantId=3E9F1278DDDE4280961F2B3413E2FCED&assignmentId=238e006e-9679-40f3-9ec4-bf2aee47d8cb&projectId=ba640c14-69c5-453e-80b2-29051492c0e0","3E9F1278DDDE4280961F2B3413E2FCED-2025-05-14-20-57-55","","null","","[]","null","",""
"","","","","","image-button-response","60","483605","0.0-12.0-1.0-0.1","3E9F1278DDDE4280961F2B3413E2FCED","3E9F1278DDDE4280961F2B3413E2FCED","238e006e-9679-40f3-9ec4-bf2aee47d8cb","ba640c14-69c5-453e-80b2-29051492c0e0","{""num_scrambled_semantic"":""8"",""num_scrambled_causal"":""4"",""num_scrambled_schematic"":""4"",""participantId"":""3E9F1278DDDE4280961F2B3413E2FCED"",""assignmentId"":""238e006e-9679-40f3-9ec4-bf2aee47d8cb"",""projectId"":""ba640c14-69c5-453e-80b2-29051492c0e0""}","https://test12345.live/?num_scrambled_semantic=8&num_scrambled_causal=4&num_scrambled_schematic=4&participantId=3E9F1278DDDE4280961F2B3413E2FCED&assignmentId=238e006e-9679-40f3-9ec4-bf2aee47d8cb&projectId=ba640c14-69c5-453e-80b2-29051492c0e0","3E9F1278DDDE4280961F2B3413E2FCED-2025-05-14-20-57-55","","null","","images/schematic_sequence/flight_scheme/flight_scheme_2.png","null","",""
"","","","","","image-button-response","61","484739","0.0-12.0-1.0-1.1","3E9F1278DDDE4280961F2B3413E2FCED","3E9F1278DDDE4280961F2B3413E2FCED","238e006e-9679-40f3-9ec4-bf2aee47d8cb","ba640c14-69c5-453e-80b2-29051492c0e0","{""num_scrambled_semantic"":""8"",""num_scrambled_causal"":""4"",""num_scrambled_schematic"":""4"",""participantId"":""3E9F1278DDDE4280961F2B3413E2FCED"",""assignmentId"":""238e006e-9679-40f3-9ec4-bf2aee47d8cb"",""projectId"":""ba640c14-69c5-453e-80b2-29051492c0e0""}","https://test12345.live/?num_scrambled_semantic=8&num_scrambled_causal=4&num_scrambled_schematic=4&participantId=3E9F1278DDDE4280961F2B3413E2FCED&assignmentId=238e006e-9679-40f3-9ec4-bf2aee47d8cb&projectId=ba640c14-69c5-453e-80b2-29051492c0e0","3E9F1278DDDE4280961F2B3413E2FCED-2025-05-14-20-57-55","","1132","","images/schematic_sequence/flight_scheme/flight_scheme_2.png","0","",""
"","","","","","image-button-response","62","486547","0.0-12.0-1.0-2.1","3E9F1278DDDE4280961F2B3413E2FCED","3E9F1278DDDE4280961F2B3413E2FCED","238e006e-9679-40f3-9ec4-bf2aee47d8cb","ba640c14-69c5-453e-80b2-29051492c0e0","{""num_scrambled_semantic"":""8"",""num_scrambled_causal"":""4"",""num_scrambled_schematic"":""4"",""participantId"":""3E9F1278DDDE4280961F2B3413E2FCED"",""assignmentId"":""238e006e-9679-40f3-9ec4-bf2aee47d8cb"",""projectId"":""ba640c14-69c5-453e-80b2-29051492c0e0""}","https://test12345.live/?num_scrambled_semantic=8&num_scrambled_causal=4&num_scrambled_schematic=4&participantId=3E9F1278DDDE4280961F2B3413E2FCED&assignmentId=238e006e-9679-40f3-9ec4-bf2aee47d8cb&projectId=ba640c14-69c5-453e-80b2-29051492c0e0","3E9F1278DDDE4280961F2B3413E2FCED-2025-05-14-20-57-55","","null","","[]","null","",""
"","","","","","image-button-response","63","491065","0.0-12.0-1.0-0.2","3E9F1278DDDE4280961F2B3413E2FCED","3E9F1278DDDE4280961F2B3413E2FCED","238e006e-9679-40f3-9ec4-bf2aee47d8cb","ba640c14-69c5-453e-80b2-29051492c0e0","{""num_scrambled_semantic"":""8"",""num_scrambled_causal"":""4"",""num_scrambled_schematic"":""4"",""participantId"":""3E9F1278DDDE4280961F2B3413E2FCED"",""assignmentId"":""238e006e-9679-40f3-9ec4-bf2aee47d8cb"",""projectId"":""ba640c14-69c5-453e-80b2-29051492c0e0""}","https://test12345.live/?num_scrambled_semantic=8&num_scrambled_causal=4&num_scrambled_schematic=4&participantId=3E9F1278DDDE4280961F2B3413E2FCED&assignmentId=238e006e-9679-40f3-9ec4-bf2aee47d8cb&projectId=ba640c14-69c5-453e-80b2-29051492c0e0","3E9F1278DDDE4280961F2B3413E2FCED-2025-05-14-20-57-55","","null","","images/schematic_sequence/flight_scheme/flight_scheme_3.png","null","",""
"","","","","","image-button-response","64","492677","0.0-12.0-1.0-1.2","3E9F1278DDDE4280961F2B3413E2FCED","3E9F1278DDDE4280961F2B3413E2FCED","238e006e-9679-40f3-9ec4-bf2aee47d8cb","ba640c14-69c5-453e-80b2-29051492c0e0","{""num_scrambled_semantic"":""8"",""num_scrambled_causal"":""4"",""num_scrambled_schematic"":""4"",""participantId"":""3E9F1278DDDE4280961F2B3413E2FCED"",""assignmentId"":""238e006e-9679-40f3-9ec4-bf2aee47d8cb"",""projectId"":""ba640c14-69c5-453e-80b2-29051492c0e0""}","https://test12345.live/?num_scrambled_semantic=8&num_scrambled_causal=4&num_scrambled_schematic=4&participantId=3E9F1278DDDE4280961F2B3413E2FCED&assignmentId=238e006e-9679-40f3-9ec4-bf2aee47d8cb&projectId=ba640c14-69c5-453e-80b2-29051492c0e0","3E9F1278DDDE4280961F2B3413E2FCED-2025-05-14-20-57-55","","1611","","images/schematic_sequence/flight_scheme/flight_scheme_3.png","0","",""
"","","","","","image-button-response","65","494482","0.0-12.0-1.0-2.2","3E9F1278DDDE4280961F2B3413E2FCED","3E9F1278DDDE4280961F2B3413E2FCED","238e006e-9679-40f3-9ec4-bf2aee47d8cb","ba640c14-69c5-453e-80b2-29051492c0e0","{""num_scrambled_semantic"":""8"",""num_scrambled_causal"":""4"",""num_scrambled_schematic"":""4"",""participantId"":""3E9F1278DDDE4280961F2B3413E2FCED"",""assignmentId"":""238e006e-9679-40f3-9ec4-bf2aee47d8cb"",""projectId"":""ba640c14-69c5-453e-80b2-29051492c0e0""}","https://test12345.live/?num_scrambled_semantic=8&num_scrambled_causal=4&num_scrambled_schematic=4&participantId=3E9F1278DDDE4280961F2B3413E2FCED&assignmentId=238e006e-9679-40f3-9ec4-bf2aee47d8cb&projectId=ba640c14-69c5-453e-80b2-29051492c0e0","3E9F1278DDDE4280961F2B3413E2FCED-2025-05-14-20-57-55","","null","","[]","null","",""
"","","","","","image-button-response","66","498984","0.0-12.0-1.0-0.3","3E9F1278DDDE4280961F2B3413E2FCED","3E9F1278DDDE4280961F2B3413E2FCED","238e006e-9679-40f3-9ec4-bf2aee47d8cb","ba640c14-69c5-453e-80b2-29051492c0e0","{""num_scrambled_semantic"":""8"",""num_scrambled_causal"":""4"",""num_scrambled_schematic"":""4"",""participantId"":""3E9F1278DDDE4280961F2B3413E2FCED"",""assignmentId"":""238e006e-9679-40f3-9ec4-bf2aee47d8cb"",""projectId"":""ba640c14-69c5-453e-80b2-29051492c0e0""}","https://test12345.live/?num_scrambled_semantic=8&num_scrambled_causal=4&num_scrambled_schematic=4&participantId=3E9F1278DDDE4280961F2B3413E2FCED&assignmentId=238e006e-9679-40f3-9ec4-bf2aee47d8cb&projectId=ba640c14-69c5-453e-80b2-29051492c0e0","3E9F1278DDDE4280961F2B3413E2FCED-2025-05-14-20-57-55","","null","","images/schematic_sequence/flight_scheme/flight_scheme_4.png","null","",""
"","","","","","image-button-response","67","500421","0.0-12.0-1.0-1.3","3E9F1278DDDE4280961F2B3413E2FCED","3E9F1278DDDE4280961F2B3413E2FCED","238e006e-9679-40f3-9ec4-bf2aee47d8cb","ba640c14-69c5-453e-80b2-29051492c0e0","{""num_scrambled_semantic"":""8"",""num_scrambled_causal"":""4"",""num_scrambled_schematic"":""4"",""participantId"":""3E9F1278DDDE4280961F2B3413E2FCED"",""assignmentId"":""238e006e-9679-40f3-9ec4-bf2aee47d8cb"",""projectId"":""ba640c14-69c5-453e-80b2-29051492c0e0""}","https://test12345.live/?num_scrambled_semantic=8&num_scrambled_causal=4&num_scrambled_schematic=4&participantId=3E9F1278DDDE4280961F2B3413E2FCED&assignmentId=238e006e-9679-40f3-9ec4-bf2aee47d8cb&projectId=ba640c14-69c5-453e-80b2-29051492c0e0","3E9F1278DDDE4280961F2B3413E2FCED-2025-05-14-20-57-55","","1436","","images/schematic_sequence/flight_scheme/flight_scheme_4.png","0","",""
"","","","","","image-button-response","68","502226","0.0-12.0-1.0-2.3","3E9F1278DDDE4280961F2B3413E2FCED","3E9F1278DDDE4280961F2B3413E2FCED","238e006e-9679-40f3-9ec4-bf2aee47d8cb","ba640c14-69c5-453e-80b2-29051492c0e0","{""num_scrambled_semantic"":""8"",""num_scrambled_causal"":""4"",""num_scrambled_schematic"":""4"",""participantId"":""3E9F1278DDDE4280961F2B3413E2FCED"",""assignmentId"":""238e006e-9679-40f3-9ec4-bf2aee47d8cb"",""projectId"":""ba640c14-69c5-453e-80b2-29051492c0e0""}","https://test12345.live/?num_scrambled_semantic=8&num_scrambled_causal=4&num_scrambled_schematic=4&participantId=3E9F1278DDDE4280961F2B3413E2FCED&assignmentId=238e006e-9679-40f3-9ec4-bf2aee47d8cb&projectId=ba640c14-69c5-453e-80b2-29051492c0e0","3E9F1278DDDE4280961F2B3413E2FCED-2025-05-14-20-57-55","","null","","[]","null","",""
"","","","","","image-button-response","69","506740","0.0-12.0-1.0-0.4","3E9F1278DDDE4280961F2B3413E2FCED","3E9F1278DDDE4280961F2B3413E2FCED","238e006e-9679-40f3-9ec4-bf2aee47d8cb","ba640c14-69c5-453e-80b2-29051492c0e0","{""num_scrambled_semantic"":""8"",""num_scrambled_causal"":""4"",""num_scrambled_schematic"":""4"",""participantId"":""3E9F1278DDDE4280961F2B3413E2FCED"",""assignmentId"":""238e006e-9679-40f3-9ec4-bf2aee47d8cb"",""projectId"":""ba640c14-69c5-453e-80b2-29051492c0e0""}","https://test12345.live/?num_scrambled_semantic=8&num_scrambled_causal=4&num_scrambled_schematic=4&participantId=3E9F1278DDDE4280961F2B3413E2FCED&assignmentId=238e006e-9679-40f3-9ec4-bf2aee47d8cb&projectId=ba640c14-69c5-453e-80b2-29051492c0e0","3E9F1278DDDE4280961F2B3413E2FCED-2025-05-14-20-57-55","","null","","images/schematic_sequence/flight_scheme/flight_scheme_5.png","null","",""
"","","","","","image-button-response","70","507633","0.0-12.0-1.0-1.4","3E9F1278DDDE4280961F2B3413E2FCED","3E9F1278DDDE4280961F2B3413E2FCED","238e006e-9679-40f3-9ec4-bf2aee47d8cb","ba640c14-69c5-453e-80b2-29051492c0e0","{""num_scrambled_semantic"":""8"",""num_scrambled_causal"":""4"",""num_scrambled_schematic"":""4"",""participantId"":""3E9F1278DDDE4280961F2B3413E2FCED"",""assignmentId"":""238e006e-9679-40f3-9ec4-bf2aee47d8cb"",""projectId"":""ba640c14-69c5-453e-80b2-29051492c0e0""}","https://test12345.live/?num_scrambled_semantic=8&num_scrambled_causal=4&num_scrambled_schematic=4&participantId=3E9F1278DDDE4280961F2B3413E2FCED&assignmentId=238e006e-9679-40f3-9ec4-bf2aee47d8cb&projectId=ba640c14-69c5-453e-80b2-29051492c0e0","3E9F1278DDDE4280961F2B3413E2FCED-2025-05-14-20-57-55","","892","","images/schematic_sequence/flight_scheme/flight_scheme_5.png","0","",""
"","","","","","image-button-response","71","509443","0.0-12.0-1.0-2.4","3E9F1278DDDE4280961F2B3413E2FCED","3E9F1278DDDE4280961F2B3413E2FCED","238e006e-9679-40f3-9ec4-bf2aee47d8cb","ba640c14-69c5-453e-80b2-29051492c0e0","{""num_scrambled_semantic"":""8"",""num_scrambled_causal"":""4"",""num_scrambled_schematic"":""4"",""participantId"":""3E9F1278DDDE4280961F2B3413E2FCED"",""assignmentId"":""238e006e-9679-40f3-9ec4-bf2aee47d8cb"",""projectId"":""ba640c14-69c5-453e-80b2-29051492c0e0""}","https://test12345.live/?num_scrambled_semantic=8&num_scrambled_causal=4&num_scrambled_schematic=4&participantId=3E9F1278DDDE4280961F2B3413E2FCED&assignmentId=238e006e-9679-40f3-9ec4-bf2aee47d8cb&projectId=ba640c14-69c5-453e-80b2-29051492c0e0","3E9F1278DDDE4280961F2B3413E2FCED-2025-05-14-20-57-55","","null","","[]","null","",""
"","","","","","image-button-response","72","513955","0.0-12.0-1.0-0.5","3E9F1278DDDE4280961F2B3413E2FCED","3E9F1278DDDE4280961F2B3413E2FCED","238e006e-9679-40f3-9ec4-bf2aee47d8cb","ba640c14-69c5-453e-80b2-29051492c0e0","{""num_scrambled_semantic"":""8"",""num_scrambled_causal"":""4"",""num_scrambled_schematic"":""4"",""participantId"":""3E9F1278DDDE4280961F2B3413E2FCED"",""assignmentId"":""238e006e-9679-40f3-9ec4-bf2aee47d8cb"",""projectId"":""ba640c14-69c5-453e-80b2-29051492c0e0""}","https://test12345.live/?num_scrambled_semantic=8&num_scrambled_causal=4&num_scrambled_schematic=4&participantId=3E9F1278DDDE4280961F2B3413E2FCED&assignmentId=238e006e-9679-40f3-9ec4-bf2aee47d8cb&projectId=ba640c14-69c5-453e-80b2-29051492c0e0","3E9F1278DDDE4280961F2B3413E2FCED-2025-05-14-20-57-55","","null","","images/schematic_sequence/flight_scheme/flight_scheme_6.png","null","",""
"","","","","","image-button-response","73","515554","0.0-12.0-1.0-1.5","3E9F1278DDDE4280961F2B3413E2FCED","3E9F1278DDDE4280961F2B3413E2FCED","238e006e-9679-40f3-9ec4-bf2aee47d8cb","ba640c14-69c5-453e-80b2-29051492c0e0","{""num_scrambled_semantic"":""8"",""num_scrambled_causal"":""4"",""num_scrambled_schematic"":""4"",""participantId"":""3E9F1278DDDE4280961F2B3413E2FCED"",""assignmentId"":""238e006e-9679-40f3-9ec4-bf2aee47d8cb"",""projectId"":""ba640c14-69c5-453e-80b2-29051492c0e0""}","https://test12345.live/?num_scrambled_semantic=8&num_scrambled_causal=4&num_scrambled_schematic=4&participantId=3E9F1278DDDE4280961F2B3413E2FCED&assignmentId=238e006e-9679-40f3-9ec4-bf2aee47d8cb&projectId=ba640c14-69c5-453e-80b2-29051492c0e0","3E9F1278DDDE4280961F2B3413E2FCED-2025-05-14-20-57-55","","1598","","images/schematic_sequence/flight_scheme/flight_scheme_6.png","1","",""
"","","","","","image-button-response","74","517362","0.0-12.0-1.0-2.5","3E9F1278DDDE4280961F2B3413E2FCED","3E9F1278DDDE4280961F2B3413E2FCED","238e006e-9679-40f3-9ec4-bf2aee47d8cb","ba640c14-69c5-453e-80b2-29051492c0e0","{""num_scrambled_semantic"":""8"",""num_scrambled_causal"":""4"",""num_scrambled_schematic"":""4"",""participantId"":""3E9F1278DDDE4280961F2B3413E2FCED"",""assignmentId"":""238e006e-9679-40f3-9ec4-bf2aee47d8cb"",""projectId"":""ba640c14-69c5-453e-80b2-29051492c0e0""}","https://test12345.live/?num_scrambled_semantic=8&num_scrambled_causal=4&num_scrambled_schematic=4&participantId=3E9F1278DDDE4280961F2B3413E2FCED&assignmentId=238e006e-9679-40f3-9ec4-bf2aee47d8cb&projectId=ba640c14-69c5-453e-80b2-29051492c0e0","3E9F1278DDDE4280961F2B3413E2FCED-2025-05-14-20-57-55","","null","","[]","null","",""
"","","","","","image-button-response","75","521877","0.0-12.0-1.0-0.6","3E9F1278DDDE4280961F2B3413E2FCED","3E9F1278DDDE4280961F2B3413E2FCED","238e006e-9679-40f3-9ec4-bf2aee47d8cb","ba640c14-69c5-453e-80b2-29051492c0e0","{""num_scrambled_semantic"":""8"",""num_scrambled_causal"":""4"",""num_scrambled_schematic"":""4"",""participantId"":""3E9F1278DDDE4280961F2B3413E2FCED"",""assignmentId"":""238e006e-9679-40f3-9ec4-bf2aee47d8cb"",""projectId"":""ba640c14-69c5-453e-80b2-29051492c0e0""}","https://test12345.live/?num_scrambled_semantic=8&num_scrambled_causal=4&num_scrambled_schematic=4&participantId=3E9F1278DDDE4280961F2B3413E2FCED&assignmentId=238e006e-9679-40f3-9ec4-bf2aee47d8cb&projectId=ba640c14-69c5-453e-80b2-29051492c0e0","3E9F1278DDDE4280961F2B3413E2FCED-2025-05-14-20-57-55","","null","","images/schematic_sequence/flight_scheme/flight_scheme_7.png","null","",""
"","","","","","image-button-response","76","523486","0.0-12.0-1.0-1.6","3E9F1278DDDE4280961F2B3413E2FCED","3E9F1278DDDE4280961F2B3413E2FCED","238e006e-9679-40f3-9ec4-bf2aee47d8cb","ba640c14-69c5-453e-80b2-29051492c0e0","{""num_scrambled_semantic"":""8"",""num_scrambled_causal"":""4"",""num_scrambled_schematic"":""4"",""participantId"":""3E9F1278DDDE4280961F2B3413E2FCED"",""assignmentId"":""238e006e-9679-40f3-9ec4-bf2aee47d8cb"",""projectId"":""ba640c14-69c5-453e-80b2-29051492c0e0""}","https://test12345.live/?num_scrambled_semantic=8&num_scrambled_causal=4&num_scrambled_schematic=4&participantId=3E9F1278DDDE4280961F2B3413E2FCED&assignmentId=238e006e-9679-40f3-9ec4-bf2aee47d8cb&projectId=ba640c14-69c5-453e-80b2-29051492c0e0","3E9F1278DDDE4280961F2B3413E2FCED-2025-05-14-20-57-55","","1608","","images/schematic_sequence/flight_scheme/flight_scheme_7.png","1","",""
"","","","","","image-button-response","77","525297","0.0-12.0-1.0-2.6","3E9F1278DDDE4280961F2B3413E2FCED","3E9F1278DDDE4280961F2B3413E2FCED","238e006e-9679-40f3-9ec4-bf2aee47d8cb","ba640c14-69c5-453e-80b2-29051492c0e0","{""num_scrambled_semantic"":""8"",""num_scrambled_causal"":""4"",""num_scrambled_schematic"":""4"",""participantId"":""3E9F1278DDDE4280961F2B3413E2FCED"",""assignmentId"":""238e006e-9679-40f3-9ec4-bf2aee47d8cb"",""projectId"":""ba640c14-69c5-453e-80b2-29051492c0e0""}","https://test12345.live/?num_scrambled_semantic=8&num_scrambled_causal=4&num_scrambled_schematic=4&participantId=3E9F1278DDDE4280961F2B3413E2FCED&assignmentId=238e006e-9679-40f3-9ec4-bf2aee47d8cb&projectId=ba640c14-69c5-453e-80b2-29051492c0e0","3E9F1278DDDE4280961F2B3413E2FCED-2025-05-14-20-57-55","","null","","[]","null","",""
"","","","","","image-button-response","78","529811","0.0-12.0-1.0-0.7","3E9F1278DDDE4280961F2B3413E2FCED","3E9F1278DDDE4280961F2B3413E2FCED","238e006e-9679-40f3-9ec4-bf2aee47d8cb","ba640c14-69c5-453e-80b2-29051492c0e0","{""num_scrambled_semantic"":""8"",""num_scrambled_causal"":""4"",""num_scrambled_schematic"":""4"",""participantId"":""3E9F1278DDDE4280961F2B3413E2FCED"",""assignmentId"":""238e006e-9679-40f3-9ec4-bf2aee47d8cb"",""projectId"":""ba640c14-69c5-453e-80b2-29051492c0e0""}","https://test12345.live/?num_scrambled_semantic=8&num_scrambled_causal=4&num_scrambled_schematic=4&participantId=3E9F1278DDDE4280961F2B3413E2FCED&assignmentId=238e006e-9679-40f3-9ec4-bf2aee47d8cb&projectId=ba640c14-69c5-453e-80b2-29051492c0e0","3E9F1278DDDE4280961F2B3413E2FCED-2025-05-14-20-57-55","","null","","images/schematic_sequence/flight_scheme/flight_scheme_8.png","null","",""
"","","","","","image-button-response","79","530693","0.0-12.0-1.0-1.7","3E9F1278DDDE4280961F2B3413E2FCED","3E9F1278DDDE4280961F2B3413E2FCED","238e006e-9679-40f3-9ec4-bf2aee47d8cb","ba640c14-69c5-453e-80b2-29051492c0e0","{""num_scrambled_semantic"":""8"",""num_scrambled_causal"":""4"",""num_scrambled_schematic"":""4"",""participantId"":""3E9F1278DDDE4280961F2B3413E2FCED"",""assignmentId"":""238e006e-9679-40f3-9ec4-bf2aee47d8cb"",""projectId"":""ba640c14-69c5-453e-80b2-29051492c0e0""}","https://test12345.live/?num_scrambled_semantic=8&num_scrambled_causal=4&num_scrambled_schematic=4&participantId=3E9F1278DDDE4280961F2B3413E2FCED&assignmentId=238e006e-9679-40f3-9ec4-bf2aee47d8cb&projectId=ba640c14-69c5-453e-80b2-29051492c0e0","3E9F1278DDDE4280961F2B3413E2FCED-2025-05-14-20-57-55","","881","","images/schematic_sequence/flight_scheme/flight_scheme_8.png","1","",""
"","","","","","image-button-response","80","532499","0.0-12.0-1.0-2.7","3E9F1278DDDE4280961F2B3413E2FCED","3E9F1278DDDE4280961F2B3413E2FCED","238e006e-9679-40f3-9ec4-bf2aee47d8cb","ba640c14-69c5-453e-80b2-29051492c0e0","{""num_scrambled_semantic"":""8"",""num_scrambled_causal"":""4"",""num_scrambled_schematic"":""4"",""participantId"":""3E9F1278DDDE4280961F2B3413E2FCED"",""assignmentId"":""238e006e-9679-40f3-9ec4-bf2aee47d8cb"",""projectId"":""ba640c14-69c5-453e-80b2-29051492c0e0""}","https://test12345.live/?num_scrambled_semantic=8&num_scrambled_causal=4&num_scrambled_schematic=4&participantId=3E9F1278DDDE4280961F2B3413E2FCED&assignmentId=238e006e-9679-40f3-9ec4-bf2aee47d8cb&projectId=ba640c14-69c5-453e-80b2-29051492c0e0","3E9F1278DDDE4280961F2B3413E2FCED-2025-05-14-20-57-55","","null","","[]","null","",""
"","","","","","image-button-response","81","537009","0.0-12.0-1.0-0.8","3E9F1278DDDE4280961F2B3413E2FCED","3E9F1278DDDE4280961F2B3413E2FCED","238e006e-9679-40f3-9ec4-bf2aee47d8cb","ba640c14-69c5-453e-80b2-29051492c0e0","{""num_scrambled_semantic"":""8"",""num_scrambled_causal"":""4"",""num_scrambled_schematic"":""4"",""participantId"":""3E9F1278DDDE4280961F2B3413E2FCED"",""assignmentId"":""238e006e-9679-40f3-9ec4-bf2aee47d8cb"",""projectId"":""ba640c14-69c5-453e-80b2-29051492c0e0""}","https://test12345.live/?num_scrambled_semantic=8&num_scrambled_causal=4&num_scrambled_schematic=4&participantId=3E9F1278DDDE4280961F2B3413E2FCED&assignmentId=238e006e-9679-40f3-9ec4-bf2aee47d8cb&projectId=ba640c14-69c5-453e-80b2-29051492c0e0","3E9F1278DDDE4280961F2B3413E2FCED-2025-05-14-20-57-55","","null","","images/schematic_sequence/flight_scheme/flight_scheme_9.png","null","",""
"","","","","","image-button-response","82","538981","0.0-12.0-1.0-1.8","3E9F1278DDDE4280961F2B3413E2FCED","3E9F1278DDDE4280961F2B3413E2FCED","238e006e-9679-40f3-9ec4-bf2aee47d8cb","ba640c14-69c5-453e-80b2-29051492c0e0","{""num_scrambled_semantic"":""8"",""num_scrambled_causal"":""4"",""num_scrambled_schematic"":""4"",""participantId"":""3E9F1278DDDE4280961F2B3413E2FCED"",""assignmentId"":""238e006e-9679-40f3-9ec4-bf2aee47d8cb"",""projectId"":""ba640c14-69c5-453e-80b2-29051492c0e0""}","https://test12345.live/?num_scrambled_semantic=8&num_scrambled_causal=4&num_scrambled_schematic=4&participantId=3E9F1278DDDE4280961F2B3413E2FCED&assignmentId=238e006e-9679-40f3-9ec4-bf2aee47d8cb&projectId=ba640c14-69c5-453e-80b2-29051492c0e0","3E9F1278DDDE4280961F2B3413E2FCED-2025-05-14-20-57-55","","1970","","images/schematic_sequence/flight_scheme/flight_scheme_9.png","0","",""
"","","","","","image-button-response","83","540786","0.0-12.0-1.0-2.8","3E9F1278DDDE4280961F2B3413E2FCED","3E9F1278DDDE4280961F2B3413E2FCED","238e006e-9679-40f3-9ec4-bf2aee47d8cb","ba640c14-69c5-453e-80b2-29051492c0e0","{""num_scrambled_semantic"":""8"",""num_scrambled_causal"":""4"",""num_scrambled_schematic"":""4"",""participantId"":""3E9F1278DDDE4280961F2B3413E2FCED"",""assignmentId"":""238e006e-9679-40f3-9ec4-bf2aee47d8cb"",""projectId"":""ba640c14-69c5-453e-80b2-29051492c0e0""}","https://test12345.live/?num_scrambled_semantic=8&num_scrambled_causal=4&num_scrambled_schematic=4&participantId=3E9F1278DDDE4280961F2B3413E2FCED&assignmentId=238e006e-9679-40f3-9ec4-bf2aee47d8cb&projectId=ba640c14-69c5-453e-80b2-29051492c0e0","3E9F1278DDDE4280961F2B3413E2FCED-2025-05-14-20-57-55","","null","","[]","null","",""
"","","","","","image-button-response","84","545290","0.0-12.0-1.0-0.9","3E9F1278DDDE4280961F2B3413E2FCED","3E9F1278DDDE4280961F2B3413E2FCED","238e006e-9679-40f3-9ec4-bf2aee47d8cb","ba640c14-69c5-453e-80b2-29051492c0e0","{""num_scrambled_semantic"":""8"",""num_scrambled_causal"":""4"",""num_scrambled_schematic"":""4"",""participantId"":""3E9F1278DDDE4280961F2B3413E2FCED"",""assignmentId"":""238e006e-9679-40f3-9ec4-bf2aee47d8cb"",""projectId"":""ba640c14-69c5-453e-80b2-29051492c0e0""}","https://test12345.live/?num_scrambled_semantic=8&num_scrambled_causal=4&num_scrambled_schematic=4&participantId=3E9F1278DDDE4280961F2B3413E2FCED&assignmentId=238e006e-9679-40f3-9ec4-bf2aee47d8cb&projectId=ba640c14-69c5-453e-80b2-29051492c0e0","3E9F1278DDDE4280961F2B3413E2FCED-2025-05-14-20-57-55","","null","","images/schematic_sequence/flight_scheme/flight_scheme_ten.png","null","",""
"","","","","","image-button-response","85","547124","0.0-12.0-1.0-1.9","3E9F1278DDDE4280961F2B3413E2FCED","3E9F1278DDDE4280961F2B3413E2FCED","238e006e-9679-40f3-9ec4-bf2aee47d8cb","ba640c14-69c5-453e-80b2-29051492c0e0","{""num_scrambled_semantic"":""8"",""num_scrambled_causal"":""4"",""num_scrambled_schematic"":""4"",""participantId"":""3E9F1278DDDE4280961F2B3413E2FCED"",""assignmentId"":""238e006e-9679-40f3-9ec4-bf2aee47d8cb"",""projectId"":""ba640c14-69c5-453e-80b2-29051492c0e0""}","https://test12345.live/?num_scrambled_semantic=8&num_scrambled_causal=4&num_scrambled_schematic=4&participantId=3E9F1278DDDE4280961F2B3413E2FCED&assignmentId=238e006e-9679-40f3-9ec4-bf2aee47d8cb&projectId=ba640c14-69c5-453e-80b2-29051492c0e0","3E9F1278DDDE4280961F2B3413E2FCED-2025-05-14-20-57-55","","1833","","images/schematic_sequence/flight_scheme/flight_scheme_ten.png","0","",""
"","","","","","image-button-response","86","548930","0.0-12.0-1.0-2.9","3E9F1278DDDE4280961F2B3413E2FCED","3E9F1278DDDE4280961F2B3413E2FCED","238e006e-9679-40f3-9ec4-bf2aee47d8cb","ba640c14-69c5-453e-80b2-29051492c0e0","{""num_scrambled_semantic"":""8"",""num_scrambled_causal"":""4"",""num_scrambled_schematic"":""4"",""participantId"":""3E9F1278DDDE4280961F2B3413E2FCED"",""assignmentId"":""238e006e-9679-40f3-9ec4-bf2aee47d8cb"",""projectId"":""ba640c14-69c5-453e-80b2-29051492c0e0""}","https://test12345.live/?num_scrambled_semantic=8&num_scrambled_causal=4&num_scrambled_schematic=4&participantId=3E9F1278DDDE4280961F2B3413E2FCED&assignmentId=238e006e-9679-40f3-9ec4-bf2aee47d8cb&projectId=ba640c14-69c5-453e-80b2-29051492c0e0","3E9F1278DDDE4280961F2B3413E2FCED-2025-05-14-20-57-55","","null","","[]","null","",""
"","","","","","html-audio-response","87","573171","0.0-13.0","3E9F1278DDDE4280961F2B3413E2FCED","3E9F1278DDDE4280961F2B3413E2FCED","238e006e-9679-40f3-9ec4-bf2aee47d8cb","ba640c14-69c5-453e-80b2-29051492c0e0","{""num_scrambled_semantic"":""8"",""num_scrambled_causal"":""4"",""num_scrambled_schematic"":""4"",""participantId"":""3E9F1278DDDE4280961F2B3413E2FCED"",""assignmentId"":""238e006e-9679-40f3-9ec4-bf2aee47d8cb"",""projectId"":""ba640c14-69c5-453e-80b2-29051492c0e0""}","https://test12345.live/?num_scrambled_semantic=8&num_scrambled_causal=4&num_scrambled_schematic=4&participantId=3E9F1278DDDE4280961F2B3413E2FCED&assignmentId=238e006e-9679-40f3-9ec4-bf2aee47d8cb&projectId=ba640c14-69c5-453e-80b2-29051492c0e0","3E9F1278DDDE4280961F2B3413E2FCED-2025-05-14-20-57-55","","22382","","[""<span style=\""color: red; font-size: 24px\""> NOW RECORDING</span><p>Please say out loud all the images you saw, as many as you can remember. The images can be said in any order.</p>""]","","1","flight_scheme"
"","","","","","image-button-response","88","579186","0.0-14.0-0.0","3E9F1278DDDE4280961F2B3413E2FCED","3E9F1278DDDE4280961F2B3413E2FCED","238e006e-9679-40f3-9ec4-bf2aee47d8cb","ba640c14-69c5-453e-80b2-29051492c0e0","{""num_scrambled_semantic"":""8"",""num_scrambled_causal"":""4"",""num_scrambled_schematic"":""4"",""participantId"":""3E9F1278DDDE4280961F2B3413E2FCED"",""assignmentId"":""238e006e-9679-40f3-9ec4-bf2aee47d8cb"",""projectId"":""ba640c14-69c5-453e-80b2-29051492c0e0""}","https://test12345.live/?num_scrambled_semantic=8&num_scrambled_causal=4&num_scrambled_schematic=4&participantId=3E9F1278DDDE4280961F2B3413E2FCED&assignmentId=238e006e-9679-40f3-9ec4-bf2aee47d8cb&projectId=ba640c14-69c5-453e-80b2-29051492c0e0","3E9F1278DDDE4280961F2B3413E2FCED-2025-05-14-20-57-55","","null","","images/semantic_sequence/self_care_activities_semantic/self_care_activities_semantic_0.png","null","",""
"","","","","","image-button-response","89","583699","0.0-14.0-1.0-0.0","3E9F1278DDDE4280961F2B3413E2FCED","3E9F1278DDDE4280961F2B3413E2FCED","238e006e-9679-40f3-9ec4-bf2aee47d8cb","ba640c14-69c5-453e-80b2-29051492c0e0","{""num_scrambled_semantic"":""8"",""num_scrambled_causal"":""4"",""num_scrambled_schematic"":""4"",""participantId"":""3E9F1278DDDE4280961F2B3413E2FCED"",""assignmentId"":""238e006e-9679-40f3-9ec4-bf2aee47d8cb"",""projectId"":""ba640c14-69c5-453e-80b2-29051492c0e0""}","https://test12345.live/?num_scrambled_semantic=8&num_scrambled_causal=4&num_scrambled_schematic=4&participantId=3E9F1278DDDE4280961F2B3413E2FCED&assignmentId=238e006e-9679-40f3-9ec4-bf2aee47d8cb&projectId=ba640c14-69c5-453e-80b2-29051492c0e0","3E9F1278DDDE4280961F2B3413E2FCED-2025-05-14-20-57-55","","null","","images/semantic_sequence/self_care_activities_semantic/self_care_activities_semantic_1.png","null","",""
"","","","","","image-button-response","90","585858","0.0-14.0-1.0-1.0","3E9F1278DDDE4280961F2B3413E2FCED","3E9F1278DDDE4280961F2B3413E2FCED","238e006e-9679-40f3-9ec4-bf2aee47d8cb","ba640c14-69c5-453e-80b2-29051492c0e0","{""num_scrambled_semantic"":""8"",""num_scrambled_causal"":""4"",""num_scrambled_schematic"":""4"",""participantId"":""3E9F1278DDDE4280961F2B3413E2FCED"",""assignmentId"":""238e006e-9679-40f3-9ec4-bf2aee47d8cb"",""projectId"":""ba640c14-69c5-453e-80b2-29051492c0e0""}","https://test12345.live/?num_scrambled_semantic=8&num_scrambled_causal=4&num_scrambled_schematic=4&participantId=3E9F1278DDDE4280961F2B3413E2FCED&assignmentId=238e006e-9679-40f3-9ec4-bf2aee47d8cb&projectId=ba640c14-69c5-453e-80b2-29051492c0e0","3E9F1278DDDE4280961F2B3413E2FCED-2025-05-14-20-57-55","","2158","","images/semantic_sequence/self_care_activities_semantic/self_care_activities_semantic_1.png","0","",""
"","","","","","image-button-response","91","587666","0.0-14.0-1.0-2.0","3E9F1278DDDE4280961F2B3413E2FCED","3E9F1278DDDE4280961F2B3413E2FCED","238e006e-9679-40f3-9ec4-bf2aee47d8cb","ba640c14-69c5-453e-80b2-29051492c0e0","{""num_scrambled_semantic"":""8"",""num_scrambled_causal"":""4"",""num_scrambled_schematic"":""4"",""participantId"":""3E9F1278DDDE4280961F2B3413E2FCED"",""assignmentId"":""238e006e-9679-40f3-9ec4-bf2aee47d8cb"",""projectId"":""ba640c14-69c5-453e-80b2-29051492c0e0""}","https://test12345.live/?num_scrambled_semantic=8&num_scrambled_causal=4&num_scrambled_schematic=4&participantId=3E9F1278DDDE4280961F2B3413E2FCED&assignmentId=238e006e-9679-40f3-9ec4-bf2aee47d8cb&projectId=ba640c14-69c5-453e-80b2-29051492c0e0","3E9F1278DDDE4280961F2B3413E2FCED-2025-05-14-20-57-55","","null","","[]","null","",""
"","","","","","image-button-response","92","592179","0.0-14.0-1.0-0.1","3E9F1278DDDE4280961F2B3413E2FCED","3E9F1278DDDE4280961F2B3413E2FCED","238e006e-9679-40f3-9ec4-bf2aee47d8cb","ba640c14-69c5-453e-80b2-29051492c0e0","{""num_scrambled_semantic"":""8"",""num_scrambled_causal"":""4"",""num_scrambled_schematic"":""4"",""participantId"":""3E9F1278DDDE4280961F2B3413E2FCED"",""assignmentId"":""238e006e-9679-40f3-9ec4-bf2aee47d8cb"",""projectId"":""ba640c14-69c5-453e-80b2-29051492c0e0""}","https://test12345.live/?num_scrambled_semantic=8&num_scrambled_causal=4&num_scrambled_schematic=4&participantId=3E9F1278DDDE4280961F2B3413E2FCED&assignmentId=238e006e-9679-40f3-9ec4-bf2aee47d8cb&projectId=ba640c14-69c5-453e-80b2-29051492c0e0","3E9F1278DDDE4280961F2B3413E2FCED-2025-05-14-20-57-55","","null","","images/semantic_sequence/self_care_activities_semantic/self_care_activities_semantic_2.png","null","",""
"","","","","","image-button-response","93","593397","0.0-14.0-1.0-1.1","3E9F1278DDDE4280961F2B3413E2FCED","3E9F1278DDDE4280961F2B3413E2FCED","238e006e-9679-40f3-9ec4-bf2aee47d8cb","ba640c14-69c5-453e-80b2-29051492c0e0","{""num_scrambled_semantic"":""8"",""num_scrambled_causal"":""4"",""num_scrambled_schematic"":""4"",""participantId"":""3E9F1278DDDE4280961F2B3413E2FCED"",""assignmentId"":""238e006e-9679-40f3-9ec4-bf2aee47d8cb"",""projectId"":""ba640c14-69c5-453e-80b2-29051492c0e0""}","https://test12345.live/?num_scrambled_semantic=8&num_scrambled_causal=4&num_scrambled_schematic=4&participantId=3E9F1278DDDE4280961F2B3413E2FCED&assignmentId=238e006e-9679-40f3-9ec4-bf2aee47d8cb&projectId=ba640c14-69c5-453e-80b2-29051492c0e0","3E9F1278DDDE4280961F2B3413E2FCED-2025-05-14-20-57-55","","1215","","images/semantic_sequence/self_care_activities_semantic/self_care_activities_semantic_2.png","0","",""
"","","","","","image-button-response","94","595201","0.0-14.0-1.0-2.1","3E9F1278DDDE4280961F2B3413E2FCED","3E9F1278DDDE4280961F2B3413E2FCED","238e006e-9679-40f3-9ec4-bf2aee47d8cb","ba640c14-69c5-453e-80b2-29051492c0e0","{""num_scrambled_semantic"":""8"",""num_scrambled_causal"":""4"",""num_scrambled_schematic"":""4"",""participantId"":""3E9F1278DDDE4280961F2B3413E2FCED"",""assignmentId"":""238e006e-9679-40f3-9ec4-bf2aee47d8cb"",""projectId"":""ba640c14-69c5-453e-80b2-29051492c0e0""}","https://test12345.live/?num_scrambled_semantic=8&num_scrambled_causal=4&num_scrambled_schematic=4&participantId=3E9F1278DDDE4280961F2B3413E2FCED&assignmentId=238e006e-9679-40f3-9ec4-bf2aee47d8cb&projectId=ba640c14-69c5-453e-80b2-29051492c0e0","3E9F1278DDDE4280961F2B3413E2FCED-2025-05-14-20-57-55","","null","","[]","null","",""
"","","","","","image-button-response","95","599715","0.0-14.0-1.0-0.2","3E9F1278DDDE4280961F2B3413E2FCED","3E9F1278DDDE4280961F2B3413E2FCED","238e006e-9679-40f3-9ec4-bf2aee47d8cb","ba640c14-69c5-453e-80b2-29051492c0e0","{""num_scrambled_semantic"":""8"",""num_scrambled_causal"":""4"",""num_scrambled_schematic"":""4"",""participantId"":""3E9F1278DDDE4280961F2B3413E2FCED"",""assignmentId"":""238e006e-9679-40f3-9ec4-bf2aee47d8cb"",""projectId"":""ba640c14-69c5-453e-80b2-29051492c0e0""}","https://test12345.live/?num_scrambled_semantic=8&num_scrambled_causal=4&num_scrambled_schematic=4&participantId=3E9F1278DDDE4280961F2B3413E2FCED&assignmentId=238e006e-9679-40f3-9ec4-bf2aee47d8cb&projectId=ba640c14-69c5-453e-80b2-29051492c0e0","3E9F1278DDDE4280961F2B3413E2FCED-2025-05-14-20-57-55","","null","","images/semantic_sequence/self_care_activities_semantic/self_care_activities_semantic_3.png","null","",""
"","","","","","image-button-response","96","601361","0.0-14.0-1.0-1.2","3E9F1278DDDE4280961F2B3413E2FCED","3E9F1278DDDE4280961F2B3413E2FCED","238e006e-9679-40f3-9ec4-bf2aee47d8cb","ba640c14-69c5-453e-80b2-29051492c0e0","{""num_scrambled_semantic"":""8"",""num_scrambled_causal"":""4"",""num_scrambled_schematic"":""4"",""participantId"":""3E9F1278DDDE4280961F2B3413E2FCED"",""assignmentId"":""238e006e-9679-40f3-9ec4-bf2aee47d8cb"",""projectId"":""ba640c14-69c5-453e-80b2-29051492c0e0""}","https://test12345.live/?num_scrambled_semantic=8&num_scrambled_causal=4&num_scrambled_schematic=4&participantId=3E9F1278DDDE4280961F2B3413E2FCED&assignmentId=238e006e-9679-40f3-9ec4-bf2aee47d8cb&projectId=ba640c14-69c5-453e-80b2-29051492c0e0","3E9F1278DDDE4280961F2B3413E2FCED-2025-05-14-20-57-55","","1645","","images/semantic_sequence/self_care_activities_semantic/self_care_activities_semantic_3.png","0","",""
"","","","","","image-button-response","97","603172","0.0-14.0-1.0-2.2","3E9F1278DDDE4280961F2B3413E2FCED","3E9F1278DDDE4280961F2B3413E2FCED","238e006e-9679-40f3-9ec4-bf2aee47d8cb","ba640c14-69c5-453e-80b2-29051492c0e0","{""num_scrambled_semantic"":""8"",""num_scrambled_causal"":""4"",""num_scrambled_schematic"":""4"",""participantId"":""3E9F1278DDDE4280961F2B3413E2FCED"",""assignmentId"":""238e006e-9679-40f3-9ec4-bf2aee47d8cb"",""projectId"":""ba640c14-69c5-453e-80b2-29051492c0e0""}","https://test12345.live/?num_scrambled_semantic=8&num_scrambled_causal=4&num_scrambled_schematic=4&participantId=3E9F1278DDDE4280961F2B3413E2FCED&assignmentId=238e006e-9679-40f3-9ec4-bf2aee47d8cb&projectId=ba640c14-69c5-453e-80b2-29051492c0e0","3E9F1278DDDE4280961F2B3413E2FCED-2025-05-14-20-57-55","","null","","[]","null","",""
"","","","","","image-button-response","98","607679","0.0-14.0-1.0-0.3","3E9F1278DDDE4280961F2B3413E2FCED","3E9F1278DDDE4280961F2B3413E2FCED","238e006e-9679-40f3-9ec4-bf2aee47d8cb","ba640c14-69c5-453e-80b2-29051492c0e0","{""num_scrambled_semantic"":""8"",""num_scrambled_causal"":""4"",""num_scrambled_schematic"":""4"",""participantId"":""3E9F1278DDDE4280961F2B3413E2FCED"",""assignmentId"":""238e006e-9679-40f3-9ec4-bf2aee47d8cb"",""projectId"":""ba640c14-69c5-453e-80b2-29051492c0e0""}","https://test12345.live/?num_scrambled_semantic=8&num_scrambled_causal=4&num_scrambled_schematic=4&participantId=3E9F1278DDDE4280961F2B3413E2FCED&assignmentId=238e006e-9679-40f3-9ec4-bf2aee47d8cb&projectId=ba640c14-69c5-453e-80b2-29051492c0e0","3E9F1278DDDE4280961F2B3413E2FCED-2025-05-14-20-57-55","","null","","images/semantic_sequence/self_care_activities_semantic/self_care_activities_semantic_4.png","null","",""
"","","","","","image-button-response","99","608869","0.0-14.0-1.0-1.3","3E9F1278DDDE4280961F2B3413E2FCED","3E9F1278DDDE4280961F2B3413E2FCED","238e006e-9679-40f3-9ec4-bf2aee47d8cb","ba640c14-69c5-453e-80b2-29051492c0e0","{""num_scrambled_semantic"":""8"",""num_scrambled_causal"":""4"",""num_scrambled_schematic"":""4"",""participantId"":""3E9F1278DDDE4280961F2B3413E2FCED"",""assignmentId"":""238e006e-9679-40f3-9ec4-bf2aee47d8cb"",""projectId"":""ba640c14-69c5-453e-80b2-29051492c0e0""}","https://test12345.live/?num_scrambled_semantic=8&num_scrambled_causal=4&num_scrambled_schematic=4&participantId=3E9F1278DDDE4280961F2B3413E2FCED&assignmentId=238e006e-9679-40f3-9ec4-bf2aee47d8cb&projectId=ba640c14-69c5-453e-80b2-29051492c0e0","3E9F1278DDDE4280961F2B3413E2FCED-2025-05-14-20-57-55","","1188","","images/semantic_sequence/self_care_activities_semantic/self_care_activities_semantic_4.png","0","",""
"","","","","","image-button-response","100","610674","0.0-14.0-1.0-2.3","3E9F1278DDDE4280961F2B3413E2FCED","3E9F1278DDDE4280961F2B3413E2FCED","238e006e-9679-40f3-9ec4-bf2aee47d8cb","ba640c14-69c5-453e-80b2-29051492c0e0","{""num_scrambled_semantic"":""8"",""num_scrambled_causal"":""4"",""num_scrambled_schematic"":""4"",""participantId"":""3E9F1278DDDE4280961F2B3413E2FCED"",""assignmentId"":""238e006e-9679-40f3-9ec4-bf2aee47d8cb"",""projectId"":""ba640c14-69c5-453e-80b2-29051492c0e0""}","https://test12345.live/?num_scrambled_semantic=8&num_scrambled_causal=4&num_scrambled_schematic=4&participantId=3E9F1278DDDE4280961F2B3413E2FCED&assignmentId=238e006e-9679-40f3-9ec4-bf2aee47d8cb&projectId=ba640c14-69c5-453e-80b2-29051492c0e0","3E9F1278DDDE4280961F2B3413E2FCED-2025-05-14-20-57-55","","null","","[]","null","",""
"","","","","","image-button-response","101","615180","0.0-14.0-1.0-0.4","3E9F1278DDDE4280961F2B3413E2FCED","3E9F1278DDDE4280961F2B3413E2FCED","238e006e-9679-40f3-9ec4-bf2aee47d8cb","ba640c14-69c5-453e-80b2-29051492c0e0","{""num_scrambled_semantic"":""8"",""num_scrambled_causal"":""4"",""num_scrambled_schematic"":""4"",""participantId"":""3E9F1278DDDE4280961F2B3413E2FCED"",""assignmentId"":""238e006e-9679-40f3-9ec4-bf2aee47d8cb"",""projectId"":""ba640c14-69c5-453e-80b2-29051492c0e0""}","https://test12345.live/?num_scrambled_semantic=8&num_scrambled_causal=4&num_scrambled_schematic=4&participantId=3E9F1278DDDE4280961F2B3413E2FCED&assignmentId=238e006e-9679-40f3-9ec4-bf2aee47d8cb&projectId=ba640c14-69c5-453e-80b2-29051492c0e0","3E9F1278DDDE4280961F2B3413E2FCED-2025-05-14-20-57-55","","null","","images/semantic_sequence/self_care_activities_semantic/self_care_activities_semantic_5.png","null","",""
"","","","","","image-button-response","102","616147","0.0-14.0-1.0-1.4","3E9F1278DDDE4280961F2B3413E2FCED","3E9F1278DDDE4280961F2B3413E2FCED","238e006e-9679-40f3-9ec4-bf2aee47d8cb","ba640c14-69c5-453e-80b2-29051492c0e0","{""num_scrambled_semantic"":""8"",""num_scrambled_causal"":""4"",""num_scrambled_schematic"":""4"",""participantId"":""3E9F1278DDDE4280961F2B3413E2FCED"",""assignmentId"":""238e006e-9679-40f3-9ec4-bf2aee47d8cb"",""projectId"":""ba640c14-69c5-453e-80b2-29051492c0e0""}","https://test12345.live/?num_scrambled_semantic=8&num_scrambled_causal=4&num_scrambled_schematic=4&participantId=3E9F1278DDDE4280961F2B3413E2FCED&assignmentId=238e006e-9679-40f3-9ec4-bf2aee47d8cb&projectId=ba640c14-69c5-453e-80b2-29051492c0e0","3E9F1278DDDE4280961F2B3413E2FCED-2025-05-14-20-57-55","","966","","images/semantic_sequence/self_care_activities_semantic/self_care_activities_semantic_5.png","0","",""
"","","","","","image-button-response","103","617951","0.0-14.0-1.0-2.4","3E9F1278DDDE4280961F2B3413E2FCED","3E9F1278DDDE4280961F2B3413E2FCED","238e006e-9679-40f3-9ec4-bf2aee47d8cb","ba640c14-69c5-453e-80b2-29051492c0e0","{""num_scrambled_semantic"":""8"",""num_scrambled_causal"":""4"",""num_scrambled_schematic"":""4"",""participantId"":""3E9F1278DDDE4280961F2B3413E2FCED"",""assignmentId"":""238e006e-9679-40f3-9ec4-bf2aee47d8cb"",""projectId"":""ba640c14-69c5-453e-80b2-29051492c0e0""}","https://test12345.live/?num_scrambled_semantic=8&num_scrambled_causal=4&num_scrambled_schematic=4&participantId=3E9F1278DDDE4280961F2B3413E2FCED&assignmentId=238e006e-9679-40f3-9ec4-bf2aee47d8cb&projectId=ba640c14-69c5-453e-80b2-29051492c0e0","3E9F1278DDDE4280961F2B3413E2FCED-2025-05-14-20-57-55","","null","","[]","null","",""
"","","","","","image-button-response","104","622465","0.0-14.0-1.0-0.5","3E9F1278DDDE4280961F2B3413E2FCED","3E9F1278DDDE4280961F2B3413E2FCED","238e006e-9679-40f3-9ec4-bf2aee47d8cb","ba640c14-69c5-453e-80b2-29051492c0e0","{""num_scrambled_semantic"":""8"",""num_scrambled_causal"":""4"",""num_scrambled_schematic"":""4"",""participantId"":""3E9F1278DDDE4280961F2B3413E2FCED"",""assignmentId"":""238e006e-9679-40f3-9ec4-bf2aee47d8cb"",""projectId"":""ba640c14-69c5-453e-80b2-29051492c0e0""}","https://test12345.live/?num_scrambled_semantic=8&num_scrambled_causal=4&num_scrambled_schematic=4&participantId=3E9F1278DDDE4280961F2B3413E2FCED&assignmentId=238e006e-9679-40f3-9ec4-bf2aee47d8cb&projectId=ba640c14-69c5-453e-80b2-29051492c0e0","3E9F1278DDDE4280961F2B3413E2FCED-2025-05-14-20-57-55","","null","","images/semantic_sequence/self_care_activities_semantic/self_care_activities_semantic_6.png","null","",""
"","","","","","image-button-response","105","623655","0.0-14.0-1.0-1.5","3E9F1278DDDE4280961F2B3413E2FCED","3E9F1278DDDE4280961F2B3413E2FCED","238e006e-9679-40f3-9ec4-bf2aee47d8cb","ba640c14-69c5-453e-80b2-29051492c0e0","{""num_scrambled_semantic"":""8"",""num_scrambled_causal"":""4"",""num_scrambled_schematic"":""4"",""participantId"":""3E9F1278DDDE4280961F2B3413E2FCED"",""assignmentId"":""238e006e-9679-40f3-9ec4-bf2aee47d8cb"",""projectId"":""ba640c14-69c5-453e-80b2-29051492c0e0""}","https://test12345.live/?num_scrambled_semantic=8&num_scrambled_causal=4&num_scrambled_schematic=4&participantId=3E9F1278DDDE4280961F2B3413E2FCED&assignmentId=238e006e-9679-40f3-9ec4-bf2aee47d8cb&projectId=ba640c14-69c5-453e-80b2-29051492c0e0","3E9F1278DDDE4280961F2B3413E2FCED-2025-05-14-20-57-55","","1189","","images/semantic_sequence/self_care_activities_semantic/self_care_activities_semantic_6.png","1","",""
"","","","","","image-button-response","106","625458","0.0-14.0-1.0-2.5","3E9F1278DDDE4280961F2B3413E2FCED","3E9F1278DDDE4280961F2B3413E2FCED","238e006e-9679-40f3-9ec4-bf2aee47d8cb","ba640c14-69c5-453e-80b2-29051492c0e0","{""num_scrambled_semantic"":""8"",""num_scrambled_causal"":""4"",""num_scrambled_schematic"":""4"",""participantId"":""3E9F1278DDDE4280961F2B3413E2FCED"",""assignmentId"":""238e006e-9679-40f3-9ec4-bf2aee47d8cb"",""projectId"":""ba640c14-69c5-453e-80b2-29051492c0e0""}","https://test12345.live/?num_scrambled_semantic=8&num_scrambled_causal=4&num_scrambled_schematic=4&participantId=3E9F1278DDDE4280961F2B3413E2FCED&assignmentId=238e006e-9679-40f3-9ec4-bf2aee47d8cb&projectId=ba640c14-69c5-453e-80b2-29051492c0e0","3E9F1278DDDE4280961F2B3413E2FCED-2025-05-14-20-57-55","","null","","[]","null","",""
"","","","","","image-button-response","107","629969","0.0-14.0-1.0-0.6","3E9F1278DDDE4280961F2B3413E2FCED","3E9F1278DDDE4280961F2B3413E2FCED","238e006e-9679-40f3-9ec4-bf2aee47d8cb","ba640c14-69c5-453e-80b2-29051492c0e0","{""num_scrambled_semantic"":""8"",""num_scrambled_causal"":""4"",""num_scrambled_schematic"":""4"",""participantId"":""3E9F1278DDDE4280961F2B3413E2FCED"",""assignmentId"":""238e006e-9679-40f3-9ec4-bf2aee47d8cb"",""projectId"":""ba640c14-69c5-453e-80b2-29051492c0e0""}","https://test12345.live/?num_scrambled_semantic=8&num_scrambled_causal=4&num_scrambled_schematic=4&participantId=3E9F1278DDDE4280961F2B3413E2FCED&assignmentId=238e006e-9679-40f3-9ec4-bf2aee47d8cb&projectId=ba640c14-69c5-453e-80b2-29051492c0e0","3E9F1278DDDE4280961F2B3413E2FCED-2025-05-14-20-57-55","","null","","images/semantic_sequence/self_care_activities_semantic/self_care_activities_semantic_7.png","null","",""
"","","","","","image-button-response","108","631381","0.0-14.0-1.0-1.6","3E9F1278DDDE4280961F2B3413E2FCED","3E9F1278DDDE4280961F2B3413E2FCED","238e006e-9679-40f3-9ec4-bf2aee47d8cb","ba640c14-69c5-453e-80b2-29051492c0e0","{""num_scrambled_semantic"":""8"",""num_scrambled_causal"":""4"",""num_scrambled_schematic"":""4"",""participantId"":""3E9F1278DDDE4280961F2B3413E2FCED"",""assignmentId"":""238e006e-9679-40f3-9ec4-bf2aee47d8cb"",""projectId"":""ba640c14-69c5-453e-80b2-29051492c0e0""}","https://test12345.live/?num_scrambled_semantic=8&num_scrambled_causal=4&num_scrambled_schematic=4&participantId=3E9F1278DDDE4280961F2B3413E2FCED&assignmentId=238e006e-9679-40f3-9ec4-bf2aee47d8cb&projectId=ba640c14-69c5-453e-80b2-29051492c0e0","3E9F1278DDDE4280961F2B3413E2FCED-2025-05-14-20-57-55","","1411","","images/semantic_sequence/self_care_activities_semantic/self_care_activities_semantic_7.png","0","",""
"","","","","","image-button-response","109","633191","0.0-14.0-1.0-2.6","3E9F1278DDDE4280961F2B3413E2FCED","3E9F1278DDDE4280961F2B3413E2FCED","238e006e-9679-40f3-9ec4-bf2aee47d8cb","ba640c14-69c5-453e-80b2-29051492c0e0","{""num_scrambled_semantic"":""8"",""num_scrambled_causal"":""4"",""num_scrambled_schematic"":""4"",""participantId"":""3E9F1278DDDE4280961F2B3413E2FCED"",""assignmentId"":""238e006e-9679-40f3-9ec4-bf2aee47d8cb"",""projectId"":""ba640c14-69c5-453e-80b2-29051492c0e0""}","https://test12345.live/?num_scrambled_semantic=8&num_scrambled_causal=4&num_scrambled_schematic=4&participantId=3E9F1278DDDE4280961F2B3413E2FCED&assignmentId=238e006e-9679-40f3-9ec4-bf2aee47d8cb&projectId=ba640c14-69c5-453e-80b2-29051492c0e0","3E9F1278DDDE4280961F2B3413E2FCED-2025-05-14-20-57-55","","null","","[]","null","",""
"","","","","","image-button-response","110","637693","0.0-14.0-1.0-0.7","3E9F1278DDDE4280961F2B3413E2FCED","3E9F1278DDDE4280961F2B3413E2FCED","238e006e-9679-40f3-9ec4-bf2aee47d8cb","ba640c14-69c5-453e-80b2-29051492c0e0","{""num_scrambled_semantic"":""8"",""num_scrambled_causal"":""4"",""num_scrambled_schematic"":""4"",""participantId"":""3E9F1278DDDE4280961F2B3413E2FCED"",""assignmentId"":""238e006e-9679-40f3-9ec4-bf2aee47d8cb"",""projectId"":""ba640c14-69c5-453e-80b2-29051492c0e0""}","https://test12345.live/?num_scrambled_semantic=8&num_scrambled_causal=4&num_scrambled_schematic=4&participantId=3E9F1278DDDE4280961F2B3413E2FCED&assignmentId=238e006e-9679-40f3-9ec4-bf2aee47d8cb&projectId=ba640c14-69c5-453e-80b2-29051492c0e0","3E9F1278DDDE4280961F2B3413E2FCED-2025-05-14-20-57-55","","null","","images/semantic_sequence/self_care_activities_semantic/self_care_activities_semantic_8.png","null","",""
"","","","","","image-button-response","111","638597","0.0-14.0-1.0-1.7","3E9F1278DDDE4280961F2B3413E2FCED","3E9F1278DDDE4280961F2B3413E2FCED","238e006e-9679-40f3-9ec4-bf2aee47d8cb","ba640c14-69c5-453e-80b2-29051492c0e0","{""num_scrambled_semantic"":""8"",""num_scrambled_causal"":""4"",""num_scrambled_schematic"":""4"",""participantId"":""3E9F1278DDDE4280961F2B3413E2FCED"",""assignmentId"":""238e006e-9679-40f3-9ec4-bf2aee47d8cb"",""projectId"":""ba640c14-69c5-453e-80b2-29051492c0e0""}","https://test12345.live/?num_scrambled_semantic=8&num_scrambled_causal=4&num_scrambled_schematic=4&participantId=3E9F1278DDDE4280961F2B3413E2FCED&assignmentId=238e006e-9679-40f3-9ec4-bf2aee47d8cb&projectId=ba640c14-69c5-453e-80b2-29051492c0e0","3E9F1278DDDE4280961F2B3413E2FCED-2025-05-14-20-57-55","","902","","images/semantic_sequence/self_care_activities_semantic/self_care_activities_semantic_8.png","0","",""
"","","","","","image-button-response","112","640402","0.0-14.0-1.0-2.7","3E9F1278DDDE4280961F2B3413E2FCED","3E9F1278DDDE4280961F2B3413E2FCED","238e006e-9679-40f3-9ec4-bf2aee47d8cb","ba640c14-69c5-453e-80b2-29051492c0e0","{""num_scrambled_semantic"":""8"",""num_scrambled_causal"":""4"",""num_scrambled_schematic"":""4"",""participantId"":""3E9F1278DDDE4280961F2B3413E2FCED"",""assignmentId"":""238e006e-9679-40f3-9ec4-bf2aee47d8cb"",""projectId"":""ba640c14-69c5-453e-80b2-29051492c0e0""}","https://test12345.live/?num_scrambled_semantic=8&num_scrambled_causal=4&num_scrambled_schematic=4&participantId=3E9F1278DDDE4280961F2B3413E2FCED&assignmentId=238e006e-9679-40f3-9ec4-bf2aee47d8cb&projectId=ba640c14-69c5-453e-80b2-29051492c0e0","3E9F1278DDDE4280961F2B3413E2FCED-2025-05-14-20-57-55","","null","","[]","null","",""
"","","","","","image-button-response","113","644916","0.0-14.0-1.0-0.8","3E9F1278DDDE4280961F2B3413E2FCED","3E9F1278DDDE4280961F2B3413E2FCED","238e006e-9679-40f3-9ec4-bf2aee47d8cb","ba640c14-69c5-453e-80b2-29051492c0e0","{""num_scrambled_semantic"":""8"",""num_scrambled_causal"":""4"",""num_scrambled_schematic"":""4"",""participantId"":""3E9F1278DDDE4280961F2B3413E2FCED"",""assignmentId"":""238e006e-9679-40f3-9ec4-bf2aee47d8cb"",""projectId"":""ba640c14-69c5-453e-80b2-29051492c0e0""}","https://test12345.live/?num_scrambled_semantic=8&num_scrambled_causal=4&num_scrambled_schematic=4&participantId=3E9F1278DDDE4280961F2B3413E2FCED&assignmentId=238e006e-9679-40f3-9ec4-bf2aee47d8cb&projectId=ba640c14-69c5-453e-80b2-29051492c0e0","3E9F1278DDDE4280961F2B3413E2FCED-2025-05-14-20-57-55","","null","","images/semantic_sequence/self_care_activities_semantic/self_care_activities_semantic_9.png","null","",""
