"success","timeout","failed_images","failed_audio","failed_video","trial_type","trial_index","time_elapsed","internal_node_id","subject","subject_id","study_id","session_id","urlvar","current_url","audio_id","view_history","rt","device_id","stimulus","response","estimated_stimulus_onset","seq_name"
"true","false","[]","[]","[]","preload","0","8116","0.0-0.0","40A913B2738F448281B638762074C110","40A913B2738F448281B638762074C110","0198ef25-7fd7-7836-bc91-0aad5db9753b","0198ee3c-27ac-7803-a9ea-f3b4ad4ad678","{""num_scrambled_semantic"":""8"",""num_scrambled_causal"":""4"",""num_scrambled_schematic"":""4"",""participantId"":""40A913B2738F448281B638762074C110"",""assignmentId"":""0198ef25-7fd7-7836-bc91-0aad5db9753b"",""projectId"":""0198ee3c-27ac-7803-a9ea-f3b4ad4ad678""}","https://test12345.live/?num_scrambled_semantic=8&num_scrambled_causal=4&num_scrambled_schematic=4&participantId=40A913B2738F448281B638762074C110&assignmentId=0198ef25-7fd7-7836-bc91-0aad5db9753b&projectId=0198ee3c-27ac-7803-a9ea-f3b4ad4ad678","40A913B2738F448281B638762074C110-2025-08-28-06-44-47","","","","","","",""
"","","","","","instructions","1","35062","0.0-1.0","40A913B2738F448281B638762074C110","40A913B2738F448281B638762074C110","0198ef25-7fd7-7836-bc91-0aad5db9753b","0198ee3c-27ac-7803-a9ea-f3b4ad4ad678","{""num_scrambled_semantic"":""8"",""num_scrambled_causal"":""4"",""num_scrambled_schematic"":""4"",""participantId"":""40A913B2738F448281B638762074C110"",""assignmentId"":""0198ef25-7fd7-7836-bc91-0aad5db9753b"",""projectId"":""0198ee3c-27ac-7803-a9ea-f3b4ad4ad678""}","https://test12345.live/?num_scrambled_semantic=8&num_scrambled_causal=4&num_scrambled_schematic=4&participantId=40A913B2738F448281B638762074C110&assignmentId=0198ef25-7fd7-7836-bc91-0aad5db9753b&projectId=0198ee3c-27ac-7803-a9ea-f3b4ad4ad678","40A913B2738F448281B638762074C110-2025-08-28-06-44-47","[{""page_index"":0,""viewing_time"":26946}]","26946","","","","",""
"","","","","","instructions","2","42566","0.0-2.0","40A913B2738F448281B638762074C110","40A913B2738F448281B638762074C110","0198ef25-7fd7-7836-bc91-0aad5db9753b","0198ee3c-27ac-7803-a9ea-f3b4ad4ad678","{""num_scrambled_semantic"":""8"",""num_scrambled_causal"":""4"",""num_scrambled_schematic"":""4"",""participantId"":""40A913B2738F448281B638762074C110"",""assignmentId"":""0198ef25-7fd7-7836-bc91-0aad5db9753b"",""projectId"":""0198ee3c-27ac-7803-a9ea-f3b4ad4ad678""}","https://test12345.live/?num_scrambled_semantic=8&num_scrambled_causal=4&num_scrambled_schematic=4&participantId=40A913B2738F448281B638762074C110&assignmentId=0198ef25-7fd7-7836-bc91-0aad5db9753b&projectId=0198ee3c-27ac-7803-a9ea-f3b4ad4ad678","40A913B2738F448281B638762074C110-2025-08-28-06-44-47","[{""page_index"":0,""viewing_time"":7503}]","7503","","","","",""
"true","","","","","fullscreen","3","44926","0.0-3.0","40A913B2738F448281B638762074C110","40A913B2738F448281B638762074C110","0198ef25-7fd7-7836-bc91-0aad5db9753b","0198ee3c-27ac-7803-a9ea-f3b4ad4ad678","{""num_scrambled_semantic"":""8"",""num_scrambled_causal"":""4"",""num_scrambled_schematic"":""4"",""participantId"":""40A913B2738F448281B638762074C110"",""assignmentId"":""0198ef25-7fd7-7836-bc91-0aad5db9753b"",""projectId"":""0198ee3c-27ac-7803-a9ea-f3b4ad4ad678""}","https://test12345.live/?num_scrambled_semantic=8&num_scrambled_causal=4&num_scrambled_schematic=4&participantId=40A913B2738F448281B638762074C110&assignmentId=0198ef25-7fd7-7836-bc91-0aad5db9753b&projectId=0198ee3c-27ac-7803-a9ea-f3b4ad4ad678","40A913B2738F448281B638762074C110-2025-08-28-06-44-47","","1342","","","","",""
"","","","","","initialize-microphone","4","62459","0.0-4.0-0.0","40A913B2738F448281B638762074C110","40A913B2738F448281B638762074C110","0198ef25-7fd7-7836-bc91-0aad5db9753b","0198ee3c-27ac-7803-a9ea-f3b4ad4ad678","{""num_scrambled_semantic"":""8"",""num_scrambled_causal"":""4"",""num_scrambled_schematic"":""4"",""participantId"":""40A913B2738F448281B638762074C110"",""assignmentId"":""0198ef25-7fd7-7836-bc91-0aad5db9753b"",""projectId"":""0198ee3c-27ac-7803-a9ea-f3b4ad4ad678""}","https://test12345.live/?num_scrambled_semantic=8&num_scrambled_causal=4&num_scrambled_schematic=4&participantId=40A913B2738F448281B638762074C110&assignmentId=0198ef25-7fd7-7836-bc91-0aad5db9753b&projectId=0198ee3c-27ac-7803-a9ea-f3b4ad4ad678","40A913B2738F448281B638762074C110-2025-08-28-06-44-47","","","fa02e402e9defee8eaaa835d2ed62226104df2a5737688975b88bfcf3e330e1a","","","",""
"","","","","","html-audio-response","5","90788","0.0-4.0-1.0","40A913B2738F448281B638762074C110","40A913B2738F448281B638762074C110","0198ef25-7fd7-7836-bc91-0aad5db9753b","0198ee3c-27ac-7803-a9ea-f3b4ad4ad678","{""num_scrambled_semantic"":""8"",""num_scrambled_causal"":""4"",""num_scrambled_schematic"":""4"",""participantId"":""40A913B2738F448281B638762074C110"",""assignmentId"":""0198ef25-7fd7-7836-bc91-0aad5db9753b"",""projectId"":""0198ee3c-27ac-7803-a9ea-f3b4ad4ad678""}","https://test12345.live/?num_scrambled_semantic=8&num_scrambled_causal=4&num_scrambled_schematic=4&participantId=40A913B2738F448281B638762074C110&assignmentId=0198ef25-7fd7-7836-bc91-0aad5db9753b&projectId=0198ee3c-27ac-7803-a9ea-f3b4ad4ad678","40A913B2738F448281B638762074C110-2025-08-28-06-44-47","","5106","","<span style=""color: red; font-size: 24px""> NOW RECORDING</span>
        <p>Please test Microphone</p>","","11",""
"","","","","","html-button-response","6","92610","0.0-4.0-2.0","40A913B2738F448281B638762074C110","40A913B2738F448281B638762074C110","0198ef25-7fd7-7836-bc91-0aad5db9753b","0198ee3c-27ac-7803-a9ea-f3b4ad4ad678","{""num_scrambled_semantic"":""8"",""num_scrambled_causal"":""4"",""num_scrambled_schematic"":""4"",""participantId"":""40A913B2738F448281B638762074C110"",""assignmentId"":""0198ef25-7fd7-7836-bc91-0aad5db9753b"",""projectId"":""0198ee3c-27ac-7803-a9ea-f3b4ad4ad678""}","https://test12345.live/?num_scrambled_semantic=8&num_scrambled_causal=4&num_scrambled_schematic=4&participantId=40A913B2738F448281B638762074C110&assignmentId=0198ef25-7fd7-7836-bc91-0aad5db9753b&projectId=0198ee3c-27ac-7803-a9ea-f3b4ad4ad678","40A913B2738F448281B638762074C110-2025-08-28-06-44-47","","1819","","<p style=""font-size:48px; color:red;"">Is Microphone OK?</p>","1","",""
"","","","","","instructions","7","205935","0.0-5.0","40A913B2738F448281B638762074C110","40A913B2738F448281B638762074C110","0198ef25-7fd7-7836-bc91-0aad5db9753b","0198ee3c-27ac-7803-a9ea-f3b4ad4ad678","{""num_scrambled_semantic"":""8"",""num_scrambled_causal"":""4"",""num_scrambled_schematic"":""4"",""participantId"":""40A913B2738F448281B638762074C110"",""assignmentId"":""0198ef25-7fd7-7836-bc91-0aad5db9753b"",""projectId"":""0198ee3c-27ac-7803-a9ea-f3b4ad4ad678""}","https://test12345.live/?num_scrambled_semantic=8&num_scrambled_causal=4&num_scrambled_schematic=4&participantId=40A913B2738F448281B638762074C110&assignmentId=0198ef25-7fd7-7836-bc91-0aad5db9753b&projectId=0198ee3c-27ac-7803-a9ea-f3b4ad4ad678","40A913B2738F448281B638762074C110-2025-08-28-06-44-47","[{""page_index"":0,""viewing_time"":16143},{""page_index"":1,""viewing_time"":97181}]","113324","","","","",""
"","","","","","image-button-response","8","211943","0.0-6.0-0.0","40A913B2738F448281B638762074C110","40A913B2738F448281B638762074C110","0198ef25-7fd7-7836-bc91-0aad5db9753b","0198ee3c-27ac-7803-a9ea-f3b4ad4ad678","{""num_scrambled_semantic"":""8"",""num_scrambled_causal"":""4"",""num_scrambled_schematic"":""4"",""participantId"":""40A913B2738F448281B638762074C110"",""assignmentId"":""0198ef25-7fd7-7836-bc91-0aad5db9753b"",""projectId"":""0198ee3c-27ac-7803-a9ea-f3b4ad4ad678""}","https://test12345.live/?num_scrambled_semantic=8&num_scrambled_causal=4&num_scrambled_schematic=4&participantId=40A913B2738F448281B638762074C110&assignmentId=0198ef25-7fd7-7836-bc91-0aad5db9753b&projectId=0198ee3c-27ac-7803-a9ea-f3b4ad4ad678","40A913B2738F448281B638762074C110-2025-08-28-06-44-47","","null","","images/instructions/movie_0.png","null","",""
"","","","","","image-button-response","9","216456","0.0-6.0-1.0-0.0","40A913B2738F448281B638762074C110","40A913B2738F448281B638762074C110","0198ef25-7fd7-7836-bc91-0aad5db9753b","0198ee3c-27ac-7803-a9ea-f3b4ad4ad678","{""num_scrambled_semantic"":""8"",""num_scrambled_causal"":""4"",""num_scrambled_schematic"":""4"",""participantId"":""40A913B2738F448281B638762074C110"",""assignmentId"":""0198ef25-7fd7-7836-bc91-0aad5db9753b"",""projectId"":""0198ee3c-27ac-7803-a9ea-f3b4ad4ad678""}","https://test12345.live/?num_scrambled_semantic=8&num_scrambled_causal=4&num_scrambled_schematic=4&participantId=40A913B2738F448281B638762074C110&assignmentId=0198ef25-7fd7-7836-bc91-0aad5db9753b&projectId=0198ee3c-27ac-7803-a9ea-f3b4ad4ad678","40A913B2738F448281B638762074C110-2025-08-28-06-44-47","","null","","images/instructions/movie_1.png","null","",""
"","","","","","image-button-response","10","220463","0.0-6.0-1.0-1.0","40A913B2738F448281B638762074C110","40A913B2738F448281B638762074C110","0198ef25-7fd7-7836-bc91-0aad5db9753b","0198ee3c-27ac-7803-a9ea-f3b4ad4ad678","{""num_scrambled_semantic"":""8"",""num_scrambled_causal"":""4"",""num_scrambled_schematic"":""4"",""participantId"":""40A913B2738F448281B638762074C110"",""assignmentId"":""0198ef25-7fd7-7836-bc91-0aad5db9753b"",""projectId"":""0198ee3c-27ac-7803-a9ea-f3b4ad4ad678""}","https://test12345.live/?num_scrambled_semantic=8&num_scrambled_causal=4&num_scrambled_schematic=4&participantId=40A913B2738F448281B638762074C110&assignmentId=0198ef25-7fd7-7836-bc91-0aad5db9753b&projectId=0198ee3c-27ac-7803-a9ea-f3b4ad4ad678","40A913B2738F448281B638762074C110-2025-08-28-06-44-47","","null","","images/instructions/movie_1.png","null","",""
"","","","","","image-button-response","11","222283","0.0-6.0-1.0-2.0","40A913B2738F448281B638762074C110","40A913B2738F448281B638762074C110","0198ef25-7fd7-7836-bc91-0aad5db9753b","0198ee3c-27ac-7803-a9ea-f3b4ad4ad678","{""num_scrambled_semantic"":""8"",""num_scrambled_causal"":""4"",""num_scrambled_schematic"":""4"",""participantId"":""40A913B2738F448281B638762074C110"",""assignmentId"":""0198ef25-7fd7-7836-bc91-0aad5db9753b"",""projectId"":""0198ee3c-27ac-7803-a9ea-f3b4ad4ad678""}","https://test12345.live/?num_scrambled_semantic=8&num_scrambled_causal=4&num_scrambled_schematic=4&participantId=40A913B2738F448281B638762074C110&assignmentId=0198ef25-7fd7-7836-bc91-0aad5db9753b&projectId=0198ee3c-27ac-7803-a9ea-f3b4ad4ad678","40A913B2738F448281B638762074C110-2025-08-28-06-44-47","","null","","[]","null","",""
"","","","","","image-button-response","12","226793","0.0-6.0-1.0-0.1","40A913B2738F448281B638762074C110","40A913B2738F448281B638762074C110","0198ef25-7fd7-7836-bc91-0aad5db9753b","0198ee3c-27ac-7803-a9ea-f3b4ad4ad678","{""num_scrambled_semantic"":""8"",""num_scrambled_causal"":""4"",""num_scrambled_schematic"":""4"",""participantId"":""40A913B2738F448281B638762074C110"",""assignmentId"":""0198ef25-7fd7-7836-bc91-0aad5db9753b"",""projectId"":""0198ee3c-27ac-7803-a9ea-f3b4ad4ad678""}","https://test12345.live/?num_scrambled_semantic=8&num_scrambled_causal=4&num_scrambled_schematic=4&participantId=40A913B2738F448281B638762074C110&assignmentId=0198ef25-7fd7-7836-bc91-0aad5db9753b&projectId=0198ee3c-27ac-7803-a9ea-f3b4ad4ad678","40A913B2738F448281B638762074C110-2025-08-28-06-44-47","","null","","images/instructions/movie_2.png","null","",""
"","","","","","image-button-response","13","228546","0.0-6.0-1.0-1.1","40A913B2738F448281B638762074C110","40A913B2738F448281B638762074C110","0198ef25-7fd7-7836-bc91-0aad5db9753b","0198ee3c-27ac-7803-a9ea-f3b4ad4ad678","{""num_scrambled_semantic"":""8"",""num_scrambled_causal"":""4"",""num_scrambled_schematic"":""4"",""participantId"":""40A913B2738F448281B638762074C110"",""assignmentId"":""0198ef25-7fd7-7836-bc91-0aad5db9753b"",""projectId"":""0198ee3c-27ac-7803-a9ea-f3b4ad4ad678""}","https://test12345.live/?num_scrambled_semantic=8&num_scrambled_causal=4&num_scrambled_schematic=4&participantId=40A913B2738F448281B638762074C110&assignmentId=0198ef25-7fd7-7836-bc91-0aad5db9753b&projectId=0198ee3c-27ac-7803-a9ea-f3b4ad4ad678","40A913B2738F448281B638762074C110-2025-08-28-06-44-47","","1752","","images/instructions/movie_2.png","0","",""
"","","","","","image-button-response","14","230355","0.0-6.0-1.0-2.1","40A913B2738F448281B638762074C110","40A913B2738F448281B638762074C110","0198ef25-7fd7-7836-bc91-0aad5db9753b","0198ee3c-27ac-7803-a9ea-f3b4ad4ad678","{""num_scrambled_semantic"":""8"",""num_scrambled_causal"":""4"",""num_scrambled_schematic"":""4"",""participantId"":""40A913B2738F448281B638762074C110"",""assignmentId"":""0198ef25-7fd7-7836-bc91-0aad5db9753b"",""projectId"":""0198ee3c-27ac-7803-a9ea-f3b4ad4ad678""}","https://test12345.live/?num_scrambled_semantic=8&num_scrambled_causal=4&num_scrambled_schematic=4&participantId=40A913B2738F448281B638762074C110&assignmentId=0198ef25-7fd7-7836-bc91-0aad5db9753b&projectId=0198ee3c-27ac-7803-a9ea-f3b4ad4ad678","40A913B2738F448281B638762074C110-2025-08-28-06-44-47","","null","","[]","null","",""
"","","","","","image-button-response","15","234859","0.0-6.0-1.0-0.2","40A913B2738F448281B638762074C110","40A913B2738F448281B638762074C110","0198ef25-7fd7-7836-bc91-0aad5db9753b","0198ee3c-27ac-7803-a9ea-f3b4ad4ad678","{""num_scrambled_semantic"":""8"",""num_scrambled_causal"":""4"",""num_scrambled_schematic"":""4"",""participantId"":""40A913B2738F448281B638762074C110"",""assignmentId"":""0198ef25-7fd7-7836-bc91-0aad5db9753b"",""projectId"":""0198ee3c-27ac-7803-a9ea-f3b4ad4ad678""}","https://test12345.live/?num_scrambled_semantic=8&num_scrambled_causal=4&num_scrambled_schematic=4&participantId=40A913B2738F448281B638762074C110&assignmentId=0198ef25-7fd7-7836-bc91-0aad5db9753b&projectId=0198ee3c-27ac-7803-a9ea-f3b4ad4ad678","40A913B2738F448281B638762074C110-2025-08-28-06-44-47","","null","","images/instructions/movie_3.png","null","",""
"","","","","","image-button-response","16","236887","0.0-6.0-1.0-1.2","40A913B2738F448281B638762074C110","40A913B2738F448281B638762074C110","0198ef25-7fd7-7836-bc91-0aad5db9753b","0198ee3c-27ac-7803-a9ea-f3b4ad4ad678","{""num_scrambled_semantic"":""8"",""num_scrambled_causal"":""4"",""num_scrambled_schematic"":""4"",""participantId"":""40A913B2738F448281B638762074C110"",""assignmentId"":""0198ef25-7fd7-7836-bc91-0aad5db9753b"",""projectId"":""0198ee3c-27ac-7803-a9ea-f3b4ad4ad678""}","https://test12345.live/?num_scrambled_semantic=8&num_scrambled_causal=4&num_scrambled_schematic=4&participantId=40A913B2738F448281B638762074C110&assignmentId=0198ef25-7fd7-7836-bc91-0aad5db9753b&projectId=0198ee3c-27ac-7803-a9ea-f3b4ad4ad678","40A913B2738F448281B638762074C110-2025-08-28-06-44-47","","2027","","images/instructions/movie_3.png","0","",""
"","","","","","image-button-response","17","238690","0.0-6.0-1.0-2.2","40A913B2738F448281B638762074C110","40A913B2738F448281B638762074C110","0198ef25-7fd7-7836-bc91-0aad5db9753b","0198ee3c-27ac-7803-a9ea-f3b4ad4ad678","{""num_scrambled_semantic"":""8"",""num_scrambled_causal"":""4"",""num_scrambled_schematic"":""4"",""participantId"":""40A913B2738F448281B638762074C110"",""assignmentId"":""0198ef25-7fd7-7836-bc91-0aad5db9753b"",""projectId"":""0198ee3c-27ac-7803-a9ea-f3b4ad4ad678""}","https://test12345.live/?num_scrambled_semantic=8&num_scrambled_causal=4&num_scrambled_schematic=4&participantId=40A913B2738F448281B638762074C110&assignmentId=0198ef25-7fd7-7836-bc91-0aad5db9753b&projectId=0198ee3c-27ac-7803-a9ea-f3b4ad4ad678","40A913B2738F448281B638762074C110-2025-08-28-06-44-47","","null","","[]","null","",""
"","","","","","image-button-response","18","243193","0.0-6.0-1.0-0.3","40A913B2738F448281B638762074C110","40A913B2738F448281B638762074C110","0198ef25-7fd7-7836-bc91-0aad5db9753b","0198ee3c-27ac-7803-a9ea-f3b4ad4ad678","{""num_scrambled_semantic"":""8"",""num_scrambled_causal"":""4"",""num_scrambled_schematic"":""4"",""participantId"":""40A913B2738F448281B638762074C110"",""assignmentId"":""0198ef25-7fd7-7836-bc91-0aad5db9753b"",""projectId"":""0198ee3c-27ac-7803-a9ea-f3b4ad4ad678""}","https://test12345.live/?num_scrambled_semantic=8&num_scrambled_causal=4&num_scrambled_schematic=4&participantId=40A913B2738F448281B638762074C110&assignmentId=0198ef25-7fd7-7836-bc91-0aad5db9753b&projectId=0198ee3c-27ac-7803-a9ea-f3b4ad4ad678","40A913B2738F448281B638762074C110-2025-08-28-06-44-47","","null","","images/instructions/movie_4.png","null","",""
"","","","","","image-button-response","19","244549","0.0-6.0-1.0-1.3","40A913B2738F448281B638762074C110","40A913B2738F448281B638762074C110","0198ef25-7fd7-7836-bc91-0aad5db9753b","0198ee3c-27ac-7803-a9ea-f3b4ad4ad678","{""num_scrambled_semantic"":""8"",""num_scrambled_causal"":""4"",""num_scrambled_schematic"":""4"",""participantId"":""40A913B2738F448281B638762074C110"",""assignmentId"":""0198ef25-7fd7-7836-bc91-0aad5db9753b"",""projectId"":""0198ee3c-27ac-7803-a9ea-f3b4ad4ad678""}","https://test12345.live/?num_scrambled_semantic=8&num_scrambled_causal=4&num_scrambled_schematic=4&participantId=40A913B2738F448281B638762074C110&assignmentId=0198ef25-7fd7-7836-bc91-0aad5db9753b&projectId=0198ee3c-27ac-7803-a9ea-f3b4ad4ad678","40A913B2738F448281B638762074C110-2025-08-28-06-44-47","","1354","","images/instructions/movie_4.png","0","",""
"","","","","","image-button-response","20","246359","0.0-6.0-1.0-2.3","40A913B2738F448281B638762074C110","40A913B2738F448281B638762074C110","0198ef25-7fd7-7836-bc91-0aad5db9753b","0198ee3c-27ac-7803-a9ea-f3b4ad4ad678","{""num_scrambled_semantic"":""8"",""num_scrambled_causal"":""4"",""num_scrambled_schematic"":""4"",""participantId"":""40A913B2738F448281B638762074C110"",""assignmentId"":""0198ef25-7fd7-7836-bc91-0aad5db9753b"",""projectId"":""0198ee3c-27ac-7803-a9ea-f3b4ad4ad678""}","https://test12345.live/?num_scrambled_semantic=8&num_scrambled_causal=4&num_scrambled_schematic=4&participantId=40A913B2738F448281B638762074C110&assignmentId=0198ef25-7fd7-7836-bc91-0aad5db9753b&projectId=0198ee3c-27ac-7803-a9ea-f3b4ad4ad678","40A913B2738F448281B638762074C110-2025-08-28-06-44-47","","null","","[]","null","",""
"","","","","","instructions","21","268892","0.0-7.0","40A913B2738F448281B638762074C110","40A913B2738F448281B638762074C110","0198ef25-7fd7-7836-bc91-0aad5db9753b","0198ee3c-27ac-7803-a9ea-f3b4ad4ad678","{""num_scrambled_semantic"":""8"",""num_scrambled_causal"":""4"",""num_scrambled_schematic"":""4"",""participantId"":""40A913B2738F448281B638762074C110"",""assignmentId"":""0198ef25-7fd7-7836-bc91-0aad5db9753b"",""projectId"":""0198ee3c-27ac-7803-a9ea-f3b4ad4ad678""}","https://test12345.live/?num_scrambled_semantic=8&num_scrambled_causal=4&num_scrambled_schematic=4&participantId=40A913B2738F448281B638762074C110&assignmentId=0198ef25-7fd7-7836-bc91-0aad5db9753b&projectId=0198ee3c-27ac-7803-a9ea-f3b4ad4ad678","40A913B2738F448281B638762074C110-2025-08-28-06-44-47","[{""page_index"":0,""viewing_time"":22528}]","22528","","","","",""
"","","","","","html-audio-response","22","321563","0.0-8.0","40A913B2738F448281B638762074C110","40A913B2738F448281B638762074C110","0198ef25-7fd7-7836-bc91-0aad5db9753b","0198ee3c-27ac-7803-a9ea-f3b4ad4ad678","{""num_scrambled_semantic"":""8"",""num_scrambled_causal"":""4"",""num_scrambled_schematic"":""4"",""participantId"":""40A913B2738F448281B638762074C110"",""assignmentId"":""0198ef25-7fd7-7836-bc91-0aad5db9753b"",""projectId"":""0198ee3c-27ac-7803-a9ea-f3b4ad4ad678""}","https://test12345.live/?num_scrambled_semantic=8&num_scrambled_causal=4&num_scrambled_schematic=4&participantId=40A913B2738F448281B638762074C110&assignmentId=0198ef25-7fd7-7836-bc91-0aad5db9753b&projectId=0198ee3c-27ac-7803-a9ea-f3b4ad4ad678","40A913B2738F448281B638762074C110-2025-08-28-06-44-47","","17118","","[""<span style=\""color: red; font-size: 24px\""> NOW RECORDING</span><p>Please say out loud all the images you saw, in the order of the story they create. Try to recall the sequence of events as they appeared in the story, not necessarily the order they were presented on the screen.</p>""]","","4",""
"","","","","","instructions","23","595187","0.0-9.0","40A913B2738F448281B638762074C110","40A913B2738F448281B638762074C110","0198ef25-7fd7-7836-bc91-0aad5db9753b","0198ee3c-27ac-7803-a9ea-f3b4ad4ad678","{""num_scrambled_semantic"":""8"",""num_scrambled_causal"":""4"",""num_scrambled_schematic"":""4"",""participantId"":""40A913B2738F448281B638762074C110"",""assignmentId"":""0198ef25-7fd7-7836-bc91-0aad5db9753b"",""projectId"":""0198ee3c-27ac-7803-a9ea-f3b4ad4ad678""}","https://test12345.live/?num_scrambled_semantic=8&num_scrambled_causal=4&num_scrambled_schematic=4&participantId=40A913B2738F448281B638762074C110&assignmentId=0198ef25-7fd7-7836-bc91-0aad5db9753b&projectId=0198ee3c-27ac-7803-a9ea-f3b4ad4ad678","40A913B2738F448281B638762074C110-2025-08-28-06-44-47","[{""page_index"":0,""viewing_time"":273617}]","273617","","","","",""
"","","","","","image-button-response","24","601197","0.0-10.0-0.0","40A913B2738F448281B638762074C110","40A913B2738F448281B638762074C110","0198ef25-7fd7-7836-bc91-0aad5db9753b","0198ee3c-27ac-7803-a9ea-f3b4ad4ad678","{""num_scrambled_semantic"":""8"",""num_scrambled_causal"":""4"",""num_scrambled_schematic"":""4"",""participantId"":""40A913B2738F448281B638762074C110"",""assignmentId"":""0198ef25-7fd7-7836-bc91-0aad5db9753b"",""projectId"":""0198ee3c-27ac-7803-a9ea-f3b4ad4ad678""}","https://test12345.live/?num_scrambled_semantic=8&num_scrambled_causal=4&num_scrambled_schematic=4&participantId=40A913B2738F448281B638762074C110&assignmentId=0198ef25-7fd7-7836-bc91-0aad5db9753b&projectId=0198ee3c-27ac-7803-a9ea-f3b4ad4ad678","40A913B2738F448281B638762074C110-2025-08-28-06-44-47","","null","","images/semantic_sequence/redecorating_a_house_semantic/redecorating_a_house_semantic_0.png","null","",""
"","","","","","image-button-response","25","605707","0.0-10.0-1.0-0.0","40A913B2738F448281B638762074C110","40A913B2738F448281B638762074C110","0198ef25-7fd7-7836-bc91-0aad5db9753b","0198ee3c-27ac-7803-a9ea-f3b4ad4ad678","{""num_scrambled_semantic"":""8"",""num_scrambled_causal"":""4"",""num_scrambled_schematic"":""4"",""participantId"":""40A913B2738F448281B638762074C110"",""assignmentId"":""0198ef25-7fd7-7836-bc91-0aad5db9753b"",""projectId"":""0198ee3c-27ac-7803-a9ea-f3b4ad4ad678""}","https://test12345.live/?num_scrambled_semantic=8&num_scrambled_causal=4&num_scrambled_schematic=4&participantId=40A913B2738F448281B638762074C110&assignmentId=0198ef25-7fd7-7836-bc91-0aad5db9753b&projectId=0198ee3c-27ac-7803-a9ea-f3b4ad4ad678","40A913B2738F448281B638762074C110-2025-08-28-06-44-47","","null","","images/semantic_sequence/redecorating_a_house_semantic/redecorating_a_house_semantic_1.png","null","",""
"","","","","","image-button-response","26","607816","0.0-10.0-1.0-1.0","40A913B2738F448281B638762074C110","40A913B2738F448281B638762074C110","0198ef25-7fd7-7836-bc91-0aad5db9753b","0198ee3c-27ac-7803-a9ea-f3b4ad4ad678","{""num_scrambled_semantic"":""8"",""num_scrambled_causal"":""4"",""num_scrambled_schematic"":""4"",""participantId"":""40A913B2738F448281B638762074C110"",""assignmentId"":""0198ef25-7fd7-7836-bc91-0aad5db9753b"",""projectId"":""0198ee3c-27ac-7803-a9ea-f3b4ad4ad678""}","https://test12345.live/?num_scrambled_semantic=8&num_scrambled_causal=4&num_scrambled_schematic=4&participantId=40A913B2738F448281B638762074C110&assignmentId=0198ef25-7fd7-7836-bc91-0aad5db9753b&projectId=0198ee3c-27ac-7803-a9ea-f3b4ad4ad678","40A913B2738F448281B638762074C110-2025-08-28-06-44-47","","2107","","images/semantic_sequence/redecorating_a_house_semantic/redecorating_a_house_semantic_1.png","0","",""
"","","","","","image-button-response","27","609626","0.0-10.0-1.0-2.0","40A913B2738F448281B638762074C110","40A913B2738F448281B638762074C110","0198ef25-7fd7-7836-bc91-0aad5db9753b","0198ee3c-27ac-7803-a9ea-f3b4ad4ad678","{""num_scrambled_semantic"":""8"",""num_scrambled_causal"":""4"",""num_scrambled_schematic"":""4"",""participantId"":""40A913B2738F448281B638762074C110"",""assignmentId"":""0198ef25-7fd7-7836-bc91-0aad5db9753b"",""projectId"":""0198ee3c-27ac-7803-a9ea-f3b4ad4ad678""}","https://test12345.live/?num_scrambled_semantic=8&num_scrambled_causal=4&num_scrambled_schematic=4&participantId=40A913B2738F448281B638762074C110&assignmentId=0198ef25-7fd7-7836-bc91-0aad5db9753b&projectId=0198ee3c-27ac-7803-a9ea-f3b4ad4ad678","40A913B2738F448281B638762074C110-2025-08-28-06-44-47","","null","","[]","null","",""
"","","","","","image-button-response","28","614134","0.0-10.0-1.0-0.1","40A913B2738F448281B638762074C110","40A913B2738F448281B638762074C110","0198ef25-7fd7-7836-bc91-0aad5db9753b","0198ee3c-27ac-7803-a9ea-f3b4ad4ad678","{""num_scrambled_semantic"":""8"",""num_scrambled_causal"":""4"",""num_scrambled_schematic"":""4"",""participantId"":""40A913B2738F448281B638762074C110"",""assignmentId"":""0198ef25-7fd7-7836-bc91-0aad5db9753b"",""projectId"":""0198ee3c-27ac-7803-a9ea-f3b4ad4ad678""}","https://test12345.live/?num_scrambled_semantic=8&num_scrambled_causal=4&num_scrambled_schematic=4&participantId=40A913B2738F448281B638762074C110&assignmentId=0198ef25-7fd7-7836-bc91-0aad5db9753b&projectId=0198ee3c-27ac-7803-a9ea-f3b4ad4ad678","40A913B2738F448281B638762074C110-2025-08-28-06-44-47","","null","","images/semantic_sequence/redecorating_a_house_semantic/redecorating_a_house_semantic_2.png","null","",""
"","","","","","image-button-response","29","615414","0.0-10.0-1.0-1.1","40A913B2738F448281B638762074C110","40A913B2738F448281B638762074C110","0198ef25-7fd7-7836-bc91-0aad5db9753b","0198ee3c-27ac-7803-a9ea-f3b4ad4ad678","{""num_scrambled_semantic"":""8"",""num_scrambled_causal"":""4"",""num_scrambled_schematic"":""4"",""participantId"":""40A913B2738F448281B638762074C110"",""assignmentId"":""0198ef25-7fd7-7836-bc91-0aad5db9753b"",""projectId"":""0198ee3c-27ac-7803-a9ea-f3b4ad4ad678""}","https://test12345.live/?num_scrambled_semantic=8&num_scrambled_causal=4&num_scrambled_schematic=4&participantId=40A913B2738F448281B638762074C110&assignmentId=0198ef25-7fd7-7836-bc91-0aad5db9753b&projectId=0198ee3c-27ac-7803-a9ea-f3b4ad4ad678","40A913B2738F448281B638762074C110-2025-08-28-06-44-47","","1279","","images/semantic_sequence/redecorating_a_house_semantic/redecorating_a_house_semantic_2.png","0","",""
"","","","","","image-button-response","30","617227","0.0-10.0-1.0-2.1","40A913B2738F448281B638762074C110","40A913B2738F448281B638762074C110","0198ef25-7fd7-7836-bc91-0aad5db9753b","0198ee3c-27ac-7803-a9ea-f3b4ad4ad678","{""num_scrambled_semantic"":""8"",""num_scrambled_causal"":""4"",""num_scrambled_schematic"":""4"",""participantId"":""40A913B2738F448281B638762074C110"",""assignmentId"":""0198ef25-7fd7-7836-bc91-0aad5db9753b"",""projectId"":""0198ee3c-27ac-7803-a9ea-f3b4ad4ad678""}","https://test12345.live/?num_scrambled_semantic=8&num_scrambled_causal=4&num_scrambled_schematic=4&participantId=40A913B2738F448281B638762074C110&assignmentId=0198ef25-7fd7-7836-bc91-0aad5db9753b&projectId=0198ee3c-27ac-7803-a9ea-f3b4ad4ad678","40A913B2738F448281B638762074C110-2025-08-28-06-44-47","","null","","[]","null","",""
"","","","","","image-button-response","31","621729","0.0-10.0-1.0-0.2","40A913B2738F448281B638762074C110","40A913B2738F448281B638762074C110","0198ef25-7fd7-7836-bc91-0aad5db9753b","0198ee3c-27ac-7803-a9ea-f3b4ad4ad678","{""num_scrambled_semantic"":""8"",""num_scrambled_causal"":""4"",""num_scrambled_schematic"":""4"",""participantId"":""40A913B2738F448281B638762074C110"",""assignmentId"":""0198ef25-7fd7-7836-bc91-0aad5db9753b"",""projectId"":""0198ee3c-27ac-7803-a9ea-f3b4ad4ad678""}","https://test12345.live/?num_scrambled_semantic=8&num_scrambled_causal=4&num_scrambled_schematic=4&participantId=40A913B2738F448281B638762074C110&assignmentId=0198ef25-7fd7-7836-bc91-0aad5db9753b&projectId=0198ee3c-27ac-7803-a9ea-f3b4ad4ad678","40A913B2738F448281B638762074C110-2025-08-28-06-44-47","","null","","images/semantic_sequence/redecorating_a_house_semantic/redecorating_a_house_semantic_3.png","null","",""
"","","","","","image-button-response","32","623113","0.0-10.0-1.0-1.2","40A913B2738F448281B638762074C110","40A913B2738F448281B638762074C110","0198ef25-7fd7-7836-bc91-0aad5db9753b","0198ee3c-27ac-7803-a9ea-f3b4ad4ad678","{""num_scrambled_semantic"":""8"",""num_scrambled_causal"":""4"",""num_scrambled_schematic"":""4"",""participantId"":""40A913B2738F448281B638762074C110"",""assignmentId"":""0198ef25-7fd7-7836-bc91-0aad5db9753b"",""projectId"":""0198ee3c-27ac-7803-a9ea-f3b4ad4ad678""}","https://test12345.live/?num_scrambled_semantic=8&num_scrambled_causal=4&num_scrambled_schematic=4&participantId=40A913B2738F448281B638762074C110&assignmentId=0198ef25-7fd7-7836-bc91-0aad5db9753b&projectId=0198ee3c-27ac-7803-a9ea-f3b4ad4ad678","40A913B2738F448281B638762074C110-2025-08-28-06-44-47","","1382","","images/semantic_sequence/redecorating_a_house_semantic/redecorating_a_house_semantic_3.png","0","",""
"","","","","","image-button-response","33","624922","0.0-10.0-1.0-2.2","40A913B2738F448281B638762074C110","40A913B2738F448281B638762074C110","0198ef25-7fd7-7836-bc91-0aad5db9753b","0198ee3c-27ac-7803-a9ea-f3b4ad4ad678","{""num_scrambled_semantic"":""8"",""num_scrambled_causal"":""4"",""num_scrambled_schematic"":""4"",""participantId"":""40A913B2738F448281B638762074C110"",""assignmentId"":""0198ef25-7fd7-7836-bc91-0aad5db9753b"",""projectId"":""0198ee3c-27ac-7803-a9ea-f3b4ad4ad678""}","https://test12345.live/?num_scrambled_semantic=8&num_scrambled_causal=4&num_scrambled_schematic=4&participantId=40A913B2738F448281B638762074C110&assignmentId=0198ef25-7fd7-7836-bc91-0aad5db9753b&projectId=0198ee3c-27ac-7803-a9ea-f3b4ad4ad678","40A913B2738F448281B638762074C110-2025-08-28-06-44-47","","null","","[]","null","",""
"","","","","","image-button-response","34","629430","0.0-10.0-1.0-0.3","40A913B2738F448281B638762074C110","40A913B2738F448281B638762074C110","0198ef25-7fd7-7836-bc91-0aad5db9753b","0198ee3c-27ac-7803-a9ea-f3b4ad4ad678","{""num_scrambled_semantic"":""8"",""num_scrambled_causal"":""4"",""num_scrambled_schematic"":""4"",""participantId"":""40A913B2738F448281B638762074C110"",""assignmentId"":""0198ef25-7fd7-7836-bc91-0aad5db9753b"",""projectId"":""0198ee3c-27ac-7803-a9ea-f3b4ad4ad678""}","https://test12345.live/?num_scrambled_semantic=8&num_scrambled_causal=4&num_scrambled_schematic=4&participantId=40A913B2738F448281B638762074C110&assignmentId=0198ef25-7fd7-7836-bc91-0aad5db9753b&projectId=0198ee3c-27ac-7803-a9ea-f3b4ad4ad678","40A913B2738F448281B638762074C110-2025-08-28-06-44-47","","null","","images/semantic_sequence/redecorating_a_house_semantic/redecorating_a_house_semantic_4.png","null","",""
"","","","","","image-button-response","35","630214","0.0-10.0-1.0-1.3","40A913B2738F448281B638762074C110","40A913B2738F448281B638762074C110","0198ef25-7fd7-7836-bc91-0aad5db9753b","0198ee3c-27ac-7803-a9ea-f3b4ad4ad678","{""num_scrambled_semantic"":""8"",""num_scrambled_causal"":""4"",""num_scrambled_schematic"":""4"",""participantId"":""40A913B2738F448281B638762074C110"",""assignmentId"":""0198ef25-7fd7-7836-bc91-0aad5db9753b"",""projectId"":""0198ee3c-27ac-7803-a9ea-f3b4ad4ad678""}","https://test12345.live/?num_scrambled_semantic=8&num_scrambled_causal=4&num_scrambled_schematic=4&participantId=40A913B2738F448281B638762074C110&assignmentId=0198ef25-7fd7-7836-bc91-0aad5db9753b&projectId=0198ee3c-27ac-7803-a9ea-f3b4ad4ad678","40A913B2738F448281B638762074C110-2025-08-28-06-44-47","","782","","images/semantic_sequence/redecorating_a_house_semantic/redecorating_a_house_semantic_4.png","0","",""
"","","","","","image-button-response","36","632023","0.0-10.0-1.0-2.3","40A913B2738F448281B638762074C110","40A913B2738F448281B638762074C110","0198ef25-7fd7-7836-bc91-0aad5db9753b","0198ee3c-27ac-7803-a9ea-f3b4ad4ad678","{""num_scrambled_semantic"":""8"",""num_scrambled_causal"":""4"",""num_scrambled_schematic"":""4"",""participantId"":""40A913B2738F448281B638762074C110"",""assignmentId"":""0198ef25-7fd7-7836-bc91-0aad5db9753b"",""projectId"":""0198ee3c-27ac-7803-a9ea-f3b4ad4ad678""}","https://test12345.live/?num_scrambled_semantic=8&num_scrambled_causal=4&num_scrambled_schematic=4&participantId=40A913B2738F448281B638762074C110&assignmentId=0198ef25-7fd7-7836-bc91-0aad5db9753b&projectId=0198ee3c-27ac-7803-a9ea-f3b4ad4ad678","40A913B2738F448281B638762074C110-2025-08-28-06-44-47","","null","","[]","null","",""
"","","","","","image-button-response","37","636529","0.0-10.0-1.0-0.4","40A913B2738F448281B638762074C110","40A913B2738F448281B638762074C110","0198ef25-7fd7-7836-bc91-0aad5db9753b","0198ee3c-27ac-7803-a9ea-f3b4ad4ad678","{""num_scrambled_semantic"":""8"",""num_scrambled_causal"":""4"",""num_scrambled_schematic"":""4"",""participantId"":""40A913B2738F448281B638762074C110"",""assignmentId"":""0198ef25-7fd7-7836-bc91-0aad5db9753b"",""projectId"":""0198ee3c-27ac-7803-a9ea-f3b4ad4ad678""}","https://test12345.live/?num_scrambled_semantic=8&num_scrambled_causal=4&num_scrambled_schematic=4&participantId=40A913B2738F448281B638762074C110&assignmentId=0198ef25-7fd7-7836-bc91-0aad5db9753b&projectId=0198ee3c-27ac-7803-a9ea-f3b4ad4ad678","40A913B2738F448281B638762074C110-2025-08-28-06-44-47","","null","","images/semantic_sequence/redecorating_a_house_semantic/redecorating_a_house_semantic_5.png","null","",""
"","","","","","image-button-response","38","637681","0.0-10.0-1.0-1.4","40A913B2738F448281B638762074C110","40A913B2738F448281B638762074C110","0198ef25-7fd7-7836-bc91-0aad5db9753b","0198ee3c-27ac-7803-a9ea-f3b4ad4ad678","{""num_scrambled_semantic"":""8"",""num_scrambled_causal"":""4"",""num_scrambled_schematic"":""4"",""participantId"":""40A913B2738F448281B638762074C110"",""assignmentId"":""0198ef25-7fd7-7836-bc91-0aad5db9753b"",""projectId"":""0198ee3c-27ac-7803-a9ea-f3b4ad4ad678""}","https://test12345.live/?num_scrambled_semantic=8&num_scrambled_causal=4&num_scrambled_schematic=4&participantId=40A913B2738F448281B638762074C110&assignmentId=0198ef25-7fd7-7836-bc91-0aad5db9753b&projectId=0198ee3c-27ac-7803-a9ea-f3b4ad4ad678","40A913B2738F448281B638762074C110-2025-08-28-06-44-47","","1148","","images/semantic_sequence/redecorating_a_house_semantic/redecorating_a_house_semantic_5.png","0","",""
"","","","","","image-button-response","39","639498","0.0-10.0-1.0-2.4","40A913B2738F448281B638762074C110","40A913B2738F448281B638762074C110","0198ef25-7fd7-7836-bc91-0aad5db9753b","0198ee3c-27ac-7803-a9ea-f3b4ad4ad678","{""num_scrambled_semantic"":""8"",""num_scrambled_causal"":""4"",""num_scrambled_schematic"":""4"",""participantId"":""40A913B2738F448281B638762074C110"",""assignmentId"":""0198ef25-7fd7-7836-bc91-0aad5db9753b"",""projectId"":""0198ee3c-27ac-7803-a9ea-f3b4ad4ad678""}","https://test12345.live/?num_scrambled_semantic=8&num_scrambled_causal=4&num_scrambled_schematic=4&participantId=40A913B2738F448281B638762074C110&assignmentId=0198ef25-7fd7-7836-bc91-0aad5db9753b&projectId=0198ee3c-27ac-7803-a9ea-f3b4ad4ad678","40A913B2738F448281B638762074C110-2025-08-28-06-44-47","","null","","[]","null","",""
"","","","","","image-button-response","40","644006","0.0-10.0-1.0-0.5","40A913B2738F448281B638762074C110","40A913B2738F448281B638762074C110","0198ef25-7fd7-7836-bc91-0aad5db9753b","0198ee3c-27ac-7803-a9ea-f3b4ad4ad678","{""num_scrambled_semantic"":""8"",""num_scrambled_causal"":""4"",""num_scrambled_schematic"":""4"",""participantId"":""40A913B2738F448281B638762074C110"",""assignmentId"":""0198ef25-7fd7-7836-bc91-0aad5db9753b"",""projectId"":""0198ee3c-27ac-7803-a9ea-f3b4ad4ad678""}","https://test12345.live/?num_scrambled_semantic=8&num_scrambled_causal=4&num_scrambled_schematic=4&participantId=40A913B2738F448281B638762074C110&assignmentId=0198ef25-7fd7-7836-bc91-0aad5db9753b&projectId=0198ee3c-27ac-7803-a9ea-f3b4ad4ad678","40A913B2738F448281B638762074C110-2025-08-28-06-44-47","","null","","images/semantic_sequence/redecorating_a_house_semantic/redecorating_a_house_semantic_6.png","null","",""
"","","","","","image-button-response","41","645254","0.0-10.0-1.0-1.5","40A913B2738F448281B638762074C110","40A913B2738F448281B638762074C110","0198ef25-7fd7-7836-bc91-0aad5db9753b","0198ee3c-27ac-7803-a9ea-f3b4ad4ad678","{""num_scrambled_semantic"":""8"",""num_scrambled_causal"":""4"",""num_scrambled_schematic"":""4"",""participantId"":""40A913B2738F448281B638762074C110"",""assignmentId"":""0198ef25-7fd7-7836-bc91-0aad5db9753b"",""projectId"":""0198ee3c-27ac-7803-a9ea-f3b4ad4ad678""}","https://test12345.live/?num_scrambled_semantic=8&num_scrambled_causal=4&num_scrambled_schematic=4&participantId=40A913B2738F448281B638762074C110&assignmentId=0198ef25-7fd7-7836-bc91-0aad5db9753b&projectId=0198ee3c-27ac-7803-a9ea-f3b4ad4ad678","40A913B2738F448281B638762074C110-2025-08-28-06-44-47","","1245","","images/semantic_sequence/redecorating_a_house_semantic/redecorating_a_house_semantic_6.png","0","",""
"","","","","","image-button-response","42","647056","0.0-10.0-1.0-2.5","40A913B2738F448281B638762074C110","40A913B2738F448281B638762074C110","0198ef25-7fd7-7836-bc91-0aad5db9753b","0198ee3c-27ac-7803-a9ea-f3b4ad4ad678","{""num_scrambled_semantic"":""8"",""num_scrambled_causal"":""4"",""num_scrambled_schematic"":""4"",""participantId"":""40A913B2738F448281B638762074C110"",""assignmentId"":""0198ef25-7fd7-7836-bc91-0aad5db9753b"",""projectId"":""0198ee3c-27ac-7803-a9ea-f3b4ad4ad678""}","https://test12345.live/?num_scrambled_semantic=8&num_scrambled_causal=4&num_scrambled_schematic=4&participantId=40A913B2738F448281B638762074C110&assignmentId=0198ef25-7fd7-7836-bc91-0aad5db9753b&projectId=0198ee3c-27ac-7803-a9ea-f3b4ad4ad678","40A913B2738F448281B638762074C110-2025-08-28-06-44-47","","null","","[]","null","",""
"","","","","","image-button-response","43","651570","0.0-10.0-1.0-0.6","40A913B2738F448281B638762074C110","40A913B2738F448281B638762074C110","0198ef25-7fd7-7836-bc91-0aad5db9753b","0198ee3c-27ac-7803-a9ea-f3b4ad4ad678","{""num_scrambled_semantic"":""8"",""num_scrambled_causal"":""4"",""num_scrambled_schematic"":""4"",""participantId"":""40A913B2738F448281B638762074C110"",""assignmentId"":""0198ef25-7fd7-7836-bc91-0aad5db9753b"",""projectId"":""0198ee3c-27ac-7803-a9ea-f3b4ad4ad678""}","https://test12345.live/?num_scrambled_semantic=8&num_scrambled_causal=4&num_scrambled_schematic=4&participantId=40A913B2738F448281B638762074C110&assignmentId=0198ef25-7fd7-7836-bc91-0aad5db9753b&projectId=0198ee3c-27ac-7803-a9ea-f3b4ad4ad678","40A913B2738F448281B638762074C110-2025-08-28-06-44-47","","null","","images/semantic_sequence/redecorating_a_house_semantic/redecorating_a_house_semantic_7.png","null","",""
"","","","","","image-button-response","44","653249","0.0-10.0-1.0-1.6","40A913B2738F448281B638762074C110","40A913B2738F448281B638762074C110","0198ef25-7fd7-7836-bc91-0aad5db9753b","0198ee3c-27ac-7803-a9ea-f3b4ad4ad678","{""num_scrambled_semantic"":""8"",""num_scrambled_causal"":""4"",""num_scrambled_schematic"":""4"",""participantId"":""40A913B2738F448281B638762074C110"",""assignmentId"":""0198ef25-7fd7-7836-bc91-0aad5db9753b"",""projectId"":""0198ee3c-27ac-7803-a9ea-f3b4ad4ad678""}","https://test12345.live/?num_scrambled_semantic=8&num_scrambled_causal=4&num_scrambled_schematic=4&participantId=40A913B2738F448281B638762074C110&assignmentId=0198ef25-7fd7-7836-bc91-0aad5db9753b&projectId=0198ee3c-27ac-7803-a9ea-f3b4ad4ad678","40A913B2738F448281B638762074C110-2025-08-28-06-44-47","","1678","","images/semantic_sequence/redecorating_a_house_semantic/redecorating_a_house_semantic_7.png","0","",""
"","","","","","image-button-response","45","655060","0.0-10.0-1.0-2.6","40A913B2738F448281B638762074C110","40A913B2738F448281B638762074C110","0198ef25-7fd7-7836-bc91-0aad5db9753b","0198ee3c-27ac-7803-a9ea-f3b4ad4ad678","{""num_scrambled_semantic"":""8"",""num_scrambled_causal"":""4"",""num_scrambled_schematic"":""4"",""participantId"":""40A913B2738F448281B638762074C110"",""assignmentId"":""0198ef25-7fd7-7836-bc91-0aad5db9753b"",""projectId"":""0198ee3c-27ac-7803-a9ea-f3b4ad4ad678""}","https://test12345.live/?num_scrambled_semantic=8&num_scrambled_causal=4&num_scrambled_schematic=4&participantId=40A913B2738F448281B638762074C110&assignmentId=0198ef25-7fd7-7836-bc91-0aad5db9753b&projectId=0198ee3c-27ac-7803-a9ea-f3b4ad4ad678","40A913B2738F448281B638762074C110-2025-08-28-06-44-47","","null","","[]","null","",""
"","","","","","image-button-response","46","659562","0.0-10.0-1.0-0.7","40A913B2738F448281B638762074C110","40A913B2738F448281B638762074C110","0198ef25-7fd7-7836-bc91-0aad5db9753b","0198ee3c-27ac-7803-a9ea-f3b4ad4ad678","{""num_scrambled_semantic"":""8"",""num_scrambled_causal"":""4"",""num_scrambled_schematic"":""4"",""participantId"":""40A913B2738F448281B638762074C110"",""assignmentId"":""0198ef25-7fd7-7836-bc91-0aad5db9753b"",""projectId"":""0198ee3c-27ac-7803-a9ea-f3b4ad4ad678""}","https://test12345.live/?num_scrambled_semantic=8&num_scrambled_causal=4&num_scrambled_schematic=4&participantId=40A913B2738F448281B638762074C110&assignmentId=0198ef25-7fd7-7836-bc91-0aad5db9753b&projectId=0198ee3c-27ac-7803-a9ea-f3b4ad4ad678","40A913B2738F448281B638762074C110-2025-08-28-06-44-47","","null","","images/semantic_sequence/redecorating_a_house_semantic/redecorating_a_house_semantic_8.png","null","",""
"","","","","","image-button-response","47","660508","0.0-10.0-1.0-1.7","40A913B2738F448281B638762074C110","40A913B2738F448281B638762074C110","0198ef25-7fd7-7836-bc91-0aad5db9753b","0198ee3c-27ac-7803-a9ea-f3b4ad4ad678","{""num_scrambled_semantic"":""8"",""num_scrambled_causal"":""4"",""num_scrambled_schematic"":""4"",""participantId"":""40A913B2738F448281B638762074C110"",""assignmentId"":""0198ef25-7fd7-7836-bc91-0aad5db9753b"",""projectId"":""0198ee3c-27ac-7803-a9ea-f3b4ad4ad678""}","https://test12345.live/?num_scrambled_semantic=8&num_scrambled_causal=4&num_scrambled_schematic=4&participantId=40A913B2738F448281B638762074C110&assignmentId=0198ef25-7fd7-7836-bc91-0aad5db9753b&projectId=0198ee3c-27ac-7803-a9ea-f3b4ad4ad678","40A913B2738F448281B638762074C110-2025-08-28-06-44-47","","945","","images/semantic_sequence/redecorating_a_house_semantic/redecorating_a_house_semantic_8.png","0","",""
"","","","","","image-button-response","48","662318","0.0-10.0-1.0-2.7","40A913B2738F448281B638762074C110","40A913B2738F448281B638762074C110","0198ef25-7fd7-7836-bc91-0aad5db9753b","0198ee3c-27ac-7803-a9ea-f3b4ad4ad678","{""num_scrambled_semantic"":""8"",""num_scrambled_causal"":""4"",""num_scrambled_schematic"":""4"",""participantId"":""40A913B2738F448281B638762074C110"",""assignmentId"":""0198ef25-7fd7-7836-bc91-0aad5db9753b"",""projectId"":""0198ee3c-27ac-7803-a9ea-f3b4ad4ad678""}","https://test12345.live/?num_scrambled_semantic=8&num_scrambled_causal=4&num_scrambled_schematic=4&participantId=40A913B2738F448281B638762074C110&assignmentId=0198ef25-7fd7-7836-bc91-0aad5db9753b&projectId=0198ee3c-27ac-7803-a9ea-f3b4ad4ad678","40A913B2738F448281B638762074C110-2025-08-28-06-44-47","","null","","[]","null","",""
"","","","","","image-button-response","49","666828","0.0-10.0-1.0-0.8","40A913B2738F448281B638762074C110","40A913B2738F448281B638762074C110","0198ef25-7fd7-7836-bc91-0aad5db9753b","0198ee3c-27ac-7803-a9ea-f3b4ad4ad678","{""num_scrambled_semantic"":""8"",""num_scrambled_causal"":""4"",""num_scrambled_schematic"":""4"",""participantId"":""40A913B2738F448281B638762074C110"",""assignmentId"":""0198ef25-7fd7-7836-bc91-0aad5db9753b"",""projectId"":""0198ee3c-27ac-7803-a9ea-f3b4ad4ad678""}","https://test12345.live/?num_scrambled_semantic=8&num_scrambled_causal=4&num_scrambled_schematic=4&participantId=40A913B2738F448281B638762074C110&assignmentId=0198ef25-7fd7-7836-bc91-0aad5db9753b&projectId=0198ee3c-27ac-7803-a9ea-f3b4ad4ad678","40A913B2738F448281B638762074C110-2025-08-28-06-44-47","","null","","images/semantic_sequence/redecorating_a_house_semantic/redecorating_a_house_semantic_9.png","null","",""
"","","","","","image-button-response","50","668045","0.0-10.0-1.0-1.8","40A913B2738F448281B638762074C110","40A913B2738F448281B638762074C110","0198ef25-7fd7-7836-bc91-0aad5db9753b","0198ee3c-27ac-7803-a9ea-f3b4ad4ad678","{""num_scrambled_semantic"":""8"",""num_scrambled_causal"":""4"",""num_scrambled_schematic"":""4"",""participantId"":""40A913B2738F448281B638762074C110"",""assignmentId"":""0198ef25-7fd7-7836-bc91-0aad5db9753b"",""projectId"":""0198ee3c-27ac-7803-a9ea-f3b4ad4ad678""}","https://test12345.live/?num_scrambled_semantic=8&num_scrambled_causal=4&num_scrambled_schematic=4&participantId=40A913B2738F448281B638762074C110&assignmentId=0198ef25-7fd7-7836-bc91-0aad5db9753b&projectId=0198ee3c-27ac-7803-a9ea-f3b4ad4ad678","40A913B2738F448281B638762074C110-2025-08-28-06-44-47","","1216","","images/semantic_sequence/redecorating_a_house_semantic/redecorating_a_house_semantic_9.png","0","",""
"","","","","","image-button-response","51","669848","0.0-10.0-1.0-2.8","40A913B2738F448281B638762074C110","40A913B2738F448281B638762074C110","0198ef25-7fd7-7836-bc91-0aad5db9753b","0198ee3c-27ac-7803-a9ea-f3b4ad4ad678","{""num_scrambled_semantic"":""8"",""num_scrambled_causal"":""4"",""num_scrambled_schematic"":""4"",""participantId"":""40A913B2738F448281B638762074C110"",""assignmentId"":""0198ef25-7fd7-7836-bc91-0aad5db9753b"",""projectId"":""0198ee3c-27ac-7803-a9ea-f3b4ad4ad678""}","https://test12345.live/?num_scrambled_semantic=8&num_scrambled_causal=4&num_scrambled_schematic=4&participantId=40A913B2738F448281B638762074C110&assignmentId=0198ef25-7fd7-7836-bc91-0aad5db9753b&projectId=0198ee3c-27ac-7803-a9ea-f3b4ad4ad678","40A913B2738F448281B638762074C110-2025-08-28-06-44-47","","null","","[]","null","",""
"","","","","","image-button-response","52","674360","0.0-10.0-1.0-0.9","40A913B2738F448281B638762074C110","40A913B2738F448281B638762074C110","0198ef25-7fd7-7836-bc91-0aad5db9753b","0198ee3c-27ac-7803-a9ea-f3b4ad4ad678","{""num_scrambled_semantic"":""8"",""num_scrambled_causal"":""4"",""num_scrambled_schematic"":""4"",""participantId"":""40A913B2738F448281B638762074C110"",""assignmentId"":""0198ef25-7fd7-7836-bc91-0aad5db9753b"",""projectId"":""0198ee3c-27ac-7803-a9ea-f3b4ad4ad678""}","https://test12345.live/?num_scrambled_semantic=8&num_scrambled_causal=4&num_scrambled_schematic=4&participantId=40A913B2738F448281B638762074C110&assignmentId=0198ef25-7fd7-7836-bc91-0aad5db9753b&projectId=0198ee3c-27ac-7803-a9ea-f3b4ad4ad678","40A913B2738F448281B638762074C110-2025-08-28-06-44-47","","null","","images/semantic_sequence/redecorating_a_house_semantic/redecorating_a_house_semantic_ten.png","null","",""
"","","","","","image-button-response","53","676733","0.0-10.0-1.0-1.9","40A913B2738F448281B638762074C110","40A913B2738F448281B638762074C110","0198ef25-7fd7-7836-bc91-0aad5db9753b","0198ee3c-27ac-7803-a9ea-f3b4ad4ad678","{""num_scrambled_semantic"":""8"",""num_scrambled_causal"":""4"",""num_scrambled_schematic"":""4"",""participantId"":""40A913B2738F448281B638762074C110"",""assignmentId"":""0198ef25-7fd7-7836-bc91-0aad5db9753b"",""projectId"":""0198ee3c-27ac-7803-a9ea-f3b4ad4ad678""}","https://test12345.live/?num_scrambled_semantic=8&num_scrambled_causal=4&num_scrambled_schematic=4&participantId=40A913B2738F448281B638762074C110&assignmentId=0198ef25-7fd7-7836-bc91-0aad5db9753b&projectId=0198ee3c-27ac-7803-a9ea-f3b4ad4ad678","40A913B2738F448281B638762074C110-2025-08-28-06-44-47","","2370","","images/semantic_sequence/redecorating_a_house_semantic/redecorating_a_house_semantic_ten.png","0","",""
"","","","","","image-button-response","54","678538","0.0-10.0-1.0-2.9","40A913B2738F448281B638762074C110","40A913B2738F448281B638762074C110","0198ef25-7fd7-7836-bc91-0aad5db9753b","0198ee3c-27ac-7803-a9ea-f3b4ad4ad678","{""num_scrambled_semantic"":""8"",""num_scrambled_causal"":""4"",""num_scrambled_schematic"":""4"",""participantId"":""40A913B2738F448281B638762074C110"",""assignmentId"":""0198ef25-7fd7-7836-bc91-0aad5db9753b"",""projectId"":""0198ee3c-27ac-7803-a9ea-f3b4ad4ad678""}","https://test12345.live/?num_scrambled_semantic=8&num_scrambled_causal=4&num_scrambled_schematic=4&participantId=40A913B2738F448281B638762074C110&assignmentId=0198ef25-7fd7-7836-bc91-0aad5db9753b&projectId=0198ee3c-27ac-7803-a9ea-f3b4ad4ad678","40A913B2738F448281B638762074C110-2025-08-28-06-44-47","","null","","[]","null","",""
"","","","","","html-audio-response","55","794857","0.0-11.0","40A913B2738F448281B638762074C110","40A913B2738F448281B638762074C110","0198ef25-7fd7-7836-bc91-0aad5db9753b","0198ee3c-27ac-7803-a9ea-f3b4ad4ad678","{""num_scrambled_semantic"":""8"",""num_scrambled_causal"":""4"",""num_scrambled_schematic"":""4"",""participantId"":""40A913B2738F448281B638762074C110"",""assignmentId"":""0198ef25-7fd7-7836-bc91-0aad5db9753b"",""projectId"":""0198ee3c-27ac-7803-a9ea-f3b4ad4ad678""}","https://test12345.live/?num_scrambled_semantic=8&num_scrambled_causal=4&num_scrambled_schematic=4&participantId=40A913B2738F448281B638762074C110&assignmentId=0198ef25-7fd7-7836-bc91-0aad5db9753b&projectId=0198ee3c-27ac-7803-a9ea-f3b4ad4ad678","40A913B2738F448281B638762074C110-2025-08-28-06-44-47","","null","","[""<span style=\""color: red; font-size: 24px\""> NOW RECORDING</span><p>Please say out loud all the images you saw, in the order of the story they create. Try to recall the sequence of events as they appeared in the story, not necessarily the order they were presented on the screen.</p>""]","","2","redecorating_a_house_semantic"
"","","","","","image-button-response","56","800875","0.0-12.0-0.0","40A913B2738F448281B638762074C110","40A913B2738F448281B638762074C110","0198ef25-7fd7-7836-bc91-0aad5db9753b","0198ee3c-27ac-7803-a9ea-f3b4ad4ad678","{""num_scrambled_semantic"":""8"",""num_scrambled_causal"":""4"",""num_scrambled_schematic"":""4"",""participantId"":""40A913B2738F448281B638762074C110"",""assignmentId"":""0198ef25-7fd7-7836-bc91-0aad5db9753b"",""projectId"":""0198ee3c-27ac-7803-a9ea-f3b4ad4ad678""}","https://test12345.live/?num_scrambled_semantic=8&num_scrambled_causal=4&num_scrambled_schematic=4&participantId=40A913B2738F448281B638762074C110&assignmentId=0198ef25-7fd7-7836-bc91-0aad5db9753b&projectId=0198ee3c-27ac-7803-a9ea-f3b4ad4ad678","40A913B2738F448281B638762074C110-2025-08-28-06-44-47","","null","","images/semantic_sequence/housework_semantic/housework_semantic_0.png","null","",""
"","","","","","image-button-response","57","805378","0.0-12.0-1.0-0.0","40A913B2738F448281B638762074C110","40A913B2738F448281B638762074C110","0198ef25-7fd7-7836-bc91-0aad5db9753b","0198ee3c-27ac-7803-a9ea-f3b4ad4ad678","{""num_scrambled_semantic"":""8"",""num_scrambled_causal"":""4"",""num_scrambled_schematic"":""4"",""participantId"":""40A913B2738F448281B638762074C110"",""assignmentId"":""0198ef25-7fd7-7836-bc91-0aad5db9753b"",""projectId"":""0198ee3c-27ac-7803-a9ea-f3b4ad4ad678""}","https://test12345.live/?num_scrambled_semantic=8&num_scrambled_causal=4&num_scrambled_schematic=4&participantId=40A913B2738F448281B638762074C110&assignmentId=0198ef25-7fd7-7836-bc91-0aad5db9753b&projectId=0198ee3c-27ac-7803-a9ea-f3b4ad4ad678","40A913B2738F448281B638762074C110-2025-08-28-06-44-47","","null","","images/semantic_sequence/housework_semantic/housework_semantic_8.png","null","",""
"","","","","","image-button-response","58","806881","0.0-12.0-1.0-1.0","40A913B2738F448281B638762074C110","40A913B2738F448281B638762074C110","0198ef25-7fd7-7836-bc91-0aad5db9753b","0198ee3c-27ac-7803-a9ea-f3b4ad4ad678","{""num_scrambled_semantic"":""8"",""num_scrambled_causal"":""4"",""num_scrambled_schematic"":""4"",""participantId"":""40A913B2738F448281B638762074C110"",""assignmentId"":""0198ef25-7fd7-7836-bc91-0aad5db9753b"",""projectId"":""0198ee3c-27ac-7803-a9ea-f3b4ad4ad678""}","https://test12345.live/?num_scrambled_semantic=8&num_scrambled_causal=4&num_scrambled_schematic=4&participantId=40A913B2738F448281B638762074C110&assignmentId=0198ef25-7fd7-7836-bc91-0aad5db9753b&projectId=0198ee3c-27ac-7803-a9ea-f3b4ad4ad678","40A913B2738F448281B638762074C110-2025-08-28-06-44-47","","1500","","images/semantic_sequence/housework_semantic/housework_semantic_8.png","0","",""
"","","","","","image-button-response","59","808686","0.0-12.0-1.0-2.0","40A913B2738F448281B638762074C110","40A913B2738F448281B638762074C110","0198ef25-7fd7-7836-bc91-0aad5db9753b","0198ee3c-27ac-7803-a9ea-f3b4ad4ad678","{""num_scrambled_semantic"":""8"",""num_scrambled_causal"":""4"",""num_scrambled_schematic"":""4"",""participantId"":""40A913B2738F448281B638762074C110"",""assignmentId"":""0198ef25-7fd7-7836-bc91-0aad5db9753b"",""projectId"":""0198ee3c-27ac-7803-a9ea-f3b4ad4ad678""}","https://test12345.live/?num_scrambled_semantic=8&num_scrambled_causal=4&num_scrambled_schematic=4&participantId=40A913B2738F448281B638762074C110&assignmentId=0198ef25-7fd7-7836-bc91-0aad5db9753b&projectId=0198ee3c-27ac-7803-a9ea-f3b4ad4ad678","40A913B2738F448281B638762074C110-2025-08-28-06-44-47","","null","","[]","null","",""
"","","","","","image-button-response","60","813195","0.0-12.0-1.0-0.1","40A913B2738F448281B638762074C110","40A913B2738F448281B638762074C110","0198ef25-7fd7-7836-bc91-0aad5db9753b","0198ee3c-27ac-7803-a9ea-f3b4ad4ad678","{""num_scrambled_semantic"":""8"",""num_scrambled_causal"":""4"",""num_scrambled_schematic"":""4"",""participantId"":""40A913B2738F448281B638762074C110"",""assignmentId"":""0198ef25-7fd7-7836-bc91-0aad5db9753b"",""projectId"":""0198ee3c-27ac-7803-a9ea-f3b4ad4ad678""}","https://test12345.live/?num_scrambled_semantic=8&num_scrambled_causal=4&num_scrambled_schematic=4&participantId=40A913B2738F448281B638762074C110&assignmentId=0198ef25-7fd7-7836-bc91-0aad5db9753b&projectId=0198ee3c-27ac-7803-a9ea-f3b4ad4ad678","40A913B2738F448281B638762074C110-2025-08-28-06-44-47","","null","","images/semantic_sequence/housework_semantic/housework_semantic_ten.png","null","",""
"","","","","","image-button-response","61","817202","0.0-12.0-1.0-1.1","40A913B2738F448281B638762074C110","40A913B2738F448281B638762074C110","0198ef25-7fd7-7836-bc91-0aad5db9753b","0198ee3c-27ac-7803-a9ea-f3b4ad4ad678","{""num_scrambled_semantic"":""8"",""num_scrambled_causal"":""4"",""num_scrambled_schematic"":""4"",""participantId"":""40A913B2738F448281B638762074C110"",""assignmentId"":""0198ef25-7fd7-7836-bc91-0aad5db9753b"",""projectId"":""0198ee3c-27ac-7803-a9ea-f3b4ad4ad678""}","https://test12345.live/?num_scrambled_semantic=8&num_scrambled_causal=4&num_scrambled_schematic=4&participantId=40A913B2738F448281B638762074C110&assignmentId=0198ef25-7fd7-7836-bc91-0aad5db9753b&projectId=0198ee3c-27ac-7803-a9ea-f3b4ad4ad678","40A913B2738F448281B638762074C110-2025-08-28-06-44-47","","null","","images/semantic_sequence/housework_semantic/housework_semantic_ten.png","null","",""
"","","","","","image-button-response","62","820750","0.0-12.0-1.0-2.1","40A913B2738F448281B638762074C110","40A913B2738F448281B638762074C110","0198ef25-7fd7-7836-bc91-0aad5db9753b","0198ee3c-27ac-7803-a9ea-f3b4ad4ad678","{""num_scrambled_semantic"":""8"",""num_scrambled_causal"":""4"",""num_scrambled_schematic"":""4"",""participantId"":""40A913B2738F448281B638762074C110"",""assignmentId"":""0198ef25-7fd7-7836-bc91-0aad5db9753b"",""projectId"":""0198ee3c-27ac-7803-a9ea-f3b4ad4ad678""}","https://test12345.live/?num_scrambled_semantic=8&num_scrambled_causal=4&num_scrambled_schematic=4&participantId=40A913B2738F448281B638762074C110&assignmentId=0198ef25-7fd7-7836-bc91-0aad5db9753b&projectId=0198ee3c-27ac-7803-a9ea-f3b4ad4ad678","40A913B2738F448281B638762074C110-2025-08-28-06-44-47","","null","","[]","null","",""
"","","","","","image-button-response","63","825255","0.0-12.0-1.0-0.2","40A913B2738F448281B638762074C110","40A913B2738F448281B638762074C110","0198ef25-7fd7-7836-bc91-0aad5db9753b","0198ee3c-27ac-7803-a9ea-f3b4ad4ad678","{""num_scrambled_semantic"":""8"",""num_scrambled_causal"":""4"",""num_scrambled_schematic"":""4"",""participantId"":""40A913B2738F448281B638762074C110"",""assignmentId"":""0198ef25-7fd7-7836-bc91-0aad5db9753b"",""projectId"":""0198ee3c-27ac-7803-a9ea-f3b4ad4ad678""}","https://test12345.live/?num_scrambled_semantic=8&num_scrambled_causal=4&num_scrambled_schematic=4&participantId=40A913B2738F448281B638762074C110&assignmentId=0198ef25-7fd7-7836-bc91-0aad5db9753b&projectId=0198ee3c-27ac-7803-a9ea-f3b4ad4ad678","40A913B2738F448281B638762074C110-2025-08-28-06-44-47","","null","","images/semantic_sequence/housework_semantic/housework_semantic_5.png","null","",""
"","","","","","image-button-response","64","826277","0.0-12.0-1.0-1.2","40A913B2738F448281B638762074C110","40A913B2738F448281B638762074C110","0198ef25-7fd7-7836-bc91-0aad5db9753b","0198ee3c-27ac-7803-a9ea-f3b4ad4ad678","{""num_scrambled_semantic"":""8"",""num_scrambled_causal"":""4"",""num_scrambled_schematic"":""4"",""participantId"":""40A913B2738F448281B638762074C110"",""assignmentId"":""0198ef25-7fd7-7836-bc91-0aad5db9753b"",""projectId"":""0198ee3c-27ac-7803-a9ea-f3b4ad4ad678""}","https://test12345.live/?num_scrambled_semantic=8&num_scrambled_causal=4&num_scrambled_schematic=4&participantId=40A913B2738F448281B638762074C110&assignmentId=0198ef25-7fd7-7836-bc91-0aad5db9753b&projectId=0198ee3c-27ac-7803-a9ea-f3b4ad4ad678","40A913B2738F448281B638762074C110-2025-08-28-06-44-47","","1020","","images/semantic_sequence/housework_semantic/housework_semantic_5.png","0","",""
"","","","","","image-button-response","65","828086","0.0-12.0-1.0-2.2","40A913B2738F448281B638762074C110","40A913B2738F448281B638762074C110","0198ef25-7fd7-7836-bc91-0aad5db9753b","0198ee3c-27ac-7803-a9ea-f3b4ad4ad678","{""num_scrambled_semantic"":""8"",""num_scrambled_causal"":""4"",""num_scrambled_schematic"":""4"",""participantId"":""40A913B2738F448281B638762074C110"",""assignmentId"":""0198ef25-7fd7-7836-bc91-0aad5db9753b"",""projectId"":""0198ee3c-27ac-7803-a9ea-f3b4ad4ad678""}","https://test12345.live/?num_scrambled_semantic=8&num_scrambled_causal=4&num_scrambled_schematic=4&participantId=40A913B2738F448281B638762074C110&assignmentId=0198ef25-7fd7-7836-bc91-0aad5db9753b&projectId=0198ee3c-27ac-7803-a9ea-f3b4ad4ad678","40A913B2738F448281B638762074C110-2025-08-28-06-44-47","","null","","[]","null","",""
"","","","","","image-button-response","66","832596","0.0-12.0-1.0-0.3","40A913B2738F448281B638762074C110","40A913B2738F448281B638762074C110","0198ef25-7fd7-7836-bc91-0aad5db9753b","0198ee3c-27ac-7803-a9ea-f3b4ad4ad678","{""num_scrambled_semantic"":""8"",""num_scrambled_causal"":""4"",""num_scrambled_schematic"":""4"",""participantId"":""40A913B2738F448281B638762074C110"",""assignmentId"":""0198ef25-7fd7-7836-bc91-0aad5db9753b"",""projectId"":""0198ee3c-27ac-7803-a9ea-f3b4ad4ad678""}","https://test12345.live/?num_scrambled_semantic=8&num_scrambled_causal=4&num_scrambled_schematic=4&participantId=40A913B2738F448281B638762074C110&assignmentId=0198ef25-7fd7-7836-bc91-0aad5db9753b&projectId=0198ee3c-27ac-7803-a9ea-f3b4ad4ad678","40A913B2738F448281B638762074C110-2025-08-28-06-44-47","","null","","images/semantic_sequence/housework_semantic/housework_semantic_6.png","null","",""
"","","","","","image-button-response","67","833676","0.0-12.0-1.0-1.3","40A913B2738F448281B638762074C110","40A913B2738F448281B638762074C110","0198ef25-7fd7-7836-bc91-0aad5db9753b","0198ee3c-27ac-7803-a9ea-f3b4ad4ad678","{""num_scrambled_semantic"":""8"",""num_scrambled_causal"":""4"",""num_scrambled_schematic"":""4"",""participantId"":""40A913B2738F448281B638762074C110"",""assignmentId"":""0198ef25-7fd7-7836-bc91-0aad5db9753b"",""projectId"":""0198ee3c-27ac-7803-a9ea-f3b4ad4ad678""}","https://test12345.live/?num_scrambled_semantic=8&num_scrambled_causal=4&num_scrambled_schematic=4&participantId=40A913B2738F448281B638762074C110&assignmentId=0198ef25-7fd7-7836-bc91-0aad5db9753b&projectId=0198ee3c-27ac-7803-a9ea-f3b4ad4ad678","40A913B2738F448281B638762074C110-2025-08-28-06-44-47","","1079","","images/semantic_sequence/housework_semantic/housework_semantic_6.png","0","",""
"","","","","","image-button-response","68","835483","0.0-12.0-1.0-2.3","40A913B2738F448281B638762074C110","40A913B2738F448281B638762074C110","0198ef25-7fd7-7836-bc91-0aad5db9753b","0198ee3c-27ac-7803-a9ea-f3b4ad4ad678","{""num_scrambled_semantic"":""8"",""num_scrambled_causal"":""4"",""num_scrambled_schematic"":""4"",""participantId"":""40A913B2738F448281B638762074C110"",""assignmentId"":""0198ef25-7fd7-7836-bc91-0aad5db9753b"",""projectId"":""0198ee3c-27ac-7803-a9ea-f3b4ad4ad678""}","https://test12345.live/?num_scrambled_semantic=8&num_scrambled_causal=4&num_scrambled_schematic=4&participantId=40A913B2738F448281B638762074C110&assignmentId=0198ef25-7fd7-7836-bc91-0aad5db9753b&projectId=0198ee3c-27ac-7803-a9ea-f3b4ad4ad678","40A913B2738F448281B638762074C110-2025-08-28-06-44-47","","null","","[]","null","",""
"","","","","","image-button-response","69","839991","0.0-12.0-1.0-0.4","40A913B2738F448281B638762074C110","40A913B2738F448281B638762074C110","0198ef25-7fd7-7836-bc91-0aad5db9753b","0198ee3c-27ac-7803-a9ea-f3b4ad4ad678","{""num_scrambled_semantic"":""8"",""num_scrambled_causal"":""4"",""num_scrambled_schematic"":""4"",""participantId"":""40A913B2738F448281B638762074C110"",""assignmentId"":""0198ef25-7fd7-7836-bc91-0aad5db9753b"",""projectId"":""0198ee3c-27ac-7803-a9ea-f3b4ad4ad678""}","https://test12345.live/?num_scrambled_semantic=8&num_scrambled_causal=4&num_scrambled_schematic=4&participantId=40A913B2738F448281B638762074C110&assignmentId=0198ef25-7fd7-7836-bc91-0aad5db9753b&projectId=0198ee3c-27ac-7803-a9ea-f3b4ad4ad678","40A913B2738F448281B638762074C110-2025-08-28-06-44-47","","null","","images/semantic_sequence/housework_semantic/housework_semantic_3.png","null","",""
"","","","","","image-button-response","70","840982","0.0-12.0-1.0-1.4","40A913B2738F448281B638762074C110","40A913B2738F448281B638762074C110","0198ef25-7fd7-7836-bc91-0aad5db9753b","0198ee3c-27ac-7803-a9ea-f3b4ad4ad678","{""num_scrambled_semantic"":""8"",""num_scrambled_causal"":""4"",""num_scrambled_schematic"":""4"",""participantId"":""40A913B2738F448281B638762074C110"",""assignmentId"":""0198ef25-7fd7-7836-bc91-0aad5db9753b"",""projectId"":""0198ee3c-27ac-7803-a9ea-f3b4ad4ad678""}","https://test12345.live/?num_scrambled_semantic=8&num_scrambled_causal=4&num_scrambled_schematic=4&participantId=40A913B2738F448281B638762074C110&assignmentId=0198ef25-7fd7-7836-bc91-0aad5db9753b&projectId=0198ee3c-27ac-7803-a9ea-f3b4ad4ad678","40A913B2738F448281B638762074C110-2025-08-28-06-44-47","","990","","images/semantic_sequence/housework_semantic/housework_semantic_3.png","0","",""
"","","","","","image-button-response","71","842785","0.0-12.0-1.0-2.4","40A913B2738F448281B638762074C110","40A913B2738F448281B638762074C110","0198ef25-7fd7-7836-bc91-0aad5db9753b","0198ee3c-27ac-7803-a9ea-f3b4ad4ad678","{""num_scrambled_semantic"":""8"",""num_scrambled_causal"":""4"",""num_scrambled_schematic"":""4"",""participantId"":""40A913B2738F448281B638762074C110"",""assignmentId"":""0198ef25-7fd7-7836-bc91-0aad5db9753b"",""projectId"":""0198ee3c-27ac-7803-a9ea-f3b4ad4ad678""}","https://test12345.live/?num_scrambled_semantic=8&num_scrambled_causal=4&num_scrambled_schematic=4&participantId=40A913B2738F448281B638762074C110&assignmentId=0198ef25-7fd7-7836-bc91-0aad5db9753b&projectId=0198ee3c-27ac-7803-a9ea-f3b4ad4ad678","40A913B2738F448281B638762074C110-2025-08-28-06-44-47","","null","","[]","null","",""
"","","","","","image-button-response","72","847290","0.0-12.0-1.0-0.5","40A913B2738F448281B638762074C110","40A913B2738F448281B638762074C110","0198ef25-7fd7-7836-bc91-0aad5db9753b","0198ee3c-27ac-7803-a9ea-f3b4ad4ad678","{""num_scrambled_semantic"":""8"",""num_scrambled_causal"":""4"",""num_scrambled_schematic"":""4"",""participantId"":""40A913B2738F448281B638762074C110"",""assignmentId"":""0198ef25-7fd7-7836-bc91-0aad5db9753b"",""projectId"":""0198ee3c-27ac-7803-a9ea-f3b4ad4ad678""}","https://test12345.live/?num_scrambled_semantic=8&num_scrambled_causal=4&num_scrambled_schematic=4&participantId=40A913B2738F448281B638762074C110&assignmentId=0198ef25-7fd7-7836-bc91-0aad5db9753b&projectId=0198ee3c-27ac-7803-a9ea-f3b4ad4ad678","40A913B2738F448281B638762074C110-2025-08-28-06-44-47","","null","","images/semantic_sequence/housework_semantic/housework_semantic_2.png","null","",""
"","","","","","image-button-response","73","847891","0.0-12.0-1.0-1.5","40A913B2738F448281B638762074C110","40A913B2738F448281B638762074C110","0198ef25-7fd7-7836-bc91-0aad5db9753b","0198ee3c-27ac-7803-a9ea-f3b4ad4ad678","{""num_scrambled_semantic"":""8"",""num_scrambled_causal"":""4"",""num_scrambled_schematic"":""4"",""participantId"":""40A913B2738F448281B638762074C110"",""assignmentId"":""0198ef25-7fd7-7836-bc91-0aad5db9753b"",""projectId"":""0198ee3c-27ac-7803-a9ea-f3b4ad4ad678""}","https://test12345.live/?num_scrambled_semantic=8&num_scrambled_causal=4&num_scrambled_schematic=4&participantId=40A913B2738F448281B638762074C110&assignmentId=0198ef25-7fd7-7836-bc91-0aad5db9753b&projectId=0198ee3c-27ac-7803-a9ea-f3b4ad4ad678","40A913B2738F448281B638762074C110-2025-08-28-06-44-47","","599","","images/semantic_sequence/housework_semantic/housework_semantic_2.png","0","",""
"","","","","","image-button-response","74","849700","0.0-12.0-1.0-2.5","40A913B2738F448281B638762074C110","40A913B2738F448281B638762074C110","0198ef25-7fd7-7836-bc91-0aad5db9753b","0198ee3c-27ac-7803-a9ea-f3b4ad4ad678","{""num_scrambled_semantic"":""8"",""num_scrambled_causal"":""4"",""num_scrambled_schematic"":""4"",""participantId"":""40A913B2738F448281B638762074C110"",""assignmentId"":""0198ef25-7fd7-7836-bc91-0aad5db9753b"",""projectId"":""0198ee3c-27ac-7803-a9ea-f3b4ad4ad678""}","https://test12345.live/?num_scrambled_semantic=8&num_scrambled_causal=4&num_scrambled_schematic=4&participantId=40A913B2738F448281B638762074C110&assignmentId=0198ef25-7fd7-7836-bc91-0aad5db9753b&projectId=0198ee3c-27ac-7803-a9ea-f3b4ad4ad678","40A913B2738F448281B638762074C110-2025-08-28-06-44-47","","null","","[]","null","",""
"","","","","","image-button-response","75","854208","0.0-12.0-1.0-0.6","40A913B2738F448281B638762074C110","40A913B2738F448281B638762074C110","0198ef25-7fd7-7836-bc91-0aad5db9753b","0198ee3c-27ac-7803-a9ea-f3b4ad4ad678","{""num_scrambled_semantic"":""8"",""num_scrambled_causal"":""4"",""num_scrambled_schematic"":""4"",""participantId"":""40A913B2738F448281B638762074C110"",""assignmentId"":""0198ef25-7fd7-7836-bc91-0aad5db9753b"",""projectId"":""0198ee3c-27ac-7803-a9ea-f3b4ad4ad678""}","https://test12345.live/?num_scrambled_semantic=8&num_scrambled_causal=4&num_scrambled_schematic=4&participantId=40A913B2738F448281B638762074C110&assignmentId=0198ef25-7fd7-7836-bc91-0aad5db9753b&projectId=0198ee3c-27ac-7803-a9ea-f3b4ad4ad678","40A913B2738F448281B638762074C110-2025-08-28-06-44-47","","null","","images/semantic_sequence/housework_semantic/housework_semantic_4.png","null","",""
"","","","","","image-button-response","76","855087","0.0-12.0-1.0-1.6","40A913B2738F448281B638762074C110","40A913B2738F448281B638762074C110","0198ef25-7fd7-7836-bc91-0aad5db9753b","0198ee3c-27ac-7803-a9ea-f3b4ad4ad678","{""num_scrambled_semantic"":""8"",""num_scrambled_causal"":""4"",""num_scrambled_schematic"":""4"",""participantId"":""40A913B2738F448281B638762074C110"",""assignmentId"":""0198ef25-7fd7-7836-bc91-0aad5db9753b"",""projectId"":""0198ee3c-27ac-7803-a9ea-f3b4ad4ad678""}","https://test12345.live/?num_scrambled_semantic=8&num_scrambled_causal=4&num_scrambled_schematic=4&participantId=40A913B2738F448281B638762074C110&assignmentId=0198ef25-7fd7-7836-bc91-0aad5db9753b&projectId=0198ee3c-27ac-7803-a9ea-f3b4ad4ad678","40A913B2738F448281B638762074C110-2025-08-28-06-44-47","","877","","images/semantic_sequence/housework_semantic/housework_semantic_4.png","0","",""
"","","","","","image-button-response","77","856892","0.0-12.0-1.0-2.6","40A913B2738F448281B638762074C110","40A913B2738F448281B638762074C110","0198ef25-7fd7-7836-bc91-0aad5db9753b","0198ee3c-27ac-7803-a9ea-f3b4ad4ad678","{""num_scrambled_semantic"":""8"",""num_scrambled_causal"":""4"",""num_scrambled_schematic"":""4"",""participantId"":""40A913B2738F448281B638762074C110"",""assignmentId"":""0198ef25-7fd7-7836-bc91-0aad5db9753b"",""projectId"":""0198ee3c-27ac-7803-a9ea-f3b4ad4ad678""}","https://test12345.live/?num_scrambled_semantic=8&num_scrambled_causal=4&num_scrambled_schematic=4&participantId=40A913B2738F448281B638762074C110&assignmentId=0198ef25-7fd7-7836-bc91-0aad5db9753b&projectId=0198ee3c-27ac-7803-a9ea-f3b4ad4ad678","40A913B2738F448281B638762074C110-2025-08-28-06-44-47","","null","","[]","null","",""
"","","","","","image-button-response","78","861394","0.0-12.0-1.0-0.7","40A913B2738F448281B638762074C110","40A913B2738F448281B638762074C110","0198ef25-7fd7-7836-bc91-0aad5db9753b","0198ee3c-27ac-7803-a9ea-f3b4ad4ad678","{""num_scrambled_semantic"":""8"",""num_scrambled_causal"":""4"",""num_scrambled_schematic"":""4"",""participantId"":""40A913B2738F448281B638762074C110"",""assignmentId"":""0198ef25-7fd7-7836-bc91-0aad5db9753b"",""projectId"":""0198ee3c-27ac-7803-a9ea-f3b4ad4ad678""}","https://test12345.live/?num_scrambled_semantic=8&num_scrambled_causal=4&num_scrambled_schematic=4&participantId=40A913B2738F448281B638762074C110&assignmentId=0198ef25-7fd7-7836-bc91-0aad5db9753b&projectId=0198ee3c-27ac-7803-a9ea-f3b4ad4ad678","40A913B2738F448281B638762074C110-2025-08-28-06-44-47","","null","","images/semantic_sequence/housework_semantic/housework_semantic_9.png","null","",""
"","","","","","image-button-response","79","862058","0.0-12.0-1.0-1.7","40A913B2738F448281B638762074C110","40A913B2738F448281B638762074C110","0198ef25-7fd7-7836-bc91-0aad5db9753b","0198ee3c-27ac-7803-a9ea-f3b4ad4ad678","{""num_scrambled_semantic"":""8"",""num_scrambled_causal"":""4"",""num_scrambled_schematic"":""4"",""participantId"":""40A913B2738F448281B638762074C110"",""assignmentId"":""0198ef25-7fd7-7836-bc91-0aad5db9753b"",""projectId"":""0198ee3c-27ac-7803-a9ea-f3b4ad4ad678""}","https://test12345.live/?num_scrambled_semantic=8&num_scrambled_causal=4&num_scrambled_schematic=4&participantId=40A913B2738F448281B638762074C110&assignmentId=0198ef25-7fd7-7836-bc91-0aad5db9753b&projectId=0198ee3c-27ac-7803-a9ea-f3b4ad4ad678","40A913B2738F448281B638762074C110-2025-08-28-06-44-47","","662","","images/semantic_sequence/housework_semantic/housework_semantic_9.png","0","",""
"","","","","","image-button-response","80","863863","0.0-12.0-1.0-2.7","40A913B2738F448281B638762074C110","40A913B2738F448281B638762074C110","0198ef25-7fd7-7836-bc91-0aad5db9753b","0198ee3c-27ac-7803-a9ea-f3b4ad4ad678","{""num_scrambled_semantic"":""8"",""num_scrambled_causal"":""4"",""num_scrambled_schematic"":""4"",""participantId"":""40A913B2738F448281B638762074C110"",""assignmentId"":""0198ef25-7fd7-7836-bc91-0aad5db9753b"",""projectId"":""0198ee3c-27ac-7803-a9ea-f3b4ad4ad678""}","https://test12345.live/?num_scrambled_semantic=8&num_scrambled_causal=4&num_scrambled_schematic=4&participantId=40A913B2738F448281B638762074C110&assignmentId=0198ef25-7fd7-7836-bc91-0aad5db9753b&projectId=0198ee3c-27ac-7803-a9ea-f3b4ad4ad678","40A913B2738F448281B638762074C110-2025-08-28-06-44-47","","null","","[]","null","",""
"","","","","","image-button-response","81","868372","0.0-12.0-1.0-0.8","40A913B2738F448281B638762074C110","40A913B2738F448281B638762074C110","0198ef25-7fd7-7836-bc91-0aad5db9753b","0198ee3c-27ac-7803-a9ea-f3b4ad4ad678","{""num_scrambled_semantic"":""8"",""num_scrambled_causal"":""4"",""num_scrambled_schematic"":""4"",""participantId"":""40A913B2738F448281B638762074C110"",""assignmentId"":""0198ef25-7fd7-7836-bc91-0aad5db9753b"",""projectId"":""0198ee3c-27ac-7803-a9ea-f3b4ad4ad678""}","https://test12345.live/?num_scrambled_semantic=8&num_scrambled_causal=4&num_scrambled_schematic=4&participantId=40A913B2738F448281B638762074C110&assignmentId=0198ef25-7fd7-7836-bc91-0aad5db9753b&projectId=0198ee3c-27ac-7803-a9ea-f3b4ad4ad678","40A913B2738F448281B638762074C110-2025-08-28-06-44-47","","null","","images/semantic_sequence/housework_semantic/housework_semantic_1.png","null","",""
"","","","","","image-button-response","82","871006","0.0-12.0-1.0-1.8","40A913B2738F448281B638762074C110","40A913B2738F448281B638762074C110","0198ef25-7fd7-7836-bc91-0aad5db9753b","0198ee3c-27ac-7803-a9ea-f3b4ad4ad678","{""num_scrambled_semantic"":""8"",""num_scrambled_causal"":""4"",""num_scrambled_schematic"":""4"",""participantId"":""40A913B2738F448281B638762074C110"",""assignmentId"":""0198ef25-7fd7-7836-bc91-0aad5db9753b"",""projectId"":""0198ee3c-27ac-7803-a9ea-f3b4ad4ad678""}","https://test12345.live/?num_scrambled_semantic=8&num_scrambled_causal=4&num_scrambled_schematic=4&participantId=40A913B2738F448281B638762074C110&assignmentId=0198ef25-7fd7-7836-bc91-0aad5db9753b&projectId=0198ee3c-27ac-7803-a9ea-f3b4ad4ad678","40A913B2738F448281B638762074C110-2025-08-28-06-44-47","","2632","","images/semantic_sequence/housework_semantic/housework_semantic_1.png","0","",""
"","","","","","image-button-response","83","872813","0.0-12.0-1.0-2.8","40A913B2738F448281B638762074C110","40A913B2738F448281B638762074C110","0198ef25-7fd7-7836-bc91-0aad5db9753b","0198ee3c-27ac-7803-a9ea-f3b4ad4ad678","{""num_scrambled_semantic"":""8"",""num_scrambled_causal"":""4"",""num_scrambled_schematic"":""4"",""participantId"":""40A913B2738F448281B638762074C110"",""assignmentId"":""0198ef25-7fd7-7836-bc91-0aad5db9753b"",""projectId"":""0198ee3c-27ac-7803-a9ea-f3b4ad4ad678""}","https://test12345.live/?num_scrambled_semantic=8&num_scrambled_causal=4&num_scrambled_schematic=4&participantId=40A913B2738F448281B638762074C110&assignmentId=0198ef25-7fd7-7836-bc91-0aad5db9753b&projectId=0198ee3c-27ac-7803-a9ea-f3b4ad4ad678","40A913B2738F448281B638762074C110-2025-08-28-06-44-47","","null","","[]","null","",""
"","","","","","image-button-response","84","877316","0.0-12.0-1.0-0.9","40A913B2738F448281B638762074C110","40A913B2738F448281B638762074C110","0198ef25-7fd7-7836-bc91-0aad5db9753b","0198ee3c-27ac-7803-a9ea-f3b4ad4ad678","{""num_scrambled_semantic"":""8"",""num_scrambled_causal"":""4"",""num_scrambled_schematic"":""4"",""participantId"":""40A913B2738F448281B638762074C110"",""assignmentId"":""0198ef25-7fd7-7836-bc91-0aad5db9753b"",""projectId"":""0198ee3c-27ac-7803-a9ea-f3b4ad4ad678""}","https://test12345.live/?num_scrambled_semantic=8&num_scrambled_causal=4&num_scrambled_schematic=4&participantId=40A913B2738F448281B638762074C110&assignmentId=0198ef25-7fd7-7836-bc91-0aad5db9753b&projectId=0198ee3c-27ac-7803-a9ea-f3b4ad4ad678","40A913B2738F448281B638762074C110-2025-08-28-06-44-47","","null","","images/semantic_sequence/housework_semantic/housework_semantic_7.png","null","",""
"","","","","","image-button-response","85","878407","0.0-12.0-1.0-1.9","40A913B2738F448281B638762074C110","40A913B2738F448281B638762074C110","0198ef25-7fd7-7836-bc91-0aad5db9753b","0198ee3c-27ac-7803-a9ea-f3b4ad4ad678","{""num_scrambled_semantic"":""8"",""num_scrambled_causal"":""4"",""num_scrambled_schematic"":""4"",""participantId"":""40A913B2738F448281B638762074C110"",""assignmentId"":""0198ef25-7fd7-7836-bc91-0aad5db9753b"",""projectId"":""0198ee3c-27ac-7803-a9ea-f3b4ad4ad678""}","https://test12345.live/?num_scrambled_semantic=8&num_scrambled_causal=4&num_scrambled_schematic=4&participantId=40A913B2738F448281B638762074C110&assignmentId=0198ef25-7fd7-7836-bc91-0aad5db9753b&projectId=0198ee3c-27ac-7803-a9ea-f3b4ad4ad678","40A913B2738F448281B638762074C110-2025-08-28-06-44-47","","1090","","images/semantic_sequence/housework_semantic/housework_semantic_7.png","0","",""
"","","","","","image-button-response","86","880209","0.0-12.0-1.0-2.9","40A913B2738F448281B638762074C110","40A913B2738F448281B638762074C110","0198ef25-7fd7-7836-bc91-0aad5db9753b","0198ee3c-27ac-7803-a9ea-f3b4ad4ad678","{""num_scrambled_semantic"":""8"",""num_scrambled_causal"":""4"",""num_scrambled_schematic"":""4"",""participantId"":""40A913B2738F448281B638762074C110"",""assignmentId"":""0198ef25-7fd7-7836-bc91-0aad5db9753b"",""projectId"":""0198ee3c-27ac-7803-a9ea-f3b4ad4ad678""}","https://test12345.live/?num_scrambled_semantic=8&num_scrambled_causal=4&num_scrambled_schematic=4&participantId=40A913B2738F448281B638762074C110&assignmentId=0198ef25-7fd7-7836-bc91-0aad5db9753b&projectId=0198ee3c-27ac-7803-a9ea-f3b4ad4ad678","40A913B2738F448281B638762074C110-2025-08-28-06-44-47","","null","","[]","null","",""
"","","","","","html-audio-response","87","1096470","0.0-13.0","40A913B2738F448281B638762074C110","40A913B2738F448281B638762074C110","0198ef25-7fd7-7836-bc91-0aad5db9753b","0198ee3c-27ac-7803-a9ea-f3b4ad4ad678","{""num_scrambled_semantic"":""8"",""num_scrambled_causal"":""4"",""num_scrambled_schematic"":""4"",""participantId"":""40A913B2738F448281B638762074C110"",""assignmentId"":""0198ef25-7fd7-7836-bc91-0aad5db9753b"",""projectId"":""0198ee3c-27ac-7803-a9ea-f3b4ad4ad678""}","https://test12345.live/?num_scrambled_semantic=8&num_scrambled_causal=4&num_scrambled_schematic=4&participantId=40A913B2738F448281B638762074C110&assignmentId=0198ef25-7fd7-7836-bc91-0aad5db9753b&projectId=0198ee3c-27ac-7803-a9ea-f3b4ad4ad678","40A913B2738F448281B638762074C110-2025-08-28-06-44-47","","15815","","[""<span style=\""color: red; font-size: 24px\""> NOW RECORDING</span><p>Please say out loud all the images you saw, in the order of the story they create. Try to recall the sequence of events as they appeared in the story, not necessarily the order they were presented on the screen.</p>""]","","2","housework_semantic"
"","","","","","image-button-response","88","1102482","0.0-14.0-0.0","40A913B2738F448281B638762074C110","40A913B2738F448281B638762074C110","0198ef25-7fd7-7836-bc91-0aad5db9753b","0198ee3c-27ac-7803-a9ea-f3b4ad4ad678","{""num_scrambled_semantic"":""8"",""num_scrambled_causal"":""4"",""num_scrambled_schematic"":""4"",""participantId"":""40A913B2738F448281B638762074C110"",""assignmentId"":""0198ef25-7fd7-7836-bc91-0aad5db9753b"",""projectId"":""0198ee3c-27ac-7803-a9ea-f3b4ad4ad678""}","https://test12345.live/?num_scrambled_semantic=8&num_scrambled_causal=4&num_scrambled_schematic=4&participantId=40A913B2738F448281B638762074C110&assignmentId=0198ef25-7fd7-7836-bc91-0aad5db9753b&projectId=0198ee3c-27ac-7803-a9ea-f3b4ad4ad678","40A913B2738F448281B638762074C110-2025-08-28-06-44-47","","null","","images/semantic_sequence/using_technology_semantic/using_technology_semantic_0.png","null","",""
"","","","","","image-button-response","89","1106990","0.0-14.0-1.0-0.0","40A913B2738F448281B638762074C110","40A913B2738F448281B638762074C110","0198ef25-7fd7-7836-bc91-0aad5db9753b","0198ee3c-27ac-7803-a9ea-f3b4ad4ad678","{""num_scrambled_semantic"":""8"",""num_scrambled_causal"":""4"",""num_scrambled_schematic"":""4"",""participantId"":""40A913B2738F448281B638762074C110"",""assignmentId"":""0198ef25-7fd7-7836-bc91-0aad5db9753b"",""projectId"":""0198ee3c-27ac-7803-a9ea-f3b4ad4ad678""}","https://test12345.live/?num_scrambled_semantic=8&num_scrambled_causal=4&num_scrambled_schematic=4&participantId=40A913B2738F448281B638762074C110&assignmentId=0198ef25-7fd7-7836-bc91-0aad5db9753b&projectId=0198ee3c-27ac-7803-a9ea-f3b4ad4ad678","40A913B2738F448281B638762074C110-2025-08-28-06-44-47","","null","","images/semantic_sequence/using_technology_semantic/using_technology_semantic_ten.png","null","",""
"","","","","","image-button-response","90","1107779","0.0-14.0-1.0-1.0","40A913B2738F448281B638762074C110","40A913B2738F448281B638762074C110","0198ef25-7fd7-7836-bc91-0aad5db9753b","0198ee3c-27ac-7803-a9ea-f3b4ad4ad678","{""num_scrambled_semantic"":""8"",""num_scrambled_causal"":""4"",""num_scrambled_schematic"":""4"",""participantId"":""40A913B2738F448281B638762074C110"",""assignmentId"":""0198ef25-7fd7-7836-bc91-0aad5db9753b"",""projectId"":""0198ee3c-27ac-7803-a9ea-f3b4ad4ad678""}","https://test12345.live/?num_scrambled_semantic=8&num_scrambled_causal=4&num_scrambled_schematic=4&participantId=40A913B2738F448281B638762074C110&assignmentId=0198ef25-7fd7-7836-bc91-0aad5db9753b&projectId=0198ee3c-27ac-7803-a9ea-f3b4ad4ad678","40A913B2738F448281B638762074C110-2025-08-28-06-44-47","","788","","images/semantic_sequence/using_technology_semantic/using_technology_semantic_ten.png","0","",""
"","","","","","image-button-response","91","1109592","0.0-14.0-1.0-2.0","40A913B2738F448281B638762074C110","40A913B2738F448281B638762074C110","0198ef25-7fd7-7836-bc91-0aad5db9753b","0198ee3c-27ac-7803-a9ea-f3b4ad4ad678","{""num_scrambled_semantic"":""8"",""num_scrambled_causal"":""4"",""num_scrambled_schematic"":""4"",""participantId"":""40A913B2738F448281B638762074C110"",""assignmentId"":""0198ef25-7fd7-7836-bc91-0aad5db9753b"",""projectId"":""0198ee3c-27ac-7803-a9ea-f3b4ad4ad678""}","https://test12345.live/?num_scrambled_semantic=8&num_scrambled_causal=4&num_scrambled_schematic=4&participantId=40A913B2738F448281B638762074C110&assignmentId=0198ef25-7fd7-7836-bc91-0aad5db9753b&projectId=0198ee3c-27ac-7803-a9ea-f3b4ad4ad678","40A913B2738F448281B638762074C110-2025-08-28-06-44-47","","null","","[]","null","",""
"","","","","","image-button-response","92","1114099","0.0-14.0-1.0-0.1","40A913B2738F448281B638762074C110","40A913B2738F448281B638762074C110","0198ef25-7fd7-7836-bc91-0aad5db9753b","0198ee3c-27ac-7803-a9ea-f3b4ad4ad678","{""num_scrambled_semantic"":""8"",""num_scrambled_causal"":""4"",""num_scrambled_schematic"":""4"",""participantId"":""40A913B2738F448281B638762074C110"",""assignmentId"":""0198ef25-7fd7-7836-bc91-0aad5db9753b"",""projectId"":""0198ee3c-27ac-7803-a9ea-f3b4ad4ad678""}","https://test12345.live/?num_scrambled_semantic=8&num_scrambled_causal=4&num_scrambled_schematic=4&participantId=40A913B2738F448281B638762074C110&assignmentId=0198ef25-7fd7-7836-bc91-0aad5db9753b&projectId=0198ee3c-27ac-7803-a9ea-f3b4ad4ad678","40A913B2738F448281B638762074C110-2025-08-28-06-44-47","","null","","images/semantic_sequence/using_technology_semantic/using_technology_semantic_4.png","null","",""
"","","","","","image-button-response","93","1115980","0.0-14.0-1.0-1.1","40A913B2738F448281B638762074C110","40A913B2738F448281B638762074C110","0198ef25-7fd7-7836-bc91-0aad5db9753b","0198ee3c-27ac-7803-a9ea-f3b4ad4ad678","{""num_scrambled_semantic"":""8"",""num_scrambled_causal"":""4"",""num_scrambled_schematic"":""4"",""participantId"":""40A913B2738F448281B638762074C110"",""assignmentId"":""0198ef25-7fd7-7836-bc91-0aad5db9753b"",""projectId"":""0198ee3c-27ac-7803-a9ea-f3b4ad4ad678""}","https://test12345.live/?num_scrambled_semantic=8&num_scrambled_causal=4&num_scrambled_schematic=4&participantId=40A913B2738F448281B638762074C110&assignmentId=0198ef25-7fd7-7836-bc91-0aad5db9753b&projectId=0198ee3c-27ac-7803-a9ea-f3b4ad4ad678","40A913B2738F448281B638762074C110-2025-08-28-06-44-47","","1879","","images/semantic_sequence/using_technology_semantic/using_technology_semantic_4.png","0","",""
"","","","","","image-button-response","94","1117796","0.0-14.0-1.0-2.1","40A913B2738F448281B638762074C110","40A913B2738F448281B638762074C110","0198ef25-7fd7-7836-bc91-0aad5db9753b","0198ee3c-27ac-7803-a9ea-f3b4ad4ad678","{""num_scrambled_semantic"":""8"",""num_scrambled_causal"":""4"",""num_scrambled_schematic"":""4"",""participantId"":""40A913B2738F448281B638762074C110"",""assignmentId"":""0198ef25-7fd7-7836-bc91-0aad5db9753b"",""projectId"":""0198ee3c-27ac-7803-a9ea-f3b4ad4ad678""}","https://test12345.live/?num_scrambled_semantic=8&num_scrambled_causal=4&num_scrambled_schematic=4&participantId=40A913B2738F448281B638762074C110&assignmentId=0198ef25-7fd7-7836-bc91-0aad5db9753b&projectId=0198ee3c-27ac-7803-a9ea-f3b4ad4ad678","40A913B2738F448281B638762074C110-2025-08-28-06-44-47","","null","","[]","null","",""
"","","","","","image-button-response","95","1122309","0.0-14.0-1.0-0.2","40A913B2738F448281B638762074C110","40A913B2738F448281B638762074C110","0198ef25-7fd7-7836-bc91-0aad5db9753b","0198ee3c-27ac-7803-a9ea-f3b4ad4ad678","{""num_scrambled_semantic"":""8"",""num_scrambled_causal"":""4"",""num_scrambled_schematic"":""4"",""participantId"":""40A913B2738F448281B638762074C110"",""assignmentId"":""0198ef25-7fd7-7836-bc91-0aad5db9753b"",""projectId"":""0198ee3c-27ac-7803-a9ea-f3b4ad4ad678""}","https://test12345.live/?num_scrambled_semantic=8&num_scrambled_causal=4&num_scrambled_schematic=4&participantId=40A913B2738F448281B638762074C110&assignmentId=0198ef25-7fd7-7836-bc91-0aad5db9753b&projectId=0198ee3c-27ac-7803-a9ea-f3b4ad4ad678","40A913B2738F448281B638762074C110-2025-08-28-06-44-47","","null","","images/semantic_sequence/using_technology_semantic/using_technology_semantic_3.png","null","",""
"","","","","","image-button-response","96","1123318","0.0-14.0-1.0-1.2","40A913B2738F448281B638762074C110","40A913B2738F448281B638762074C110","0198ef25-7fd7-7836-bc91-0aad5db9753b","0198ee3c-27ac-7803-a9ea-f3b4ad4ad678","{""num_scrambled_semantic"":""8"",""num_scrambled_causal"":""4"",""num_scrambled_schematic"":""4"",""participantId"":""40A913B2738F448281B638762074C110"",""assignmentId"":""0198ef25-7fd7-7836-bc91-0aad5db9753b"",""projectId"":""0198ee3c-27ac-7803-a9ea-f3b4ad4ad678""}","https://test12345.live/?num_scrambled_semantic=8&num_scrambled_causal=4&num_scrambled_schematic=4&participantId=40A913B2738F448281B638762074C110&assignmentId=0198ef25-7fd7-7836-bc91-0aad5db9753b&projectId=0198ee3c-27ac-7803-a9ea-f3b4ad4ad678","40A913B2738F448281B638762074C110-2025-08-28-06-44-47","","1006","","images/semantic_sequence/using_technology_semantic/using_technology_semantic_3.png","0","",""
"","","","","","image-button-response","97","1125126","0.0-14.0-1.0-2.2","40A913B2738F448281B638762074C110","40A913B2738F448281B638762074C110","0198ef25-7fd7-7836-bc91-0aad5db9753b","0198ee3c-27ac-7803-a9ea-f3b4ad4ad678","{""num_scrambled_semantic"":""8"",""num_scrambled_causal"":""4"",""num_scrambled_schematic"":""4"",""participantId"":""40A913B2738F448281B638762074C110"",""assignmentId"":""0198ef25-7fd7-7836-bc91-0aad5db9753b"",""projectId"":""0198ee3c-27ac-7803-a9ea-f3b4ad4ad678""}","https://test12345.live/?num_scrambled_semantic=8&num_scrambled_causal=4&num_scrambled_schematic=4&participantId=40A913B2738F448281B638762074C110&assignmentId=0198ef25-7fd7-7836-bc91-0aad5db9753b&projectId=0198ee3c-27ac-7803-a9ea-f3b4ad4ad678","40A913B2738F448281B638762074C110-2025-08-28-06-44-47","","null","","[]","null","",""
"","","","","","image-button-response","98","1129635","0.0-14.0-1.0-0.3","40A913B2738F448281B638762074C110","40A913B2738F448281B638762074C110","0198ef25-7fd7-7836-bc91-0aad5db9753b","0198ee3c-27ac-7803-a9ea-f3b4ad4ad678","{""num_scrambled_semantic"":""8"",""num_scrambled_causal"":""4"",""num_scrambled_schematic"":""4"",""participantId"":""40A913B2738F448281B638762074C110"",""assignmentId"":""0198ef25-7fd7-7836-bc91-0aad5db9753b"",""projectId"":""0198ee3c-27ac-7803-a9ea-f3b4ad4ad678""}","https://test12345.live/?num_scrambled_semantic=8&num_scrambled_causal=4&num_scrambled_schematic=4&participantId=40A913B2738F448281B638762074C110&assignmentId=0198ef25-7fd7-7836-bc91-0aad5db9753b&projectId=0198ee3c-27ac-7803-a9ea-f3b4ad4ad678","40A913B2738F448281B638762074C110-2025-08-28-06-44-47","","null","","images/semantic_sequence/using_technology_semantic/using_technology_semantic_9.png","null","",""
"","","","","","image-button-response","99","1130436","0.0-14.0-1.0-1.3","40A913B2738F448281B638762074C110","40A913B2738F448281B638762074C110","0198ef25-7fd7-7836-bc91-0aad5db9753b","0198ee3c-27ac-7803-a9ea-f3b4ad4ad678","{""num_scrambled_semantic"":""8"",""num_scrambled_causal"":""4"",""num_scrambled_schematic"":""4"",""participantId"":""40A913B2738F448281B638762074C110"",""assignmentId"":""0198ef25-7fd7-7836-bc91-0aad5db9753b"",""projectId"":""0198ee3c-27ac-7803-a9ea-f3b4ad4ad678""}","https://test12345.live/?num_scrambled_semantic=8&num_scrambled_causal=4&num_scrambled_schematic=4&participantId=40A913B2738F448281B638762074C110&assignmentId=0198ef25-7fd7-7836-bc91-0aad5db9753b&projectId=0198ee3c-27ac-7803-a9ea-f3b4ad4ad678","40A913B2738F448281B638762074C110-2025-08-28-06-44-47","","800","","images/semantic_sequence/using_technology_semantic/using_technology_semantic_9.png","0","",""
"","","","","","image-button-response","100","1132246","0.0-14.0-1.0-2.3","40A913B2738F448281B638762074C110","40A913B2738F448281B638762074C110","0198ef25-7fd7-7836-bc91-0aad5db9753b","0198ee3c-27ac-7803-a9ea-f3b4ad4ad678","{""num_scrambled_semantic"":""8"",""num_scrambled_causal"":""4"",""num_scrambled_schematic"":""4"",""participantId"":""40A913B2738F448281B638762074C110"",""assignmentId"":""0198ef25-7fd7-7836-bc91-0aad5db9753b"",""projectId"":""0198ee3c-27ac-7803-a9ea-f3b4ad4ad678""}","https://test12345.live/?num_scrambled_semantic=8&num_scrambled_causal=4&num_scrambled_schematic=4&participantId=40A913B2738F448281B638762074C110&assignmentId=0198ef25-7fd7-7836-bc91-0aad5db9753b&projectId=0198ee3c-27ac-7803-a9ea-f3b4ad4ad678","40A913B2738F448281B638762074C110-2025-08-28-06-44-47","","null","","[]","null","",""
"","","","","","image-button-response","101","1136757","0.0-14.0-1.0-0.4","40A913B2738F448281B638762074C110","40A913B2738F448281B638762074C110","0198ef25-7fd7-7836-bc91-0aad5db9753b","0198ee3c-27ac-7803-a9ea-f3b4ad4ad678","{""num_scrambled_semantic"":""8"",""num_scrambled_causal"":""4"",""num_scrambled_schematic"":""4"",""participantId"":""40A913B2738F448281B638762074C110"",""assignmentId"":""0198ef25-7fd7-7836-bc91-0aad5db9753b"",""projectId"":""0198ee3c-27ac-7803-a9ea-f3b4ad4ad678""}","https://test12345.live/?num_scrambled_semantic=8&num_scrambled_causal=4&num_scrambled_schematic=4&participantId=40A913B2738F448281B638762074C110&assignmentId=0198ef25-7fd7-7836-bc91-0aad5db9753b&projectId=0198ee3c-27ac-7803-a9ea-f3b4ad4ad678","40A913B2738F448281B638762074C110-2025-08-28-06-44-47","","null","","images/semantic_sequence/using_technology_semantic/using_technology_semantic_5.png","null","",""
"","","","","","image-button-response","102","1138151","0.0-14.0-1.0-1.4","40A913B2738F448281B638762074C110","40A913B2738F448281B638762074C110","0198ef25-7fd7-7836-bc91-0aad5db9753b","0198ee3c-27ac-7803-a9ea-f3b4ad4ad678","{""num_scrambled_semantic"":""8"",""num_scrambled_causal"":""4"",""num_scrambled_schematic"":""4"",""participantId"":""40A913B2738F448281B638762074C110"",""assignmentId"":""0198ef25-7fd7-7836-bc91-0aad5db9753b"",""projectId"":""0198ee3c-27ac-7803-a9ea-f3b4ad4ad678""}","https://test12345.live/?num_scrambled_semantic=8&num_scrambled_causal=4&num_scrambled_schematic=4&participantId=40A913B2738F448281B638762074C110&assignmentId=0198ef25-7fd7-7836-bc91-0aad5db9753b&projectId=0198ee3c-27ac-7803-a9ea-f3b4ad4ad678","40A913B2738F448281B638762074C110-2025-08-28-06-44-47","","1392","","images/semantic_sequence/using_technology_semantic/using_technology_semantic_5.png","0","",""
"","","","","","image-button-response","103","1139956","0.0-14.0-1.0-2.4","40A913B2738F448281B638762074C110","40A913B2738F448281B638762074C110","0198ef25-7fd7-7836-bc91-0aad5db9753b","0198ee3c-27ac-7803-a9ea-f3b4ad4ad678","{""num_scrambled_semantic"":""8"",""num_scrambled_causal"":""4"",""num_scrambled_schematic"":""4"",""participantId"":""40A913B2738F448281B638762074C110"",""assignmentId"":""0198ef25-7fd7-7836-bc91-0aad5db9753b"",""projectId"":""0198ee3c-27ac-7803-a9ea-f3b4ad4ad678""}","https://test12345.live/?num_scrambled_semantic=8&num_scrambled_causal=4&num_scrambled_schematic=4&participantId=40A913B2738F448281B638762074C110&assignmentId=0198ef25-7fd7-7836-bc91-0aad5db9753b&projectId=0198ee3c-27ac-7803-a9ea-f3b4ad4ad678","40A913B2738F448281B638762074C110-2025-08-28-06-44-47","","null","","[]","null","",""
"","","","","","image-button-response","104","1144460","0.0-14.0-1.0-0.5","40A913B2738F448281B638762074C110","40A913B2738F448281B638762074C110","0198ef25-7fd7-7836-bc91-0aad5db9753b","0198ee3c-27ac-7803-a9ea-f3b4ad4ad678","{""num_scrambled_semantic"":""8"",""num_scrambled_causal"":""4"",""num_scrambled_schematic"":""4"",""participantId"":""40A913B2738F448281B638762074C110"",""assignmentId"":""0198ef25-7fd7-7836-bc91-0aad5db9753b"",""projectId"":""0198ee3c-27ac-7803-a9ea-f3b4ad4ad678""}","https://test12345.live/?num_scrambled_semantic=8&num_scrambled_causal=4&num_scrambled_schematic=4&participantId=40A913B2738F448281B638762074C110&assignmentId=0198ef25-7fd7-7836-bc91-0aad5db9753b&projectId=0198ee3c-27ac-7803-a9ea-f3b4ad4ad678","40A913B2738F448281B638762074C110-2025-08-28-06-44-47","","null","","images/semantic_sequence/using_technology_semantic/using_technology_semantic_1.png","null","",""
"","","","","","image-button-response","105","1145805","0.0-14.0-1.0-1.5","40A913B2738F448281B638762074C110","40A913B2738F448281B638762074C110","0198ef25-7fd7-7836-bc91-0aad5db9753b","0198ee3c-27ac-7803-a9ea-f3b4ad4ad678","{""num_scrambled_semantic"":""8"",""num_scrambled_causal"":""4"",""num_scrambled_schematic"":""4"",""participantId"":""40A913B2738F448281B638762074C110"",""assignmentId"":""0198ef25-7fd7-7836-bc91-0aad5db9753b"",""projectId"":""0198ee3c-27ac-7803-a9ea-f3b4ad4ad678""}","https://test12345.live/?num_scrambled_semantic=8&num_scrambled_causal=4&num_scrambled_schematic=4&participantId=40A913B2738F448281B638762074C110&assignmentId=0198ef25-7fd7-7836-bc91-0aad5db9753b&projectId=0198ee3c-27ac-7803-a9ea-f3b4ad4ad678","40A913B2738F448281B638762074C110-2025-08-28-06-44-47","","1344","","images/semantic_sequence/using_technology_semantic/using_technology_semantic_1.png","0","",""
"","","","","","image-button-response","106","1147620","0.0-14.0-1.0-2.5","40A913B2738F448281B638762074C110","40A913B2738F448281B638762074C110","0198ef25-7fd7-7836-bc91-0aad5db9753b","0198ee3c-27ac-7803-a9ea-f3b4ad4ad678","{""num_scrambled_semantic"":""8"",""num_scrambled_causal"":""4"",""num_scrambled_schematic"":""4"",""participantId"":""40A913B2738F448281B638762074C110"",""assignmentId"":""0198ef25-7fd7-7836-bc91-0aad5db9753b"",""projectId"":""0198ee3c-27ac-7803-a9ea-f3b4ad4ad678""}","https://test12345.live/?num_scrambled_semantic=8&num_scrambled_causal=4&num_scrambled_schematic=4&participantId=40A913B2738F448281B638762074C110&assignmentId=0198ef25-7fd7-7836-bc91-0aad5db9753b&projectId=0198ee3c-27ac-7803-a9ea-f3b4ad4ad678","40A913B2738F448281B638762074C110-2025-08-28-06-44-47","","null","","[]","null","",""
"","","","","","image-button-response","107","1152134","0.0-14.0-1.0-0.6","40A913B2738F448281B638762074C110","40A913B2738F448281B638762074C110","0198ef25-7fd7-7836-bc91-0aad5db9753b","0198ee3c-27ac-7803-a9ea-f3b4ad4ad678","{""num_scrambled_semantic"":""8"",""num_scrambled_causal"":""4"",""num_scrambled_schematic"":""4"",""participantId"":""40A913B2738F448281B638762074C110"",""assignmentId"":""0198ef25-7fd7-7836-bc91-0aad5db9753b"",""projectId"":""0198ee3c-27ac-7803-a9ea-f3b4ad4ad678""}","https://test12345.live/?num_scrambled_semantic=8&num_scrambled_causal=4&num_scrambled_schematic=4&participantId=40A913B2738F448281B638762074C110&assignmentId=0198ef25-7fd7-7836-bc91-0aad5db9753b&projectId=0198ee3c-27ac-7803-a9ea-f3b4ad4ad678","40A913B2738F448281B638762074C110-2025-08-28-06-44-47","","null","","images/semantic_sequence/using_technology_semantic/using_technology_semantic_8.png","null","",""
"","","","","","image-button-response","108","1152839","0.0-14.0-1.0-1.6","40A913B2738F448281B638762074C110","40A913B2738F448281B638762074C110","0198ef25-7fd7-7836-bc91-0aad5db9753b","0198ee3c-27ac-7803-a9ea-f3b4ad4ad678","{""num_scrambled_semantic"":""8"",""num_scrambled_causal"":""4"",""num_scrambled_schematic"":""4"",""participantId"":""40A913B2738F448281B638762074C110"",""assignmentId"":""0198ef25-7fd7-7836-bc91-0aad5db9753b"",""projectId"":""0198ee3c-27ac-7803-a9ea-f3b4ad4ad678""}","https://test12345.live/?num_scrambled_semantic=8&num_scrambled_causal=4&num_scrambled_schematic=4&participantId=40A913B2738F448281B638762074C110&assignmentId=0198ef25-7fd7-7836-bc91-0aad5db9753b&projectId=0198ee3c-27ac-7803-a9ea-f3b4ad4ad678","40A913B2738F448281B638762074C110-2025-08-28-06-44-47","","701","","images/semantic_sequence/using_technology_semantic/using_technology_semantic_8.png","0","",""
"","","","","","image-button-response","109","1154643","0.0-14.0-1.0-2.6","40A913B2738F448281B638762074C110","40A913B2738F448281B638762074C110","0198ef25-7fd7-7836-bc91-0aad5db9753b","0198ee3c-27ac-7803-a9ea-f3b4ad4ad678","{""num_scrambled_semantic"":""8"",""num_scrambled_causal"":""4"",""num_scrambled_schematic"":""4"",""participantId"":""40A913B2738F448281B638762074C110"",""assignmentId"":""0198ef25-7fd7-7836-bc91-0aad5db9753b"",""projectId"":""0198ee3c-27ac-7803-a9ea-f3b4ad4ad678""}","https://test12345.live/?num_scrambled_semantic=8&num_scrambled_causal=4&num_scrambled_schematic=4&participantId=40A913B2738F448281B638762074C110&assignmentId=0198ef25-7fd7-7836-bc91-0aad5db9753b&projectId=0198ee3c-27ac-7803-a9ea-f3b4ad4ad678","40A913B2738F448281B638762074C110-2025-08-28-06-44-47","","null","","[]","null","",""
"","","","","","image-button-response","110","1159157","0.0-14.0-1.0-0.7","40A913B2738F448281B638762074C110","40A913B2738F448281B638762074C110","0198ef25-7fd7-7836-bc91-0aad5db9753b","0198ee3c-27ac-7803-a9ea-f3b4ad4ad678","{""num_scrambled_semantic"":""8"",""num_scrambled_causal"":""4"",""num_scrambled_schematic"":""4"",""participantId"":""40A913B2738F448281B638762074C110"",""assignmentId"":""0198ef25-7fd7-7836-bc91-0aad5db9753b"",""projectId"":""0198ee3c-27ac-7803-a9ea-f3b4ad4ad678""}","https://test12345.live/?num_scrambled_semantic=8&num_scrambled_causal=4&num_scrambled_schematic=4&participantId=40A913B2738F448281B638762074C110&assignmentId=0198ef25-7fd7-7836-bc91-0aad5db9753b&projectId=0198ee3c-27ac-7803-a9ea-f3b4ad4ad678","40A913B2738F448281B638762074C110-2025-08-28-06-44-47","","null","","images/semantic_sequence/using_technology_semantic/using_technology_semantic_2.png","null","",""
"","","","","","image-button-response","111","1159995","0.0-14.0-1.0-1.7","40A913B2738F448281B638762074C110","40A913B2738F448281B638762074C110","0198ef25-7fd7-7836-bc91-0aad5db9753b","0198ee3c-27ac-7803-a9ea-f3b4ad4ad678","{""num_scrambled_semantic"":""8"",""num_scrambled_causal"":""4"",""num_scrambled_schematic"":""4"",""participantId"":""40A913B2738F448281B638762074C110"",""assignmentId"":""0198ef25-7fd7-7836-bc91-0aad5db9753b"",""projectId"":""0198ee3c-27ac-7803-a9ea-f3b4ad4ad678""}","https://test12345.live/?num_scrambled_semantic=8&num_scrambled_causal=4&num_scrambled_schematic=4&participantId=40A913B2738F448281B638762074C110&assignmentId=0198ef25-7fd7-7836-bc91-0aad5db9753b&projectId=0198ee3c-27ac-7803-a9ea-f3b4ad4ad678","40A913B2738F448281B638762074C110-2025-08-28-06-44-47","","836","","images/semantic_sequence/using_technology_semantic/using_technology_semantic_2.png","0","",""
"","","","","","image-button-response","112","1161804","0.0-14.0-1.0-2.7","40A913B2738F448281B638762074C110","40A913B2738F448281B638762074C110","0198ef25-7fd7-7836-bc91-0aad5db9753b","0198ee3c-27ac-7803-a9ea-f3b4ad4ad678","{""num_scrambled_semantic"":""8"",""num_scrambled_causal"":""4"",""num_scrambled_schematic"":""4"",""participantId"":""40A913B2738F448281B638762074C110"",""assignmentId"":""0198ef25-7fd7-7836-bc91-0aad5db9753b"",""projectId"":""0198ee3c-27ac-7803-a9ea-f3b4ad4ad678""}","https://test12345.live/?num_scrambled_semantic=8&num_scrambled_causal=4&num_scrambled_schematic=4&participantId=40A913B2738F448281B638762074C110&assignmentId=0198ef25-7fd7-7836-bc91-0aad5db9753b&projectId=0198ee3c-27ac-7803-a9ea-f3b4ad4ad678","40A913B2738F448281B638762074C110-2025-08-28-06-44-47","","null","","[]","null","",""
"","","","","","image-button-response","113","1166317","0.0-14.0-1.0-0.8","40A913B2738F448281B638762074C110","40A913B2738F448281B638762074C110","0198ef25-7fd7-7836-bc91-0aad5db9753b","0198ee3c-27ac-7803-a9ea-f3b4ad4ad678","{""num_scrambled_semantic"":""8"",""num_scrambled_causal"":""4"",""num_scrambled_schematic"":""4"",""participantId"":""40A913B2738F448281B638762074C110"",""assignmentId"":""0198ef25-7fd7-7836-bc91-0aad5db9753b"",""projectId"":""0198ee3c-27ac-7803-a9ea-f3b4ad4ad678""}","https://test12345.live/?num_scrambled_semantic=8&num_scrambled_causal=4&num_scrambled_schematic=4&participantId=40A913B2738F448281B638762074C110&assignmentId=0198ef25-7fd7-7836-bc91-0aad5db9753b&projectId=0198ee3c-27ac-7803-a9ea-f3b4ad4ad678","40A913B2738F448281B638762074C110-2025-08-28-06-44-47","","null","","images/semantic_sequence/using_technology_semantic/using_technology_semantic_7.png","null","",""
