"success","timeout","failed_images","failed_audio","failed_video","trial_type","trial_index","time_elapsed","internal_node_id","subject","subject_id","study_id","session_id","urlvar","current_url","audio_id","view_history","rt","device_id","stimulus","response","estimated_stimulus_onset","seq_name"
"true","false","[]","[]","[]","preload","0","218811","0.0-0.0","42166007888848DC85F1A0DFDF5645C8","42166007888848DC85F1A0DFDF5645C8","e1f5d8f8-37d7-4519-b655-d791572f2884","a9f3d40c-5730-405c-b25e-1034c4c56f3f","{""num_scrambled_semantic"":""8"",""num_scrambled_causal"":""4"",""num_scrambled_schematic"":""4"",""participantId"":""42166007888848DC85F1A0DFDF5645C8"",""assignmentId"":""e1f5d8f8-37d7-4519-b655-d791572f2884"",""projectId"":""a9f3d40c-5730-405c-b25e-1034c4c56f3f""}","https://test12345.live/?num_scrambled_semantic=8&num_scrambled_causal=4&num_scrambled_schematic=4&participantId=42166007888848DC85F1A0DFDF5645C8&assignmentId=e1f5d8f8-37d7-4519-b655-d791572f2884&projectId=a9f3d40c-5730-405c-b25e-1034c4c56f3f","42166007888848DC85F1A0DFDF5645C8-2025-08-07-19-14-44","","","","","","",""
"","","","","","instructions","1","258231","0.0-1.0","42166007888848DC85F1A0DFDF5645C8","42166007888848DC85F1A0DFDF5645C8","e1f5d8f8-37d7-4519-b655-d791572f2884","a9f3d40c-5730-405c-b25e-1034c4c56f3f","{""num_scrambled_semantic"":""8"",""num_scrambled_causal"":""4"",""num_scrambled_schematic"":""4"",""participantId"":""42166007888848DC85F1A0DFDF5645C8"",""assignmentId"":""e1f5d8f8-37d7-4519-b655-d791572f2884"",""projectId"":""a9f3d40c-5730-405c-b25e-1034c4c56f3f""}","https://test12345.live/?num_scrambled_semantic=8&num_scrambled_causal=4&num_scrambled_schematic=4&participantId=42166007888848DC85F1A0DFDF5645C8&assignmentId=e1f5d8f8-37d7-4519-b655-d791572f2884&projectId=a9f3d40c-5730-405c-b25e-1034c4c56f3f","42166007888848DC85F1A0DFDF5645C8-2025-08-07-19-14-44","[{""page_index"":0,""viewing_time"":39418}]","39419","","","","",""
"","","","","","instructions","2","288602","0.0-2.0","42166007888848DC85F1A0DFDF5645C8","42166007888848DC85F1A0DFDF5645C8","e1f5d8f8-37d7-4519-b655-d791572f2884","a9f3d40c-5730-405c-b25e-1034c4c56f3f","{""num_scrambled_semantic"":""8"",""num_scrambled_causal"":""4"",""num_scrambled_schematic"":""4"",""participantId"":""42166007888848DC85F1A0DFDF5645C8"",""assignmentId"":""e1f5d8f8-37d7-4519-b655-d791572f2884"",""projectId"":""a9f3d40c-5730-405c-b25e-1034c4c56f3f""}","https://test12345.live/?num_scrambled_semantic=8&num_scrambled_causal=4&num_scrambled_schematic=4&participantId=42166007888848DC85F1A0DFDF5645C8&assignmentId=e1f5d8f8-37d7-4519-b655-d791572f2884&projectId=a9f3d40c-5730-405c-b25e-1034c4c56f3f","42166007888848DC85F1A0DFDF5645C8-2025-08-07-19-14-44","[{""page_index"":0,""viewing_time"":30369}]","30369","","","","",""
"true","","","","","fullscreen","3","454615","0.0-3.0","42166007888848DC85F1A0DFDF5645C8","42166007888848DC85F1A0DFDF5645C8","e1f5d8f8-37d7-4519-b655-d791572f2884","a9f3d40c-5730-405c-b25e-1034c4c56f3f","{""num_scrambled_semantic"":""8"",""num_scrambled_causal"":""4"",""num_scrambled_schematic"":""4"",""participantId"":""42166007888848DC85F1A0DFDF5645C8"",""assignmentId"":""e1f5d8f8-37d7-4519-b655-d791572f2884"",""projectId"":""a9f3d40c-5730-405c-b25e-1034c4c56f3f""}","https://test12345.live/?num_scrambled_semantic=8&num_scrambled_causal=4&num_scrambled_schematic=4&participantId=42166007888848DC85F1A0DFDF5645C8&assignmentId=e1f5d8f8-37d7-4519-b655-d791572f2884&projectId=a9f3d40c-5730-405c-b25e-1034c4c56f3f","42166007888848DC85F1A0DFDF5645C8-2025-08-07-19-14-44","","164990","","","","",""
"","","","","","initialize-microphone","4","466467","0.0-4.0-0.0","42166007888848DC85F1A0DFDF5645C8","42166007888848DC85F1A0DFDF5645C8","e1f5d8f8-37d7-4519-b655-d791572f2884","a9f3d40c-5730-405c-b25e-1034c4c56f3f","{""num_scrambled_semantic"":""8"",""num_scrambled_causal"":""4"",""num_scrambled_schematic"":""4"",""participantId"":""42166007888848DC85F1A0DFDF5645C8"",""assignmentId"":""e1f5d8f8-37d7-4519-b655-d791572f2884"",""projectId"":""a9f3d40c-5730-405c-b25e-1034c4c56f3f""}","https://test12345.live/?num_scrambled_semantic=8&num_scrambled_causal=4&num_scrambled_schematic=4&participantId=42166007888848DC85F1A0DFDF5645C8&assignmentId=e1f5d8f8-37d7-4519-b655-d791572f2884&projectId=a9f3d40c-5730-405c-b25e-1034c4c56f3f","42166007888848DC85F1A0DFDF5645C8-2025-08-07-19-14-44","","","8d93b9ab461b9550b50e19b78e41db10c30f4e6f4ca518a3d1b0430bfee9fad8","","","",""
"","","","","","html-audio-response","5","508494","0.0-4.0-1.0","42166007888848DC85F1A0DFDF5645C8","42166007888848DC85F1A0DFDF5645C8","e1f5d8f8-37d7-4519-b655-d791572f2884","a9f3d40c-5730-405c-b25e-1034c4c56f3f","{""num_scrambled_semantic"":""8"",""num_scrambled_causal"":""4"",""num_scrambled_schematic"":""4"",""participantId"":""42166007888848DC85F1A0DFDF5645C8"",""assignmentId"":""e1f5d8f8-37d7-4519-b655-d791572f2884"",""projectId"":""a9f3d40c-5730-405c-b25e-1034c4c56f3f""}","https://test12345.live/?num_scrambled_semantic=8&num_scrambled_causal=4&num_scrambled_schematic=4&participantId=42166007888848DC85F1A0DFDF5645C8&assignmentId=e1f5d8f8-37d7-4519-b655-d791572f2884&projectId=a9f3d40c-5730-405c-b25e-1034c4c56f3f","42166007888848DC85F1A0DFDF5645C8-2025-08-07-19-14-44","","3703","","<span style=""color: red; font-size: 24px""> NOW RECORDING</span>
        <p>Please test Microphone</p>","","2",""
"","","","","","html-button-response","6","510887","0.0-4.0-2.0","42166007888848DC85F1A0DFDF5645C8","42166007888848DC85F1A0DFDF5645C8","e1f5d8f8-37d7-4519-b655-d791572f2884","a9f3d40c-5730-405c-b25e-1034c4c56f3f","{""num_scrambled_semantic"":""8"",""num_scrambled_causal"":""4"",""num_scrambled_schematic"":""4"",""participantId"":""42166007888848DC85F1A0DFDF5645C8"",""assignmentId"":""e1f5d8f8-37d7-4519-b655-d791572f2884"",""projectId"":""a9f3d40c-5730-405c-b25e-1034c4c56f3f""}","https://test12345.live/?num_scrambled_semantic=8&num_scrambled_causal=4&num_scrambled_schematic=4&participantId=42166007888848DC85F1A0DFDF5645C8&assignmentId=e1f5d8f8-37d7-4519-b655-d791572f2884&projectId=a9f3d40c-5730-405c-b25e-1034c4c56f3f","42166007888848DC85F1A0DFDF5645C8-2025-08-07-19-14-44","","2391","","<p style=""font-size:48px; color:red;"">Is Microphone OK?</p>","1","",""
"","","","","","instructions","7","526189","0.0-5.0","42166007888848DC85F1A0DFDF5645C8","42166007888848DC85F1A0DFDF5645C8","e1f5d8f8-37d7-4519-b655-d791572f2884","a9f3d40c-5730-405c-b25e-1034c4c56f3f","{""num_scrambled_semantic"":""8"",""num_scrambled_causal"":""4"",""num_scrambled_schematic"":""4"",""participantId"":""42166007888848DC85F1A0DFDF5645C8"",""assignmentId"":""e1f5d8f8-37d7-4519-b655-d791572f2884"",""projectId"":""a9f3d40c-5730-405c-b25e-1034c4c56f3f""}","https://test12345.live/?num_scrambled_semantic=8&num_scrambled_causal=4&num_scrambled_schematic=4&participantId=42166007888848DC85F1A0DFDF5645C8&assignmentId=e1f5d8f8-37d7-4519-b655-d791572f2884&projectId=a9f3d40c-5730-405c-b25e-1034c4c56f3f","42166007888848DC85F1A0DFDF5645C8-2025-08-07-19-14-44","[{""page_index"":0,""viewing_time"":7648},{""page_index"":1,""viewing_time"":7652}]","15300","","","","",""
"","","","","","image-button-response","8","532202","0.0-6.0-0.0","42166007888848DC85F1A0DFDF5645C8","42166007888848DC85F1A0DFDF5645C8","e1f5d8f8-37d7-4519-b655-d791572f2884","a9f3d40c-5730-405c-b25e-1034c4c56f3f","{""num_scrambled_semantic"":""8"",""num_scrambled_causal"":""4"",""num_scrambled_schematic"":""4"",""participantId"":""42166007888848DC85F1A0DFDF5645C8"",""assignmentId"":""e1f5d8f8-37d7-4519-b655-d791572f2884"",""projectId"":""a9f3d40c-5730-405c-b25e-1034c4c56f3f""}","https://test12345.live/?num_scrambled_semantic=8&num_scrambled_causal=4&num_scrambled_schematic=4&participantId=42166007888848DC85F1A0DFDF5645C8&assignmentId=e1f5d8f8-37d7-4519-b655-d791572f2884&projectId=a9f3d40c-5730-405c-b25e-1034c4c56f3f","42166007888848DC85F1A0DFDF5645C8-2025-08-07-19-14-44","","null","","images/instructions/movie_0.png","null","",""
"","","","","","image-button-response","9","536711","0.0-6.0-1.0-0.0","42166007888848DC85F1A0DFDF5645C8","42166007888848DC85F1A0DFDF5645C8","e1f5d8f8-37d7-4519-b655-d791572f2884","a9f3d40c-5730-405c-b25e-1034c4c56f3f","{""num_scrambled_semantic"":""8"",""num_scrambled_causal"":""4"",""num_scrambled_schematic"":""4"",""participantId"":""42166007888848DC85F1A0DFDF5645C8"",""assignmentId"":""e1f5d8f8-37d7-4519-b655-d791572f2884"",""projectId"":""a9f3d40c-5730-405c-b25e-1034c4c56f3f""}","https://test12345.live/?num_scrambled_semantic=8&num_scrambled_causal=4&num_scrambled_schematic=4&participantId=42166007888848DC85F1A0DFDF5645C8&assignmentId=e1f5d8f8-37d7-4519-b655-d791572f2884&projectId=a9f3d40c-5730-405c-b25e-1034c4c56f3f","42166007888848DC85F1A0DFDF5645C8-2025-08-07-19-14-44","","null","","images/instructions/movie_1.png","null","",""
"","","","","","image-button-response","10","540175","0.0-6.0-1.0-1.0","42166007888848DC85F1A0DFDF5645C8","42166007888848DC85F1A0DFDF5645C8","e1f5d8f8-37d7-4519-b655-d791572f2884","a9f3d40c-5730-405c-b25e-1034c4c56f3f","{""num_scrambled_semantic"":""8"",""num_scrambled_causal"":""4"",""num_scrambled_schematic"":""4"",""participantId"":""42166007888848DC85F1A0DFDF5645C8"",""assignmentId"":""e1f5d8f8-37d7-4519-b655-d791572f2884"",""projectId"":""a9f3d40c-5730-405c-b25e-1034c4c56f3f""}","https://test12345.live/?num_scrambled_semantic=8&num_scrambled_causal=4&num_scrambled_schematic=4&participantId=42166007888848DC85F1A0DFDF5645C8&assignmentId=e1f5d8f8-37d7-4519-b655-d791572f2884&projectId=a9f3d40c-5730-405c-b25e-1034c4c56f3f","42166007888848DC85F1A0DFDF5645C8-2025-08-07-19-14-44","","3461","","images/instructions/movie_1.png","0","",""
"","","","","","image-button-response","11","541979","0.0-6.0-1.0-2.0","42166007888848DC85F1A0DFDF5645C8","42166007888848DC85F1A0DFDF5645C8","e1f5d8f8-37d7-4519-b655-d791572f2884","a9f3d40c-5730-405c-b25e-1034c4c56f3f","{""num_scrambled_semantic"":""8"",""num_scrambled_causal"":""4"",""num_scrambled_schematic"":""4"",""participantId"":""42166007888848DC85F1A0DFDF5645C8"",""assignmentId"":""e1f5d8f8-37d7-4519-b655-d791572f2884"",""projectId"":""a9f3d40c-5730-405c-b25e-1034c4c56f3f""}","https://test12345.live/?num_scrambled_semantic=8&num_scrambled_causal=4&num_scrambled_schematic=4&participantId=42166007888848DC85F1A0DFDF5645C8&assignmentId=e1f5d8f8-37d7-4519-b655-d791572f2884&projectId=a9f3d40c-5730-405c-b25e-1034c4c56f3f","42166007888848DC85F1A0DFDF5645C8-2025-08-07-19-14-44","","null","","[]","null","",""
"","","","","","image-button-response","12","546496","0.0-6.0-1.0-0.1","42166007888848DC85F1A0DFDF5645C8","42166007888848DC85F1A0DFDF5645C8","e1f5d8f8-37d7-4519-b655-d791572f2884","a9f3d40c-5730-405c-b25e-1034c4c56f3f","{""num_scrambled_semantic"":""8"",""num_scrambled_causal"":""4"",""num_scrambled_schematic"":""4"",""participantId"":""42166007888848DC85F1A0DFDF5645C8"",""assignmentId"":""e1f5d8f8-37d7-4519-b655-d791572f2884"",""projectId"":""a9f3d40c-5730-405c-b25e-1034c4c56f3f""}","https://test12345.live/?num_scrambled_semantic=8&num_scrambled_causal=4&num_scrambled_schematic=4&participantId=42166007888848DC85F1A0DFDF5645C8&assignmentId=e1f5d8f8-37d7-4519-b655-d791572f2884&projectId=a9f3d40c-5730-405c-b25e-1034c4c56f3f","42166007888848DC85F1A0DFDF5645C8-2025-08-07-19-14-44","","null","","images/instructions/movie_2.png","null","",""
"","","","","","image-button-response","13","548235","0.0-6.0-1.0-1.1","42166007888848DC85F1A0DFDF5645C8","42166007888848DC85F1A0DFDF5645C8","e1f5d8f8-37d7-4519-b655-d791572f2884","a9f3d40c-5730-405c-b25e-1034c4c56f3f","{""num_scrambled_semantic"":""8"",""num_scrambled_causal"":""4"",""num_scrambled_schematic"":""4"",""participantId"":""42166007888848DC85F1A0DFDF5645C8"",""assignmentId"":""e1f5d8f8-37d7-4519-b655-d791572f2884"",""projectId"":""a9f3d40c-5730-405c-b25e-1034c4c56f3f""}","https://test12345.live/?num_scrambled_semantic=8&num_scrambled_causal=4&num_scrambled_schematic=4&participantId=42166007888848DC85F1A0DFDF5645C8&assignmentId=e1f5d8f8-37d7-4519-b655-d791572f2884&projectId=a9f3d40c-5730-405c-b25e-1034c4c56f3f","42166007888848DC85F1A0DFDF5645C8-2025-08-07-19-14-44","","1736","","images/instructions/movie_2.png","0","",""
"","","","","","image-button-response","14","550041","0.0-6.0-1.0-2.1","42166007888848DC85F1A0DFDF5645C8","42166007888848DC85F1A0DFDF5645C8","e1f5d8f8-37d7-4519-b655-d791572f2884","a9f3d40c-5730-405c-b25e-1034c4c56f3f","{""num_scrambled_semantic"":""8"",""num_scrambled_causal"":""4"",""num_scrambled_schematic"":""4"",""participantId"":""42166007888848DC85F1A0DFDF5645C8"",""assignmentId"":""e1f5d8f8-37d7-4519-b655-d791572f2884"",""projectId"":""a9f3d40c-5730-405c-b25e-1034c4c56f3f""}","https://test12345.live/?num_scrambled_semantic=8&num_scrambled_causal=4&num_scrambled_schematic=4&participantId=42166007888848DC85F1A0DFDF5645C8&assignmentId=e1f5d8f8-37d7-4519-b655-d791572f2884&projectId=a9f3d40c-5730-405c-b25e-1034c4c56f3f","42166007888848DC85F1A0DFDF5645C8-2025-08-07-19-14-44","","null","","[]","null","",""
"","","","","","image-button-response","15","554557","0.0-6.0-1.0-0.2","42166007888848DC85F1A0DFDF5645C8","42166007888848DC85F1A0DFDF5645C8","e1f5d8f8-37d7-4519-b655-d791572f2884","a9f3d40c-5730-405c-b25e-1034c4c56f3f","{""num_scrambled_semantic"":""8"",""num_scrambled_causal"":""4"",""num_scrambled_schematic"":""4"",""participantId"":""42166007888848DC85F1A0DFDF5645C8"",""assignmentId"":""e1f5d8f8-37d7-4519-b655-d791572f2884"",""projectId"":""a9f3d40c-5730-405c-b25e-1034c4c56f3f""}","https://test12345.live/?num_scrambled_semantic=8&num_scrambled_causal=4&num_scrambled_schematic=4&participantId=42166007888848DC85F1A0DFDF5645C8&assignmentId=e1f5d8f8-37d7-4519-b655-d791572f2884&projectId=a9f3d40c-5730-405c-b25e-1034c4c56f3f","42166007888848DC85F1A0DFDF5645C8-2025-08-07-19-14-44","","null","","images/instructions/movie_3.png","null","",""
"","","","","","image-button-response","16","555698","0.0-6.0-1.0-1.2","42166007888848DC85F1A0DFDF5645C8","42166007888848DC85F1A0DFDF5645C8","e1f5d8f8-37d7-4519-b655-d791572f2884","a9f3d40c-5730-405c-b25e-1034c4c56f3f","{""num_scrambled_semantic"":""8"",""num_scrambled_causal"":""4"",""num_scrambled_schematic"":""4"",""participantId"":""42166007888848DC85F1A0DFDF5645C8"",""assignmentId"":""e1f5d8f8-37d7-4519-b655-d791572f2884"",""projectId"":""a9f3d40c-5730-405c-b25e-1034c4c56f3f""}","https://test12345.live/?num_scrambled_semantic=8&num_scrambled_causal=4&num_scrambled_schematic=4&participantId=42166007888848DC85F1A0DFDF5645C8&assignmentId=e1f5d8f8-37d7-4519-b655-d791572f2884&projectId=a9f3d40c-5730-405c-b25e-1034c4c56f3f","42166007888848DC85F1A0DFDF5645C8-2025-08-07-19-14-44","","1137","","images/instructions/movie_3.png","0","",""
"","","","","","image-button-response","17","557509","0.0-6.0-1.0-2.2","42166007888848DC85F1A0DFDF5645C8","42166007888848DC85F1A0DFDF5645C8","e1f5d8f8-37d7-4519-b655-d791572f2884","a9f3d40c-5730-405c-b25e-1034c4c56f3f","{""num_scrambled_semantic"":""8"",""num_scrambled_causal"":""4"",""num_scrambled_schematic"":""4"",""participantId"":""42166007888848DC85F1A0DFDF5645C8"",""assignmentId"":""e1f5d8f8-37d7-4519-b655-d791572f2884"",""projectId"":""a9f3d40c-5730-405c-b25e-1034c4c56f3f""}","https://test12345.live/?num_scrambled_semantic=8&num_scrambled_causal=4&num_scrambled_schematic=4&participantId=42166007888848DC85F1A0DFDF5645C8&assignmentId=e1f5d8f8-37d7-4519-b655-d791572f2884&projectId=a9f3d40c-5730-405c-b25e-1034c4c56f3f","42166007888848DC85F1A0DFDF5645C8-2025-08-07-19-14-44","","null","","[]","null","",""
"","","","","","image-button-response","18","562023","0.0-6.0-1.0-0.3","42166007888848DC85F1A0DFDF5645C8","42166007888848DC85F1A0DFDF5645C8","e1f5d8f8-37d7-4519-b655-d791572f2884","a9f3d40c-5730-405c-b25e-1034c4c56f3f","{""num_scrambled_semantic"":""8"",""num_scrambled_causal"":""4"",""num_scrambled_schematic"":""4"",""participantId"":""42166007888848DC85F1A0DFDF5645C8"",""assignmentId"":""e1f5d8f8-37d7-4519-b655-d791572f2884"",""projectId"":""a9f3d40c-5730-405c-b25e-1034c4c56f3f""}","https://test12345.live/?num_scrambled_semantic=8&num_scrambled_causal=4&num_scrambled_schematic=4&participantId=42166007888848DC85F1A0DFDF5645C8&assignmentId=e1f5d8f8-37d7-4519-b655-d791572f2884&projectId=a9f3d40c-5730-405c-b25e-1034c4c56f3f","42166007888848DC85F1A0DFDF5645C8-2025-08-07-19-14-44","","null","","images/instructions/movie_4.png","null","",""
"","","","","","image-button-response","19","563851","0.0-6.0-1.0-1.3","42166007888848DC85F1A0DFDF5645C8","42166007888848DC85F1A0DFDF5645C8","e1f5d8f8-37d7-4519-b655-d791572f2884","a9f3d40c-5730-405c-b25e-1034c4c56f3f","{""num_scrambled_semantic"":""8"",""num_scrambled_causal"":""4"",""num_scrambled_schematic"":""4"",""participantId"":""42166007888848DC85F1A0DFDF5645C8"",""assignmentId"":""e1f5d8f8-37d7-4519-b655-d791572f2884"",""projectId"":""a9f3d40c-5730-405c-b25e-1034c4c56f3f""}","https://test12345.live/?num_scrambled_semantic=8&num_scrambled_causal=4&num_scrambled_schematic=4&participantId=42166007888848DC85F1A0DFDF5645C8&assignmentId=e1f5d8f8-37d7-4519-b655-d791572f2884&projectId=a9f3d40c-5730-405c-b25e-1034c4c56f3f","42166007888848DC85F1A0DFDF5645C8-2025-08-07-19-14-44","","1825","","images/instructions/movie_4.png","0","",""
"","","","","","image-button-response","20","565672","0.0-6.0-1.0-2.3","42166007888848DC85F1A0DFDF5645C8","42166007888848DC85F1A0DFDF5645C8","e1f5d8f8-37d7-4519-b655-d791572f2884","a9f3d40c-5730-405c-b25e-1034c4c56f3f","{""num_scrambled_semantic"":""8"",""num_scrambled_causal"":""4"",""num_scrambled_schematic"":""4"",""participantId"":""42166007888848DC85F1A0DFDF5645C8"",""assignmentId"":""e1f5d8f8-37d7-4519-b655-d791572f2884"",""projectId"":""a9f3d40c-5730-405c-b25e-1034c4c56f3f""}","https://test12345.live/?num_scrambled_semantic=8&num_scrambled_causal=4&num_scrambled_schematic=4&participantId=42166007888848DC85F1A0DFDF5645C8&assignmentId=e1f5d8f8-37d7-4519-b655-d791572f2884&projectId=a9f3d40c-5730-405c-b25e-1034c4c56f3f","42166007888848DC85F1A0DFDF5645C8-2025-08-07-19-14-44","","null","","[]","null","",""
"","","","","","instructions","21","575108","0.0-7.0","42166007888848DC85F1A0DFDF5645C8","42166007888848DC85F1A0DFDF5645C8","e1f5d8f8-37d7-4519-b655-d791572f2884","a9f3d40c-5730-405c-b25e-1034c4c56f3f","{""num_scrambled_semantic"":""8"",""num_scrambled_causal"":""4"",""num_scrambled_schematic"":""4"",""participantId"":""42166007888848DC85F1A0DFDF5645C8"",""assignmentId"":""e1f5d8f8-37d7-4519-b655-d791572f2884"",""projectId"":""a9f3d40c-5730-405c-b25e-1034c4c56f3f""}","https://test12345.live/?num_scrambled_semantic=8&num_scrambled_causal=4&num_scrambled_schematic=4&participantId=42166007888848DC85F1A0DFDF5645C8&assignmentId=e1f5d8f8-37d7-4519-b655-d791572f2884&projectId=a9f3d40c-5730-405c-b25e-1034c4c56f3f","42166007888848DC85F1A0DFDF5645C8-2025-08-07-19-14-44","[{""page_index"":0,""viewing_time"":7235},{""page_index"":1,""viewing_time"":2201}]","9435","","","","",""
"","","","","","html-audio-response","22","602558","0.0-8.0","42166007888848DC85F1A0DFDF5645C8","42166007888848DC85F1A0DFDF5645C8","e1f5d8f8-37d7-4519-b655-d791572f2884","a9f3d40c-5730-405c-b25e-1034c4c56f3f","{""num_scrambled_semantic"":""8"",""num_scrambled_causal"":""4"",""num_scrambled_schematic"":""4"",""participantId"":""42166007888848DC85F1A0DFDF5645C8"",""assignmentId"":""e1f5d8f8-37d7-4519-b655-d791572f2884"",""projectId"":""a9f3d40c-5730-405c-b25e-1034c4c56f3f""}","https://test12345.live/?num_scrambled_semantic=8&num_scrambled_causal=4&num_scrambled_schematic=4&participantId=42166007888848DC85F1A0DFDF5645C8&assignmentId=e1f5d8f8-37d7-4519-b655-d791572f2884&projectId=a9f3d40c-5730-405c-b25e-1034c4c56f3f","42166007888848DC85F1A0DFDF5645C8-2025-08-07-19-14-44","","14547","","[""<span style=\""color: red; font-size: 24px\""> NOW RECORDING</span><p>Please say out loud all the images you saw, as many as you can remember. The images can be said in any order.</p>""]","","2",""
"","","","","","instructions","23","605254","0.0-9.0","42166007888848DC85F1A0DFDF5645C8","42166007888848DC85F1A0DFDF5645C8","e1f5d8f8-37d7-4519-b655-d791572f2884","a9f3d40c-5730-405c-b25e-1034c4c56f3f","{""num_scrambled_semantic"":""8"",""num_scrambled_causal"":""4"",""num_scrambled_schematic"":""4"",""participantId"":""42166007888848DC85F1A0DFDF5645C8"",""assignmentId"":""e1f5d8f8-37d7-4519-b655-d791572f2884"",""projectId"":""a9f3d40c-5730-405c-b25e-1034c4c56f3f""}","https://test12345.live/?num_scrambled_semantic=8&num_scrambled_causal=4&num_scrambled_schematic=4&participantId=42166007888848DC85F1A0DFDF5645C8&assignmentId=e1f5d8f8-37d7-4519-b655-d791572f2884&projectId=a9f3d40c-5730-405c-b25e-1034c4c56f3f","42166007888848DC85F1A0DFDF5645C8-2025-08-07-19-14-44","[{""page_index"":0,""viewing_time"":2687}]","2687","","","","",""
"","","","","","image-button-response","24","611272","0.0-10.0-0.0","42166007888848DC85F1A0DFDF5645C8","42166007888848DC85F1A0DFDF5645C8","e1f5d8f8-37d7-4519-b655-d791572f2884","a9f3d40c-5730-405c-b25e-1034c4c56f3f","{""num_scrambled_semantic"":""8"",""num_scrambled_causal"":""4"",""num_scrambled_schematic"":""4"",""participantId"":""42166007888848DC85F1A0DFDF5645C8"",""assignmentId"":""e1f5d8f8-37d7-4519-b655-d791572f2884"",""projectId"":""a9f3d40c-5730-405c-b25e-1034c4c56f3f""}","https://test12345.live/?num_scrambled_semantic=8&num_scrambled_causal=4&num_scrambled_schematic=4&participantId=42166007888848DC85F1A0DFDF5645C8&assignmentId=e1f5d8f8-37d7-4519-b655-d791572f2884&projectId=a9f3d40c-5730-405c-b25e-1034c4c56f3f","42166007888848DC85F1A0DFDF5645C8-2025-08-07-19-14-44","","null","","images/causal_sequence/coin_causal/coin_causal_0.png","null","",""
"","","","","","image-button-response","25","615782","0.0-10.0-1.0-0.0","42166007888848DC85F1A0DFDF5645C8","42166007888848DC85F1A0DFDF5645C8","e1f5d8f8-37d7-4519-b655-d791572f2884","a9f3d40c-5730-405c-b25e-1034c4c56f3f","{""num_scrambled_semantic"":""8"",""num_scrambled_causal"":""4"",""num_scrambled_schematic"":""4"",""participantId"":""42166007888848DC85F1A0DFDF5645C8"",""assignmentId"":""e1f5d8f8-37d7-4519-b655-d791572f2884"",""projectId"":""a9f3d40c-5730-405c-b25e-1034c4c56f3f""}","https://test12345.live/?num_scrambled_semantic=8&num_scrambled_causal=4&num_scrambled_schematic=4&participantId=42166007888848DC85F1A0DFDF5645C8&assignmentId=e1f5d8f8-37d7-4519-b655-d791572f2884&projectId=a9f3d40c-5730-405c-b25e-1034c4c56f3f","42166007888848DC85F1A0DFDF5645C8-2025-08-07-19-14-44","","null","","images/causal_sequence/coin_causal/coin_causal_1.png","null","",""
"","","","","","image-button-response","26","618270","0.0-10.0-1.0-1.0","42166007888848DC85F1A0DFDF5645C8","42166007888848DC85F1A0DFDF5645C8","e1f5d8f8-37d7-4519-b655-d791572f2884","a9f3d40c-5730-405c-b25e-1034c4c56f3f","{""num_scrambled_semantic"":""8"",""num_scrambled_causal"":""4"",""num_scrambled_schematic"":""4"",""participantId"":""42166007888848DC85F1A0DFDF5645C8"",""assignmentId"":""e1f5d8f8-37d7-4519-b655-d791572f2884"",""projectId"":""a9f3d40c-5730-405c-b25e-1034c4c56f3f""}","https://test12345.live/?num_scrambled_semantic=8&num_scrambled_causal=4&num_scrambled_schematic=4&participantId=42166007888848DC85F1A0DFDF5645C8&assignmentId=e1f5d8f8-37d7-4519-b655-d791572f2884&projectId=a9f3d40c-5730-405c-b25e-1034c4c56f3f","42166007888848DC85F1A0DFDF5645C8-2025-08-07-19-14-44","","2482","","images/causal_sequence/coin_causal/coin_causal_1.png","0","",""
"","","","","","image-button-response","27","620082","0.0-10.0-1.0-2.0","42166007888848DC85F1A0DFDF5645C8","42166007888848DC85F1A0DFDF5645C8","e1f5d8f8-37d7-4519-b655-d791572f2884","a9f3d40c-5730-405c-b25e-1034c4c56f3f","{""num_scrambled_semantic"":""8"",""num_scrambled_causal"":""4"",""num_scrambled_schematic"":""4"",""participantId"":""42166007888848DC85F1A0DFDF5645C8"",""assignmentId"":""e1f5d8f8-37d7-4519-b655-d791572f2884"",""projectId"":""a9f3d40c-5730-405c-b25e-1034c4c56f3f""}","https://test12345.live/?num_scrambled_semantic=8&num_scrambled_causal=4&num_scrambled_schematic=4&participantId=42166007888848DC85F1A0DFDF5645C8&assignmentId=e1f5d8f8-37d7-4519-b655-d791572f2884&projectId=a9f3d40c-5730-405c-b25e-1034c4c56f3f","42166007888848DC85F1A0DFDF5645C8-2025-08-07-19-14-44","","null","","[]","null","",""
"","","","","","image-button-response","28","624591","0.0-10.0-1.0-0.1","42166007888848DC85F1A0DFDF5645C8","42166007888848DC85F1A0DFDF5645C8","e1f5d8f8-37d7-4519-b655-d791572f2884","a9f3d40c-5730-405c-b25e-1034c4c56f3f","{""num_scrambled_semantic"":""8"",""num_scrambled_causal"":""4"",""num_scrambled_schematic"":""4"",""participantId"":""42166007888848DC85F1A0DFDF5645C8"",""assignmentId"":""e1f5d8f8-37d7-4519-b655-d791572f2884"",""projectId"":""a9f3d40c-5730-405c-b25e-1034c4c56f3f""}","https://test12345.live/?num_scrambled_semantic=8&num_scrambled_causal=4&num_scrambled_schematic=4&participantId=42166007888848DC85F1A0DFDF5645C8&assignmentId=e1f5d8f8-37d7-4519-b655-d791572f2884&projectId=a9f3d40c-5730-405c-b25e-1034c4c56f3f","42166007888848DC85F1A0DFDF5645C8-2025-08-07-19-14-44","","null","","images/causal_sequence/coin_causal/coin_causal_2.png","null","",""
"","","","","","image-button-response","29","626184","0.0-10.0-1.0-1.1","42166007888848DC85F1A0DFDF5645C8","42166007888848DC85F1A0DFDF5645C8","e1f5d8f8-37d7-4519-b655-d791572f2884","a9f3d40c-5730-405c-b25e-1034c4c56f3f","{""num_scrambled_semantic"":""8"",""num_scrambled_causal"":""4"",""num_scrambled_schematic"":""4"",""participantId"":""42166007888848DC85F1A0DFDF5645C8"",""assignmentId"":""e1f5d8f8-37d7-4519-b655-d791572f2884"",""projectId"":""a9f3d40c-5730-405c-b25e-1034c4c56f3f""}","https://test12345.live/?num_scrambled_semantic=8&num_scrambled_causal=4&num_scrambled_schematic=4&participantId=42166007888848DC85F1A0DFDF5645C8&assignmentId=e1f5d8f8-37d7-4519-b655-d791572f2884&projectId=a9f3d40c-5730-405c-b25e-1034c4c56f3f","42166007888848DC85F1A0DFDF5645C8-2025-08-07-19-14-44","","1589","","images/causal_sequence/coin_causal/coin_causal_2.png","0","",""
"","","","","","image-button-response","30","627993","0.0-10.0-1.0-2.1","42166007888848DC85F1A0DFDF5645C8","42166007888848DC85F1A0DFDF5645C8","e1f5d8f8-37d7-4519-b655-d791572f2884","a9f3d40c-5730-405c-b25e-1034c4c56f3f","{""num_scrambled_semantic"":""8"",""num_scrambled_causal"":""4"",""num_scrambled_schematic"":""4"",""participantId"":""42166007888848DC85F1A0DFDF5645C8"",""assignmentId"":""e1f5d8f8-37d7-4519-b655-d791572f2884"",""projectId"":""a9f3d40c-5730-405c-b25e-1034c4c56f3f""}","https://test12345.live/?num_scrambled_semantic=8&num_scrambled_causal=4&num_scrambled_schematic=4&participantId=42166007888848DC85F1A0DFDF5645C8&assignmentId=e1f5d8f8-37d7-4519-b655-d791572f2884&projectId=a9f3d40c-5730-405c-b25e-1034c4c56f3f","42166007888848DC85F1A0DFDF5645C8-2025-08-07-19-14-44","","null","","[]","null","",""
"","","","","","image-button-response","31","632506","0.0-10.0-1.0-0.2","42166007888848DC85F1A0DFDF5645C8","42166007888848DC85F1A0DFDF5645C8","e1f5d8f8-37d7-4519-b655-d791572f2884","a9f3d40c-5730-405c-b25e-1034c4c56f3f","{""num_scrambled_semantic"":""8"",""num_scrambled_causal"":""4"",""num_scrambled_schematic"":""4"",""participantId"":""42166007888848DC85F1A0DFDF5645C8"",""assignmentId"":""e1f5d8f8-37d7-4519-b655-d791572f2884"",""projectId"":""a9f3d40c-5730-405c-b25e-1034c4c56f3f""}","https://test12345.live/?num_scrambled_semantic=8&num_scrambled_causal=4&num_scrambled_schematic=4&participantId=42166007888848DC85F1A0DFDF5645C8&assignmentId=e1f5d8f8-37d7-4519-b655-d791572f2884&projectId=a9f3d40c-5730-405c-b25e-1034c4c56f3f","42166007888848DC85F1A0DFDF5645C8-2025-08-07-19-14-44","","null","","images/causal_sequence/coin_causal/coin_causal_3.png","null","",""
"","","","","","image-button-response","32","633711","0.0-10.0-1.0-1.2","42166007888848DC85F1A0DFDF5645C8","42166007888848DC85F1A0DFDF5645C8","e1f5d8f8-37d7-4519-b655-d791572f2884","a9f3d40c-5730-405c-b25e-1034c4c56f3f","{""num_scrambled_semantic"":""8"",""num_scrambled_causal"":""4"",""num_scrambled_schematic"":""4"",""participantId"":""42166007888848DC85F1A0DFDF5645C8"",""assignmentId"":""e1f5d8f8-37d7-4519-b655-d791572f2884"",""projectId"":""a9f3d40c-5730-405c-b25e-1034c4c56f3f""}","https://test12345.live/?num_scrambled_semantic=8&num_scrambled_causal=4&num_scrambled_schematic=4&participantId=42166007888848DC85F1A0DFDF5645C8&assignmentId=e1f5d8f8-37d7-4519-b655-d791572f2884&projectId=a9f3d40c-5730-405c-b25e-1034c4c56f3f","42166007888848DC85F1A0DFDF5645C8-2025-08-07-19-14-44","","1202","","images/causal_sequence/coin_causal/coin_causal_3.png","0","",""
"","","","","","image-button-response","33","635521","0.0-10.0-1.0-2.2","42166007888848DC85F1A0DFDF5645C8","42166007888848DC85F1A0DFDF5645C8","e1f5d8f8-37d7-4519-b655-d791572f2884","a9f3d40c-5730-405c-b25e-1034c4c56f3f","{""num_scrambled_semantic"":""8"",""num_scrambled_causal"":""4"",""num_scrambled_schematic"":""4"",""participantId"":""42166007888848DC85F1A0DFDF5645C8"",""assignmentId"":""e1f5d8f8-37d7-4519-b655-d791572f2884"",""projectId"":""a9f3d40c-5730-405c-b25e-1034c4c56f3f""}","https://test12345.live/?num_scrambled_semantic=8&num_scrambled_causal=4&num_scrambled_schematic=4&participantId=42166007888848DC85F1A0DFDF5645C8&assignmentId=e1f5d8f8-37d7-4519-b655-d791572f2884&projectId=a9f3d40c-5730-405c-b25e-1034c4c56f3f","42166007888848DC85F1A0DFDF5645C8-2025-08-07-19-14-44","","null","","[]","null","",""
"","","","","","image-button-response","34","640036","0.0-10.0-1.0-0.3","42166007888848DC85F1A0DFDF5645C8","42166007888848DC85F1A0DFDF5645C8","e1f5d8f8-37d7-4519-b655-d791572f2884","a9f3d40c-5730-405c-b25e-1034c4c56f3f","{""num_scrambled_semantic"":""8"",""num_scrambled_causal"":""4"",""num_scrambled_schematic"":""4"",""participantId"":""42166007888848DC85F1A0DFDF5645C8"",""assignmentId"":""e1f5d8f8-37d7-4519-b655-d791572f2884"",""projectId"":""a9f3d40c-5730-405c-b25e-1034c4c56f3f""}","https://test12345.live/?num_scrambled_semantic=8&num_scrambled_causal=4&num_scrambled_schematic=4&participantId=42166007888848DC85F1A0DFDF5645C8&assignmentId=e1f5d8f8-37d7-4519-b655-d791572f2884&projectId=a9f3d40c-5730-405c-b25e-1034c4c56f3f","42166007888848DC85F1A0DFDF5645C8-2025-08-07-19-14-44","","null","","images/causal_sequence/coin_causal/coin_causal_4.png","null","",""
"","","","","","image-button-response","35","640840","0.0-10.0-1.0-1.3","42166007888848DC85F1A0DFDF5645C8","42166007888848DC85F1A0DFDF5645C8","e1f5d8f8-37d7-4519-b655-d791572f2884","a9f3d40c-5730-405c-b25e-1034c4c56f3f","{""num_scrambled_semantic"":""8"",""num_scrambled_causal"":""4"",""num_scrambled_schematic"":""4"",""participantId"":""42166007888848DC85F1A0DFDF5645C8"",""assignmentId"":""e1f5d8f8-37d7-4519-b655-d791572f2884"",""projectId"":""a9f3d40c-5730-405c-b25e-1034c4c56f3f""}","https://test12345.live/?num_scrambled_semantic=8&num_scrambled_causal=4&num_scrambled_schematic=4&participantId=42166007888848DC85F1A0DFDF5645C8&assignmentId=e1f5d8f8-37d7-4519-b655-d791572f2884&projectId=a9f3d40c-5730-405c-b25e-1034c4c56f3f","42166007888848DC85F1A0DFDF5645C8-2025-08-07-19-14-44","","802","","images/causal_sequence/coin_causal/coin_causal_4.png","0","",""
"","","","","","image-button-response","36","642653","0.0-10.0-1.0-2.3","42166007888848DC85F1A0DFDF5645C8","42166007888848DC85F1A0DFDF5645C8","e1f5d8f8-37d7-4519-b655-d791572f2884","a9f3d40c-5730-405c-b25e-1034c4c56f3f","{""num_scrambled_semantic"":""8"",""num_scrambled_causal"":""4"",""num_scrambled_schematic"":""4"",""participantId"":""42166007888848DC85F1A0DFDF5645C8"",""assignmentId"":""e1f5d8f8-37d7-4519-b655-d791572f2884"",""projectId"":""a9f3d40c-5730-405c-b25e-1034c4c56f3f""}","https://test12345.live/?num_scrambled_semantic=8&num_scrambled_causal=4&num_scrambled_schematic=4&participantId=42166007888848DC85F1A0DFDF5645C8&assignmentId=e1f5d8f8-37d7-4519-b655-d791572f2884&projectId=a9f3d40c-5730-405c-b25e-1034c4c56f3f","42166007888848DC85F1A0DFDF5645C8-2025-08-07-19-14-44","","null","","[]","null","",""
"","","","","","image-button-response","37","647163","0.0-10.0-1.0-0.4","42166007888848DC85F1A0DFDF5645C8","42166007888848DC85F1A0DFDF5645C8","e1f5d8f8-37d7-4519-b655-d791572f2884","a9f3d40c-5730-405c-b25e-1034c4c56f3f","{""num_scrambled_semantic"":""8"",""num_scrambled_causal"":""4"",""num_scrambled_schematic"":""4"",""participantId"":""42166007888848DC85F1A0DFDF5645C8"",""assignmentId"":""e1f5d8f8-37d7-4519-b655-d791572f2884"",""projectId"":""a9f3d40c-5730-405c-b25e-1034c4c56f3f""}","https://test12345.live/?num_scrambled_semantic=8&num_scrambled_causal=4&num_scrambled_schematic=4&participantId=42166007888848DC85F1A0DFDF5645C8&assignmentId=e1f5d8f8-37d7-4519-b655-d791572f2884&projectId=a9f3d40c-5730-405c-b25e-1034c4c56f3f","42166007888848DC85F1A0DFDF5645C8-2025-08-07-19-14-44","","null","","images/causal_sequence/coin_causal/coin_causal_5.png","null","",""
"","","","","","image-button-response","38","651182","0.0-10.0-1.0-1.4","42166007888848DC85F1A0DFDF5645C8","42166007888848DC85F1A0DFDF5645C8","e1f5d8f8-37d7-4519-b655-d791572f2884","a9f3d40c-5730-405c-b25e-1034c4c56f3f","{""num_scrambled_semantic"":""8"",""num_scrambled_causal"":""4"",""num_scrambled_schematic"":""4"",""participantId"":""42166007888848DC85F1A0DFDF5645C8"",""assignmentId"":""e1f5d8f8-37d7-4519-b655-d791572f2884"",""projectId"":""a9f3d40c-5730-405c-b25e-1034c4c56f3f""}","https://test12345.live/?num_scrambled_semantic=8&num_scrambled_causal=4&num_scrambled_schematic=4&participantId=42166007888848DC85F1A0DFDF5645C8&assignmentId=e1f5d8f8-37d7-4519-b655-d791572f2884&projectId=a9f3d40c-5730-405c-b25e-1034c4c56f3f","42166007888848DC85F1A0DFDF5645C8-2025-08-07-19-14-44","","null","","images/causal_sequence/coin_causal/coin_causal_5.png","null","",""
"","","","","","image-button-response","39","652998","0.0-10.0-1.0-2.4","42166007888848DC85F1A0DFDF5645C8","42166007888848DC85F1A0DFDF5645C8","e1f5d8f8-37d7-4519-b655-d791572f2884","a9f3d40c-5730-405c-b25e-1034c4c56f3f","{""num_scrambled_semantic"":""8"",""num_scrambled_causal"":""4"",""num_scrambled_schematic"":""4"",""participantId"":""42166007888848DC85F1A0DFDF5645C8"",""assignmentId"":""e1f5d8f8-37d7-4519-b655-d791572f2884"",""projectId"":""a9f3d40c-5730-405c-b25e-1034c4c56f3f""}","https://test12345.live/?num_scrambled_semantic=8&num_scrambled_causal=4&num_scrambled_schematic=4&participantId=42166007888848DC85F1A0DFDF5645C8&assignmentId=e1f5d8f8-37d7-4519-b655-d791572f2884&projectId=a9f3d40c-5730-405c-b25e-1034c4c56f3f","42166007888848DC85F1A0DFDF5645C8-2025-08-07-19-14-44","","null","","[]","null","",""
"","","","","","image-button-response","40","657513","0.0-10.0-1.0-0.5","42166007888848DC85F1A0DFDF5645C8","42166007888848DC85F1A0DFDF5645C8","e1f5d8f8-37d7-4519-b655-d791572f2884","a9f3d40c-5730-405c-b25e-1034c4c56f3f","{""num_scrambled_semantic"":""8"",""num_scrambled_causal"":""4"",""num_scrambled_schematic"":""4"",""participantId"":""42166007888848DC85F1A0DFDF5645C8"",""assignmentId"":""e1f5d8f8-37d7-4519-b655-d791572f2884"",""projectId"":""a9f3d40c-5730-405c-b25e-1034c4c56f3f""}","https://test12345.live/?num_scrambled_semantic=8&num_scrambled_causal=4&num_scrambled_schematic=4&participantId=42166007888848DC85F1A0DFDF5645C8&assignmentId=e1f5d8f8-37d7-4519-b655-d791572f2884&projectId=a9f3d40c-5730-405c-b25e-1034c4c56f3f","42166007888848DC85F1A0DFDF5645C8-2025-08-07-19-14-44","","null","","images/causal_sequence/coin_causal/coin_causal_6.png","null","",""
"","","","","","image-button-response","41","658428","0.0-10.0-1.0-1.5","42166007888848DC85F1A0DFDF5645C8","42166007888848DC85F1A0DFDF5645C8","e1f5d8f8-37d7-4519-b655-d791572f2884","a9f3d40c-5730-405c-b25e-1034c4c56f3f","{""num_scrambled_semantic"":""8"",""num_scrambled_causal"":""4"",""num_scrambled_schematic"":""4"",""participantId"":""42166007888848DC85F1A0DFDF5645C8"",""assignmentId"":""e1f5d8f8-37d7-4519-b655-d791572f2884"",""projectId"":""a9f3d40c-5730-405c-b25e-1034c4c56f3f""}","https://test12345.live/?num_scrambled_semantic=8&num_scrambled_causal=4&num_scrambled_schematic=4&participantId=42166007888848DC85F1A0DFDF5645C8&assignmentId=e1f5d8f8-37d7-4519-b655-d791572f2884&projectId=a9f3d40c-5730-405c-b25e-1034c4c56f3f","42166007888848DC85F1A0DFDF5645C8-2025-08-07-19-14-44","","912","","images/causal_sequence/coin_causal/coin_causal_6.png","0","",""
"","","","","","image-button-response","42","660242","0.0-10.0-1.0-2.5","42166007888848DC85F1A0DFDF5645C8","42166007888848DC85F1A0DFDF5645C8","e1f5d8f8-37d7-4519-b655-d791572f2884","a9f3d40c-5730-405c-b25e-1034c4c56f3f","{""num_scrambled_semantic"":""8"",""num_scrambled_causal"":""4"",""num_scrambled_schematic"":""4"",""participantId"":""42166007888848DC85F1A0DFDF5645C8"",""assignmentId"":""e1f5d8f8-37d7-4519-b655-d791572f2884"",""projectId"":""a9f3d40c-5730-405c-b25e-1034c4c56f3f""}","https://test12345.live/?num_scrambled_semantic=8&num_scrambled_causal=4&num_scrambled_schematic=4&participantId=42166007888848DC85F1A0DFDF5645C8&assignmentId=e1f5d8f8-37d7-4519-b655-d791572f2884&projectId=a9f3d40c-5730-405c-b25e-1034c4c56f3f","42166007888848DC85F1A0DFDF5645C8-2025-08-07-19-14-44","","null","","[]","null","",""
"","","","","","image-button-response","43","664753","0.0-10.0-1.0-0.6","42166007888848DC85F1A0DFDF5645C8","42166007888848DC85F1A0DFDF5645C8","e1f5d8f8-37d7-4519-b655-d791572f2884","a9f3d40c-5730-405c-b25e-1034c4c56f3f","{""num_scrambled_semantic"":""8"",""num_scrambled_causal"":""4"",""num_scrambled_schematic"":""4"",""participantId"":""42166007888848DC85F1A0DFDF5645C8"",""assignmentId"":""e1f5d8f8-37d7-4519-b655-d791572f2884"",""projectId"":""a9f3d40c-5730-405c-b25e-1034c4c56f3f""}","https://test12345.live/?num_scrambled_semantic=8&num_scrambled_causal=4&num_scrambled_schematic=4&participantId=42166007888848DC85F1A0DFDF5645C8&assignmentId=e1f5d8f8-37d7-4519-b655-d791572f2884&projectId=a9f3d40c-5730-405c-b25e-1034c4c56f3f","42166007888848DC85F1A0DFDF5645C8-2025-08-07-19-14-44","","null","","images/causal_sequence/coin_causal/coin_causal_7.png","null","",""
"","","","","","image-button-response","44","665929","0.0-10.0-1.0-1.6","42166007888848DC85F1A0DFDF5645C8","42166007888848DC85F1A0DFDF5645C8","e1f5d8f8-37d7-4519-b655-d791572f2884","a9f3d40c-5730-405c-b25e-1034c4c56f3f","{""num_scrambled_semantic"":""8"",""num_scrambled_causal"":""4"",""num_scrambled_schematic"":""4"",""participantId"":""42166007888848DC85F1A0DFDF5645C8"",""assignmentId"":""e1f5d8f8-37d7-4519-b655-d791572f2884"",""projectId"":""a9f3d40c-5730-405c-b25e-1034c4c56f3f""}","https://test12345.live/?num_scrambled_semantic=8&num_scrambled_causal=4&num_scrambled_schematic=4&participantId=42166007888848DC85F1A0DFDF5645C8&assignmentId=e1f5d8f8-37d7-4519-b655-d791572f2884&projectId=a9f3d40c-5730-405c-b25e-1034c4c56f3f","42166007888848DC85F1A0DFDF5645C8-2025-08-07-19-14-44","","1173","","images/causal_sequence/coin_causal/coin_causal_7.png","0","",""
"","","","","","image-button-response","45","667741","0.0-10.0-1.0-2.6","42166007888848DC85F1A0DFDF5645C8","42166007888848DC85F1A0DFDF5645C8","e1f5d8f8-37d7-4519-b655-d791572f2884","a9f3d40c-5730-405c-b25e-1034c4c56f3f","{""num_scrambled_semantic"":""8"",""num_scrambled_causal"":""4"",""num_scrambled_schematic"":""4"",""participantId"":""42166007888848DC85F1A0DFDF5645C8"",""assignmentId"":""e1f5d8f8-37d7-4519-b655-d791572f2884"",""projectId"":""a9f3d40c-5730-405c-b25e-1034c4c56f3f""}","https://test12345.live/?num_scrambled_semantic=8&num_scrambled_causal=4&num_scrambled_schematic=4&participantId=42166007888848DC85F1A0DFDF5645C8&assignmentId=e1f5d8f8-37d7-4519-b655-d791572f2884&projectId=a9f3d40c-5730-405c-b25e-1034c4c56f3f","42166007888848DC85F1A0DFDF5645C8-2025-08-07-19-14-44","","null","","[]","null","",""
"","","","","","image-button-response","46","672249","0.0-10.0-1.0-0.7","42166007888848DC85F1A0DFDF5645C8","42166007888848DC85F1A0DFDF5645C8","e1f5d8f8-37d7-4519-b655-d791572f2884","a9f3d40c-5730-405c-b25e-1034c4c56f3f","{""num_scrambled_semantic"":""8"",""num_scrambled_causal"":""4"",""num_scrambled_schematic"":""4"",""participantId"":""42166007888848DC85F1A0DFDF5645C8"",""assignmentId"":""e1f5d8f8-37d7-4519-b655-d791572f2884"",""projectId"":""a9f3d40c-5730-405c-b25e-1034c4c56f3f""}","https://test12345.live/?num_scrambled_semantic=8&num_scrambled_causal=4&num_scrambled_schematic=4&participantId=42166007888848DC85F1A0DFDF5645C8&assignmentId=e1f5d8f8-37d7-4519-b655-d791572f2884&projectId=a9f3d40c-5730-405c-b25e-1034c4c56f3f","42166007888848DC85F1A0DFDF5645C8-2025-08-07-19-14-44","","null","","images/causal_sequence/coin_causal/coin_causal_8.png","null","",""
"","","","","","image-button-response","47","673498","0.0-10.0-1.0-1.7","42166007888848DC85F1A0DFDF5645C8","42166007888848DC85F1A0DFDF5645C8","e1f5d8f8-37d7-4519-b655-d791572f2884","a9f3d40c-5730-405c-b25e-1034c4c56f3f","{""num_scrambled_semantic"":""8"",""num_scrambled_causal"":""4"",""num_scrambled_schematic"":""4"",""participantId"":""42166007888848DC85F1A0DFDF5645C8"",""assignmentId"":""e1f5d8f8-37d7-4519-b655-d791572f2884"",""projectId"":""a9f3d40c-5730-405c-b25e-1034c4c56f3f""}","https://test12345.live/?num_scrambled_semantic=8&num_scrambled_causal=4&num_scrambled_schematic=4&participantId=42166007888848DC85F1A0DFDF5645C8&assignmentId=e1f5d8f8-37d7-4519-b655-d791572f2884&projectId=a9f3d40c-5730-405c-b25e-1034c4c56f3f","42166007888848DC85F1A0DFDF5645C8-2025-08-07-19-14-44","","1246","","images/causal_sequence/coin_causal/coin_causal_8.png","0","",""
"","","","","","image-button-response","48","675302","0.0-10.0-1.0-2.7","42166007888848DC85F1A0DFDF5645C8","42166007888848DC85F1A0DFDF5645C8","e1f5d8f8-37d7-4519-b655-d791572f2884","a9f3d40c-5730-405c-b25e-1034c4c56f3f","{""num_scrambled_semantic"":""8"",""num_scrambled_causal"":""4"",""num_scrambled_schematic"":""4"",""participantId"":""42166007888848DC85F1A0DFDF5645C8"",""assignmentId"":""e1f5d8f8-37d7-4519-b655-d791572f2884"",""projectId"":""a9f3d40c-5730-405c-b25e-1034c4c56f3f""}","https://test12345.live/?num_scrambled_semantic=8&num_scrambled_causal=4&num_scrambled_schematic=4&participantId=42166007888848DC85F1A0DFDF5645C8&assignmentId=e1f5d8f8-37d7-4519-b655-d791572f2884&projectId=a9f3d40c-5730-405c-b25e-1034c4c56f3f","42166007888848DC85F1A0DFDF5645C8-2025-08-07-19-14-44","","null","","[]","null","",""
"","","","","","image-button-response","49","679811","0.0-10.0-1.0-0.8","42166007888848DC85F1A0DFDF5645C8","42166007888848DC85F1A0DFDF5645C8","e1f5d8f8-37d7-4519-b655-d791572f2884","a9f3d40c-5730-405c-b25e-1034c4c56f3f","{""num_scrambled_semantic"":""8"",""num_scrambled_causal"":""4"",""num_scrambled_schematic"":""4"",""participantId"":""42166007888848DC85F1A0DFDF5645C8"",""assignmentId"":""e1f5d8f8-37d7-4519-b655-d791572f2884"",""projectId"":""a9f3d40c-5730-405c-b25e-1034c4c56f3f""}","https://test12345.live/?num_scrambled_semantic=8&num_scrambled_causal=4&num_scrambled_schematic=4&participantId=42166007888848DC85F1A0DFDF5645C8&assignmentId=e1f5d8f8-37d7-4519-b655-d791572f2884&projectId=a9f3d40c-5730-405c-b25e-1034c4c56f3f","42166007888848DC85F1A0DFDF5645C8-2025-08-07-19-14-44","","null","","images/causal_sequence/coin_causal/coin_causal_9.png","null","",""
"","","","","","image-button-response","50","680963","0.0-10.0-1.0-1.8","42166007888848DC85F1A0DFDF5645C8","42166007888848DC85F1A0DFDF5645C8","e1f5d8f8-37d7-4519-b655-d791572f2884","a9f3d40c-5730-405c-b25e-1034c4c56f3f","{""num_scrambled_semantic"":""8"",""num_scrambled_causal"":""4"",""num_scrambled_schematic"":""4"",""participantId"":""42166007888848DC85F1A0DFDF5645C8"",""assignmentId"":""e1f5d8f8-37d7-4519-b655-d791572f2884"",""projectId"":""a9f3d40c-5730-405c-b25e-1034c4c56f3f""}","https://test12345.live/?num_scrambled_semantic=8&num_scrambled_causal=4&num_scrambled_schematic=4&participantId=42166007888848DC85F1A0DFDF5645C8&assignmentId=e1f5d8f8-37d7-4519-b655-d791572f2884&projectId=a9f3d40c-5730-405c-b25e-1034c4c56f3f","42166007888848DC85F1A0DFDF5645C8-2025-08-07-19-14-44","","1150","","images/causal_sequence/coin_causal/coin_causal_9.png","0","",""
"","","","","","image-button-response","51","682769","0.0-10.0-1.0-2.8","42166007888848DC85F1A0DFDF5645C8","42166007888848DC85F1A0DFDF5645C8","e1f5d8f8-37d7-4519-b655-d791572f2884","a9f3d40c-5730-405c-b25e-1034c4c56f3f","{""num_scrambled_semantic"":""8"",""num_scrambled_causal"":""4"",""num_scrambled_schematic"":""4"",""participantId"":""42166007888848DC85F1A0DFDF5645C8"",""assignmentId"":""e1f5d8f8-37d7-4519-b655-d791572f2884"",""projectId"":""a9f3d40c-5730-405c-b25e-1034c4c56f3f""}","https://test12345.live/?num_scrambled_semantic=8&num_scrambled_causal=4&num_scrambled_schematic=4&participantId=42166007888848DC85F1A0DFDF5645C8&assignmentId=e1f5d8f8-37d7-4519-b655-d791572f2884&projectId=a9f3d40c-5730-405c-b25e-1034c4c56f3f","42166007888848DC85F1A0DFDF5645C8-2025-08-07-19-14-44","","null","","[]","null","",""
"","","","","","image-button-response","52","687283","0.0-10.0-1.0-0.9","42166007888848DC85F1A0DFDF5645C8","42166007888848DC85F1A0DFDF5645C8","e1f5d8f8-37d7-4519-b655-d791572f2884","a9f3d40c-5730-405c-b25e-1034c4c56f3f","{""num_scrambled_semantic"":""8"",""num_scrambled_causal"":""4"",""num_scrambled_schematic"":""4"",""participantId"":""42166007888848DC85F1A0DFDF5645C8"",""assignmentId"":""e1f5d8f8-37d7-4519-b655-d791572f2884"",""projectId"":""a9f3d40c-5730-405c-b25e-1034c4c56f3f""}","https://test12345.live/?num_scrambled_semantic=8&num_scrambled_causal=4&num_scrambled_schematic=4&participantId=42166007888848DC85F1A0DFDF5645C8&assignmentId=e1f5d8f8-37d7-4519-b655-d791572f2884&projectId=a9f3d40c-5730-405c-b25e-1034c4c56f3f","42166007888848DC85F1A0DFDF5645C8-2025-08-07-19-14-44","","null","","images/causal_sequence/coin_causal/coin_causal_ten.png","null","",""
"","","","","","image-button-response","53","688622","0.0-10.0-1.0-1.9","42166007888848DC85F1A0DFDF5645C8","42166007888848DC85F1A0DFDF5645C8","e1f5d8f8-37d7-4519-b655-d791572f2884","a9f3d40c-5730-405c-b25e-1034c4c56f3f","{""num_scrambled_semantic"":""8"",""num_scrambled_causal"":""4"",""num_scrambled_schematic"":""4"",""participantId"":""42166007888848DC85F1A0DFDF5645C8"",""assignmentId"":""e1f5d8f8-37d7-4519-b655-d791572f2884"",""projectId"":""a9f3d40c-5730-405c-b25e-1034c4c56f3f""}","https://test12345.live/?num_scrambled_semantic=8&num_scrambled_causal=4&num_scrambled_schematic=4&participantId=42166007888848DC85F1A0DFDF5645C8&assignmentId=e1f5d8f8-37d7-4519-b655-d791572f2884&projectId=a9f3d40c-5730-405c-b25e-1034c4c56f3f","42166007888848DC85F1A0DFDF5645C8-2025-08-07-19-14-44","","1336","","images/causal_sequence/coin_causal/coin_causal_ten.png","0","",""
"","","","","","image-button-response","54","690432","0.0-10.0-1.0-2.9","42166007888848DC85F1A0DFDF5645C8","42166007888848DC85F1A0DFDF5645C8","e1f5d8f8-37d7-4519-b655-d791572f2884","a9f3d40c-5730-405c-b25e-1034c4c56f3f","{""num_scrambled_semantic"":""8"",""num_scrambled_causal"":""4"",""num_scrambled_schematic"":""4"",""participantId"":""42166007888848DC85F1A0DFDF5645C8"",""assignmentId"":""e1f5d8f8-37d7-4519-b655-d791572f2884"",""projectId"":""a9f3d40c-5730-405c-b25e-1034c4c56f3f""}","https://test12345.live/?num_scrambled_semantic=8&num_scrambled_causal=4&num_scrambled_schematic=4&participantId=42166007888848DC85F1A0DFDF5645C8&assignmentId=e1f5d8f8-37d7-4519-b655-d791572f2884&projectId=a9f3d40c-5730-405c-b25e-1034c4c56f3f","42166007888848DC85F1A0DFDF5645C8-2025-08-07-19-14-44","","null","","[]","null","",""
"","","","","","html-audio-response","55","734537","0.0-11.0","42166007888848DC85F1A0DFDF5645C8","42166007888848DC85F1A0DFDF5645C8","e1f5d8f8-37d7-4519-b655-d791572f2884","a9f3d40c-5730-405c-b25e-1034c4c56f3f","{""num_scrambled_semantic"":""8"",""num_scrambled_causal"":""4"",""num_scrambled_schematic"":""4"",""participantId"":""42166007888848DC85F1A0DFDF5645C8"",""assignmentId"":""e1f5d8f8-37d7-4519-b655-d791572f2884"",""projectId"":""a9f3d40c-5730-405c-b25e-1034c4c56f3f""}","https://test12345.live/?num_scrambled_semantic=8&num_scrambled_causal=4&num_scrambled_schematic=4&participantId=42166007888848DC85F1A0DFDF5645C8&assignmentId=e1f5d8f8-37d7-4519-b655-d791572f2884&projectId=a9f3d40c-5730-405c-b25e-1034c4c56f3f","42166007888848DC85F1A0DFDF5645C8-2025-08-07-19-14-44","","31663","","[""<span style=\""color: red; font-size: 24px\""> NOW RECORDING</span><p>Please say out loud all the images you saw, as many as you can remember. The images can be said in any order.</p>""]","","11","coin_causal"
"","","","","","image-button-response","56","740561","0.0-12.0-0.0","42166007888848DC85F1A0DFDF5645C8","42166007888848DC85F1A0DFDF5645C8","e1f5d8f8-37d7-4519-b655-d791572f2884","a9f3d40c-5730-405c-b25e-1034c4c56f3f","{""num_scrambled_semantic"":""8"",""num_scrambled_causal"":""4"",""num_scrambled_schematic"":""4"",""participantId"":""42166007888848DC85F1A0DFDF5645C8"",""assignmentId"":""e1f5d8f8-37d7-4519-b655-d791572f2884"",""projectId"":""a9f3d40c-5730-405c-b25e-1034c4c56f3f""}","https://test12345.live/?num_scrambled_semantic=8&num_scrambled_causal=4&num_scrambled_schematic=4&participantId=42166007888848DC85F1A0DFDF5645C8&assignmentId=e1f5d8f8-37d7-4519-b655-d791572f2884&projectId=a9f3d40c-5730-405c-b25e-1034c4c56f3f","42166007888848DC85F1A0DFDF5645C8-2025-08-07-19-14-44","","null","","images/semantic_sequence/physical_activity_semantic/physical_activity_semantic_0.png","null","",""
"","","","","","image-button-response","57","745073","0.0-12.0-1.0-0.0","42166007888848DC85F1A0DFDF5645C8","42166007888848DC85F1A0DFDF5645C8","e1f5d8f8-37d7-4519-b655-d791572f2884","a9f3d40c-5730-405c-b25e-1034c4c56f3f","{""num_scrambled_semantic"":""8"",""num_scrambled_causal"":""4"",""num_scrambled_schematic"":""4"",""participantId"":""42166007888848DC85F1A0DFDF5645C8"",""assignmentId"":""e1f5d8f8-37d7-4519-b655-d791572f2884"",""projectId"":""a9f3d40c-5730-405c-b25e-1034c4c56f3f""}","https://test12345.live/?num_scrambled_semantic=8&num_scrambled_causal=4&num_scrambled_schematic=4&participantId=42166007888848DC85F1A0DFDF5645C8&assignmentId=e1f5d8f8-37d7-4519-b655-d791572f2884&projectId=a9f3d40c-5730-405c-b25e-1034c4c56f3f","42166007888848DC85F1A0DFDF5645C8-2025-08-07-19-14-44","","null","","images/semantic_sequence/physical_activity_semantic/physical_activity_semantic_7.png","null","",""
"","","","","","image-button-response","58","747706","0.0-12.0-1.0-1.0","42166007888848DC85F1A0DFDF5645C8","42166007888848DC85F1A0DFDF5645C8","e1f5d8f8-37d7-4519-b655-d791572f2884","a9f3d40c-5730-405c-b25e-1034c4c56f3f","{""num_scrambled_semantic"":""8"",""num_scrambled_causal"":""4"",""num_scrambled_schematic"":""4"",""participantId"":""42166007888848DC85F1A0DFDF5645C8"",""assignmentId"":""e1f5d8f8-37d7-4519-b655-d791572f2884"",""projectId"":""a9f3d40c-5730-405c-b25e-1034c4c56f3f""}","https://test12345.live/?num_scrambled_semantic=8&num_scrambled_causal=4&num_scrambled_schematic=4&participantId=42166007888848DC85F1A0DFDF5645C8&assignmentId=e1f5d8f8-37d7-4519-b655-d791572f2884&projectId=a9f3d40c-5730-405c-b25e-1034c4c56f3f","42166007888848DC85F1A0DFDF5645C8-2025-08-07-19-14-44","","2630","","images/semantic_sequence/physical_activity_semantic/physical_activity_semantic_7.png","0","",""
"","","","","","image-button-response","59","749521","0.0-12.0-1.0-2.0","42166007888848DC85F1A0DFDF5645C8","42166007888848DC85F1A0DFDF5645C8","e1f5d8f8-37d7-4519-b655-d791572f2884","a9f3d40c-5730-405c-b25e-1034c4c56f3f","{""num_scrambled_semantic"":""8"",""num_scrambled_causal"":""4"",""num_scrambled_schematic"":""4"",""participantId"":""42166007888848DC85F1A0DFDF5645C8"",""assignmentId"":""e1f5d8f8-37d7-4519-b655-d791572f2884"",""projectId"":""a9f3d40c-5730-405c-b25e-1034c4c56f3f""}","https://test12345.live/?num_scrambled_semantic=8&num_scrambled_causal=4&num_scrambled_schematic=4&participantId=42166007888848DC85F1A0DFDF5645C8&assignmentId=e1f5d8f8-37d7-4519-b655-d791572f2884&projectId=a9f3d40c-5730-405c-b25e-1034c4c56f3f","42166007888848DC85F1A0DFDF5645C8-2025-08-07-19-14-44","","null","","[]","null","",""
"","","","","","image-button-response","60","754037","0.0-12.0-1.0-0.1","42166007888848DC85F1A0DFDF5645C8","42166007888848DC85F1A0DFDF5645C8","e1f5d8f8-37d7-4519-b655-d791572f2884","a9f3d40c-5730-405c-b25e-1034c4c56f3f","{""num_scrambled_semantic"":""8"",""num_scrambled_causal"":""4"",""num_scrambled_schematic"":""4"",""participantId"":""42166007888848DC85F1A0DFDF5645C8"",""assignmentId"":""e1f5d8f8-37d7-4519-b655-d791572f2884"",""projectId"":""a9f3d40c-5730-405c-b25e-1034c4c56f3f""}","https://test12345.live/?num_scrambled_semantic=8&num_scrambled_causal=4&num_scrambled_schematic=4&participantId=42166007888848DC85F1A0DFDF5645C8&assignmentId=e1f5d8f8-37d7-4519-b655-d791572f2884&projectId=a9f3d40c-5730-405c-b25e-1034c4c56f3f","42166007888848DC85F1A0DFDF5645C8-2025-08-07-19-14-44","","null","","images/semantic_sequence/physical_activity_semantic/physical_activity_semantic_3.png","null","",""
"","","","","","image-button-response","61","755172","0.0-12.0-1.0-1.1","42166007888848DC85F1A0DFDF5645C8","42166007888848DC85F1A0DFDF5645C8","e1f5d8f8-37d7-4519-b655-d791572f2884","a9f3d40c-5730-405c-b25e-1034c4c56f3f","{""num_scrambled_semantic"":""8"",""num_scrambled_causal"":""4"",""num_scrambled_schematic"":""4"",""participantId"":""42166007888848DC85F1A0DFDF5645C8"",""assignmentId"":""e1f5d8f8-37d7-4519-b655-d791572f2884"",""projectId"":""a9f3d40c-5730-405c-b25e-1034c4c56f3f""}","https://test12345.live/?num_scrambled_semantic=8&num_scrambled_causal=4&num_scrambled_schematic=4&participantId=42166007888848DC85F1A0DFDF5645C8&assignmentId=e1f5d8f8-37d7-4519-b655-d791572f2884&projectId=a9f3d40c-5730-405c-b25e-1034c4c56f3f","42166007888848DC85F1A0DFDF5645C8-2025-08-07-19-14-44","","1131","","images/semantic_sequence/physical_activity_semantic/physical_activity_semantic_3.png","0","",""
"","","","","","image-button-response","62","756981","0.0-12.0-1.0-2.1","42166007888848DC85F1A0DFDF5645C8","42166007888848DC85F1A0DFDF5645C8","e1f5d8f8-37d7-4519-b655-d791572f2884","a9f3d40c-5730-405c-b25e-1034c4c56f3f","{""num_scrambled_semantic"":""8"",""num_scrambled_causal"":""4"",""num_scrambled_schematic"":""4"",""participantId"":""42166007888848DC85F1A0DFDF5645C8"",""assignmentId"":""e1f5d8f8-37d7-4519-b655-d791572f2884"",""projectId"":""a9f3d40c-5730-405c-b25e-1034c4c56f3f""}","https://test12345.live/?num_scrambled_semantic=8&num_scrambled_causal=4&num_scrambled_schematic=4&participantId=42166007888848DC85F1A0DFDF5645C8&assignmentId=e1f5d8f8-37d7-4519-b655-d791572f2884&projectId=a9f3d40c-5730-405c-b25e-1034c4c56f3f","42166007888848DC85F1A0DFDF5645C8-2025-08-07-19-14-44","","null","","[]","null","",""
"","","","","","image-button-response","63","761497","0.0-12.0-1.0-0.2","42166007888848DC85F1A0DFDF5645C8","42166007888848DC85F1A0DFDF5645C8","e1f5d8f8-37d7-4519-b655-d791572f2884","a9f3d40c-5730-405c-b25e-1034c4c56f3f","{""num_scrambled_semantic"":""8"",""num_scrambled_causal"":""4"",""num_scrambled_schematic"":""4"",""participantId"":""42166007888848DC85F1A0DFDF5645C8"",""assignmentId"":""e1f5d8f8-37d7-4519-b655-d791572f2884"",""projectId"":""a9f3d40c-5730-405c-b25e-1034c4c56f3f""}","https://test12345.live/?num_scrambled_semantic=8&num_scrambled_causal=4&num_scrambled_schematic=4&participantId=42166007888848DC85F1A0DFDF5645C8&assignmentId=e1f5d8f8-37d7-4519-b655-d791572f2884&projectId=a9f3d40c-5730-405c-b25e-1034c4c56f3f","42166007888848DC85F1A0DFDF5645C8-2025-08-07-19-14-44","","null","","images/semantic_sequence/physical_activity_semantic/physical_activity_semantic_2.png","null","",""
"","","","","","image-button-response","64","763122","0.0-12.0-1.0-1.2","42166007888848DC85F1A0DFDF5645C8","42166007888848DC85F1A0DFDF5645C8","e1f5d8f8-37d7-4519-b655-d791572f2884","a9f3d40c-5730-405c-b25e-1034c4c56f3f","{""num_scrambled_semantic"":""8"",""num_scrambled_causal"":""4"",""num_scrambled_schematic"":""4"",""participantId"":""42166007888848DC85F1A0DFDF5645C8"",""assignmentId"":""e1f5d8f8-37d7-4519-b655-d791572f2884"",""projectId"":""a9f3d40c-5730-405c-b25e-1034c4c56f3f""}","https://test12345.live/?num_scrambled_semantic=8&num_scrambled_causal=4&num_scrambled_schematic=4&participantId=42166007888848DC85F1A0DFDF5645C8&assignmentId=e1f5d8f8-37d7-4519-b655-d791572f2884&projectId=a9f3d40c-5730-405c-b25e-1034c4c56f3f","42166007888848DC85F1A0DFDF5645C8-2025-08-07-19-14-44","","1623","","images/semantic_sequence/physical_activity_semantic/physical_activity_semantic_2.png","0","",""
"","","","","","image-button-response","65","764932","0.0-12.0-1.0-2.2","42166007888848DC85F1A0DFDF5645C8","42166007888848DC85F1A0DFDF5645C8","e1f5d8f8-37d7-4519-b655-d791572f2884","a9f3d40c-5730-405c-b25e-1034c4c56f3f","{""num_scrambled_semantic"":""8"",""num_scrambled_causal"":""4"",""num_scrambled_schematic"":""4"",""participantId"":""42166007888848DC85F1A0DFDF5645C8"",""assignmentId"":""e1f5d8f8-37d7-4519-b655-d791572f2884"",""projectId"":""a9f3d40c-5730-405c-b25e-1034c4c56f3f""}","https://test12345.live/?num_scrambled_semantic=8&num_scrambled_causal=4&num_scrambled_schematic=4&participantId=42166007888848DC85F1A0DFDF5645C8&assignmentId=e1f5d8f8-37d7-4519-b655-d791572f2884&projectId=a9f3d40c-5730-405c-b25e-1034c4c56f3f","42166007888848DC85F1A0DFDF5645C8-2025-08-07-19-14-44","","null","","[]","null","",""
"","","","","","image-button-response","66","769437","0.0-12.0-1.0-0.3","42166007888848DC85F1A0DFDF5645C8","42166007888848DC85F1A0DFDF5645C8","e1f5d8f8-37d7-4519-b655-d791572f2884","a9f3d40c-5730-405c-b25e-1034c4c56f3f","{""num_scrambled_semantic"":""8"",""num_scrambled_causal"":""4"",""num_scrambled_schematic"":""4"",""participantId"":""42166007888848DC85F1A0DFDF5645C8"",""assignmentId"":""e1f5d8f8-37d7-4519-b655-d791572f2884"",""projectId"":""a9f3d40c-5730-405c-b25e-1034c4c56f3f""}","https://test12345.live/?num_scrambled_semantic=8&num_scrambled_causal=4&num_scrambled_schematic=4&participantId=42166007888848DC85F1A0DFDF5645C8&assignmentId=e1f5d8f8-37d7-4519-b655-d791572f2884&projectId=a9f3d40c-5730-405c-b25e-1034c4c56f3f","42166007888848DC85F1A0DFDF5645C8-2025-08-07-19-14-44","","null","","images/semantic_sequence/physical_activity_semantic/physical_activity_semantic_4.png","null","",""
"","","","","","image-button-response","67","771024","0.0-12.0-1.0-1.3","42166007888848DC85F1A0DFDF5645C8","42166007888848DC85F1A0DFDF5645C8","e1f5d8f8-37d7-4519-b655-d791572f2884","a9f3d40c-5730-405c-b25e-1034c4c56f3f","{""num_scrambled_semantic"":""8"",""num_scrambled_causal"":""4"",""num_scrambled_schematic"":""4"",""participantId"":""42166007888848DC85F1A0DFDF5645C8"",""assignmentId"":""e1f5d8f8-37d7-4519-b655-d791572f2884"",""projectId"":""a9f3d40c-5730-405c-b25e-1034c4c56f3f""}","https://test12345.live/?num_scrambled_semantic=8&num_scrambled_causal=4&num_scrambled_schematic=4&participantId=42166007888848DC85F1A0DFDF5645C8&assignmentId=e1f5d8f8-37d7-4519-b655-d791572f2884&projectId=a9f3d40c-5730-405c-b25e-1034c4c56f3f","42166007888848DC85F1A0DFDF5645C8-2025-08-07-19-14-44","","1584","","images/semantic_sequence/physical_activity_semantic/physical_activity_semantic_4.png","0","",""
"","","","","","image-button-response","68","772842","0.0-12.0-1.0-2.3","42166007888848DC85F1A0DFDF5645C8","42166007888848DC85F1A0DFDF5645C8","e1f5d8f8-37d7-4519-b655-d791572f2884","a9f3d40c-5730-405c-b25e-1034c4c56f3f","{""num_scrambled_semantic"":""8"",""num_scrambled_causal"":""4"",""num_scrambled_schematic"":""4"",""participantId"":""42166007888848DC85F1A0DFDF5645C8"",""assignmentId"":""e1f5d8f8-37d7-4519-b655-d791572f2884"",""projectId"":""a9f3d40c-5730-405c-b25e-1034c4c56f3f""}","https://test12345.live/?num_scrambled_semantic=8&num_scrambled_causal=4&num_scrambled_schematic=4&participantId=42166007888848DC85F1A0DFDF5645C8&assignmentId=e1f5d8f8-37d7-4519-b655-d791572f2884&projectId=a9f3d40c-5730-405c-b25e-1034c4c56f3f","42166007888848DC85F1A0DFDF5645C8-2025-08-07-19-14-44","","null","","[]","null","",""
"","","","","","image-button-response","69","777358","0.0-12.0-1.0-0.4","42166007888848DC85F1A0DFDF5645C8","42166007888848DC85F1A0DFDF5645C8","e1f5d8f8-37d7-4519-b655-d791572f2884","a9f3d40c-5730-405c-b25e-1034c4c56f3f","{""num_scrambled_semantic"":""8"",""num_scrambled_causal"":""4"",""num_scrambled_schematic"":""4"",""participantId"":""42166007888848DC85F1A0DFDF5645C8"",""assignmentId"":""e1f5d8f8-37d7-4519-b655-d791572f2884"",""projectId"":""a9f3d40c-5730-405c-b25e-1034c4c56f3f""}","https://test12345.live/?num_scrambled_semantic=8&num_scrambled_causal=4&num_scrambled_schematic=4&participantId=42166007888848DC85F1A0DFDF5645C8&assignmentId=e1f5d8f8-37d7-4519-b655-d791572f2884&projectId=a9f3d40c-5730-405c-b25e-1034c4c56f3f","42166007888848DC85F1A0DFDF5645C8-2025-08-07-19-14-44","","null","","images/semantic_sequence/physical_activity_semantic/physical_activity_semantic_1.png","null","",""
"","","","","","image-button-response","70","778501","0.0-12.0-1.0-1.4","42166007888848DC85F1A0DFDF5645C8","42166007888848DC85F1A0DFDF5645C8","e1f5d8f8-37d7-4519-b655-d791572f2884","a9f3d40c-5730-405c-b25e-1034c4c56f3f","{""num_scrambled_semantic"":""8"",""num_scrambled_causal"":""4"",""num_scrambled_schematic"":""4"",""participantId"":""42166007888848DC85F1A0DFDF5645C8"",""assignmentId"":""e1f5d8f8-37d7-4519-b655-d791572f2884"",""projectId"":""a9f3d40c-5730-405c-b25e-1034c4c56f3f""}","https://test12345.live/?num_scrambled_semantic=8&num_scrambled_causal=4&num_scrambled_schematic=4&participantId=42166007888848DC85F1A0DFDF5645C8&assignmentId=e1f5d8f8-37d7-4519-b655-d791572f2884&projectId=a9f3d40c-5730-405c-b25e-1034c4c56f3f","42166007888848DC85F1A0DFDF5645C8-2025-08-07-19-14-44","","1140","","images/semantic_sequence/physical_activity_semantic/physical_activity_semantic_1.png","0","",""
"","","","","","image-button-response","71","780305","0.0-12.0-1.0-2.4","42166007888848DC85F1A0DFDF5645C8","42166007888848DC85F1A0DFDF5645C8","e1f5d8f8-37d7-4519-b655-d791572f2884","a9f3d40c-5730-405c-b25e-1034c4c56f3f","{""num_scrambled_semantic"":""8"",""num_scrambled_causal"":""4"",""num_scrambled_schematic"":""4"",""participantId"":""42166007888848DC85F1A0DFDF5645C8"",""assignmentId"":""e1f5d8f8-37d7-4519-b655-d791572f2884"",""projectId"":""a9f3d40c-5730-405c-b25e-1034c4c56f3f""}","https://test12345.live/?num_scrambled_semantic=8&num_scrambled_causal=4&num_scrambled_schematic=4&participantId=42166007888848DC85F1A0DFDF5645C8&assignmentId=e1f5d8f8-37d7-4519-b655-d791572f2884&projectId=a9f3d40c-5730-405c-b25e-1034c4c56f3f","42166007888848DC85F1A0DFDF5645C8-2025-08-07-19-14-44","","null","","[]","null","",""
"","","","","","image-button-response","72","784822","0.0-12.0-1.0-0.5","42166007888848DC85F1A0DFDF5645C8","42166007888848DC85F1A0DFDF5645C8","e1f5d8f8-37d7-4519-b655-d791572f2884","a9f3d40c-5730-405c-b25e-1034c4c56f3f","{""num_scrambled_semantic"":""8"",""num_scrambled_causal"":""4"",""num_scrambled_schematic"":""4"",""participantId"":""42166007888848DC85F1A0DFDF5645C8"",""assignmentId"":""e1f5d8f8-37d7-4519-b655-d791572f2884"",""projectId"":""a9f3d40c-5730-405c-b25e-1034c4c56f3f""}","https://test12345.live/?num_scrambled_semantic=8&num_scrambled_causal=4&num_scrambled_schematic=4&participantId=42166007888848DC85F1A0DFDF5645C8&assignmentId=e1f5d8f8-37d7-4519-b655-d791572f2884&projectId=a9f3d40c-5730-405c-b25e-1034c4c56f3f","42166007888848DC85F1A0DFDF5645C8-2025-08-07-19-14-44","","null","","images/semantic_sequence/physical_activity_semantic/physical_activity_semantic_8.png","null","",""
"","","","","","image-button-response","73","786203","0.0-12.0-1.0-1.5","42166007888848DC85F1A0DFDF5645C8","42166007888848DC85F1A0DFDF5645C8","e1f5d8f8-37d7-4519-b655-d791572f2884","a9f3d40c-5730-405c-b25e-1034c4c56f3f","{""num_scrambled_semantic"":""8"",""num_scrambled_causal"":""4"",""num_scrambled_schematic"":""4"",""participantId"":""42166007888848DC85F1A0DFDF5645C8"",""assignmentId"":""e1f5d8f8-37d7-4519-b655-d791572f2884"",""projectId"":""a9f3d40c-5730-405c-b25e-1034c4c56f3f""}","https://test12345.live/?num_scrambled_semantic=8&num_scrambled_causal=4&num_scrambled_schematic=4&participantId=42166007888848DC85F1A0DFDF5645C8&assignmentId=e1f5d8f8-37d7-4519-b655-d791572f2884&projectId=a9f3d40c-5730-405c-b25e-1034c4c56f3f","42166007888848DC85F1A0DFDF5645C8-2025-08-07-19-14-44","","1378","","images/semantic_sequence/physical_activity_semantic/physical_activity_semantic_8.png","0","",""
"","","","","","image-button-response","74","788021","0.0-12.0-1.0-2.5","42166007888848DC85F1A0DFDF5645C8","42166007888848DC85F1A0DFDF5645C8","e1f5d8f8-37d7-4519-b655-d791572f2884","a9f3d40c-5730-405c-b25e-1034c4c56f3f","{""num_scrambled_semantic"":""8"",""num_scrambled_causal"":""4"",""num_scrambled_schematic"":""4"",""participantId"":""42166007888848DC85F1A0DFDF5645C8"",""assignmentId"":""e1f5d8f8-37d7-4519-b655-d791572f2884"",""projectId"":""a9f3d40c-5730-405c-b25e-1034c4c56f3f""}","https://test12345.live/?num_scrambled_semantic=8&num_scrambled_causal=4&num_scrambled_schematic=4&participantId=42166007888848DC85F1A0DFDF5645C8&assignmentId=e1f5d8f8-37d7-4519-b655-d791572f2884&projectId=a9f3d40c-5730-405c-b25e-1034c4c56f3f","42166007888848DC85F1A0DFDF5645C8-2025-08-07-19-14-44","","null","","[]","null","",""
"","","","","","image-button-response","75","792533","0.0-12.0-1.0-0.6","42166007888848DC85F1A0DFDF5645C8","42166007888848DC85F1A0DFDF5645C8","e1f5d8f8-37d7-4519-b655-d791572f2884","a9f3d40c-5730-405c-b25e-1034c4c56f3f","{""num_scrambled_semantic"":""8"",""num_scrambled_causal"":""4"",""num_scrambled_schematic"":""4"",""participantId"":""42166007888848DC85F1A0DFDF5645C8"",""assignmentId"":""e1f5d8f8-37d7-4519-b655-d791572f2884"",""projectId"":""a9f3d40c-5730-405c-b25e-1034c4c56f3f""}","https://test12345.live/?num_scrambled_semantic=8&num_scrambled_causal=4&num_scrambled_schematic=4&participantId=42166007888848DC85F1A0DFDF5645C8&assignmentId=e1f5d8f8-37d7-4519-b655-d791572f2884&projectId=a9f3d40c-5730-405c-b25e-1034c4c56f3f","42166007888848DC85F1A0DFDF5645C8-2025-08-07-19-14-44","","null","","images/semantic_sequence/physical_activity_semantic/physical_activity_semantic_5.png","null","",""
"","","","","","image-button-response","76","793715","0.0-12.0-1.0-1.6","42166007888848DC85F1A0DFDF5645C8","42166007888848DC85F1A0DFDF5645C8","e1f5d8f8-37d7-4519-b655-d791572f2884","a9f3d40c-5730-405c-b25e-1034c4c56f3f","{""num_scrambled_semantic"":""8"",""num_scrambled_causal"":""4"",""num_scrambled_schematic"":""4"",""participantId"":""42166007888848DC85F1A0DFDF5645C8"",""assignmentId"":""e1f5d8f8-37d7-4519-b655-d791572f2884"",""projectId"":""a9f3d40c-5730-405c-b25e-1034c4c56f3f""}","https://test12345.live/?num_scrambled_semantic=8&num_scrambled_causal=4&num_scrambled_schematic=4&participantId=42166007888848DC85F1A0DFDF5645C8&assignmentId=e1f5d8f8-37d7-4519-b655-d791572f2884&projectId=a9f3d40c-5730-405c-b25e-1034c4c56f3f","42166007888848DC85F1A0DFDF5645C8-2025-08-07-19-14-44","","1178","","images/semantic_sequence/physical_activity_semantic/physical_activity_semantic_5.png","0","",""
"","","","","","image-button-response","77","795525","0.0-12.0-1.0-2.6","42166007888848DC85F1A0DFDF5645C8","42166007888848DC85F1A0DFDF5645C8","e1f5d8f8-37d7-4519-b655-d791572f2884","a9f3d40c-5730-405c-b25e-1034c4c56f3f","{""num_scrambled_semantic"":""8"",""num_scrambled_causal"":""4"",""num_scrambled_schematic"":""4"",""participantId"":""42166007888848DC85F1A0DFDF5645C8"",""assignmentId"":""e1f5d8f8-37d7-4519-b655-d791572f2884"",""projectId"":""a9f3d40c-5730-405c-b25e-1034c4c56f3f""}","https://test12345.live/?num_scrambled_semantic=8&num_scrambled_causal=4&num_scrambled_schematic=4&participantId=42166007888848DC85F1A0DFDF5645C8&assignmentId=e1f5d8f8-37d7-4519-b655-d791572f2884&projectId=a9f3d40c-5730-405c-b25e-1034c4c56f3f","42166007888848DC85F1A0DFDF5645C8-2025-08-07-19-14-44","","null","","[]","null","",""
"","","","","","image-button-response","78","800030","0.0-12.0-1.0-0.7","42166007888848DC85F1A0DFDF5645C8","42166007888848DC85F1A0DFDF5645C8","e1f5d8f8-37d7-4519-b655-d791572f2884","a9f3d40c-5730-405c-b25e-1034c4c56f3f","{""num_scrambled_semantic"":""8"",""num_scrambled_causal"":""4"",""num_scrambled_schematic"":""4"",""participantId"":""42166007888848DC85F1A0DFDF5645C8"",""assignmentId"":""e1f5d8f8-37d7-4519-b655-d791572f2884"",""projectId"":""a9f3d40c-5730-405c-b25e-1034c4c56f3f""}","https://test12345.live/?num_scrambled_semantic=8&num_scrambled_causal=4&num_scrambled_schematic=4&participantId=42166007888848DC85F1A0DFDF5645C8&assignmentId=e1f5d8f8-37d7-4519-b655-d791572f2884&projectId=a9f3d40c-5730-405c-b25e-1034c4c56f3f","42166007888848DC85F1A0DFDF5645C8-2025-08-07-19-14-44","","null","","images/semantic_sequence/physical_activity_semantic/physical_activity_semantic_ten.png","null","",""
"","","","","","image-button-response","79","801158","0.0-12.0-1.0-1.7","42166007888848DC85F1A0DFDF5645C8","42166007888848DC85F1A0DFDF5645C8","e1f5d8f8-37d7-4519-b655-d791572f2884","a9f3d40c-5730-405c-b25e-1034c4c56f3f","{""num_scrambled_semantic"":""8"",""num_scrambled_causal"":""4"",""num_scrambled_schematic"":""4"",""participantId"":""42166007888848DC85F1A0DFDF5645C8"",""assignmentId"":""e1f5d8f8-37d7-4519-b655-d791572f2884"",""projectId"":""a9f3d40c-5730-405c-b25e-1034c4c56f3f""}","https://test12345.live/?num_scrambled_semantic=8&num_scrambled_causal=4&num_scrambled_schematic=4&participantId=42166007888848DC85F1A0DFDF5645C8&assignmentId=e1f5d8f8-37d7-4519-b655-d791572f2884&projectId=a9f3d40c-5730-405c-b25e-1034c4c56f3f","42166007888848DC85F1A0DFDF5645C8-2025-08-07-19-14-44","","1126","","images/semantic_sequence/physical_activity_semantic/physical_activity_semantic_ten.png","0","",""
"","","","","","image-button-response","80","802965","0.0-12.0-1.0-2.7","42166007888848DC85F1A0DFDF5645C8","42166007888848DC85F1A0DFDF5645C8","e1f5d8f8-37d7-4519-b655-d791572f2884","a9f3d40c-5730-405c-b25e-1034c4c56f3f","{""num_scrambled_semantic"":""8"",""num_scrambled_causal"":""4"",""num_scrambled_schematic"":""4"",""participantId"":""42166007888848DC85F1A0DFDF5645C8"",""assignmentId"":""e1f5d8f8-37d7-4519-b655-d791572f2884"",""projectId"":""a9f3d40c-5730-405c-b25e-1034c4c56f3f""}","https://test12345.live/?num_scrambled_semantic=8&num_scrambled_causal=4&num_scrambled_schematic=4&participantId=42166007888848DC85F1A0DFDF5645C8&assignmentId=e1f5d8f8-37d7-4519-b655-d791572f2884&projectId=a9f3d40c-5730-405c-b25e-1034c4c56f3f","42166007888848DC85F1A0DFDF5645C8-2025-08-07-19-14-44","","null","","[]","null","",""
"","","","","","image-button-response","81","807477","0.0-12.0-1.0-0.8","42166007888848DC85F1A0DFDF5645C8","42166007888848DC85F1A0DFDF5645C8","e1f5d8f8-37d7-4519-b655-d791572f2884","a9f3d40c-5730-405c-b25e-1034c4c56f3f","{""num_scrambled_semantic"":""8"",""num_scrambled_causal"":""4"",""num_scrambled_schematic"":""4"",""participantId"":""42166007888848DC85F1A0DFDF5645C8"",""assignmentId"":""e1f5d8f8-37d7-4519-b655-d791572f2884"",""projectId"":""a9f3d40c-5730-405c-b25e-1034c4c56f3f""}","https://test12345.live/?num_scrambled_semantic=8&num_scrambled_causal=4&num_scrambled_schematic=4&participantId=42166007888848DC85F1A0DFDF5645C8&assignmentId=e1f5d8f8-37d7-4519-b655-d791572f2884&projectId=a9f3d40c-5730-405c-b25e-1034c4c56f3f","42166007888848DC85F1A0DFDF5645C8-2025-08-07-19-14-44","","null","","images/semantic_sequence/physical_activity_semantic/physical_activity_semantic_9.png","null","",""
"","","","","","image-button-response","82","808862","0.0-12.0-1.0-1.8","42166007888848DC85F1A0DFDF5645C8","42166007888848DC85F1A0DFDF5645C8","e1f5d8f8-37d7-4519-b655-d791572f2884","a9f3d40c-5730-405c-b25e-1034c4c56f3f","{""num_scrambled_semantic"":""8"",""num_scrambled_causal"":""4"",""num_scrambled_schematic"":""4"",""participantId"":""42166007888848DC85F1A0DFDF5645C8"",""assignmentId"":""e1f5d8f8-37d7-4519-b655-d791572f2884"",""projectId"":""a9f3d40c-5730-405c-b25e-1034c4c56f3f""}","https://test12345.live/?num_scrambled_semantic=8&num_scrambled_causal=4&num_scrambled_schematic=4&participantId=42166007888848DC85F1A0DFDF5645C8&assignmentId=e1f5d8f8-37d7-4519-b655-d791572f2884&projectId=a9f3d40c-5730-405c-b25e-1034c4c56f3f","42166007888848DC85F1A0DFDF5645C8-2025-08-07-19-14-44","","1383","","images/semantic_sequence/physical_activity_semantic/physical_activity_semantic_9.png","0","",""
"","","","","","image-button-response","83","810678","0.0-12.0-1.0-2.8","42166007888848DC85F1A0DFDF5645C8","42166007888848DC85F1A0DFDF5645C8","e1f5d8f8-37d7-4519-b655-d791572f2884","a9f3d40c-5730-405c-b25e-1034c4c56f3f","{""num_scrambled_semantic"":""8"",""num_scrambled_causal"":""4"",""num_scrambled_schematic"":""4"",""participantId"":""42166007888848DC85F1A0DFDF5645C8"",""assignmentId"":""e1f5d8f8-37d7-4519-b655-d791572f2884"",""projectId"":""a9f3d40c-5730-405c-b25e-1034c4c56f3f""}","https://test12345.live/?num_scrambled_semantic=8&num_scrambled_causal=4&num_scrambled_schematic=4&participantId=42166007888848DC85F1A0DFDF5645C8&assignmentId=e1f5d8f8-37d7-4519-b655-d791572f2884&projectId=a9f3d40c-5730-405c-b25e-1034c4c56f3f","42166007888848DC85F1A0DFDF5645C8-2025-08-07-19-14-44","","null","","[]","null","",""
"","","","","","image-button-response","84","815187","0.0-12.0-1.0-0.9","42166007888848DC85F1A0DFDF5645C8","42166007888848DC85F1A0DFDF5645C8","e1f5d8f8-37d7-4519-b655-d791572f2884","a9f3d40c-5730-405c-b25e-1034c4c56f3f","{""num_scrambled_semantic"":""8"",""num_scrambled_causal"":""4"",""num_scrambled_schematic"":""4"",""participantId"":""42166007888848DC85F1A0DFDF5645C8"",""assignmentId"":""e1f5d8f8-37d7-4519-b655-d791572f2884"",""projectId"":""a9f3d40c-5730-405c-b25e-1034c4c56f3f""}","https://test12345.live/?num_scrambled_semantic=8&num_scrambled_causal=4&num_scrambled_schematic=4&participantId=42166007888848DC85F1A0DFDF5645C8&assignmentId=e1f5d8f8-37d7-4519-b655-d791572f2884&projectId=a9f3d40c-5730-405c-b25e-1034c4c56f3f","42166007888848DC85F1A0DFDF5645C8-2025-08-07-19-14-44","","null","","images/semantic_sequence/physical_activity_semantic/physical_activity_semantic_6.png","null","",""
"","","","","","image-button-response","85","816548","0.0-12.0-1.0-1.9","42166007888848DC85F1A0DFDF5645C8","42166007888848DC85F1A0DFDF5645C8","e1f5d8f8-37d7-4519-b655-d791572f2884","a9f3d40c-5730-405c-b25e-1034c4c56f3f","{""num_scrambled_semantic"":""8"",""num_scrambled_causal"":""4"",""num_scrambled_schematic"":""4"",""participantId"":""42166007888848DC85F1A0DFDF5645C8"",""assignmentId"":""e1f5d8f8-37d7-4519-b655-d791572f2884"",""projectId"":""a9f3d40c-5730-405c-b25e-1034c4c56f3f""}","https://test12345.live/?num_scrambled_semantic=8&num_scrambled_causal=4&num_scrambled_schematic=4&participantId=42166007888848DC85F1A0DFDF5645C8&assignmentId=e1f5d8f8-37d7-4519-b655-d791572f2884&projectId=a9f3d40c-5730-405c-b25e-1034c4c56f3f","42166007888848DC85F1A0DFDF5645C8-2025-08-07-19-14-44","","1358","","images/semantic_sequence/physical_activity_semantic/physical_activity_semantic_6.png","0","",""
"","","","","","image-button-response","86","818357","0.0-12.0-1.0-2.9","42166007888848DC85F1A0DFDF5645C8","42166007888848DC85F1A0DFDF5645C8","e1f5d8f8-37d7-4519-b655-d791572f2884","a9f3d40c-5730-405c-b25e-1034c4c56f3f","{""num_scrambled_semantic"":""8"",""num_scrambled_causal"":""4"",""num_scrambled_schematic"":""4"",""participantId"":""42166007888848DC85F1A0DFDF5645C8"",""assignmentId"":""e1f5d8f8-37d7-4519-b655-d791572f2884"",""projectId"":""a9f3d40c-5730-405c-b25e-1034c4c56f3f""}","https://test12345.live/?num_scrambled_semantic=8&num_scrambled_causal=4&num_scrambled_schematic=4&participantId=42166007888848DC85F1A0DFDF5645C8&assignmentId=e1f5d8f8-37d7-4519-b655-d791572f2884&projectId=a9f3d40c-5730-405c-b25e-1034c4c56f3f","42166007888848DC85F1A0DFDF5645C8-2025-08-07-19-14-44","","null","","[]","null","",""
"","","","","","html-audio-response","87","857825","0.0-13.0","42166007888848DC85F1A0DFDF5645C8","42166007888848DC85F1A0DFDF5645C8","e1f5d8f8-37d7-4519-b655-d791572f2884","a9f3d40c-5730-405c-b25e-1034c4c56f3f","{""num_scrambled_semantic"":""8"",""num_scrambled_causal"":""4"",""num_scrambled_schematic"":""4"",""participantId"":""42166007888848DC85F1A0DFDF5645C8"",""assignmentId"":""e1f5d8f8-37d7-4519-b655-d791572f2884"",""projectId"":""a9f3d40c-5730-405c-b25e-1034c4c56f3f""}","https://test12345.live/?num_scrambled_semantic=8&num_scrambled_causal=4&num_scrambled_schematic=4&participantId=42166007888848DC85F1A0DFDF5645C8&assignmentId=e1f5d8f8-37d7-4519-b655-d791572f2884&projectId=a9f3d40c-5730-405c-b25e-1034c4c56f3f","42166007888848DC85F1A0DFDF5645C8-2025-08-07-19-14-44","","20968","","[""<span style=\""color: red; font-size: 24px\""> NOW RECORDING</span><p>Please say out loud all the images you saw, as many as you can remember. The images can be said in any order.</p>""]","","4","physical_activity_semantic"
"","","","","","image-button-response","88","863837","0.0-14.0-0.0","42166007888848DC85F1A0DFDF5645C8","42166007888848DC85F1A0DFDF5645C8","e1f5d8f8-37d7-4519-b655-d791572f2884","a9f3d40c-5730-405c-b25e-1034c4c56f3f","{""num_scrambled_semantic"":""8"",""num_scrambled_causal"":""4"",""num_scrambled_schematic"":""4"",""participantId"":""42166007888848DC85F1A0DFDF5645C8"",""assignmentId"":""e1f5d8f8-37d7-4519-b655-d791572f2884"",""projectId"":""a9f3d40c-5730-405c-b25e-1034c4c56f3f""}","https://test12345.live/?num_scrambled_semantic=8&num_scrambled_causal=4&num_scrambled_schematic=4&participantId=42166007888848DC85F1A0DFDF5645C8&assignmentId=e1f5d8f8-37d7-4519-b655-d791572f2884&projectId=a9f3d40c-5730-405c-b25e-1034c4c56f3f","42166007888848DC85F1A0DFDF5645C8-2025-08-07-19-14-44","","null","","images/causal_sequence/package_causal/package_causal_0.png","null","",""
"","","","","","image-button-response","89","868351","0.0-14.0-1.0-0.0","42166007888848DC85F1A0DFDF5645C8","42166007888848DC85F1A0DFDF5645C8","e1f5d8f8-37d7-4519-b655-d791572f2884","a9f3d40c-5730-405c-b25e-1034c4c56f3f","{""num_scrambled_semantic"":""8"",""num_scrambled_causal"":""4"",""num_scrambled_schematic"":""4"",""participantId"":""42166007888848DC85F1A0DFDF5645C8"",""assignmentId"":""e1f5d8f8-37d7-4519-b655-d791572f2884"",""projectId"":""a9f3d40c-5730-405c-b25e-1034c4c56f3f""}","https://test12345.live/?num_scrambled_semantic=8&num_scrambled_causal=4&num_scrambled_schematic=4&participantId=42166007888848DC85F1A0DFDF5645C8&assignmentId=e1f5d8f8-37d7-4519-b655-d791572f2884&projectId=a9f3d40c-5730-405c-b25e-1034c4c56f3f","42166007888848DC85F1A0DFDF5645C8-2025-08-07-19-14-44","","null","","images/causal_sequence/package_causal/package_causal_8.png","null","",""
"","","","","","image-button-response","90","870303","0.0-14.0-1.0-1.0","42166007888848DC85F1A0DFDF5645C8","42166007888848DC85F1A0DFDF5645C8","e1f5d8f8-37d7-4519-b655-d791572f2884","a9f3d40c-5730-405c-b25e-1034c4c56f3f","{""num_scrambled_semantic"":""8"",""num_scrambled_causal"":""4"",""num_scrambled_schematic"":""4"",""participantId"":""42166007888848DC85F1A0DFDF5645C8"",""assignmentId"":""e1f5d8f8-37d7-4519-b655-d791572f2884"",""projectId"":""a9f3d40c-5730-405c-b25e-1034c4c56f3f""}","https://test12345.live/?num_scrambled_semantic=8&num_scrambled_causal=4&num_scrambled_schematic=4&participantId=42166007888848DC85F1A0DFDF5645C8&assignmentId=e1f5d8f8-37d7-4519-b655-d791572f2884&projectId=a9f3d40c-5730-405c-b25e-1034c4c56f3f","42166007888848DC85F1A0DFDF5645C8-2025-08-07-19-14-44","","1948","","images/causal_sequence/package_causal/package_causal_8.png","0","",""
"","","","","","image-button-response","91","872119","0.0-14.0-1.0-2.0","42166007888848DC85F1A0DFDF5645C8","42166007888848DC85F1A0DFDF5645C8","e1f5d8f8-37d7-4519-b655-d791572f2884","a9f3d40c-5730-405c-b25e-1034c4c56f3f","{""num_scrambled_semantic"":""8"",""num_scrambled_causal"":""4"",""num_scrambled_schematic"":""4"",""participantId"":""42166007888848DC85F1A0DFDF5645C8"",""assignmentId"":""e1f5d8f8-37d7-4519-b655-d791572f2884"",""projectId"":""a9f3d40c-5730-405c-b25e-1034c4c56f3f""}","https://test12345.live/?num_scrambled_semantic=8&num_scrambled_causal=4&num_scrambled_schematic=4&participantId=42166007888848DC85F1A0DFDF5645C8&assignmentId=e1f5d8f8-37d7-4519-b655-d791572f2884&projectId=a9f3d40c-5730-405c-b25e-1034c4c56f3f","42166007888848DC85F1A0DFDF5645C8-2025-08-07-19-14-44","","null","","[]","null","",""
"","","","","","image-button-response","92","876627","0.0-14.0-1.0-0.1","42166007888848DC85F1A0DFDF5645C8","42166007888848DC85F1A0DFDF5645C8","e1f5d8f8-37d7-4519-b655-d791572f2884","a9f3d40c-5730-405c-b25e-1034c4c56f3f","{""num_scrambled_semantic"":""8"",""num_scrambled_causal"":""4"",""num_scrambled_schematic"":""4"",""participantId"":""42166007888848DC85F1A0DFDF5645C8"",""assignmentId"":""e1f5d8f8-37d7-4519-b655-d791572f2884"",""projectId"":""a9f3d40c-5730-405c-b25e-1034c4c56f3f""}","https://test12345.live/?num_scrambled_semantic=8&num_scrambled_causal=4&num_scrambled_schematic=4&participantId=42166007888848DC85F1A0DFDF5645C8&assignmentId=e1f5d8f8-37d7-4519-b655-d791572f2884&projectId=a9f3d40c-5730-405c-b25e-1034c4c56f3f","42166007888848DC85F1A0DFDF5645C8-2025-08-07-19-14-44","","null","","images/causal_sequence/package_causal/package_causal_9.png","null","",""
"","","","","","image-button-response","93","877828","0.0-14.0-1.0-1.1","42166007888848DC85F1A0DFDF5645C8","42166007888848DC85F1A0DFDF5645C8","e1f5d8f8-37d7-4519-b655-d791572f2884","a9f3d40c-5730-405c-b25e-1034c4c56f3f","{""num_scrambled_semantic"":""8"",""num_scrambled_causal"":""4"",""num_scrambled_schematic"":""4"",""participantId"":""42166007888848DC85F1A0DFDF5645C8"",""assignmentId"":""e1f5d8f8-37d7-4519-b655-d791572f2884"",""projectId"":""a9f3d40c-5730-405c-b25e-1034c4c56f3f""}","https://test12345.live/?num_scrambled_semantic=8&num_scrambled_causal=4&num_scrambled_schematic=4&participantId=42166007888848DC85F1A0DFDF5645C8&assignmentId=e1f5d8f8-37d7-4519-b655-d791572f2884&projectId=a9f3d40c-5730-405c-b25e-1034c4c56f3f","42166007888848DC85F1A0DFDF5645C8-2025-08-07-19-14-44","","1197","","images/causal_sequence/package_causal/package_causal_9.png","0","",""
"","","","","","image-button-response","94","879643","0.0-14.0-1.0-2.1","42166007888848DC85F1A0DFDF5645C8","42166007888848DC85F1A0DFDF5645C8","e1f5d8f8-37d7-4519-b655-d791572f2884","a9f3d40c-5730-405c-b25e-1034c4c56f3f","{""num_scrambled_semantic"":""8"",""num_scrambled_causal"":""4"",""num_scrambled_schematic"":""4"",""participantId"":""42166007888848DC85F1A0DFDF5645C8"",""assignmentId"":""e1f5d8f8-37d7-4519-b655-d791572f2884"",""projectId"":""a9f3d40c-5730-405c-b25e-1034c4c56f3f""}","https://test12345.live/?num_scrambled_semantic=8&num_scrambled_causal=4&num_scrambled_schematic=4&participantId=42166007888848DC85F1A0DFDF5645C8&assignmentId=e1f5d8f8-37d7-4519-b655-d791572f2884&projectId=a9f3d40c-5730-405c-b25e-1034c4c56f3f","42166007888848DC85F1A0DFDF5645C8-2025-08-07-19-14-44","","null","","[]","null","",""
"","","","","","image-button-response","95","884152","0.0-14.0-1.0-0.2","42166007888848DC85F1A0DFDF5645C8","42166007888848DC85F1A0DFDF5645C8","e1f5d8f8-37d7-4519-b655-d791572f2884","a9f3d40c-5730-405c-b25e-1034c4c56f3f","{""num_scrambled_semantic"":""8"",""num_scrambled_causal"":""4"",""num_scrambled_schematic"":""4"",""participantId"":""42166007888848DC85F1A0DFDF5645C8"",""assignmentId"":""e1f5d8f8-37d7-4519-b655-d791572f2884"",""projectId"":""a9f3d40c-5730-405c-b25e-1034c4c56f3f""}","https://test12345.live/?num_scrambled_semantic=8&num_scrambled_causal=4&num_scrambled_schematic=4&participantId=42166007888848DC85F1A0DFDF5645C8&assignmentId=e1f5d8f8-37d7-4519-b655-d791572f2884&projectId=a9f3d40c-5730-405c-b25e-1034c4c56f3f","42166007888848DC85F1A0DFDF5645C8-2025-08-07-19-14-44","","null","","images/causal_sequence/package_causal/package_causal_1.png","null","",""
"","","","","","image-button-response","96","886343","0.0-14.0-1.0-1.2","42166007888848DC85F1A0DFDF5645C8","42166007888848DC85F1A0DFDF5645C8","e1f5d8f8-37d7-4519-b655-d791572f2884","a9f3d40c-5730-405c-b25e-1034c4c56f3f","{""num_scrambled_semantic"":""8"",""num_scrambled_causal"":""4"",""num_scrambled_schematic"":""4"",""participantId"":""42166007888848DC85F1A0DFDF5645C8"",""assignmentId"":""e1f5d8f8-37d7-4519-b655-d791572f2884"",""projectId"":""a9f3d40c-5730-405c-b25e-1034c4c56f3f""}","https://test12345.live/?num_scrambled_semantic=8&num_scrambled_causal=4&num_scrambled_schematic=4&participantId=42166007888848DC85F1A0DFDF5645C8&assignmentId=e1f5d8f8-37d7-4519-b655-d791572f2884&projectId=a9f3d40c-5730-405c-b25e-1034c4c56f3f","42166007888848DC85F1A0DFDF5645C8-2025-08-07-19-14-44","","2188","","images/causal_sequence/package_causal/package_causal_1.png","0","",""
"","","","","","image-button-response","97","888156","0.0-14.0-1.0-2.2","42166007888848DC85F1A0DFDF5645C8","42166007888848DC85F1A0DFDF5645C8","e1f5d8f8-37d7-4519-b655-d791572f2884","a9f3d40c-5730-405c-b25e-1034c4c56f3f","{""num_scrambled_semantic"":""8"",""num_scrambled_causal"":""4"",""num_scrambled_schematic"":""4"",""participantId"":""42166007888848DC85F1A0DFDF5645C8"",""assignmentId"":""e1f5d8f8-37d7-4519-b655-d791572f2884"",""projectId"":""a9f3d40c-5730-405c-b25e-1034c4c56f3f""}","https://test12345.live/?num_scrambled_semantic=8&num_scrambled_causal=4&num_scrambled_schematic=4&participantId=42166007888848DC85F1A0DFDF5645C8&assignmentId=e1f5d8f8-37d7-4519-b655-d791572f2884&projectId=a9f3d40c-5730-405c-b25e-1034c4c56f3f","42166007888848DC85F1A0DFDF5645C8-2025-08-07-19-14-44","","null","","[]","null","",""
"","","","","","image-button-response","98","892673","0.0-14.0-1.0-0.3","42166007888848DC85F1A0DFDF5645C8","42166007888848DC85F1A0DFDF5645C8","e1f5d8f8-37d7-4519-b655-d791572f2884","a9f3d40c-5730-405c-b25e-1034c4c56f3f","{""num_scrambled_semantic"":""8"",""num_scrambled_causal"":""4"",""num_scrambled_schematic"":""4"",""participantId"":""42166007888848DC85F1A0DFDF5645C8"",""assignmentId"":""e1f5d8f8-37d7-4519-b655-d791572f2884"",""projectId"":""a9f3d40c-5730-405c-b25e-1034c4c56f3f""}","https://test12345.live/?num_scrambled_semantic=8&num_scrambled_causal=4&num_scrambled_schematic=4&participantId=42166007888848DC85F1A0DFDF5645C8&assignmentId=e1f5d8f8-37d7-4519-b655-d791572f2884&projectId=a9f3d40c-5730-405c-b25e-1034c4c56f3f","42166007888848DC85F1A0DFDF5645C8-2025-08-07-19-14-44","","null","","images/causal_sequence/package_causal/package_causal_5.png","null","",""
"","","","","","image-button-response","99","894157","0.0-14.0-1.0-1.3","42166007888848DC85F1A0DFDF5645C8","42166007888848DC85F1A0DFDF5645C8","e1f5d8f8-37d7-4519-b655-d791572f2884","a9f3d40c-5730-405c-b25e-1034c4c56f3f","{""num_scrambled_semantic"":""8"",""num_scrambled_causal"":""4"",""num_scrambled_schematic"":""4"",""participantId"":""42166007888848DC85F1A0DFDF5645C8"",""assignmentId"":""e1f5d8f8-37d7-4519-b655-d791572f2884"",""projectId"":""a9f3d40c-5730-405c-b25e-1034c4c56f3f""}","https://test12345.live/?num_scrambled_semantic=8&num_scrambled_causal=4&num_scrambled_schematic=4&participantId=42166007888848DC85F1A0DFDF5645C8&assignmentId=e1f5d8f8-37d7-4519-b655-d791572f2884&projectId=a9f3d40c-5730-405c-b25e-1034c4c56f3f","42166007888848DC85F1A0DFDF5645C8-2025-08-07-19-14-44","","1480","","images/causal_sequence/package_causal/package_causal_5.png","0","",""
"","","","","","image-button-response","100","895972","0.0-14.0-1.0-2.3","42166007888848DC85F1A0DFDF5645C8","42166007888848DC85F1A0DFDF5645C8","e1f5d8f8-37d7-4519-b655-d791572f2884","a9f3d40c-5730-405c-b25e-1034c4c56f3f","{""num_scrambled_semantic"":""8"",""num_scrambled_causal"":""4"",""num_scrambled_schematic"":""4"",""participantId"":""42166007888848DC85F1A0DFDF5645C8"",""assignmentId"":""e1f5d8f8-37d7-4519-b655-d791572f2884"",""projectId"":""a9f3d40c-5730-405c-b25e-1034c4c56f3f""}","https://test12345.live/?num_scrambled_semantic=8&num_scrambled_causal=4&num_scrambled_schematic=4&participantId=42166007888848DC85F1A0DFDF5645C8&assignmentId=e1f5d8f8-37d7-4519-b655-d791572f2884&projectId=a9f3d40c-5730-405c-b25e-1034c4c56f3f","42166007888848DC85F1A0DFDF5645C8-2025-08-07-19-14-44","","null","","[]","null","",""
"","","","","","image-button-response","101","900487","0.0-14.0-1.0-0.4","42166007888848DC85F1A0DFDF5645C8","42166007888848DC85F1A0DFDF5645C8","e1f5d8f8-37d7-4519-b655-d791572f2884","a9f3d40c-5730-405c-b25e-1034c4c56f3f","{""num_scrambled_semantic"":""8"",""num_scrambled_causal"":""4"",""num_scrambled_schematic"":""4"",""participantId"":""42166007888848DC85F1A0DFDF5645C8"",""assignmentId"":""e1f5d8f8-37d7-4519-b655-d791572f2884"",""projectId"":""a9f3d40c-5730-405c-b25e-1034c4c56f3f""}","https://test12345.live/?num_scrambled_semantic=8&num_scrambled_causal=4&num_scrambled_schematic=4&participantId=42166007888848DC85F1A0DFDF5645C8&assignmentId=e1f5d8f8-37d7-4519-b655-d791572f2884&projectId=a9f3d40c-5730-405c-b25e-1034c4c56f3f","42166007888848DC85F1A0DFDF5645C8-2025-08-07-19-14-44","","null","","images/causal_sequence/package_causal/package_causal_6.png","null","",""
"","","","","","image-button-response","102","901996","0.0-14.0-1.0-1.4","42166007888848DC85F1A0DFDF5645C8","42166007888848DC85F1A0DFDF5645C8","e1f5d8f8-37d7-4519-b655-d791572f2884","a9f3d40c-5730-405c-b25e-1034c4c56f3f","{""num_scrambled_semantic"":""8"",""num_scrambled_causal"":""4"",""num_scrambled_schematic"":""4"",""participantId"":""42166007888848DC85F1A0DFDF5645C8"",""assignmentId"":""e1f5d8f8-37d7-4519-b655-d791572f2884"",""projectId"":""a9f3d40c-5730-405c-b25e-1034c4c56f3f""}","https://test12345.live/?num_scrambled_semantic=8&num_scrambled_causal=4&num_scrambled_schematic=4&participantId=42166007888848DC85F1A0DFDF5645C8&assignmentId=e1f5d8f8-37d7-4519-b655-d791572f2884&projectId=a9f3d40c-5730-405c-b25e-1034c4c56f3f","42166007888848DC85F1A0DFDF5645C8-2025-08-07-19-14-44","","1506","","images/causal_sequence/package_causal/package_causal_6.png","0","",""
"","","","","","image-button-response","103","903800","0.0-14.0-1.0-2.4","42166007888848DC85F1A0DFDF5645C8","42166007888848DC85F1A0DFDF5645C8","e1f5d8f8-37d7-4519-b655-d791572f2884","a9f3d40c-5730-405c-b25e-1034c4c56f3f","{""num_scrambled_semantic"":""8"",""num_scrambled_causal"":""4"",""num_scrambled_schematic"":""4"",""participantId"":""42166007888848DC85F1A0DFDF5645C8"",""assignmentId"":""e1f5d8f8-37d7-4519-b655-d791572f2884"",""projectId"":""a9f3d40c-5730-405c-b25e-1034c4c56f3f""}","https://test12345.live/?num_scrambled_semantic=8&num_scrambled_causal=4&num_scrambled_schematic=4&participantId=42166007888848DC85F1A0DFDF5645C8&assignmentId=e1f5d8f8-37d7-4519-b655-d791572f2884&projectId=a9f3d40c-5730-405c-b25e-1034c4c56f3f","42166007888848DC85F1A0DFDF5645C8-2025-08-07-19-14-44","","null","","[]","null","",""
"","","","","","image-button-response","104","908315","0.0-14.0-1.0-0.5","42166007888848DC85F1A0DFDF5645C8","42166007888848DC85F1A0DFDF5645C8","e1f5d8f8-37d7-4519-b655-d791572f2884","a9f3d40c-5730-405c-b25e-1034c4c56f3f","{""num_scrambled_semantic"":""8"",""num_scrambled_causal"":""4"",""num_scrambled_schematic"":""4"",""participantId"":""42166007888848DC85F1A0DFDF5645C8"",""assignmentId"":""e1f5d8f8-37d7-4519-b655-d791572f2884"",""projectId"":""a9f3d40c-5730-405c-b25e-1034c4c56f3f""}","https://test12345.live/?num_scrambled_semantic=8&num_scrambled_causal=4&num_scrambled_schematic=4&participantId=42166007888848DC85F1A0DFDF5645C8&assignmentId=e1f5d8f8-37d7-4519-b655-d791572f2884&projectId=a9f3d40c-5730-405c-b25e-1034c4c56f3f","42166007888848DC85F1A0DFDF5645C8-2025-08-07-19-14-44","","null","","images/causal_sequence/package_causal/package_causal_4.png","null","",""
"","","","","","image-button-response","105","910006","0.0-14.0-1.0-1.5","42166007888848DC85F1A0DFDF5645C8","42166007888848DC85F1A0DFDF5645C8","e1f5d8f8-37d7-4519-b655-d791572f2884","a9f3d40c-5730-405c-b25e-1034c4c56f3f","{""num_scrambled_semantic"":""8"",""num_scrambled_causal"":""4"",""num_scrambled_schematic"":""4"",""participantId"":""42166007888848DC85F1A0DFDF5645C8"",""assignmentId"":""e1f5d8f8-37d7-4519-b655-d791572f2884"",""projectId"":""a9f3d40c-5730-405c-b25e-1034c4c56f3f""}","https://test12345.live/?num_scrambled_semantic=8&num_scrambled_causal=4&num_scrambled_schematic=4&participantId=42166007888848DC85F1A0DFDF5645C8&assignmentId=e1f5d8f8-37d7-4519-b655-d791572f2884&projectId=a9f3d40c-5730-405c-b25e-1034c4c56f3f","42166007888848DC85F1A0DFDF5645C8-2025-08-07-19-14-44","","1687","","images/causal_sequence/package_causal/package_causal_4.png","0","",""
"","","","","","image-button-response","106","911812","0.0-14.0-1.0-2.5","42166007888848DC85F1A0DFDF5645C8","42166007888848DC85F1A0DFDF5645C8","e1f5d8f8-37d7-4519-b655-d791572f2884","a9f3d40c-5730-405c-b25e-1034c4c56f3f","{""num_scrambled_semantic"":""8"",""num_scrambled_causal"":""4"",""num_scrambled_schematic"":""4"",""participantId"":""42166007888848DC85F1A0DFDF5645C8"",""assignmentId"":""e1f5d8f8-37d7-4519-b655-d791572f2884"",""projectId"":""a9f3d40c-5730-405c-b25e-1034c4c56f3f""}","https://test12345.live/?num_scrambled_semantic=8&num_scrambled_causal=4&num_scrambled_schematic=4&participantId=42166007888848DC85F1A0DFDF5645C8&assignmentId=e1f5d8f8-37d7-4519-b655-d791572f2884&projectId=a9f3d40c-5730-405c-b25e-1034c4c56f3f","42166007888848DC85F1A0DFDF5645C8-2025-08-07-19-14-44","","null","","[]","null","",""
"","","","","","image-button-response","107","916329","0.0-14.0-1.0-0.6","42166007888848DC85F1A0DFDF5645C8","42166007888848DC85F1A0DFDF5645C8","e1f5d8f8-37d7-4519-b655-d791572f2884","a9f3d40c-5730-405c-b25e-1034c4c56f3f","{""num_scrambled_semantic"":""8"",""num_scrambled_causal"":""4"",""num_scrambled_schematic"":""4"",""participantId"":""42166007888848DC85F1A0DFDF5645C8"",""assignmentId"":""e1f5d8f8-37d7-4519-b655-d791572f2884"",""projectId"":""a9f3d40c-5730-405c-b25e-1034c4c56f3f""}","https://test12345.live/?num_scrambled_semantic=8&num_scrambled_causal=4&num_scrambled_schematic=4&participantId=42166007888848DC85F1A0DFDF5645C8&assignmentId=e1f5d8f8-37d7-4519-b655-d791572f2884&projectId=a9f3d40c-5730-405c-b25e-1034c4c56f3f","42166007888848DC85F1A0DFDF5645C8-2025-08-07-19-14-44","","null","","images/causal_sequence/package_causal/package_causal_2.png","null","",""
"","","","","","image-button-response","108","918328","0.0-14.0-1.0-1.6","42166007888848DC85F1A0DFDF5645C8","42166007888848DC85F1A0DFDF5645C8","e1f5d8f8-37d7-4519-b655-d791572f2884","a9f3d40c-5730-405c-b25e-1034c4c56f3f","{""num_scrambled_semantic"":""8"",""num_scrambled_causal"":""4"",""num_scrambled_schematic"":""4"",""participantId"":""42166007888848DC85F1A0DFDF5645C8"",""assignmentId"":""e1f5d8f8-37d7-4519-b655-d791572f2884"",""projectId"":""a9f3d40c-5730-405c-b25e-1034c4c56f3f""}","https://test12345.live/?num_scrambled_semantic=8&num_scrambled_causal=4&num_scrambled_schematic=4&participantId=42166007888848DC85F1A0DFDF5645C8&assignmentId=e1f5d8f8-37d7-4519-b655-d791572f2884&projectId=a9f3d40c-5730-405c-b25e-1034c4c56f3f","42166007888848DC85F1A0DFDF5645C8-2025-08-07-19-14-44","","1996","","images/causal_sequence/package_causal/package_causal_2.png","0","",""
"","","","","","image-button-response","109","920141","0.0-14.0-1.0-2.6","42166007888848DC85F1A0DFDF5645C8","42166007888848DC85F1A0DFDF5645C8","e1f5d8f8-37d7-4519-b655-d791572f2884","a9f3d40c-5730-405c-b25e-1034c4c56f3f","{""num_scrambled_semantic"":""8"",""num_scrambled_causal"":""4"",""num_scrambled_schematic"":""4"",""participantId"":""42166007888848DC85F1A0DFDF5645C8"",""assignmentId"":""e1f5d8f8-37d7-4519-b655-d791572f2884"",""projectId"":""a9f3d40c-5730-405c-b25e-1034c4c56f3f""}","https://test12345.live/?num_scrambled_semantic=8&num_scrambled_causal=4&num_scrambled_schematic=4&participantId=42166007888848DC85F1A0DFDF5645C8&assignmentId=e1f5d8f8-37d7-4519-b655-d791572f2884&projectId=a9f3d40c-5730-405c-b25e-1034c4c56f3f","42166007888848DC85F1A0DFDF5645C8-2025-08-07-19-14-44","","null","","[]","null","",""
"","","","","","image-button-response","110","924651","0.0-14.0-1.0-0.7","42166007888848DC85F1A0DFDF5645C8","42166007888848DC85F1A0DFDF5645C8","e1f5d8f8-37d7-4519-b655-d791572f2884","a9f3d40c-5730-405c-b25e-1034c4c56f3f","{""num_scrambled_semantic"":""8"",""num_scrambled_causal"":""4"",""num_scrambled_schematic"":""4"",""participantId"":""42166007888848DC85F1A0DFDF5645C8"",""assignmentId"":""e1f5d8f8-37d7-4519-b655-d791572f2884"",""projectId"":""a9f3d40c-5730-405c-b25e-1034c4c56f3f""}","https://test12345.live/?num_scrambled_semantic=8&num_scrambled_causal=4&num_scrambled_schematic=4&participantId=42166007888848DC85F1A0DFDF5645C8&assignmentId=e1f5d8f8-37d7-4519-b655-d791572f2884&projectId=a9f3d40c-5730-405c-b25e-1034c4c56f3f","42166007888848DC85F1A0DFDF5645C8-2025-08-07-19-14-44","","null","","images/causal_sequence/package_causal/package_causal_ten.png","null","",""
"","","","","","image-button-response","111","925913","0.0-14.0-1.0-1.7","42166007888848DC85F1A0DFDF5645C8","42166007888848DC85F1A0DFDF5645C8","e1f5d8f8-37d7-4519-b655-d791572f2884","a9f3d40c-5730-405c-b25e-1034c4c56f3f","{""num_scrambled_semantic"":""8"",""num_scrambled_causal"":""4"",""num_scrambled_schematic"":""4"",""participantId"":""42166007888848DC85F1A0DFDF5645C8"",""assignmentId"":""e1f5d8f8-37d7-4519-b655-d791572f2884"",""projectId"":""a9f3d40c-5730-405c-b25e-1034c4c56f3f""}","https://test12345.live/?num_scrambled_semantic=8&num_scrambled_causal=4&num_scrambled_schematic=4&participantId=42166007888848DC85F1A0DFDF5645C8&assignmentId=e1f5d8f8-37d7-4519-b655-d791572f2884&projectId=a9f3d40c-5730-405c-b25e-1034c4c56f3f","42166007888848DC85F1A0DFDF5645C8-2025-08-07-19-14-44","","1259","","images/causal_sequence/package_causal/package_causal_ten.png","0","",""
"","","","","","image-button-response","112","927721","0.0-14.0-1.0-2.7","42166007888848DC85F1A0DFDF5645C8","42166007888848DC85F1A0DFDF5645C8","e1f5d8f8-37d7-4519-b655-d791572f2884","a9f3d40c-5730-405c-b25e-1034c4c56f3f","{""num_scrambled_semantic"":""8"",""num_scrambled_causal"":""4"",""num_scrambled_schematic"":""4"",""participantId"":""42166007888848DC85F1A0DFDF5645C8"",""assignmentId"":""e1f5d8f8-37d7-4519-b655-d791572f2884"",""projectId"":""a9f3d40c-5730-405c-b25e-1034c4c56f3f""}","https://test12345.live/?num_scrambled_semantic=8&num_scrambled_causal=4&num_scrambled_schematic=4&participantId=42166007888848DC85F1A0DFDF5645C8&assignmentId=e1f5d8f8-37d7-4519-b655-d791572f2884&projectId=a9f3d40c-5730-405c-b25e-1034c4c56f3f","42166007888848DC85F1A0DFDF5645C8-2025-08-07-19-14-44","","null","","[]","null","",""
"","","","","","image-button-response","113","932226","0.0-14.0-1.0-0.8","42166007888848DC85F1A0DFDF5645C8","42166007888848DC85F1A0DFDF5645C8","e1f5d8f8-37d7-4519-b655-d791572f2884","a9f3d40c-5730-405c-b25e-1034c4c56f3f","{""num_scrambled_semantic"":""8"",""num_scrambled_causal"":""4"",""num_scrambled_schematic"":""4"",""participantId"":""42166007888848DC85F1A0DFDF5645C8"",""assignmentId"":""e1f5d8f8-37d7-4519-b655-d791572f2884"",""projectId"":""a9f3d40c-5730-405c-b25e-1034c4c56f3f""}","https://test12345.live/?num_scrambled_semantic=8&num_scrambled_causal=4&num_scrambled_schematic=4&participantId=42166007888848DC85F1A0DFDF5645C8&assignmentId=e1f5d8f8-37d7-4519-b655-d791572f2884&projectId=a9f3d40c-5730-405c-b25e-1034c4c56f3f","42166007888848DC85F1A0DFDF5645C8-2025-08-07-19-14-44","","null","","images/causal_sequence/package_causal/package_causal_7.png","null","",""
"","","","","","image-button-response","114","933085","0.0-14.0-1.0-1.8","42166007888848DC85F1A0DFDF5645C8","42166007888848DC85F1A0DFDF5645C8","e1f5d8f8-37d7-4519-b655-d791572f2884","a9f3d40c-5730-405c-b25e-1034c4c56f3f","{""num_scrambled_semantic"":""8"",""num_scrambled_causal"":""4"",""num_scrambled_schematic"":""4"",""participantId"":""42166007888848DC85F1A0DFDF5645C8"",""assignmentId"":""e1f5d8f8-37d7-4519-b655-d791572f2884"",""projectId"":""a9f3d40c-5730-405c-b25e-1034c4c56f3f""}","https://test12345.live/?num_scrambled_semantic=8&num_scrambled_causal=4&num_scrambled_schematic=4&participantId=42166007888848DC85F1A0DFDF5645C8&assignmentId=e1f5d8f8-37d7-4519-b655-d791572f2884&projectId=a9f3d40c-5730-405c-b25e-1034c4c56f3f","42166007888848DC85F1A0DFDF5645C8-2025-08-07-19-14-44","","856","","images/causal_sequence/package_causal/package_causal_7.png","0","",""
