"success","timeout","failed_images","failed_audio","failed_video","trial_type","trial_index","time_elapsed","internal_node_id","subject","subject_id","study_id","session_id","urlvar","current_url","audio_id","view_history","rt","device_id","stimulus","response","estimated_stimulus_onset","seq_name"
"true","false","[]","[]","[]","preload","0","24559","0.0-0.0","4493B32CEC414BE782A972F67F9BD2D3","4493B32CEC414BE782A972F67F9BD2D3","fa3c4b53-88d4-42e9-bae8-42b8212f31bc","a0a8f18c-a66e-4ba7-a170-23efbdc67501","{""participantId"":""4493B32CEC414BE782A972F67F9BD2D3"",""assignmentId"":""fa3c4b53-88d4-42e9-bae8-42b8212f31bc"",""projectId"":""a0a8f18c-a66e-4ba7-a170-23efbdc67501""}","https://test12345.live/?participantId=4493B32CEC414BE782A972F67F9BD2D3&assignmentId=fa3c4b53-88d4-42e9-bae8-42b8212f31bc&projectId=a0a8f18c-a66e-4ba7-a170-23efbdc67501","4493B32CEC414BE782A972F67F9BD2D3-2024-11-24-18-42-08","","","","","","",""
"","","","","","instructions","1","99259","0.0-1.0","4493B32CEC414BE782A972F67F9BD2D3","4493B32CEC414BE782A972F67F9BD2D3","fa3c4b53-88d4-42e9-bae8-42b8212f31bc","a0a8f18c-a66e-4ba7-a170-23efbdc67501","{""participantId"":""4493B32CEC414BE782A972F67F9BD2D3"",""assignmentId"":""fa3c4b53-88d4-42e9-bae8-42b8212f31bc"",""projectId"":""a0a8f18c-a66e-4ba7-a170-23efbdc67501""}","https://test12345.live/?participantId=4493B32CEC414BE782A972F67F9BD2D3&assignmentId=fa3c4b53-88d4-42e9-bae8-42b8212f31bc&projectId=a0a8f18c-a66e-4ba7-a170-23efbdc67501","4493B32CEC414BE782A972F67F9BD2D3-2024-11-24-18-42-08","[{""page_index"":0,""viewing_time"":74694}]","74695","","","","",""
"","","","","","instructions","2","167281","0.0-2.0","4493B32CEC414BE782A972F67F9BD2D3","4493B32CEC414BE782A972F67F9BD2D3","fa3c4b53-88d4-42e9-bae8-42b8212f31bc","a0a8f18c-a66e-4ba7-a170-23efbdc67501","{""participantId"":""4493B32CEC414BE782A972F67F9BD2D3"",""assignmentId"":""fa3c4b53-88d4-42e9-bae8-42b8212f31bc"",""projectId"":""a0a8f18c-a66e-4ba7-a170-23efbdc67501""}","https://test12345.live/?participantId=4493B32CEC414BE782A972F67F9BD2D3&assignmentId=fa3c4b53-88d4-42e9-bae8-42b8212f31bc&projectId=a0a8f18c-a66e-4ba7-a170-23efbdc67501","4493B32CEC414BE782A972F67F9BD2D3-2024-11-24-18-42-08","[{""page_index"":0,""viewing_time"":68020}]","68021","","","","",""
"true","","","","","fullscreen","3","174551","0.0-3.0","4493B32CEC414BE782A972F67F9BD2D3","4493B32CEC414BE782A972F67F9BD2D3","fa3c4b53-88d4-42e9-bae8-42b8212f31bc","a0a8f18c-a66e-4ba7-a170-23efbdc67501","{""participantId"":""4493B32CEC414BE782A972F67F9BD2D3"",""assignmentId"":""fa3c4b53-88d4-42e9-bae8-42b8212f31bc"",""projectId"":""a0a8f18c-a66e-4ba7-a170-23efbdc67501""}","https://test12345.live/?participantId=4493B32CEC414BE782A972F67F9BD2D3&assignmentId=fa3c4b53-88d4-42e9-bae8-42b8212f31bc&projectId=a0a8f18c-a66e-4ba7-a170-23efbdc67501","4493B32CEC414BE782A972F67F9BD2D3-2024-11-24-18-42-08","","6254","","","","",""
"","","","","","initialize-microphone","4","275756","0.0-4.0-0.0","4493B32CEC414BE782A972F67F9BD2D3","4493B32CEC414BE782A972F67F9BD2D3","fa3c4b53-88d4-42e9-bae8-42b8212f31bc","a0a8f18c-a66e-4ba7-a170-23efbdc67501","{""participantId"":""4493B32CEC414BE782A972F67F9BD2D3"",""assignmentId"":""fa3c4b53-88d4-42e9-bae8-42b8212f31bc"",""projectId"":""a0a8f18c-a66e-4ba7-a170-23efbdc67501""}","https://test12345.live/?participantId=4493B32CEC414BE782A972F67F9BD2D3&assignmentId=fa3c4b53-88d4-42e9-bae8-42b8212f31bc&projectId=a0a8f18c-a66e-4ba7-a170-23efbdc67501","4493B32CEC414BE782A972F67F9BD2D3-2024-11-24-18-42-08","","","ca40c95af888fdf9475acf821dbb31eb8268355d4589dc830956c318e4d6202f","","","",""
"","","","","","html-audio-response","5","281995","0.0-4.0-1.0","4493B32CEC414BE782A972F67F9BD2D3","4493B32CEC414BE782A972F67F9BD2D3","fa3c4b53-88d4-42e9-bae8-42b8212f31bc","a0a8f18c-a66e-4ba7-a170-23efbdc67501","{""participantId"":""4493B32CEC414BE782A972F67F9BD2D3"",""assignmentId"":""fa3c4b53-88d4-42e9-bae8-42b8212f31bc"",""projectId"":""a0a8f18c-a66e-4ba7-a170-23efbdc67501""}","https://test12345.live/?participantId=4493B32CEC414BE782A972F67F9BD2D3&assignmentId=fa3c4b53-88d4-42e9-bae8-42b8212f31bc&projectId=a0a8f18c-a66e-4ba7-a170-23efbdc67501","4493B32CEC414BE782A972F67F9BD2D3-2024-11-24-18-42-08","","1724","","<span style=""color: red; font-size: 24px""> NOW RECORDING</span>
        <p>Please test Microphone</p>","","7",""
"","","","","","html-button-response","6","283587","0.0-4.0-2.0","4493B32CEC414BE782A972F67F9BD2D3","4493B32CEC414BE782A972F67F9BD2D3","fa3c4b53-88d4-42e9-bae8-42b8212f31bc","a0a8f18c-a66e-4ba7-a170-23efbdc67501","{""participantId"":""4493B32CEC414BE782A972F67F9BD2D3"",""assignmentId"":""fa3c4b53-88d4-42e9-bae8-42b8212f31bc"",""projectId"":""a0a8f18c-a66e-4ba7-a170-23efbdc67501""}","https://test12345.live/?participantId=4493B32CEC414BE782A972F67F9BD2D3&assignmentId=fa3c4b53-88d4-42e9-bae8-42b8212f31bc&projectId=a0a8f18c-a66e-4ba7-a170-23efbdc67501","4493B32CEC414BE782A972F67F9BD2D3-2024-11-24-18-42-08","","1590","","<p style=""font-size:48px; color:red;"">Is Microphone OK?</p>","1","",""
"","","","","","instructions","7","297145","0.0-5.0","4493B32CEC414BE782A972F67F9BD2D3","4493B32CEC414BE782A972F67F9BD2D3","fa3c4b53-88d4-42e9-bae8-42b8212f31bc","a0a8f18c-a66e-4ba7-a170-23efbdc67501","{""participantId"":""4493B32CEC414BE782A972F67F9BD2D3"",""assignmentId"":""fa3c4b53-88d4-42e9-bae8-42b8212f31bc"",""projectId"":""a0a8f18c-a66e-4ba7-a170-23efbdc67501""}","https://test12345.live/?participantId=4493B32CEC414BE782A972F67F9BD2D3&assignmentId=fa3c4b53-88d4-42e9-bae8-42b8212f31bc&projectId=a0a8f18c-a66e-4ba7-a170-23efbdc67501","4493B32CEC414BE782A972F67F9BD2D3-2024-11-24-18-42-08","[{""page_index"":0,""viewing_time"":4594},{""page_index"":1,""viewing_time"":8962}]","13557","","","","",""
"","","","","","image-button-response","8","303148","0.0-6.0-0.0","4493B32CEC414BE782A972F67F9BD2D3","4493B32CEC414BE782A972F67F9BD2D3","fa3c4b53-88d4-42e9-bae8-42b8212f31bc","a0a8f18c-a66e-4ba7-a170-23efbdc67501","{""participantId"":""4493B32CEC414BE782A972F67F9BD2D3"",""assignmentId"":""fa3c4b53-88d4-42e9-bae8-42b8212f31bc"",""projectId"":""a0a8f18c-a66e-4ba7-a170-23efbdc67501""}","https://test12345.live/?participantId=4493B32CEC414BE782A972F67F9BD2D3&assignmentId=fa3c4b53-88d4-42e9-bae8-42b8212f31bc&projectId=a0a8f18c-a66e-4ba7-a170-23efbdc67501","4493B32CEC414BE782A972F67F9BD2D3-2024-11-24-18-42-08","","null","","images/instructions/movie_0.png","null","",""
"","","","","","image-button-response","9","307655","0.0-6.0-1.0-0.0","4493B32CEC414BE782A972F67F9BD2D3","4493B32CEC414BE782A972F67F9BD2D3","fa3c4b53-88d4-42e9-bae8-42b8212f31bc","a0a8f18c-a66e-4ba7-a170-23efbdc67501","{""participantId"":""4493B32CEC414BE782A972F67F9BD2D3"",""assignmentId"":""fa3c4b53-88d4-42e9-bae8-42b8212f31bc"",""projectId"":""a0a8f18c-a66e-4ba7-a170-23efbdc67501""}","https://test12345.live/?participantId=4493B32CEC414BE782A972F67F9BD2D3&assignmentId=fa3c4b53-88d4-42e9-bae8-42b8212f31bc&projectId=a0a8f18c-a66e-4ba7-a170-23efbdc67501","4493B32CEC414BE782A972F67F9BD2D3-2024-11-24-18-42-08","","null","","images/instructions/movie_1.png","null","",""
"","","","","","image-button-response","10","310714","0.0-6.0-1.0-1.0","4493B32CEC414BE782A972F67F9BD2D3","4493B32CEC414BE782A972F67F9BD2D3","fa3c4b53-88d4-42e9-bae8-42b8212f31bc","a0a8f18c-a66e-4ba7-a170-23efbdc67501","{""participantId"":""4493B32CEC414BE782A972F67F9BD2D3"",""assignmentId"":""fa3c4b53-88d4-42e9-bae8-42b8212f31bc"",""projectId"":""a0a8f18c-a66e-4ba7-a170-23efbdc67501""}","https://test12345.live/?participantId=4493B32CEC414BE782A972F67F9BD2D3&assignmentId=fa3c4b53-88d4-42e9-bae8-42b8212f31bc&projectId=a0a8f18c-a66e-4ba7-a170-23efbdc67501","4493B32CEC414BE782A972F67F9BD2D3-2024-11-24-18-42-08","","3056","","images/instructions/movie_1.png","0","",""
"","","","","","image-button-response","11","312530","0.0-6.0-1.0-2.0","4493B32CEC414BE782A972F67F9BD2D3","4493B32CEC414BE782A972F67F9BD2D3","fa3c4b53-88d4-42e9-bae8-42b8212f31bc","a0a8f18c-a66e-4ba7-a170-23efbdc67501","{""participantId"":""4493B32CEC414BE782A972F67F9BD2D3"",""assignmentId"":""fa3c4b53-88d4-42e9-bae8-42b8212f31bc"",""projectId"":""a0a8f18c-a66e-4ba7-a170-23efbdc67501""}","https://test12345.live/?participantId=4493B32CEC414BE782A972F67F9BD2D3&assignmentId=fa3c4b53-88d4-42e9-bae8-42b8212f31bc&projectId=a0a8f18c-a66e-4ba7-a170-23efbdc67501","4493B32CEC414BE782A972F67F9BD2D3-2024-11-24-18-42-08","","null","","[]","null","",""
"","","","","","image-button-response","12","317049","0.0-6.0-1.0-0.1","4493B32CEC414BE782A972F67F9BD2D3","4493B32CEC414BE782A972F67F9BD2D3","fa3c4b53-88d4-42e9-bae8-42b8212f31bc","a0a8f18c-a66e-4ba7-a170-23efbdc67501","{""participantId"":""4493B32CEC414BE782A972F67F9BD2D3"",""assignmentId"":""fa3c4b53-88d4-42e9-bae8-42b8212f31bc"",""projectId"":""a0a8f18c-a66e-4ba7-a170-23efbdc67501""}","https://test12345.live/?participantId=4493B32CEC414BE782A972F67F9BD2D3&assignmentId=fa3c4b53-88d4-42e9-bae8-42b8212f31bc&projectId=a0a8f18c-a66e-4ba7-a170-23efbdc67501","4493B32CEC414BE782A972F67F9BD2D3-2024-11-24-18-42-08","","null","","images/instructions/movie_2.png","null","",""
"","","","","","image-button-response","13","318677","0.0-6.0-1.0-1.1","4493B32CEC414BE782A972F67F9BD2D3","4493B32CEC414BE782A972F67F9BD2D3","fa3c4b53-88d4-42e9-bae8-42b8212f31bc","a0a8f18c-a66e-4ba7-a170-23efbdc67501","{""participantId"":""4493B32CEC414BE782A972F67F9BD2D3"",""assignmentId"":""fa3c4b53-88d4-42e9-bae8-42b8212f31bc"",""projectId"":""a0a8f18c-a66e-4ba7-a170-23efbdc67501""}","https://test12345.live/?participantId=4493B32CEC414BE782A972F67F9BD2D3&assignmentId=fa3c4b53-88d4-42e9-bae8-42b8212f31bc&projectId=a0a8f18c-a66e-4ba7-a170-23efbdc67501","4493B32CEC414BE782A972F67F9BD2D3-2024-11-24-18-42-08","","1626","","images/instructions/movie_2.png","0","",""
"","","","","","image-button-response","14","320484","0.0-6.0-1.0-2.1","4493B32CEC414BE782A972F67F9BD2D3","4493B32CEC414BE782A972F67F9BD2D3","fa3c4b53-88d4-42e9-bae8-42b8212f31bc","a0a8f18c-a66e-4ba7-a170-23efbdc67501","{""participantId"":""4493B32CEC414BE782A972F67F9BD2D3"",""assignmentId"":""fa3c4b53-88d4-42e9-bae8-42b8212f31bc"",""projectId"":""a0a8f18c-a66e-4ba7-a170-23efbdc67501""}","https://test12345.live/?participantId=4493B32CEC414BE782A972F67F9BD2D3&assignmentId=fa3c4b53-88d4-42e9-bae8-42b8212f31bc&projectId=a0a8f18c-a66e-4ba7-a170-23efbdc67501","4493B32CEC414BE782A972F67F9BD2D3-2024-11-24-18-42-08","","null","","[]","null","",""
"","","","","","image-button-response","15","324988","0.0-6.0-1.0-0.2","4493B32CEC414BE782A972F67F9BD2D3","4493B32CEC414BE782A972F67F9BD2D3","fa3c4b53-88d4-42e9-bae8-42b8212f31bc","a0a8f18c-a66e-4ba7-a170-23efbdc67501","{""participantId"":""4493B32CEC414BE782A972F67F9BD2D3"",""assignmentId"":""fa3c4b53-88d4-42e9-bae8-42b8212f31bc"",""projectId"":""a0a8f18c-a66e-4ba7-a170-23efbdc67501""}","https://test12345.live/?participantId=4493B32CEC414BE782A972F67F9BD2D3&assignmentId=fa3c4b53-88d4-42e9-bae8-42b8212f31bc&projectId=a0a8f18c-a66e-4ba7-a170-23efbdc67501","4493B32CEC414BE782A972F67F9BD2D3-2024-11-24-18-42-08","","null","","images/instructions/movie_3.png","null","",""
"","","","","","image-button-response","16","326454","0.0-6.0-1.0-1.2","4493B32CEC414BE782A972F67F9BD2D3","4493B32CEC414BE782A972F67F9BD2D3","fa3c4b53-88d4-42e9-bae8-42b8212f31bc","a0a8f18c-a66e-4ba7-a170-23efbdc67501","{""participantId"":""4493B32CEC414BE782A972F67F9BD2D3"",""assignmentId"":""fa3c4b53-88d4-42e9-bae8-42b8212f31bc"",""projectId"":""a0a8f18c-a66e-4ba7-a170-23efbdc67501""}","https://test12345.live/?participantId=4493B32CEC414BE782A972F67F9BD2D3&assignmentId=fa3c4b53-88d4-42e9-bae8-42b8212f31bc&projectId=a0a8f18c-a66e-4ba7-a170-23efbdc67501","4493B32CEC414BE782A972F67F9BD2D3-2024-11-24-18-42-08","","1465","","images/instructions/movie_3.png","0","",""
"","","","","","image-button-response","17","328275","0.0-6.0-1.0-2.2","4493B32CEC414BE782A972F67F9BD2D3","4493B32CEC414BE782A972F67F9BD2D3","fa3c4b53-88d4-42e9-bae8-42b8212f31bc","a0a8f18c-a66e-4ba7-a170-23efbdc67501","{""participantId"":""4493B32CEC414BE782A972F67F9BD2D3"",""assignmentId"":""fa3c4b53-88d4-42e9-bae8-42b8212f31bc"",""projectId"":""a0a8f18c-a66e-4ba7-a170-23efbdc67501""}","https://test12345.live/?participantId=4493B32CEC414BE782A972F67F9BD2D3&assignmentId=fa3c4b53-88d4-42e9-bae8-42b8212f31bc&projectId=a0a8f18c-a66e-4ba7-a170-23efbdc67501","4493B32CEC414BE782A972F67F9BD2D3-2024-11-24-18-42-08","","null","","[]","null","",""
"","","","","","image-button-response","18","332794","0.0-6.0-1.0-0.3","4493B32CEC414BE782A972F67F9BD2D3","4493B32CEC414BE782A972F67F9BD2D3","fa3c4b53-88d4-42e9-bae8-42b8212f31bc","a0a8f18c-a66e-4ba7-a170-23efbdc67501","{""participantId"":""4493B32CEC414BE782A972F67F9BD2D3"",""assignmentId"":""fa3c4b53-88d4-42e9-bae8-42b8212f31bc"",""projectId"":""a0a8f18c-a66e-4ba7-a170-23efbdc67501""}","https://test12345.live/?participantId=4493B32CEC414BE782A972F67F9BD2D3&assignmentId=fa3c4b53-88d4-42e9-bae8-42b8212f31bc&projectId=a0a8f18c-a66e-4ba7-a170-23efbdc67501","4493B32CEC414BE782A972F67F9BD2D3-2024-11-24-18-42-08","","null","","images/instructions/movie_4.png","null","",""
"","","","","","image-button-response","19","336796","0.0-6.0-1.0-1.3","4493B32CEC414BE782A972F67F9BD2D3","4493B32CEC414BE782A972F67F9BD2D3","fa3c4b53-88d4-42e9-bae8-42b8212f31bc","a0a8f18c-a66e-4ba7-a170-23efbdc67501","{""participantId"":""4493B32CEC414BE782A972F67F9BD2D3"",""assignmentId"":""fa3c4b53-88d4-42e9-bae8-42b8212f31bc"",""projectId"":""a0a8f18c-a66e-4ba7-a170-23efbdc67501""}","https://test12345.live/?participantId=4493B32CEC414BE782A972F67F9BD2D3&assignmentId=fa3c4b53-88d4-42e9-bae8-42b8212f31bc&projectId=a0a8f18c-a66e-4ba7-a170-23efbdc67501","4493B32CEC414BE782A972F67F9BD2D3-2024-11-24-18-42-08","","null","","images/instructions/movie_4.png","null","",""
"","","","","","image-button-response","20","338597","0.0-6.0-1.0-2.3","4493B32CEC414BE782A972F67F9BD2D3","4493B32CEC414BE782A972F67F9BD2D3","fa3c4b53-88d4-42e9-bae8-42b8212f31bc","a0a8f18c-a66e-4ba7-a170-23efbdc67501","{""participantId"":""4493B32CEC414BE782A972F67F9BD2D3"",""assignmentId"":""fa3c4b53-88d4-42e9-bae8-42b8212f31bc"",""projectId"":""a0a8f18c-a66e-4ba7-a170-23efbdc67501""}","https://test12345.live/?participantId=4493B32CEC414BE782A972F67F9BD2D3&assignmentId=fa3c4b53-88d4-42e9-bae8-42b8212f31bc&projectId=a0a8f18c-a66e-4ba7-a170-23efbdc67501","4493B32CEC414BE782A972F67F9BD2D3-2024-11-24-18-42-08","","null","","[]","null","",""
"","","","","","instructions","21","413635","0.0-7.0","4493B32CEC414BE782A972F67F9BD2D3","4493B32CEC414BE782A972F67F9BD2D3","fa3c4b53-88d4-42e9-bae8-42b8212f31bc","a0a8f18c-a66e-4ba7-a170-23efbdc67501","{""participantId"":""4493B32CEC414BE782A972F67F9BD2D3"",""assignmentId"":""fa3c4b53-88d4-42e9-bae8-42b8212f31bc"",""projectId"":""a0a8f18c-a66e-4ba7-a170-23efbdc67501""}","https://test12345.live/?participantId=4493B32CEC414BE782A972F67F9BD2D3&assignmentId=fa3c4b53-88d4-42e9-bae8-42b8212f31bc&projectId=a0a8f18c-a66e-4ba7-a170-23efbdc67501","4493B32CEC414BE782A972F67F9BD2D3-2024-11-24-18-42-08","[{""page_index"":0,""viewing_time"":7663},{""page_index"":1,""viewing_time"":67374}]","75037","","","","",""
"","","","","","html-audio-response","22","431753","0.0-8.0","4493B32CEC414BE782A972F67F9BD2D3","4493B32CEC414BE782A972F67F9BD2D3","fa3c4b53-88d4-42e9-bae8-42b8212f31bc","a0a8f18c-a66e-4ba7-a170-23efbdc67501","{""participantId"":""4493B32CEC414BE782A972F67F9BD2D3"",""assignmentId"":""fa3c4b53-88d4-42e9-bae8-42b8212f31bc"",""projectId"":""a0a8f18c-a66e-4ba7-a170-23efbdc67501""}","https://test12345.live/?participantId=4493B32CEC414BE782A972F67F9BD2D3&assignmentId=fa3c4b53-88d4-42e9-bae8-42b8212f31bc&projectId=a0a8f18c-a66e-4ba7-a170-23efbdc67501","4493B32CEC414BE782A972F67F9BD2D3-2024-11-24-18-42-08","","3344","","[""<span style=\""color: red; font-size: 24px\""> NOW RECORDING</span><p>Please say out loud all the images you saw, as many as you can remember. The images can be said in any order.</p>""]","","2",""
"","","","","","instructions","23","479260","0.0-9.0","4493B32CEC414BE782A972F67F9BD2D3","4493B32CEC414BE782A972F67F9BD2D3","fa3c4b53-88d4-42e9-bae8-42b8212f31bc","a0a8f18c-a66e-4ba7-a170-23efbdc67501","{""participantId"":""4493B32CEC414BE782A972F67F9BD2D3"",""assignmentId"":""fa3c4b53-88d4-42e9-bae8-42b8212f31bc"",""projectId"":""a0a8f18c-a66e-4ba7-a170-23efbdc67501""}","https://test12345.live/?participantId=4493B32CEC414BE782A972F67F9BD2D3&assignmentId=fa3c4b53-88d4-42e9-bae8-42b8212f31bc&projectId=a0a8f18c-a66e-4ba7-a170-23efbdc67501","4493B32CEC414BE782A972F67F9BD2D3-2024-11-24-18-42-08","[{""page_index"":0,""viewing_time"":47504}]","47504","","","","",""
"","","","","","image-button-response","24","485264","0.0-10.0-0.0","4493B32CEC414BE782A972F67F9BD2D3","4493B32CEC414BE782A972F67F9BD2D3","fa3c4b53-88d4-42e9-bae8-42b8212f31bc","a0a8f18c-a66e-4ba7-a170-23efbdc67501","{""participantId"":""4493B32CEC414BE782A972F67F9BD2D3"",""assignmentId"":""fa3c4b53-88d4-42e9-bae8-42b8212f31bc"",""projectId"":""a0a8f18c-a66e-4ba7-a170-23efbdc67501""}","https://test12345.live/?participantId=4493B32CEC414BE782A972F67F9BD2D3&assignmentId=fa3c4b53-88d4-42e9-bae8-42b8212f31bc&projectId=a0a8f18c-a66e-4ba7-a170-23efbdc67501","4493B32CEC414BE782A972F67F9BD2D3-2024-11-24-18-42-08","","null","","images/causal_sequence/museum_causal/museum_causal_0.png","null","",""
"","","","","","image-button-response","25","489773","0.0-10.0-1.0-0.0","4493B32CEC414BE782A972F67F9BD2D3","4493B32CEC414BE782A972F67F9BD2D3","fa3c4b53-88d4-42e9-bae8-42b8212f31bc","a0a8f18c-a66e-4ba7-a170-23efbdc67501","{""participantId"":""4493B32CEC414BE782A972F67F9BD2D3"",""assignmentId"":""fa3c4b53-88d4-42e9-bae8-42b8212f31bc"",""projectId"":""a0a8f18c-a66e-4ba7-a170-23efbdc67501""}","https://test12345.live/?participantId=4493B32CEC414BE782A972F67F9BD2D3&assignmentId=fa3c4b53-88d4-42e9-bae8-42b8212f31bc&projectId=a0a8f18c-a66e-4ba7-a170-23efbdc67501","4493B32CEC414BE782A972F67F9BD2D3-2024-11-24-18-42-08","","null","","images/causal_sequence/museum_causal/museum_causal_6.png","null","",""
"","","","","","image-button-response","26","493784","0.0-10.0-1.0-1.0","4493B32CEC414BE782A972F67F9BD2D3","4493B32CEC414BE782A972F67F9BD2D3","fa3c4b53-88d4-42e9-bae8-42b8212f31bc","a0a8f18c-a66e-4ba7-a170-23efbdc67501","{""participantId"":""4493B32CEC414BE782A972F67F9BD2D3"",""assignmentId"":""fa3c4b53-88d4-42e9-bae8-42b8212f31bc"",""projectId"":""a0a8f18c-a66e-4ba7-a170-23efbdc67501""}","https://test12345.live/?participantId=4493B32CEC414BE782A972F67F9BD2D3&assignmentId=fa3c4b53-88d4-42e9-bae8-42b8212f31bc&projectId=a0a8f18c-a66e-4ba7-a170-23efbdc67501","4493B32CEC414BE782A972F67F9BD2D3-2024-11-24-18-42-08","","null","","images/causal_sequence/museum_causal/museum_causal_6.png","null","",""
"","","","","","image-button-response","27","495589","0.0-10.0-1.0-2.0","4493B32CEC414BE782A972F67F9BD2D3","4493B32CEC414BE782A972F67F9BD2D3","fa3c4b53-88d4-42e9-bae8-42b8212f31bc","a0a8f18c-a66e-4ba7-a170-23efbdc67501","{""participantId"":""4493B32CEC414BE782A972F67F9BD2D3"",""assignmentId"":""fa3c4b53-88d4-42e9-bae8-42b8212f31bc"",""projectId"":""a0a8f18c-a66e-4ba7-a170-23efbdc67501""}","https://test12345.live/?participantId=4493B32CEC414BE782A972F67F9BD2D3&assignmentId=fa3c4b53-88d4-42e9-bae8-42b8212f31bc&projectId=a0a8f18c-a66e-4ba7-a170-23efbdc67501","4493B32CEC414BE782A972F67F9BD2D3-2024-11-24-18-42-08","","null","","[]","null","",""
"","","","","","image-button-response","28","500094","0.0-10.0-1.0-0.1","4493B32CEC414BE782A972F67F9BD2D3","4493B32CEC414BE782A972F67F9BD2D3","fa3c4b53-88d4-42e9-bae8-42b8212f31bc","a0a8f18c-a66e-4ba7-a170-23efbdc67501","{""participantId"":""4493B32CEC414BE782A972F67F9BD2D3"",""assignmentId"":""fa3c4b53-88d4-42e9-bae8-42b8212f31bc"",""projectId"":""a0a8f18c-a66e-4ba7-a170-23efbdc67501""}","https://test12345.live/?participantId=4493B32CEC414BE782A972F67F9BD2D3&assignmentId=fa3c4b53-88d4-42e9-bae8-42b8212f31bc&projectId=a0a8f18c-a66e-4ba7-a170-23efbdc67501","4493B32CEC414BE782A972F67F9BD2D3-2024-11-24-18-42-08","","null","","images/causal_sequence/museum_causal/museum_causal_3.png","null","",""
"","","","","","image-button-response","29","501496","0.0-10.0-1.0-1.1","4493B32CEC414BE782A972F67F9BD2D3","4493B32CEC414BE782A972F67F9BD2D3","fa3c4b53-88d4-42e9-bae8-42b8212f31bc","a0a8f18c-a66e-4ba7-a170-23efbdc67501","{""participantId"":""4493B32CEC414BE782A972F67F9BD2D3"",""assignmentId"":""fa3c4b53-88d4-42e9-bae8-42b8212f31bc"",""projectId"":""a0a8f18c-a66e-4ba7-a170-23efbdc67501""}","https://test12345.live/?participantId=4493B32CEC414BE782A972F67F9BD2D3&assignmentId=fa3c4b53-88d4-42e9-bae8-42b8212f31bc&projectId=a0a8f18c-a66e-4ba7-a170-23efbdc67501","4493B32CEC414BE782A972F67F9BD2D3-2024-11-24-18-42-08","","1398","","images/causal_sequence/museum_causal/museum_causal_3.png","0","",""
"","","","","","image-button-response","30","503313","0.0-10.0-1.0-2.1","4493B32CEC414BE782A972F67F9BD2D3","4493B32CEC414BE782A972F67F9BD2D3","fa3c4b53-88d4-42e9-bae8-42b8212f31bc","a0a8f18c-a66e-4ba7-a170-23efbdc67501","{""participantId"":""4493B32CEC414BE782A972F67F9BD2D3"",""assignmentId"":""fa3c4b53-88d4-42e9-bae8-42b8212f31bc"",""projectId"":""a0a8f18c-a66e-4ba7-a170-23efbdc67501""}","https://test12345.live/?participantId=4493B32CEC414BE782A972F67F9BD2D3&assignmentId=fa3c4b53-88d4-42e9-bae8-42b8212f31bc&projectId=a0a8f18c-a66e-4ba7-a170-23efbdc67501","4493B32CEC414BE782A972F67F9BD2D3-2024-11-24-18-42-08","","null","","[]","null","",""
"","","","","","image-button-response","31","507829","0.0-10.0-1.0-0.2","4493B32CEC414BE782A972F67F9BD2D3","4493B32CEC414BE782A972F67F9BD2D3","fa3c4b53-88d4-42e9-bae8-42b8212f31bc","a0a8f18c-a66e-4ba7-a170-23efbdc67501","{""participantId"":""4493B32CEC414BE782A972F67F9BD2D3"",""assignmentId"":""fa3c4b53-88d4-42e9-bae8-42b8212f31bc"",""projectId"":""a0a8f18c-a66e-4ba7-a170-23efbdc67501""}","https://test12345.live/?participantId=4493B32CEC414BE782A972F67F9BD2D3&assignmentId=fa3c4b53-88d4-42e9-bae8-42b8212f31bc&projectId=a0a8f18c-a66e-4ba7-a170-23efbdc67501","4493B32CEC414BE782A972F67F9BD2D3-2024-11-24-18-42-08","","null","","images/causal_sequence/museum_causal/museum_causal_7.png","null","",""
"","","","","","image-button-response","32","509497","0.0-10.0-1.0-1.2","4493B32CEC414BE782A972F67F9BD2D3","4493B32CEC414BE782A972F67F9BD2D3","fa3c4b53-88d4-42e9-bae8-42b8212f31bc","a0a8f18c-a66e-4ba7-a170-23efbdc67501","{""participantId"":""4493B32CEC414BE782A972F67F9BD2D3"",""assignmentId"":""fa3c4b53-88d4-42e9-bae8-42b8212f31bc"",""projectId"":""a0a8f18c-a66e-4ba7-a170-23efbdc67501""}","https://test12345.live/?participantId=4493B32CEC414BE782A972F67F9BD2D3&assignmentId=fa3c4b53-88d4-42e9-bae8-42b8212f31bc&projectId=a0a8f18c-a66e-4ba7-a170-23efbdc67501","4493B32CEC414BE782A972F67F9BD2D3-2024-11-24-18-42-08","","1664","","images/causal_sequence/museum_causal/museum_causal_7.png","1","",""
"","","","","","image-button-response","33","511314","0.0-10.0-1.0-2.2","4493B32CEC414BE782A972F67F9BD2D3","4493B32CEC414BE782A972F67F9BD2D3","fa3c4b53-88d4-42e9-bae8-42b8212f31bc","a0a8f18c-a66e-4ba7-a170-23efbdc67501","{""participantId"":""4493B32CEC414BE782A972F67F9BD2D3"",""assignmentId"":""fa3c4b53-88d4-42e9-bae8-42b8212f31bc"",""projectId"":""a0a8f18c-a66e-4ba7-a170-23efbdc67501""}","https://test12345.live/?participantId=4493B32CEC414BE782A972F67F9BD2D3&assignmentId=fa3c4b53-88d4-42e9-bae8-42b8212f31bc&projectId=a0a8f18c-a66e-4ba7-a170-23efbdc67501","4493B32CEC414BE782A972F67F9BD2D3-2024-11-24-18-42-08","","null","","[]","null","",""
"","","","","","image-button-response","34","515818","0.0-10.0-1.0-0.3","4493B32CEC414BE782A972F67F9BD2D3","4493B32CEC414BE782A972F67F9BD2D3","fa3c4b53-88d4-42e9-bae8-42b8212f31bc","a0a8f18c-a66e-4ba7-a170-23efbdc67501","{""participantId"":""4493B32CEC414BE782A972F67F9BD2D3"",""assignmentId"":""fa3c4b53-88d4-42e9-bae8-42b8212f31bc"",""projectId"":""a0a8f18c-a66e-4ba7-a170-23efbdc67501""}","https://test12345.live/?participantId=4493B32CEC414BE782A972F67F9BD2D3&assignmentId=fa3c4b53-88d4-42e9-bae8-42b8212f31bc&projectId=a0a8f18c-a66e-4ba7-a170-23efbdc67501","4493B32CEC414BE782A972F67F9BD2D3-2024-11-24-18-42-08","","null","","images/causal_sequence/museum_causal/museum_causal_5.png","null","",""
"","","","","","image-button-response","35","516929","0.0-10.0-1.0-1.3","4493B32CEC414BE782A972F67F9BD2D3","4493B32CEC414BE782A972F67F9BD2D3","fa3c4b53-88d4-42e9-bae8-42b8212f31bc","a0a8f18c-a66e-4ba7-a170-23efbdc67501","{""participantId"":""4493B32CEC414BE782A972F67F9BD2D3"",""assignmentId"":""fa3c4b53-88d4-42e9-bae8-42b8212f31bc"",""projectId"":""a0a8f18c-a66e-4ba7-a170-23efbdc67501""}","https://test12345.live/?participantId=4493B32CEC414BE782A972F67F9BD2D3&assignmentId=fa3c4b53-88d4-42e9-bae8-42b8212f31bc&projectId=a0a8f18c-a66e-4ba7-a170-23efbdc67501","4493B32CEC414BE782A972F67F9BD2D3-2024-11-24-18-42-08","","1109","","images/causal_sequence/museum_causal/museum_causal_5.png","0","",""
"","","","","","image-button-response","36","518732","0.0-10.0-1.0-2.3","4493B32CEC414BE782A972F67F9BD2D3","4493B32CEC414BE782A972F67F9BD2D3","fa3c4b53-88d4-42e9-bae8-42b8212f31bc","a0a8f18c-a66e-4ba7-a170-23efbdc67501","{""participantId"":""4493B32CEC414BE782A972F67F9BD2D3"",""assignmentId"":""fa3c4b53-88d4-42e9-bae8-42b8212f31bc"",""projectId"":""a0a8f18c-a66e-4ba7-a170-23efbdc67501""}","https://test12345.live/?participantId=4493B32CEC414BE782A972F67F9BD2D3&assignmentId=fa3c4b53-88d4-42e9-bae8-42b8212f31bc&projectId=a0a8f18c-a66e-4ba7-a170-23efbdc67501","4493B32CEC414BE782A972F67F9BD2D3-2024-11-24-18-42-08","","null","","[]","null","",""
"","","","","","image-button-response","37","523246","0.0-10.0-1.0-0.4","4493B32CEC414BE782A972F67F9BD2D3","4493B32CEC414BE782A972F67F9BD2D3","fa3c4b53-88d4-42e9-bae8-42b8212f31bc","a0a8f18c-a66e-4ba7-a170-23efbdc67501","{""participantId"":""4493B32CEC414BE782A972F67F9BD2D3"",""assignmentId"":""fa3c4b53-88d4-42e9-bae8-42b8212f31bc"",""projectId"":""a0a8f18c-a66e-4ba7-a170-23efbdc67501""}","https://test12345.live/?participantId=4493B32CEC414BE782A972F67F9BD2D3&assignmentId=fa3c4b53-88d4-42e9-bae8-42b8212f31bc&projectId=a0a8f18c-a66e-4ba7-a170-23efbdc67501","4493B32CEC414BE782A972F67F9BD2D3-2024-11-24-18-42-08","","null","","images/causal_sequence/museum_causal/museum_causal_9.png","null","",""
"","","","","","image-button-response","38","524701","0.0-10.0-1.0-1.4","4493B32CEC414BE782A972F67F9BD2D3","4493B32CEC414BE782A972F67F9BD2D3","fa3c4b53-88d4-42e9-bae8-42b8212f31bc","a0a8f18c-a66e-4ba7-a170-23efbdc67501","{""participantId"":""4493B32CEC414BE782A972F67F9BD2D3"",""assignmentId"":""fa3c4b53-88d4-42e9-bae8-42b8212f31bc"",""projectId"":""a0a8f18c-a66e-4ba7-a170-23efbdc67501""}","https://test12345.live/?participantId=4493B32CEC414BE782A972F67F9BD2D3&assignmentId=fa3c4b53-88d4-42e9-bae8-42b8212f31bc&projectId=a0a8f18c-a66e-4ba7-a170-23efbdc67501","4493B32CEC414BE782A972F67F9BD2D3-2024-11-24-18-42-08","","1451","","images/causal_sequence/museum_causal/museum_causal_9.png","1","",""
"","","","","","image-button-response","39","526513","0.0-10.0-1.0-2.4","4493B32CEC414BE782A972F67F9BD2D3","4493B32CEC414BE782A972F67F9BD2D3","fa3c4b53-88d4-42e9-bae8-42b8212f31bc","a0a8f18c-a66e-4ba7-a170-23efbdc67501","{""participantId"":""4493B32CEC414BE782A972F67F9BD2D3"",""assignmentId"":""fa3c4b53-88d4-42e9-bae8-42b8212f31bc"",""projectId"":""a0a8f18c-a66e-4ba7-a170-23efbdc67501""}","https://test12345.live/?participantId=4493B32CEC414BE782A972F67F9BD2D3&assignmentId=fa3c4b53-88d4-42e9-bae8-42b8212f31bc&projectId=a0a8f18c-a66e-4ba7-a170-23efbdc67501","4493B32CEC414BE782A972F67F9BD2D3-2024-11-24-18-42-08","","null","","[]","null","",""
"","","","","","image-button-response","40","531021","0.0-10.0-1.0-0.5","4493B32CEC414BE782A972F67F9BD2D3","4493B32CEC414BE782A972F67F9BD2D3","fa3c4b53-88d4-42e9-bae8-42b8212f31bc","a0a8f18c-a66e-4ba7-a170-23efbdc67501","{""participantId"":""4493B32CEC414BE782A972F67F9BD2D3"",""assignmentId"":""fa3c4b53-88d4-42e9-bae8-42b8212f31bc"",""projectId"":""a0a8f18c-a66e-4ba7-a170-23efbdc67501""}","https://test12345.live/?participantId=4493B32CEC414BE782A972F67F9BD2D3&assignmentId=fa3c4b53-88d4-42e9-bae8-42b8212f31bc&projectId=a0a8f18c-a66e-4ba7-a170-23efbdc67501","4493B32CEC414BE782A972F67F9BD2D3-2024-11-24-18-42-08","","null","","images/causal_sequence/museum_causal/museum_causal_ten.png","null","",""
"","","","","","image-button-response","41","532324","0.0-10.0-1.0-1.5","4493B32CEC414BE782A972F67F9BD2D3","4493B32CEC414BE782A972F67F9BD2D3","fa3c4b53-88d4-42e9-bae8-42b8212f31bc","a0a8f18c-a66e-4ba7-a170-23efbdc67501","{""participantId"":""4493B32CEC414BE782A972F67F9BD2D3"",""assignmentId"":""fa3c4b53-88d4-42e9-bae8-42b8212f31bc"",""projectId"":""a0a8f18c-a66e-4ba7-a170-23efbdc67501""}","https://test12345.live/?participantId=4493B32CEC414BE782A972F67F9BD2D3&assignmentId=fa3c4b53-88d4-42e9-bae8-42b8212f31bc&projectId=a0a8f18c-a66e-4ba7-a170-23efbdc67501","4493B32CEC414BE782A972F67F9BD2D3-2024-11-24-18-42-08","","1299","","images/causal_sequence/museum_causal/museum_causal_ten.png","0","",""
"","","","","","image-button-response","42","534129","0.0-10.0-1.0-2.5","4493B32CEC414BE782A972F67F9BD2D3","4493B32CEC414BE782A972F67F9BD2D3","fa3c4b53-88d4-42e9-bae8-42b8212f31bc","a0a8f18c-a66e-4ba7-a170-23efbdc67501","{""participantId"":""4493B32CEC414BE782A972F67F9BD2D3"",""assignmentId"":""fa3c4b53-88d4-42e9-bae8-42b8212f31bc"",""projectId"":""a0a8f18c-a66e-4ba7-a170-23efbdc67501""}","https://test12345.live/?participantId=4493B32CEC414BE782A972F67F9BD2D3&assignmentId=fa3c4b53-88d4-42e9-bae8-42b8212f31bc&projectId=a0a8f18c-a66e-4ba7-a170-23efbdc67501","4493B32CEC414BE782A972F67F9BD2D3-2024-11-24-18-42-08","","null","","[]","null","",""
"","","","","","image-button-response","43","538633","0.0-10.0-1.0-0.6","4493B32CEC414BE782A972F67F9BD2D3","4493B32CEC414BE782A972F67F9BD2D3","fa3c4b53-88d4-42e9-bae8-42b8212f31bc","a0a8f18c-a66e-4ba7-a170-23efbdc67501","{""participantId"":""4493B32CEC414BE782A972F67F9BD2D3"",""assignmentId"":""fa3c4b53-88d4-42e9-bae8-42b8212f31bc"",""projectId"":""a0a8f18c-a66e-4ba7-a170-23efbdc67501""}","https://test12345.live/?participantId=4493B32CEC414BE782A972F67F9BD2D3&assignmentId=fa3c4b53-88d4-42e9-bae8-42b8212f31bc&projectId=a0a8f18c-a66e-4ba7-a170-23efbdc67501","4493B32CEC414BE782A972F67F9BD2D3-2024-11-24-18-42-08","","null","","images/causal_sequence/museum_causal/museum_causal_1.png","null","",""
"","","","","","image-button-response","44","540591","0.0-10.0-1.0-1.6","4493B32CEC414BE782A972F67F9BD2D3","4493B32CEC414BE782A972F67F9BD2D3","fa3c4b53-88d4-42e9-bae8-42b8212f31bc","a0a8f18c-a66e-4ba7-a170-23efbdc67501","{""participantId"":""4493B32CEC414BE782A972F67F9BD2D3"",""assignmentId"":""fa3c4b53-88d4-42e9-bae8-42b8212f31bc"",""projectId"":""a0a8f18c-a66e-4ba7-a170-23efbdc67501""}","https://test12345.live/?participantId=4493B32CEC414BE782A972F67F9BD2D3&assignmentId=fa3c4b53-88d4-42e9-bae8-42b8212f31bc&projectId=a0a8f18c-a66e-4ba7-a170-23efbdc67501","4493B32CEC414BE782A972F67F9BD2D3-2024-11-24-18-42-08","","1956","","images/causal_sequence/museum_causal/museum_causal_1.png","0","",""
"","","","","","image-button-response","45","542399","0.0-10.0-1.0-2.6","4493B32CEC414BE782A972F67F9BD2D3","4493B32CEC414BE782A972F67F9BD2D3","fa3c4b53-88d4-42e9-bae8-42b8212f31bc","a0a8f18c-a66e-4ba7-a170-23efbdc67501","{""participantId"":""4493B32CEC414BE782A972F67F9BD2D3"",""assignmentId"":""fa3c4b53-88d4-42e9-bae8-42b8212f31bc"",""projectId"":""a0a8f18c-a66e-4ba7-a170-23efbdc67501""}","https://test12345.live/?participantId=4493B32CEC414BE782A972F67F9BD2D3&assignmentId=fa3c4b53-88d4-42e9-bae8-42b8212f31bc&projectId=a0a8f18c-a66e-4ba7-a170-23efbdc67501","4493B32CEC414BE782A972F67F9BD2D3-2024-11-24-18-42-08","","null","","[]","null","",""
"","","","","","image-button-response","46","546905","0.0-10.0-1.0-0.7","4493B32CEC414BE782A972F67F9BD2D3","4493B32CEC414BE782A972F67F9BD2D3","fa3c4b53-88d4-42e9-bae8-42b8212f31bc","a0a8f18c-a66e-4ba7-a170-23efbdc67501","{""participantId"":""4493B32CEC414BE782A972F67F9BD2D3"",""assignmentId"":""fa3c4b53-88d4-42e9-bae8-42b8212f31bc"",""projectId"":""a0a8f18c-a66e-4ba7-a170-23efbdc67501""}","https://test12345.live/?participantId=4493B32CEC414BE782A972F67F9BD2D3&assignmentId=fa3c4b53-88d4-42e9-bae8-42b8212f31bc&projectId=a0a8f18c-a66e-4ba7-a170-23efbdc67501","4493B32CEC414BE782A972F67F9BD2D3-2024-11-24-18-42-08","","null","","images/causal_sequence/museum_causal/museum_causal_2.png","null","",""
"","","","","","image-button-response","47","548402","0.0-10.0-1.0-1.7","4493B32CEC414BE782A972F67F9BD2D3","4493B32CEC414BE782A972F67F9BD2D3","fa3c4b53-88d4-42e9-bae8-42b8212f31bc","a0a8f18c-a66e-4ba7-a170-23efbdc67501","{""participantId"":""4493B32CEC414BE782A972F67F9BD2D3"",""assignmentId"":""fa3c4b53-88d4-42e9-bae8-42b8212f31bc"",""projectId"":""a0a8f18c-a66e-4ba7-a170-23efbdc67501""}","https://test12345.live/?participantId=4493B32CEC414BE782A972F67F9BD2D3&assignmentId=fa3c4b53-88d4-42e9-bae8-42b8212f31bc&projectId=a0a8f18c-a66e-4ba7-a170-23efbdc67501","4493B32CEC414BE782A972F67F9BD2D3-2024-11-24-18-42-08","","1496","","images/causal_sequence/museum_causal/museum_causal_2.png","0","",""
"","","","","","image-button-response","48","550208","0.0-10.0-1.0-2.7","4493B32CEC414BE782A972F67F9BD2D3","4493B32CEC414BE782A972F67F9BD2D3","fa3c4b53-88d4-42e9-bae8-42b8212f31bc","a0a8f18c-a66e-4ba7-a170-23efbdc67501","{""participantId"":""4493B32CEC414BE782A972F67F9BD2D3"",""assignmentId"":""fa3c4b53-88d4-42e9-bae8-42b8212f31bc"",""projectId"":""a0a8f18c-a66e-4ba7-a170-23efbdc67501""}","https://test12345.live/?participantId=4493B32CEC414BE782A972F67F9BD2D3&assignmentId=fa3c4b53-88d4-42e9-bae8-42b8212f31bc&projectId=a0a8f18c-a66e-4ba7-a170-23efbdc67501","4493B32CEC414BE782A972F67F9BD2D3-2024-11-24-18-42-08","","null","","[]","null","",""
"","","","","","image-button-response","49","554709","0.0-10.0-1.0-0.8","4493B32CEC414BE782A972F67F9BD2D3","4493B32CEC414BE782A972F67F9BD2D3","fa3c4b53-88d4-42e9-bae8-42b8212f31bc","a0a8f18c-a66e-4ba7-a170-23efbdc67501","{""participantId"":""4493B32CEC414BE782A972F67F9BD2D3"",""assignmentId"":""fa3c4b53-88d4-42e9-bae8-42b8212f31bc"",""projectId"":""a0a8f18c-a66e-4ba7-a170-23efbdc67501""}","https://test12345.live/?participantId=4493B32CEC414BE782A972F67F9BD2D3&assignmentId=fa3c4b53-88d4-42e9-bae8-42b8212f31bc&projectId=a0a8f18c-a66e-4ba7-a170-23efbdc67501","4493B32CEC414BE782A972F67F9BD2D3-2024-11-24-18-42-08","","null","","images/causal_sequence/museum_causal/museum_causal_4.png","null","",""
"","","","","","image-button-response","50","555687","0.0-10.0-1.0-1.8","4493B32CEC414BE782A972F67F9BD2D3","4493B32CEC414BE782A972F67F9BD2D3","fa3c4b53-88d4-42e9-bae8-42b8212f31bc","a0a8f18c-a66e-4ba7-a170-23efbdc67501","{""participantId"":""4493B32CEC414BE782A972F67F9BD2D3"",""assignmentId"":""fa3c4b53-88d4-42e9-bae8-42b8212f31bc"",""projectId"":""a0a8f18c-a66e-4ba7-a170-23efbdc67501""}","https://test12345.live/?participantId=4493B32CEC414BE782A972F67F9BD2D3&assignmentId=fa3c4b53-88d4-42e9-bae8-42b8212f31bc&projectId=a0a8f18c-a66e-4ba7-a170-23efbdc67501","4493B32CEC414BE782A972F67F9BD2D3-2024-11-24-18-42-08","","975","","images/causal_sequence/museum_causal/museum_causal_4.png","1","",""
"","","","","","image-button-response","51","557493","0.0-10.0-1.0-2.8","4493B32CEC414BE782A972F67F9BD2D3","4493B32CEC414BE782A972F67F9BD2D3","fa3c4b53-88d4-42e9-bae8-42b8212f31bc","a0a8f18c-a66e-4ba7-a170-23efbdc67501","{""participantId"":""4493B32CEC414BE782A972F67F9BD2D3"",""assignmentId"":""fa3c4b53-88d4-42e9-bae8-42b8212f31bc"",""projectId"":""a0a8f18c-a66e-4ba7-a170-23efbdc67501""}","https://test12345.live/?participantId=4493B32CEC414BE782A972F67F9BD2D3&assignmentId=fa3c4b53-88d4-42e9-bae8-42b8212f31bc&projectId=a0a8f18c-a66e-4ba7-a170-23efbdc67501","4493B32CEC414BE782A972F67F9BD2D3-2024-11-24-18-42-08","","null","","[]","null","",""
"","","","","","image-button-response","52","561999","0.0-10.0-1.0-0.9","4493B32CEC414BE782A972F67F9BD2D3","4493B32CEC414BE782A972F67F9BD2D3","fa3c4b53-88d4-42e9-bae8-42b8212f31bc","a0a8f18c-a66e-4ba7-a170-23efbdc67501","{""participantId"":""4493B32CEC414BE782A972F67F9BD2D3"",""assignmentId"":""fa3c4b53-88d4-42e9-bae8-42b8212f31bc"",""projectId"":""a0a8f18c-a66e-4ba7-a170-23efbdc67501""}","https://test12345.live/?participantId=4493B32CEC414BE782A972F67F9BD2D3&assignmentId=fa3c4b53-88d4-42e9-bae8-42b8212f31bc&projectId=a0a8f18c-a66e-4ba7-a170-23efbdc67501","4493B32CEC414BE782A972F67F9BD2D3-2024-11-24-18-42-08","","null","","images/causal_sequence/museum_causal/museum_causal_8.png","null","",""
"","","","","","image-button-response","53","564981","0.0-10.0-1.0-1.9","4493B32CEC414BE782A972F67F9BD2D3","4493B32CEC414BE782A972F67F9BD2D3","fa3c4b53-88d4-42e9-bae8-42b8212f31bc","a0a8f18c-a66e-4ba7-a170-23efbdc67501","{""participantId"":""4493B32CEC414BE782A972F67F9BD2D3"",""assignmentId"":""fa3c4b53-88d4-42e9-bae8-42b8212f31bc"",""projectId"":""a0a8f18c-a66e-4ba7-a170-23efbdc67501""}","https://test12345.live/?participantId=4493B32CEC414BE782A972F67F9BD2D3&assignmentId=fa3c4b53-88d4-42e9-bae8-42b8212f31bc&projectId=a0a8f18c-a66e-4ba7-a170-23efbdc67501","4493B32CEC414BE782A972F67F9BD2D3-2024-11-24-18-42-08","","2979","","images/causal_sequence/museum_causal/museum_causal_8.png","0","",""
"","","","","","image-button-response","54","566784","0.0-10.0-1.0-2.9","4493B32CEC414BE782A972F67F9BD2D3","4493B32CEC414BE782A972F67F9BD2D3","fa3c4b53-88d4-42e9-bae8-42b8212f31bc","a0a8f18c-a66e-4ba7-a170-23efbdc67501","{""participantId"":""4493B32CEC414BE782A972F67F9BD2D3"",""assignmentId"":""fa3c4b53-88d4-42e9-bae8-42b8212f31bc"",""projectId"":""a0a8f18c-a66e-4ba7-a170-23efbdc67501""}","https://test12345.live/?participantId=4493B32CEC414BE782A972F67F9BD2D3&assignmentId=fa3c4b53-88d4-42e9-bae8-42b8212f31bc&projectId=a0a8f18c-a66e-4ba7-a170-23efbdc67501","4493B32CEC414BE782A972F67F9BD2D3-2024-11-24-18-42-08","","null","","[]","null","",""
"","","","","","html-audio-response","55","582502","0.0-11.0","4493B32CEC414BE782A972F67F9BD2D3","4493B32CEC414BE782A972F67F9BD2D3","fa3c4b53-88d4-42e9-bae8-42b8212f31bc","a0a8f18c-a66e-4ba7-a170-23efbdc67501","{""participantId"":""4493B32CEC414BE782A972F67F9BD2D3"",""assignmentId"":""fa3c4b53-88d4-42e9-bae8-42b8212f31bc"",""projectId"":""a0a8f18c-a66e-4ba7-a170-23efbdc67501""}","https://test12345.live/?participantId=4493B32CEC414BE782A972F67F9BD2D3&assignmentId=fa3c4b53-88d4-42e9-bae8-42b8212f31bc&projectId=a0a8f18c-a66e-4ba7-a170-23efbdc67501","4493B32CEC414BE782A972F67F9BD2D3-2024-11-24-18-42-08","","14991","","[""<span style=\""color: red; font-size: 24px\""> NOW RECORDING</span><p>Please say out loud all the images you saw, as many as you can remember. The images can be said in any order.</p>""]","","2","museum_causal"
"","","","","","image-button-response","56","588525","0.0-12.0-0.0","4493B32CEC414BE782A972F67F9BD2D3","4493B32CEC414BE782A972F67F9BD2D3","fa3c4b53-88d4-42e9-bae8-42b8212f31bc","a0a8f18c-a66e-4ba7-a170-23efbdc67501","{""participantId"":""4493B32CEC414BE782A972F67F9BD2D3"",""assignmentId"":""fa3c4b53-88d4-42e9-bae8-42b8212f31bc"",""projectId"":""a0a8f18c-a66e-4ba7-a170-23efbdc67501""}","https://test12345.live/?participantId=4493B32CEC414BE782A972F67F9BD2D3&assignmentId=fa3c4b53-88d4-42e9-bae8-42b8212f31bc&projectId=a0a8f18c-a66e-4ba7-a170-23efbdc67501","4493B32CEC414BE782A972F67F9BD2D3-2024-11-24-18-42-08","","null","","images/schematic_sequence/flight_scheme/flight_scheme_0.png","null","",""
"","","","","","image-button-response","57","593044","0.0-12.0-1.0-0.0","4493B32CEC414BE782A972F67F9BD2D3","4493B32CEC414BE782A972F67F9BD2D3","fa3c4b53-88d4-42e9-bae8-42b8212f31bc","a0a8f18c-a66e-4ba7-a170-23efbdc67501","{""participantId"":""4493B32CEC414BE782A972F67F9BD2D3"",""assignmentId"":""fa3c4b53-88d4-42e9-bae8-42b8212f31bc"",""projectId"":""a0a8f18c-a66e-4ba7-a170-23efbdc67501""}","https://test12345.live/?participantId=4493B32CEC414BE782A972F67F9BD2D3&assignmentId=fa3c4b53-88d4-42e9-bae8-42b8212f31bc&projectId=a0a8f18c-a66e-4ba7-a170-23efbdc67501","4493B32CEC414BE782A972F67F9BD2D3-2024-11-24-18-42-08","","null","","images/schematic_sequence/flight_scheme/flight_scheme_1.png","null","",""
"","","","","","image-button-response","58","595088","0.0-12.0-1.0-1.0","4493B32CEC414BE782A972F67F9BD2D3","4493B32CEC414BE782A972F67F9BD2D3","fa3c4b53-88d4-42e9-bae8-42b8212f31bc","a0a8f18c-a66e-4ba7-a170-23efbdc67501","{""participantId"":""4493B32CEC414BE782A972F67F9BD2D3"",""assignmentId"":""fa3c4b53-88d4-42e9-bae8-42b8212f31bc"",""projectId"":""a0a8f18c-a66e-4ba7-a170-23efbdc67501""}","https://test12345.live/?participantId=4493B32CEC414BE782A972F67F9BD2D3&assignmentId=fa3c4b53-88d4-42e9-bae8-42b8212f31bc&projectId=a0a8f18c-a66e-4ba7-a170-23efbdc67501","4493B32CEC414BE782A972F67F9BD2D3-2024-11-24-18-42-08","","2040","","images/schematic_sequence/flight_scheme/flight_scheme_1.png","0","",""
"","","","","","image-button-response","59","596903","0.0-12.0-1.0-2.0","4493B32CEC414BE782A972F67F9BD2D3","4493B32CEC414BE782A972F67F9BD2D3","fa3c4b53-88d4-42e9-bae8-42b8212f31bc","a0a8f18c-a66e-4ba7-a170-23efbdc67501","{""participantId"":""4493B32CEC414BE782A972F67F9BD2D3"",""assignmentId"":""fa3c4b53-88d4-42e9-bae8-42b8212f31bc"",""projectId"":""a0a8f18c-a66e-4ba7-a170-23efbdc67501""}","https://test12345.live/?participantId=4493B32CEC414BE782A972F67F9BD2D3&assignmentId=fa3c4b53-88d4-42e9-bae8-42b8212f31bc&projectId=a0a8f18c-a66e-4ba7-a170-23efbdc67501","4493B32CEC414BE782A972F67F9BD2D3-2024-11-24-18-42-08","","null","","[]","null","",""
"","","","","","image-button-response","60","601415","0.0-12.0-1.0-0.1","4493B32CEC414BE782A972F67F9BD2D3","4493B32CEC414BE782A972F67F9BD2D3","fa3c4b53-88d4-42e9-bae8-42b8212f31bc","a0a8f18c-a66e-4ba7-a170-23efbdc67501","{""participantId"":""4493B32CEC414BE782A972F67F9BD2D3"",""assignmentId"":""fa3c4b53-88d4-42e9-bae8-42b8212f31bc"",""projectId"":""a0a8f18c-a66e-4ba7-a170-23efbdc67501""}","https://test12345.live/?participantId=4493B32CEC414BE782A972F67F9BD2D3&assignmentId=fa3c4b53-88d4-42e9-bae8-42b8212f31bc&projectId=a0a8f18c-a66e-4ba7-a170-23efbdc67501","4493B32CEC414BE782A972F67F9BD2D3-2024-11-24-18-42-08","","null","","images/schematic_sequence/flight_scheme/flight_scheme_2.png","null","",""
"","","","","","image-button-response","61","604216","0.0-12.0-1.0-1.1","4493B32CEC414BE782A972F67F9BD2D3","4493B32CEC414BE782A972F67F9BD2D3","fa3c4b53-88d4-42e9-bae8-42b8212f31bc","a0a8f18c-a66e-4ba7-a170-23efbdc67501","{""participantId"":""4493B32CEC414BE782A972F67F9BD2D3"",""assignmentId"":""fa3c4b53-88d4-42e9-bae8-42b8212f31bc"",""projectId"":""a0a8f18c-a66e-4ba7-a170-23efbdc67501""}","https://test12345.live/?participantId=4493B32CEC414BE782A972F67F9BD2D3&assignmentId=fa3c4b53-88d4-42e9-bae8-42b8212f31bc&projectId=a0a8f18c-a66e-4ba7-a170-23efbdc67501","4493B32CEC414BE782A972F67F9BD2D3-2024-11-24-18-42-08","","2797","","images/schematic_sequence/flight_scheme/flight_scheme_2.png","1","",""
"","","","","","image-button-response","62","606023","0.0-12.0-1.0-2.1","4493B32CEC414BE782A972F67F9BD2D3","4493B32CEC414BE782A972F67F9BD2D3","fa3c4b53-88d4-42e9-bae8-42b8212f31bc","a0a8f18c-a66e-4ba7-a170-23efbdc67501","{""participantId"":""4493B32CEC414BE782A972F67F9BD2D3"",""assignmentId"":""fa3c4b53-88d4-42e9-bae8-42b8212f31bc"",""projectId"":""a0a8f18c-a66e-4ba7-a170-23efbdc67501""}","https://test12345.live/?participantId=4493B32CEC414BE782A972F67F9BD2D3&assignmentId=fa3c4b53-88d4-42e9-bae8-42b8212f31bc&projectId=a0a8f18c-a66e-4ba7-a170-23efbdc67501","4493B32CEC414BE782A972F67F9BD2D3-2024-11-24-18-42-08","","null","","[]","null","",""
"","","","","","image-button-response","63","610529","0.0-12.0-1.0-0.2","4493B32CEC414BE782A972F67F9BD2D3","4493B32CEC414BE782A972F67F9BD2D3","fa3c4b53-88d4-42e9-bae8-42b8212f31bc","a0a8f18c-a66e-4ba7-a170-23efbdc67501","{""participantId"":""4493B32CEC414BE782A972F67F9BD2D3"",""assignmentId"":""fa3c4b53-88d4-42e9-bae8-42b8212f31bc"",""projectId"":""a0a8f18c-a66e-4ba7-a170-23efbdc67501""}","https://test12345.live/?participantId=4493B32CEC414BE782A972F67F9BD2D3&assignmentId=fa3c4b53-88d4-42e9-bae8-42b8212f31bc&projectId=a0a8f18c-a66e-4ba7-a170-23efbdc67501","4493B32CEC414BE782A972F67F9BD2D3-2024-11-24-18-42-08","","null","","images/schematic_sequence/flight_scheme/flight_scheme_3.png","null","",""
"","","","","","image-button-response","64","614533","0.0-12.0-1.0-1.2","4493B32CEC414BE782A972F67F9BD2D3","4493B32CEC414BE782A972F67F9BD2D3","fa3c4b53-88d4-42e9-bae8-42b8212f31bc","a0a8f18c-a66e-4ba7-a170-23efbdc67501","{""participantId"":""4493B32CEC414BE782A972F67F9BD2D3"",""assignmentId"":""fa3c4b53-88d4-42e9-bae8-42b8212f31bc"",""projectId"":""a0a8f18c-a66e-4ba7-a170-23efbdc67501""}","https://test12345.live/?participantId=4493B32CEC414BE782A972F67F9BD2D3&assignmentId=fa3c4b53-88d4-42e9-bae8-42b8212f31bc&projectId=a0a8f18c-a66e-4ba7-a170-23efbdc67501","4493B32CEC414BE782A972F67F9BD2D3-2024-11-24-18-42-08","","null","","images/schematic_sequence/flight_scheme/flight_scheme_3.png","null","",""
"","","","","","image-button-response","65","616343","0.0-12.0-1.0-2.2","4493B32CEC414BE782A972F67F9BD2D3","4493B32CEC414BE782A972F67F9BD2D3","fa3c4b53-88d4-42e9-bae8-42b8212f31bc","a0a8f18c-a66e-4ba7-a170-23efbdc67501","{""participantId"":""4493B32CEC414BE782A972F67F9BD2D3"",""assignmentId"":""fa3c4b53-88d4-42e9-bae8-42b8212f31bc"",""projectId"":""a0a8f18c-a66e-4ba7-a170-23efbdc67501""}","https://test12345.live/?participantId=4493B32CEC414BE782A972F67F9BD2D3&assignmentId=fa3c4b53-88d4-42e9-bae8-42b8212f31bc&projectId=a0a8f18c-a66e-4ba7-a170-23efbdc67501","4493B32CEC414BE782A972F67F9BD2D3-2024-11-24-18-42-08","","null","","[]","null","",""
"","","","","","image-button-response","66","620854","0.0-12.0-1.0-0.3","4493B32CEC414BE782A972F67F9BD2D3","4493B32CEC414BE782A972F67F9BD2D3","fa3c4b53-88d4-42e9-bae8-42b8212f31bc","a0a8f18c-a66e-4ba7-a170-23efbdc67501","{""participantId"":""4493B32CEC414BE782A972F67F9BD2D3"",""assignmentId"":""fa3c4b53-88d4-42e9-bae8-42b8212f31bc"",""projectId"":""a0a8f18c-a66e-4ba7-a170-23efbdc67501""}","https://test12345.live/?participantId=4493B32CEC414BE782A972F67F9BD2D3&assignmentId=fa3c4b53-88d4-42e9-bae8-42b8212f31bc&projectId=a0a8f18c-a66e-4ba7-a170-23efbdc67501","4493B32CEC414BE782A972F67F9BD2D3-2024-11-24-18-42-08","","null","","images/schematic_sequence/flight_scheme/flight_scheme_4.png","null","",""
"","","","","","image-button-response","67","622832","0.0-12.0-1.0-1.3","4493B32CEC414BE782A972F67F9BD2D3","4493B32CEC414BE782A972F67F9BD2D3","fa3c4b53-88d4-42e9-bae8-42b8212f31bc","a0a8f18c-a66e-4ba7-a170-23efbdc67501","{""participantId"":""4493B32CEC414BE782A972F67F9BD2D3"",""assignmentId"":""fa3c4b53-88d4-42e9-bae8-42b8212f31bc"",""projectId"":""a0a8f18c-a66e-4ba7-a170-23efbdc67501""}","https://test12345.live/?participantId=4493B32CEC414BE782A972F67F9BD2D3&assignmentId=fa3c4b53-88d4-42e9-bae8-42b8212f31bc&projectId=a0a8f18c-a66e-4ba7-a170-23efbdc67501","4493B32CEC414BE782A972F67F9BD2D3-2024-11-24-18-42-08","","1977","","images/schematic_sequence/flight_scheme/flight_scheme_4.png","0","",""
"","","","","","image-button-response","68","624634","0.0-12.0-1.0-2.3","4493B32CEC414BE782A972F67F9BD2D3","4493B32CEC414BE782A972F67F9BD2D3","fa3c4b53-88d4-42e9-bae8-42b8212f31bc","a0a8f18c-a66e-4ba7-a170-23efbdc67501","{""participantId"":""4493B32CEC414BE782A972F67F9BD2D3"",""assignmentId"":""fa3c4b53-88d4-42e9-bae8-42b8212f31bc"",""projectId"":""a0a8f18c-a66e-4ba7-a170-23efbdc67501""}","https://test12345.live/?participantId=4493B32CEC414BE782A972F67F9BD2D3&assignmentId=fa3c4b53-88d4-42e9-bae8-42b8212f31bc&projectId=a0a8f18c-a66e-4ba7-a170-23efbdc67501","4493B32CEC414BE782A972F67F9BD2D3-2024-11-24-18-42-08","","null","","[]","null","",""
"","","","","","image-button-response","69","629149","0.0-12.0-1.0-0.4","4493B32CEC414BE782A972F67F9BD2D3","4493B32CEC414BE782A972F67F9BD2D3","fa3c4b53-88d4-42e9-bae8-42b8212f31bc","a0a8f18c-a66e-4ba7-a170-23efbdc67501","{""participantId"":""4493B32CEC414BE782A972F67F9BD2D3"",""assignmentId"":""fa3c4b53-88d4-42e9-bae8-42b8212f31bc"",""projectId"":""a0a8f18c-a66e-4ba7-a170-23efbdc67501""}","https://test12345.live/?participantId=4493B32CEC414BE782A972F67F9BD2D3&assignmentId=fa3c4b53-88d4-42e9-bae8-42b8212f31bc&projectId=a0a8f18c-a66e-4ba7-a170-23efbdc67501","4493B32CEC414BE782A972F67F9BD2D3-2024-11-24-18-42-08","","null","","images/schematic_sequence/flight_scheme/flight_scheme_5.png","null","",""
"","","","","","image-button-response","70","630586","0.0-12.0-1.0-1.4","4493B32CEC414BE782A972F67F9BD2D3","4493B32CEC414BE782A972F67F9BD2D3","fa3c4b53-88d4-42e9-bae8-42b8212f31bc","a0a8f18c-a66e-4ba7-a170-23efbdc67501","{""participantId"":""4493B32CEC414BE782A972F67F9BD2D3"",""assignmentId"":""fa3c4b53-88d4-42e9-bae8-42b8212f31bc"",""projectId"":""a0a8f18c-a66e-4ba7-a170-23efbdc67501""}","https://test12345.live/?participantId=4493B32CEC414BE782A972F67F9BD2D3&assignmentId=fa3c4b53-88d4-42e9-bae8-42b8212f31bc&projectId=a0a8f18c-a66e-4ba7-a170-23efbdc67501","4493B32CEC414BE782A972F67F9BD2D3-2024-11-24-18-42-08","","1434","","images/schematic_sequence/flight_scheme/flight_scheme_5.png","0","",""
"","","","","","image-button-response","71","632393","0.0-12.0-1.0-2.4","4493B32CEC414BE782A972F67F9BD2D3","4493B32CEC414BE782A972F67F9BD2D3","fa3c4b53-88d4-42e9-bae8-42b8212f31bc","a0a8f18c-a66e-4ba7-a170-23efbdc67501","{""participantId"":""4493B32CEC414BE782A972F67F9BD2D3"",""assignmentId"":""fa3c4b53-88d4-42e9-bae8-42b8212f31bc"",""projectId"":""a0a8f18c-a66e-4ba7-a170-23efbdc67501""}","https://test12345.live/?participantId=4493B32CEC414BE782A972F67F9BD2D3&assignmentId=fa3c4b53-88d4-42e9-bae8-42b8212f31bc&projectId=a0a8f18c-a66e-4ba7-a170-23efbdc67501","4493B32CEC414BE782A972F67F9BD2D3-2024-11-24-18-42-08","","null","","[]","null","",""
"","","","","","image-button-response","72","636912","0.0-12.0-1.0-0.5","4493B32CEC414BE782A972F67F9BD2D3","4493B32CEC414BE782A972F67F9BD2D3","fa3c4b53-88d4-42e9-bae8-42b8212f31bc","a0a8f18c-a66e-4ba7-a170-23efbdc67501","{""participantId"":""4493B32CEC414BE782A972F67F9BD2D3"",""assignmentId"":""fa3c4b53-88d4-42e9-bae8-42b8212f31bc"",""projectId"":""a0a8f18c-a66e-4ba7-a170-23efbdc67501""}","https://test12345.live/?participantId=4493B32CEC414BE782A972F67F9BD2D3&assignmentId=fa3c4b53-88d4-42e9-bae8-42b8212f31bc&projectId=a0a8f18c-a66e-4ba7-a170-23efbdc67501","4493B32CEC414BE782A972F67F9BD2D3-2024-11-24-18-42-08","","null","","images/schematic_sequence/flight_scheme/flight_scheme_6.png","null","",""
"","","","","","image-button-response","73","638762","0.0-12.0-1.0-1.5","4493B32CEC414BE782A972F67F9BD2D3","4493B32CEC414BE782A972F67F9BD2D3","fa3c4b53-88d4-42e9-bae8-42b8212f31bc","a0a8f18c-a66e-4ba7-a170-23efbdc67501","{""participantId"":""4493B32CEC414BE782A972F67F9BD2D3"",""assignmentId"":""fa3c4b53-88d4-42e9-bae8-42b8212f31bc"",""projectId"":""a0a8f18c-a66e-4ba7-a170-23efbdc67501""}","https://test12345.live/?participantId=4493B32CEC414BE782A972F67F9BD2D3&assignmentId=fa3c4b53-88d4-42e9-bae8-42b8212f31bc&projectId=a0a8f18c-a66e-4ba7-a170-23efbdc67501","4493B32CEC414BE782A972F67F9BD2D3-2024-11-24-18-42-08","","1847","","images/schematic_sequence/flight_scheme/flight_scheme_6.png","1","",""
"","","","","","image-button-response","74","640579","0.0-12.0-1.0-2.5","4493B32CEC414BE782A972F67F9BD2D3","4493B32CEC414BE782A972F67F9BD2D3","fa3c4b53-88d4-42e9-bae8-42b8212f31bc","a0a8f18c-a66e-4ba7-a170-23efbdc67501","{""participantId"":""4493B32CEC414BE782A972F67F9BD2D3"",""assignmentId"":""fa3c4b53-88d4-42e9-bae8-42b8212f31bc"",""projectId"":""a0a8f18c-a66e-4ba7-a170-23efbdc67501""}","https://test12345.live/?participantId=4493B32CEC414BE782A972F67F9BD2D3&assignmentId=fa3c4b53-88d4-42e9-bae8-42b8212f31bc&projectId=a0a8f18c-a66e-4ba7-a170-23efbdc67501","4493B32CEC414BE782A972F67F9BD2D3-2024-11-24-18-42-08","","null","","[]","null","",""
"","","","","","image-button-response","75","645094","0.0-12.0-1.0-0.6","4493B32CEC414BE782A972F67F9BD2D3","4493B32CEC414BE782A972F67F9BD2D3","fa3c4b53-88d4-42e9-bae8-42b8212f31bc","a0a8f18c-a66e-4ba7-a170-23efbdc67501","{""participantId"":""4493B32CEC414BE782A972F67F9BD2D3"",""assignmentId"":""fa3c4b53-88d4-42e9-bae8-42b8212f31bc"",""projectId"":""a0a8f18c-a66e-4ba7-a170-23efbdc67501""}","https://test12345.live/?participantId=4493B32CEC414BE782A972F67F9BD2D3&assignmentId=fa3c4b53-88d4-42e9-bae8-42b8212f31bc&projectId=a0a8f18c-a66e-4ba7-a170-23efbdc67501","4493B32CEC414BE782A972F67F9BD2D3-2024-11-24-18-42-08","","null","","images/schematic_sequence/flight_scheme/flight_scheme_7.png","null","",""
"","","","","","image-button-response","76","647319","0.0-12.0-1.0-1.6","4493B32CEC414BE782A972F67F9BD2D3","4493B32CEC414BE782A972F67F9BD2D3","fa3c4b53-88d4-42e9-bae8-42b8212f31bc","a0a8f18c-a66e-4ba7-a170-23efbdc67501","{""participantId"":""4493B32CEC414BE782A972F67F9BD2D3"",""assignmentId"":""fa3c4b53-88d4-42e9-bae8-42b8212f31bc"",""projectId"":""a0a8f18c-a66e-4ba7-a170-23efbdc67501""}","https://test12345.live/?participantId=4493B32CEC414BE782A972F67F9BD2D3&assignmentId=fa3c4b53-88d4-42e9-bae8-42b8212f31bc&projectId=a0a8f18c-a66e-4ba7-a170-23efbdc67501","4493B32CEC414BE782A972F67F9BD2D3-2024-11-24-18-42-08","","2222","","images/schematic_sequence/flight_scheme/flight_scheme_7.png","1","",""
"","","","","","image-button-response","77","649143","0.0-12.0-1.0-2.6","4493B32CEC414BE782A972F67F9BD2D3","4493B32CEC414BE782A972F67F9BD2D3","fa3c4b53-88d4-42e9-bae8-42b8212f31bc","a0a8f18c-a66e-4ba7-a170-23efbdc67501","{""participantId"":""4493B32CEC414BE782A972F67F9BD2D3"",""assignmentId"":""fa3c4b53-88d4-42e9-bae8-42b8212f31bc"",""projectId"":""a0a8f18c-a66e-4ba7-a170-23efbdc67501""}","https://test12345.live/?participantId=4493B32CEC414BE782A972F67F9BD2D3&assignmentId=fa3c4b53-88d4-42e9-bae8-42b8212f31bc&projectId=a0a8f18c-a66e-4ba7-a170-23efbdc67501","4493B32CEC414BE782A972F67F9BD2D3-2024-11-24-18-42-08","","null","","[]","null","",""
"","","","","","image-button-response","78","653665","0.0-12.0-1.0-0.7","4493B32CEC414BE782A972F67F9BD2D3","4493B32CEC414BE782A972F67F9BD2D3","fa3c4b53-88d4-42e9-bae8-42b8212f31bc","a0a8f18c-a66e-4ba7-a170-23efbdc67501","{""participantId"":""4493B32CEC414BE782A972F67F9BD2D3"",""assignmentId"":""fa3c4b53-88d4-42e9-bae8-42b8212f31bc"",""projectId"":""a0a8f18c-a66e-4ba7-a170-23efbdc67501""}","https://test12345.live/?participantId=4493B32CEC414BE782A972F67F9BD2D3&assignmentId=fa3c4b53-88d4-42e9-bae8-42b8212f31bc&projectId=a0a8f18c-a66e-4ba7-a170-23efbdc67501","4493B32CEC414BE782A972F67F9BD2D3-2024-11-24-18-42-08","","null","","images/schematic_sequence/flight_scheme/flight_scheme_8.png","null","",""
"","","","","","image-button-response","79","656093","0.0-12.0-1.0-1.7","4493B32CEC414BE782A972F67F9BD2D3","4493B32CEC414BE782A972F67F9BD2D3","fa3c4b53-88d4-42e9-bae8-42b8212f31bc","a0a8f18c-a66e-4ba7-a170-23efbdc67501","{""participantId"":""4493B32CEC414BE782A972F67F9BD2D3"",""assignmentId"":""fa3c4b53-88d4-42e9-bae8-42b8212f31bc"",""projectId"":""a0a8f18c-a66e-4ba7-a170-23efbdc67501""}","https://test12345.live/?participantId=4493B32CEC414BE782A972F67F9BD2D3&assignmentId=fa3c4b53-88d4-42e9-bae8-42b8212f31bc&projectId=a0a8f18c-a66e-4ba7-a170-23efbdc67501","4493B32CEC414BE782A972F67F9BD2D3-2024-11-24-18-42-08","","2425","","images/schematic_sequence/flight_scheme/flight_scheme_8.png","1","",""
"","","","","","image-button-response","80","657914","0.0-12.0-1.0-2.7","4493B32CEC414BE782A972F67F9BD2D3","4493B32CEC414BE782A972F67F9BD2D3","fa3c4b53-88d4-42e9-bae8-42b8212f31bc","a0a8f18c-a66e-4ba7-a170-23efbdc67501","{""participantId"":""4493B32CEC414BE782A972F67F9BD2D3"",""assignmentId"":""fa3c4b53-88d4-42e9-bae8-42b8212f31bc"",""projectId"":""a0a8f18c-a66e-4ba7-a170-23efbdc67501""}","https://test12345.live/?participantId=4493B32CEC414BE782A972F67F9BD2D3&assignmentId=fa3c4b53-88d4-42e9-bae8-42b8212f31bc&projectId=a0a8f18c-a66e-4ba7-a170-23efbdc67501","4493B32CEC414BE782A972F67F9BD2D3-2024-11-24-18-42-08","","null","","[]","null","",""
"","","","","","image-button-response","81","662434","0.0-12.0-1.0-0.8","4493B32CEC414BE782A972F67F9BD2D3","4493B32CEC414BE782A972F67F9BD2D3","fa3c4b53-88d4-42e9-bae8-42b8212f31bc","a0a8f18c-a66e-4ba7-a170-23efbdc67501","{""participantId"":""4493B32CEC414BE782A972F67F9BD2D3"",""assignmentId"":""fa3c4b53-88d4-42e9-bae8-42b8212f31bc"",""projectId"":""a0a8f18c-a66e-4ba7-a170-23efbdc67501""}","https://test12345.live/?participantId=4493B32CEC414BE782A972F67F9BD2D3&assignmentId=fa3c4b53-88d4-42e9-bae8-42b8212f31bc&projectId=a0a8f18c-a66e-4ba7-a170-23efbdc67501","4493B32CEC414BE782A972F67F9BD2D3-2024-11-24-18-42-08","","null","","images/schematic_sequence/flight_scheme/flight_scheme_9.png","null","",""
"","","","","","image-button-response","82","666436","0.0-12.0-1.0-1.8","4493B32CEC414BE782A972F67F9BD2D3","4493B32CEC414BE782A972F67F9BD2D3","fa3c4b53-88d4-42e9-bae8-42b8212f31bc","a0a8f18c-a66e-4ba7-a170-23efbdc67501","{""participantId"":""4493B32CEC414BE782A972F67F9BD2D3"",""assignmentId"":""fa3c4b53-88d4-42e9-bae8-42b8212f31bc"",""projectId"":""a0a8f18c-a66e-4ba7-a170-23efbdc67501""}","https://test12345.live/?participantId=4493B32CEC414BE782A972F67F9BD2D3&assignmentId=fa3c4b53-88d4-42e9-bae8-42b8212f31bc&projectId=a0a8f18c-a66e-4ba7-a170-23efbdc67501","4493B32CEC414BE782A972F67F9BD2D3-2024-11-24-18-42-08","","null","","images/schematic_sequence/flight_scheme/flight_scheme_9.png","null","",""
"","","","","","image-button-response","83","668239","0.0-12.0-1.0-2.8","4493B32CEC414BE782A972F67F9BD2D3","4493B32CEC414BE782A972F67F9BD2D3","fa3c4b53-88d4-42e9-bae8-42b8212f31bc","a0a8f18c-a66e-4ba7-a170-23efbdc67501","{""participantId"":""4493B32CEC414BE782A972F67F9BD2D3"",""assignmentId"":""fa3c4b53-88d4-42e9-bae8-42b8212f31bc"",""projectId"":""a0a8f18c-a66e-4ba7-a170-23efbdc67501""}","https://test12345.live/?participantId=4493B32CEC414BE782A972F67F9BD2D3&assignmentId=fa3c4b53-88d4-42e9-bae8-42b8212f31bc&projectId=a0a8f18c-a66e-4ba7-a170-23efbdc67501","4493B32CEC414BE782A972F67F9BD2D3-2024-11-24-18-42-08","","null","","[]","null","",""
"","","","","","image-button-response","84","672751","0.0-12.0-1.0-0.9","4493B32CEC414BE782A972F67F9BD2D3","4493B32CEC414BE782A972F67F9BD2D3","fa3c4b53-88d4-42e9-bae8-42b8212f31bc","a0a8f18c-a66e-4ba7-a170-23efbdc67501","{""participantId"":""4493B32CEC414BE782A972F67F9BD2D3"",""assignmentId"":""fa3c4b53-88d4-42e9-bae8-42b8212f31bc"",""projectId"":""a0a8f18c-a66e-4ba7-a170-23efbdc67501""}","https://test12345.live/?participantId=4493B32CEC414BE782A972F67F9BD2D3&assignmentId=fa3c4b53-88d4-42e9-bae8-42b8212f31bc&projectId=a0a8f18c-a66e-4ba7-a170-23efbdc67501","4493B32CEC414BE782A972F67F9BD2D3-2024-11-24-18-42-08","","null","","images/schematic_sequence/flight_scheme/flight_scheme_ten.png","null","",""
"","","","","","image-button-response","85","674636","0.0-12.0-1.0-1.9","4493B32CEC414BE782A972F67F9BD2D3","4493B32CEC414BE782A972F67F9BD2D3","fa3c4b53-88d4-42e9-bae8-42b8212f31bc","a0a8f18c-a66e-4ba7-a170-23efbdc67501","{""participantId"":""4493B32CEC414BE782A972F67F9BD2D3"",""assignmentId"":""fa3c4b53-88d4-42e9-bae8-42b8212f31bc"",""projectId"":""a0a8f18c-a66e-4ba7-a170-23efbdc67501""}","https://test12345.live/?participantId=4493B32CEC414BE782A972F67F9BD2D3&assignmentId=fa3c4b53-88d4-42e9-bae8-42b8212f31bc&projectId=a0a8f18c-a66e-4ba7-a170-23efbdc67501","4493B32CEC414BE782A972F67F9BD2D3-2024-11-24-18-42-08","","1881","","images/schematic_sequence/flight_scheme/flight_scheme_ten.png","0","",""
"","","","","","image-button-response","86","676438","0.0-12.0-1.0-2.9","4493B32CEC414BE782A972F67F9BD2D3","4493B32CEC414BE782A972F67F9BD2D3","fa3c4b53-88d4-42e9-bae8-42b8212f31bc","a0a8f18c-a66e-4ba7-a170-23efbdc67501","{""participantId"":""4493B32CEC414BE782A972F67F9BD2D3"",""assignmentId"":""fa3c4b53-88d4-42e9-bae8-42b8212f31bc"",""projectId"":""a0a8f18c-a66e-4ba7-a170-23efbdc67501""}","https://test12345.live/?participantId=4493B32CEC414BE782A972F67F9BD2D3&assignmentId=fa3c4b53-88d4-42e9-bae8-42b8212f31bc&projectId=a0a8f18c-a66e-4ba7-a170-23efbdc67501","4493B32CEC414BE782A972F67F9BD2D3-2024-11-24-18-42-08","","null","","[]","null","",""
"","","","","","html-audio-response","87","690805","0.0-13.0","4493B32CEC414BE782A972F67F9BD2D3","4493B32CEC414BE782A972F67F9BD2D3","fa3c4b53-88d4-42e9-bae8-42b8212f31bc","a0a8f18c-a66e-4ba7-a170-23efbdc67501","{""participantId"":""4493B32CEC414BE782A972F67F9BD2D3"",""assignmentId"":""fa3c4b53-88d4-42e9-bae8-42b8212f31bc"",""projectId"":""a0a8f18c-a66e-4ba7-a170-23efbdc67501""}","https://test12345.live/?participantId=4493B32CEC414BE782A972F67F9BD2D3&assignmentId=fa3c4b53-88d4-42e9-bae8-42b8212f31bc&projectId=a0a8f18c-a66e-4ba7-a170-23efbdc67501","4493B32CEC414BE782A972F67F9BD2D3-2024-11-24-18-42-08","","13120","","[""<span style=\""color: red; font-size: 24px\""> NOW RECORDING</span><p>Please say out loud all the images you saw, as many as you can remember. The images can be said in any order.</p>""]","","12","flight_scheme"
"","","","","","image-button-response","88","696812","0.0-14.0-0.0","4493B32CEC414BE782A972F67F9BD2D3","4493B32CEC414BE782A972F67F9BD2D3","fa3c4b53-88d4-42e9-bae8-42b8212f31bc","a0a8f18c-a66e-4ba7-a170-23efbdc67501","{""participantId"":""4493B32CEC414BE782A972F67F9BD2D3"",""assignmentId"":""fa3c4b53-88d4-42e9-bae8-42b8212f31bc"",""projectId"":""a0a8f18c-a66e-4ba7-a170-23efbdc67501""}","https://test12345.live/?participantId=4493B32CEC414BE782A972F67F9BD2D3&assignmentId=fa3c4b53-88d4-42e9-bae8-42b8212f31bc&projectId=a0a8f18c-a66e-4ba7-a170-23efbdc67501","4493B32CEC414BE782A972F67F9BD2D3-2024-11-24-18-42-08","","null","","images/schematic_sequence/restaurant_scheme/restaurant_scheme_0.png","null","",""
"","","","","","image-button-response","89","701323","0.0-14.0-1.0-0.0","4493B32CEC414BE782A972F67F9BD2D3","4493B32CEC414BE782A972F67F9BD2D3","fa3c4b53-88d4-42e9-bae8-42b8212f31bc","a0a8f18c-a66e-4ba7-a170-23efbdc67501","{""participantId"":""4493B32CEC414BE782A972F67F9BD2D3"",""assignmentId"":""fa3c4b53-88d4-42e9-bae8-42b8212f31bc"",""projectId"":""a0a8f18c-a66e-4ba7-a170-23efbdc67501""}","https://test12345.live/?participantId=4493B32CEC414BE782A972F67F9BD2D3&assignmentId=fa3c4b53-88d4-42e9-bae8-42b8212f31bc&projectId=a0a8f18c-a66e-4ba7-a170-23efbdc67501","4493B32CEC414BE782A972F67F9BD2D3-2024-11-24-18-42-08","","null","","images/schematic_sequence/restaurant_scheme/restaurant_scheme_4.png","null","",""
"","","","","","image-button-response","90","703120","0.0-14.0-1.0-1.0","4493B32CEC414BE782A972F67F9BD2D3","4493B32CEC414BE782A972F67F9BD2D3","fa3c4b53-88d4-42e9-bae8-42b8212f31bc","a0a8f18c-a66e-4ba7-a170-23efbdc67501","{""participantId"":""4493B32CEC414BE782A972F67F9BD2D3"",""assignmentId"":""fa3c4b53-88d4-42e9-bae8-42b8212f31bc"",""projectId"":""a0a8f18c-a66e-4ba7-a170-23efbdc67501""}","https://test12345.live/?participantId=4493B32CEC414BE782A972F67F9BD2D3&assignmentId=fa3c4b53-88d4-42e9-bae8-42b8212f31bc&projectId=a0a8f18c-a66e-4ba7-a170-23efbdc67501","4493B32CEC414BE782A972F67F9BD2D3-2024-11-24-18-42-08","","1793","","images/schematic_sequence/restaurant_scheme/restaurant_scheme_4.png","0","",""
"","","","","","image-button-response","91","704921","0.0-14.0-1.0-2.0","4493B32CEC414BE782A972F67F9BD2D3","4493B32CEC414BE782A972F67F9BD2D3","fa3c4b53-88d4-42e9-bae8-42b8212f31bc","a0a8f18c-a66e-4ba7-a170-23efbdc67501","{""participantId"":""4493B32CEC414BE782A972F67F9BD2D3"",""assignmentId"":""fa3c4b53-88d4-42e9-bae8-42b8212f31bc"",""projectId"":""a0a8f18c-a66e-4ba7-a170-23efbdc67501""}","https://test12345.live/?participantId=4493B32CEC414BE782A972F67F9BD2D3&assignmentId=fa3c4b53-88d4-42e9-bae8-42b8212f31bc&projectId=a0a8f18c-a66e-4ba7-a170-23efbdc67501","4493B32CEC414BE782A972F67F9BD2D3-2024-11-24-18-42-08","","null","","[]","null","",""
"","","","","","image-button-response","92","709424","0.0-14.0-1.0-0.1","4493B32CEC414BE782A972F67F9BD2D3","4493B32CEC414BE782A972F67F9BD2D3","fa3c4b53-88d4-42e9-bae8-42b8212f31bc","a0a8f18c-a66e-4ba7-a170-23efbdc67501","{""participantId"":""4493B32CEC414BE782A972F67F9BD2D3"",""assignmentId"":""fa3c4b53-88d4-42e9-bae8-42b8212f31bc"",""projectId"":""a0a8f18c-a66e-4ba7-a170-23efbdc67501""}","https://test12345.live/?participantId=4493B32CEC414BE782A972F67F9BD2D3&assignmentId=fa3c4b53-88d4-42e9-bae8-42b8212f31bc&projectId=a0a8f18c-a66e-4ba7-a170-23efbdc67501","4493B32CEC414BE782A972F67F9BD2D3-2024-11-24-18-42-08","","null","","images/schematic_sequence/restaurant_scheme/restaurant_scheme_6.png","null","",""
"","","","","","image-button-response","93","713434","0.0-14.0-1.0-1.1","4493B32CEC414BE782A972F67F9BD2D3","4493B32CEC414BE782A972F67F9BD2D3","fa3c4b53-88d4-42e9-bae8-42b8212f31bc","a0a8f18c-a66e-4ba7-a170-23efbdc67501","{""participantId"":""4493B32CEC414BE782A972F67F9BD2D3"",""assignmentId"":""fa3c4b53-88d4-42e9-bae8-42b8212f31bc"",""projectId"":""a0a8f18c-a66e-4ba7-a170-23efbdc67501""}","https://test12345.live/?participantId=4493B32CEC414BE782A972F67F9BD2D3&assignmentId=fa3c4b53-88d4-42e9-bae8-42b8212f31bc&projectId=a0a8f18c-a66e-4ba7-a170-23efbdc67501","4493B32CEC414BE782A972F67F9BD2D3-2024-11-24-18-42-08","","null","","images/schematic_sequence/restaurant_scheme/restaurant_scheme_6.png","null","",""
"","","","","","image-button-response","94","715242","0.0-14.0-1.0-2.1","4493B32CEC414BE782A972F67F9BD2D3","4493B32CEC414BE782A972F67F9BD2D3","fa3c4b53-88d4-42e9-bae8-42b8212f31bc","a0a8f18c-a66e-4ba7-a170-23efbdc67501","{""participantId"":""4493B32CEC414BE782A972F67F9BD2D3"",""assignmentId"":""fa3c4b53-88d4-42e9-bae8-42b8212f31bc"",""projectId"":""a0a8f18c-a66e-4ba7-a170-23efbdc67501""}","https://test12345.live/?participantId=4493B32CEC414BE782A972F67F9BD2D3&assignmentId=fa3c4b53-88d4-42e9-bae8-42b8212f31bc&projectId=a0a8f18c-a66e-4ba7-a170-23efbdc67501","4493B32CEC414BE782A972F67F9BD2D3-2024-11-24-18-42-08","","null","","[]","null","",""
"","","","","","image-button-response","95","719751","0.0-14.0-1.0-0.2","4493B32CEC414BE782A972F67F9BD2D3","4493B32CEC414BE782A972F67F9BD2D3","fa3c4b53-88d4-42e9-bae8-42b8212f31bc","a0a8f18c-a66e-4ba7-a170-23efbdc67501","{""participantId"":""4493B32CEC414BE782A972F67F9BD2D3"",""assignmentId"":""fa3c4b53-88d4-42e9-bae8-42b8212f31bc"",""projectId"":""a0a8f18c-a66e-4ba7-a170-23efbdc67501""}","https://test12345.live/?participantId=4493B32CEC414BE782A972F67F9BD2D3&assignmentId=fa3c4b53-88d4-42e9-bae8-42b8212f31bc&projectId=a0a8f18c-a66e-4ba7-a170-23efbdc67501","4493B32CEC414BE782A972F67F9BD2D3-2024-11-24-18-42-08","","null","","images/schematic_sequence/restaurant_scheme/restaurant_scheme_ten.png","null","",""
"","","","","","image-button-response","96","721721","0.0-14.0-1.0-1.2","4493B32CEC414BE782A972F67F9BD2D3","4493B32CEC414BE782A972F67F9BD2D3","fa3c4b53-88d4-42e9-bae8-42b8212f31bc","a0a8f18c-a66e-4ba7-a170-23efbdc67501","{""participantId"":""4493B32CEC414BE782A972F67F9BD2D3"",""assignmentId"":""fa3c4b53-88d4-42e9-bae8-42b8212f31bc"",""projectId"":""a0a8f18c-a66e-4ba7-a170-23efbdc67501""}","https://test12345.live/?participantId=4493B32CEC414BE782A972F67F9BD2D3&assignmentId=fa3c4b53-88d4-42e9-bae8-42b8212f31bc&projectId=a0a8f18c-a66e-4ba7-a170-23efbdc67501","4493B32CEC414BE782A972F67F9BD2D3-2024-11-24-18-42-08","","1967","","images/schematic_sequence/restaurant_scheme/restaurant_scheme_ten.png","0","",""
"","","","","","image-button-response","97","723524","0.0-14.0-1.0-2.2","4493B32CEC414BE782A972F67F9BD2D3","4493B32CEC414BE782A972F67F9BD2D3","fa3c4b53-88d4-42e9-bae8-42b8212f31bc","a0a8f18c-a66e-4ba7-a170-23efbdc67501","{""participantId"":""4493B32CEC414BE782A972F67F9BD2D3"",""assignmentId"":""fa3c4b53-88d4-42e9-bae8-42b8212f31bc"",""projectId"":""a0a8f18c-a66e-4ba7-a170-23efbdc67501""}","https://test12345.live/?participantId=4493B32CEC414BE782A972F67F9BD2D3&assignmentId=fa3c4b53-88d4-42e9-bae8-42b8212f31bc&projectId=a0a8f18c-a66e-4ba7-a170-23efbdc67501","4493B32CEC414BE782A972F67F9BD2D3-2024-11-24-18-42-08","","null","","[]","null","",""
"","","","","","image-button-response","98","728033","0.0-14.0-1.0-0.3","4493B32CEC414BE782A972F67F9BD2D3","4493B32CEC414BE782A972F67F9BD2D3","fa3c4b53-88d4-42e9-bae8-42b8212f31bc","a0a8f18c-a66e-4ba7-a170-23efbdc67501","{""participantId"":""4493B32CEC414BE782A972F67F9BD2D3"",""assignmentId"":""fa3c4b53-88d4-42e9-bae8-42b8212f31bc"",""projectId"":""a0a8f18c-a66e-4ba7-a170-23efbdc67501""}","https://test12345.live/?participantId=4493B32CEC414BE782A972F67F9BD2D3&assignmentId=fa3c4b53-88d4-42e9-bae8-42b8212f31bc&projectId=a0a8f18c-a66e-4ba7-a170-23efbdc67501","4493B32CEC414BE782A972F67F9BD2D3-2024-11-24-18-42-08","","null","","images/schematic_sequence/restaurant_scheme/restaurant_scheme_8.png","null","",""
"","","","","","image-button-response","99","730015","0.0-14.0-1.0-1.3","4493B32CEC414BE782A972F67F9BD2D3","4493B32CEC414BE782A972F67F9BD2D3","fa3c4b53-88d4-42e9-bae8-42b8212f31bc","a0a8f18c-a66e-4ba7-a170-23efbdc67501","{""participantId"":""4493B32CEC414BE782A972F67F9BD2D3"",""assignmentId"":""fa3c4b53-88d4-42e9-bae8-42b8212f31bc"",""projectId"":""a0a8f18c-a66e-4ba7-a170-23efbdc67501""}","https://test12345.live/?participantId=4493B32CEC414BE782A972F67F9BD2D3&assignmentId=fa3c4b53-88d4-42e9-bae8-42b8212f31bc&projectId=a0a8f18c-a66e-4ba7-a170-23efbdc67501","4493B32CEC414BE782A972F67F9BD2D3-2024-11-24-18-42-08","","1977","","images/schematic_sequence/restaurant_scheme/restaurant_scheme_8.png","1","",""
"","","","","","image-button-response","100","731823","0.0-14.0-1.0-2.3","4493B32CEC414BE782A972F67F9BD2D3","4493B32CEC414BE782A972F67F9BD2D3","fa3c4b53-88d4-42e9-bae8-42b8212f31bc","a0a8f18c-a66e-4ba7-a170-23efbdc67501","{""participantId"":""4493B32CEC414BE782A972F67F9BD2D3"",""assignmentId"":""fa3c4b53-88d4-42e9-bae8-42b8212f31bc"",""projectId"":""a0a8f18c-a66e-4ba7-a170-23efbdc67501""}","https://test12345.live/?participantId=4493B32CEC414BE782A972F67F9BD2D3&assignmentId=fa3c4b53-88d4-42e9-bae8-42b8212f31bc&projectId=a0a8f18c-a66e-4ba7-a170-23efbdc67501","4493B32CEC414BE782A972F67F9BD2D3-2024-11-24-18-42-08","","null","","[]","null","",""
"","","","","","image-button-response","101","736329","0.0-14.0-1.0-0.4","4493B32CEC414BE782A972F67F9BD2D3","4493B32CEC414BE782A972F67F9BD2D3","fa3c4b53-88d4-42e9-bae8-42b8212f31bc","a0a8f18c-a66e-4ba7-a170-23efbdc67501","{""participantId"":""4493B32CEC414BE782A972F67F9BD2D3"",""assignmentId"":""fa3c4b53-88d4-42e9-bae8-42b8212f31bc"",""projectId"":""a0a8f18c-a66e-4ba7-a170-23efbdc67501""}","https://test12345.live/?participantId=4493B32CEC414BE782A972F67F9BD2D3&assignmentId=fa3c4b53-88d4-42e9-bae8-42b8212f31bc&projectId=a0a8f18c-a66e-4ba7-a170-23efbdc67501","4493B32CEC414BE782A972F67F9BD2D3-2024-11-24-18-42-08","","null","","images/schematic_sequence/restaurant_scheme/restaurant_scheme_2.png","null","",""
"","","","","","image-button-response","102","738722","0.0-14.0-1.0-1.4","4493B32CEC414BE782A972F67F9BD2D3","4493B32CEC414BE782A972F67F9BD2D3","fa3c4b53-88d4-42e9-bae8-42b8212f31bc","a0a8f18c-a66e-4ba7-a170-23efbdc67501","{""participantId"":""4493B32CEC414BE782A972F67F9BD2D3"",""assignmentId"":""fa3c4b53-88d4-42e9-bae8-42b8212f31bc"",""projectId"":""a0a8f18c-a66e-4ba7-a170-23efbdc67501""}","https://test12345.live/?participantId=4493B32CEC414BE782A972F67F9BD2D3&assignmentId=fa3c4b53-88d4-42e9-bae8-42b8212f31bc&projectId=a0a8f18c-a66e-4ba7-a170-23efbdc67501","4493B32CEC414BE782A972F67F9BD2D3-2024-11-24-18-42-08","","2392","","images/schematic_sequence/restaurant_scheme/restaurant_scheme_2.png","1","",""
"","","","","","image-button-response","103","740539","0.0-14.0-1.0-2.4","4493B32CEC414BE782A972F67F9BD2D3","4493B32CEC414BE782A972F67F9BD2D3","fa3c4b53-88d4-42e9-bae8-42b8212f31bc","a0a8f18c-a66e-4ba7-a170-23efbdc67501","{""participantId"":""4493B32CEC414BE782A972F67F9BD2D3"",""assignmentId"":""fa3c4b53-88d4-42e9-bae8-42b8212f31bc"",""projectId"":""a0a8f18c-a66e-4ba7-a170-23efbdc67501""}","https://test12345.live/?participantId=4493B32CEC414BE782A972F67F9BD2D3&assignmentId=fa3c4b53-88d4-42e9-bae8-42b8212f31bc&projectId=a0a8f18c-a66e-4ba7-a170-23efbdc67501","4493B32CEC414BE782A972F67F9BD2D3-2024-11-24-18-42-08","","null","","[]","null","",""
"","","","","","image-button-response","104","745044","0.0-14.0-1.0-0.5","4493B32CEC414BE782A972F67F9BD2D3","4493B32CEC414BE782A972F67F9BD2D3","fa3c4b53-88d4-42e9-bae8-42b8212f31bc","a0a8f18c-a66e-4ba7-a170-23efbdc67501","{""participantId"":""4493B32CEC414BE782A972F67F9BD2D3"",""assignmentId"":""fa3c4b53-88d4-42e9-bae8-42b8212f31bc"",""projectId"":""a0a8f18c-a66e-4ba7-a170-23efbdc67501""}","https://test12345.live/?participantId=4493B32CEC414BE782A972F67F9BD2D3&assignmentId=fa3c4b53-88d4-42e9-bae8-42b8212f31bc&projectId=a0a8f18c-a66e-4ba7-a170-23efbdc67501","4493B32CEC414BE782A972F67F9BD2D3-2024-11-24-18-42-08","","null","","images/schematic_sequence/restaurant_scheme/restaurant_scheme_1.png","null","",""
"","","","","","image-button-response","105","747729","0.0-14.0-1.0-1.5","4493B32CEC414BE782A972F67F9BD2D3","4493B32CEC414BE782A972F67F9BD2D3","fa3c4b53-88d4-42e9-bae8-42b8212f31bc","a0a8f18c-a66e-4ba7-a170-23efbdc67501","{""participantId"":""4493B32CEC414BE782A972F67F9BD2D3"",""assignmentId"":""fa3c4b53-88d4-42e9-bae8-42b8212f31bc"",""projectId"":""a0a8f18c-a66e-4ba7-a170-23efbdc67501""}","https://test12345.live/?participantId=4493B32CEC414BE782A972F67F9BD2D3&assignmentId=fa3c4b53-88d4-42e9-bae8-42b8212f31bc&projectId=a0a8f18c-a66e-4ba7-a170-23efbdc67501","4493B32CEC414BE782A972F67F9BD2D3-2024-11-24-18-42-08","","2682","","images/schematic_sequence/restaurant_scheme/restaurant_scheme_1.png","0","",""
"","","","","","image-button-response","106","749533","0.0-14.0-1.0-2.5","4493B32CEC414BE782A972F67F9BD2D3","4493B32CEC414BE782A972F67F9BD2D3","fa3c4b53-88d4-42e9-bae8-42b8212f31bc","a0a8f18c-a66e-4ba7-a170-23efbdc67501","{""participantId"":""4493B32CEC414BE782A972F67F9BD2D3"",""assignmentId"":""fa3c4b53-88d4-42e9-bae8-42b8212f31bc"",""projectId"":""a0a8f18c-a66e-4ba7-a170-23efbdc67501""}","https://test12345.live/?participantId=4493B32CEC414BE782A972F67F9BD2D3&assignmentId=fa3c4b53-88d4-42e9-bae8-42b8212f31bc&projectId=a0a8f18c-a66e-4ba7-a170-23efbdc67501","4493B32CEC414BE782A972F67F9BD2D3-2024-11-24-18-42-08","","null","","[]","null","",""
"","","","","","image-button-response","107","754048","0.0-14.0-1.0-0.6","4493B32CEC414BE782A972F67F9BD2D3","4493B32CEC414BE782A972F67F9BD2D3","fa3c4b53-88d4-42e9-bae8-42b8212f31bc","a0a8f18c-a66e-4ba7-a170-23efbdc67501","{""participantId"":""4493B32CEC414BE782A972F67F9BD2D3"",""assignmentId"":""fa3c4b53-88d4-42e9-bae8-42b8212f31bc"",""projectId"":""a0a8f18c-a66e-4ba7-a170-23efbdc67501""}","https://test12345.live/?participantId=4493B32CEC414BE782A972F67F9BD2D3&assignmentId=fa3c4b53-88d4-42e9-bae8-42b8212f31bc&projectId=a0a8f18c-a66e-4ba7-a170-23efbdc67501","4493B32CEC414BE782A972F67F9BD2D3-2024-11-24-18-42-08","","null","","images/schematic_sequence/restaurant_scheme/restaurant_scheme_3.png","null","",""
"","","","","","image-button-response","108","758058","0.0-14.0-1.0-1.6","4493B32CEC414BE782A972F67F9BD2D3","4493B32CEC414BE782A972F67F9BD2D3","fa3c4b53-88d4-42e9-bae8-42b8212f31bc","a0a8f18c-a66e-4ba7-a170-23efbdc67501","{""participantId"":""4493B32CEC414BE782A972F67F9BD2D3"",""assignmentId"":""fa3c4b53-88d4-42e9-bae8-42b8212f31bc"",""projectId"":""a0a8f18c-a66e-4ba7-a170-23efbdc67501""}","https://test12345.live/?participantId=4493B32CEC414BE782A972F67F9BD2D3&assignmentId=fa3c4b53-88d4-42e9-bae8-42b8212f31bc&projectId=a0a8f18c-a66e-4ba7-a170-23efbdc67501","4493B32CEC414BE782A972F67F9BD2D3-2024-11-24-18-42-08","","null","","images/schematic_sequence/restaurant_scheme/restaurant_scheme_3.png","null","",""
"","","","","","image-button-response","109","759863","0.0-14.0-1.0-2.6","4493B32CEC414BE782A972F67F9BD2D3","4493B32CEC414BE782A972F67F9BD2D3","fa3c4b53-88d4-42e9-bae8-42b8212f31bc","a0a8f18c-a66e-4ba7-a170-23efbdc67501","{""participantId"":""4493B32CEC414BE782A972F67F9BD2D3"",""assignmentId"":""fa3c4b53-88d4-42e9-bae8-42b8212f31bc"",""projectId"":""a0a8f18c-a66e-4ba7-a170-23efbdc67501""}","https://test12345.live/?participantId=4493B32CEC414BE782A972F67F9BD2D3&assignmentId=fa3c4b53-88d4-42e9-bae8-42b8212f31bc&projectId=a0a8f18c-a66e-4ba7-a170-23efbdc67501","4493B32CEC414BE782A972F67F9BD2D3-2024-11-24-18-42-08","","null","","[]","null","",""
"","","","","","image-button-response","110","764372","0.0-14.0-1.0-0.7","4493B32CEC414BE782A972F67F9BD2D3","4493B32CEC414BE782A972F67F9BD2D3","fa3c4b53-88d4-42e9-bae8-42b8212f31bc","a0a8f18c-a66e-4ba7-a170-23efbdc67501","{""participantId"":""4493B32CEC414BE782A972F67F9BD2D3"",""assignmentId"":""fa3c4b53-88d4-42e9-bae8-42b8212f31bc"",""projectId"":""a0a8f18c-a66e-4ba7-a170-23efbdc67501""}","https://test12345.live/?participantId=4493B32CEC414BE782A972F67F9BD2D3&assignmentId=fa3c4b53-88d4-42e9-bae8-42b8212f31bc&projectId=a0a8f18c-a66e-4ba7-a170-23efbdc67501","4493B32CEC414BE782A972F67F9BD2D3-2024-11-24-18-42-08","","null","","images/schematic_sequence/restaurant_scheme/restaurant_scheme_5.png","null","",""
"","","","","","image-button-response","111","765556","0.0-14.0-1.0-1.7","4493B32CEC414BE782A972F67F9BD2D3","4493B32CEC414BE782A972F67F9BD2D3","fa3c4b53-88d4-42e9-bae8-42b8212f31bc","a0a8f18c-a66e-4ba7-a170-23efbdc67501","{""participantId"":""4493B32CEC414BE782A972F67F9BD2D3"",""assignmentId"":""fa3c4b53-88d4-42e9-bae8-42b8212f31bc"",""projectId"":""a0a8f18c-a66e-4ba7-a170-23efbdc67501""}","https://test12345.live/?participantId=4493B32CEC414BE782A972F67F9BD2D3&assignmentId=fa3c4b53-88d4-42e9-bae8-42b8212f31bc&projectId=a0a8f18c-a66e-4ba7-a170-23efbdc67501","4493B32CEC414BE782A972F67F9BD2D3-2024-11-24-18-42-08","","1180","","images/schematic_sequence/restaurant_scheme/restaurant_scheme_5.png","0","",""
"","","","","","image-button-response","112","767366","0.0-14.0-1.0-2.7","4493B32CEC414BE782A972F67F9BD2D3","4493B32CEC414BE782A972F67F9BD2D3","fa3c4b53-88d4-42e9-bae8-42b8212f31bc","a0a8f18c-a66e-4ba7-a170-23efbdc67501","{""participantId"":""4493B32CEC414BE782A972F67F9BD2D3"",""assignmentId"":""fa3c4b53-88d4-42e9-bae8-42b8212f31bc"",""projectId"":""a0a8f18c-a66e-4ba7-a170-23efbdc67501""}","https://test12345.live/?participantId=4493B32CEC414BE782A972F67F9BD2D3&assignmentId=fa3c4b53-88d4-42e9-bae8-42b8212f31bc&projectId=a0a8f18c-a66e-4ba7-a170-23efbdc67501","4493B32CEC414BE782A972F67F9BD2D3-2024-11-24-18-42-08","","null","","[]","null","",""
"","","","","","image-button-response","113","771877","0.0-14.0-1.0-0.8","4493B32CEC414BE782A972F67F9BD2D3","4493B32CEC414BE782A972F67F9BD2D3","fa3c4b53-88d4-42e9-bae8-42b8212f31bc","a0a8f18c-a66e-4ba7-a170-23efbdc67501","{""participantId"":""4493B32CEC414BE782A972F67F9BD2D3"",""assignmentId"":""fa3c4b53-88d4-42e9-bae8-42b8212f31bc"",""projectId"":""a0a8f18c-a66e-4ba7-a170-23efbdc67501""}","https://test12345.live/?participantId=4493B32CEC414BE782A972F67F9BD2D3&assignmentId=fa3c4b53-88d4-42e9-bae8-42b8212f31bc&projectId=a0a8f18c-a66e-4ba7-a170-23efbdc67501","4493B32CEC414BE782A972F67F9BD2D3-2024-11-24-18-42-08","","null","","images/schematic_sequence/restaurant_scheme/restaurant_scheme_7.png","null","",""
"","","","","","image-button-response","114","774035","0.0-14.0-1.0-1.8","4493B32CEC414BE782A972F67F9BD2D3","4493B32CEC414BE782A972F67F9BD2D3","fa3c4b53-88d4-42e9-bae8-42b8212f31bc","a0a8f18c-a66e-4ba7-a170-23efbdc67501","{""participantId"":""4493B32CEC414BE782A972F67F9BD2D3"",""assignmentId"":""fa3c4b53-88d4-42e9-bae8-42b8212f31bc"",""projectId"":""a0a8f18c-a66e-4ba7-a170-23efbdc67501""}","https://test12345.live/?participantId=4493B32CEC414BE782A972F67F9BD2D3&assignmentId=fa3c4b53-88d4-42e9-bae8-42b8212f31bc&projectId=a0a8f18c-a66e-4ba7-a170-23efbdc67501","4493B32CEC414BE782A972F67F9BD2D3-2024-11-24-18-42-08","","2156","","images/schematic_sequence/restaurant_scheme/restaurant_scheme_7.png","1","",""
"","","","","","image-button-response","115","775848","0.0-14.0-1.0-2.8","4493B32CEC414BE782A972F67F9BD2D3","4493B32CEC414BE782A972F67F9BD2D3","fa3c4b53-88d4-42e9-bae8-42b8212f31bc","a0a8f18c-a66e-4ba7-a170-23efbdc67501","{""participantId"":""4493B32CEC414BE782A972F67F9BD2D3"",""assignmentId"":""fa3c4b53-88d4-42e9-bae8-42b8212f31bc"",""projectId"":""a0a8f18c-a66e-4ba7-a170-23efbdc67501""}","https://test12345.live/?participantId=4493B32CEC414BE782A972F67F9BD2D3&assignmentId=fa3c4b53-88d4-42e9-bae8-42b8212f31bc&projectId=a0a8f18c-a66e-4ba7-a170-23efbdc67501","4493B32CEC414BE782A972F67F9BD2D3-2024-11-24-18-42-08","","null","","[]","null","",""
"","","","","","image-button-response","116","780364","0.0-14.0-1.0-0.9","4493B32CEC414BE782A972F67F9BD2D3","4493B32CEC414BE782A972F67F9BD2D3","fa3c4b53-88d4-42e9-bae8-42b8212f31bc","a0a8f18c-a66e-4ba7-a170-23efbdc67501","{""participantId"":""4493B32CEC414BE782A972F67F9BD2D3"",""assignmentId"":""fa3c4b53-88d4-42e9-bae8-42b8212f31bc"",""projectId"":""a0a8f18c-a66e-4ba7-a170-23efbdc67501""}","https://test12345.live/?participantId=4493B32CEC414BE782A972F67F9BD2D3&assignmentId=fa3c4b53-88d4-42e9-bae8-42b8212f31bc&projectId=a0a8f18c-a66e-4ba7-a170-23efbdc67501","4493B32CEC414BE782A972F67F9BD2D3-2024-11-24-18-42-08","","null","","images/schematic_sequence/restaurant_scheme/restaurant_scheme_9.png","null","",""
"","","","","","image-button-response","117","784246","0.0-14.0-1.0-1.9","4493B32CEC414BE782A972F67F9BD2D3","4493B32CEC414BE782A972F67F9BD2D3","fa3c4b53-88d4-42e9-bae8-42b8212f31bc","a0a8f18c-a66e-4ba7-a170-23efbdc67501","{""participantId"":""4493B32CEC414BE782A972F67F9BD2D3"",""assignmentId"":""fa3c4b53-88d4-42e9-bae8-42b8212f31bc"",""projectId"":""a0a8f18c-a66e-4ba7-a170-23efbdc67501""}","https://test12345.live/?participantId=4493B32CEC414BE782A972F67F9BD2D3&assignmentId=fa3c4b53-88d4-42e9-bae8-42b8212f31bc&projectId=a0a8f18c-a66e-4ba7-a170-23efbdc67501","4493B32CEC414BE782A972F67F9BD2D3-2024-11-24-18-42-08","","3879","","images/schematic_sequence/restaurant_scheme/restaurant_scheme_9.png","0","",""
"","","","","","image-button-response","118","786053","0.0-14.0-1.0-2.9","4493B32CEC414BE782A972F67F9BD2D3","4493B32CEC414BE782A972F67F9BD2D3","fa3c4b53-88d4-42e9-bae8-42b8212f31bc","a0a8f18c-a66e-4ba7-a170-23efbdc67501","{""participantId"":""4493B32CEC414BE782A972F67F9BD2D3"",""assignmentId"":""fa3c4b53-88d4-42e9-bae8-42b8212f31bc"",""projectId"":""a0a8f18c-a66e-4ba7-a170-23efbdc67501""}","https://test12345.live/?participantId=4493B32CEC414BE782A972F67F9BD2D3&assignmentId=fa3c4b53-88d4-42e9-bae8-42b8212f31bc&projectId=a0a8f18c-a66e-4ba7-a170-23efbdc67501","4493B32CEC414BE782A972F67F9BD2D3-2024-11-24-18-42-08","","null","","[]","null","",""
"","","","","","html-audio-response","119","791784","0.0-15.0","4493B32CEC414BE782A972F67F9BD2D3","4493B32CEC414BE782A972F67F9BD2D3","fa3c4b53-88d4-42e9-bae8-42b8212f31bc","a0a8f18c-a66e-4ba7-a170-23efbdc67501","{""participantId"":""4493B32CEC414BE782A972F67F9BD2D3"",""assignmentId"":""fa3c4b53-88d4-42e9-bae8-42b8212f31bc"",""projectId"":""a0a8f18c-a66e-4ba7-a170-23efbdc67501""}","https://test12345.live/?participantId=4493B32CEC414BE782A972F67F9BD2D3&assignmentId=fa3c4b53-88d4-42e9-bae8-42b8212f31bc&projectId=a0a8f18c-a66e-4ba7-a170-23efbdc67501","4493B32CEC414BE782A972F67F9BD2D3-2024-11-24-18-42-08","","2998","","[""<span style=\""color: red; font-size: 24px\""> NOW RECORDING</span><p>Please say out loud all the images you saw, as many as you can remember. The images can be said in any order.</p>""]","","5","restaurant_scheme"
"","","","","","image-button-response","120","797805","0.0-16.0-0.0","4493B32CEC414BE782A972F67F9BD2D3","4493B32CEC414BE782A972F67F9BD2D3","fa3c4b53-88d4-42e9-bae8-42b8212f31bc","a0a8f18c-a66e-4ba7-a170-23efbdc67501","{""participantId"":""4493B32CEC414BE782A972F67F9BD2D3"",""assignmentId"":""fa3c4b53-88d4-42e9-bae8-42b8212f31bc"",""projectId"":""a0a8f18c-a66e-4ba7-a170-23efbdc67501""}","https://test12345.live/?participantId=4493B32CEC414BE782A972F67F9BD2D3&assignmentId=fa3c4b53-88d4-42e9-bae8-42b8212f31bc&projectId=a0a8f18c-a66e-4ba7-a170-23efbdc67501","4493B32CEC414BE782A972F67F9BD2D3-2024-11-24-18-42-08","","null","","images/causal_sequence/dog_causal/dog_causal_0.png","null","",""
"","","","","","image-button-response","121","802308","0.0-16.0-1.0-0.0","4493B32CEC414BE782A972F67F9BD2D3","4493B32CEC414BE782A972F67F9BD2D3","fa3c4b53-88d4-42e9-bae8-42b8212f31bc","a0a8f18c-a66e-4ba7-a170-23efbdc67501","{""participantId"":""4493B32CEC414BE782A972F67F9BD2D3"",""assignmentId"":""fa3c4b53-88d4-42e9-bae8-42b8212f31bc"",""projectId"":""a0a8f18c-a66e-4ba7-a170-23efbdc67501""}","https://test12345.live/?participantId=4493B32CEC414BE782A972F67F9BD2D3&assignmentId=fa3c4b53-88d4-42e9-bae8-42b8212f31bc&projectId=a0a8f18c-a66e-4ba7-a170-23efbdc67501","4493B32CEC414BE782A972F67F9BD2D3-2024-11-24-18-42-08","","null","","images/causal_sequence/dog_causal/dog_causal_1.png","null","",""
"","","","","","image-button-response","122","805839","0.0-16.0-1.0-1.0","4493B32CEC414BE782A972F67F9BD2D3","4493B32CEC414BE782A972F67F9BD2D3","fa3c4b53-88d4-42e9-bae8-42b8212f31bc","a0a8f18c-a66e-4ba7-a170-23efbdc67501","{""participantId"":""4493B32CEC414BE782A972F67F9BD2D3"",""assignmentId"":""fa3c4b53-88d4-42e9-bae8-42b8212f31bc"",""projectId"":""a0a8f18c-a66e-4ba7-a170-23efbdc67501""}","https://test12345.live/?participantId=4493B32CEC414BE782A972F67F9BD2D3&assignmentId=fa3c4b53-88d4-42e9-bae8-42b8212f31bc&projectId=a0a8f18c-a66e-4ba7-a170-23efbdc67501","4493B32CEC414BE782A972F67F9BD2D3-2024-11-24-18-42-08","","3527","","images/causal_sequence/dog_causal/dog_causal_1.png","0","",""
"","","","","","image-button-response","123","807653","0.0-16.0-1.0-2.0","4493B32CEC414BE782A972F67F9BD2D3","4493B32CEC414BE782A972F67F9BD2D3","fa3c4b53-88d4-42e9-bae8-42b8212f31bc","a0a8f18c-a66e-4ba7-a170-23efbdc67501","{""participantId"":""4493B32CEC414BE782A972F67F9BD2D3"",""assignmentId"":""fa3c4b53-88d4-42e9-bae8-42b8212f31bc"",""projectId"":""a0a8f18c-a66e-4ba7-a170-23efbdc67501""}","https://test12345.live/?participantId=4493B32CEC414BE782A972F67F9BD2D3&assignmentId=fa3c4b53-88d4-42e9-bae8-42b8212f31bc&projectId=a0a8f18c-a66e-4ba7-a170-23efbdc67501","4493B32CEC414BE782A972F67F9BD2D3-2024-11-24-18-42-08","","null","","[]","null","",""
"","","","","","image-button-response","124","812163","0.0-16.0-1.0-0.1","4493B32CEC414BE782A972F67F9BD2D3","4493B32CEC414BE782A972F67F9BD2D3","fa3c4b53-88d4-42e9-bae8-42b8212f31bc","a0a8f18c-a66e-4ba7-a170-23efbdc67501","{""participantId"":""4493B32CEC414BE782A972F67F9BD2D3"",""assignmentId"":""fa3c4b53-88d4-42e9-bae8-42b8212f31bc"",""projectId"":""a0a8f18c-a66e-4ba7-a170-23efbdc67501""}","https://test12345.live/?participantId=4493B32CEC414BE782A972F67F9BD2D3&assignmentId=fa3c4b53-88d4-42e9-bae8-42b8212f31bc&projectId=a0a8f18c-a66e-4ba7-a170-23efbdc67501","4493B32CEC414BE782A972F67F9BD2D3-2024-11-24-18-42-08","","null","","images/causal_sequence/dog_causal/dog_causal_2.png","null","",""
"","","","","","image-button-response","125","813694","0.0-16.0-1.0-1.1","4493B32CEC414BE782A972F67F9BD2D3","4493B32CEC414BE782A972F67F9BD2D3","fa3c4b53-88d4-42e9-bae8-42b8212f31bc","a0a8f18c-a66e-4ba7-a170-23efbdc67501","{""participantId"":""4493B32CEC414BE782A972F67F9BD2D3"",""assignmentId"":""fa3c4b53-88d4-42e9-bae8-42b8212f31bc"",""projectId"":""a0a8f18c-a66e-4ba7-a170-23efbdc67501""}","https://test12345.live/?participantId=4493B32CEC414BE782A972F67F9BD2D3&assignmentId=fa3c4b53-88d4-42e9-bae8-42b8212f31bc&projectId=a0a8f18c-a66e-4ba7-a170-23efbdc67501","4493B32CEC414BE782A972F67F9BD2D3-2024-11-24-18-42-08","","1527","","images/causal_sequence/dog_causal/dog_causal_2.png","0","",""
"","","","","","image-button-response","126","815508","0.0-16.0-1.0-2.1","4493B32CEC414BE782A972F67F9BD2D3","4493B32CEC414BE782A972F67F9BD2D3","fa3c4b53-88d4-42e9-bae8-42b8212f31bc","a0a8f18c-a66e-4ba7-a170-23efbdc67501","{""participantId"":""4493B32CEC414BE782A972F67F9BD2D3"",""assignmentId"":""fa3c4b53-88d4-42e9-bae8-42b8212f31bc"",""projectId"":""a0a8f18c-a66e-4ba7-a170-23efbdc67501""}","https://test12345.live/?participantId=4493B32CEC414BE782A972F67F9BD2D3&assignmentId=fa3c4b53-88d4-42e9-bae8-42b8212f31bc&projectId=a0a8f18c-a66e-4ba7-a170-23efbdc67501","4493B32CEC414BE782A972F67F9BD2D3-2024-11-24-18-42-08","","null","","[]","null","",""
"","","","","","image-button-response","127","820023","0.0-16.0-1.0-0.2","4493B32CEC414BE782A972F67F9BD2D3","4493B32CEC414BE782A972F67F9BD2D3","fa3c4b53-88d4-42e9-bae8-42b8212f31bc","a0a8f18c-a66e-4ba7-a170-23efbdc67501","{""participantId"":""4493B32CEC414BE782A972F67F9BD2D3"",""assignmentId"":""fa3c4b53-88d4-42e9-bae8-42b8212f31bc"",""projectId"":""a0a8f18c-a66e-4ba7-a170-23efbdc67501""}","https://test12345.live/?participantId=4493B32CEC414BE782A972F67F9BD2D3&assignmentId=fa3c4b53-88d4-42e9-bae8-42b8212f31bc&projectId=a0a8f18c-a66e-4ba7-a170-23efbdc67501","4493B32CEC414BE782A972F67F9BD2D3-2024-11-24-18-42-08","","null","","images/causal_sequence/dog_causal/dog_causal_3.png","null","",""
"","","","","","image-button-response","128","822340","0.0-16.0-1.0-1.2","4493B32CEC414BE782A972F67F9BD2D3","4493B32CEC414BE782A972F67F9BD2D3","fa3c4b53-88d4-42e9-bae8-42b8212f31bc","a0a8f18c-a66e-4ba7-a170-23efbdc67501","{""participantId"":""4493B32CEC414BE782A972F67F9BD2D3"",""assignmentId"":""fa3c4b53-88d4-42e9-bae8-42b8212f31bc"",""projectId"":""a0a8f18c-a66e-4ba7-a170-23efbdc67501""}","https://test12345.live/?participantId=4493B32CEC414BE782A972F67F9BD2D3&assignmentId=fa3c4b53-88d4-42e9-bae8-42b8212f31bc&projectId=a0a8f18c-a66e-4ba7-a170-23efbdc67501","4493B32CEC414BE782A972F67F9BD2D3-2024-11-24-18-42-08","","2314","","images/causal_sequence/dog_causal/dog_causal_3.png","0","",""
"","","","","","image-button-response","129","824158","0.0-16.0-1.0-2.2","4493B32CEC414BE782A972F67F9BD2D3","4493B32CEC414BE782A972F67F9BD2D3","fa3c4b53-88d4-42e9-bae8-42b8212f31bc","a0a8f18c-a66e-4ba7-a170-23efbdc67501","{""participantId"":""4493B32CEC414BE782A972F67F9BD2D3"",""assignmentId"":""fa3c4b53-88d4-42e9-bae8-42b8212f31bc"",""projectId"":""a0a8f18c-a66e-4ba7-a170-23efbdc67501""}","https://test12345.live/?participantId=4493B32CEC414BE782A972F67F9BD2D3&assignmentId=fa3c4b53-88d4-42e9-bae8-42b8212f31bc&projectId=a0a8f18c-a66e-4ba7-a170-23efbdc67501","4493B32CEC414BE782A972F67F9BD2D3-2024-11-24-18-42-08","","null","","[]","null","",""
"","","","","","image-button-response","130","828663","0.0-16.0-1.0-0.3","4493B32CEC414BE782A972F67F9BD2D3","4493B32CEC414BE782A972F67F9BD2D3","fa3c4b53-88d4-42e9-bae8-42b8212f31bc","a0a8f18c-a66e-4ba7-a170-23efbdc67501","{""participantId"":""4493B32CEC414BE782A972F67F9BD2D3"",""assignmentId"":""fa3c4b53-88d4-42e9-bae8-42b8212f31bc"",""projectId"":""a0a8f18c-a66e-4ba7-a170-23efbdc67501""}","https://test12345.live/?participantId=4493B32CEC414BE782A972F67F9BD2D3&assignmentId=fa3c4b53-88d4-42e9-bae8-42b8212f31bc&projectId=a0a8f18c-a66e-4ba7-a170-23efbdc67501","4493B32CEC414BE782A972F67F9BD2D3-2024-11-24-18-42-08","","null","","images/causal_sequence/dog_causal/dog_causal_4.png","null","",""
"","","","","","image-button-response","131","830477","0.0-16.0-1.0-1.3","4493B32CEC414BE782A972F67F9BD2D3","4493B32CEC414BE782A972F67F9BD2D3","fa3c4b53-88d4-42e9-bae8-42b8212f31bc","a0a8f18c-a66e-4ba7-a170-23efbdc67501","{""participantId"":""4493B32CEC414BE782A972F67F9BD2D3"",""assignmentId"":""fa3c4b53-88d4-42e9-bae8-42b8212f31bc"",""projectId"":""a0a8f18c-a66e-4ba7-a170-23efbdc67501""}","https://test12345.live/?participantId=4493B32CEC414BE782A972F67F9BD2D3&assignmentId=fa3c4b53-88d4-42e9-bae8-42b8212f31bc&projectId=a0a8f18c-a66e-4ba7-a170-23efbdc67501","4493B32CEC414BE782A972F67F9BD2D3-2024-11-24-18-42-08","","1811","","images/causal_sequence/dog_causal/dog_causal_4.png","0","",""
"","","","","","image-button-response","132","832284","0.0-16.0-1.0-2.3","4493B32CEC414BE782A972F67F9BD2D3","4493B32CEC414BE782A972F67F9BD2D3","fa3c4b53-88d4-42e9-bae8-42b8212f31bc","a0a8f18c-a66e-4ba7-a170-23efbdc67501","{""participantId"":""4493B32CEC414BE782A972F67F9BD2D3"",""assignmentId"":""fa3c4b53-88d4-42e9-bae8-42b8212f31bc"",""projectId"":""a0a8f18c-a66e-4ba7-a170-23efbdc67501""}","https://test12345.live/?participantId=4493B32CEC414BE782A972F67F9BD2D3&assignmentId=fa3c4b53-88d4-42e9-bae8-42b8212f31bc&projectId=a0a8f18c-a66e-4ba7-a170-23efbdc67501","4493B32CEC414BE782A972F67F9BD2D3-2024-11-24-18-42-08","","null","","[]","null","",""
"","","","","","image-button-response","133","836793","0.0-16.0-1.0-0.4","4493B32CEC414BE782A972F67F9BD2D3","4493B32CEC414BE782A972F67F9BD2D3","fa3c4b53-88d4-42e9-bae8-42b8212f31bc","a0a8f18c-a66e-4ba7-a170-23efbdc67501","{""participantId"":""4493B32CEC414BE782A972F67F9BD2D3"",""assignmentId"":""fa3c4b53-88d4-42e9-bae8-42b8212f31bc"",""projectId"":""a0a8f18c-a66e-4ba7-a170-23efbdc67501""}","https://test12345.live/?participantId=4493B32CEC414BE782A972F67F9BD2D3&assignmentId=fa3c4b53-88d4-42e9-bae8-42b8212f31bc&projectId=a0a8f18c-a66e-4ba7-a170-23efbdc67501","4493B32CEC414BE782A972F67F9BD2D3-2024-11-24-18-42-08","","null","","images/causal_sequence/dog_causal/dog_causal_5.png","null","",""
"","","","","","image-button-response","134","838105","0.0-16.0-1.0-1.4","4493B32CEC414BE782A972F67F9BD2D3","4493B32CEC414BE782A972F67F9BD2D3","fa3c4b53-88d4-42e9-bae8-42b8212f31bc","a0a8f18c-a66e-4ba7-a170-23efbdc67501","{""participantId"":""4493B32CEC414BE782A972F67F9BD2D3"",""assignmentId"":""fa3c4b53-88d4-42e9-bae8-42b8212f31bc"",""projectId"":""a0a8f18c-a66e-4ba7-a170-23efbdc67501""}","https://test12345.live/?participantId=4493B32CEC414BE782A972F67F9BD2D3&assignmentId=fa3c4b53-88d4-42e9-bae8-42b8212f31bc&projectId=a0a8f18c-a66e-4ba7-a170-23efbdc67501","4493B32CEC414BE782A972F67F9BD2D3-2024-11-24-18-42-08","","1312","","images/causal_sequence/dog_causal/dog_causal_5.png","0","",""
"","","","","","image-button-response","135","839914","0.0-16.0-1.0-2.4","4493B32CEC414BE782A972F67F9BD2D3","4493B32CEC414BE782A972F67F9BD2D3","fa3c4b53-88d4-42e9-bae8-42b8212f31bc","a0a8f18c-a66e-4ba7-a170-23efbdc67501","{""participantId"":""4493B32CEC414BE782A972F67F9BD2D3"",""assignmentId"":""fa3c4b53-88d4-42e9-bae8-42b8212f31bc"",""projectId"":""a0a8f18c-a66e-4ba7-a170-23efbdc67501""}","https://test12345.live/?participantId=4493B32CEC414BE782A972F67F9BD2D3&assignmentId=fa3c4b53-88d4-42e9-bae8-42b8212f31bc&projectId=a0a8f18c-a66e-4ba7-a170-23efbdc67501","4493B32CEC414BE782A972F67F9BD2D3-2024-11-24-18-42-08","","null","","[]","null","",""
"","","","","","image-button-response","136","844423","0.0-16.0-1.0-0.5","4493B32CEC414BE782A972F67F9BD2D3","4493B32CEC414BE782A972F67F9BD2D3","fa3c4b53-88d4-42e9-bae8-42b8212f31bc","a0a8f18c-a66e-4ba7-a170-23efbdc67501","{""participantId"":""4493B32CEC414BE782A972F67F9BD2D3"",""assignmentId"":""fa3c4b53-88d4-42e9-bae8-42b8212f31bc"",""projectId"":""a0a8f18c-a66e-4ba7-a170-23efbdc67501""}","https://test12345.live/?participantId=4493B32CEC414BE782A972F67F9BD2D3&assignmentId=fa3c4b53-88d4-42e9-bae8-42b8212f31bc&projectId=a0a8f18c-a66e-4ba7-a170-23efbdc67501","4493B32CEC414BE782A972F67F9BD2D3-2024-11-24-18-42-08","","null","","images/causal_sequence/dog_causal/dog_causal_6.png","null","",""
"","","","","","image-button-response","137","846318","0.0-16.0-1.0-1.5","4493B32CEC414BE782A972F67F9BD2D3","4493B32CEC414BE782A972F67F9BD2D3","fa3c4b53-88d4-42e9-bae8-42b8212f31bc","a0a8f18c-a66e-4ba7-a170-23efbdc67501","{""participantId"":""4493B32CEC414BE782A972F67F9BD2D3"",""assignmentId"":""fa3c4b53-88d4-42e9-bae8-42b8212f31bc"",""projectId"":""a0a8f18c-a66e-4ba7-a170-23efbdc67501""}","https://test12345.live/?participantId=4493B32CEC414BE782A972F67F9BD2D3&assignmentId=fa3c4b53-88d4-42e9-bae8-42b8212f31bc&projectId=a0a8f18c-a66e-4ba7-a170-23efbdc67501","4493B32CEC414BE782A972F67F9BD2D3-2024-11-24-18-42-08","","1893","","images/causal_sequence/dog_causal/dog_causal_6.png","0","",""
"","","","","","image-button-response","138","848134","0.0-16.0-1.0-2.5","4493B32CEC414BE782A972F67F9BD2D3","4493B32CEC414BE782A972F67F9BD2D3","fa3c4b53-88d4-42e9-bae8-42b8212f31bc","a0a8f18c-a66e-4ba7-a170-23efbdc67501","{""participantId"":""4493B32CEC414BE782A972F67F9BD2D3"",""assignmentId"":""fa3c4b53-88d4-42e9-bae8-42b8212f31bc"",""projectId"":""a0a8f18c-a66e-4ba7-a170-23efbdc67501""}","https://test12345.live/?participantId=4493B32CEC414BE782A972F67F9BD2D3&assignmentId=fa3c4b53-88d4-42e9-bae8-42b8212f31bc&projectId=a0a8f18c-a66e-4ba7-a170-23efbdc67501","4493B32CEC414BE782A972F67F9BD2D3-2024-11-24-18-42-08","","null","","[]","null","",""
"","","","","","image-button-response","139","852653","0.0-16.0-1.0-0.6","4493B32CEC414BE782A972F67F9BD2D3","4493B32CEC414BE782A972F67F9BD2D3","fa3c4b53-88d4-42e9-bae8-42b8212f31bc","a0a8f18c-a66e-4ba7-a170-23efbdc67501","{""participantId"":""4493B32CEC414BE782A972F67F9BD2D3"",""assignmentId"":""fa3c4b53-88d4-42e9-bae8-42b8212f31bc"",""projectId"":""a0a8f18c-a66e-4ba7-a170-23efbdc67501""}","https://test12345.live/?participantId=4493B32CEC414BE782A972F67F9BD2D3&assignmentId=fa3c4b53-88d4-42e9-bae8-42b8212f31bc&projectId=a0a8f18c-a66e-4ba7-a170-23efbdc67501","4493B32CEC414BE782A972F67F9BD2D3-2024-11-24-18-42-08","","null","","images/causal_sequence/dog_causal/dog_causal_7.png","null","",""
"","","","","","image-button-response","140","855260","0.0-16.0-1.0-1.6","4493B32CEC414BE782A972F67F9BD2D3","4493B32CEC414BE782A972F67F9BD2D3","fa3c4b53-88d4-42e9-bae8-42b8212f31bc","a0a8f18c-a66e-4ba7-a170-23efbdc67501","{""participantId"":""4493B32CEC414BE782A972F67F9BD2D3"",""assignmentId"":""fa3c4b53-88d4-42e9-bae8-42b8212f31bc"",""projectId"":""a0a8f18c-a66e-4ba7-a170-23efbdc67501""}","https://test12345.live/?participantId=4493B32CEC414BE782A972F67F9BD2D3&assignmentId=fa3c4b53-88d4-42e9-bae8-42b8212f31bc&projectId=a0a8f18c-a66e-4ba7-a170-23efbdc67501","4493B32CEC414BE782A972F67F9BD2D3-2024-11-24-18-42-08","","2603","","images/causal_sequence/dog_causal/dog_causal_7.png","0","",""
"","","","","","image-button-response","141","857068","0.0-16.0-1.0-2.6","4493B32CEC414BE782A972F67F9BD2D3","4493B32CEC414BE782A972F67F9BD2D3","fa3c4b53-88d4-42e9-bae8-42b8212f31bc","a0a8f18c-a66e-4ba7-a170-23efbdc67501","{""participantId"":""4493B32CEC414BE782A972F67F9BD2D3"",""assignmentId"":""fa3c4b53-88d4-42e9-bae8-42b8212f31bc"",""projectId"":""a0a8f18c-a66e-4ba7-a170-23efbdc67501""}","https://test12345.live/?participantId=4493B32CEC414BE782A972F67F9BD2D3&assignmentId=fa3c4b53-88d4-42e9-bae8-42b8212f31bc&projectId=a0a8f18c-a66e-4ba7-a170-23efbdc67501","4493B32CEC414BE782A972F67F9BD2D3-2024-11-24-18-42-08","","null","","[]","null","",""
"","","","","","image-button-response","142","861573","0.0-16.0-1.0-0.7","4493B32CEC414BE782A972F67F9BD2D3","4493B32CEC414BE782A972F67F9BD2D3","fa3c4b53-88d4-42e9-bae8-42b8212f31bc","a0a8f18c-a66e-4ba7-a170-23efbdc67501","{""participantId"":""4493B32CEC414BE782A972F67F9BD2D3"",""assignmentId"":""fa3c4b53-88d4-42e9-bae8-42b8212f31bc"",""projectId"":""a0a8f18c-a66e-4ba7-a170-23efbdc67501""}","https://test12345.live/?participantId=4493B32CEC414BE782A972F67F9BD2D3&assignmentId=fa3c4b53-88d4-42e9-bae8-42b8212f31bc&projectId=a0a8f18c-a66e-4ba7-a170-23efbdc67501","4493B32CEC414BE782A972F67F9BD2D3-2024-11-24-18-42-08","","null","","images/causal_sequence/dog_causal/dog_causal_8.png","null","",""
"","","","","","image-button-response","143","863765","0.0-16.0-1.0-1.7","4493B32CEC414BE782A972F67F9BD2D3","4493B32CEC414BE782A972F67F9BD2D3","fa3c4b53-88d4-42e9-bae8-42b8212f31bc","a0a8f18c-a66e-4ba7-a170-23efbdc67501","{""participantId"":""4493B32CEC414BE782A972F67F9BD2D3"",""assignmentId"":""fa3c4b53-88d4-42e9-bae8-42b8212f31bc"",""projectId"":""a0a8f18c-a66e-4ba7-a170-23efbdc67501""}","https://test12345.live/?participantId=4493B32CEC414BE782A972F67F9BD2D3&assignmentId=fa3c4b53-88d4-42e9-bae8-42b8212f31bc&projectId=a0a8f18c-a66e-4ba7-a170-23efbdc67501","4493B32CEC414BE782A972F67F9BD2D3-2024-11-24-18-42-08","","2189","","images/causal_sequence/dog_causal/dog_causal_8.png","0","",""
