"success","timeout","failed_images","failed_audio","failed_video","trial_type","trial_index","time_elapsed","internal_node_id","subject","subject_id","study_id","session_id","urlvar","current_url","audio_id","view_history","rt","device_id","stimulus","response","estimated_stimulus_onset","seq_name"
"true","false","[]","[]","[]","preload","0","91099","0.0-0.0","44CF20B773F943FAAD0E7129A94AC4E5","44CF20B773F943FAAD0E7129A94AC4E5","551c170a-1e6f-4ed3-8024-a9ddcae4e459","051c06f1-75cc-4548-856d-4923ddaba0dc","{""num_scrambled_semantic"":""8"",""num_scrambled_causal"":""4"",""num_scrambled_schematic"":""4"",""participantId"":""44CF20B773F943FAAD0E7129A94AC4E5"",""assignmentId"":""551c170a-1e6f-4ed3-8024-a9ddcae4e459"",""projectId"":""051c06f1-75cc-4548-856d-4923ddaba0dc""}","https://test12345.live/?num_scrambled_semantic=8&num_scrambled_causal=4&num_scrambled_schematic=4&participantId=44CF20B773F943FAAD0E7129A94AC4E5&assignmentId=551c170a-1e6f-4ed3-8024-a9ddcae4e459&projectId=051c06f1-75cc-4548-856d-4923ddaba0dc","44CF20B773F943FAAD0E7129A94AC4E5-2025-05-15-19-24-16","","","","","","",""
"","","","","","instructions","1","301302","0.0-1.0","44CF20B773F943FAAD0E7129A94AC4E5","44CF20B773F943FAAD0E7129A94AC4E5","551c170a-1e6f-4ed3-8024-a9ddcae4e459","051c06f1-75cc-4548-856d-4923ddaba0dc","{""num_scrambled_semantic"":""8"",""num_scrambled_causal"":""4"",""num_scrambled_schematic"":""4"",""participantId"":""44CF20B773F943FAAD0E7129A94AC4E5"",""assignmentId"":""551c170a-1e6f-4ed3-8024-a9ddcae4e459"",""projectId"":""051c06f1-75cc-4548-856d-4923ddaba0dc""}","https://test12345.live/?num_scrambled_semantic=8&num_scrambled_causal=4&num_scrambled_schematic=4&participantId=44CF20B773F943FAAD0E7129A94AC4E5&assignmentId=551c170a-1e6f-4ed3-8024-a9ddcae4e459&projectId=051c06f1-75cc-4548-856d-4923ddaba0dc","44CF20B773F943FAAD0E7129A94AC4E5-2025-05-15-19-24-16","[{""page_index"":0,""viewing_time"":210204}]","210204","","","","",""
"","","","","","instructions","2","312700","0.0-2.0","44CF20B773F943FAAD0E7129A94AC4E5","44CF20B773F943FAAD0E7129A94AC4E5","551c170a-1e6f-4ed3-8024-a9ddcae4e459","051c06f1-75cc-4548-856d-4923ddaba0dc","{""num_scrambled_semantic"":""8"",""num_scrambled_causal"":""4"",""num_scrambled_schematic"":""4"",""participantId"":""44CF20B773F943FAAD0E7129A94AC4E5"",""assignmentId"":""551c170a-1e6f-4ed3-8024-a9ddcae4e459"",""projectId"":""051c06f1-75cc-4548-856d-4923ddaba0dc""}","https://test12345.live/?num_scrambled_semantic=8&num_scrambled_causal=4&num_scrambled_schematic=4&participantId=44CF20B773F943FAAD0E7129A94AC4E5&assignmentId=551c170a-1e6f-4ed3-8024-a9ddcae4e459&projectId=051c06f1-75cc-4548-856d-4923ddaba0dc","44CF20B773F943FAAD0E7129A94AC4E5-2025-05-15-19-24-16","[{""page_index"":0,""viewing_time"":11397}]","11397","","","","",""
"true","","","","","fullscreen","3","315536","0.0-3.0","44CF20B773F943FAAD0E7129A94AC4E5","44CF20B773F943FAAD0E7129A94AC4E5","551c170a-1e6f-4ed3-8024-a9ddcae4e459","051c06f1-75cc-4548-856d-4923ddaba0dc","{""num_scrambled_semantic"":""8"",""num_scrambled_causal"":""4"",""num_scrambled_schematic"":""4"",""participantId"":""44CF20B773F943FAAD0E7129A94AC4E5"",""assignmentId"":""551c170a-1e6f-4ed3-8024-a9ddcae4e459"",""projectId"":""051c06f1-75cc-4548-856d-4923ddaba0dc""}","https://test12345.live/?num_scrambled_semantic=8&num_scrambled_causal=4&num_scrambled_schematic=4&participantId=44CF20B773F943FAAD0E7129A94AC4E5&assignmentId=551c170a-1e6f-4ed3-8024-a9ddcae4e459&projectId=051c06f1-75cc-4548-856d-4923ddaba0dc","44CF20B773F943FAAD0E7129A94AC4E5-2025-05-15-19-24-16","","1832","","","","",""
"","","","","","initialize-microphone","4","320926","0.0-4.0-0.0","44CF20B773F943FAAD0E7129A94AC4E5","44CF20B773F943FAAD0E7129A94AC4E5","551c170a-1e6f-4ed3-8024-a9ddcae4e459","051c06f1-75cc-4548-856d-4923ddaba0dc","{""num_scrambled_semantic"":""8"",""num_scrambled_causal"":""4"",""num_scrambled_schematic"":""4"",""participantId"":""44CF20B773F943FAAD0E7129A94AC4E5"",""assignmentId"":""551c170a-1e6f-4ed3-8024-a9ddcae4e459"",""projectId"":""051c06f1-75cc-4548-856d-4923ddaba0dc""}","https://test12345.live/?num_scrambled_semantic=8&num_scrambled_causal=4&num_scrambled_schematic=4&participantId=44CF20B773F943FAAD0E7129A94AC4E5&assignmentId=551c170a-1e6f-4ed3-8024-a9ddcae4e459&projectId=051c06f1-75cc-4548-856d-4923ddaba0dc","44CF20B773F943FAAD0E7129A94AC4E5-2025-05-15-19-24-16","","","a435aeb97ab95ede59dc2945f8f4eafa6eb7bf732792675cab40800d41e5288f","","","",""
"","","","","","html-audio-response","5","333067","0.0-4.0-1.0","44CF20B773F943FAAD0E7129A94AC4E5","44CF20B773F943FAAD0E7129A94AC4E5","551c170a-1e6f-4ed3-8024-a9ddcae4e459","051c06f1-75cc-4548-856d-4923ddaba0dc","{""num_scrambled_semantic"":""8"",""num_scrambled_causal"":""4"",""num_scrambled_schematic"":""4"",""participantId"":""44CF20B773F943FAAD0E7129A94AC4E5"",""assignmentId"":""551c170a-1e6f-4ed3-8024-a9ddcae4e459"",""projectId"":""051c06f1-75cc-4548-856d-4923ddaba0dc""}","https://test12345.live/?num_scrambled_semantic=8&num_scrambled_causal=4&num_scrambled_schematic=4&participantId=44CF20B773F943FAAD0E7129A94AC4E5&assignmentId=551c170a-1e6f-4ed3-8024-a9ddcae4e459&projectId=051c06f1-75cc-4548-856d-4923ddaba0dc","44CF20B773F943FAAD0E7129A94AC4E5-2025-05-15-19-24-16","","5764","","<span style=""color: red; font-size: 24px""> NOW RECORDING</span>
        <p>Please test Microphone</p>","","5",""
"","","","","","html-button-response","6","335484","0.0-4.0-2.0","44CF20B773F943FAAD0E7129A94AC4E5","44CF20B773F943FAAD0E7129A94AC4E5","551c170a-1e6f-4ed3-8024-a9ddcae4e459","051c06f1-75cc-4548-856d-4923ddaba0dc","{""num_scrambled_semantic"":""8"",""num_scrambled_causal"":""4"",""num_scrambled_schematic"":""4"",""participantId"":""44CF20B773F943FAAD0E7129A94AC4E5"",""assignmentId"":""551c170a-1e6f-4ed3-8024-a9ddcae4e459"",""projectId"":""051c06f1-75cc-4548-856d-4923ddaba0dc""}","https://test12345.live/?num_scrambled_semantic=8&num_scrambled_causal=4&num_scrambled_schematic=4&participantId=44CF20B773F943FAAD0E7129A94AC4E5&assignmentId=551c170a-1e6f-4ed3-8024-a9ddcae4e459&projectId=051c06f1-75cc-4548-856d-4923ddaba0dc","44CF20B773F943FAAD0E7129A94AC4E5-2025-05-15-19-24-16","","2416","","<p style=""font-size:48px; color:red;"">Is Microphone OK?</p>","1","",""
"","","","","","instructions","7","352500","0.0-5.0","44CF20B773F943FAAD0E7129A94AC4E5","44CF20B773F943FAAD0E7129A94AC4E5","551c170a-1e6f-4ed3-8024-a9ddcae4e459","051c06f1-75cc-4548-856d-4923ddaba0dc","{""num_scrambled_semantic"":""8"",""num_scrambled_causal"":""4"",""num_scrambled_schematic"":""4"",""participantId"":""44CF20B773F943FAAD0E7129A94AC4E5"",""assignmentId"":""551c170a-1e6f-4ed3-8024-a9ddcae4e459"",""projectId"":""051c06f1-75cc-4548-856d-4923ddaba0dc""}","https://test12345.live/?num_scrambled_semantic=8&num_scrambled_causal=4&num_scrambled_schematic=4&participantId=44CF20B773F943FAAD0E7129A94AC4E5&assignmentId=551c170a-1e6f-4ed3-8024-a9ddcae4e459&projectId=051c06f1-75cc-4548-856d-4923ddaba0dc","44CF20B773F943FAAD0E7129A94AC4E5-2025-05-15-19-24-16","[{""page_index"":0,""viewing_time"":5033},{""page_index"":1,""viewing_time"":11982}]","17015","","","","",""
"","","","","","image-button-response","8","358508","0.0-6.0-0.0","44CF20B773F943FAAD0E7129A94AC4E5","44CF20B773F943FAAD0E7129A94AC4E5","551c170a-1e6f-4ed3-8024-a9ddcae4e459","051c06f1-75cc-4548-856d-4923ddaba0dc","{""num_scrambled_semantic"":""8"",""num_scrambled_causal"":""4"",""num_scrambled_schematic"":""4"",""participantId"":""44CF20B773F943FAAD0E7129A94AC4E5"",""assignmentId"":""551c170a-1e6f-4ed3-8024-a9ddcae4e459"",""projectId"":""051c06f1-75cc-4548-856d-4923ddaba0dc""}","https://test12345.live/?num_scrambled_semantic=8&num_scrambled_causal=4&num_scrambled_schematic=4&participantId=44CF20B773F943FAAD0E7129A94AC4E5&assignmentId=551c170a-1e6f-4ed3-8024-a9ddcae4e459&projectId=051c06f1-75cc-4548-856d-4923ddaba0dc","44CF20B773F943FAAD0E7129A94AC4E5-2025-05-15-19-24-16","","null","","images/instructions/movie_0.png","null","",""
"","","","","","image-button-response","9","363012","0.0-6.0-1.0-0.0","44CF20B773F943FAAD0E7129A94AC4E5","44CF20B773F943FAAD0E7129A94AC4E5","551c170a-1e6f-4ed3-8024-a9ddcae4e459","051c06f1-75cc-4548-856d-4923ddaba0dc","{""num_scrambled_semantic"":""8"",""num_scrambled_causal"":""4"",""num_scrambled_schematic"":""4"",""participantId"":""44CF20B773F943FAAD0E7129A94AC4E5"",""assignmentId"":""551c170a-1e6f-4ed3-8024-a9ddcae4e459"",""projectId"":""051c06f1-75cc-4548-856d-4923ddaba0dc""}","https://test12345.live/?num_scrambled_semantic=8&num_scrambled_causal=4&num_scrambled_schematic=4&participantId=44CF20B773F943FAAD0E7129A94AC4E5&assignmentId=551c170a-1e6f-4ed3-8024-a9ddcae4e459&projectId=051c06f1-75cc-4548-856d-4923ddaba0dc","44CF20B773F943FAAD0E7129A94AC4E5-2025-05-15-19-24-16","","null","","images/instructions/movie_1.png","null","",""
"","","","","","image-button-response","10","365852","0.0-6.0-1.0-1.0","44CF20B773F943FAAD0E7129A94AC4E5","44CF20B773F943FAAD0E7129A94AC4E5","551c170a-1e6f-4ed3-8024-a9ddcae4e459","051c06f1-75cc-4548-856d-4923ddaba0dc","{""num_scrambled_semantic"":""8"",""num_scrambled_causal"":""4"",""num_scrambled_schematic"":""4"",""participantId"":""44CF20B773F943FAAD0E7129A94AC4E5"",""assignmentId"":""551c170a-1e6f-4ed3-8024-a9ddcae4e459"",""projectId"":""051c06f1-75cc-4548-856d-4923ddaba0dc""}","https://test12345.live/?num_scrambled_semantic=8&num_scrambled_causal=4&num_scrambled_schematic=4&participantId=44CF20B773F943FAAD0E7129A94AC4E5&assignmentId=551c170a-1e6f-4ed3-8024-a9ddcae4e459&projectId=051c06f1-75cc-4548-856d-4923ddaba0dc","44CF20B773F943FAAD0E7129A94AC4E5-2025-05-15-19-24-16","","2837","","images/instructions/movie_1.png","0","",""
"","","","","","image-button-response","11","367658","0.0-6.0-1.0-2.0","44CF20B773F943FAAD0E7129A94AC4E5","44CF20B773F943FAAD0E7129A94AC4E5","551c170a-1e6f-4ed3-8024-a9ddcae4e459","051c06f1-75cc-4548-856d-4923ddaba0dc","{""num_scrambled_semantic"":""8"",""num_scrambled_causal"":""4"",""num_scrambled_schematic"":""4"",""participantId"":""44CF20B773F943FAAD0E7129A94AC4E5"",""assignmentId"":""551c170a-1e6f-4ed3-8024-a9ddcae4e459"",""projectId"":""051c06f1-75cc-4548-856d-4923ddaba0dc""}","https://test12345.live/?num_scrambled_semantic=8&num_scrambled_causal=4&num_scrambled_schematic=4&participantId=44CF20B773F943FAAD0E7129A94AC4E5&assignmentId=551c170a-1e6f-4ed3-8024-a9ddcae4e459&projectId=051c06f1-75cc-4548-856d-4923ddaba0dc","44CF20B773F943FAAD0E7129A94AC4E5-2025-05-15-19-24-16","","null","","[]","null","",""
"","","","","","image-button-response","12","372162","0.0-6.0-1.0-0.1","44CF20B773F943FAAD0E7129A94AC4E5","44CF20B773F943FAAD0E7129A94AC4E5","551c170a-1e6f-4ed3-8024-a9ddcae4e459","051c06f1-75cc-4548-856d-4923ddaba0dc","{""num_scrambled_semantic"":""8"",""num_scrambled_causal"":""4"",""num_scrambled_schematic"":""4"",""participantId"":""44CF20B773F943FAAD0E7129A94AC4E5"",""assignmentId"":""551c170a-1e6f-4ed3-8024-a9ddcae4e459"",""projectId"":""051c06f1-75cc-4548-856d-4923ddaba0dc""}","https://test12345.live/?num_scrambled_semantic=8&num_scrambled_causal=4&num_scrambled_schematic=4&participantId=44CF20B773F943FAAD0E7129A94AC4E5&assignmentId=551c170a-1e6f-4ed3-8024-a9ddcae4e459&projectId=051c06f1-75cc-4548-856d-4923ddaba0dc","44CF20B773F943FAAD0E7129A94AC4E5-2025-05-15-19-24-16","","null","","images/instructions/movie_2.png","null","",""
"","","","","","image-button-response","13","374219","0.0-6.0-1.0-1.1","44CF20B773F943FAAD0E7129A94AC4E5","44CF20B773F943FAAD0E7129A94AC4E5","551c170a-1e6f-4ed3-8024-a9ddcae4e459","051c06f1-75cc-4548-856d-4923ddaba0dc","{""num_scrambled_semantic"":""8"",""num_scrambled_causal"":""4"",""num_scrambled_schematic"":""4"",""participantId"":""44CF20B773F943FAAD0E7129A94AC4E5"",""assignmentId"":""551c170a-1e6f-4ed3-8024-a9ddcae4e459"",""projectId"":""051c06f1-75cc-4548-856d-4923ddaba0dc""}","https://test12345.live/?num_scrambled_semantic=8&num_scrambled_causal=4&num_scrambled_schematic=4&participantId=44CF20B773F943FAAD0E7129A94AC4E5&assignmentId=551c170a-1e6f-4ed3-8024-a9ddcae4e459&projectId=051c06f1-75cc-4548-856d-4923ddaba0dc","44CF20B773F943FAAD0E7129A94AC4E5-2025-05-15-19-24-16","","2055","","images/instructions/movie_2.png","1","",""
"","","","","","image-button-response","14","376022","0.0-6.0-1.0-2.1","44CF20B773F943FAAD0E7129A94AC4E5","44CF20B773F943FAAD0E7129A94AC4E5","551c170a-1e6f-4ed3-8024-a9ddcae4e459","051c06f1-75cc-4548-856d-4923ddaba0dc","{""num_scrambled_semantic"":""8"",""num_scrambled_causal"":""4"",""num_scrambled_schematic"":""4"",""participantId"":""44CF20B773F943FAAD0E7129A94AC4E5"",""assignmentId"":""551c170a-1e6f-4ed3-8024-a9ddcae4e459"",""projectId"":""051c06f1-75cc-4548-856d-4923ddaba0dc""}","https://test12345.live/?num_scrambled_semantic=8&num_scrambled_causal=4&num_scrambled_schematic=4&participantId=44CF20B773F943FAAD0E7129A94AC4E5&assignmentId=551c170a-1e6f-4ed3-8024-a9ddcae4e459&projectId=051c06f1-75cc-4548-856d-4923ddaba0dc","44CF20B773F943FAAD0E7129A94AC4E5-2025-05-15-19-24-16","","null","","[]","null","",""
"","","","","","image-button-response","15","380526","0.0-6.0-1.0-0.2","44CF20B773F943FAAD0E7129A94AC4E5","44CF20B773F943FAAD0E7129A94AC4E5","551c170a-1e6f-4ed3-8024-a9ddcae4e459","051c06f1-75cc-4548-856d-4923ddaba0dc","{""num_scrambled_semantic"":""8"",""num_scrambled_causal"":""4"",""num_scrambled_schematic"":""4"",""participantId"":""44CF20B773F943FAAD0E7129A94AC4E5"",""assignmentId"":""551c170a-1e6f-4ed3-8024-a9ddcae4e459"",""projectId"":""051c06f1-75cc-4548-856d-4923ddaba0dc""}","https://test12345.live/?num_scrambled_semantic=8&num_scrambled_causal=4&num_scrambled_schematic=4&participantId=44CF20B773F943FAAD0E7129A94AC4E5&assignmentId=551c170a-1e6f-4ed3-8024-a9ddcae4e459&projectId=051c06f1-75cc-4548-856d-4923ddaba0dc","44CF20B773F943FAAD0E7129A94AC4E5-2025-05-15-19-24-16","","null","","images/instructions/movie_3.png","null","",""
"","","","","","image-button-response","16","381802","0.0-6.0-1.0-1.2","44CF20B773F943FAAD0E7129A94AC4E5","44CF20B773F943FAAD0E7129A94AC4E5","551c170a-1e6f-4ed3-8024-a9ddcae4e459","051c06f1-75cc-4548-856d-4923ddaba0dc","{""num_scrambled_semantic"":""8"",""num_scrambled_causal"":""4"",""num_scrambled_schematic"":""4"",""participantId"":""44CF20B773F943FAAD0E7129A94AC4E5"",""assignmentId"":""551c170a-1e6f-4ed3-8024-a9ddcae4e459"",""projectId"":""051c06f1-75cc-4548-856d-4923ddaba0dc""}","https://test12345.live/?num_scrambled_semantic=8&num_scrambled_causal=4&num_scrambled_schematic=4&participantId=44CF20B773F943FAAD0E7129A94AC4E5&assignmentId=551c170a-1e6f-4ed3-8024-a9ddcae4e459&projectId=051c06f1-75cc-4548-856d-4923ddaba0dc","44CF20B773F943FAAD0E7129A94AC4E5-2025-05-15-19-24-16","","1274","","images/instructions/movie_3.png","0","",""
"","","","","","image-button-response","17","383609","0.0-6.0-1.0-2.2","44CF20B773F943FAAD0E7129A94AC4E5","44CF20B773F943FAAD0E7129A94AC4E5","551c170a-1e6f-4ed3-8024-a9ddcae4e459","051c06f1-75cc-4548-856d-4923ddaba0dc","{""num_scrambled_semantic"":""8"",""num_scrambled_causal"":""4"",""num_scrambled_schematic"":""4"",""participantId"":""44CF20B773F943FAAD0E7129A94AC4E5"",""assignmentId"":""551c170a-1e6f-4ed3-8024-a9ddcae4e459"",""projectId"":""051c06f1-75cc-4548-856d-4923ddaba0dc""}","https://test12345.live/?num_scrambled_semantic=8&num_scrambled_causal=4&num_scrambled_schematic=4&participantId=44CF20B773F943FAAD0E7129A94AC4E5&assignmentId=551c170a-1e6f-4ed3-8024-a9ddcae4e459&projectId=051c06f1-75cc-4548-856d-4923ddaba0dc","44CF20B773F943FAAD0E7129A94AC4E5-2025-05-15-19-24-16","","null","","[]","null","",""
"","","","","","image-button-response","18","388113","0.0-6.0-1.0-0.3","44CF20B773F943FAAD0E7129A94AC4E5","44CF20B773F943FAAD0E7129A94AC4E5","551c170a-1e6f-4ed3-8024-a9ddcae4e459","051c06f1-75cc-4548-856d-4923ddaba0dc","{""num_scrambled_semantic"":""8"",""num_scrambled_causal"":""4"",""num_scrambled_schematic"":""4"",""participantId"":""44CF20B773F943FAAD0E7129A94AC4E5"",""assignmentId"":""551c170a-1e6f-4ed3-8024-a9ddcae4e459"",""projectId"":""051c06f1-75cc-4548-856d-4923ddaba0dc""}","https://test12345.live/?num_scrambled_semantic=8&num_scrambled_causal=4&num_scrambled_schematic=4&participantId=44CF20B773F943FAAD0E7129A94AC4E5&assignmentId=551c170a-1e6f-4ed3-8024-a9ddcae4e459&projectId=051c06f1-75cc-4548-856d-4923ddaba0dc","44CF20B773F943FAAD0E7129A94AC4E5-2025-05-15-19-24-16","","null","","images/instructions/movie_4.png","null","",""
"","","","","","image-button-response","19","389402","0.0-6.0-1.0-1.3","44CF20B773F943FAAD0E7129A94AC4E5","44CF20B773F943FAAD0E7129A94AC4E5","551c170a-1e6f-4ed3-8024-a9ddcae4e459","051c06f1-75cc-4548-856d-4923ddaba0dc","{""num_scrambled_semantic"":""8"",""num_scrambled_causal"":""4"",""num_scrambled_schematic"":""4"",""participantId"":""44CF20B773F943FAAD0E7129A94AC4E5"",""assignmentId"":""551c170a-1e6f-4ed3-8024-a9ddcae4e459"",""projectId"":""051c06f1-75cc-4548-856d-4923ddaba0dc""}","https://test12345.live/?num_scrambled_semantic=8&num_scrambled_causal=4&num_scrambled_schematic=4&participantId=44CF20B773F943FAAD0E7129A94AC4E5&assignmentId=551c170a-1e6f-4ed3-8024-a9ddcae4e459&projectId=051c06f1-75cc-4548-856d-4923ddaba0dc","44CF20B773F943FAAD0E7129A94AC4E5-2025-05-15-19-24-16","","1287","","images/instructions/movie_4.png","0","",""
"","","","","","image-button-response","20","391209","0.0-6.0-1.0-2.3","44CF20B773F943FAAD0E7129A94AC4E5","44CF20B773F943FAAD0E7129A94AC4E5","551c170a-1e6f-4ed3-8024-a9ddcae4e459","051c06f1-75cc-4548-856d-4923ddaba0dc","{""num_scrambled_semantic"":""8"",""num_scrambled_causal"":""4"",""num_scrambled_schematic"":""4"",""participantId"":""44CF20B773F943FAAD0E7129A94AC4E5"",""assignmentId"":""551c170a-1e6f-4ed3-8024-a9ddcae4e459"",""projectId"":""051c06f1-75cc-4548-856d-4923ddaba0dc""}","https://test12345.live/?num_scrambled_semantic=8&num_scrambled_causal=4&num_scrambled_schematic=4&participantId=44CF20B773F943FAAD0E7129A94AC4E5&assignmentId=551c170a-1e6f-4ed3-8024-a9ddcae4e459&projectId=051c06f1-75cc-4548-856d-4923ddaba0dc","44CF20B773F943FAAD0E7129A94AC4E5-2025-05-15-19-24-16","","null","","[]","null","",""
"","","","","","instructions","21","400601","0.0-7.0","44CF20B773F943FAAD0E7129A94AC4E5","44CF20B773F943FAAD0E7129A94AC4E5","551c170a-1e6f-4ed3-8024-a9ddcae4e459","051c06f1-75cc-4548-856d-4923ddaba0dc","{""num_scrambled_semantic"":""8"",""num_scrambled_causal"":""4"",""num_scrambled_schematic"":""4"",""participantId"":""44CF20B773F943FAAD0E7129A94AC4E5"",""assignmentId"":""551c170a-1e6f-4ed3-8024-a9ddcae4e459"",""projectId"":""051c06f1-75cc-4548-856d-4923ddaba0dc""}","https://test12345.live/?num_scrambled_semantic=8&num_scrambled_causal=4&num_scrambled_schematic=4&participantId=44CF20B773F943FAAD0E7129A94AC4E5&assignmentId=551c170a-1e6f-4ed3-8024-a9ddcae4e459&projectId=051c06f1-75cc-4548-856d-4923ddaba0dc","44CF20B773F943FAAD0E7129A94AC4E5-2025-05-15-19-24-16","[{""page_index"":0,""viewing_time"":7558},{""page_index"":1,""viewing_time"":1833}]","9391","","","","",""
"","","","","","html-audio-response","22","482803","0.0-8.0","44CF20B773F943FAAD0E7129A94AC4E5","44CF20B773F943FAAD0E7129A94AC4E5","551c170a-1e6f-4ed3-8024-a9ddcae4e459","051c06f1-75cc-4548-856d-4923ddaba0dc","{""num_scrambled_semantic"":""8"",""num_scrambled_causal"":""4"",""num_scrambled_schematic"":""4"",""participantId"":""44CF20B773F943FAAD0E7129A94AC4E5"",""assignmentId"":""551c170a-1e6f-4ed3-8024-a9ddcae4e459"",""projectId"":""051c06f1-75cc-4548-856d-4923ddaba0dc""}","https://test12345.live/?num_scrambled_semantic=8&num_scrambled_causal=4&num_scrambled_schematic=4&participantId=44CF20B773F943FAAD0E7129A94AC4E5&assignmentId=551c170a-1e6f-4ed3-8024-a9ddcae4e459&projectId=051c06f1-75cc-4548-856d-4923ddaba0dc","44CF20B773F943FAAD0E7129A94AC4E5-2025-05-15-19-24-16","","39847","","[""<span style=\""color: red; font-size: 24px\""> NOW RECORDING</span><p>Please say out loud all the images you saw, as many as you can remember. The images can be said in any order.</p>""]","","2",""
"","","","","","instructions","23","484670","0.0-9.0","44CF20B773F943FAAD0E7129A94AC4E5","44CF20B773F943FAAD0E7129A94AC4E5","551c170a-1e6f-4ed3-8024-a9ddcae4e459","051c06f1-75cc-4548-856d-4923ddaba0dc","{""num_scrambled_semantic"":""8"",""num_scrambled_causal"":""4"",""num_scrambled_schematic"":""4"",""participantId"":""44CF20B773F943FAAD0E7129A94AC4E5"",""assignmentId"":""551c170a-1e6f-4ed3-8024-a9ddcae4e459"",""projectId"":""051c06f1-75cc-4548-856d-4923ddaba0dc""}","https://test12345.live/?num_scrambled_semantic=8&num_scrambled_causal=4&num_scrambled_schematic=4&participantId=44CF20B773F943FAAD0E7129A94AC4E5&assignmentId=551c170a-1e6f-4ed3-8024-a9ddcae4e459&projectId=051c06f1-75cc-4548-856d-4923ddaba0dc","44CF20B773F943FAAD0E7129A94AC4E5-2025-05-15-19-24-16","[{""page_index"":0,""viewing_time"":1860}]","1860","","","","",""
"","","","","","image-button-response","24","490674","0.0-10.0-0.0","44CF20B773F943FAAD0E7129A94AC4E5","44CF20B773F943FAAD0E7129A94AC4E5","551c170a-1e6f-4ed3-8024-a9ddcae4e459","051c06f1-75cc-4548-856d-4923ddaba0dc","{""num_scrambled_semantic"":""8"",""num_scrambled_causal"":""4"",""num_scrambled_schematic"":""4"",""participantId"":""44CF20B773F943FAAD0E7129A94AC4E5"",""assignmentId"":""551c170a-1e6f-4ed3-8024-a9ddcae4e459"",""projectId"":""051c06f1-75cc-4548-856d-4923ddaba0dc""}","https://test12345.live/?num_scrambled_semantic=8&num_scrambled_causal=4&num_scrambled_schematic=4&participantId=44CF20B773F943FAAD0E7129A94AC4E5&assignmentId=551c170a-1e6f-4ed3-8024-a9ddcae4e459&projectId=051c06f1-75cc-4548-856d-4923ddaba0dc","44CF20B773F943FAAD0E7129A94AC4E5-2025-05-15-19-24-16","","null","","images/schematic_sequence/flight_scheme/flight_scheme_0.png","null","",""
"","","","","","image-button-response","25","495180","0.0-10.0-1.0-0.0","44CF20B773F943FAAD0E7129A94AC4E5","44CF20B773F943FAAD0E7129A94AC4E5","551c170a-1e6f-4ed3-8024-a9ddcae4e459","051c06f1-75cc-4548-856d-4923ddaba0dc","{""num_scrambled_semantic"":""8"",""num_scrambled_causal"":""4"",""num_scrambled_schematic"":""4"",""participantId"":""44CF20B773F943FAAD0E7129A94AC4E5"",""assignmentId"":""551c170a-1e6f-4ed3-8024-a9ddcae4e459"",""projectId"":""051c06f1-75cc-4548-856d-4923ddaba0dc""}","https://test12345.live/?num_scrambled_semantic=8&num_scrambled_causal=4&num_scrambled_schematic=4&participantId=44CF20B773F943FAAD0E7129A94AC4E5&assignmentId=551c170a-1e6f-4ed3-8024-a9ddcae4e459&projectId=051c06f1-75cc-4548-856d-4923ddaba0dc","44CF20B773F943FAAD0E7129A94AC4E5-2025-05-15-19-24-16","","null","","images/schematic_sequence/flight_scheme/flight_scheme_1.png","null","",""
"","","","","","image-button-response","26","498737","0.0-10.0-1.0-1.0","44CF20B773F943FAAD0E7129A94AC4E5","44CF20B773F943FAAD0E7129A94AC4E5","551c170a-1e6f-4ed3-8024-a9ddcae4e459","051c06f1-75cc-4548-856d-4923ddaba0dc","{""num_scrambled_semantic"":""8"",""num_scrambled_causal"":""4"",""num_scrambled_schematic"":""4"",""participantId"":""44CF20B773F943FAAD0E7129A94AC4E5"",""assignmentId"":""551c170a-1e6f-4ed3-8024-a9ddcae4e459"",""projectId"":""051c06f1-75cc-4548-856d-4923ddaba0dc""}","https://test12345.live/?num_scrambled_semantic=8&num_scrambled_causal=4&num_scrambled_schematic=4&participantId=44CF20B773F943FAAD0E7129A94AC4E5&assignmentId=551c170a-1e6f-4ed3-8024-a9ddcae4e459&projectId=051c06f1-75cc-4548-856d-4923ddaba0dc","44CF20B773F943FAAD0E7129A94AC4E5-2025-05-15-19-24-16","","3555","","images/schematic_sequence/flight_scheme/flight_scheme_1.png","0","",""
"","","","","","image-button-response","27","500543","0.0-10.0-1.0-2.0","44CF20B773F943FAAD0E7129A94AC4E5","44CF20B773F943FAAD0E7129A94AC4E5","551c170a-1e6f-4ed3-8024-a9ddcae4e459","051c06f1-75cc-4548-856d-4923ddaba0dc","{""num_scrambled_semantic"":""8"",""num_scrambled_causal"":""4"",""num_scrambled_schematic"":""4"",""participantId"":""44CF20B773F943FAAD0E7129A94AC4E5"",""assignmentId"":""551c170a-1e6f-4ed3-8024-a9ddcae4e459"",""projectId"":""051c06f1-75cc-4548-856d-4923ddaba0dc""}","https://test12345.live/?num_scrambled_semantic=8&num_scrambled_causal=4&num_scrambled_schematic=4&participantId=44CF20B773F943FAAD0E7129A94AC4E5&assignmentId=551c170a-1e6f-4ed3-8024-a9ddcae4e459&projectId=051c06f1-75cc-4548-856d-4923ddaba0dc","44CF20B773F943FAAD0E7129A94AC4E5-2025-05-15-19-24-16","","null","","[]","null","",""
"","","","","","image-button-response","28","505050","0.0-10.0-1.0-0.1","44CF20B773F943FAAD0E7129A94AC4E5","44CF20B773F943FAAD0E7129A94AC4E5","551c170a-1e6f-4ed3-8024-a9ddcae4e459","051c06f1-75cc-4548-856d-4923ddaba0dc","{""num_scrambled_semantic"":""8"",""num_scrambled_causal"":""4"",""num_scrambled_schematic"":""4"",""participantId"":""44CF20B773F943FAAD0E7129A94AC4E5"",""assignmentId"":""551c170a-1e6f-4ed3-8024-a9ddcae4e459"",""projectId"":""051c06f1-75cc-4548-856d-4923ddaba0dc""}","https://test12345.live/?num_scrambled_semantic=8&num_scrambled_causal=4&num_scrambled_schematic=4&participantId=44CF20B773F943FAAD0E7129A94AC4E5&assignmentId=551c170a-1e6f-4ed3-8024-a9ddcae4e459&projectId=051c06f1-75cc-4548-856d-4923ddaba0dc","44CF20B773F943FAAD0E7129A94AC4E5-2025-05-15-19-24-16","","null","","images/schematic_sequence/flight_scheme/flight_scheme_2.png","null","",""
"","","","","","image-button-response","29","506604","0.0-10.0-1.0-1.1","44CF20B773F943FAAD0E7129A94AC4E5","44CF20B773F943FAAD0E7129A94AC4E5","551c170a-1e6f-4ed3-8024-a9ddcae4e459","051c06f1-75cc-4548-856d-4923ddaba0dc","{""num_scrambled_semantic"":""8"",""num_scrambled_causal"":""4"",""num_scrambled_schematic"":""4"",""participantId"":""44CF20B773F943FAAD0E7129A94AC4E5"",""assignmentId"":""551c170a-1e6f-4ed3-8024-a9ddcae4e459"",""projectId"":""051c06f1-75cc-4548-856d-4923ddaba0dc""}","https://test12345.live/?num_scrambled_semantic=8&num_scrambled_causal=4&num_scrambled_schematic=4&participantId=44CF20B773F943FAAD0E7129A94AC4E5&assignmentId=551c170a-1e6f-4ed3-8024-a9ddcae4e459&projectId=051c06f1-75cc-4548-856d-4923ddaba0dc","44CF20B773F943FAAD0E7129A94AC4E5-2025-05-15-19-24-16","","1551","","images/schematic_sequence/flight_scheme/flight_scheme_2.png","1","",""
"","","","","","image-button-response","30","508410","0.0-10.0-1.0-2.1","44CF20B773F943FAAD0E7129A94AC4E5","44CF20B773F943FAAD0E7129A94AC4E5","551c170a-1e6f-4ed3-8024-a9ddcae4e459","051c06f1-75cc-4548-856d-4923ddaba0dc","{""num_scrambled_semantic"":""8"",""num_scrambled_causal"":""4"",""num_scrambled_schematic"":""4"",""participantId"":""44CF20B773F943FAAD0E7129A94AC4E5"",""assignmentId"":""551c170a-1e6f-4ed3-8024-a9ddcae4e459"",""projectId"":""051c06f1-75cc-4548-856d-4923ddaba0dc""}","https://test12345.live/?num_scrambled_semantic=8&num_scrambled_causal=4&num_scrambled_schematic=4&participantId=44CF20B773F943FAAD0E7129A94AC4E5&assignmentId=551c170a-1e6f-4ed3-8024-a9ddcae4e459&projectId=051c06f1-75cc-4548-856d-4923ddaba0dc","44CF20B773F943FAAD0E7129A94AC4E5-2025-05-15-19-24-16","","null","","[]","null","",""
"","","","","","image-button-response","31","512917","0.0-10.0-1.0-0.2","44CF20B773F943FAAD0E7129A94AC4E5","44CF20B773F943FAAD0E7129A94AC4E5","551c170a-1e6f-4ed3-8024-a9ddcae4e459","051c06f1-75cc-4548-856d-4923ddaba0dc","{""num_scrambled_semantic"":""8"",""num_scrambled_causal"":""4"",""num_scrambled_schematic"":""4"",""participantId"":""44CF20B773F943FAAD0E7129A94AC4E5"",""assignmentId"":""551c170a-1e6f-4ed3-8024-a9ddcae4e459"",""projectId"":""051c06f1-75cc-4548-856d-4923ddaba0dc""}","https://test12345.live/?num_scrambled_semantic=8&num_scrambled_causal=4&num_scrambled_schematic=4&participantId=44CF20B773F943FAAD0E7129A94AC4E5&assignmentId=551c170a-1e6f-4ed3-8024-a9ddcae4e459&projectId=051c06f1-75cc-4548-856d-4923ddaba0dc","44CF20B773F943FAAD0E7129A94AC4E5-2025-05-15-19-24-16","","null","","images/schematic_sequence/flight_scheme/flight_scheme_3.png","null","",""
"","","","","","image-button-response","32","515237","0.0-10.0-1.0-1.2","44CF20B773F943FAAD0E7129A94AC4E5","44CF20B773F943FAAD0E7129A94AC4E5","551c170a-1e6f-4ed3-8024-a9ddcae4e459","051c06f1-75cc-4548-856d-4923ddaba0dc","{""num_scrambled_semantic"":""8"",""num_scrambled_causal"":""4"",""num_scrambled_schematic"":""4"",""participantId"":""44CF20B773F943FAAD0E7129A94AC4E5"",""assignmentId"":""551c170a-1e6f-4ed3-8024-a9ddcae4e459"",""projectId"":""051c06f1-75cc-4548-856d-4923ddaba0dc""}","https://test12345.live/?num_scrambled_semantic=8&num_scrambled_causal=4&num_scrambled_schematic=4&participantId=44CF20B773F943FAAD0E7129A94AC4E5&assignmentId=551c170a-1e6f-4ed3-8024-a9ddcae4e459&projectId=051c06f1-75cc-4548-856d-4923ddaba0dc","44CF20B773F943FAAD0E7129A94AC4E5-2025-05-15-19-24-16","","2318","","images/schematic_sequence/flight_scheme/flight_scheme_3.png","0","",""
"","","","","","image-button-response","33","517044","0.0-10.0-1.0-2.2","44CF20B773F943FAAD0E7129A94AC4E5","44CF20B773F943FAAD0E7129A94AC4E5","551c170a-1e6f-4ed3-8024-a9ddcae4e459","051c06f1-75cc-4548-856d-4923ddaba0dc","{""num_scrambled_semantic"":""8"",""num_scrambled_causal"":""4"",""num_scrambled_schematic"":""4"",""participantId"":""44CF20B773F943FAAD0E7129A94AC4E5"",""assignmentId"":""551c170a-1e6f-4ed3-8024-a9ddcae4e459"",""projectId"":""051c06f1-75cc-4548-856d-4923ddaba0dc""}","https://test12345.live/?num_scrambled_semantic=8&num_scrambled_causal=4&num_scrambled_schematic=4&participantId=44CF20B773F943FAAD0E7129A94AC4E5&assignmentId=551c170a-1e6f-4ed3-8024-a9ddcae4e459&projectId=051c06f1-75cc-4548-856d-4923ddaba0dc","44CF20B773F943FAAD0E7129A94AC4E5-2025-05-15-19-24-16","","null","","[]","null","",""
"","","","","","image-button-response","34","521548","0.0-10.0-1.0-0.3","44CF20B773F943FAAD0E7129A94AC4E5","44CF20B773F943FAAD0E7129A94AC4E5","551c170a-1e6f-4ed3-8024-a9ddcae4e459","051c06f1-75cc-4548-856d-4923ddaba0dc","{""num_scrambled_semantic"":""8"",""num_scrambled_causal"":""4"",""num_scrambled_schematic"":""4"",""participantId"":""44CF20B773F943FAAD0E7129A94AC4E5"",""assignmentId"":""551c170a-1e6f-4ed3-8024-a9ddcae4e459"",""projectId"":""051c06f1-75cc-4548-856d-4923ddaba0dc""}","https://test12345.live/?num_scrambled_semantic=8&num_scrambled_causal=4&num_scrambled_schematic=4&participantId=44CF20B773F943FAAD0E7129A94AC4E5&assignmentId=551c170a-1e6f-4ed3-8024-a9ddcae4e459&projectId=051c06f1-75cc-4548-856d-4923ddaba0dc","44CF20B773F943FAAD0E7129A94AC4E5-2025-05-15-19-24-16","","null","","images/schematic_sequence/flight_scheme/flight_scheme_4.png","null","",""
"","","","","","image-button-response","35","525556","0.0-10.0-1.0-1.3","44CF20B773F943FAAD0E7129A94AC4E5","44CF20B773F943FAAD0E7129A94AC4E5","551c170a-1e6f-4ed3-8024-a9ddcae4e459","051c06f1-75cc-4548-856d-4923ddaba0dc","{""num_scrambled_semantic"":""8"",""num_scrambled_causal"":""4"",""num_scrambled_schematic"":""4"",""participantId"":""44CF20B773F943FAAD0E7129A94AC4E5"",""assignmentId"":""551c170a-1e6f-4ed3-8024-a9ddcae4e459"",""projectId"":""051c06f1-75cc-4548-856d-4923ddaba0dc""}","https://test12345.live/?num_scrambled_semantic=8&num_scrambled_causal=4&num_scrambled_schematic=4&participantId=44CF20B773F943FAAD0E7129A94AC4E5&assignmentId=551c170a-1e6f-4ed3-8024-a9ddcae4e459&projectId=051c06f1-75cc-4548-856d-4923ddaba0dc","44CF20B773F943FAAD0E7129A94AC4E5-2025-05-15-19-24-16","","null","","images/schematic_sequence/flight_scheme/flight_scheme_4.png","null","",""
"","","","","","image-button-response","36","527358","0.0-10.0-1.0-2.3","44CF20B773F943FAAD0E7129A94AC4E5","44CF20B773F943FAAD0E7129A94AC4E5","551c170a-1e6f-4ed3-8024-a9ddcae4e459","051c06f1-75cc-4548-856d-4923ddaba0dc","{""num_scrambled_semantic"":""8"",""num_scrambled_causal"":""4"",""num_scrambled_schematic"":""4"",""participantId"":""44CF20B773F943FAAD0E7129A94AC4E5"",""assignmentId"":""551c170a-1e6f-4ed3-8024-a9ddcae4e459"",""projectId"":""051c06f1-75cc-4548-856d-4923ddaba0dc""}","https://test12345.live/?num_scrambled_semantic=8&num_scrambled_causal=4&num_scrambled_schematic=4&participantId=44CF20B773F943FAAD0E7129A94AC4E5&assignmentId=551c170a-1e6f-4ed3-8024-a9ddcae4e459&projectId=051c06f1-75cc-4548-856d-4923ddaba0dc","44CF20B773F943FAAD0E7129A94AC4E5-2025-05-15-19-24-16","","null","","[]","null","",""
"","","","","","image-button-response","37","531864","0.0-10.0-1.0-0.4","44CF20B773F943FAAD0E7129A94AC4E5","44CF20B773F943FAAD0E7129A94AC4E5","551c170a-1e6f-4ed3-8024-a9ddcae4e459","051c06f1-75cc-4548-856d-4923ddaba0dc","{""num_scrambled_semantic"":""8"",""num_scrambled_causal"":""4"",""num_scrambled_schematic"":""4"",""participantId"":""44CF20B773F943FAAD0E7129A94AC4E5"",""assignmentId"":""551c170a-1e6f-4ed3-8024-a9ddcae4e459"",""projectId"":""051c06f1-75cc-4548-856d-4923ddaba0dc""}","https://test12345.live/?num_scrambled_semantic=8&num_scrambled_causal=4&num_scrambled_schematic=4&participantId=44CF20B773F943FAAD0E7129A94AC4E5&assignmentId=551c170a-1e6f-4ed3-8024-a9ddcae4e459&projectId=051c06f1-75cc-4548-856d-4923ddaba0dc","44CF20B773F943FAAD0E7129A94AC4E5-2025-05-15-19-24-16","","null","","images/schematic_sequence/flight_scheme/flight_scheme_5.png","null","",""
"","","","","","image-button-response","38","532488","0.0-10.0-1.0-1.4","44CF20B773F943FAAD0E7129A94AC4E5","44CF20B773F943FAAD0E7129A94AC4E5","551c170a-1e6f-4ed3-8024-a9ddcae4e459","051c06f1-75cc-4548-856d-4923ddaba0dc","{""num_scrambled_semantic"":""8"",""num_scrambled_causal"":""4"",""num_scrambled_schematic"":""4"",""participantId"":""44CF20B773F943FAAD0E7129A94AC4E5"",""assignmentId"":""551c170a-1e6f-4ed3-8024-a9ddcae4e459"",""projectId"":""051c06f1-75cc-4548-856d-4923ddaba0dc""}","https://test12345.live/?num_scrambled_semantic=8&num_scrambled_causal=4&num_scrambled_schematic=4&participantId=44CF20B773F943FAAD0E7129A94AC4E5&assignmentId=551c170a-1e6f-4ed3-8024-a9ddcae4e459&projectId=051c06f1-75cc-4548-856d-4923ddaba0dc","44CF20B773F943FAAD0E7129A94AC4E5-2025-05-15-19-24-16","","621","","images/schematic_sequence/flight_scheme/flight_scheme_5.png","0","",""
"","","","","","image-button-response","39","534294","0.0-10.0-1.0-2.4","44CF20B773F943FAAD0E7129A94AC4E5","44CF20B773F943FAAD0E7129A94AC4E5","551c170a-1e6f-4ed3-8024-a9ddcae4e459","051c06f1-75cc-4548-856d-4923ddaba0dc","{""num_scrambled_semantic"":""8"",""num_scrambled_causal"":""4"",""num_scrambled_schematic"":""4"",""participantId"":""44CF20B773F943FAAD0E7129A94AC4E5"",""assignmentId"":""551c170a-1e6f-4ed3-8024-a9ddcae4e459"",""projectId"":""051c06f1-75cc-4548-856d-4923ddaba0dc""}","https://test12345.live/?num_scrambled_semantic=8&num_scrambled_causal=4&num_scrambled_schematic=4&participantId=44CF20B773F943FAAD0E7129A94AC4E5&assignmentId=551c170a-1e6f-4ed3-8024-a9ddcae4e459&projectId=051c06f1-75cc-4548-856d-4923ddaba0dc","44CF20B773F943FAAD0E7129A94AC4E5-2025-05-15-19-24-16","","null","","[]","null","",""
"","","","","","image-button-response","40","538798","0.0-10.0-1.0-0.5","44CF20B773F943FAAD0E7129A94AC4E5","44CF20B773F943FAAD0E7129A94AC4E5","551c170a-1e6f-4ed3-8024-a9ddcae4e459","051c06f1-75cc-4548-856d-4923ddaba0dc","{""num_scrambled_semantic"":""8"",""num_scrambled_causal"":""4"",""num_scrambled_schematic"":""4"",""participantId"":""44CF20B773F943FAAD0E7129A94AC4E5"",""assignmentId"":""551c170a-1e6f-4ed3-8024-a9ddcae4e459"",""projectId"":""051c06f1-75cc-4548-856d-4923ddaba0dc""}","https://test12345.live/?num_scrambled_semantic=8&num_scrambled_causal=4&num_scrambled_schematic=4&participantId=44CF20B773F943FAAD0E7129A94AC4E5&assignmentId=551c170a-1e6f-4ed3-8024-a9ddcae4e459&projectId=051c06f1-75cc-4548-856d-4923ddaba0dc","44CF20B773F943FAAD0E7129A94AC4E5-2025-05-15-19-24-16","","null","","images/schematic_sequence/flight_scheme/flight_scheme_6.png","null","",""
"","","","","","image-button-response","41","541356","0.0-10.0-1.0-1.5","44CF20B773F943FAAD0E7129A94AC4E5","44CF20B773F943FAAD0E7129A94AC4E5","551c170a-1e6f-4ed3-8024-a9ddcae4e459","051c06f1-75cc-4548-856d-4923ddaba0dc","{""num_scrambled_semantic"":""8"",""num_scrambled_causal"":""4"",""num_scrambled_schematic"":""4"",""participantId"":""44CF20B773F943FAAD0E7129A94AC4E5"",""assignmentId"":""551c170a-1e6f-4ed3-8024-a9ddcae4e459"",""projectId"":""051c06f1-75cc-4548-856d-4923ddaba0dc""}","https://test12345.live/?num_scrambled_semantic=8&num_scrambled_causal=4&num_scrambled_schematic=4&participantId=44CF20B773F943FAAD0E7129A94AC4E5&assignmentId=551c170a-1e6f-4ed3-8024-a9ddcae4e459&projectId=051c06f1-75cc-4548-856d-4923ddaba0dc","44CF20B773F943FAAD0E7129A94AC4E5-2025-05-15-19-24-16","","2557","","images/schematic_sequence/flight_scheme/flight_scheme_6.png","1","",""
"","","","","","image-button-response","42","543163","0.0-10.0-1.0-2.5","44CF20B773F943FAAD0E7129A94AC4E5","44CF20B773F943FAAD0E7129A94AC4E5","551c170a-1e6f-4ed3-8024-a9ddcae4e459","051c06f1-75cc-4548-856d-4923ddaba0dc","{""num_scrambled_semantic"":""8"",""num_scrambled_causal"":""4"",""num_scrambled_schematic"":""4"",""participantId"":""44CF20B773F943FAAD0E7129A94AC4E5"",""assignmentId"":""551c170a-1e6f-4ed3-8024-a9ddcae4e459"",""projectId"":""051c06f1-75cc-4548-856d-4923ddaba0dc""}","https://test12345.live/?num_scrambled_semantic=8&num_scrambled_causal=4&num_scrambled_schematic=4&participantId=44CF20B773F943FAAD0E7129A94AC4E5&assignmentId=551c170a-1e6f-4ed3-8024-a9ddcae4e459&projectId=051c06f1-75cc-4548-856d-4923ddaba0dc","44CF20B773F943FAAD0E7129A94AC4E5-2025-05-15-19-24-16","","null","","[]","null","",""
"","","","","","image-button-response","43","547666","0.0-10.0-1.0-0.6","44CF20B773F943FAAD0E7129A94AC4E5","44CF20B773F943FAAD0E7129A94AC4E5","551c170a-1e6f-4ed3-8024-a9ddcae4e459","051c06f1-75cc-4548-856d-4923ddaba0dc","{""num_scrambled_semantic"":""8"",""num_scrambled_causal"":""4"",""num_scrambled_schematic"":""4"",""participantId"":""44CF20B773F943FAAD0E7129A94AC4E5"",""assignmentId"":""551c170a-1e6f-4ed3-8024-a9ddcae4e459"",""projectId"":""051c06f1-75cc-4548-856d-4923ddaba0dc""}","https://test12345.live/?num_scrambled_semantic=8&num_scrambled_causal=4&num_scrambled_schematic=4&participantId=44CF20B773F943FAAD0E7129A94AC4E5&assignmentId=551c170a-1e6f-4ed3-8024-a9ddcae4e459&projectId=051c06f1-75cc-4548-856d-4923ddaba0dc","44CF20B773F943FAAD0E7129A94AC4E5-2025-05-15-19-24-16","","null","","images/schematic_sequence/flight_scheme/flight_scheme_7.png","null","",""
"","","","","","image-button-response","44","548770","0.0-10.0-1.0-1.6","44CF20B773F943FAAD0E7129A94AC4E5","44CF20B773F943FAAD0E7129A94AC4E5","551c170a-1e6f-4ed3-8024-a9ddcae4e459","051c06f1-75cc-4548-856d-4923ddaba0dc","{""num_scrambled_semantic"":""8"",""num_scrambled_causal"":""4"",""num_scrambled_schematic"":""4"",""participantId"":""44CF20B773F943FAAD0E7129A94AC4E5"",""assignmentId"":""551c170a-1e6f-4ed3-8024-a9ddcae4e459"",""projectId"":""051c06f1-75cc-4548-856d-4923ddaba0dc""}","https://test12345.live/?num_scrambled_semantic=8&num_scrambled_causal=4&num_scrambled_schematic=4&participantId=44CF20B773F943FAAD0E7129A94AC4E5&assignmentId=551c170a-1e6f-4ed3-8024-a9ddcae4e459&projectId=051c06f1-75cc-4548-856d-4923ddaba0dc","44CF20B773F943FAAD0E7129A94AC4E5-2025-05-15-19-24-16","","1102","","images/schematic_sequence/flight_scheme/flight_scheme_7.png","1","",""
"","","","","","image-button-response","45","550577","0.0-10.0-1.0-2.6","44CF20B773F943FAAD0E7129A94AC4E5","44CF20B773F943FAAD0E7129A94AC4E5","551c170a-1e6f-4ed3-8024-a9ddcae4e459","051c06f1-75cc-4548-856d-4923ddaba0dc","{""num_scrambled_semantic"":""8"",""num_scrambled_causal"":""4"",""num_scrambled_schematic"":""4"",""participantId"":""44CF20B773F943FAAD0E7129A94AC4E5"",""assignmentId"":""551c170a-1e6f-4ed3-8024-a9ddcae4e459"",""projectId"":""051c06f1-75cc-4548-856d-4923ddaba0dc""}","https://test12345.live/?num_scrambled_semantic=8&num_scrambled_causal=4&num_scrambled_schematic=4&participantId=44CF20B773F943FAAD0E7129A94AC4E5&assignmentId=551c170a-1e6f-4ed3-8024-a9ddcae4e459&projectId=051c06f1-75cc-4548-856d-4923ddaba0dc","44CF20B773F943FAAD0E7129A94AC4E5-2025-05-15-19-24-16","","null","","[]","null","",""
"","","","","","image-button-response","46","555079","0.0-10.0-1.0-0.7","44CF20B773F943FAAD0E7129A94AC4E5","44CF20B773F943FAAD0E7129A94AC4E5","551c170a-1e6f-4ed3-8024-a9ddcae4e459","051c06f1-75cc-4548-856d-4923ddaba0dc","{""num_scrambled_semantic"":""8"",""num_scrambled_causal"":""4"",""num_scrambled_schematic"":""4"",""participantId"":""44CF20B773F943FAAD0E7129A94AC4E5"",""assignmentId"":""551c170a-1e6f-4ed3-8024-a9ddcae4e459"",""projectId"":""051c06f1-75cc-4548-856d-4923ddaba0dc""}","https://test12345.live/?num_scrambled_semantic=8&num_scrambled_causal=4&num_scrambled_schematic=4&participantId=44CF20B773F943FAAD0E7129A94AC4E5&assignmentId=551c170a-1e6f-4ed3-8024-a9ddcae4e459&projectId=051c06f1-75cc-4548-856d-4923ddaba0dc","44CF20B773F943FAAD0E7129A94AC4E5-2025-05-15-19-24-16","","null","","images/schematic_sequence/flight_scheme/flight_scheme_8.png","null","",""
"","","","","","image-button-response","47","555987","0.0-10.0-1.0-1.7","44CF20B773F943FAAD0E7129A94AC4E5","44CF20B773F943FAAD0E7129A94AC4E5","551c170a-1e6f-4ed3-8024-a9ddcae4e459","051c06f1-75cc-4548-856d-4923ddaba0dc","{""num_scrambled_semantic"":""8"",""num_scrambled_causal"":""4"",""num_scrambled_schematic"":""4"",""participantId"":""44CF20B773F943FAAD0E7129A94AC4E5"",""assignmentId"":""551c170a-1e6f-4ed3-8024-a9ddcae4e459"",""projectId"":""051c06f1-75cc-4548-856d-4923ddaba0dc""}","https://test12345.live/?num_scrambled_semantic=8&num_scrambled_causal=4&num_scrambled_schematic=4&participantId=44CF20B773F943FAAD0E7129A94AC4E5&assignmentId=551c170a-1e6f-4ed3-8024-a9ddcae4e459&projectId=051c06f1-75cc-4548-856d-4923ddaba0dc","44CF20B773F943FAAD0E7129A94AC4E5-2025-05-15-19-24-16","","906","","images/schematic_sequence/flight_scheme/flight_scheme_8.png","1","",""
"","","","","","image-button-response","48","557794","0.0-10.0-1.0-2.7","44CF20B773F943FAAD0E7129A94AC4E5","44CF20B773F943FAAD0E7129A94AC4E5","551c170a-1e6f-4ed3-8024-a9ddcae4e459","051c06f1-75cc-4548-856d-4923ddaba0dc","{""num_scrambled_semantic"":""8"",""num_scrambled_causal"":""4"",""num_scrambled_schematic"":""4"",""participantId"":""44CF20B773F943FAAD0E7129A94AC4E5"",""assignmentId"":""551c170a-1e6f-4ed3-8024-a9ddcae4e459"",""projectId"":""051c06f1-75cc-4548-856d-4923ddaba0dc""}","https://test12345.live/?num_scrambled_semantic=8&num_scrambled_causal=4&num_scrambled_schematic=4&participantId=44CF20B773F943FAAD0E7129A94AC4E5&assignmentId=551c170a-1e6f-4ed3-8024-a9ddcae4e459&projectId=051c06f1-75cc-4548-856d-4923ddaba0dc","44CF20B773F943FAAD0E7129A94AC4E5-2025-05-15-19-24-16","","null","","[]","null","",""
"","","","","","image-button-response","49","562299","0.0-10.0-1.0-0.8","44CF20B773F943FAAD0E7129A94AC4E5","44CF20B773F943FAAD0E7129A94AC4E5","551c170a-1e6f-4ed3-8024-a9ddcae4e459","051c06f1-75cc-4548-856d-4923ddaba0dc","{""num_scrambled_semantic"":""8"",""num_scrambled_causal"":""4"",""num_scrambled_schematic"":""4"",""participantId"":""44CF20B773F943FAAD0E7129A94AC4E5"",""assignmentId"":""551c170a-1e6f-4ed3-8024-a9ddcae4e459"",""projectId"":""051c06f1-75cc-4548-856d-4923ddaba0dc""}","https://test12345.live/?num_scrambled_semantic=8&num_scrambled_causal=4&num_scrambled_schematic=4&participantId=44CF20B773F943FAAD0E7129A94AC4E5&assignmentId=551c170a-1e6f-4ed3-8024-a9ddcae4e459&projectId=051c06f1-75cc-4548-856d-4923ddaba0dc","44CF20B773F943FAAD0E7129A94AC4E5-2025-05-15-19-24-16","","null","","images/schematic_sequence/flight_scheme/flight_scheme_9.png","null","",""
"","","","","","image-button-response","50","563788","0.0-10.0-1.0-1.8","44CF20B773F943FAAD0E7129A94AC4E5","44CF20B773F943FAAD0E7129A94AC4E5","551c170a-1e6f-4ed3-8024-a9ddcae4e459","051c06f1-75cc-4548-856d-4923ddaba0dc","{""num_scrambled_semantic"":""8"",""num_scrambled_causal"":""4"",""num_scrambled_schematic"":""4"",""participantId"":""44CF20B773F943FAAD0E7129A94AC4E5"",""assignmentId"":""551c170a-1e6f-4ed3-8024-a9ddcae4e459"",""projectId"":""051c06f1-75cc-4548-856d-4923ddaba0dc""}","https://test12345.live/?num_scrambled_semantic=8&num_scrambled_causal=4&num_scrambled_schematic=4&participantId=44CF20B773F943FAAD0E7129A94AC4E5&assignmentId=551c170a-1e6f-4ed3-8024-a9ddcae4e459&projectId=051c06f1-75cc-4548-856d-4923ddaba0dc","44CF20B773F943FAAD0E7129A94AC4E5-2025-05-15-19-24-16","","1486","","images/schematic_sequence/flight_scheme/flight_scheme_9.png","0","",""
"","","","","","image-button-response","51","565594","0.0-10.0-1.0-2.8","44CF20B773F943FAAD0E7129A94AC4E5","44CF20B773F943FAAD0E7129A94AC4E5","551c170a-1e6f-4ed3-8024-a9ddcae4e459","051c06f1-75cc-4548-856d-4923ddaba0dc","{""num_scrambled_semantic"":""8"",""num_scrambled_causal"":""4"",""num_scrambled_schematic"":""4"",""participantId"":""44CF20B773F943FAAD0E7129A94AC4E5"",""assignmentId"":""551c170a-1e6f-4ed3-8024-a9ddcae4e459"",""projectId"":""051c06f1-75cc-4548-856d-4923ddaba0dc""}","https://test12345.live/?num_scrambled_semantic=8&num_scrambled_causal=4&num_scrambled_schematic=4&participantId=44CF20B773F943FAAD0E7129A94AC4E5&assignmentId=551c170a-1e6f-4ed3-8024-a9ddcae4e459&projectId=051c06f1-75cc-4548-856d-4923ddaba0dc","44CF20B773F943FAAD0E7129A94AC4E5-2025-05-15-19-24-16","","null","","[]","null","",""
"","","","","","image-button-response","52","570099","0.0-10.0-1.0-0.9","44CF20B773F943FAAD0E7129A94AC4E5","44CF20B773F943FAAD0E7129A94AC4E5","551c170a-1e6f-4ed3-8024-a9ddcae4e459","051c06f1-75cc-4548-856d-4923ddaba0dc","{""num_scrambled_semantic"":""8"",""num_scrambled_causal"":""4"",""num_scrambled_schematic"":""4"",""participantId"":""44CF20B773F943FAAD0E7129A94AC4E5"",""assignmentId"":""551c170a-1e6f-4ed3-8024-a9ddcae4e459"",""projectId"":""051c06f1-75cc-4548-856d-4923ddaba0dc""}","https://test12345.live/?num_scrambled_semantic=8&num_scrambled_causal=4&num_scrambled_schematic=4&participantId=44CF20B773F943FAAD0E7129A94AC4E5&assignmentId=551c170a-1e6f-4ed3-8024-a9ddcae4e459&projectId=051c06f1-75cc-4548-856d-4923ddaba0dc","44CF20B773F943FAAD0E7129A94AC4E5-2025-05-15-19-24-16","","null","","images/schematic_sequence/flight_scheme/flight_scheme_ten.png","null","",""
"","","","","","image-button-response","53","570971","0.0-10.0-1.0-1.9","44CF20B773F943FAAD0E7129A94AC4E5","44CF20B773F943FAAD0E7129A94AC4E5","551c170a-1e6f-4ed3-8024-a9ddcae4e459","051c06f1-75cc-4548-856d-4923ddaba0dc","{""num_scrambled_semantic"":""8"",""num_scrambled_causal"":""4"",""num_scrambled_schematic"":""4"",""participantId"":""44CF20B773F943FAAD0E7129A94AC4E5"",""assignmentId"":""551c170a-1e6f-4ed3-8024-a9ddcae4e459"",""projectId"":""051c06f1-75cc-4548-856d-4923ddaba0dc""}","https://test12345.live/?num_scrambled_semantic=8&num_scrambled_causal=4&num_scrambled_schematic=4&participantId=44CF20B773F943FAAD0E7129A94AC4E5&assignmentId=551c170a-1e6f-4ed3-8024-a9ddcae4e459&projectId=051c06f1-75cc-4548-856d-4923ddaba0dc","44CF20B773F943FAAD0E7129A94AC4E5-2025-05-15-19-24-16","","870","","images/schematic_sequence/flight_scheme/flight_scheme_ten.png","0","",""
"","","","","","image-button-response","54","572776","0.0-10.0-1.0-2.9","44CF20B773F943FAAD0E7129A94AC4E5","44CF20B773F943FAAD0E7129A94AC4E5","551c170a-1e6f-4ed3-8024-a9ddcae4e459","051c06f1-75cc-4548-856d-4923ddaba0dc","{""num_scrambled_semantic"":""8"",""num_scrambled_causal"":""4"",""num_scrambled_schematic"":""4"",""participantId"":""44CF20B773F943FAAD0E7129A94AC4E5"",""assignmentId"":""551c170a-1e6f-4ed3-8024-a9ddcae4e459"",""projectId"":""051c06f1-75cc-4548-856d-4923ddaba0dc""}","https://test12345.live/?num_scrambled_semantic=8&num_scrambled_causal=4&num_scrambled_schematic=4&participantId=44CF20B773F943FAAD0E7129A94AC4E5&assignmentId=551c170a-1e6f-4ed3-8024-a9ddcae4e459&projectId=051c06f1-75cc-4548-856d-4923ddaba0dc","44CF20B773F943FAAD0E7129A94AC4E5-2025-05-15-19-24-16","","null","","[]","null","",""
"","","","","","html-audio-response","55","711044","0.0-11.0","44CF20B773F943FAAD0E7129A94AC4E5","44CF20B773F943FAAD0E7129A94AC4E5","551c170a-1e6f-4ed3-8024-a9ddcae4e459","051c06f1-75cc-4548-856d-4923ddaba0dc","{""num_scrambled_semantic"":""8"",""num_scrambled_causal"":""4"",""num_scrambled_schematic"":""4"",""participantId"":""44CF20B773F943FAAD0E7129A94AC4E5"",""assignmentId"":""551c170a-1e6f-4ed3-8024-a9ddcae4e459"",""projectId"":""051c06f1-75cc-4548-856d-4923ddaba0dc""}","https://test12345.live/?num_scrambled_semantic=8&num_scrambled_causal=4&num_scrambled_schematic=4&participantId=44CF20B773F943FAAD0E7129A94AC4E5&assignmentId=551c170a-1e6f-4ed3-8024-a9ddcae4e459&projectId=051c06f1-75cc-4548-856d-4923ddaba0dc","44CF20B773F943FAAD0E7129A94AC4E5-2025-05-15-19-24-16","","31956","","[""<span style=\""color: red; font-size: 24px\""> NOW RECORDING</span><p>Please say out loud all the images you saw, as many as you can remember. The images can be said in any order.</p>""]","","1","flight_scheme"
"","","","","","image-button-response","56","717055","0.0-12.0-0.0","44CF20B773F943FAAD0E7129A94AC4E5","44CF20B773F943FAAD0E7129A94AC4E5","551c170a-1e6f-4ed3-8024-a9ddcae4e459","051c06f1-75cc-4548-856d-4923ddaba0dc","{""num_scrambled_semantic"":""8"",""num_scrambled_causal"":""4"",""num_scrambled_schematic"":""4"",""participantId"":""44CF20B773F943FAAD0E7129A94AC4E5"",""assignmentId"":""551c170a-1e6f-4ed3-8024-a9ddcae4e459"",""projectId"":""051c06f1-75cc-4548-856d-4923ddaba0dc""}","https://test12345.live/?num_scrambled_semantic=8&num_scrambled_causal=4&num_scrambled_schematic=4&participantId=44CF20B773F943FAAD0E7129A94AC4E5&assignmentId=551c170a-1e6f-4ed3-8024-a9ddcae4e459&projectId=051c06f1-75cc-4548-856d-4923ddaba0dc","44CF20B773F943FAAD0E7129A94AC4E5-2025-05-15-19-24-16","","null","","images/semantic_sequence/kitchen_operations_semantic/kitchen_operations_semantic_0.png","null","",""
"","","","","","image-button-response","57","721562","0.0-12.0-1.0-0.0","44CF20B773F943FAAD0E7129A94AC4E5","44CF20B773F943FAAD0E7129A94AC4E5","551c170a-1e6f-4ed3-8024-a9ddcae4e459","051c06f1-75cc-4548-856d-4923ddaba0dc","{""num_scrambled_semantic"":""8"",""num_scrambled_causal"":""4"",""num_scrambled_schematic"":""4"",""participantId"":""44CF20B773F943FAAD0E7129A94AC4E5"",""assignmentId"":""551c170a-1e6f-4ed3-8024-a9ddcae4e459"",""projectId"":""051c06f1-75cc-4548-856d-4923ddaba0dc""}","https://test12345.live/?num_scrambled_semantic=8&num_scrambled_causal=4&num_scrambled_schematic=4&participantId=44CF20B773F943FAAD0E7129A94AC4E5&assignmentId=551c170a-1e6f-4ed3-8024-a9ddcae4e459&projectId=051c06f1-75cc-4548-856d-4923ddaba0dc","44CF20B773F943FAAD0E7129A94AC4E5-2025-05-15-19-24-16","","null","","images/semantic_sequence/kitchen_operations_semantic/kitchen_operations_semantic_1.png","null","",""
"","","","","","image-button-response","58","724140","0.0-12.0-1.0-1.0","44CF20B773F943FAAD0E7129A94AC4E5","44CF20B773F943FAAD0E7129A94AC4E5","551c170a-1e6f-4ed3-8024-a9ddcae4e459","051c06f1-75cc-4548-856d-4923ddaba0dc","{""num_scrambled_semantic"":""8"",""num_scrambled_causal"":""4"",""num_scrambled_schematic"":""4"",""participantId"":""44CF20B773F943FAAD0E7129A94AC4E5"",""assignmentId"":""551c170a-1e6f-4ed3-8024-a9ddcae4e459"",""projectId"":""051c06f1-75cc-4548-856d-4923ddaba0dc""}","https://test12345.live/?num_scrambled_semantic=8&num_scrambled_causal=4&num_scrambled_schematic=4&participantId=44CF20B773F943FAAD0E7129A94AC4E5&assignmentId=551c170a-1e6f-4ed3-8024-a9ddcae4e459&projectId=051c06f1-75cc-4548-856d-4923ddaba0dc","44CF20B773F943FAAD0E7129A94AC4E5-2025-05-15-19-24-16","","2576","","images/semantic_sequence/kitchen_operations_semantic/kitchen_operations_semantic_1.png","0","",""
"","","","","","image-button-response","59","725945","0.0-12.0-1.0-2.0","44CF20B773F943FAAD0E7129A94AC4E5","44CF20B773F943FAAD0E7129A94AC4E5","551c170a-1e6f-4ed3-8024-a9ddcae4e459","051c06f1-75cc-4548-856d-4923ddaba0dc","{""num_scrambled_semantic"":""8"",""num_scrambled_causal"":""4"",""num_scrambled_schematic"":""4"",""participantId"":""44CF20B773F943FAAD0E7129A94AC4E5"",""assignmentId"":""551c170a-1e6f-4ed3-8024-a9ddcae4e459"",""projectId"":""051c06f1-75cc-4548-856d-4923ddaba0dc""}","https://test12345.live/?num_scrambled_semantic=8&num_scrambled_causal=4&num_scrambled_schematic=4&participantId=44CF20B773F943FAAD0E7129A94AC4E5&assignmentId=551c170a-1e6f-4ed3-8024-a9ddcae4e459&projectId=051c06f1-75cc-4548-856d-4923ddaba0dc","44CF20B773F943FAAD0E7129A94AC4E5-2025-05-15-19-24-16","","null","","[]","null","",""
"","","","","","image-button-response","60","730450","0.0-12.0-1.0-0.1","44CF20B773F943FAAD0E7129A94AC4E5","44CF20B773F943FAAD0E7129A94AC4E5","551c170a-1e6f-4ed3-8024-a9ddcae4e459","051c06f1-75cc-4548-856d-4923ddaba0dc","{""num_scrambled_semantic"":""8"",""num_scrambled_causal"":""4"",""num_scrambled_schematic"":""4"",""participantId"":""44CF20B773F943FAAD0E7129A94AC4E5"",""assignmentId"":""551c170a-1e6f-4ed3-8024-a9ddcae4e459"",""projectId"":""051c06f1-75cc-4548-856d-4923ddaba0dc""}","https://test12345.live/?num_scrambled_semantic=8&num_scrambled_causal=4&num_scrambled_schematic=4&participantId=44CF20B773F943FAAD0E7129A94AC4E5&assignmentId=551c170a-1e6f-4ed3-8024-a9ddcae4e459&projectId=051c06f1-75cc-4548-856d-4923ddaba0dc","44CF20B773F943FAAD0E7129A94AC4E5-2025-05-15-19-24-16","","null","","images/semantic_sequence/kitchen_operations_semantic/kitchen_operations_semantic_2.png","null","",""
"","","","","","image-button-response","61","732591","0.0-12.0-1.0-1.1","44CF20B773F943FAAD0E7129A94AC4E5","44CF20B773F943FAAD0E7129A94AC4E5","551c170a-1e6f-4ed3-8024-a9ddcae4e459","051c06f1-75cc-4548-856d-4923ddaba0dc","{""num_scrambled_semantic"":""8"",""num_scrambled_causal"":""4"",""num_scrambled_schematic"":""4"",""participantId"":""44CF20B773F943FAAD0E7129A94AC4E5"",""assignmentId"":""551c170a-1e6f-4ed3-8024-a9ddcae4e459"",""projectId"":""051c06f1-75cc-4548-856d-4923ddaba0dc""}","https://test12345.live/?num_scrambled_semantic=8&num_scrambled_causal=4&num_scrambled_schematic=4&participantId=44CF20B773F943FAAD0E7129A94AC4E5&assignmentId=551c170a-1e6f-4ed3-8024-a9ddcae4e459&projectId=051c06f1-75cc-4548-856d-4923ddaba0dc","44CF20B773F943FAAD0E7129A94AC4E5-2025-05-15-19-24-16","","2138","","images/semantic_sequence/kitchen_operations_semantic/kitchen_operations_semantic_2.png","0","",""
"","","","","","image-button-response","62","734397","0.0-12.0-1.0-2.1","44CF20B773F943FAAD0E7129A94AC4E5","44CF20B773F943FAAD0E7129A94AC4E5","551c170a-1e6f-4ed3-8024-a9ddcae4e459","051c06f1-75cc-4548-856d-4923ddaba0dc","{""num_scrambled_semantic"":""8"",""num_scrambled_causal"":""4"",""num_scrambled_schematic"":""4"",""participantId"":""44CF20B773F943FAAD0E7129A94AC4E5"",""assignmentId"":""551c170a-1e6f-4ed3-8024-a9ddcae4e459"",""projectId"":""051c06f1-75cc-4548-856d-4923ddaba0dc""}","https://test12345.live/?num_scrambled_semantic=8&num_scrambled_causal=4&num_scrambled_schematic=4&participantId=44CF20B773F943FAAD0E7129A94AC4E5&assignmentId=551c170a-1e6f-4ed3-8024-a9ddcae4e459&projectId=051c06f1-75cc-4548-856d-4923ddaba0dc","44CF20B773F943FAAD0E7129A94AC4E5-2025-05-15-19-24-16","","null","","[]","null","",""
"","","","","","image-button-response","63","738899","0.0-12.0-1.0-0.2","44CF20B773F943FAAD0E7129A94AC4E5","44CF20B773F943FAAD0E7129A94AC4E5","551c170a-1e6f-4ed3-8024-a9ddcae4e459","051c06f1-75cc-4548-856d-4923ddaba0dc","{""num_scrambled_semantic"":""8"",""num_scrambled_causal"":""4"",""num_scrambled_schematic"":""4"",""participantId"":""44CF20B773F943FAAD0E7129A94AC4E5"",""assignmentId"":""551c170a-1e6f-4ed3-8024-a9ddcae4e459"",""projectId"":""051c06f1-75cc-4548-856d-4923ddaba0dc""}","https://test12345.live/?num_scrambled_semantic=8&num_scrambled_causal=4&num_scrambled_schematic=4&participantId=44CF20B773F943FAAD0E7129A94AC4E5&assignmentId=551c170a-1e6f-4ed3-8024-a9ddcae4e459&projectId=051c06f1-75cc-4548-856d-4923ddaba0dc","44CF20B773F943FAAD0E7129A94AC4E5-2025-05-15-19-24-16","","null","","images/semantic_sequence/kitchen_operations_semantic/kitchen_operations_semantic_3.png","null","",""
"","","","","","image-button-response","64","739723","0.0-12.0-1.0-1.2","44CF20B773F943FAAD0E7129A94AC4E5","44CF20B773F943FAAD0E7129A94AC4E5","551c170a-1e6f-4ed3-8024-a9ddcae4e459","051c06f1-75cc-4548-856d-4923ddaba0dc","{""num_scrambled_semantic"":""8"",""num_scrambled_causal"":""4"",""num_scrambled_schematic"":""4"",""participantId"":""44CF20B773F943FAAD0E7129A94AC4E5"",""assignmentId"":""551c170a-1e6f-4ed3-8024-a9ddcae4e459"",""projectId"":""051c06f1-75cc-4548-856d-4923ddaba0dc""}","https://test12345.live/?num_scrambled_semantic=8&num_scrambled_causal=4&num_scrambled_schematic=4&participantId=44CF20B773F943FAAD0E7129A94AC4E5&assignmentId=551c170a-1e6f-4ed3-8024-a9ddcae4e459&projectId=051c06f1-75cc-4548-856d-4923ddaba0dc","44CF20B773F943FAAD0E7129A94AC4E5-2025-05-15-19-24-16","","822","","images/semantic_sequence/kitchen_operations_semantic/kitchen_operations_semantic_3.png","0","",""
"","","","","","image-button-response","65","741526","0.0-12.0-1.0-2.2","44CF20B773F943FAAD0E7129A94AC4E5","44CF20B773F943FAAD0E7129A94AC4E5","551c170a-1e6f-4ed3-8024-a9ddcae4e459","051c06f1-75cc-4548-856d-4923ddaba0dc","{""num_scrambled_semantic"":""8"",""num_scrambled_causal"":""4"",""num_scrambled_schematic"":""4"",""participantId"":""44CF20B773F943FAAD0E7129A94AC4E5"",""assignmentId"":""551c170a-1e6f-4ed3-8024-a9ddcae4e459"",""projectId"":""051c06f1-75cc-4548-856d-4923ddaba0dc""}","https://test12345.live/?num_scrambled_semantic=8&num_scrambled_causal=4&num_scrambled_schematic=4&participantId=44CF20B773F943FAAD0E7129A94AC4E5&assignmentId=551c170a-1e6f-4ed3-8024-a9ddcae4e459&projectId=051c06f1-75cc-4548-856d-4923ddaba0dc","44CF20B773F943FAAD0E7129A94AC4E5-2025-05-15-19-24-16","","null","","[]","null","",""
"","","","","","image-button-response","66","746033","0.0-12.0-1.0-0.3","44CF20B773F943FAAD0E7129A94AC4E5","44CF20B773F943FAAD0E7129A94AC4E5","551c170a-1e6f-4ed3-8024-a9ddcae4e459","051c06f1-75cc-4548-856d-4923ddaba0dc","{""num_scrambled_semantic"":""8"",""num_scrambled_causal"":""4"",""num_scrambled_schematic"":""4"",""participantId"":""44CF20B773F943FAAD0E7129A94AC4E5"",""assignmentId"":""551c170a-1e6f-4ed3-8024-a9ddcae4e459"",""projectId"":""051c06f1-75cc-4548-856d-4923ddaba0dc""}","https://test12345.live/?num_scrambled_semantic=8&num_scrambled_causal=4&num_scrambled_schematic=4&participantId=44CF20B773F943FAAD0E7129A94AC4E5&assignmentId=551c170a-1e6f-4ed3-8024-a9ddcae4e459&projectId=051c06f1-75cc-4548-856d-4923ddaba0dc","44CF20B773F943FAAD0E7129A94AC4E5-2025-05-15-19-24-16","","null","","images/semantic_sequence/kitchen_operations_semantic/kitchen_operations_semantic_4.png","null","",""
"","","","","","image-button-response","67","746791","0.0-12.0-1.0-1.3","44CF20B773F943FAAD0E7129A94AC4E5","44CF20B773F943FAAD0E7129A94AC4E5","551c170a-1e6f-4ed3-8024-a9ddcae4e459","051c06f1-75cc-4548-856d-4923ddaba0dc","{""num_scrambled_semantic"":""8"",""num_scrambled_causal"":""4"",""num_scrambled_schematic"":""4"",""participantId"":""44CF20B773F943FAAD0E7129A94AC4E5"",""assignmentId"":""551c170a-1e6f-4ed3-8024-a9ddcae4e459"",""projectId"":""051c06f1-75cc-4548-856d-4923ddaba0dc""}","https://test12345.live/?num_scrambled_semantic=8&num_scrambled_causal=4&num_scrambled_schematic=4&participantId=44CF20B773F943FAAD0E7129A94AC4E5&assignmentId=551c170a-1e6f-4ed3-8024-a9ddcae4e459&projectId=051c06f1-75cc-4548-856d-4923ddaba0dc","44CF20B773F943FAAD0E7129A94AC4E5-2025-05-15-19-24-16","","756","","images/semantic_sequence/kitchen_operations_semantic/kitchen_operations_semantic_4.png","0","",""
"","","","","","image-button-response","68","748597","0.0-12.0-1.0-2.3","44CF20B773F943FAAD0E7129A94AC4E5","44CF20B773F943FAAD0E7129A94AC4E5","551c170a-1e6f-4ed3-8024-a9ddcae4e459","051c06f1-75cc-4548-856d-4923ddaba0dc","{""num_scrambled_semantic"":""8"",""num_scrambled_causal"":""4"",""num_scrambled_schematic"":""4"",""participantId"":""44CF20B773F943FAAD0E7129A94AC4E5"",""assignmentId"":""551c170a-1e6f-4ed3-8024-a9ddcae4e459"",""projectId"":""051c06f1-75cc-4548-856d-4923ddaba0dc""}","https://test12345.live/?num_scrambled_semantic=8&num_scrambled_causal=4&num_scrambled_schematic=4&participantId=44CF20B773F943FAAD0E7129A94AC4E5&assignmentId=551c170a-1e6f-4ed3-8024-a9ddcae4e459&projectId=051c06f1-75cc-4548-856d-4923ddaba0dc","44CF20B773F943FAAD0E7129A94AC4E5-2025-05-15-19-24-16","","null","","[]","null","",""
"","","","","","image-button-response","69","753104","0.0-12.0-1.0-0.4","44CF20B773F943FAAD0E7129A94AC4E5","44CF20B773F943FAAD0E7129A94AC4E5","551c170a-1e6f-4ed3-8024-a9ddcae4e459","051c06f1-75cc-4548-856d-4923ddaba0dc","{""num_scrambled_semantic"":""8"",""num_scrambled_causal"":""4"",""num_scrambled_schematic"":""4"",""participantId"":""44CF20B773F943FAAD0E7129A94AC4E5"",""assignmentId"":""551c170a-1e6f-4ed3-8024-a9ddcae4e459"",""projectId"":""051c06f1-75cc-4548-856d-4923ddaba0dc""}","https://test12345.live/?num_scrambled_semantic=8&num_scrambled_causal=4&num_scrambled_schematic=4&participantId=44CF20B773F943FAAD0E7129A94AC4E5&assignmentId=551c170a-1e6f-4ed3-8024-a9ddcae4e459&projectId=051c06f1-75cc-4548-856d-4923ddaba0dc","44CF20B773F943FAAD0E7129A94AC4E5-2025-05-15-19-24-16","","null","","images/semantic_sequence/kitchen_operations_semantic/kitchen_operations_semantic_5.png","null","",""
"","","","","","image-button-response","70","753673","0.0-12.0-1.0-1.4","44CF20B773F943FAAD0E7129A94AC4E5","44CF20B773F943FAAD0E7129A94AC4E5","551c170a-1e6f-4ed3-8024-a9ddcae4e459","051c06f1-75cc-4548-856d-4923ddaba0dc","{""num_scrambled_semantic"":""8"",""num_scrambled_causal"":""4"",""num_scrambled_schematic"":""4"",""participantId"":""44CF20B773F943FAAD0E7129A94AC4E5"",""assignmentId"":""551c170a-1e6f-4ed3-8024-a9ddcae4e459"",""projectId"":""051c06f1-75cc-4548-856d-4923ddaba0dc""}","https://test12345.live/?num_scrambled_semantic=8&num_scrambled_causal=4&num_scrambled_schematic=4&participantId=44CF20B773F943FAAD0E7129A94AC4E5&assignmentId=551c170a-1e6f-4ed3-8024-a9ddcae4e459&projectId=051c06f1-75cc-4548-856d-4923ddaba0dc","44CF20B773F943FAAD0E7129A94AC4E5-2025-05-15-19-24-16","","568","","images/semantic_sequence/kitchen_operations_semantic/kitchen_operations_semantic_5.png","0","",""
"","","","","","image-button-response","71","755477","0.0-12.0-1.0-2.4","44CF20B773F943FAAD0E7129A94AC4E5","44CF20B773F943FAAD0E7129A94AC4E5","551c170a-1e6f-4ed3-8024-a9ddcae4e459","051c06f1-75cc-4548-856d-4923ddaba0dc","{""num_scrambled_semantic"":""8"",""num_scrambled_causal"":""4"",""num_scrambled_schematic"":""4"",""participantId"":""44CF20B773F943FAAD0E7129A94AC4E5"",""assignmentId"":""551c170a-1e6f-4ed3-8024-a9ddcae4e459"",""projectId"":""051c06f1-75cc-4548-856d-4923ddaba0dc""}","https://test12345.live/?num_scrambled_semantic=8&num_scrambled_causal=4&num_scrambled_schematic=4&participantId=44CF20B773F943FAAD0E7129A94AC4E5&assignmentId=551c170a-1e6f-4ed3-8024-a9ddcae4e459&projectId=051c06f1-75cc-4548-856d-4923ddaba0dc","44CF20B773F943FAAD0E7129A94AC4E5-2025-05-15-19-24-16","","null","","[]","null","",""
"","","","","","image-button-response","72","759984","0.0-12.0-1.0-0.5","44CF20B773F943FAAD0E7129A94AC4E5","44CF20B773F943FAAD0E7129A94AC4E5","551c170a-1e6f-4ed3-8024-a9ddcae4e459","051c06f1-75cc-4548-856d-4923ddaba0dc","{""num_scrambled_semantic"":""8"",""num_scrambled_causal"":""4"",""num_scrambled_schematic"":""4"",""participantId"":""44CF20B773F943FAAD0E7129A94AC4E5"",""assignmentId"":""551c170a-1e6f-4ed3-8024-a9ddcae4e459"",""projectId"":""051c06f1-75cc-4548-856d-4923ddaba0dc""}","https://test12345.live/?num_scrambled_semantic=8&num_scrambled_causal=4&num_scrambled_schematic=4&participantId=44CF20B773F943FAAD0E7129A94AC4E5&assignmentId=551c170a-1e6f-4ed3-8024-a9ddcae4e459&projectId=051c06f1-75cc-4548-856d-4923ddaba0dc","44CF20B773F943FAAD0E7129A94AC4E5-2025-05-15-19-24-16","","null","","images/semantic_sequence/kitchen_operations_semantic/kitchen_operations_semantic_6.png","null","",""
"","","","","","image-button-response","73","760609","0.0-12.0-1.0-1.5","44CF20B773F943FAAD0E7129A94AC4E5","44CF20B773F943FAAD0E7129A94AC4E5","551c170a-1e6f-4ed3-8024-a9ddcae4e459","051c06f1-75cc-4548-856d-4923ddaba0dc","{""num_scrambled_semantic"":""8"",""num_scrambled_causal"":""4"",""num_scrambled_schematic"":""4"",""participantId"":""44CF20B773F943FAAD0E7129A94AC4E5"",""assignmentId"":""551c170a-1e6f-4ed3-8024-a9ddcae4e459"",""projectId"":""051c06f1-75cc-4548-856d-4923ddaba0dc""}","https://test12345.live/?num_scrambled_semantic=8&num_scrambled_causal=4&num_scrambled_schematic=4&participantId=44CF20B773F943FAAD0E7129A94AC4E5&assignmentId=551c170a-1e6f-4ed3-8024-a9ddcae4e459&projectId=051c06f1-75cc-4548-856d-4923ddaba0dc","44CF20B773F943FAAD0E7129A94AC4E5-2025-05-15-19-24-16","","623","","images/semantic_sequence/kitchen_operations_semantic/kitchen_operations_semantic_6.png","0","",""
"","","","","","image-button-response","74","762416","0.0-12.0-1.0-2.5","44CF20B773F943FAAD0E7129A94AC4E5","44CF20B773F943FAAD0E7129A94AC4E5","551c170a-1e6f-4ed3-8024-a9ddcae4e459","051c06f1-75cc-4548-856d-4923ddaba0dc","{""num_scrambled_semantic"":""8"",""num_scrambled_causal"":""4"",""num_scrambled_schematic"":""4"",""participantId"":""44CF20B773F943FAAD0E7129A94AC4E5"",""assignmentId"":""551c170a-1e6f-4ed3-8024-a9ddcae4e459"",""projectId"":""051c06f1-75cc-4548-856d-4923ddaba0dc""}","https://test12345.live/?num_scrambled_semantic=8&num_scrambled_causal=4&num_scrambled_schematic=4&participantId=44CF20B773F943FAAD0E7129A94AC4E5&assignmentId=551c170a-1e6f-4ed3-8024-a9ddcae4e459&projectId=051c06f1-75cc-4548-856d-4923ddaba0dc","44CF20B773F943FAAD0E7129A94AC4E5-2025-05-15-19-24-16","","null","","[]","null","",""
"","","","","","image-button-response","75","766922","0.0-12.0-1.0-0.6","44CF20B773F943FAAD0E7129A94AC4E5","44CF20B773F943FAAD0E7129A94AC4E5","551c170a-1e6f-4ed3-8024-a9ddcae4e459","051c06f1-75cc-4548-856d-4923ddaba0dc","{""num_scrambled_semantic"":""8"",""num_scrambled_causal"":""4"",""num_scrambled_schematic"":""4"",""participantId"":""44CF20B773F943FAAD0E7129A94AC4E5"",""assignmentId"":""551c170a-1e6f-4ed3-8024-a9ddcae4e459"",""projectId"":""051c06f1-75cc-4548-856d-4923ddaba0dc""}","https://test12345.live/?num_scrambled_semantic=8&num_scrambled_causal=4&num_scrambled_schematic=4&participantId=44CF20B773F943FAAD0E7129A94AC4E5&assignmentId=551c170a-1e6f-4ed3-8024-a9ddcae4e459&projectId=051c06f1-75cc-4548-856d-4923ddaba0dc","44CF20B773F943FAAD0E7129A94AC4E5-2025-05-15-19-24-16","","null","","images/semantic_sequence/kitchen_operations_semantic/kitchen_operations_semantic_7.png","null","",""
"","","","","","image-button-response","76","767575","0.0-12.0-1.0-1.6","44CF20B773F943FAAD0E7129A94AC4E5","44CF20B773F943FAAD0E7129A94AC4E5","551c170a-1e6f-4ed3-8024-a9ddcae4e459","051c06f1-75cc-4548-856d-4923ddaba0dc","{""num_scrambled_semantic"":""8"",""num_scrambled_causal"":""4"",""num_scrambled_schematic"":""4"",""participantId"":""44CF20B773F943FAAD0E7129A94AC4E5"",""assignmentId"":""551c170a-1e6f-4ed3-8024-a9ddcae4e459"",""projectId"":""051c06f1-75cc-4548-856d-4923ddaba0dc""}","https://test12345.live/?num_scrambled_semantic=8&num_scrambled_causal=4&num_scrambled_schematic=4&participantId=44CF20B773F943FAAD0E7129A94AC4E5&assignmentId=551c170a-1e6f-4ed3-8024-a9ddcae4e459&projectId=051c06f1-75cc-4548-856d-4923ddaba0dc","44CF20B773F943FAAD0E7129A94AC4E5-2025-05-15-19-24-16","","650","","images/semantic_sequence/kitchen_operations_semantic/kitchen_operations_semantic_7.png","0","",""
"","","","","","image-button-response","77","769382","0.0-12.0-1.0-2.6","44CF20B773F943FAAD0E7129A94AC4E5","44CF20B773F943FAAD0E7129A94AC4E5","551c170a-1e6f-4ed3-8024-a9ddcae4e459","051c06f1-75cc-4548-856d-4923ddaba0dc","{""num_scrambled_semantic"":""8"",""num_scrambled_causal"":""4"",""num_scrambled_schematic"":""4"",""participantId"":""44CF20B773F943FAAD0E7129A94AC4E5"",""assignmentId"":""551c170a-1e6f-4ed3-8024-a9ddcae4e459"",""projectId"":""051c06f1-75cc-4548-856d-4923ddaba0dc""}","https://test12345.live/?num_scrambled_semantic=8&num_scrambled_causal=4&num_scrambled_schematic=4&participantId=44CF20B773F943FAAD0E7129A94AC4E5&assignmentId=551c170a-1e6f-4ed3-8024-a9ddcae4e459&projectId=051c06f1-75cc-4548-856d-4923ddaba0dc","44CF20B773F943FAAD0E7129A94AC4E5-2025-05-15-19-24-16","","null","","[]","null","",""
"","","","","","image-button-response","78","773889","0.0-12.0-1.0-0.7","44CF20B773F943FAAD0E7129A94AC4E5","44CF20B773F943FAAD0E7129A94AC4E5","551c170a-1e6f-4ed3-8024-a9ddcae4e459","051c06f1-75cc-4548-856d-4923ddaba0dc","{""num_scrambled_semantic"":""8"",""num_scrambled_causal"":""4"",""num_scrambled_schematic"":""4"",""participantId"":""44CF20B773F943FAAD0E7129A94AC4E5"",""assignmentId"":""551c170a-1e6f-4ed3-8024-a9ddcae4e459"",""projectId"":""051c06f1-75cc-4548-856d-4923ddaba0dc""}","https://test12345.live/?num_scrambled_semantic=8&num_scrambled_causal=4&num_scrambled_schematic=4&participantId=44CF20B773F943FAAD0E7129A94AC4E5&assignmentId=551c170a-1e6f-4ed3-8024-a9ddcae4e459&projectId=051c06f1-75cc-4548-856d-4923ddaba0dc","44CF20B773F943FAAD0E7129A94AC4E5-2025-05-15-19-24-16","","null","","images/semantic_sequence/kitchen_operations_semantic/kitchen_operations_semantic_8.png","null","",""
"","","","","","image-button-response","79","774524","0.0-12.0-1.0-1.7","44CF20B773F943FAAD0E7129A94AC4E5","44CF20B773F943FAAD0E7129A94AC4E5","551c170a-1e6f-4ed3-8024-a9ddcae4e459","051c06f1-75cc-4548-856d-4923ddaba0dc","{""num_scrambled_semantic"":""8"",""num_scrambled_causal"":""4"",""num_scrambled_schematic"":""4"",""participantId"":""44CF20B773F943FAAD0E7129A94AC4E5"",""assignmentId"":""551c170a-1e6f-4ed3-8024-a9ddcae4e459"",""projectId"":""051c06f1-75cc-4548-856d-4923ddaba0dc""}","https://test12345.live/?num_scrambled_semantic=8&num_scrambled_causal=4&num_scrambled_schematic=4&participantId=44CF20B773F943FAAD0E7129A94AC4E5&assignmentId=551c170a-1e6f-4ed3-8024-a9ddcae4e459&projectId=051c06f1-75cc-4548-856d-4923ddaba0dc","44CF20B773F943FAAD0E7129A94AC4E5-2025-05-15-19-24-16","","634","","images/semantic_sequence/kitchen_operations_semantic/kitchen_operations_semantic_8.png","0","",""
"","","","","","image-button-response","80","776327","0.0-12.0-1.0-2.7","44CF20B773F943FAAD0E7129A94AC4E5","44CF20B773F943FAAD0E7129A94AC4E5","551c170a-1e6f-4ed3-8024-a9ddcae4e459","051c06f1-75cc-4548-856d-4923ddaba0dc","{""num_scrambled_semantic"":""8"",""num_scrambled_causal"":""4"",""num_scrambled_schematic"":""4"",""participantId"":""44CF20B773F943FAAD0E7129A94AC4E5"",""assignmentId"":""551c170a-1e6f-4ed3-8024-a9ddcae4e459"",""projectId"":""051c06f1-75cc-4548-856d-4923ddaba0dc""}","https://test12345.live/?num_scrambled_semantic=8&num_scrambled_causal=4&num_scrambled_schematic=4&participantId=44CF20B773F943FAAD0E7129A94AC4E5&assignmentId=551c170a-1e6f-4ed3-8024-a9ddcae4e459&projectId=051c06f1-75cc-4548-856d-4923ddaba0dc","44CF20B773F943FAAD0E7129A94AC4E5-2025-05-15-19-24-16","","null","","[]","null","",""
"","","","","","image-button-response","81","780834","0.0-12.0-1.0-0.8","44CF20B773F943FAAD0E7129A94AC4E5","44CF20B773F943FAAD0E7129A94AC4E5","551c170a-1e6f-4ed3-8024-a9ddcae4e459","051c06f1-75cc-4548-856d-4923ddaba0dc","{""num_scrambled_semantic"":""8"",""num_scrambled_causal"":""4"",""num_scrambled_schematic"":""4"",""participantId"":""44CF20B773F943FAAD0E7129A94AC4E5"",""assignmentId"":""551c170a-1e6f-4ed3-8024-a9ddcae4e459"",""projectId"":""051c06f1-75cc-4548-856d-4923ddaba0dc""}","https://test12345.live/?num_scrambled_semantic=8&num_scrambled_causal=4&num_scrambled_schematic=4&participantId=44CF20B773F943FAAD0E7129A94AC4E5&assignmentId=551c170a-1e6f-4ed3-8024-a9ddcae4e459&projectId=051c06f1-75cc-4548-856d-4923ddaba0dc","44CF20B773F943FAAD0E7129A94AC4E5-2025-05-15-19-24-16","","null","","images/semantic_sequence/kitchen_operations_semantic/kitchen_operations_semantic_9.png","null","",""
"","","","","","image-button-response","82","781541","0.0-12.0-1.0-1.8","44CF20B773F943FAAD0E7129A94AC4E5","44CF20B773F943FAAD0E7129A94AC4E5","551c170a-1e6f-4ed3-8024-a9ddcae4e459","051c06f1-75cc-4548-856d-4923ddaba0dc","{""num_scrambled_semantic"":""8"",""num_scrambled_causal"":""4"",""num_scrambled_schematic"":""4"",""participantId"":""44CF20B773F943FAAD0E7129A94AC4E5"",""assignmentId"":""551c170a-1e6f-4ed3-8024-a9ddcae4e459"",""projectId"":""051c06f1-75cc-4548-856d-4923ddaba0dc""}","https://test12345.live/?num_scrambled_semantic=8&num_scrambled_causal=4&num_scrambled_schematic=4&participantId=44CF20B773F943FAAD0E7129A94AC4E5&assignmentId=551c170a-1e6f-4ed3-8024-a9ddcae4e459&projectId=051c06f1-75cc-4548-856d-4923ddaba0dc","44CF20B773F943FAAD0E7129A94AC4E5-2025-05-15-19-24-16","","705","","images/semantic_sequence/kitchen_operations_semantic/kitchen_operations_semantic_9.png","0","",""
"","","","","","image-button-response","83","783348","0.0-12.0-1.0-2.8","44CF20B773F943FAAD0E7129A94AC4E5","44CF20B773F943FAAD0E7129A94AC4E5","551c170a-1e6f-4ed3-8024-a9ddcae4e459","051c06f1-75cc-4548-856d-4923ddaba0dc","{""num_scrambled_semantic"":""8"",""num_scrambled_causal"":""4"",""num_scrambled_schematic"":""4"",""participantId"":""44CF20B773F943FAAD0E7129A94AC4E5"",""assignmentId"":""551c170a-1e6f-4ed3-8024-a9ddcae4e459"",""projectId"":""051c06f1-75cc-4548-856d-4923ddaba0dc""}","https://test12345.live/?num_scrambled_semantic=8&num_scrambled_causal=4&num_scrambled_schematic=4&participantId=44CF20B773F943FAAD0E7129A94AC4E5&assignmentId=551c170a-1e6f-4ed3-8024-a9ddcae4e459&projectId=051c06f1-75cc-4548-856d-4923ddaba0dc","44CF20B773F943FAAD0E7129A94AC4E5-2025-05-15-19-24-16","","null","","[]","null","",""
"","","","","","image-button-response","84","787855","0.0-12.0-1.0-0.9","44CF20B773F943FAAD0E7129A94AC4E5","44CF20B773F943FAAD0E7129A94AC4E5","551c170a-1e6f-4ed3-8024-a9ddcae4e459","051c06f1-75cc-4548-856d-4923ddaba0dc","{""num_scrambled_semantic"":""8"",""num_scrambled_causal"":""4"",""num_scrambled_schematic"":""4"",""participantId"":""44CF20B773F943FAAD0E7129A94AC4E5"",""assignmentId"":""551c170a-1e6f-4ed3-8024-a9ddcae4e459"",""projectId"":""051c06f1-75cc-4548-856d-4923ddaba0dc""}","https://test12345.live/?num_scrambled_semantic=8&num_scrambled_causal=4&num_scrambled_schematic=4&participantId=44CF20B773F943FAAD0E7129A94AC4E5&assignmentId=551c170a-1e6f-4ed3-8024-a9ddcae4e459&projectId=051c06f1-75cc-4548-856d-4923ddaba0dc","44CF20B773F943FAAD0E7129A94AC4E5-2025-05-15-19-24-16","","null","","images/semantic_sequence/kitchen_operations_semantic/kitchen_operations_semantic_ten.png","null","",""
"","","","","","image-button-response","85","788591","0.0-12.0-1.0-1.9","44CF20B773F943FAAD0E7129A94AC4E5","44CF20B773F943FAAD0E7129A94AC4E5","551c170a-1e6f-4ed3-8024-a9ddcae4e459","051c06f1-75cc-4548-856d-4923ddaba0dc","{""num_scrambled_semantic"":""8"",""num_scrambled_causal"":""4"",""num_scrambled_schematic"":""4"",""participantId"":""44CF20B773F943FAAD0E7129A94AC4E5"",""assignmentId"":""551c170a-1e6f-4ed3-8024-a9ddcae4e459"",""projectId"":""051c06f1-75cc-4548-856d-4923ddaba0dc""}","https://test12345.live/?num_scrambled_semantic=8&num_scrambled_causal=4&num_scrambled_schematic=4&participantId=44CF20B773F943FAAD0E7129A94AC4E5&assignmentId=551c170a-1e6f-4ed3-8024-a9ddcae4e459&projectId=051c06f1-75cc-4548-856d-4923ddaba0dc","44CF20B773F943FAAD0E7129A94AC4E5-2025-05-15-19-24-16","","735","","images/semantic_sequence/kitchen_operations_semantic/kitchen_operations_semantic_ten.png","0","",""
"","","","","","image-button-response","86","790397","0.0-12.0-1.0-2.9","44CF20B773F943FAAD0E7129A94AC4E5","44CF20B773F943FAAD0E7129A94AC4E5","551c170a-1e6f-4ed3-8024-a9ddcae4e459","051c06f1-75cc-4548-856d-4923ddaba0dc","{""num_scrambled_semantic"":""8"",""num_scrambled_causal"":""4"",""num_scrambled_schematic"":""4"",""participantId"":""44CF20B773F943FAAD0E7129A94AC4E5"",""assignmentId"":""551c170a-1e6f-4ed3-8024-a9ddcae4e459"",""projectId"":""051c06f1-75cc-4548-856d-4923ddaba0dc""}","https://test12345.live/?num_scrambled_semantic=8&num_scrambled_causal=4&num_scrambled_schematic=4&participantId=44CF20B773F943FAAD0E7129A94AC4E5&assignmentId=551c170a-1e6f-4ed3-8024-a9ddcae4e459&projectId=051c06f1-75cc-4548-856d-4923ddaba0dc","44CF20B773F943FAAD0E7129A94AC4E5-2025-05-15-19-24-16","","null","","[]","null","",""
"","","","","","html-audio-response","87","837392","0.0-13.0","44CF20B773F943FAAD0E7129A94AC4E5","44CF20B773F943FAAD0E7129A94AC4E5","551c170a-1e6f-4ed3-8024-a9ddcae4e459","051c06f1-75cc-4548-856d-4923ddaba0dc","{""num_scrambled_semantic"":""8"",""num_scrambled_causal"":""4"",""num_scrambled_schematic"":""4"",""participantId"":""44CF20B773F943FAAD0E7129A94AC4E5"",""assignmentId"":""551c170a-1e6f-4ed3-8024-a9ddcae4e459"",""projectId"":""051c06f1-75cc-4548-856d-4923ddaba0dc""}","https://test12345.live/?num_scrambled_semantic=8&num_scrambled_causal=4&num_scrambled_schematic=4&participantId=44CF20B773F943FAAD0E7129A94AC4E5&assignmentId=551c170a-1e6f-4ed3-8024-a9ddcae4e459&projectId=051c06f1-75cc-4548-856d-4923ddaba0dc","44CF20B773F943FAAD0E7129A94AC4E5-2025-05-15-19-24-16","","44763","","[""<span style=\""color: red; font-size: 24px\""> NOW RECORDING</span><p>Please say out loud all the images you saw, as many as you can remember. The images can be said in any order.</p>""]","","2","kitchen_operations_semantic"
"","","","","","image-button-response","88","843403","0.0-14.0-0.0","44CF20B773F943FAAD0E7129A94AC4E5","44CF20B773F943FAAD0E7129A94AC4E5","551c170a-1e6f-4ed3-8024-a9ddcae4e459","051c06f1-75cc-4548-856d-4923ddaba0dc","{""num_scrambled_semantic"":""8"",""num_scrambled_causal"":""4"",""num_scrambled_schematic"":""4"",""participantId"":""44CF20B773F943FAAD0E7129A94AC4E5"",""assignmentId"":""551c170a-1e6f-4ed3-8024-a9ddcae4e459"",""projectId"":""051c06f1-75cc-4548-856d-4923ddaba0dc""}","https://test12345.live/?num_scrambled_semantic=8&num_scrambled_causal=4&num_scrambled_schematic=4&participantId=44CF20B773F943FAAD0E7129A94AC4E5&assignmentId=551c170a-1e6f-4ed3-8024-a9ddcae4e459&projectId=051c06f1-75cc-4548-856d-4923ddaba0dc","44CF20B773F943FAAD0E7129A94AC4E5-2025-05-15-19-24-16","","null","","images/schematic_sequence/restaurant_scheme/restaurant_scheme_0.png","null","",""
"","","","","","image-button-response","89","847909","0.0-14.0-1.0-0.0","44CF20B773F943FAAD0E7129A94AC4E5","44CF20B773F943FAAD0E7129A94AC4E5","551c170a-1e6f-4ed3-8024-a9ddcae4e459","051c06f1-75cc-4548-856d-4923ddaba0dc","{""num_scrambled_semantic"":""8"",""num_scrambled_causal"":""4"",""num_scrambled_schematic"":""4"",""participantId"":""44CF20B773F943FAAD0E7129A94AC4E5"",""assignmentId"":""551c170a-1e6f-4ed3-8024-a9ddcae4e459"",""projectId"":""051c06f1-75cc-4548-856d-4923ddaba0dc""}","https://test12345.live/?num_scrambled_semantic=8&num_scrambled_causal=4&num_scrambled_schematic=4&participantId=44CF20B773F943FAAD0E7129A94AC4E5&assignmentId=551c170a-1e6f-4ed3-8024-a9ddcae4e459&projectId=051c06f1-75cc-4548-856d-4923ddaba0dc","44CF20B773F943FAAD0E7129A94AC4E5-2025-05-15-19-24-16","","null","","images/schematic_sequence/restaurant_scheme/restaurant_scheme_2.png","null","",""
"","","","","","image-button-response","90","849675","0.0-14.0-1.0-1.0","44CF20B773F943FAAD0E7129A94AC4E5","44CF20B773F943FAAD0E7129A94AC4E5","551c170a-1e6f-4ed3-8024-a9ddcae4e459","051c06f1-75cc-4548-856d-4923ddaba0dc","{""num_scrambled_semantic"":""8"",""num_scrambled_causal"":""4"",""num_scrambled_schematic"":""4"",""participantId"":""44CF20B773F943FAAD0E7129A94AC4E5"",""assignmentId"":""551c170a-1e6f-4ed3-8024-a9ddcae4e459"",""projectId"":""051c06f1-75cc-4548-856d-4923ddaba0dc""}","https://test12345.live/?num_scrambled_semantic=8&num_scrambled_causal=4&num_scrambled_schematic=4&participantId=44CF20B773F943FAAD0E7129A94AC4E5&assignmentId=551c170a-1e6f-4ed3-8024-a9ddcae4e459&projectId=051c06f1-75cc-4548-856d-4923ddaba0dc","44CF20B773F943FAAD0E7129A94AC4E5-2025-05-15-19-24-16","","1764","","images/schematic_sequence/restaurant_scheme/restaurant_scheme_2.png","1","",""
"","","","","","image-button-response","91","851478","0.0-14.0-1.0-2.0","44CF20B773F943FAAD0E7129A94AC4E5","44CF20B773F943FAAD0E7129A94AC4E5","551c170a-1e6f-4ed3-8024-a9ddcae4e459","051c06f1-75cc-4548-856d-4923ddaba0dc","{""num_scrambled_semantic"":""8"",""num_scrambled_causal"":""4"",""num_scrambled_schematic"":""4"",""participantId"":""44CF20B773F943FAAD0E7129A94AC4E5"",""assignmentId"":""551c170a-1e6f-4ed3-8024-a9ddcae4e459"",""projectId"":""051c06f1-75cc-4548-856d-4923ddaba0dc""}","https://test12345.live/?num_scrambled_semantic=8&num_scrambled_causal=4&num_scrambled_schematic=4&participantId=44CF20B773F943FAAD0E7129A94AC4E5&assignmentId=551c170a-1e6f-4ed3-8024-a9ddcae4e459&projectId=051c06f1-75cc-4548-856d-4923ddaba0dc","44CF20B773F943FAAD0E7129A94AC4E5-2025-05-15-19-24-16","","null","","[]","null","",""
"","","","","","image-button-response","92","855985","0.0-14.0-1.0-0.1","44CF20B773F943FAAD0E7129A94AC4E5","44CF20B773F943FAAD0E7129A94AC4E5","551c170a-1e6f-4ed3-8024-a9ddcae4e459","051c06f1-75cc-4548-856d-4923ddaba0dc","{""num_scrambled_semantic"":""8"",""num_scrambled_causal"":""4"",""num_scrambled_schematic"":""4"",""participantId"":""44CF20B773F943FAAD0E7129A94AC4E5"",""assignmentId"":""551c170a-1e6f-4ed3-8024-a9ddcae4e459"",""projectId"":""051c06f1-75cc-4548-856d-4923ddaba0dc""}","https://test12345.live/?num_scrambled_semantic=8&num_scrambled_causal=4&num_scrambled_schematic=4&participantId=44CF20B773F943FAAD0E7129A94AC4E5&assignmentId=551c170a-1e6f-4ed3-8024-a9ddcae4e459&projectId=051c06f1-75cc-4548-856d-4923ddaba0dc","44CF20B773F943FAAD0E7129A94AC4E5-2025-05-15-19-24-16","","null","","images/schematic_sequence/restaurant_scheme/restaurant_scheme_7.png","null","",""
"","","","","","image-button-response","93","857559","0.0-14.0-1.0-1.1","44CF20B773F943FAAD0E7129A94AC4E5","44CF20B773F943FAAD0E7129A94AC4E5","551c170a-1e6f-4ed3-8024-a9ddcae4e459","051c06f1-75cc-4548-856d-4923ddaba0dc","{""num_scrambled_semantic"":""8"",""num_scrambled_causal"":""4"",""num_scrambled_schematic"":""4"",""participantId"":""44CF20B773F943FAAD0E7129A94AC4E5"",""assignmentId"":""551c170a-1e6f-4ed3-8024-a9ddcae4e459"",""projectId"":""051c06f1-75cc-4548-856d-4923ddaba0dc""}","https://test12345.live/?num_scrambled_semantic=8&num_scrambled_causal=4&num_scrambled_schematic=4&participantId=44CF20B773F943FAAD0E7129A94AC4E5&assignmentId=551c170a-1e6f-4ed3-8024-a9ddcae4e459&projectId=051c06f1-75cc-4548-856d-4923ddaba0dc","44CF20B773F943FAAD0E7129A94AC4E5-2025-05-15-19-24-16","","1572","","images/schematic_sequence/restaurant_scheme/restaurant_scheme_7.png","1","",""
"","","","","","image-button-response","94","859366","0.0-14.0-1.0-2.1","44CF20B773F943FAAD0E7129A94AC4E5","44CF20B773F943FAAD0E7129A94AC4E5","551c170a-1e6f-4ed3-8024-a9ddcae4e459","051c06f1-75cc-4548-856d-4923ddaba0dc","{""num_scrambled_semantic"":""8"",""num_scrambled_causal"":""4"",""num_scrambled_schematic"":""4"",""participantId"":""44CF20B773F943FAAD0E7129A94AC4E5"",""assignmentId"":""551c170a-1e6f-4ed3-8024-a9ddcae4e459"",""projectId"":""051c06f1-75cc-4548-856d-4923ddaba0dc""}","https://test12345.live/?num_scrambled_semantic=8&num_scrambled_causal=4&num_scrambled_schematic=4&participantId=44CF20B773F943FAAD0E7129A94AC4E5&assignmentId=551c170a-1e6f-4ed3-8024-a9ddcae4e459&projectId=051c06f1-75cc-4548-856d-4923ddaba0dc","44CF20B773F943FAAD0E7129A94AC4E5-2025-05-15-19-24-16","","null","","[]","null","",""
"","","","","","image-button-response","95","863868","0.0-14.0-1.0-0.2","44CF20B773F943FAAD0E7129A94AC4E5","44CF20B773F943FAAD0E7129A94AC4E5","551c170a-1e6f-4ed3-8024-a9ddcae4e459","051c06f1-75cc-4548-856d-4923ddaba0dc","{""num_scrambled_semantic"":""8"",""num_scrambled_causal"":""4"",""num_scrambled_schematic"":""4"",""participantId"":""44CF20B773F943FAAD0E7129A94AC4E5"",""assignmentId"":""551c170a-1e6f-4ed3-8024-a9ddcae4e459"",""projectId"":""051c06f1-75cc-4548-856d-4923ddaba0dc""}","https://test12345.live/?num_scrambled_semantic=8&num_scrambled_causal=4&num_scrambled_schematic=4&participantId=44CF20B773F943FAAD0E7129A94AC4E5&assignmentId=551c170a-1e6f-4ed3-8024-a9ddcae4e459&projectId=051c06f1-75cc-4548-856d-4923ddaba0dc","44CF20B773F943FAAD0E7129A94AC4E5-2025-05-15-19-24-16","","null","","images/schematic_sequence/restaurant_scheme/restaurant_scheme_1.png","null","",""
"","","","","","image-button-response","96","864876","0.0-14.0-1.0-1.2","44CF20B773F943FAAD0E7129A94AC4E5","44CF20B773F943FAAD0E7129A94AC4E5","551c170a-1e6f-4ed3-8024-a9ddcae4e459","051c06f1-75cc-4548-856d-4923ddaba0dc","{""num_scrambled_semantic"":""8"",""num_scrambled_causal"":""4"",""num_scrambled_schematic"":""4"",""participantId"":""44CF20B773F943FAAD0E7129A94AC4E5"",""assignmentId"":""551c170a-1e6f-4ed3-8024-a9ddcae4e459"",""projectId"":""051c06f1-75cc-4548-856d-4923ddaba0dc""}","https://test12345.live/?num_scrambled_semantic=8&num_scrambled_causal=4&num_scrambled_schematic=4&participantId=44CF20B773F943FAAD0E7129A94AC4E5&assignmentId=551c170a-1e6f-4ed3-8024-a9ddcae4e459&projectId=051c06f1-75cc-4548-856d-4923ddaba0dc","44CF20B773F943FAAD0E7129A94AC4E5-2025-05-15-19-24-16","","1005","","images/schematic_sequence/restaurant_scheme/restaurant_scheme_1.png","0","",""
"","","","","","image-button-response","97","866679","0.0-14.0-1.0-2.2","44CF20B773F943FAAD0E7129A94AC4E5","44CF20B773F943FAAD0E7129A94AC4E5","551c170a-1e6f-4ed3-8024-a9ddcae4e459","051c06f1-75cc-4548-856d-4923ddaba0dc","{""num_scrambled_semantic"":""8"",""num_scrambled_causal"":""4"",""num_scrambled_schematic"":""4"",""participantId"":""44CF20B773F943FAAD0E7129A94AC4E5"",""assignmentId"":""551c170a-1e6f-4ed3-8024-a9ddcae4e459"",""projectId"":""051c06f1-75cc-4548-856d-4923ddaba0dc""}","https://test12345.live/?num_scrambled_semantic=8&num_scrambled_causal=4&num_scrambled_schematic=4&participantId=44CF20B773F943FAAD0E7129A94AC4E5&assignmentId=551c170a-1e6f-4ed3-8024-a9ddcae4e459&projectId=051c06f1-75cc-4548-856d-4923ddaba0dc","44CF20B773F943FAAD0E7129A94AC4E5-2025-05-15-19-24-16","","null","","[]","null","",""
"","","","","","image-button-response","98","871182","0.0-14.0-1.0-0.3","44CF20B773F943FAAD0E7129A94AC4E5","44CF20B773F943FAAD0E7129A94AC4E5","551c170a-1e6f-4ed3-8024-a9ddcae4e459","051c06f1-75cc-4548-856d-4923ddaba0dc","{""num_scrambled_semantic"":""8"",""num_scrambled_causal"":""4"",""num_scrambled_schematic"":""4"",""participantId"":""44CF20B773F943FAAD0E7129A94AC4E5"",""assignmentId"":""551c170a-1e6f-4ed3-8024-a9ddcae4e459"",""projectId"":""051c06f1-75cc-4548-856d-4923ddaba0dc""}","https://test12345.live/?num_scrambled_semantic=8&num_scrambled_causal=4&num_scrambled_schematic=4&participantId=44CF20B773F943FAAD0E7129A94AC4E5&assignmentId=551c170a-1e6f-4ed3-8024-a9ddcae4e459&projectId=051c06f1-75cc-4548-856d-4923ddaba0dc","44CF20B773F943FAAD0E7129A94AC4E5-2025-05-15-19-24-16","","null","","images/schematic_sequence/restaurant_scheme/restaurant_scheme_5.png","null","",""
"","","","","","image-button-response","99","872060","0.0-14.0-1.0-1.3","44CF20B773F943FAAD0E7129A94AC4E5","44CF20B773F943FAAD0E7129A94AC4E5","551c170a-1e6f-4ed3-8024-a9ddcae4e459","051c06f1-75cc-4548-856d-4923ddaba0dc","{""num_scrambled_semantic"":""8"",""num_scrambled_causal"":""4"",""num_scrambled_schematic"":""4"",""participantId"":""44CF20B773F943FAAD0E7129A94AC4E5"",""assignmentId"":""551c170a-1e6f-4ed3-8024-a9ddcae4e459"",""projectId"":""051c06f1-75cc-4548-856d-4923ddaba0dc""}","https://test12345.live/?num_scrambled_semantic=8&num_scrambled_causal=4&num_scrambled_schematic=4&participantId=44CF20B773F943FAAD0E7129A94AC4E5&assignmentId=551c170a-1e6f-4ed3-8024-a9ddcae4e459&projectId=051c06f1-75cc-4548-856d-4923ddaba0dc","44CF20B773F943FAAD0E7129A94AC4E5-2025-05-15-19-24-16","","875","","images/schematic_sequence/restaurant_scheme/restaurant_scheme_5.png","0","",""
"","","","","","image-button-response","100","873864","0.0-14.0-1.0-2.3","44CF20B773F943FAAD0E7129A94AC4E5","44CF20B773F943FAAD0E7129A94AC4E5","551c170a-1e6f-4ed3-8024-a9ddcae4e459","051c06f1-75cc-4548-856d-4923ddaba0dc","{""num_scrambled_semantic"":""8"",""num_scrambled_causal"":""4"",""num_scrambled_schematic"":""4"",""participantId"":""44CF20B773F943FAAD0E7129A94AC4E5"",""assignmentId"":""551c170a-1e6f-4ed3-8024-a9ddcae4e459"",""projectId"":""051c06f1-75cc-4548-856d-4923ddaba0dc""}","https://test12345.live/?num_scrambled_semantic=8&num_scrambled_causal=4&num_scrambled_schematic=4&participantId=44CF20B773F943FAAD0E7129A94AC4E5&assignmentId=551c170a-1e6f-4ed3-8024-a9ddcae4e459&projectId=051c06f1-75cc-4548-856d-4923ddaba0dc","44CF20B773F943FAAD0E7129A94AC4E5-2025-05-15-19-24-16","","null","","[]","null","",""
"","","","","","image-button-response","101","878369","0.0-14.0-1.0-0.4","44CF20B773F943FAAD0E7129A94AC4E5","44CF20B773F943FAAD0E7129A94AC4E5","551c170a-1e6f-4ed3-8024-a9ddcae4e459","051c06f1-75cc-4548-856d-4923ddaba0dc","{""num_scrambled_semantic"":""8"",""num_scrambled_causal"":""4"",""num_scrambled_schematic"":""4"",""participantId"":""44CF20B773F943FAAD0E7129A94AC4E5"",""assignmentId"":""551c170a-1e6f-4ed3-8024-a9ddcae4e459"",""projectId"":""051c06f1-75cc-4548-856d-4923ddaba0dc""}","https://test12345.live/?num_scrambled_semantic=8&num_scrambled_causal=4&num_scrambled_schematic=4&participantId=44CF20B773F943FAAD0E7129A94AC4E5&assignmentId=551c170a-1e6f-4ed3-8024-a9ddcae4e459&projectId=051c06f1-75cc-4548-856d-4923ddaba0dc","44CF20B773F943FAAD0E7129A94AC4E5-2025-05-15-19-24-16","","null","","images/schematic_sequence/restaurant_scheme/restaurant_scheme_4.png","null","",""
"","","","","","image-button-response","102","879392","0.0-14.0-1.0-1.4","44CF20B773F943FAAD0E7129A94AC4E5","44CF20B773F943FAAD0E7129A94AC4E5","551c170a-1e6f-4ed3-8024-a9ddcae4e459","051c06f1-75cc-4548-856d-4923ddaba0dc","{""num_scrambled_semantic"":""8"",""num_scrambled_causal"":""4"",""num_scrambled_schematic"":""4"",""participantId"":""44CF20B773F943FAAD0E7129A94AC4E5"",""assignmentId"":""551c170a-1e6f-4ed3-8024-a9ddcae4e459"",""projectId"":""051c06f1-75cc-4548-856d-4923ddaba0dc""}","https://test12345.live/?num_scrambled_semantic=8&num_scrambled_causal=4&num_scrambled_schematic=4&participantId=44CF20B773F943FAAD0E7129A94AC4E5&assignmentId=551c170a-1e6f-4ed3-8024-a9ddcae4e459&projectId=051c06f1-75cc-4548-856d-4923ddaba0dc","44CF20B773F943FAAD0E7129A94AC4E5-2025-05-15-19-24-16","","1021","","images/schematic_sequence/restaurant_scheme/restaurant_scheme_4.png","0","",""
"","","","","","image-button-response","103","881196","0.0-14.0-1.0-2.4","44CF20B773F943FAAD0E7129A94AC4E5","44CF20B773F943FAAD0E7129A94AC4E5","551c170a-1e6f-4ed3-8024-a9ddcae4e459","051c06f1-75cc-4548-856d-4923ddaba0dc","{""num_scrambled_semantic"":""8"",""num_scrambled_causal"":""4"",""num_scrambled_schematic"":""4"",""participantId"":""44CF20B773F943FAAD0E7129A94AC4E5"",""assignmentId"":""551c170a-1e6f-4ed3-8024-a9ddcae4e459"",""projectId"":""051c06f1-75cc-4548-856d-4923ddaba0dc""}","https://test12345.live/?num_scrambled_semantic=8&num_scrambled_causal=4&num_scrambled_schematic=4&participantId=44CF20B773F943FAAD0E7129A94AC4E5&assignmentId=551c170a-1e6f-4ed3-8024-a9ddcae4e459&projectId=051c06f1-75cc-4548-856d-4923ddaba0dc","44CF20B773F943FAAD0E7129A94AC4E5-2025-05-15-19-24-16","","null","","[]","null","",""
"","","","","","image-button-response","104","885698","0.0-14.0-1.0-0.5","44CF20B773F943FAAD0E7129A94AC4E5","44CF20B773F943FAAD0E7129A94AC4E5","551c170a-1e6f-4ed3-8024-a9ddcae4e459","051c06f1-75cc-4548-856d-4923ddaba0dc","{""num_scrambled_semantic"":""8"",""num_scrambled_causal"":""4"",""num_scrambled_schematic"":""4"",""participantId"":""44CF20B773F943FAAD0E7129A94AC4E5"",""assignmentId"":""551c170a-1e6f-4ed3-8024-a9ddcae4e459"",""projectId"":""051c06f1-75cc-4548-856d-4923ddaba0dc""}","https://test12345.live/?num_scrambled_semantic=8&num_scrambled_causal=4&num_scrambled_schematic=4&participantId=44CF20B773F943FAAD0E7129A94AC4E5&assignmentId=551c170a-1e6f-4ed3-8024-a9ddcae4e459&projectId=051c06f1-75cc-4548-856d-4923ddaba0dc","44CF20B773F943FAAD0E7129A94AC4E5-2025-05-15-19-24-16","","null","","images/schematic_sequence/restaurant_scheme/restaurant_scheme_6.png","null","",""
"","","","","","image-button-response","105","886759","0.0-14.0-1.0-1.5","44CF20B773F943FAAD0E7129A94AC4E5","44CF20B773F943FAAD0E7129A94AC4E5","551c170a-1e6f-4ed3-8024-a9ddcae4e459","051c06f1-75cc-4548-856d-4923ddaba0dc","{""num_scrambled_semantic"":""8"",""num_scrambled_causal"":""4"",""num_scrambled_schematic"":""4"",""participantId"":""44CF20B773F943FAAD0E7129A94AC4E5"",""assignmentId"":""551c170a-1e6f-4ed3-8024-a9ddcae4e459"",""projectId"":""051c06f1-75cc-4548-856d-4923ddaba0dc""}","https://test12345.live/?num_scrambled_semantic=8&num_scrambled_causal=4&num_scrambled_schematic=4&participantId=44CF20B773F943FAAD0E7129A94AC4E5&assignmentId=551c170a-1e6f-4ed3-8024-a9ddcae4e459&projectId=051c06f1-75cc-4548-856d-4923ddaba0dc","44CF20B773F943FAAD0E7129A94AC4E5-2025-05-15-19-24-16","","1059","","images/schematic_sequence/restaurant_scheme/restaurant_scheme_6.png","1","",""
"","","","","","image-button-response","106","888566","0.0-14.0-1.0-2.5","44CF20B773F943FAAD0E7129A94AC4E5","44CF20B773F943FAAD0E7129A94AC4E5","551c170a-1e6f-4ed3-8024-a9ddcae4e459","051c06f1-75cc-4548-856d-4923ddaba0dc","{""num_scrambled_semantic"":""8"",""num_scrambled_causal"":""4"",""num_scrambled_schematic"":""4"",""participantId"":""44CF20B773F943FAAD0E7129A94AC4E5"",""assignmentId"":""551c170a-1e6f-4ed3-8024-a9ddcae4e459"",""projectId"":""051c06f1-75cc-4548-856d-4923ddaba0dc""}","https://test12345.live/?num_scrambled_semantic=8&num_scrambled_causal=4&num_scrambled_schematic=4&participantId=44CF20B773F943FAAD0E7129A94AC4E5&assignmentId=551c170a-1e6f-4ed3-8024-a9ddcae4e459&projectId=051c06f1-75cc-4548-856d-4923ddaba0dc","44CF20B773F943FAAD0E7129A94AC4E5-2025-05-15-19-24-16","","null","","[]","null","",""
"","","","","","image-button-response","107","893070","0.0-14.0-1.0-0.6","44CF20B773F943FAAD0E7129A94AC4E5","44CF20B773F943FAAD0E7129A94AC4E5","551c170a-1e6f-4ed3-8024-a9ddcae4e459","051c06f1-75cc-4548-856d-4923ddaba0dc","{""num_scrambled_semantic"":""8"",""num_scrambled_causal"":""4"",""num_scrambled_schematic"":""4"",""participantId"":""44CF20B773F943FAAD0E7129A94AC4E5"",""assignmentId"":""551c170a-1e6f-4ed3-8024-a9ddcae4e459"",""projectId"":""051c06f1-75cc-4548-856d-4923ddaba0dc""}","https://test12345.live/?num_scrambled_semantic=8&num_scrambled_causal=4&num_scrambled_schematic=4&participantId=44CF20B773F943FAAD0E7129A94AC4E5&assignmentId=551c170a-1e6f-4ed3-8024-a9ddcae4e459&projectId=051c06f1-75cc-4548-856d-4923ddaba0dc","44CF20B773F943FAAD0E7129A94AC4E5-2025-05-15-19-24-16","","null","","images/schematic_sequence/restaurant_scheme/restaurant_scheme_3.png","null","",""
"","","","","","image-button-response","108","893859","0.0-14.0-1.0-1.6","44CF20B773F943FAAD0E7129A94AC4E5","44CF20B773F943FAAD0E7129A94AC4E5","551c170a-1e6f-4ed3-8024-a9ddcae4e459","051c06f1-75cc-4548-856d-4923ddaba0dc","{""num_scrambled_semantic"":""8"",""num_scrambled_causal"":""4"",""num_scrambled_schematic"":""4"",""participantId"":""44CF20B773F943FAAD0E7129A94AC4E5"",""assignmentId"":""551c170a-1e6f-4ed3-8024-a9ddcae4e459"",""projectId"":""051c06f1-75cc-4548-856d-4923ddaba0dc""}","https://test12345.live/?num_scrambled_semantic=8&num_scrambled_causal=4&num_scrambled_schematic=4&participantId=44CF20B773F943FAAD0E7129A94AC4E5&assignmentId=551c170a-1e6f-4ed3-8024-a9ddcae4e459&projectId=051c06f1-75cc-4548-856d-4923ddaba0dc","44CF20B773F943FAAD0E7129A94AC4E5-2025-05-15-19-24-16","","787","","images/schematic_sequence/restaurant_scheme/restaurant_scheme_3.png","1","",""
"","","","","","image-button-response","109","895666","0.0-14.0-1.0-2.6","44CF20B773F943FAAD0E7129A94AC4E5","44CF20B773F943FAAD0E7129A94AC4E5","551c170a-1e6f-4ed3-8024-a9ddcae4e459","051c06f1-75cc-4548-856d-4923ddaba0dc","{""num_scrambled_semantic"":""8"",""num_scrambled_causal"":""4"",""num_scrambled_schematic"":""4"",""participantId"":""44CF20B773F943FAAD0E7129A94AC4E5"",""assignmentId"":""551c170a-1e6f-4ed3-8024-a9ddcae4e459"",""projectId"":""051c06f1-75cc-4548-856d-4923ddaba0dc""}","https://test12345.live/?num_scrambled_semantic=8&num_scrambled_causal=4&num_scrambled_schematic=4&participantId=44CF20B773F943FAAD0E7129A94AC4E5&assignmentId=551c170a-1e6f-4ed3-8024-a9ddcae4e459&projectId=051c06f1-75cc-4548-856d-4923ddaba0dc","44CF20B773F943FAAD0E7129A94AC4E5-2025-05-15-19-24-16","","null","","[]","null","",""
"","","","","","image-button-response","110","900168","0.0-14.0-1.0-0.7","44CF20B773F943FAAD0E7129A94AC4E5","44CF20B773F943FAAD0E7129A94AC4E5","551c170a-1e6f-4ed3-8024-a9ddcae4e459","051c06f1-75cc-4548-856d-4923ddaba0dc","{""num_scrambled_semantic"":""8"",""num_scrambled_causal"":""4"",""num_scrambled_schematic"":""4"",""participantId"":""44CF20B773F943FAAD0E7129A94AC4E5"",""assignmentId"":""551c170a-1e6f-4ed3-8024-a9ddcae4e459"",""projectId"":""051c06f1-75cc-4548-856d-4923ddaba0dc""}","https://test12345.live/?num_scrambled_semantic=8&num_scrambled_causal=4&num_scrambled_schematic=4&participantId=44CF20B773F943FAAD0E7129A94AC4E5&assignmentId=551c170a-1e6f-4ed3-8024-a9ddcae4e459&projectId=051c06f1-75cc-4548-856d-4923ddaba0dc","44CF20B773F943FAAD0E7129A94AC4E5-2025-05-15-19-24-16","","null","","images/schematic_sequence/restaurant_scheme/restaurant_scheme_ten.png","null","",""
"","","","","","image-button-response","111","901042","0.0-14.0-1.0-1.7","44CF20B773F943FAAD0E7129A94AC4E5","44CF20B773F943FAAD0E7129A94AC4E5","551c170a-1e6f-4ed3-8024-a9ddcae4e459","051c06f1-75cc-4548-856d-4923ddaba0dc","{""num_scrambled_semantic"":""8"",""num_scrambled_causal"":""4"",""num_scrambled_schematic"":""4"",""participantId"":""44CF20B773F943FAAD0E7129A94AC4E5"",""assignmentId"":""551c170a-1e6f-4ed3-8024-a9ddcae4e459"",""projectId"":""051c06f1-75cc-4548-856d-4923ddaba0dc""}","https://test12345.live/?num_scrambled_semantic=8&num_scrambled_causal=4&num_scrambled_schematic=4&participantId=44CF20B773F943FAAD0E7129A94AC4E5&assignmentId=551c170a-1e6f-4ed3-8024-a9ddcae4e459&projectId=051c06f1-75cc-4548-856d-4923ddaba0dc","44CF20B773F943FAAD0E7129A94AC4E5-2025-05-15-19-24-16","","872","","images/schematic_sequence/restaurant_scheme/restaurant_scheme_ten.png","0","",""
"","","","","","image-button-response","112","902849","0.0-14.0-1.0-2.7","44CF20B773F943FAAD0E7129A94AC4E5","44CF20B773F943FAAD0E7129A94AC4E5","551c170a-1e6f-4ed3-8024-a9ddcae4e459","051c06f1-75cc-4548-856d-4923ddaba0dc","{""num_scrambled_semantic"":""8"",""num_scrambled_causal"":""4"",""num_scrambled_schematic"":""4"",""participantId"":""44CF20B773F943FAAD0E7129A94AC4E5"",""assignmentId"":""551c170a-1e6f-4ed3-8024-a9ddcae4e459"",""projectId"":""051c06f1-75cc-4548-856d-4923ddaba0dc""}","https://test12345.live/?num_scrambled_semantic=8&num_scrambled_causal=4&num_scrambled_schematic=4&participantId=44CF20B773F943FAAD0E7129A94AC4E5&assignmentId=551c170a-1e6f-4ed3-8024-a9ddcae4e459&projectId=051c06f1-75cc-4548-856d-4923ddaba0dc","44CF20B773F943FAAD0E7129A94AC4E5-2025-05-15-19-24-16","","null","","[]","null","",""
"","","","","","image-button-response","113","907351","0.0-14.0-1.0-0.8","44CF20B773F943FAAD0E7129A94AC4E5","44CF20B773F943FAAD0E7129A94AC4E5","551c170a-1e6f-4ed3-8024-a9ddcae4e459","051c06f1-75cc-4548-856d-4923ddaba0dc","{""num_scrambled_semantic"":""8"",""num_scrambled_causal"":""4"",""num_scrambled_schematic"":""4"",""participantId"":""44CF20B773F943FAAD0E7129A94AC4E5"",""assignmentId"":""551c170a-1e6f-4ed3-8024-a9ddcae4e459"",""projectId"":""051c06f1-75cc-4548-856d-4923ddaba0dc""}","https://test12345.live/?num_scrambled_semantic=8&num_scrambled_causal=4&num_scrambled_schematic=4&participantId=44CF20B773F943FAAD0E7129A94AC4E5&assignmentId=551c170a-1e6f-4ed3-8024-a9ddcae4e459&projectId=051c06f1-75cc-4548-856d-4923ddaba0dc","44CF20B773F943FAAD0E7129A94AC4E5-2025-05-15-19-24-16","","null","","images/schematic_sequence/restaurant_scheme/restaurant_scheme_8.png","null","",""
"","","","","","image-button-response","114","908077","0.0-14.0-1.0-1.8","44CF20B773F943FAAD0E7129A94AC4E5","44CF20B773F943FAAD0E7129A94AC4E5","551c170a-1e6f-4ed3-8024-a9ddcae4e459","051c06f1-75cc-4548-856d-4923ddaba0dc","{""num_scrambled_semantic"":""8"",""num_scrambled_causal"":""4"",""num_scrambled_schematic"":""4"",""participantId"":""44CF20B773F943FAAD0E7129A94AC4E5"",""assignmentId"":""551c170a-1e6f-4ed3-8024-a9ddcae4e459"",""projectId"":""051c06f1-75cc-4548-856d-4923ddaba0dc""}","https://test12345.live/?num_scrambled_semantic=8&num_scrambled_causal=4&num_scrambled_schematic=4&participantId=44CF20B773F943FAAD0E7129A94AC4E5&assignmentId=551c170a-1e6f-4ed3-8024-a9ddcae4e459&projectId=051c06f1-75cc-4548-856d-4923ddaba0dc","44CF20B773F943FAAD0E7129A94AC4E5-2025-05-15-19-24-16","","724","","images/schematic_sequence/restaurant_scheme/restaurant_scheme_8.png","1","",""
