"success","timeout","failed_images","failed_audio","failed_video","trial_type","trial_index","time_elapsed","internal_node_id","subject","subject_id","study_id","session_id","urlvar","current_url","audio_id","view_history","rt","device_id","stimulus","response","estimated_stimulus_onset","seq_name"
"true","false","[]","[]","[]","preload","0","4396","0.0-0.0","45C186EE4B68442DA775A15CF9D6E6BF","45C186EE4B68442DA775A15CF9D6E6BF","0198b995-048f-76c7-baf4-055e414b6a3f","0198b979-1f5e-7105-8b5f-48f920534529","{""num_scrambled_semantic"":""8"",""num_scrambled_causal"":""4"",""num_scrambled_schematic"":""4"",""participantId"":""45C186EE4B68442DA775A15CF9D6E6BF"",""assignmentId"":""0198b995-048f-76c7-baf4-055e414b6a3f"",""projectId"":""0198b979-1f5e-7105-8b5f-48f920534529""}","https://test12345.live/?num_scrambled_semantic=8&num_scrambled_causal=4&num_scrambled_schematic=4&participantId=45C186EE4B68442DA775A15CF9D6E6BF&assignmentId=0198b995-048f-76c7-baf4-055e414b6a3f&projectId=0198b979-1f5e-7105-8b5f-48f920534529","45C186EE4B68442DA775A15CF9D6E6BF-2025-08-17-20-40-52","","","","","","",""
"","","","","","instructions","1","29224","0.0-1.0","45C186EE4B68442DA775A15CF9D6E6BF","45C186EE4B68442DA775A15CF9D6E6BF","0198b995-048f-76c7-baf4-055e414b6a3f","0198b979-1f5e-7105-8b5f-48f920534529","{""num_scrambled_semantic"":""8"",""num_scrambled_causal"":""4"",""num_scrambled_schematic"":""4"",""participantId"":""45C186EE4B68442DA775A15CF9D6E6BF"",""assignmentId"":""0198b995-048f-76c7-baf4-055e414b6a3f"",""projectId"":""0198b979-1f5e-7105-8b5f-48f920534529""}","https://test12345.live/?num_scrambled_semantic=8&num_scrambled_causal=4&num_scrambled_schematic=4&participantId=45C186EE4B68442DA775A15CF9D6E6BF&assignmentId=0198b995-048f-76c7-baf4-055e414b6a3f&projectId=0198b979-1f5e-7105-8b5f-48f920534529","45C186EE4B68442DA775A15CF9D6E6BF-2025-08-17-20-40-52","[{""page_index"":0,""viewing_time"":24828}]","24828","","","","",""
"","","","","","instructions","2","33072","0.0-2.0","45C186EE4B68442DA775A15CF9D6E6BF","45C186EE4B68442DA775A15CF9D6E6BF","0198b995-048f-76c7-baf4-055e414b6a3f","0198b979-1f5e-7105-8b5f-48f920534529","{""num_scrambled_semantic"":""8"",""num_scrambled_causal"":""4"",""num_scrambled_schematic"":""4"",""participantId"":""45C186EE4B68442DA775A15CF9D6E6BF"",""assignmentId"":""0198b995-048f-76c7-baf4-055e414b6a3f"",""projectId"":""0198b979-1f5e-7105-8b5f-48f920534529""}","https://test12345.live/?num_scrambled_semantic=8&num_scrambled_causal=4&num_scrambled_schematic=4&participantId=45C186EE4B68442DA775A15CF9D6E6BF&assignmentId=0198b995-048f-76c7-baf4-055e414b6a3f&projectId=0198b979-1f5e-7105-8b5f-48f920534529","45C186EE4B68442DA775A15CF9D6E6BF-2025-08-17-20-40-52","[{""page_index"":0,""viewing_time"":3848}]","3848","","","","",""
"true","","","","","fullscreen","3","779131","0.0-3.0","45C186EE4B68442DA775A15CF9D6E6BF","45C186EE4B68442DA775A15CF9D6E6BF","0198b995-048f-76c7-baf4-055e414b6a3f","0198b979-1f5e-7105-8b5f-48f920534529","{""num_scrambled_semantic"":""8"",""num_scrambled_causal"":""4"",""num_scrambled_schematic"":""4"",""participantId"":""45C186EE4B68442DA775A15CF9D6E6BF"",""assignmentId"":""0198b995-048f-76c7-baf4-055e414b6a3f"",""projectId"":""0198b979-1f5e-7105-8b5f-48f920534529""}","https://test12345.live/?num_scrambled_semantic=8&num_scrambled_causal=4&num_scrambled_schematic=4&participantId=45C186EE4B68442DA775A15CF9D6E6BF&assignmentId=0198b995-048f-76c7-baf4-055e414b6a3f&projectId=0198b979-1f5e-7105-8b5f-48f920534529","45C186EE4B68442DA775A15CF9D6E6BF-2025-08-17-20-40-52","","745053","","","","",""
"","","","","","initialize-microphone","4","795639","0.0-4.0-0.0","45C186EE4B68442DA775A15CF9D6E6BF","45C186EE4B68442DA775A15CF9D6E6BF","0198b995-048f-76c7-baf4-055e414b6a3f","0198b979-1f5e-7105-8b5f-48f920534529","{""num_scrambled_semantic"":""8"",""num_scrambled_causal"":""4"",""num_scrambled_schematic"":""4"",""participantId"":""45C186EE4B68442DA775A15CF9D6E6BF"",""assignmentId"":""0198b995-048f-76c7-baf4-055e414b6a3f"",""projectId"":""0198b979-1f5e-7105-8b5f-48f920534529""}","https://test12345.live/?num_scrambled_semantic=8&num_scrambled_causal=4&num_scrambled_schematic=4&participantId=45C186EE4B68442DA775A15CF9D6E6BF&assignmentId=0198b995-048f-76c7-baf4-055e414b6a3f&projectId=0198b979-1f5e-7105-8b5f-48f920534529","45C186EE4B68442DA775A15CF9D6E6BF-2025-08-17-20-40-52","","","dcf9f950fdd688a0070bae6f28838a599c882be653956fe3db6f6b82a176fc90","","","",""
"","","","","","html-audio-response","5","817349","0.0-4.0-1.0","45C186EE4B68442DA775A15CF9D6E6BF","45C186EE4B68442DA775A15CF9D6E6BF","0198b995-048f-76c7-baf4-055e414b6a3f","0198b979-1f5e-7105-8b5f-48f920534529","{""num_scrambled_semantic"":""8"",""num_scrambled_causal"":""4"",""num_scrambled_schematic"":""4"",""participantId"":""45C186EE4B68442DA775A15CF9D6E6BF"",""assignmentId"":""0198b995-048f-76c7-baf4-055e414b6a3f"",""projectId"":""0198b979-1f5e-7105-8b5f-48f920534529""}","https://test12345.live/?num_scrambled_semantic=8&num_scrambled_causal=4&num_scrambled_schematic=4&participantId=45C186EE4B68442DA775A15CF9D6E6BF&assignmentId=0198b995-048f-76c7-baf4-055e414b6a3f&projectId=0198b979-1f5e-7105-8b5f-48f920534529","45C186EE4B68442DA775A15CF9D6E6BF-2025-08-17-20-40-52","","8421","","<span style=""color: red; font-size: 24px""> NOW RECORDING</span>
        <p>Please test Microphone</p>","","7",""
"","","","","","html-button-response","6","820498","0.0-4.0-2.0","45C186EE4B68442DA775A15CF9D6E6BF","45C186EE4B68442DA775A15CF9D6E6BF","0198b995-048f-76c7-baf4-055e414b6a3f","0198b979-1f5e-7105-8b5f-48f920534529","{""num_scrambled_semantic"":""8"",""num_scrambled_causal"":""4"",""num_scrambled_schematic"":""4"",""participantId"":""45C186EE4B68442DA775A15CF9D6E6BF"",""assignmentId"":""0198b995-048f-76c7-baf4-055e414b6a3f"",""projectId"":""0198b979-1f5e-7105-8b5f-48f920534529""}","https://test12345.live/?num_scrambled_semantic=8&num_scrambled_causal=4&num_scrambled_schematic=4&participantId=45C186EE4B68442DA775A15CF9D6E6BF&assignmentId=0198b995-048f-76c7-baf4-055e414b6a3f&projectId=0198b979-1f5e-7105-8b5f-48f920534529","45C186EE4B68442DA775A15CF9D6E6BF-2025-08-17-20-40-52","","3148","","<p style=""font-size:48px; color:red;"">Is Microphone OK?</p>","1","",""
"","","","","","instructions","7","833767","0.0-5.0","45C186EE4B68442DA775A15CF9D6E6BF","45C186EE4B68442DA775A15CF9D6E6BF","0198b995-048f-76c7-baf4-055e414b6a3f","0198b979-1f5e-7105-8b5f-48f920534529","{""num_scrambled_semantic"":""8"",""num_scrambled_causal"":""4"",""num_scrambled_schematic"":""4"",""participantId"":""45C186EE4B68442DA775A15CF9D6E6BF"",""assignmentId"":""0198b995-048f-76c7-baf4-055e414b6a3f"",""projectId"":""0198b979-1f5e-7105-8b5f-48f920534529""}","https://test12345.live/?num_scrambled_semantic=8&num_scrambled_causal=4&num_scrambled_schematic=4&participantId=45C186EE4B68442DA775A15CF9D6E6BF&assignmentId=0198b995-048f-76c7-baf4-055e414b6a3f&projectId=0198b979-1f5e-7105-8b5f-48f920534529","45C186EE4B68442DA775A15CF9D6E6BF-2025-08-17-20-40-52","[{""page_index"":0,""viewing_time"":3790},{""page_index"":1,""viewing_time"":9479}]","13269","","","","",""
"","","","","","image-button-response","8","839771","0.0-6.0-0.0","45C186EE4B68442DA775A15CF9D6E6BF","45C186EE4B68442DA775A15CF9D6E6BF","0198b995-048f-76c7-baf4-055e414b6a3f","0198b979-1f5e-7105-8b5f-48f920534529","{""num_scrambled_semantic"":""8"",""num_scrambled_causal"":""4"",""num_scrambled_schematic"":""4"",""participantId"":""45C186EE4B68442DA775A15CF9D6E6BF"",""assignmentId"":""0198b995-048f-76c7-baf4-055e414b6a3f"",""projectId"":""0198b979-1f5e-7105-8b5f-48f920534529""}","https://test12345.live/?num_scrambled_semantic=8&num_scrambled_causal=4&num_scrambled_schematic=4&participantId=45C186EE4B68442DA775A15CF9D6E6BF&assignmentId=0198b995-048f-76c7-baf4-055e414b6a3f&projectId=0198b979-1f5e-7105-8b5f-48f920534529","45C186EE4B68442DA775A15CF9D6E6BF-2025-08-17-20-40-52","","null","","images/instructions/movie_0.png","null","",""
"","","","","","image-button-response","9","844273","0.0-6.0-1.0-0.0","45C186EE4B68442DA775A15CF9D6E6BF","45C186EE4B68442DA775A15CF9D6E6BF","0198b995-048f-76c7-baf4-055e414b6a3f","0198b979-1f5e-7105-8b5f-48f920534529","{""num_scrambled_semantic"":""8"",""num_scrambled_causal"":""4"",""num_scrambled_schematic"":""4"",""participantId"":""45C186EE4B68442DA775A15CF9D6E6BF"",""assignmentId"":""0198b995-048f-76c7-baf4-055e414b6a3f"",""projectId"":""0198b979-1f5e-7105-8b5f-48f920534529""}","https://test12345.live/?num_scrambled_semantic=8&num_scrambled_causal=4&num_scrambled_schematic=4&participantId=45C186EE4B68442DA775A15CF9D6E6BF&assignmentId=0198b995-048f-76c7-baf4-055e414b6a3f&projectId=0198b979-1f5e-7105-8b5f-48f920534529","45C186EE4B68442DA775A15CF9D6E6BF-2025-08-17-20-40-52","","null","","images/instructions/movie_1.png","null","",""
"","","","","","image-button-response","10","848276","0.0-6.0-1.0-1.0","45C186EE4B68442DA775A15CF9D6E6BF","45C186EE4B68442DA775A15CF9D6E6BF","0198b995-048f-76c7-baf4-055e414b6a3f","0198b979-1f5e-7105-8b5f-48f920534529","{""num_scrambled_semantic"":""8"",""num_scrambled_causal"":""4"",""num_scrambled_schematic"":""4"",""participantId"":""45C186EE4B68442DA775A15CF9D6E6BF"",""assignmentId"":""0198b995-048f-76c7-baf4-055e414b6a3f"",""projectId"":""0198b979-1f5e-7105-8b5f-48f920534529""}","https://test12345.live/?num_scrambled_semantic=8&num_scrambled_causal=4&num_scrambled_schematic=4&participantId=45C186EE4B68442DA775A15CF9D6E6BF&assignmentId=0198b995-048f-76c7-baf4-055e414b6a3f&projectId=0198b979-1f5e-7105-8b5f-48f920534529","45C186EE4B68442DA775A15CF9D6E6BF-2025-08-17-20-40-52","","null","","images/instructions/movie_1.png","null","",""
"","","","","","image-button-response","11","853676","0.0-6.0-1.0-2.0","45C186EE4B68442DA775A15CF9D6E6BF","45C186EE4B68442DA775A15CF9D6E6BF","0198b995-048f-76c7-baf4-055e414b6a3f","0198b979-1f5e-7105-8b5f-48f920534529","{""num_scrambled_semantic"":""8"",""num_scrambled_causal"":""4"",""num_scrambled_schematic"":""4"",""participantId"":""45C186EE4B68442DA775A15CF9D6E6BF"",""assignmentId"":""0198b995-048f-76c7-baf4-055e414b6a3f"",""projectId"":""0198b979-1f5e-7105-8b5f-48f920534529""}","https://test12345.live/?num_scrambled_semantic=8&num_scrambled_causal=4&num_scrambled_schematic=4&participantId=45C186EE4B68442DA775A15CF9D6E6BF&assignmentId=0198b995-048f-76c7-baf4-055e414b6a3f&projectId=0198b979-1f5e-7105-8b5f-48f920534529","45C186EE4B68442DA775A15CF9D6E6BF-2025-08-17-20-40-52","","null","","[]","null","",""
"","","","","","image-button-response","12","858178","0.0-6.0-1.0-0.1","45C186EE4B68442DA775A15CF9D6E6BF","45C186EE4B68442DA775A15CF9D6E6BF","0198b995-048f-76c7-baf4-055e414b6a3f","0198b979-1f5e-7105-8b5f-48f920534529","{""num_scrambled_semantic"":""8"",""num_scrambled_causal"":""4"",""num_scrambled_schematic"":""4"",""participantId"":""45C186EE4B68442DA775A15CF9D6E6BF"",""assignmentId"":""0198b995-048f-76c7-baf4-055e414b6a3f"",""projectId"":""0198b979-1f5e-7105-8b5f-48f920534529""}","https://test12345.live/?num_scrambled_semantic=8&num_scrambled_causal=4&num_scrambled_schematic=4&participantId=45C186EE4B68442DA775A15CF9D6E6BF&assignmentId=0198b995-048f-76c7-baf4-055e414b6a3f&projectId=0198b979-1f5e-7105-8b5f-48f920534529","45C186EE4B68442DA775A15CF9D6E6BF-2025-08-17-20-40-52","","null","","images/instructions/movie_2.png","null","",""
"","","","","","image-button-response","13","859879","0.0-6.0-1.0-1.1","45C186EE4B68442DA775A15CF9D6E6BF","45C186EE4B68442DA775A15CF9D6E6BF","0198b995-048f-76c7-baf4-055e414b6a3f","0198b979-1f5e-7105-8b5f-48f920534529","{""num_scrambled_semantic"":""8"",""num_scrambled_causal"":""4"",""num_scrambled_schematic"":""4"",""participantId"":""45C186EE4B68442DA775A15CF9D6E6BF"",""assignmentId"":""0198b995-048f-76c7-baf4-055e414b6a3f"",""projectId"":""0198b979-1f5e-7105-8b5f-48f920534529""}","https://test12345.live/?num_scrambled_semantic=8&num_scrambled_causal=4&num_scrambled_schematic=4&participantId=45C186EE4B68442DA775A15CF9D6E6BF&assignmentId=0198b995-048f-76c7-baf4-055e414b6a3f&projectId=0198b979-1f5e-7105-8b5f-48f920534529","45C186EE4B68442DA775A15CF9D6E6BF-2025-08-17-20-40-52","","1699","","images/instructions/movie_2.png","0","",""
"","","","","","image-button-response","14","865280","0.0-6.0-1.0-2.1","45C186EE4B68442DA775A15CF9D6E6BF","45C186EE4B68442DA775A15CF9D6E6BF","0198b995-048f-76c7-baf4-055e414b6a3f","0198b979-1f5e-7105-8b5f-48f920534529","{""num_scrambled_semantic"":""8"",""num_scrambled_causal"":""4"",""num_scrambled_schematic"":""4"",""participantId"":""45C186EE4B68442DA775A15CF9D6E6BF"",""assignmentId"":""0198b995-048f-76c7-baf4-055e414b6a3f"",""projectId"":""0198b979-1f5e-7105-8b5f-48f920534529""}","https://test12345.live/?num_scrambled_semantic=8&num_scrambled_causal=4&num_scrambled_schematic=4&participantId=45C186EE4B68442DA775A15CF9D6E6BF&assignmentId=0198b995-048f-76c7-baf4-055e414b6a3f&projectId=0198b979-1f5e-7105-8b5f-48f920534529","45C186EE4B68442DA775A15CF9D6E6BF-2025-08-17-20-40-52","","null","","[]","null","",""
"","","","","","image-button-response","15","869782","0.0-6.0-1.0-0.2","45C186EE4B68442DA775A15CF9D6E6BF","45C186EE4B68442DA775A15CF9D6E6BF","0198b995-048f-76c7-baf4-055e414b6a3f","0198b979-1f5e-7105-8b5f-48f920534529","{""num_scrambled_semantic"":""8"",""num_scrambled_causal"":""4"",""num_scrambled_schematic"":""4"",""participantId"":""45C186EE4B68442DA775A15CF9D6E6BF"",""assignmentId"":""0198b995-048f-76c7-baf4-055e414b6a3f"",""projectId"":""0198b979-1f5e-7105-8b5f-48f920534529""}","https://test12345.live/?num_scrambled_semantic=8&num_scrambled_causal=4&num_scrambled_schematic=4&participantId=45C186EE4B68442DA775A15CF9D6E6BF&assignmentId=0198b995-048f-76c7-baf4-055e414b6a3f&projectId=0198b979-1f5e-7105-8b5f-48f920534529","45C186EE4B68442DA775A15CF9D6E6BF-2025-08-17-20-40-52","","null","","images/instructions/movie_3.png","null","",""
"","","","","","image-button-response","16","871209","0.0-6.0-1.0-1.2","45C186EE4B68442DA775A15CF9D6E6BF","45C186EE4B68442DA775A15CF9D6E6BF","0198b995-048f-76c7-baf4-055e414b6a3f","0198b979-1f5e-7105-8b5f-48f920534529","{""num_scrambled_semantic"":""8"",""num_scrambled_causal"":""4"",""num_scrambled_schematic"":""4"",""participantId"":""45C186EE4B68442DA775A15CF9D6E6BF"",""assignmentId"":""0198b995-048f-76c7-baf4-055e414b6a3f"",""projectId"":""0198b979-1f5e-7105-8b5f-48f920534529""}","https://test12345.live/?num_scrambled_semantic=8&num_scrambled_causal=4&num_scrambled_schematic=4&participantId=45C186EE4B68442DA775A15CF9D6E6BF&assignmentId=0198b995-048f-76c7-baf4-055e414b6a3f&projectId=0198b979-1f5e-7105-8b5f-48f920534529","45C186EE4B68442DA775A15CF9D6E6BF-2025-08-17-20-40-52","","1427","","images/instructions/movie_3.png","0","",""
"","","","","","image-button-response","17","876611","0.0-6.0-1.0-2.2","45C186EE4B68442DA775A15CF9D6E6BF","45C186EE4B68442DA775A15CF9D6E6BF","0198b995-048f-76c7-baf4-055e414b6a3f","0198b979-1f5e-7105-8b5f-48f920534529","{""num_scrambled_semantic"":""8"",""num_scrambled_causal"":""4"",""num_scrambled_schematic"":""4"",""participantId"":""45C186EE4B68442DA775A15CF9D6E6BF"",""assignmentId"":""0198b995-048f-76c7-baf4-055e414b6a3f"",""projectId"":""0198b979-1f5e-7105-8b5f-48f920534529""}","https://test12345.live/?num_scrambled_semantic=8&num_scrambled_causal=4&num_scrambled_schematic=4&participantId=45C186EE4B68442DA775A15CF9D6E6BF&assignmentId=0198b995-048f-76c7-baf4-055e414b6a3f&projectId=0198b979-1f5e-7105-8b5f-48f920534529","45C186EE4B68442DA775A15CF9D6E6BF-2025-08-17-20-40-52","","null","","[]","null","",""
"","","","","","image-button-response","18","881111","0.0-6.0-1.0-0.3","45C186EE4B68442DA775A15CF9D6E6BF","45C186EE4B68442DA775A15CF9D6E6BF","0198b995-048f-76c7-baf4-055e414b6a3f","0198b979-1f5e-7105-8b5f-48f920534529","{""num_scrambled_semantic"":""8"",""num_scrambled_causal"":""4"",""num_scrambled_schematic"":""4"",""participantId"":""45C186EE4B68442DA775A15CF9D6E6BF"",""assignmentId"":""0198b995-048f-76c7-baf4-055e414b6a3f"",""projectId"":""0198b979-1f5e-7105-8b5f-48f920534529""}","https://test12345.live/?num_scrambled_semantic=8&num_scrambled_causal=4&num_scrambled_schematic=4&participantId=45C186EE4B68442DA775A15CF9D6E6BF&assignmentId=0198b995-048f-76c7-baf4-055e414b6a3f&projectId=0198b979-1f5e-7105-8b5f-48f920534529","45C186EE4B68442DA775A15CF9D6E6BF-2025-08-17-20-40-52","","null","","images/instructions/movie_4.png","null","",""
"","","","","","image-button-response","19","882780","0.0-6.0-1.0-1.3","45C186EE4B68442DA775A15CF9D6E6BF","45C186EE4B68442DA775A15CF9D6E6BF","0198b995-048f-76c7-baf4-055e414b6a3f","0198b979-1f5e-7105-8b5f-48f920534529","{""num_scrambled_semantic"":""8"",""num_scrambled_causal"":""4"",""num_scrambled_schematic"":""4"",""participantId"":""45C186EE4B68442DA775A15CF9D6E6BF"",""assignmentId"":""0198b995-048f-76c7-baf4-055e414b6a3f"",""projectId"":""0198b979-1f5e-7105-8b5f-48f920534529""}","https://test12345.live/?num_scrambled_semantic=8&num_scrambled_causal=4&num_scrambled_schematic=4&participantId=45C186EE4B68442DA775A15CF9D6E6BF&assignmentId=0198b995-048f-76c7-baf4-055e414b6a3f&projectId=0198b979-1f5e-7105-8b5f-48f920534529","45C186EE4B68442DA775A15CF9D6E6BF-2025-08-17-20-40-52","","1667","","images/instructions/movie_4.png","0","",""
"","","","","","image-button-response","20","888181","0.0-6.0-1.0-2.3","45C186EE4B68442DA775A15CF9D6E6BF","45C186EE4B68442DA775A15CF9D6E6BF","0198b995-048f-76c7-baf4-055e414b6a3f","0198b979-1f5e-7105-8b5f-48f920534529","{""num_scrambled_semantic"":""8"",""num_scrambled_causal"":""4"",""num_scrambled_schematic"":""4"",""participantId"":""45C186EE4B68442DA775A15CF9D6E6BF"",""assignmentId"":""0198b995-048f-76c7-baf4-055e414b6a3f"",""projectId"":""0198b979-1f5e-7105-8b5f-48f920534529""}","https://test12345.live/?num_scrambled_semantic=8&num_scrambled_causal=4&num_scrambled_schematic=4&participantId=45C186EE4B68442DA775A15CF9D6E6BF&assignmentId=0198b995-048f-76c7-baf4-055e414b6a3f&projectId=0198b979-1f5e-7105-8b5f-48f920534529","45C186EE4B68442DA775A15CF9D6E6BF-2025-08-17-20-40-52","","null","","[]","null","",""
"","","","","","instructions","21","896731","0.0-7.0","45C186EE4B68442DA775A15CF9D6E6BF","45C186EE4B68442DA775A15CF9D6E6BF","0198b995-048f-76c7-baf4-055e414b6a3f","0198b979-1f5e-7105-8b5f-48f920534529","{""num_scrambled_semantic"":""8"",""num_scrambled_causal"":""4"",""num_scrambled_schematic"":""4"",""participantId"":""45C186EE4B68442DA775A15CF9D6E6BF"",""assignmentId"":""0198b995-048f-76c7-baf4-055e414b6a3f"",""projectId"":""0198b979-1f5e-7105-8b5f-48f920534529""}","https://test12345.live/?num_scrambled_semantic=8&num_scrambled_causal=4&num_scrambled_schematic=4&participantId=45C186EE4B68442DA775A15CF9D6E6BF&assignmentId=0198b995-048f-76c7-baf4-055e414b6a3f&projectId=0198b979-1f5e-7105-8b5f-48f920534529","45C186EE4B68442DA775A15CF9D6E6BF-2025-08-17-20-40-52","[{""page_index"":0,""viewing_time"":7690},{""page_index"":1,""viewing_time"":860}]","8550","","","","",""
"","","","","","html-audio-response","22","924553","0.0-8.0","45C186EE4B68442DA775A15CF9D6E6BF","45C186EE4B68442DA775A15CF9D6E6BF","0198b995-048f-76c7-baf4-055e414b6a3f","0198b979-1f5e-7105-8b5f-48f920534529","{""num_scrambled_semantic"":""8"",""num_scrambled_causal"":""4"",""num_scrambled_schematic"":""4"",""participantId"":""45C186EE4B68442DA775A15CF9D6E6BF"",""assignmentId"":""0198b995-048f-76c7-baf4-055e414b6a3f"",""projectId"":""0198b979-1f5e-7105-8b5f-48f920534529""}","https://test12345.live/?num_scrambled_semantic=8&num_scrambled_causal=4&num_scrambled_schematic=4&participantId=45C186EE4B68442DA775A15CF9D6E6BF&assignmentId=0198b995-048f-76c7-baf4-055e414b6a3f&projectId=0198b979-1f5e-7105-8b5f-48f920534529","45C186EE4B68442DA775A15CF9D6E6BF-2025-08-17-20-40-52","","25633","","[""<span style=\""color: red; font-size: 24px\""> NOW RECORDING</span><p>Please say out loud all the images you saw, as many as you can remember. The images can be said in any order.</p>""]","","1",""
"","","","","","instructions","23","926592","0.0-9.0","45C186EE4B68442DA775A15CF9D6E6BF","45C186EE4B68442DA775A15CF9D6E6BF","0198b995-048f-76c7-baf4-055e414b6a3f","0198b979-1f5e-7105-8b5f-48f920534529","{""num_scrambled_semantic"":""8"",""num_scrambled_causal"":""4"",""num_scrambled_schematic"":""4"",""participantId"":""45C186EE4B68442DA775A15CF9D6E6BF"",""assignmentId"":""0198b995-048f-76c7-baf4-055e414b6a3f"",""projectId"":""0198b979-1f5e-7105-8b5f-48f920534529""}","https://test12345.live/?num_scrambled_semantic=8&num_scrambled_causal=4&num_scrambled_schematic=4&participantId=45C186EE4B68442DA775A15CF9D6E6BF&assignmentId=0198b995-048f-76c7-baf4-055e414b6a3f&projectId=0198b979-1f5e-7105-8b5f-48f920534529","45C186EE4B68442DA775A15CF9D6E6BF-2025-08-17-20-40-52","[{""page_index"":0,""viewing_time"":2034}]","2034","","","","",""
"","","","","","image-button-response","24","932594","0.0-10.0-0.0","45C186EE4B68442DA775A15CF9D6E6BF","45C186EE4B68442DA775A15CF9D6E6BF","0198b995-048f-76c7-baf4-055e414b6a3f","0198b979-1f5e-7105-8b5f-48f920534529","{""num_scrambled_semantic"":""8"",""num_scrambled_causal"":""4"",""num_scrambled_schematic"":""4"",""participantId"":""45C186EE4B68442DA775A15CF9D6E6BF"",""assignmentId"":""0198b995-048f-76c7-baf4-055e414b6a3f"",""projectId"":""0198b979-1f5e-7105-8b5f-48f920534529""}","https://test12345.live/?num_scrambled_semantic=8&num_scrambled_causal=4&num_scrambled_schematic=4&participantId=45C186EE4B68442DA775A15CF9D6E6BF&assignmentId=0198b995-048f-76c7-baf4-055e414b6a3f&projectId=0198b979-1f5e-7105-8b5f-48f920534529","45C186EE4B68442DA775A15CF9D6E6BF-2025-08-17-20-40-52","","null","","images/semantic_sequence/housework_semantic/housework_semantic_0.png","null","",""
"","","","","","image-button-response","25","937097","0.0-10.0-1.0-0.0","45C186EE4B68442DA775A15CF9D6E6BF","45C186EE4B68442DA775A15CF9D6E6BF","0198b995-048f-76c7-baf4-055e414b6a3f","0198b979-1f5e-7105-8b5f-48f920534529","{""num_scrambled_semantic"":""8"",""num_scrambled_causal"":""4"",""num_scrambled_schematic"":""4"",""participantId"":""45C186EE4B68442DA775A15CF9D6E6BF"",""assignmentId"":""0198b995-048f-76c7-baf4-055e414b6a3f"",""projectId"":""0198b979-1f5e-7105-8b5f-48f920534529""}","https://test12345.live/?num_scrambled_semantic=8&num_scrambled_causal=4&num_scrambled_schematic=4&participantId=45C186EE4B68442DA775A15CF9D6E6BF&assignmentId=0198b995-048f-76c7-baf4-055e414b6a3f&projectId=0198b979-1f5e-7105-8b5f-48f920534529","45C186EE4B68442DA775A15CF9D6E6BF-2025-08-17-20-40-52","","null","","images/semantic_sequence/housework_semantic/housework_semantic_4.png","null","",""
"","","","","","image-button-response","26","938603","0.0-10.0-1.0-1.0","45C186EE4B68442DA775A15CF9D6E6BF","45C186EE4B68442DA775A15CF9D6E6BF","0198b995-048f-76c7-baf4-055e414b6a3f","0198b979-1f5e-7105-8b5f-48f920534529","{""num_scrambled_semantic"":""8"",""num_scrambled_causal"":""4"",""num_scrambled_schematic"":""4"",""participantId"":""45C186EE4B68442DA775A15CF9D6E6BF"",""assignmentId"":""0198b995-048f-76c7-baf4-055e414b6a3f"",""projectId"":""0198b979-1f5e-7105-8b5f-48f920534529""}","https://test12345.live/?num_scrambled_semantic=8&num_scrambled_causal=4&num_scrambled_schematic=4&participantId=45C186EE4B68442DA775A15CF9D6E6BF&assignmentId=0198b995-048f-76c7-baf4-055e414b6a3f&projectId=0198b979-1f5e-7105-8b5f-48f920534529","45C186EE4B68442DA775A15CF9D6E6BF-2025-08-17-20-40-52","","1505","","images/semantic_sequence/housework_semantic/housework_semantic_4.png","0","",""
"","","","","","image-button-response","27","944004","0.0-10.0-1.0-2.0","45C186EE4B68442DA775A15CF9D6E6BF","45C186EE4B68442DA775A15CF9D6E6BF","0198b995-048f-76c7-baf4-055e414b6a3f","0198b979-1f5e-7105-8b5f-48f920534529","{""num_scrambled_semantic"":""8"",""num_scrambled_causal"":""4"",""num_scrambled_schematic"":""4"",""participantId"":""45C186EE4B68442DA775A15CF9D6E6BF"",""assignmentId"":""0198b995-048f-76c7-baf4-055e414b6a3f"",""projectId"":""0198b979-1f5e-7105-8b5f-48f920534529""}","https://test12345.live/?num_scrambled_semantic=8&num_scrambled_causal=4&num_scrambled_schematic=4&participantId=45C186EE4B68442DA775A15CF9D6E6BF&assignmentId=0198b995-048f-76c7-baf4-055e414b6a3f&projectId=0198b979-1f5e-7105-8b5f-48f920534529","45C186EE4B68442DA775A15CF9D6E6BF-2025-08-17-20-40-52","","null","","[]","null","",""
"","","","","","image-button-response","28","948505","0.0-10.0-1.0-0.1","45C186EE4B68442DA775A15CF9D6E6BF","45C186EE4B68442DA775A15CF9D6E6BF","0198b995-048f-76c7-baf4-055e414b6a3f","0198b979-1f5e-7105-8b5f-48f920534529","{""num_scrambled_semantic"":""8"",""num_scrambled_causal"":""4"",""num_scrambled_schematic"":""4"",""participantId"":""45C186EE4B68442DA775A15CF9D6E6BF"",""assignmentId"":""0198b995-048f-76c7-baf4-055e414b6a3f"",""projectId"":""0198b979-1f5e-7105-8b5f-48f920534529""}","https://test12345.live/?num_scrambled_semantic=8&num_scrambled_causal=4&num_scrambled_schematic=4&participantId=45C186EE4B68442DA775A15CF9D6E6BF&assignmentId=0198b995-048f-76c7-baf4-055e414b6a3f&projectId=0198b979-1f5e-7105-8b5f-48f920534529","45C186EE4B68442DA775A15CF9D6E6BF-2025-08-17-20-40-52","","null","","images/semantic_sequence/housework_semantic/housework_semantic_9.png","null","",""
"","","","","","image-button-response","29","951130","0.0-10.0-1.0-1.1","45C186EE4B68442DA775A15CF9D6E6BF","45C186EE4B68442DA775A15CF9D6E6BF","0198b995-048f-76c7-baf4-055e414b6a3f","0198b979-1f5e-7105-8b5f-48f920534529","{""num_scrambled_semantic"":""8"",""num_scrambled_causal"":""4"",""num_scrambled_schematic"":""4"",""participantId"":""45C186EE4B68442DA775A15CF9D6E6BF"",""assignmentId"":""0198b995-048f-76c7-baf4-055e414b6a3f"",""projectId"":""0198b979-1f5e-7105-8b5f-48f920534529""}","https://test12345.live/?num_scrambled_semantic=8&num_scrambled_causal=4&num_scrambled_schematic=4&participantId=45C186EE4B68442DA775A15CF9D6E6BF&assignmentId=0198b995-048f-76c7-baf4-055e414b6a3f&projectId=0198b979-1f5e-7105-8b5f-48f920534529","45C186EE4B68442DA775A15CF9D6E6BF-2025-08-17-20-40-52","","2623","","images/semantic_sequence/housework_semantic/housework_semantic_9.png","0","",""
"","","","","","image-button-response","30","956532","0.0-10.0-1.0-2.1","45C186EE4B68442DA775A15CF9D6E6BF","45C186EE4B68442DA775A15CF9D6E6BF","0198b995-048f-76c7-baf4-055e414b6a3f","0198b979-1f5e-7105-8b5f-48f920534529","{""num_scrambled_semantic"":""8"",""num_scrambled_causal"":""4"",""num_scrambled_schematic"":""4"",""participantId"":""45C186EE4B68442DA775A15CF9D6E6BF"",""assignmentId"":""0198b995-048f-76c7-baf4-055e414b6a3f"",""projectId"":""0198b979-1f5e-7105-8b5f-48f920534529""}","https://test12345.live/?num_scrambled_semantic=8&num_scrambled_causal=4&num_scrambled_schematic=4&participantId=45C186EE4B68442DA775A15CF9D6E6BF&assignmentId=0198b995-048f-76c7-baf4-055e414b6a3f&projectId=0198b979-1f5e-7105-8b5f-48f920534529","45C186EE4B68442DA775A15CF9D6E6BF-2025-08-17-20-40-52","","null","","[]","null","",""
"","","","","","image-button-response","31","961034","0.0-10.0-1.0-0.2","45C186EE4B68442DA775A15CF9D6E6BF","45C186EE4B68442DA775A15CF9D6E6BF","0198b995-048f-76c7-baf4-055e414b6a3f","0198b979-1f5e-7105-8b5f-48f920534529","{""num_scrambled_semantic"":""8"",""num_scrambled_causal"":""4"",""num_scrambled_schematic"":""4"",""participantId"":""45C186EE4B68442DA775A15CF9D6E6BF"",""assignmentId"":""0198b995-048f-76c7-baf4-055e414b6a3f"",""projectId"":""0198b979-1f5e-7105-8b5f-48f920534529""}","https://test12345.live/?num_scrambled_semantic=8&num_scrambled_causal=4&num_scrambled_schematic=4&participantId=45C186EE4B68442DA775A15CF9D6E6BF&assignmentId=0198b995-048f-76c7-baf4-055e414b6a3f&projectId=0198b979-1f5e-7105-8b5f-48f920534529","45C186EE4B68442DA775A15CF9D6E6BF-2025-08-17-20-40-52","","null","","images/semantic_sequence/housework_semantic/housework_semantic_8.png","null","",""
"","","","","","image-button-response","32","962754","0.0-10.0-1.0-1.2","45C186EE4B68442DA775A15CF9D6E6BF","45C186EE4B68442DA775A15CF9D6E6BF","0198b995-048f-76c7-baf4-055e414b6a3f","0198b979-1f5e-7105-8b5f-48f920534529","{""num_scrambled_semantic"":""8"",""num_scrambled_causal"":""4"",""num_scrambled_schematic"":""4"",""participantId"":""45C186EE4B68442DA775A15CF9D6E6BF"",""assignmentId"":""0198b995-048f-76c7-baf4-055e414b6a3f"",""projectId"":""0198b979-1f5e-7105-8b5f-48f920534529""}","https://test12345.live/?num_scrambled_semantic=8&num_scrambled_causal=4&num_scrambled_schematic=4&participantId=45C186EE4B68442DA775A15CF9D6E6BF&assignmentId=0198b995-048f-76c7-baf4-055e414b6a3f&projectId=0198b979-1f5e-7105-8b5f-48f920534529","45C186EE4B68442DA775A15CF9D6E6BF-2025-08-17-20-40-52","","1719","","images/semantic_sequence/housework_semantic/housework_semantic_8.png","0","",""
"","","","","","image-button-response","33","968155","0.0-10.0-1.0-2.2","45C186EE4B68442DA775A15CF9D6E6BF","45C186EE4B68442DA775A15CF9D6E6BF","0198b995-048f-76c7-baf4-055e414b6a3f","0198b979-1f5e-7105-8b5f-48f920534529","{""num_scrambled_semantic"":""8"",""num_scrambled_causal"":""4"",""num_scrambled_schematic"":""4"",""participantId"":""45C186EE4B68442DA775A15CF9D6E6BF"",""assignmentId"":""0198b995-048f-76c7-baf4-055e414b6a3f"",""projectId"":""0198b979-1f5e-7105-8b5f-48f920534529""}","https://test12345.live/?num_scrambled_semantic=8&num_scrambled_causal=4&num_scrambled_schematic=4&participantId=45C186EE4B68442DA775A15CF9D6E6BF&assignmentId=0198b995-048f-76c7-baf4-055e414b6a3f&projectId=0198b979-1f5e-7105-8b5f-48f920534529","45C186EE4B68442DA775A15CF9D6E6BF-2025-08-17-20-40-52","","null","","[]","null","",""
"","","","","","image-button-response","34","972657","0.0-10.0-1.0-0.3","45C186EE4B68442DA775A15CF9D6E6BF","45C186EE4B68442DA775A15CF9D6E6BF","0198b995-048f-76c7-baf4-055e414b6a3f","0198b979-1f5e-7105-8b5f-48f920534529","{""num_scrambled_semantic"":""8"",""num_scrambled_causal"":""4"",""num_scrambled_schematic"":""4"",""participantId"":""45C186EE4B68442DA775A15CF9D6E6BF"",""assignmentId"":""0198b995-048f-76c7-baf4-055e414b6a3f"",""projectId"":""0198b979-1f5e-7105-8b5f-48f920534529""}","https://test12345.live/?num_scrambled_semantic=8&num_scrambled_causal=4&num_scrambled_schematic=4&participantId=45C186EE4B68442DA775A15CF9D6E6BF&assignmentId=0198b995-048f-76c7-baf4-055e414b6a3f&projectId=0198b979-1f5e-7105-8b5f-48f920534529","45C186EE4B68442DA775A15CF9D6E6BF-2025-08-17-20-40-52","","null","","images/semantic_sequence/housework_semantic/housework_semantic_6.png","null","",""
"","","","","","image-button-response","35","974995","0.0-10.0-1.0-1.3","45C186EE4B68442DA775A15CF9D6E6BF","45C186EE4B68442DA775A15CF9D6E6BF","0198b995-048f-76c7-baf4-055e414b6a3f","0198b979-1f5e-7105-8b5f-48f920534529","{""num_scrambled_semantic"":""8"",""num_scrambled_causal"":""4"",""num_scrambled_schematic"":""4"",""participantId"":""45C186EE4B68442DA775A15CF9D6E6BF"",""assignmentId"":""0198b995-048f-76c7-baf4-055e414b6a3f"",""projectId"":""0198b979-1f5e-7105-8b5f-48f920534529""}","https://test12345.live/?num_scrambled_semantic=8&num_scrambled_causal=4&num_scrambled_schematic=4&participantId=45C186EE4B68442DA775A15CF9D6E6BF&assignmentId=0198b995-048f-76c7-baf4-055e414b6a3f&projectId=0198b979-1f5e-7105-8b5f-48f920534529","45C186EE4B68442DA775A15CF9D6E6BF-2025-08-17-20-40-52","","2337","","images/semantic_sequence/housework_semantic/housework_semantic_6.png","0","",""
"","","","","","image-button-response","36","980397","0.0-10.0-1.0-2.3","45C186EE4B68442DA775A15CF9D6E6BF","45C186EE4B68442DA775A15CF9D6E6BF","0198b995-048f-76c7-baf4-055e414b6a3f","0198b979-1f5e-7105-8b5f-48f920534529","{""num_scrambled_semantic"":""8"",""num_scrambled_causal"":""4"",""num_scrambled_schematic"":""4"",""participantId"":""45C186EE4B68442DA775A15CF9D6E6BF"",""assignmentId"":""0198b995-048f-76c7-baf4-055e414b6a3f"",""projectId"":""0198b979-1f5e-7105-8b5f-48f920534529""}","https://test12345.live/?num_scrambled_semantic=8&num_scrambled_causal=4&num_scrambled_schematic=4&participantId=45C186EE4B68442DA775A15CF9D6E6BF&assignmentId=0198b995-048f-76c7-baf4-055e414b6a3f&projectId=0198b979-1f5e-7105-8b5f-48f920534529","45C186EE4B68442DA775A15CF9D6E6BF-2025-08-17-20-40-52","","null","","[]","null","",""
"","","","","","image-button-response","37","984900","0.0-10.0-1.0-0.4","45C186EE4B68442DA775A15CF9D6E6BF","45C186EE4B68442DA775A15CF9D6E6BF","0198b995-048f-76c7-baf4-055e414b6a3f","0198b979-1f5e-7105-8b5f-48f920534529","{""num_scrambled_semantic"":""8"",""num_scrambled_causal"":""4"",""num_scrambled_schematic"":""4"",""participantId"":""45C186EE4B68442DA775A15CF9D6E6BF"",""assignmentId"":""0198b995-048f-76c7-baf4-055e414b6a3f"",""projectId"":""0198b979-1f5e-7105-8b5f-48f920534529""}","https://test12345.live/?num_scrambled_semantic=8&num_scrambled_causal=4&num_scrambled_schematic=4&participantId=45C186EE4B68442DA775A15CF9D6E6BF&assignmentId=0198b995-048f-76c7-baf4-055e414b6a3f&projectId=0198b979-1f5e-7105-8b5f-48f920534529","45C186EE4B68442DA775A15CF9D6E6BF-2025-08-17-20-40-52","","null","","images/semantic_sequence/housework_semantic/housework_semantic_7.png","null","",""
"","","","","","image-button-response","38","986236","0.0-10.0-1.0-1.4","45C186EE4B68442DA775A15CF9D6E6BF","45C186EE4B68442DA775A15CF9D6E6BF","0198b995-048f-76c7-baf4-055e414b6a3f","0198b979-1f5e-7105-8b5f-48f920534529","{""num_scrambled_semantic"":""8"",""num_scrambled_causal"":""4"",""num_scrambled_schematic"":""4"",""participantId"":""45C186EE4B68442DA775A15CF9D6E6BF"",""assignmentId"":""0198b995-048f-76c7-baf4-055e414b6a3f"",""projectId"":""0198b979-1f5e-7105-8b5f-48f920534529""}","https://test12345.live/?num_scrambled_semantic=8&num_scrambled_causal=4&num_scrambled_schematic=4&participantId=45C186EE4B68442DA775A15CF9D6E6BF&assignmentId=0198b995-048f-76c7-baf4-055e414b6a3f&projectId=0198b979-1f5e-7105-8b5f-48f920534529","45C186EE4B68442DA775A15CF9D6E6BF-2025-08-17-20-40-52","","1335","","images/semantic_sequence/housework_semantic/housework_semantic_7.png","0","",""
"","","","","","image-button-response","39","991637","0.0-10.0-1.0-2.4","45C186EE4B68442DA775A15CF9D6E6BF","45C186EE4B68442DA775A15CF9D6E6BF","0198b995-048f-76c7-baf4-055e414b6a3f","0198b979-1f5e-7105-8b5f-48f920534529","{""num_scrambled_semantic"":""8"",""num_scrambled_causal"":""4"",""num_scrambled_schematic"":""4"",""participantId"":""45C186EE4B68442DA775A15CF9D6E6BF"",""assignmentId"":""0198b995-048f-76c7-baf4-055e414b6a3f"",""projectId"":""0198b979-1f5e-7105-8b5f-48f920534529""}","https://test12345.live/?num_scrambled_semantic=8&num_scrambled_causal=4&num_scrambled_schematic=4&participantId=45C186EE4B68442DA775A15CF9D6E6BF&assignmentId=0198b995-048f-76c7-baf4-055e414b6a3f&projectId=0198b979-1f5e-7105-8b5f-48f920534529","45C186EE4B68442DA775A15CF9D6E6BF-2025-08-17-20-40-52","","null","","[]","null","",""
"","","","","","image-button-response","40","996138","0.0-10.0-1.0-0.5","45C186EE4B68442DA775A15CF9D6E6BF","45C186EE4B68442DA775A15CF9D6E6BF","0198b995-048f-76c7-baf4-055e414b6a3f","0198b979-1f5e-7105-8b5f-48f920534529","{""num_scrambled_semantic"":""8"",""num_scrambled_causal"":""4"",""num_scrambled_schematic"":""4"",""participantId"":""45C186EE4B68442DA775A15CF9D6E6BF"",""assignmentId"":""0198b995-048f-76c7-baf4-055e414b6a3f"",""projectId"":""0198b979-1f5e-7105-8b5f-48f920534529""}","https://test12345.live/?num_scrambled_semantic=8&num_scrambled_causal=4&num_scrambled_schematic=4&participantId=45C186EE4B68442DA775A15CF9D6E6BF&assignmentId=0198b995-048f-76c7-baf4-055e414b6a3f&projectId=0198b979-1f5e-7105-8b5f-48f920534529","45C186EE4B68442DA775A15CF9D6E6BF-2025-08-17-20-40-52","","null","","images/semantic_sequence/housework_semantic/housework_semantic_5.png","null","",""
"","","","","","image-button-response","41","998026","0.0-10.0-1.0-1.5","45C186EE4B68442DA775A15CF9D6E6BF","45C186EE4B68442DA775A15CF9D6E6BF","0198b995-048f-76c7-baf4-055e414b6a3f","0198b979-1f5e-7105-8b5f-48f920534529","{""num_scrambled_semantic"":""8"",""num_scrambled_causal"":""4"",""num_scrambled_schematic"":""4"",""participantId"":""45C186EE4B68442DA775A15CF9D6E6BF"",""assignmentId"":""0198b995-048f-76c7-baf4-055e414b6a3f"",""projectId"":""0198b979-1f5e-7105-8b5f-48f920534529""}","https://test12345.live/?num_scrambled_semantic=8&num_scrambled_causal=4&num_scrambled_schematic=4&participantId=45C186EE4B68442DA775A15CF9D6E6BF&assignmentId=0198b995-048f-76c7-baf4-055e414b6a3f&projectId=0198b979-1f5e-7105-8b5f-48f920534529","45C186EE4B68442DA775A15CF9D6E6BF-2025-08-17-20-40-52","","1887","","images/semantic_sequence/housework_semantic/housework_semantic_5.png","0","",""
"","","","","","image-button-response","42","1003427","0.0-10.0-1.0-2.5","45C186EE4B68442DA775A15CF9D6E6BF","45C186EE4B68442DA775A15CF9D6E6BF","0198b995-048f-76c7-baf4-055e414b6a3f","0198b979-1f5e-7105-8b5f-48f920534529","{""num_scrambled_semantic"":""8"",""num_scrambled_causal"":""4"",""num_scrambled_schematic"":""4"",""participantId"":""45C186EE4B68442DA775A15CF9D6E6BF"",""assignmentId"":""0198b995-048f-76c7-baf4-055e414b6a3f"",""projectId"":""0198b979-1f5e-7105-8b5f-48f920534529""}","https://test12345.live/?num_scrambled_semantic=8&num_scrambled_causal=4&num_scrambled_schematic=4&participantId=45C186EE4B68442DA775A15CF9D6E6BF&assignmentId=0198b995-048f-76c7-baf4-055e414b6a3f&projectId=0198b979-1f5e-7105-8b5f-48f920534529","45C186EE4B68442DA775A15CF9D6E6BF-2025-08-17-20-40-52","","null","","[]","null","",""
"","","","","","image-button-response","43","1007930","0.0-10.0-1.0-0.6","45C186EE4B68442DA775A15CF9D6E6BF","45C186EE4B68442DA775A15CF9D6E6BF","0198b995-048f-76c7-baf4-055e414b6a3f","0198b979-1f5e-7105-8b5f-48f920534529","{""num_scrambled_semantic"":""8"",""num_scrambled_causal"":""4"",""num_scrambled_schematic"":""4"",""participantId"":""45C186EE4B68442DA775A15CF9D6E6BF"",""assignmentId"":""0198b995-048f-76c7-baf4-055e414b6a3f"",""projectId"":""0198b979-1f5e-7105-8b5f-48f920534529""}","https://test12345.live/?num_scrambled_semantic=8&num_scrambled_causal=4&num_scrambled_schematic=4&participantId=45C186EE4B68442DA775A15CF9D6E6BF&assignmentId=0198b995-048f-76c7-baf4-055e414b6a3f&projectId=0198b979-1f5e-7105-8b5f-48f920534529","45C186EE4B68442DA775A15CF9D6E6BF-2025-08-17-20-40-52","","null","","images/semantic_sequence/housework_semantic/housework_semantic_1.png","null","",""
"","","","","","image-button-response","44","1009946","0.0-10.0-1.0-1.6","45C186EE4B68442DA775A15CF9D6E6BF","45C186EE4B68442DA775A15CF9D6E6BF","0198b995-048f-76c7-baf4-055e414b6a3f","0198b979-1f5e-7105-8b5f-48f920534529","{""num_scrambled_semantic"":""8"",""num_scrambled_causal"":""4"",""num_scrambled_schematic"":""4"",""participantId"":""45C186EE4B68442DA775A15CF9D6E6BF"",""assignmentId"":""0198b995-048f-76c7-baf4-055e414b6a3f"",""projectId"":""0198b979-1f5e-7105-8b5f-48f920534529""}","https://test12345.live/?num_scrambled_semantic=8&num_scrambled_causal=4&num_scrambled_schematic=4&participantId=45C186EE4B68442DA775A15CF9D6E6BF&assignmentId=0198b995-048f-76c7-baf4-055e414b6a3f&projectId=0198b979-1f5e-7105-8b5f-48f920534529","45C186EE4B68442DA775A15CF9D6E6BF-2025-08-17-20-40-52","","2016","","images/semantic_sequence/housework_semantic/housework_semantic_1.png","0","",""
"","","","","","image-button-response","45","1015348","0.0-10.0-1.0-2.6","45C186EE4B68442DA775A15CF9D6E6BF","45C186EE4B68442DA775A15CF9D6E6BF","0198b995-048f-76c7-baf4-055e414b6a3f","0198b979-1f5e-7105-8b5f-48f920534529","{""num_scrambled_semantic"":""8"",""num_scrambled_causal"":""4"",""num_scrambled_schematic"":""4"",""participantId"":""45C186EE4B68442DA775A15CF9D6E6BF"",""assignmentId"":""0198b995-048f-76c7-baf4-055e414b6a3f"",""projectId"":""0198b979-1f5e-7105-8b5f-48f920534529""}","https://test12345.live/?num_scrambled_semantic=8&num_scrambled_causal=4&num_scrambled_schematic=4&participantId=45C186EE4B68442DA775A15CF9D6E6BF&assignmentId=0198b995-048f-76c7-baf4-055e414b6a3f&projectId=0198b979-1f5e-7105-8b5f-48f920534529","45C186EE4B68442DA775A15CF9D6E6BF-2025-08-17-20-40-52","","null","","[]","null","",""
"","","","","","image-button-response","46","1019849","0.0-10.0-1.0-0.7","45C186EE4B68442DA775A15CF9D6E6BF","45C186EE4B68442DA775A15CF9D6E6BF","0198b995-048f-76c7-baf4-055e414b6a3f","0198b979-1f5e-7105-8b5f-48f920534529","{""num_scrambled_semantic"":""8"",""num_scrambled_causal"":""4"",""num_scrambled_schematic"":""4"",""participantId"":""45C186EE4B68442DA775A15CF9D6E6BF"",""assignmentId"":""0198b995-048f-76c7-baf4-055e414b6a3f"",""projectId"":""0198b979-1f5e-7105-8b5f-48f920534529""}","https://test12345.live/?num_scrambled_semantic=8&num_scrambled_causal=4&num_scrambled_schematic=4&participantId=45C186EE4B68442DA775A15CF9D6E6BF&assignmentId=0198b995-048f-76c7-baf4-055e414b6a3f&projectId=0198b979-1f5e-7105-8b5f-48f920534529","45C186EE4B68442DA775A15CF9D6E6BF-2025-08-17-20-40-52","","null","","images/semantic_sequence/housework_semantic/housework_semantic_2.png","null","",""
"","","","","","image-button-response","47","1022907","0.0-10.0-1.0-1.7","45C186EE4B68442DA775A15CF9D6E6BF","45C186EE4B68442DA775A15CF9D6E6BF","0198b995-048f-76c7-baf4-055e414b6a3f","0198b979-1f5e-7105-8b5f-48f920534529","{""num_scrambled_semantic"":""8"",""num_scrambled_causal"":""4"",""num_scrambled_schematic"":""4"",""participantId"":""45C186EE4B68442DA775A15CF9D6E6BF"",""assignmentId"":""0198b995-048f-76c7-baf4-055e414b6a3f"",""projectId"":""0198b979-1f5e-7105-8b5f-48f920534529""}","https://test12345.live/?num_scrambled_semantic=8&num_scrambled_causal=4&num_scrambled_schematic=4&participantId=45C186EE4B68442DA775A15CF9D6E6BF&assignmentId=0198b995-048f-76c7-baf4-055e414b6a3f&projectId=0198b979-1f5e-7105-8b5f-48f920534529","45C186EE4B68442DA775A15CF9D6E6BF-2025-08-17-20-40-52","","3057","","images/semantic_sequence/housework_semantic/housework_semantic_2.png","0","",""
"","","","","","image-button-response","48","1028309","0.0-10.0-1.0-2.7","45C186EE4B68442DA775A15CF9D6E6BF","45C186EE4B68442DA775A15CF9D6E6BF","0198b995-048f-76c7-baf4-055e414b6a3f","0198b979-1f5e-7105-8b5f-48f920534529","{""num_scrambled_semantic"":""8"",""num_scrambled_causal"":""4"",""num_scrambled_schematic"":""4"",""participantId"":""45C186EE4B68442DA775A15CF9D6E6BF"",""assignmentId"":""0198b995-048f-76c7-baf4-055e414b6a3f"",""projectId"":""0198b979-1f5e-7105-8b5f-48f920534529""}","https://test12345.live/?num_scrambled_semantic=8&num_scrambled_causal=4&num_scrambled_schematic=4&participantId=45C186EE4B68442DA775A15CF9D6E6BF&assignmentId=0198b995-048f-76c7-baf4-055e414b6a3f&projectId=0198b979-1f5e-7105-8b5f-48f920534529","45C186EE4B68442DA775A15CF9D6E6BF-2025-08-17-20-40-52","","null","","[]","null","",""
"","","","","","image-button-response","49","1032810","0.0-10.0-1.0-0.8","45C186EE4B68442DA775A15CF9D6E6BF","45C186EE4B68442DA775A15CF9D6E6BF","0198b995-048f-76c7-baf4-055e414b6a3f","0198b979-1f5e-7105-8b5f-48f920534529","{""num_scrambled_semantic"":""8"",""num_scrambled_causal"":""4"",""num_scrambled_schematic"":""4"",""participantId"":""45C186EE4B68442DA775A15CF9D6E6BF"",""assignmentId"":""0198b995-048f-76c7-baf4-055e414b6a3f"",""projectId"":""0198b979-1f5e-7105-8b5f-48f920534529""}","https://test12345.live/?num_scrambled_semantic=8&num_scrambled_causal=4&num_scrambled_schematic=4&participantId=45C186EE4B68442DA775A15CF9D6E6BF&assignmentId=0198b995-048f-76c7-baf4-055e414b6a3f&projectId=0198b979-1f5e-7105-8b5f-48f920534529","45C186EE4B68442DA775A15CF9D6E6BF-2025-08-17-20-40-52","","null","","images/semantic_sequence/housework_semantic/housework_semantic_ten.png","null","",""
"","","","","","image-button-response","50","1033768","0.0-10.0-1.0-1.8","45C186EE4B68442DA775A15CF9D6E6BF","45C186EE4B68442DA775A15CF9D6E6BF","0198b995-048f-76c7-baf4-055e414b6a3f","0198b979-1f5e-7105-8b5f-48f920534529","{""num_scrambled_semantic"":""8"",""num_scrambled_causal"":""4"",""num_scrambled_schematic"":""4"",""participantId"":""45C186EE4B68442DA775A15CF9D6E6BF"",""assignmentId"":""0198b995-048f-76c7-baf4-055e414b6a3f"",""projectId"":""0198b979-1f5e-7105-8b5f-48f920534529""}","https://test12345.live/?num_scrambled_semantic=8&num_scrambled_causal=4&num_scrambled_schematic=4&participantId=45C186EE4B68442DA775A15CF9D6E6BF&assignmentId=0198b995-048f-76c7-baf4-055e414b6a3f&projectId=0198b979-1f5e-7105-8b5f-48f920534529","45C186EE4B68442DA775A15CF9D6E6BF-2025-08-17-20-40-52","","956","","images/semantic_sequence/housework_semantic/housework_semantic_ten.png","0","",""
"","","","","","image-button-response","51","1039169","0.0-10.0-1.0-2.8","45C186EE4B68442DA775A15CF9D6E6BF","45C186EE4B68442DA775A15CF9D6E6BF","0198b995-048f-76c7-baf4-055e414b6a3f","0198b979-1f5e-7105-8b5f-48f920534529","{""num_scrambled_semantic"":""8"",""num_scrambled_causal"":""4"",""num_scrambled_schematic"":""4"",""participantId"":""45C186EE4B68442DA775A15CF9D6E6BF"",""assignmentId"":""0198b995-048f-76c7-baf4-055e414b6a3f"",""projectId"":""0198b979-1f5e-7105-8b5f-48f920534529""}","https://test12345.live/?num_scrambled_semantic=8&num_scrambled_causal=4&num_scrambled_schematic=4&participantId=45C186EE4B68442DA775A15CF9D6E6BF&assignmentId=0198b995-048f-76c7-baf4-055e414b6a3f&projectId=0198b979-1f5e-7105-8b5f-48f920534529","45C186EE4B68442DA775A15CF9D6E6BF-2025-08-17-20-40-52","","null","","[]","null","",""
"","","","","","image-button-response","52","1043670","0.0-10.0-1.0-0.9","45C186EE4B68442DA775A15CF9D6E6BF","45C186EE4B68442DA775A15CF9D6E6BF","0198b995-048f-76c7-baf4-055e414b6a3f","0198b979-1f5e-7105-8b5f-48f920534529","{""num_scrambled_semantic"":""8"",""num_scrambled_causal"":""4"",""num_scrambled_schematic"":""4"",""participantId"":""45C186EE4B68442DA775A15CF9D6E6BF"",""assignmentId"":""0198b995-048f-76c7-baf4-055e414b6a3f"",""projectId"":""0198b979-1f5e-7105-8b5f-48f920534529""}","https://test12345.live/?num_scrambled_semantic=8&num_scrambled_causal=4&num_scrambled_schematic=4&participantId=45C186EE4B68442DA775A15CF9D6E6BF&assignmentId=0198b995-048f-76c7-baf4-055e414b6a3f&projectId=0198b979-1f5e-7105-8b5f-48f920534529","45C186EE4B68442DA775A15CF9D6E6BF-2025-08-17-20-40-52","","null","","images/semantic_sequence/housework_semantic/housework_semantic_3.png","null","",""
"","","","","","image-button-response","53","1044869","0.0-10.0-1.0-1.9","45C186EE4B68442DA775A15CF9D6E6BF","45C186EE4B68442DA775A15CF9D6E6BF","0198b995-048f-76c7-baf4-055e414b6a3f","0198b979-1f5e-7105-8b5f-48f920534529","{""num_scrambled_semantic"":""8"",""num_scrambled_causal"":""4"",""num_scrambled_schematic"":""4"",""participantId"":""45C186EE4B68442DA775A15CF9D6E6BF"",""assignmentId"":""0198b995-048f-76c7-baf4-055e414b6a3f"",""projectId"":""0198b979-1f5e-7105-8b5f-48f920534529""}","https://test12345.live/?num_scrambled_semantic=8&num_scrambled_causal=4&num_scrambled_schematic=4&participantId=45C186EE4B68442DA775A15CF9D6E6BF&assignmentId=0198b995-048f-76c7-baf4-055e414b6a3f&projectId=0198b979-1f5e-7105-8b5f-48f920534529","45C186EE4B68442DA775A15CF9D6E6BF-2025-08-17-20-40-52","","1198","","images/semantic_sequence/housework_semantic/housework_semantic_3.png","0","",""
"","","","","","image-button-response","54","1050271","0.0-10.0-1.0-2.9","45C186EE4B68442DA775A15CF9D6E6BF","45C186EE4B68442DA775A15CF9D6E6BF","0198b995-048f-76c7-baf4-055e414b6a3f","0198b979-1f5e-7105-8b5f-48f920534529","{""num_scrambled_semantic"":""8"",""num_scrambled_causal"":""4"",""num_scrambled_schematic"":""4"",""participantId"":""45C186EE4B68442DA775A15CF9D6E6BF"",""assignmentId"":""0198b995-048f-76c7-baf4-055e414b6a3f"",""projectId"":""0198b979-1f5e-7105-8b5f-48f920534529""}","https://test12345.live/?num_scrambled_semantic=8&num_scrambled_causal=4&num_scrambled_schematic=4&participantId=45C186EE4B68442DA775A15CF9D6E6BF&assignmentId=0198b995-048f-76c7-baf4-055e414b6a3f&projectId=0198b979-1f5e-7105-8b5f-48f920534529","45C186EE4B68442DA775A15CF9D6E6BF-2025-08-17-20-40-52","","null","","[]","null","",""
"","","","","","html-audio-response","55","1095131","0.0-11.0","45C186EE4B68442DA775A15CF9D6E6BF","45C186EE4B68442DA775A15CF9D6E6BF","0198b995-048f-76c7-baf4-055e414b6a3f","0198b979-1f5e-7105-8b5f-48f920534529","{""num_scrambled_semantic"":""8"",""num_scrambled_causal"":""4"",""num_scrambled_schematic"":""4"",""participantId"":""45C186EE4B68442DA775A15CF9D6E6BF"",""assignmentId"":""0198b995-048f-76c7-baf4-055e414b6a3f"",""projectId"":""0198b979-1f5e-7105-8b5f-48f920534529""}","https://test12345.live/?num_scrambled_semantic=8&num_scrambled_causal=4&num_scrambled_schematic=4&participantId=45C186EE4B68442DA775A15CF9D6E6BF&assignmentId=0198b995-048f-76c7-baf4-055e414b6a3f&projectId=0198b979-1f5e-7105-8b5f-48f920534529","45C186EE4B68442DA775A15CF9D6E6BF-2025-08-17-20-40-52","","3454","","[""<span style=\""color: red; font-size: 24px\""> NOW RECORDING</span><p>Please say out loud all the images you saw, as many as you can remember. The images can be said in any order.</p>""]","","16","housework_semantic"
"","","","","","image-button-response","56","1101133","0.0-12.0-0.0","45C186EE4B68442DA775A15CF9D6E6BF","45C186EE4B68442DA775A15CF9D6E6BF","0198b995-048f-76c7-baf4-055e414b6a3f","0198b979-1f5e-7105-8b5f-48f920534529","{""num_scrambled_semantic"":""8"",""num_scrambled_causal"":""4"",""num_scrambled_schematic"":""4"",""participantId"":""45C186EE4B68442DA775A15CF9D6E6BF"",""assignmentId"":""0198b995-048f-76c7-baf4-055e414b6a3f"",""projectId"":""0198b979-1f5e-7105-8b5f-48f920534529""}","https://test12345.live/?num_scrambled_semantic=8&num_scrambled_causal=4&num_scrambled_schematic=4&participantId=45C186EE4B68442DA775A15CF9D6E6BF&assignmentId=0198b995-048f-76c7-baf4-055e414b6a3f&projectId=0198b979-1f5e-7105-8b5f-48f920534529","45C186EE4B68442DA775A15CF9D6E6BF-2025-08-17-20-40-52","","null","","images/semantic_sequence/using_technology_semantic/using_technology_semantic_0.png","null","",""
"","","","","","image-button-response","57","1105636","0.0-12.0-1.0-0.0","45C186EE4B68442DA775A15CF9D6E6BF","45C186EE4B68442DA775A15CF9D6E6BF","0198b995-048f-76c7-baf4-055e414b6a3f","0198b979-1f5e-7105-8b5f-48f920534529","{""num_scrambled_semantic"":""8"",""num_scrambled_causal"":""4"",""num_scrambled_schematic"":""4"",""participantId"":""45C186EE4B68442DA775A15CF9D6E6BF"",""assignmentId"":""0198b995-048f-76c7-baf4-055e414b6a3f"",""projectId"":""0198b979-1f5e-7105-8b5f-48f920534529""}","https://test12345.live/?num_scrambled_semantic=8&num_scrambled_causal=4&num_scrambled_schematic=4&participantId=45C186EE4B68442DA775A15CF9D6E6BF&assignmentId=0198b995-048f-76c7-baf4-055e414b6a3f&projectId=0198b979-1f5e-7105-8b5f-48f920534529","45C186EE4B68442DA775A15CF9D6E6BF-2025-08-17-20-40-52","","null","","images/semantic_sequence/using_technology_semantic/using_technology_semantic_4.png","null","",""
"","","","","","image-button-response","58","1106591","0.0-12.0-1.0-1.0","45C186EE4B68442DA775A15CF9D6E6BF","45C186EE4B68442DA775A15CF9D6E6BF","0198b995-048f-76c7-baf4-055e414b6a3f","0198b979-1f5e-7105-8b5f-48f920534529","{""num_scrambled_semantic"":""8"",""num_scrambled_causal"":""4"",""num_scrambled_schematic"":""4"",""participantId"":""45C186EE4B68442DA775A15CF9D6E6BF"",""assignmentId"":""0198b995-048f-76c7-baf4-055e414b6a3f"",""projectId"":""0198b979-1f5e-7105-8b5f-48f920534529""}","https://test12345.live/?num_scrambled_semantic=8&num_scrambled_causal=4&num_scrambled_schematic=4&participantId=45C186EE4B68442DA775A15CF9D6E6BF&assignmentId=0198b995-048f-76c7-baf4-055e414b6a3f&projectId=0198b979-1f5e-7105-8b5f-48f920534529","45C186EE4B68442DA775A15CF9D6E6BF-2025-08-17-20-40-52","","954","","images/semantic_sequence/using_technology_semantic/using_technology_semantic_4.png","0","",""
"","","","","","image-button-response","59","1111992","0.0-12.0-1.0-2.0","45C186EE4B68442DA775A15CF9D6E6BF","45C186EE4B68442DA775A15CF9D6E6BF","0198b995-048f-76c7-baf4-055e414b6a3f","0198b979-1f5e-7105-8b5f-48f920534529","{""num_scrambled_semantic"":""8"",""num_scrambled_causal"":""4"",""num_scrambled_schematic"":""4"",""participantId"":""45C186EE4B68442DA775A15CF9D6E6BF"",""assignmentId"":""0198b995-048f-76c7-baf4-055e414b6a3f"",""projectId"":""0198b979-1f5e-7105-8b5f-48f920534529""}","https://test12345.live/?num_scrambled_semantic=8&num_scrambled_causal=4&num_scrambled_schematic=4&participantId=45C186EE4B68442DA775A15CF9D6E6BF&assignmentId=0198b995-048f-76c7-baf4-055e414b6a3f&projectId=0198b979-1f5e-7105-8b5f-48f920534529","45C186EE4B68442DA775A15CF9D6E6BF-2025-08-17-20-40-52","","null","","[]","null","",""
"","","","","","image-button-response","60","1116495","0.0-12.0-1.0-0.1","45C186EE4B68442DA775A15CF9D6E6BF","45C186EE4B68442DA775A15CF9D6E6BF","0198b995-048f-76c7-baf4-055e414b6a3f","0198b979-1f5e-7105-8b5f-48f920534529","{""num_scrambled_semantic"":""8"",""num_scrambled_causal"":""4"",""num_scrambled_schematic"":""4"",""participantId"":""45C186EE4B68442DA775A15CF9D6E6BF"",""assignmentId"":""0198b995-048f-76c7-baf4-055e414b6a3f"",""projectId"":""0198b979-1f5e-7105-8b5f-48f920534529""}","https://test12345.live/?num_scrambled_semantic=8&num_scrambled_causal=4&num_scrambled_schematic=4&participantId=45C186EE4B68442DA775A15CF9D6E6BF&assignmentId=0198b995-048f-76c7-baf4-055e414b6a3f&projectId=0198b979-1f5e-7105-8b5f-48f920534529","45C186EE4B68442DA775A15CF9D6E6BF-2025-08-17-20-40-52","","null","","images/semantic_sequence/using_technology_semantic/using_technology_semantic_1.png","null","",""
"","","","","","image-button-response","61","1117343","0.0-12.0-1.0-1.1","45C186EE4B68442DA775A15CF9D6E6BF","45C186EE4B68442DA775A15CF9D6E6BF","0198b995-048f-76c7-baf4-055e414b6a3f","0198b979-1f5e-7105-8b5f-48f920534529","{""num_scrambled_semantic"":""8"",""num_scrambled_causal"":""4"",""num_scrambled_schematic"":""4"",""participantId"":""45C186EE4B68442DA775A15CF9D6E6BF"",""assignmentId"":""0198b995-048f-76c7-baf4-055e414b6a3f"",""projectId"":""0198b979-1f5e-7105-8b5f-48f920534529""}","https://test12345.live/?num_scrambled_semantic=8&num_scrambled_causal=4&num_scrambled_schematic=4&participantId=45C186EE4B68442DA775A15CF9D6E6BF&assignmentId=0198b995-048f-76c7-baf4-055e414b6a3f&projectId=0198b979-1f5e-7105-8b5f-48f920534529","45C186EE4B68442DA775A15CF9D6E6BF-2025-08-17-20-40-52","","847","","images/semantic_sequence/using_technology_semantic/using_technology_semantic_1.png","0","",""
"","","","","","image-button-response","62","1122745","0.0-12.0-1.0-2.1","45C186EE4B68442DA775A15CF9D6E6BF","45C186EE4B68442DA775A15CF9D6E6BF","0198b995-048f-76c7-baf4-055e414b6a3f","0198b979-1f5e-7105-8b5f-48f920534529","{""num_scrambled_semantic"":""8"",""num_scrambled_causal"":""4"",""num_scrambled_schematic"":""4"",""participantId"":""45C186EE4B68442DA775A15CF9D6E6BF"",""assignmentId"":""0198b995-048f-76c7-baf4-055e414b6a3f"",""projectId"":""0198b979-1f5e-7105-8b5f-48f920534529""}","https://test12345.live/?num_scrambled_semantic=8&num_scrambled_causal=4&num_scrambled_schematic=4&participantId=45C186EE4B68442DA775A15CF9D6E6BF&assignmentId=0198b995-048f-76c7-baf4-055e414b6a3f&projectId=0198b979-1f5e-7105-8b5f-48f920534529","45C186EE4B68442DA775A15CF9D6E6BF-2025-08-17-20-40-52","","null","","[]","null","",""
"","","","","","image-button-response","63","1127247","0.0-12.0-1.0-0.2","45C186EE4B68442DA775A15CF9D6E6BF","45C186EE4B68442DA775A15CF9D6E6BF","0198b995-048f-76c7-baf4-055e414b6a3f","0198b979-1f5e-7105-8b5f-48f920534529","{""num_scrambled_semantic"":""8"",""num_scrambled_causal"":""4"",""num_scrambled_schematic"":""4"",""participantId"":""45C186EE4B68442DA775A15CF9D6E6BF"",""assignmentId"":""0198b995-048f-76c7-baf4-055e414b6a3f"",""projectId"":""0198b979-1f5e-7105-8b5f-48f920534529""}","https://test12345.live/?num_scrambled_semantic=8&num_scrambled_causal=4&num_scrambled_schematic=4&participantId=45C186EE4B68442DA775A15CF9D6E6BF&assignmentId=0198b995-048f-76c7-baf4-055e414b6a3f&projectId=0198b979-1f5e-7105-8b5f-48f920534529","45C186EE4B68442DA775A15CF9D6E6BF-2025-08-17-20-40-52","","null","","images/semantic_sequence/using_technology_semantic/using_technology_semantic_9.png","null","",""
"","","","","","image-button-response","64","1128681","0.0-12.0-1.0-1.2","45C186EE4B68442DA775A15CF9D6E6BF","45C186EE4B68442DA775A15CF9D6E6BF","0198b995-048f-76c7-baf4-055e414b6a3f","0198b979-1f5e-7105-8b5f-48f920534529","{""num_scrambled_semantic"":""8"",""num_scrambled_causal"":""4"",""num_scrambled_schematic"":""4"",""participantId"":""45C186EE4B68442DA775A15CF9D6E6BF"",""assignmentId"":""0198b995-048f-76c7-baf4-055e414b6a3f"",""projectId"":""0198b979-1f5e-7105-8b5f-48f920534529""}","https://test12345.live/?num_scrambled_semantic=8&num_scrambled_causal=4&num_scrambled_schematic=4&participantId=45C186EE4B68442DA775A15CF9D6E6BF&assignmentId=0198b995-048f-76c7-baf4-055e414b6a3f&projectId=0198b979-1f5e-7105-8b5f-48f920534529","45C186EE4B68442DA775A15CF9D6E6BF-2025-08-17-20-40-52","","1434","","images/semantic_sequence/using_technology_semantic/using_technology_semantic_9.png","0","",""
"","","","","","image-button-response","65","1134084","0.0-12.0-1.0-2.2","45C186EE4B68442DA775A15CF9D6E6BF","45C186EE4B68442DA775A15CF9D6E6BF","0198b995-048f-76c7-baf4-055e414b6a3f","0198b979-1f5e-7105-8b5f-48f920534529","{""num_scrambled_semantic"":""8"",""num_scrambled_causal"":""4"",""num_scrambled_schematic"":""4"",""participantId"":""45C186EE4B68442DA775A15CF9D6E6BF"",""assignmentId"":""0198b995-048f-76c7-baf4-055e414b6a3f"",""projectId"":""0198b979-1f5e-7105-8b5f-48f920534529""}","https://test12345.live/?num_scrambled_semantic=8&num_scrambled_causal=4&num_scrambled_schematic=4&participantId=45C186EE4B68442DA775A15CF9D6E6BF&assignmentId=0198b995-048f-76c7-baf4-055e414b6a3f&projectId=0198b979-1f5e-7105-8b5f-48f920534529","45C186EE4B68442DA775A15CF9D6E6BF-2025-08-17-20-40-52","","null","","[]","null","",""
"","","","","","image-button-response","66","1138586","0.0-12.0-1.0-0.3","45C186EE4B68442DA775A15CF9D6E6BF","45C186EE4B68442DA775A15CF9D6E6BF","0198b995-048f-76c7-baf4-055e414b6a3f","0198b979-1f5e-7105-8b5f-48f920534529","{""num_scrambled_semantic"":""8"",""num_scrambled_causal"":""4"",""num_scrambled_schematic"":""4"",""participantId"":""45C186EE4B68442DA775A15CF9D6E6BF"",""assignmentId"":""0198b995-048f-76c7-baf4-055e414b6a3f"",""projectId"":""0198b979-1f5e-7105-8b5f-48f920534529""}","https://test12345.live/?num_scrambled_semantic=8&num_scrambled_causal=4&num_scrambled_schematic=4&participantId=45C186EE4B68442DA775A15CF9D6E6BF&assignmentId=0198b995-048f-76c7-baf4-055e414b6a3f&projectId=0198b979-1f5e-7105-8b5f-48f920534529","45C186EE4B68442DA775A15CF9D6E6BF-2025-08-17-20-40-52","","null","","images/semantic_sequence/using_technology_semantic/using_technology_semantic_6.png","null","",""
"","","","","","image-button-response","67","1140352","0.0-12.0-1.0-1.3","45C186EE4B68442DA775A15CF9D6E6BF","45C186EE4B68442DA775A15CF9D6E6BF","0198b995-048f-76c7-baf4-055e414b6a3f","0198b979-1f5e-7105-8b5f-48f920534529","{""num_scrambled_semantic"":""8"",""num_scrambled_causal"":""4"",""num_scrambled_schematic"":""4"",""participantId"":""45C186EE4B68442DA775A15CF9D6E6BF"",""assignmentId"":""0198b995-048f-76c7-baf4-055e414b6a3f"",""projectId"":""0198b979-1f5e-7105-8b5f-48f920534529""}","https://test12345.live/?num_scrambled_semantic=8&num_scrambled_causal=4&num_scrambled_schematic=4&participantId=45C186EE4B68442DA775A15CF9D6E6BF&assignmentId=0198b995-048f-76c7-baf4-055e414b6a3f&projectId=0198b979-1f5e-7105-8b5f-48f920534529","45C186EE4B68442DA775A15CF9D6E6BF-2025-08-17-20-40-52","","1765","","images/semantic_sequence/using_technology_semantic/using_technology_semantic_6.png","0","",""
"","","","","","image-button-response","68","1145753","0.0-12.0-1.0-2.3","45C186EE4B68442DA775A15CF9D6E6BF","45C186EE4B68442DA775A15CF9D6E6BF","0198b995-048f-76c7-baf4-055e414b6a3f","0198b979-1f5e-7105-8b5f-48f920534529","{""num_scrambled_semantic"":""8"",""num_scrambled_causal"":""4"",""num_scrambled_schematic"":""4"",""participantId"":""45C186EE4B68442DA775A15CF9D6E6BF"",""assignmentId"":""0198b995-048f-76c7-baf4-055e414b6a3f"",""projectId"":""0198b979-1f5e-7105-8b5f-48f920534529""}","https://test12345.live/?num_scrambled_semantic=8&num_scrambled_causal=4&num_scrambled_schematic=4&participantId=45C186EE4B68442DA775A15CF9D6E6BF&assignmentId=0198b995-048f-76c7-baf4-055e414b6a3f&projectId=0198b979-1f5e-7105-8b5f-48f920534529","45C186EE4B68442DA775A15CF9D6E6BF-2025-08-17-20-40-52","","null","","[]","null","",""
"","","","","","image-button-response","69","1150254","0.0-12.0-1.0-0.4","45C186EE4B68442DA775A15CF9D6E6BF","45C186EE4B68442DA775A15CF9D6E6BF","0198b995-048f-76c7-baf4-055e414b6a3f","0198b979-1f5e-7105-8b5f-48f920534529","{""num_scrambled_semantic"":""8"",""num_scrambled_causal"":""4"",""num_scrambled_schematic"":""4"",""participantId"":""45C186EE4B68442DA775A15CF9D6E6BF"",""assignmentId"":""0198b995-048f-76c7-baf4-055e414b6a3f"",""projectId"":""0198b979-1f5e-7105-8b5f-48f920534529""}","https://test12345.live/?num_scrambled_semantic=8&num_scrambled_causal=4&num_scrambled_schematic=4&participantId=45C186EE4B68442DA775A15CF9D6E6BF&assignmentId=0198b995-048f-76c7-baf4-055e414b6a3f&projectId=0198b979-1f5e-7105-8b5f-48f920534529","45C186EE4B68442DA775A15CF9D6E6BF-2025-08-17-20-40-52","","null","","images/semantic_sequence/using_technology_semantic/using_technology_semantic_ten.png","null","",""
"","","","","","image-button-response","70","1151118","0.0-12.0-1.0-1.4","45C186EE4B68442DA775A15CF9D6E6BF","45C186EE4B68442DA775A15CF9D6E6BF","0198b995-048f-76c7-baf4-055e414b6a3f","0198b979-1f5e-7105-8b5f-48f920534529","{""num_scrambled_semantic"":""8"",""num_scrambled_causal"":""4"",""num_scrambled_schematic"":""4"",""participantId"":""45C186EE4B68442DA775A15CF9D6E6BF"",""assignmentId"":""0198b995-048f-76c7-baf4-055e414b6a3f"",""projectId"":""0198b979-1f5e-7105-8b5f-48f920534529""}","https://test12345.live/?num_scrambled_semantic=8&num_scrambled_causal=4&num_scrambled_schematic=4&participantId=45C186EE4B68442DA775A15CF9D6E6BF&assignmentId=0198b995-048f-76c7-baf4-055e414b6a3f&projectId=0198b979-1f5e-7105-8b5f-48f920534529","45C186EE4B68442DA775A15CF9D6E6BF-2025-08-17-20-40-52","","864","","images/semantic_sequence/using_technology_semantic/using_technology_semantic_ten.png","0","",""
"","","","","","image-button-response","71","1156520","0.0-12.0-1.0-2.4","45C186EE4B68442DA775A15CF9D6E6BF","45C186EE4B68442DA775A15CF9D6E6BF","0198b995-048f-76c7-baf4-055e414b6a3f","0198b979-1f5e-7105-8b5f-48f920534529","{""num_scrambled_semantic"":""8"",""num_scrambled_causal"":""4"",""num_scrambled_schematic"":""4"",""participantId"":""45C186EE4B68442DA775A15CF9D6E6BF"",""assignmentId"":""0198b995-048f-76c7-baf4-055e414b6a3f"",""projectId"":""0198b979-1f5e-7105-8b5f-48f920534529""}","https://test12345.live/?num_scrambled_semantic=8&num_scrambled_causal=4&num_scrambled_schematic=4&participantId=45C186EE4B68442DA775A15CF9D6E6BF&assignmentId=0198b995-048f-76c7-baf4-055e414b6a3f&projectId=0198b979-1f5e-7105-8b5f-48f920534529","45C186EE4B68442DA775A15CF9D6E6BF-2025-08-17-20-40-52","","null","","[]","null","",""
"","","","","","image-button-response","72","1161023","0.0-12.0-1.0-0.5","45C186EE4B68442DA775A15CF9D6E6BF","45C186EE4B68442DA775A15CF9D6E6BF","0198b995-048f-76c7-baf4-055e414b6a3f","0198b979-1f5e-7105-8b5f-48f920534529","{""num_scrambled_semantic"":""8"",""num_scrambled_causal"":""4"",""num_scrambled_schematic"":""4"",""participantId"":""45C186EE4B68442DA775A15CF9D6E6BF"",""assignmentId"":""0198b995-048f-76c7-baf4-055e414b6a3f"",""projectId"":""0198b979-1f5e-7105-8b5f-48f920534529""}","https://test12345.live/?num_scrambled_semantic=8&num_scrambled_causal=4&num_scrambled_schematic=4&participantId=45C186EE4B68442DA775A15CF9D6E6BF&assignmentId=0198b995-048f-76c7-baf4-055e414b6a3f&projectId=0198b979-1f5e-7105-8b5f-48f920534529","45C186EE4B68442DA775A15CF9D6E6BF-2025-08-17-20-40-52","","null","","images/semantic_sequence/using_technology_semantic/using_technology_semantic_3.png","null","",""
"","","","","","image-button-response","73","1161713","0.0-12.0-1.0-1.5","45C186EE4B68442DA775A15CF9D6E6BF","45C186EE4B68442DA775A15CF9D6E6BF","0198b995-048f-76c7-baf4-055e414b6a3f","0198b979-1f5e-7105-8b5f-48f920534529","{""num_scrambled_semantic"":""8"",""num_scrambled_causal"":""4"",""num_scrambled_schematic"":""4"",""participantId"":""45C186EE4B68442DA775A15CF9D6E6BF"",""assignmentId"":""0198b995-048f-76c7-baf4-055e414b6a3f"",""projectId"":""0198b979-1f5e-7105-8b5f-48f920534529""}","https://test12345.live/?num_scrambled_semantic=8&num_scrambled_causal=4&num_scrambled_schematic=4&participantId=45C186EE4B68442DA775A15CF9D6E6BF&assignmentId=0198b995-048f-76c7-baf4-055e414b6a3f&projectId=0198b979-1f5e-7105-8b5f-48f920534529","45C186EE4B68442DA775A15CF9D6E6BF-2025-08-17-20-40-52","","689","","images/semantic_sequence/using_technology_semantic/using_technology_semantic_3.png","0","",""
"","","","","","image-button-response","74","1167114","0.0-12.0-1.0-2.5","45C186EE4B68442DA775A15CF9D6E6BF","45C186EE4B68442DA775A15CF9D6E6BF","0198b995-048f-76c7-baf4-055e414b6a3f","0198b979-1f5e-7105-8b5f-48f920534529","{""num_scrambled_semantic"":""8"",""num_scrambled_causal"":""4"",""num_scrambled_schematic"":""4"",""participantId"":""45C186EE4B68442DA775A15CF9D6E6BF"",""assignmentId"":""0198b995-048f-76c7-baf4-055e414b6a3f"",""projectId"":""0198b979-1f5e-7105-8b5f-48f920534529""}","https://test12345.live/?num_scrambled_semantic=8&num_scrambled_causal=4&num_scrambled_schematic=4&participantId=45C186EE4B68442DA775A15CF9D6E6BF&assignmentId=0198b995-048f-76c7-baf4-055e414b6a3f&projectId=0198b979-1f5e-7105-8b5f-48f920534529","45C186EE4B68442DA775A15CF9D6E6BF-2025-08-17-20-40-52","","null","","[]","null","",""
"","","","","","image-button-response","75","1171615","0.0-12.0-1.0-0.6","45C186EE4B68442DA775A15CF9D6E6BF","45C186EE4B68442DA775A15CF9D6E6BF","0198b995-048f-76c7-baf4-055e414b6a3f","0198b979-1f5e-7105-8b5f-48f920534529","{""num_scrambled_semantic"":""8"",""num_scrambled_causal"":""4"",""num_scrambled_schematic"":""4"",""participantId"":""45C186EE4B68442DA775A15CF9D6E6BF"",""assignmentId"":""0198b995-048f-76c7-baf4-055e414b6a3f"",""projectId"":""0198b979-1f5e-7105-8b5f-48f920534529""}","https://test12345.live/?num_scrambled_semantic=8&num_scrambled_causal=4&num_scrambled_schematic=4&participantId=45C186EE4B68442DA775A15CF9D6E6BF&assignmentId=0198b995-048f-76c7-baf4-055e414b6a3f&projectId=0198b979-1f5e-7105-8b5f-48f920534529","45C186EE4B68442DA775A15CF9D6E6BF-2025-08-17-20-40-52","","null","","images/semantic_sequence/using_technology_semantic/using_technology_semantic_5.png","null","",""
"","","","","","image-button-response","76","1172510","0.0-12.0-1.0-1.6","45C186EE4B68442DA775A15CF9D6E6BF","45C186EE4B68442DA775A15CF9D6E6BF","0198b995-048f-76c7-baf4-055e414b6a3f","0198b979-1f5e-7105-8b5f-48f920534529","{""num_scrambled_semantic"":""8"",""num_scrambled_causal"":""4"",""num_scrambled_schematic"":""4"",""participantId"":""45C186EE4B68442DA775A15CF9D6E6BF"",""assignmentId"":""0198b995-048f-76c7-baf4-055e414b6a3f"",""projectId"":""0198b979-1f5e-7105-8b5f-48f920534529""}","https://test12345.live/?num_scrambled_semantic=8&num_scrambled_causal=4&num_scrambled_schematic=4&participantId=45C186EE4B68442DA775A15CF9D6E6BF&assignmentId=0198b995-048f-76c7-baf4-055e414b6a3f&projectId=0198b979-1f5e-7105-8b5f-48f920534529","45C186EE4B68442DA775A15CF9D6E6BF-2025-08-17-20-40-52","","893","","images/semantic_sequence/using_technology_semantic/using_technology_semantic_5.png","0","",""
"","","","","","image-button-response","77","1177912","0.0-12.0-1.0-2.6","45C186EE4B68442DA775A15CF9D6E6BF","45C186EE4B68442DA775A15CF9D6E6BF","0198b995-048f-76c7-baf4-055e414b6a3f","0198b979-1f5e-7105-8b5f-48f920534529","{""num_scrambled_semantic"":""8"",""num_scrambled_causal"":""4"",""num_scrambled_schematic"":""4"",""participantId"":""45C186EE4B68442DA775A15CF9D6E6BF"",""assignmentId"":""0198b995-048f-76c7-baf4-055e414b6a3f"",""projectId"":""0198b979-1f5e-7105-8b5f-48f920534529""}","https://test12345.live/?num_scrambled_semantic=8&num_scrambled_causal=4&num_scrambled_schematic=4&participantId=45C186EE4B68442DA775A15CF9D6E6BF&assignmentId=0198b995-048f-76c7-baf4-055e414b6a3f&projectId=0198b979-1f5e-7105-8b5f-48f920534529","45C186EE4B68442DA775A15CF9D6E6BF-2025-08-17-20-40-52","","null","","[]","null","",""
"","","","","","image-button-response","78","1182415","0.0-12.0-1.0-0.7","45C186EE4B68442DA775A15CF9D6E6BF","45C186EE4B68442DA775A15CF9D6E6BF","0198b995-048f-76c7-baf4-055e414b6a3f","0198b979-1f5e-7105-8b5f-48f920534529","{""num_scrambled_semantic"":""8"",""num_scrambled_causal"":""4"",""num_scrambled_schematic"":""4"",""participantId"":""45C186EE4B68442DA775A15CF9D6E6BF"",""assignmentId"":""0198b995-048f-76c7-baf4-055e414b6a3f"",""projectId"":""0198b979-1f5e-7105-8b5f-48f920534529""}","https://test12345.live/?num_scrambled_semantic=8&num_scrambled_causal=4&num_scrambled_schematic=4&participantId=45C186EE4B68442DA775A15CF9D6E6BF&assignmentId=0198b995-048f-76c7-baf4-055e414b6a3f&projectId=0198b979-1f5e-7105-8b5f-48f920534529","45C186EE4B68442DA775A15CF9D6E6BF-2025-08-17-20-40-52","","null","","images/semantic_sequence/using_technology_semantic/using_technology_semantic_7.png","null","",""
"","","","","","image-button-response","79","1183226","0.0-12.0-1.0-1.7","45C186EE4B68442DA775A15CF9D6E6BF","45C186EE4B68442DA775A15CF9D6E6BF","0198b995-048f-76c7-baf4-055e414b6a3f","0198b979-1f5e-7105-8b5f-48f920534529","{""num_scrambled_semantic"":""8"",""num_scrambled_causal"":""4"",""num_scrambled_schematic"":""4"",""participantId"":""45C186EE4B68442DA775A15CF9D6E6BF"",""assignmentId"":""0198b995-048f-76c7-baf4-055e414b6a3f"",""projectId"":""0198b979-1f5e-7105-8b5f-48f920534529""}","https://test12345.live/?num_scrambled_semantic=8&num_scrambled_causal=4&num_scrambled_schematic=4&participantId=45C186EE4B68442DA775A15CF9D6E6BF&assignmentId=0198b995-048f-76c7-baf4-055e414b6a3f&projectId=0198b979-1f5e-7105-8b5f-48f920534529","45C186EE4B68442DA775A15CF9D6E6BF-2025-08-17-20-40-52","","809","","images/semantic_sequence/using_technology_semantic/using_technology_semantic_7.png","0","",""
"","","","","","image-button-response","80","1188627","0.0-12.0-1.0-2.7","45C186EE4B68442DA775A15CF9D6E6BF","45C186EE4B68442DA775A15CF9D6E6BF","0198b995-048f-76c7-baf4-055e414b6a3f","0198b979-1f5e-7105-8b5f-48f920534529","{""num_scrambled_semantic"":""8"",""num_scrambled_causal"":""4"",""num_scrambled_schematic"":""4"",""participantId"":""45C186EE4B68442DA775A15CF9D6E6BF"",""assignmentId"":""0198b995-048f-76c7-baf4-055e414b6a3f"",""projectId"":""0198b979-1f5e-7105-8b5f-48f920534529""}","https://test12345.live/?num_scrambled_semantic=8&num_scrambled_causal=4&num_scrambled_schematic=4&participantId=45C186EE4B68442DA775A15CF9D6E6BF&assignmentId=0198b995-048f-76c7-baf4-055e414b6a3f&projectId=0198b979-1f5e-7105-8b5f-48f920534529","45C186EE4B68442DA775A15CF9D6E6BF-2025-08-17-20-40-52","","null","","[]","null","",""
"","","","","","image-button-response","81","1193130","0.0-12.0-1.0-0.8","45C186EE4B68442DA775A15CF9D6E6BF","45C186EE4B68442DA775A15CF9D6E6BF","0198b995-048f-76c7-baf4-055e414b6a3f","0198b979-1f5e-7105-8b5f-48f920534529","{""num_scrambled_semantic"":""8"",""num_scrambled_causal"":""4"",""num_scrambled_schematic"":""4"",""participantId"":""45C186EE4B68442DA775A15CF9D6E6BF"",""assignmentId"":""0198b995-048f-76c7-baf4-055e414b6a3f"",""projectId"":""0198b979-1f5e-7105-8b5f-48f920534529""}","https://test12345.live/?num_scrambled_semantic=8&num_scrambled_causal=4&num_scrambled_schematic=4&participantId=45C186EE4B68442DA775A15CF9D6E6BF&assignmentId=0198b995-048f-76c7-baf4-055e414b6a3f&projectId=0198b979-1f5e-7105-8b5f-48f920534529","45C186EE4B68442DA775A15CF9D6E6BF-2025-08-17-20-40-52","","null","","images/semantic_sequence/using_technology_semantic/using_technology_semantic_2.png","null","",""
"","","","","","image-button-response","82","1194814","0.0-12.0-1.0-1.8","45C186EE4B68442DA775A15CF9D6E6BF","45C186EE4B68442DA775A15CF9D6E6BF","0198b995-048f-76c7-baf4-055e414b6a3f","0198b979-1f5e-7105-8b5f-48f920534529","{""num_scrambled_semantic"":""8"",""num_scrambled_causal"":""4"",""num_scrambled_schematic"":""4"",""participantId"":""45C186EE4B68442DA775A15CF9D6E6BF"",""assignmentId"":""0198b995-048f-76c7-baf4-055e414b6a3f"",""projectId"":""0198b979-1f5e-7105-8b5f-48f920534529""}","https://test12345.live/?num_scrambled_semantic=8&num_scrambled_causal=4&num_scrambled_schematic=4&participantId=45C186EE4B68442DA775A15CF9D6E6BF&assignmentId=0198b995-048f-76c7-baf4-055e414b6a3f&projectId=0198b979-1f5e-7105-8b5f-48f920534529","45C186EE4B68442DA775A15CF9D6E6BF-2025-08-17-20-40-52","","1684","","images/semantic_sequence/using_technology_semantic/using_technology_semantic_2.png","0","",""
"","","","","","image-button-response","83","1200215","0.0-12.0-1.0-2.8","45C186EE4B68442DA775A15CF9D6E6BF","45C186EE4B68442DA775A15CF9D6E6BF","0198b995-048f-76c7-baf4-055e414b6a3f","0198b979-1f5e-7105-8b5f-48f920534529","{""num_scrambled_semantic"":""8"",""num_scrambled_causal"":""4"",""num_scrambled_schematic"":""4"",""participantId"":""45C186EE4B68442DA775A15CF9D6E6BF"",""assignmentId"":""0198b995-048f-76c7-baf4-055e414b6a3f"",""projectId"":""0198b979-1f5e-7105-8b5f-48f920534529""}","https://test12345.live/?num_scrambled_semantic=8&num_scrambled_causal=4&num_scrambled_schematic=4&participantId=45C186EE4B68442DA775A15CF9D6E6BF&assignmentId=0198b995-048f-76c7-baf4-055e414b6a3f&projectId=0198b979-1f5e-7105-8b5f-48f920534529","45C186EE4B68442DA775A15CF9D6E6BF-2025-08-17-20-40-52","","null","","[]","null","",""
"","","","","","image-button-response","84","1204717","0.0-12.0-1.0-0.9","45C186EE4B68442DA775A15CF9D6E6BF","45C186EE4B68442DA775A15CF9D6E6BF","0198b995-048f-76c7-baf4-055e414b6a3f","0198b979-1f5e-7105-8b5f-48f920534529","{""num_scrambled_semantic"":""8"",""num_scrambled_causal"":""4"",""num_scrambled_schematic"":""4"",""participantId"":""45C186EE4B68442DA775A15CF9D6E6BF"",""assignmentId"":""0198b995-048f-76c7-baf4-055e414b6a3f"",""projectId"":""0198b979-1f5e-7105-8b5f-48f920534529""}","https://test12345.live/?num_scrambled_semantic=8&num_scrambled_causal=4&num_scrambled_schematic=4&participantId=45C186EE4B68442DA775A15CF9D6E6BF&assignmentId=0198b995-048f-76c7-baf4-055e414b6a3f&projectId=0198b979-1f5e-7105-8b5f-48f920534529","45C186EE4B68442DA775A15CF9D6E6BF-2025-08-17-20-40-52","","null","","images/semantic_sequence/using_technology_semantic/using_technology_semantic_8.png","null","",""
"","","","","","image-button-response","85","1205309","0.0-12.0-1.0-1.9","45C186EE4B68442DA775A15CF9D6E6BF","45C186EE4B68442DA775A15CF9D6E6BF","0198b995-048f-76c7-baf4-055e414b6a3f","0198b979-1f5e-7105-8b5f-48f920534529","{""num_scrambled_semantic"":""8"",""num_scrambled_causal"":""4"",""num_scrambled_schematic"":""4"",""participantId"":""45C186EE4B68442DA775A15CF9D6E6BF"",""assignmentId"":""0198b995-048f-76c7-baf4-055e414b6a3f"",""projectId"":""0198b979-1f5e-7105-8b5f-48f920534529""}","https://test12345.live/?num_scrambled_semantic=8&num_scrambled_causal=4&num_scrambled_schematic=4&participantId=45C186EE4B68442DA775A15CF9D6E6BF&assignmentId=0198b995-048f-76c7-baf4-055e414b6a3f&projectId=0198b979-1f5e-7105-8b5f-48f920534529","45C186EE4B68442DA775A15CF9D6E6BF-2025-08-17-20-40-52","","592","","images/semantic_sequence/using_technology_semantic/using_technology_semantic_8.png","0","",""
"","","","","","image-button-response","86","1210711","0.0-12.0-1.0-2.9","45C186EE4B68442DA775A15CF9D6E6BF","45C186EE4B68442DA775A15CF9D6E6BF","0198b995-048f-76c7-baf4-055e414b6a3f","0198b979-1f5e-7105-8b5f-48f920534529","{""num_scrambled_semantic"":""8"",""num_scrambled_causal"":""4"",""num_scrambled_schematic"":""4"",""participantId"":""45C186EE4B68442DA775A15CF9D6E6BF"",""assignmentId"":""0198b995-048f-76c7-baf4-055e414b6a3f"",""projectId"":""0198b979-1f5e-7105-8b5f-48f920534529""}","https://test12345.live/?num_scrambled_semantic=8&num_scrambled_causal=4&num_scrambled_schematic=4&participantId=45C186EE4B68442DA775A15CF9D6E6BF&assignmentId=0198b995-048f-76c7-baf4-055e414b6a3f&projectId=0198b979-1f5e-7105-8b5f-48f920534529","45C186EE4B68442DA775A15CF9D6E6BF-2025-08-17-20-40-52","","null","","[]","null","",""
"","","","","","html-audio-response","87","1226318","0.0-13.0","45C186EE4B68442DA775A15CF9D6E6BF","45C186EE4B68442DA775A15CF9D6E6BF","0198b995-048f-76c7-baf4-055e414b6a3f","0198b979-1f5e-7105-8b5f-48f920534529","{""num_scrambled_semantic"":""8"",""num_scrambled_causal"":""4"",""num_scrambled_schematic"":""4"",""participantId"":""45C186EE4B68442DA775A15CF9D6E6BF"",""assignmentId"":""0198b995-048f-76c7-baf4-055e414b6a3f"",""projectId"":""0198b979-1f5e-7105-8b5f-48f920534529""}","https://test12345.live/?num_scrambled_semantic=8&num_scrambled_causal=4&num_scrambled_schematic=4&participantId=45C186EE4B68442DA775A15CF9D6E6BF&assignmentId=0198b995-048f-76c7-baf4-055e414b6a3f&projectId=0198b979-1f5e-7105-8b5f-48f920534529","45C186EE4B68442DA775A15CF9D6E6BF-2025-08-17-20-40-52","","13358","","[""<span style=\""color: red; font-size: 24px\""> NOW RECORDING</span><p>Please say out loud all the images you saw, as many as you can remember. The images can be said in any order.</p>""]","","8","using_technology_semantic"
"","","","","","image-button-response","88","1232322","0.0-14.0-0.0","45C186EE4B68442DA775A15CF9D6E6BF","45C186EE4B68442DA775A15CF9D6E6BF","0198b995-048f-76c7-baf4-055e414b6a3f","0198b979-1f5e-7105-8b5f-48f920534529","{""num_scrambled_semantic"":""8"",""num_scrambled_causal"":""4"",""num_scrambled_schematic"":""4"",""participantId"":""45C186EE4B68442DA775A15CF9D6E6BF"",""assignmentId"":""0198b995-048f-76c7-baf4-055e414b6a3f"",""projectId"":""0198b979-1f5e-7105-8b5f-48f920534529""}","https://test12345.live/?num_scrambled_semantic=8&num_scrambled_causal=4&num_scrambled_schematic=4&participantId=45C186EE4B68442DA775A15CF9D6E6BF&assignmentId=0198b995-048f-76c7-baf4-055e414b6a3f&projectId=0198b979-1f5e-7105-8b5f-48f920534529","45C186EE4B68442DA775A15CF9D6E6BF-2025-08-17-20-40-52","","null","","images/causal_sequence/package_causal/package_causal_0.png","null","",""
"","","","","","image-button-response","89","1236824","0.0-14.0-1.0-0.0","45C186EE4B68442DA775A15CF9D6E6BF","45C186EE4B68442DA775A15CF9D6E6BF","0198b995-048f-76c7-baf4-055e414b6a3f","0198b979-1f5e-7105-8b5f-48f920534529","{""num_scrambled_semantic"":""8"",""num_scrambled_causal"":""4"",""num_scrambled_schematic"":""4"",""participantId"":""45C186EE4B68442DA775A15CF9D6E6BF"",""assignmentId"":""0198b995-048f-76c7-baf4-055e414b6a3f"",""projectId"":""0198b979-1f5e-7105-8b5f-48f920534529""}","https://test12345.live/?num_scrambled_semantic=8&num_scrambled_causal=4&num_scrambled_schematic=4&participantId=45C186EE4B68442DA775A15CF9D6E6BF&assignmentId=0198b995-048f-76c7-baf4-055e414b6a3f&projectId=0198b979-1f5e-7105-8b5f-48f920534529","45C186EE4B68442DA775A15CF9D6E6BF-2025-08-17-20-40-52","","null","","images/causal_sequence/package_causal/package_causal_4.png","null","",""
"","","","","","image-button-response","90","1240828","0.0-14.0-1.0-1.0","45C186EE4B68442DA775A15CF9D6E6BF","45C186EE4B68442DA775A15CF9D6E6BF","0198b995-048f-76c7-baf4-055e414b6a3f","0198b979-1f5e-7105-8b5f-48f920534529","{""num_scrambled_semantic"":""8"",""num_scrambled_causal"":""4"",""num_scrambled_schematic"":""4"",""participantId"":""45C186EE4B68442DA775A15CF9D6E6BF"",""assignmentId"":""0198b995-048f-76c7-baf4-055e414b6a3f"",""projectId"":""0198b979-1f5e-7105-8b5f-48f920534529""}","https://test12345.live/?num_scrambled_semantic=8&num_scrambled_causal=4&num_scrambled_schematic=4&participantId=45C186EE4B68442DA775A15CF9D6E6BF&assignmentId=0198b995-048f-76c7-baf4-055e414b6a3f&projectId=0198b979-1f5e-7105-8b5f-48f920534529","45C186EE4B68442DA775A15CF9D6E6BF-2025-08-17-20-40-52","","null","","images/causal_sequence/package_causal/package_causal_4.png","null","",""
"","","","","","image-button-response","91","1246229","0.0-14.0-1.0-2.0","45C186EE4B68442DA775A15CF9D6E6BF","45C186EE4B68442DA775A15CF9D6E6BF","0198b995-048f-76c7-baf4-055e414b6a3f","0198b979-1f5e-7105-8b5f-48f920534529","{""num_scrambled_semantic"":""8"",""num_scrambled_causal"":""4"",""num_scrambled_schematic"":""4"",""participantId"":""45C186EE4B68442DA775A15CF9D6E6BF"",""assignmentId"":""0198b995-048f-76c7-baf4-055e414b6a3f"",""projectId"":""0198b979-1f5e-7105-8b5f-48f920534529""}","https://test12345.live/?num_scrambled_semantic=8&num_scrambled_causal=4&num_scrambled_schematic=4&participantId=45C186EE4B68442DA775A15CF9D6E6BF&assignmentId=0198b995-048f-76c7-baf4-055e414b6a3f&projectId=0198b979-1f5e-7105-8b5f-48f920534529","45C186EE4B68442DA775A15CF9D6E6BF-2025-08-17-20-40-52","","null","","[]","null","",""
"","","","","","image-button-response","92","1250732","0.0-14.0-1.0-0.1","45C186EE4B68442DA775A15CF9D6E6BF","45C186EE4B68442DA775A15CF9D6E6BF","0198b995-048f-76c7-baf4-055e414b6a3f","0198b979-1f5e-7105-8b5f-48f920534529","{""num_scrambled_semantic"":""8"",""num_scrambled_causal"":""4"",""num_scrambled_schematic"":""4"",""participantId"":""45C186EE4B68442DA775A15CF9D6E6BF"",""assignmentId"":""0198b995-048f-76c7-baf4-055e414b6a3f"",""projectId"":""0198b979-1f5e-7105-8b5f-48f920534529""}","https://test12345.live/?num_scrambled_semantic=8&num_scrambled_causal=4&num_scrambled_schematic=4&participantId=45C186EE4B68442DA775A15CF9D6E6BF&assignmentId=0198b995-048f-76c7-baf4-055e414b6a3f&projectId=0198b979-1f5e-7105-8b5f-48f920534529","45C186EE4B68442DA775A15CF9D6E6BF-2025-08-17-20-40-52","","null","","images/causal_sequence/package_causal/package_causal_2.png","null","",""
"","","","","","image-button-response","93","1253610","0.0-14.0-1.0-1.1","45C186EE4B68442DA775A15CF9D6E6BF","45C186EE4B68442DA775A15CF9D6E6BF","0198b995-048f-76c7-baf4-055e414b6a3f","0198b979-1f5e-7105-8b5f-48f920534529","{""num_scrambled_semantic"":""8"",""num_scrambled_causal"":""4"",""num_scrambled_schematic"":""4"",""participantId"":""45C186EE4B68442DA775A15CF9D6E6BF"",""assignmentId"":""0198b995-048f-76c7-baf4-055e414b6a3f"",""projectId"":""0198b979-1f5e-7105-8b5f-48f920534529""}","https://test12345.live/?num_scrambled_semantic=8&num_scrambled_causal=4&num_scrambled_schematic=4&participantId=45C186EE4B68442DA775A15CF9D6E6BF&assignmentId=0198b995-048f-76c7-baf4-055e414b6a3f&projectId=0198b979-1f5e-7105-8b5f-48f920534529","45C186EE4B68442DA775A15CF9D6E6BF-2025-08-17-20-40-52","","2877","","images/causal_sequence/package_causal/package_causal_2.png","0","",""
"","","","","","image-button-response","94","1259011","0.0-14.0-1.0-2.1","45C186EE4B68442DA775A15CF9D6E6BF","45C186EE4B68442DA775A15CF9D6E6BF","0198b995-048f-76c7-baf4-055e414b6a3f","0198b979-1f5e-7105-8b5f-48f920534529","{""num_scrambled_semantic"":""8"",""num_scrambled_causal"":""4"",""num_scrambled_schematic"":""4"",""participantId"":""45C186EE4B68442DA775A15CF9D6E6BF"",""assignmentId"":""0198b995-048f-76c7-baf4-055e414b6a3f"",""projectId"":""0198b979-1f5e-7105-8b5f-48f920534529""}","https://test12345.live/?num_scrambled_semantic=8&num_scrambled_causal=4&num_scrambled_schematic=4&participantId=45C186EE4B68442DA775A15CF9D6E6BF&assignmentId=0198b995-048f-76c7-baf4-055e414b6a3f&projectId=0198b979-1f5e-7105-8b5f-48f920534529","45C186EE4B68442DA775A15CF9D6E6BF-2025-08-17-20-40-52","","null","","[]","null","",""
"","","","","","image-button-response","95","1263512","0.0-14.0-1.0-0.2","45C186EE4B68442DA775A15CF9D6E6BF","45C186EE4B68442DA775A15CF9D6E6BF","0198b995-048f-76c7-baf4-055e414b6a3f","0198b979-1f5e-7105-8b5f-48f920534529","{""num_scrambled_semantic"":""8"",""num_scrambled_causal"":""4"",""num_scrambled_schematic"":""4"",""participantId"":""45C186EE4B68442DA775A15CF9D6E6BF"",""assignmentId"":""0198b995-048f-76c7-baf4-055e414b6a3f"",""projectId"":""0198b979-1f5e-7105-8b5f-48f920534529""}","https://test12345.live/?num_scrambled_semantic=8&num_scrambled_causal=4&num_scrambled_schematic=4&participantId=45C186EE4B68442DA775A15CF9D6E6BF&assignmentId=0198b995-048f-76c7-baf4-055e414b6a3f&projectId=0198b979-1f5e-7105-8b5f-48f920534529","45C186EE4B68442DA775A15CF9D6E6BF-2025-08-17-20-40-52","","null","","images/causal_sequence/package_causal/package_causal_6.png","null","",""
"","","","","","image-button-response","96","1266481","0.0-14.0-1.0-1.2","45C186EE4B68442DA775A15CF9D6E6BF","45C186EE4B68442DA775A15CF9D6E6BF","0198b995-048f-76c7-baf4-055e414b6a3f","0198b979-1f5e-7105-8b5f-48f920534529","{""num_scrambled_semantic"":""8"",""num_scrambled_causal"":""4"",""num_scrambled_schematic"":""4"",""participantId"":""45C186EE4B68442DA775A15CF9D6E6BF"",""assignmentId"":""0198b995-048f-76c7-baf4-055e414b6a3f"",""projectId"":""0198b979-1f5e-7105-8b5f-48f920534529""}","https://test12345.live/?num_scrambled_semantic=8&num_scrambled_causal=4&num_scrambled_schematic=4&participantId=45C186EE4B68442DA775A15CF9D6E6BF&assignmentId=0198b995-048f-76c7-baf4-055e414b6a3f&projectId=0198b979-1f5e-7105-8b5f-48f920534529","45C186EE4B68442DA775A15CF9D6E6BF-2025-08-17-20-40-52","","2969","","images/causal_sequence/package_causal/package_causal_6.png","0","",""
"","","","","","image-button-response","97","1271882","0.0-14.0-1.0-2.2","45C186EE4B68442DA775A15CF9D6E6BF","45C186EE4B68442DA775A15CF9D6E6BF","0198b995-048f-76c7-baf4-055e414b6a3f","0198b979-1f5e-7105-8b5f-48f920534529","{""num_scrambled_semantic"":""8"",""num_scrambled_causal"":""4"",""num_scrambled_schematic"":""4"",""participantId"":""45C186EE4B68442DA775A15CF9D6E6BF"",""assignmentId"":""0198b995-048f-76c7-baf4-055e414b6a3f"",""projectId"":""0198b979-1f5e-7105-8b5f-48f920534529""}","https://test12345.live/?num_scrambled_semantic=8&num_scrambled_causal=4&num_scrambled_schematic=4&participantId=45C186EE4B68442DA775A15CF9D6E6BF&assignmentId=0198b995-048f-76c7-baf4-055e414b6a3f&projectId=0198b979-1f5e-7105-8b5f-48f920534529","45C186EE4B68442DA775A15CF9D6E6BF-2025-08-17-20-40-52","","null","","[]","null","",""
"","","","","","image-button-response","98","1276385","0.0-14.0-1.0-0.3","45C186EE4B68442DA775A15CF9D6E6BF","45C186EE4B68442DA775A15CF9D6E6BF","0198b995-048f-76c7-baf4-055e414b6a3f","0198b979-1f5e-7105-8b5f-48f920534529","{""num_scrambled_semantic"":""8"",""num_scrambled_causal"":""4"",""num_scrambled_schematic"":""4"",""participantId"":""45C186EE4B68442DA775A15CF9D6E6BF"",""assignmentId"":""0198b995-048f-76c7-baf4-055e414b6a3f"",""projectId"":""0198b979-1f5e-7105-8b5f-48f920534529""}","https://test12345.live/?num_scrambled_semantic=8&num_scrambled_causal=4&num_scrambled_schematic=4&participantId=45C186EE4B68442DA775A15CF9D6E6BF&assignmentId=0198b995-048f-76c7-baf4-055e414b6a3f&projectId=0198b979-1f5e-7105-8b5f-48f920534529","45C186EE4B68442DA775A15CF9D6E6BF-2025-08-17-20-40-52","","null","","images/causal_sequence/package_causal/package_causal_5.png","null","",""
"","","","","","image-button-response","99","1280387","0.0-14.0-1.0-1.3","45C186EE4B68442DA775A15CF9D6E6BF","45C186EE4B68442DA775A15CF9D6E6BF","0198b995-048f-76c7-baf4-055e414b6a3f","0198b979-1f5e-7105-8b5f-48f920534529","{""num_scrambled_semantic"":""8"",""num_scrambled_causal"":""4"",""num_scrambled_schematic"":""4"",""participantId"":""45C186EE4B68442DA775A15CF9D6E6BF"",""assignmentId"":""0198b995-048f-76c7-baf4-055e414b6a3f"",""projectId"":""0198b979-1f5e-7105-8b5f-48f920534529""}","https://test12345.live/?num_scrambled_semantic=8&num_scrambled_causal=4&num_scrambled_schematic=4&participantId=45C186EE4B68442DA775A15CF9D6E6BF&assignmentId=0198b995-048f-76c7-baf4-055e414b6a3f&projectId=0198b979-1f5e-7105-8b5f-48f920534529","45C186EE4B68442DA775A15CF9D6E6BF-2025-08-17-20-40-52","","null","","images/causal_sequence/package_causal/package_causal_5.png","null","",""
"","","","","","image-button-response","100","1285789","0.0-14.0-1.0-2.3","45C186EE4B68442DA775A15CF9D6E6BF","45C186EE4B68442DA775A15CF9D6E6BF","0198b995-048f-76c7-baf4-055e414b6a3f","0198b979-1f5e-7105-8b5f-48f920534529","{""num_scrambled_semantic"":""8"",""num_scrambled_causal"":""4"",""num_scrambled_schematic"":""4"",""participantId"":""45C186EE4B68442DA775A15CF9D6E6BF"",""assignmentId"":""0198b995-048f-76c7-baf4-055e414b6a3f"",""projectId"":""0198b979-1f5e-7105-8b5f-48f920534529""}","https://test12345.live/?num_scrambled_semantic=8&num_scrambled_causal=4&num_scrambled_schematic=4&participantId=45C186EE4B68442DA775A15CF9D6E6BF&assignmentId=0198b995-048f-76c7-baf4-055e414b6a3f&projectId=0198b979-1f5e-7105-8b5f-48f920534529","45C186EE4B68442DA775A15CF9D6E6BF-2025-08-17-20-40-52","","null","","[]","null","",""
"","","","","","image-button-response","101","1290290","0.0-14.0-1.0-0.4","45C186EE4B68442DA775A15CF9D6E6BF","45C186EE4B68442DA775A15CF9D6E6BF","0198b995-048f-76c7-baf4-055e414b6a3f","0198b979-1f5e-7105-8b5f-48f920534529","{""num_scrambled_semantic"":""8"",""num_scrambled_causal"":""4"",""num_scrambled_schematic"":""4"",""participantId"":""45C186EE4B68442DA775A15CF9D6E6BF"",""assignmentId"":""0198b995-048f-76c7-baf4-055e414b6a3f"",""projectId"":""0198b979-1f5e-7105-8b5f-48f920534529""}","https://test12345.live/?num_scrambled_semantic=8&num_scrambled_causal=4&num_scrambled_schematic=4&participantId=45C186EE4B68442DA775A15CF9D6E6BF&assignmentId=0198b995-048f-76c7-baf4-055e414b6a3f&projectId=0198b979-1f5e-7105-8b5f-48f920534529","45C186EE4B68442DA775A15CF9D6E6BF-2025-08-17-20-40-52","","null","","images/causal_sequence/package_causal/package_causal_ten.png","null","",""
"","","","","","image-button-response","102","1293376","0.0-14.0-1.0-1.4","45C186EE4B68442DA775A15CF9D6E6BF","45C186EE4B68442DA775A15CF9D6E6BF","0198b995-048f-76c7-baf4-055e414b6a3f","0198b979-1f5e-7105-8b5f-48f920534529","{""num_scrambled_semantic"":""8"",""num_scrambled_causal"":""4"",""num_scrambled_schematic"":""4"",""participantId"":""45C186EE4B68442DA775A15CF9D6E6BF"",""assignmentId"":""0198b995-048f-76c7-baf4-055e414b6a3f"",""projectId"":""0198b979-1f5e-7105-8b5f-48f920534529""}","https://test12345.live/?num_scrambled_semantic=8&num_scrambled_causal=4&num_scrambled_schematic=4&participantId=45C186EE4B68442DA775A15CF9D6E6BF&assignmentId=0198b995-048f-76c7-baf4-055e414b6a3f&projectId=0198b979-1f5e-7105-8b5f-48f920534529","45C186EE4B68442DA775A15CF9D6E6BF-2025-08-17-20-40-52","","3084","","images/causal_sequence/package_causal/package_causal_ten.png","0","",""
"","","","","","image-button-response","103","1298777","0.0-14.0-1.0-2.4","45C186EE4B68442DA775A15CF9D6E6BF","45C186EE4B68442DA775A15CF9D6E6BF","0198b995-048f-76c7-baf4-055e414b6a3f","0198b979-1f5e-7105-8b5f-48f920534529","{""num_scrambled_semantic"":""8"",""num_scrambled_causal"":""4"",""num_scrambled_schematic"":""4"",""participantId"":""45C186EE4B68442DA775A15CF9D6E6BF"",""assignmentId"":""0198b995-048f-76c7-baf4-055e414b6a3f"",""projectId"":""0198b979-1f5e-7105-8b5f-48f920534529""}","https://test12345.live/?num_scrambled_semantic=8&num_scrambled_causal=4&num_scrambled_schematic=4&participantId=45C186EE4B68442DA775A15CF9D6E6BF&assignmentId=0198b995-048f-76c7-baf4-055e414b6a3f&projectId=0198b979-1f5e-7105-8b5f-48f920534529","45C186EE4B68442DA775A15CF9D6E6BF-2025-08-17-20-40-52","","null","","[]","null","",""
"","","","","","image-button-response","104","1303278","0.0-14.0-1.0-0.5","45C186EE4B68442DA775A15CF9D6E6BF","45C186EE4B68442DA775A15CF9D6E6BF","0198b995-048f-76c7-baf4-055e414b6a3f","0198b979-1f5e-7105-8b5f-48f920534529","{""num_scrambled_semantic"":""8"",""num_scrambled_causal"":""4"",""num_scrambled_schematic"":""4"",""participantId"":""45C186EE4B68442DA775A15CF9D6E6BF"",""assignmentId"":""0198b995-048f-76c7-baf4-055e414b6a3f"",""projectId"":""0198b979-1f5e-7105-8b5f-48f920534529""}","https://test12345.live/?num_scrambled_semantic=8&num_scrambled_causal=4&num_scrambled_schematic=4&participantId=45C186EE4B68442DA775A15CF9D6E6BF&assignmentId=0198b995-048f-76c7-baf4-055e414b6a3f&projectId=0198b979-1f5e-7105-8b5f-48f920534529","45C186EE4B68442DA775A15CF9D6E6BF-2025-08-17-20-40-52","","null","","images/causal_sequence/package_causal/package_causal_7.png","null","",""
"","","","","","image-button-response","105","1305639","0.0-14.0-1.0-1.5","45C186EE4B68442DA775A15CF9D6E6BF","45C186EE4B68442DA775A15CF9D6E6BF","0198b995-048f-76c7-baf4-055e414b6a3f","0198b979-1f5e-7105-8b5f-48f920534529","{""num_scrambled_semantic"":""8"",""num_scrambled_causal"":""4"",""num_scrambled_schematic"":""4"",""participantId"":""45C186EE4B68442DA775A15CF9D6E6BF"",""assignmentId"":""0198b995-048f-76c7-baf4-055e414b6a3f"",""projectId"":""0198b979-1f5e-7105-8b5f-48f920534529""}","https://test12345.live/?num_scrambled_semantic=8&num_scrambled_causal=4&num_scrambled_schematic=4&participantId=45C186EE4B68442DA775A15CF9D6E6BF&assignmentId=0198b995-048f-76c7-baf4-055e414b6a3f&projectId=0198b979-1f5e-7105-8b5f-48f920534529","45C186EE4B68442DA775A15CF9D6E6BF-2025-08-17-20-40-52","","2361","","images/causal_sequence/package_causal/package_causal_7.png","0","",""
"","","","","","image-button-response","106","1311040","0.0-14.0-1.0-2.5","45C186EE4B68442DA775A15CF9D6E6BF","45C186EE4B68442DA775A15CF9D6E6BF","0198b995-048f-76c7-baf4-055e414b6a3f","0198b979-1f5e-7105-8b5f-48f920534529","{""num_scrambled_semantic"":""8"",""num_scrambled_causal"":""4"",""num_scrambled_schematic"":""4"",""participantId"":""45C186EE4B68442DA775A15CF9D6E6BF"",""assignmentId"":""0198b995-048f-76c7-baf4-055e414b6a3f"",""projectId"":""0198b979-1f5e-7105-8b5f-48f920534529""}","https://test12345.live/?num_scrambled_semantic=8&num_scrambled_causal=4&num_scrambled_schematic=4&participantId=45C186EE4B68442DA775A15CF9D6E6BF&assignmentId=0198b995-048f-76c7-baf4-055e414b6a3f&projectId=0198b979-1f5e-7105-8b5f-48f920534529","45C186EE4B68442DA775A15CF9D6E6BF-2025-08-17-20-40-52","","null","","[]","null","",""
"","","","","","image-button-response","107","1315541","0.0-14.0-1.0-0.6","45C186EE4B68442DA775A15CF9D6E6BF","45C186EE4B68442DA775A15CF9D6E6BF","0198b995-048f-76c7-baf4-055e414b6a3f","0198b979-1f5e-7105-8b5f-48f920534529","{""num_scrambled_semantic"":""8"",""num_scrambled_causal"":""4"",""num_scrambled_schematic"":""4"",""participantId"":""45C186EE4B68442DA775A15CF9D6E6BF"",""assignmentId"":""0198b995-048f-76c7-baf4-055e414b6a3f"",""projectId"":""0198b979-1f5e-7105-8b5f-48f920534529""}","https://test12345.live/?num_scrambled_semantic=8&num_scrambled_causal=4&num_scrambled_schematic=4&participantId=45C186EE4B68442DA775A15CF9D6E6BF&assignmentId=0198b995-048f-76c7-baf4-055e414b6a3f&projectId=0198b979-1f5e-7105-8b5f-48f920534529","45C186EE4B68442DA775A15CF9D6E6BF-2025-08-17-20-40-52","","null","","images/causal_sequence/package_causal/package_causal_3.png","null","",""
"","","","","","image-button-response","108","1316282","0.0-14.0-1.0-1.6","45C186EE4B68442DA775A15CF9D6E6BF","45C186EE4B68442DA775A15CF9D6E6BF","0198b995-048f-76c7-baf4-055e414b6a3f","0198b979-1f5e-7105-8b5f-48f920534529","{""num_scrambled_semantic"":""8"",""num_scrambled_causal"":""4"",""num_scrambled_schematic"":""4"",""participantId"":""45C186EE4B68442DA775A15CF9D6E6BF"",""assignmentId"":""0198b995-048f-76c7-baf4-055e414b6a3f"",""projectId"":""0198b979-1f5e-7105-8b5f-48f920534529""}","https://test12345.live/?num_scrambled_semantic=8&num_scrambled_causal=4&num_scrambled_schematic=4&participantId=45C186EE4B68442DA775A15CF9D6E6BF&assignmentId=0198b995-048f-76c7-baf4-055e414b6a3f&projectId=0198b979-1f5e-7105-8b5f-48f920534529","45C186EE4B68442DA775A15CF9D6E6BF-2025-08-17-20-40-52","","741","","images/causal_sequence/package_causal/package_causal_3.png","0","",""
"","","","","","image-button-response","109","1321684","0.0-14.0-1.0-2.6","45C186EE4B68442DA775A15CF9D6E6BF","45C186EE4B68442DA775A15CF9D6E6BF","0198b995-048f-76c7-baf4-055e414b6a3f","0198b979-1f5e-7105-8b5f-48f920534529","{""num_scrambled_semantic"":""8"",""num_scrambled_causal"":""4"",""num_scrambled_schematic"":""4"",""participantId"":""45C186EE4B68442DA775A15CF9D6E6BF"",""assignmentId"":""0198b995-048f-76c7-baf4-055e414b6a3f"",""projectId"":""0198b979-1f5e-7105-8b5f-48f920534529""}","https://test12345.live/?num_scrambled_semantic=8&num_scrambled_causal=4&num_scrambled_schematic=4&participantId=45C186EE4B68442DA775A15CF9D6E6BF&assignmentId=0198b995-048f-76c7-baf4-055e414b6a3f&projectId=0198b979-1f5e-7105-8b5f-48f920534529","45C186EE4B68442DA775A15CF9D6E6BF-2025-08-17-20-40-52","","null","","[]","null","",""
"","","","","","image-button-response","110","1326186","0.0-14.0-1.0-0.7","45C186EE4B68442DA775A15CF9D6E6BF","45C186EE4B68442DA775A15CF9D6E6BF","0198b995-048f-76c7-baf4-055e414b6a3f","0198b979-1f5e-7105-8b5f-48f920534529","{""num_scrambled_semantic"":""8"",""num_scrambled_causal"":""4"",""num_scrambled_schematic"":""4"",""participantId"":""45C186EE4B68442DA775A15CF9D6E6BF"",""assignmentId"":""0198b995-048f-76c7-baf4-055e414b6a3f"",""projectId"":""0198b979-1f5e-7105-8b5f-48f920534529""}","https://test12345.live/?num_scrambled_semantic=8&num_scrambled_causal=4&num_scrambled_schematic=4&participantId=45C186EE4B68442DA775A15CF9D6E6BF&assignmentId=0198b995-048f-76c7-baf4-055e414b6a3f&projectId=0198b979-1f5e-7105-8b5f-48f920534529","45C186EE4B68442DA775A15CF9D6E6BF-2025-08-17-20-40-52","","null","","images/causal_sequence/package_causal/package_causal_9.png","null","",""
"","","","","","image-button-response","111","1326894","0.0-14.0-1.0-1.7","45C186EE4B68442DA775A15CF9D6E6BF","45C186EE4B68442DA775A15CF9D6E6BF","0198b995-048f-76c7-baf4-055e414b6a3f","0198b979-1f5e-7105-8b5f-48f920534529","{""num_scrambled_semantic"":""8"",""num_scrambled_causal"":""4"",""num_scrambled_schematic"":""4"",""participantId"":""45C186EE4B68442DA775A15CF9D6E6BF"",""assignmentId"":""0198b995-048f-76c7-baf4-055e414b6a3f"",""projectId"":""0198b979-1f5e-7105-8b5f-48f920534529""}","https://test12345.live/?num_scrambled_semantic=8&num_scrambled_causal=4&num_scrambled_schematic=4&participantId=45C186EE4B68442DA775A15CF9D6E6BF&assignmentId=0198b995-048f-76c7-baf4-055e414b6a3f&projectId=0198b979-1f5e-7105-8b5f-48f920534529","45C186EE4B68442DA775A15CF9D6E6BF-2025-08-17-20-40-52","","707","","images/causal_sequence/package_causal/package_causal_9.png","0","",""
"","","","","","image-button-response","112","1332295","0.0-14.0-1.0-2.7","45C186EE4B68442DA775A15CF9D6E6BF","45C186EE4B68442DA775A15CF9D6E6BF","0198b995-048f-76c7-baf4-055e414b6a3f","0198b979-1f5e-7105-8b5f-48f920534529","{""num_scrambled_semantic"":""8"",""num_scrambled_causal"":""4"",""num_scrambled_schematic"":""4"",""participantId"":""45C186EE4B68442DA775A15CF9D6E6BF"",""assignmentId"":""0198b995-048f-76c7-baf4-055e414b6a3f"",""projectId"":""0198b979-1f5e-7105-8b5f-48f920534529""}","https://test12345.live/?num_scrambled_semantic=8&num_scrambled_causal=4&num_scrambled_schematic=4&participantId=45C186EE4B68442DA775A15CF9D6E6BF&assignmentId=0198b995-048f-76c7-baf4-055e414b6a3f&projectId=0198b979-1f5e-7105-8b5f-48f920534529","45C186EE4B68442DA775A15CF9D6E6BF-2025-08-17-20-40-52","","null","","[]","null","",""
"","","","","","image-button-response","113","1336798","0.0-14.0-1.0-0.8","45C186EE4B68442DA775A15CF9D6E6BF","45C186EE4B68442DA775A15CF9D6E6BF","0198b995-048f-76c7-baf4-055e414b6a3f","0198b979-1f5e-7105-8b5f-48f920534529","{""num_scrambled_semantic"":""8"",""num_scrambled_causal"":""4"",""num_scrambled_schematic"":""4"",""participantId"":""45C186EE4B68442DA775A15CF9D6E6BF"",""assignmentId"":""0198b995-048f-76c7-baf4-055e414b6a3f"",""projectId"":""0198b979-1f5e-7105-8b5f-48f920534529""}","https://test12345.live/?num_scrambled_semantic=8&num_scrambled_causal=4&num_scrambled_schematic=4&participantId=45C186EE4B68442DA775A15CF9D6E6BF&assignmentId=0198b995-048f-76c7-baf4-055e414b6a3f&projectId=0198b979-1f5e-7105-8b5f-48f920534529","45C186EE4B68442DA775A15CF9D6E6BF-2025-08-17-20-40-52","","null","","images/causal_sequence/package_causal/package_causal_1.png","null","",""
"","","","","","image-button-response","114","1339720","0.0-14.0-1.0-1.8","45C186EE4B68442DA775A15CF9D6E6BF","45C186EE4B68442DA775A15CF9D6E6BF","0198b995-048f-76c7-baf4-055e414b6a3f","0198b979-1f5e-7105-8b5f-48f920534529","{""num_scrambled_semantic"":""8"",""num_scrambled_causal"":""4"",""num_scrambled_schematic"":""4"",""participantId"":""45C186EE4B68442DA775A15CF9D6E6BF"",""assignmentId"":""0198b995-048f-76c7-baf4-055e414b6a3f"",""projectId"":""0198b979-1f5e-7105-8b5f-48f920534529""}","https://test12345.live/?num_scrambled_semantic=8&num_scrambled_causal=4&num_scrambled_schematic=4&participantId=45C186EE4B68442DA775A15CF9D6E6BF&assignmentId=0198b995-048f-76c7-baf4-055e414b6a3f&projectId=0198b979-1f5e-7105-8b5f-48f920534529","45C186EE4B68442DA775A15CF9D6E6BF-2025-08-17-20-40-52","","2920","","images/causal_sequence/package_causal/package_causal_1.png","0","",""
