"success","timeout","failed_images","failed_audio","failed_video","trial_type","trial_index","time_elapsed","internal_node_id","subject","subject_id","study_id","session_id","urlvar","current_url","audio_id","view_history","rt","device_id","stimulus","response","estimated_stimulus_onset","seq_name"
"true","false","[]","[]","[]","preload","0","107522","0.0-0.0","45E3DC1ABFB543F7B8FE97B44BAEC48A","45E3DC1ABFB543F7B8FE97B44BAEC48A","fcfd1132-b210-4f32-a17d-5ae2bd11a444","a6b6d205-fa41-4c5b-a7a5-7fc4b51b0cea","{""num_scrambled_semantic"":""8"",""num_scrambled_causal"":""4"",""num_scrambled_schematic"":""4"",""participantId"":""45E3DC1ABFB543F7B8FE97B44BAEC48A"",""assignmentId"":""fcfd1132-b210-4f32-a17d-5ae2bd11a444"",""projectId"":""a6b6d205-fa41-4c5b-a7a5-7fc4b51b0cea""}","https://test12345.live/?num_scrambled_semantic=8&num_scrambled_causal=4&num_scrambled_schematic=4&participantId=45E3DC1ABFB543F7B8FE97B44BAEC48A&assignmentId=fcfd1132-b210-4f32-a17d-5ae2bd11a444&projectId=a6b6d205-fa41-4c5b-a7a5-7fc4b51b0cea","45E3DC1ABFB543F7B8FE97B44BAEC48A-2025-05-27-18-44-59","","","","","","",""
"","","","","","instructions","1","127463","0.0-1.0","45E3DC1ABFB543F7B8FE97B44BAEC48A","45E3DC1ABFB543F7B8FE97B44BAEC48A","fcfd1132-b210-4f32-a17d-5ae2bd11a444","a6b6d205-fa41-4c5b-a7a5-7fc4b51b0cea","{""num_scrambled_semantic"":""8"",""num_scrambled_causal"":""4"",""num_scrambled_schematic"":""4"",""participantId"":""45E3DC1ABFB543F7B8FE97B44BAEC48A"",""assignmentId"":""fcfd1132-b210-4f32-a17d-5ae2bd11a444"",""projectId"":""a6b6d205-fa41-4c5b-a7a5-7fc4b51b0cea""}","https://test12345.live/?num_scrambled_semantic=8&num_scrambled_causal=4&num_scrambled_schematic=4&participantId=45E3DC1ABFB543F7B8FE97B44BAEC48A&assignmentId=fcfd1132-b210-4f32-a17d-5ae2bd11a444&projectId=a6b6d205-fa41-4c5b-a7a5-7fc4b51b0cea","45E3DC1ABFB543F7B8FE97B44BAEC48A-2025-05-27-18-44-59","[{""page_index"":0,""viewing_time"":19940}]","19940","","","","",""
"","","","","","instructions","2","132220","0.0-2.0","45E3DC1ABFB543F7B8FE97B44BAEC48A","45E3DC1ABFB543F7B8FE97B44BAEC48A","fcfd1132-b210-4f32-a17d-5ae2bd11a444","a6b6d205-fa41-4c5b-a7a5-7fc4b51b0cea","{""num_scrambled_semantic"":""8"",""num_scrambled_causal"":""4"",""num_scrambled_schematic"":""4"",""participantId"":""45E3DC1ABFB543F7B8FE97B44BAEC48A"",""assignmentId"":""fcfd1132-b210-4f32-a17d-5ae2bd11a444"",""projectId"":""a6b6d205-fa41-4c5b-a7a5-7fc4b51b0cea""}","https://test12345.live/?num_scrambled_semantic=8&num_scrambled_causal=4&num_scrambled_schematic=4&participantId=45E3DC1ABFB543F7B8FE97B44BAEC48A&assignmentId=fcfd1132-b210-4f32-a17d-5ae2bd11a444&projectId=a6b6d205-fa41-4c5b-a7a5-7fc4b51b0cea","45E3DC1ABFB543F7B8FE97B44BAEC48A-2025-05-27-18-44-59","[{""page_index"":0,""viewing_time"":4741}]","4741","","","","",""
"true","","","","","fullscreen","3","135572","0.0-3.0","45E3DC1ABFB543F7B8FE97B44BAEC48A","45E3DC1ABFB543F7B8FE97B44BAEC48A","fcfd1132-b210-4f32-a17d-5ae2bd11a444","a6b6d205-fa41-4c5b-a7a5-7fc4b51b0cea","{""num_scrambled_semantic"":""8"",""num_scrambled_causal"":""4"",""num_scrambled_schematic"":""4"",""participantId"":""45E3DC1ABFB543F7B8FE97B44BAEC48A"",""assignmentId"":""fcfd1132-b210-4f32-a17d-5ae2bd11a444"",""projectId"":""a6b6d205-fa41-4c5b-a7a5-7fc4b51b0cea""}","https://test12345.live/?num_scrambled_semantic=8&num_scrambled_causal=4&num_scrambled_schematic=4&participantId=45E3DC1ABFB543F7B8FE97B44BAEC48A&assignmentId=fcfd1132-b210-4f32-a17d-5ae2bd11a444&projectId=a6b6d205-fa41-4c5b-a7a5-7fc4b51b0cea","45E3DC1ABFB543F7B8FE97B44BAEC48A-2025-05-27-18-44-59","","2338","","","","",""
"","","","","","initialize-microphone","4","148956","0.0-4.0-0.0","45E3DC1ABFB543F7B8FE97B44BAEC48A","45E3DC1ABFB543F7B8FE97B44BAEC48A","fcfd1132-b210-4f32-a17d-5ae2bd11a444","a6b6d205-fa41-4c5b-a7a5-7fc4b51b0cea","{""num_scrambled_semantic"":""8"",""num_scrambled_causal"":""4"",""num_scrambled_schematic"":""4"",""participantId"":""45E3DC1ABFB543F7B8FE97B44BAEC48A"",""assignmentId"":""fcfd1132-b210-4f32-a17d-5ae2bd11a444"",""projectId"":""a6b6d205-fa41-4c5b-a7a5-7fc4b51b0cea""}","https://test12345.live/?num_scrambled_semantic=8&num_scrambled_causal=4&num_scrambled_schematic=4&participantId=45E3DC1ABFB543F7B8FE97B44BAEC48A&assignmentId=fcfd1132-b210-4f32-a17d-5ae2bd11a444&projectId=a6b6d205-fa41-4c5b-a7a5-7fc4b51b0cea","45E3DC1ABFB543F7B8FE97B44BAEC48A-2025-05-27-18-44-59","","","0d6f543530891abed97406290405fb8f53b3bd300d4447a8fe6362d8e82347fc","","","",""
"","","","","","html-audio-response","5","181982","0.0-4.0-1.0","45E3DC1ABFB543F7B8FE97B44BAEC48A","45E3DC1ABFB543F7B8FE97B44BAEC48A","fcfd1132-b210-4f32-a17d-5ae2bd11a444","a6b6d205-fa41-4c5b-a7a5-7fc4b51b0cea","{""num_scrambled_semantic"":""8"",""num_scrambled_causal"":""4"",""num_scrambled_schematic"":""4"",""participantId"":""45E3DC1ABFB543F7B8FE97B44BAEC48A"",""assignmentId"":""fcfd1132-b210-4f32-a17d-5ae2bd11a444"",""projectId"":""a6b6d205-fa41-4c5b-a7a5-7fc4b51b0cea""}","https://test12345.live/?num_scrambled_semantic=8&num_scrambled_causal=4&num_scrambled_schematic=4&participantId=45E3DC1ABFB543F7B8FE97B44BAEC48A&assignmentId=fcfd1132-b210-4f32-a17d-5ae2bd11a444&projectId=a6b6d205-fa41-4c5b-a7a5-7fc4b51b0cea","45E3DC1ABFB543F7B8FE97B44BAEC48A-2025-05-27-18-44-59","","1208","","<span style=""color: red; font-size: 24px""> NOW RECORDING</span>
        <p>Please test Microphone</p>","","2",""
"","","","","","html-button-response","6","184899","0.0-4.0-2.0","45E3DC1ABFB543F7B8FE97B44BAEC48A","45E3DC1ABFB543F7B8FE97B44BAEC48A","fcfd1132-b210-4f32-a17d-5ae2bd11a444","a6b6d205-fa41-4c5b-a7a5-7fc4b51b0cea","{""num_scrambled_semantic"":""8"",""num_scrambled_causal"":""4"",""num_scrambled_schematic"":""4"",""participantId"":""45E3DC1ABFB543F7B8FE97B44BAEC48A"",""assignmentId"":""fcfd1132-b210-4f32-a17d-5ae2bd11a444"",""projectId"":""a6b6d205-fa41-4c5b-a7a5-7fc4b51b0cea""}","https://test12345.live/?num_scrambled_semantic=8&num_scrambled_causal=4&num_scrambled_schematic=4&participantId=45E3DC1ABFB543F7B8FE97B44BAEC48A&assignmentId=fcfd1132-b210-4f32-a17d-5ae2bd11a444&projectId=a6b6d205-fa41-4c5b-a7a5-7fc4b51b0cea","45E3DC1ABFB543F7B8FE97B44BAEC48A-2025-05-27-18-44-59","","2916","","<p style=""font-size:48px; color:red;"">Is Microphone OK?</p>","1","",""
"","","","","","instructions","7","206144","0.0-5.0","45E3DC1ABFB543F7B8FE97B44BAEC48A","45E3DC1ABFB543F7B8FE97B44BAEC48A","fcfd1132-b210-4f32-a17d-5ae2bd11a444","a6b6d205-fa41-4c5b-a7a5-7fc4b51b0cea","{""num_scrambled_semantic"":""8"",""num_scrambled_causal"":""4"",""num_scrambled_schematic"":""4"",""participantId"":""45E3DC1ABFB543F7B8FE97B44BAEC48A"",""assignmentId"":""fcfd1132-b210-4f32-a17d-5ae2bd11a444"",""projectId"":""a6b6d205-fa41-4c5b-a7a5-7fc4b51b0cea""}","https://test12345.live/?num_scrambled_semantic=8&num_scrambled_causal=4&num_scrambled_schematic=4&participantId=45E3DC1ABFB543F7B8FE97B44BAEC48A&assignmentId=fcfd1132-b210-4f32-a17d-5ae2bd11a444&projectId=a6b6d205-fa41-4c5b-a7a5-7fc4b51b0cea","45E3DC1ABFB543F7B8FE97B44BAEC48A-2025-05-27-18-44-59","[{""page_index"":0,""viewing_time"":8630},{""page_index"":1,""viewing_time"":12613}]","21244","","","","",""
"","","","","","image-button-response","8","212152","0.0-6.0-0.0","45E3DC1ABFB543F7B8FE97B44BAEC48A","45E3DC1ABFB543F7B8FE97B44BAEC48A","fcfd1132-b210-4f32-a17d-5ae2bd11a444","a6b6d205-fa41-4c5b-a7a5-7fc4b51b0cea","{""num_scrambled_semantic"":""8"",""num_scrambled_causal"":""4"",""num_scrambled_schematic"":""4"",""participantId"":""45E3DC1ABFB543F7B8FE97B44BAEC48A"",""assignmentId"":""fcfd1132-b210-4f32-a17d-5ae2bd11a444"",""projectId"":""a6b6d205-fa41-4c5b-a7a5-7fc4b51b0cea""}","https://test12345.live/?num_scrambled_semantic=8&num_scrambled_causal=4&num_scrambled_schematic=4&participantId=45E3DC1ABFB543F7B8FE97B44BAEC48A&assignmentId=fcfd1132-b210-4f32-a17d-5ae2bd11a444&projectId=a6b6d205-fa41-4c5b-a7a5-7fc4b51b0cea","45E3DC1ABFB543F7B8FE97B44BAEC48A-2025-05-27-18-44-59","","null","","images/instructions/movie_0.png","null","",""
"","","","","","image-button-response","9","216655","0.0-6.0-1.0-0.0","45E3DC1ABFB543F7B8FE97B44BAEC48A","45E3DC1ABFB543F7B8FE97B44BAEC48A","fcfd1132-b210-4f32-a17d-5ae2bd11a444","a6b6d205-fa41-4c5b-a7a5-7fc4b51b0cea","{""num_scrambled_semantic"":""8"",""num_scrambled_causal"":""4"",""num_scrambled_schematic"":""4"",""participantId"":""45E3DC1ABFB543F7B8FE97B44BAEC48A"",""assignmentId"":""fcfd1132-b210-4f32-a17d-5ae2bd11a444"",""projectId"":""a6b6d205-fa41-4c5b-a7a5-7fc4b51b0cea""}","https://test12345.live/?num_scrambled_semantic=8&num_scrambled_causal=4&num_scrambled_schematic=4&participantId=45E3DC1ABFB543F7B8FE97B44BAEC48A&assignmentId=fcfd1132-b210-4f32-a17d-5ae2bd11a444&projectId=a6b6d205-fa41-4c5b-a7a5-7fc4b51b0cea","45E3DC1ABFB543F7B8FE97B44BAEC48A-2025-05-27-18-44-59","","null","","images/instructions/movie_1.png","null","",""
"","","","","","image-button-response","10","220657","0.0-6.0-1.0-1.0","45E3DC1ABFB543F7B8FE97B44BAEC48A","45E3DC1ABFB543F7B8FE97B44BAEC48A","fcfd1132-b210-4f32-a17d-5ae2bd11a444","a6b6d205-fa41-4c5b-a7a5-7fc4b51b0cea","{""num_scrambled_semantic"":""8"",""num_scrambled_causal"":""4"",""num_scrambled_schematic"":""4"",""participantId"":""45E3DC1ABFB543F7B8FE97B44BAEC48A"",""assignmentId"":""fcfd1132-b210-4f32-a17d-5ae2bd11a444"",""projectId"":""a6b6d205-fa41-4c5b-a7a5-7fc4b51b0cea""}","https://test12345.live/?num_scrambled_semantic=8&num_scrambled_causal=4&num_scrambled_schematic=4&participantId=45E3DC1ABFB543F7B8FE97B44BAEC48A&assignmentId=fcfd1132-b210-4f32-a17d-5ae2bd11a444&projectId=a6b6d205-fa41-4c5b-a7a5-7fc4b51b0cea","45E3DC1ABFB543F7B8FE97B44BAEC48A-2025-05-27-18-44-59","","null","","images/instructions/movie_1.png","null","",""
"","","","","","image-button-response","11","222469","0.0-6.0-1.0-2.0","45E3DC1ABFB543F7B8FE97B44BAEC48A","45E3DC1ABFB543F7B8FE97B44BAEC48A","fcfd1132-b210-4f32-a17d-5ae2bd11a444","a6b6d205-fa41-4c5b-a7a5-7fc4b51b0cea","{""num_scrambled_semantic"":""8"",""num_scrambled_causal"":""4"",""num_scrambled_schematic"":""4"",""participantId"":""45E3DC1ABFB543F7B8FE97B44BAEC48A"",""assignmentId"":""fcfd1132-b210-4f32-a17d-5ae2bd11a444"",""projectId"":""a6b6d205-fa41-4c5b-a7a5-7fc4b51b0cea""}","https://test12345.live/?num_scrambled_semantic=8&num_scrambled_causal=4&num_scrambled_schematic=4&participantId=45E3DC1ABFB543F7B8FE97B44BAEC48A&assignmentId=fcfd1132-b210-4f32-a17d-5ae2bd11a444&projectId=a6b6d205-fa41-4c5b-a7a5-7fc4b51b0cea","45E3DC1ABFB543F7B8FE97B44BAEC48A-2025-05-27-18-44-59","","null","","[]","null","",""
"","","","","","image-button-response","12","226979","0.0-6.0-1.0-0.1","45E3DC1ABFB543F7B8FE97B44BAEC48A","45E3DC1ABFB543F7B8FE97B44BAEC48A","fcfd1132-b210-4f32-a17d-5ae2bd11a444","a6b6d205-fa41-4c5b-a7a5-7fc4b51b0cea","{""num_scrambled_semantic"":""8"",""num_scrambled_causal"":""4"",""num_scrambled_schematic"":""4"",""participantId"":""45E3DC1ABFB543F7B8FE97B44BAEC48A"",""assignmentId"":""fcfd1132-b210-4f32-a17d-5ae2bd11a444"",""projectId"":""a6b6d205-fa41-4c5b-a7a5-7fc4b51b0cea""}","https://test12345.live/?num_scrambled_semantic=8&num_scrambled_causal=4&num_scrambled_schematic=4&participantId=45E3DC1ABFB543F7B8FE97B44BAEC48A&assignmentId=fcfd1132-b210-4f32-a17d-5ae2bd11a444&projectId=a6b6d205-fa41-4c5b-a7a5-7fc4b51b0cea","45E3DC1ABFB543F7B8FE97B44BAEC48A-2025-05-27-18-44-59","","null","","images/instructions/movie_2.png","null","",""
"","","","","","image-button-response","13","229960","0.0-6.0-1.0-1.1","45E3DC1ABFB543F7B8FE97B44BAEC48A","45E3DC1ABFB543F7B8FE97B44BAEC48A","fcfd1132-b210-4f32-a17d-5ae2bd11a444","a6b6d205-fa41-4c5b-a7a5-7fc4b51b0cea","{""num_scrambled_semantic"":""8"",""num_scrambled_causal"":""4"",""num_scrambled_schematic"":""4"",""participantId"":""45E3DC1ABFB543F7B8FE97B44BAEC48A"",""assignmentId"":""fcfd1132-b210-4f32-a17d-5ae2bd11a444"",""projectId"":""a6b6d205-fa41-4c5b-a7a5-7fc4b51b0cea""}","https://test12345.live/?num_scrambled_semantic=8&num_scrambled_causal=4&num_scrambled_schematic=4&participantId=45E3DC1ABFB543F7B8FE97B44BAEC48A&assignmentId=fcfd1132-b210-4f32-a17d-5ae2bd11a444&projectId=a6b6d205-fa41-4c5b-a7a5-7fc4b51b0cea","45E3DC1ABFB543F7B8FE97B44BAEC48A-2025-05-27-18-44-59","","2980","","images/instructions/movie_2.png","1","",""
"","","","","","image-button-response","14","231769","0.0-6.0-1.0-2.1","45E3DC1ABFB543F7B8FE97B44BAEC48A","45E3DC1ABFB543F7B8FE97B44BAEC48A","fcfd1132-b210-4f32-a17d-5ae2bd11a444","a6b6d205-fa41-4c5b-a7a5-7fc4b51b0cea","{""num_scrambled_semantic"":""8"",""num_scrambled_causal"":""4"",""num_scrambled_schematic"":""4"",""participantId"":""45E3DC1ABFB543F7B8FE97B44BAEC48A"",""assignmentId"":""fcfd1132-b210-4f32-a17d-5ae2bd11a444"",""projectId"":""a6b6d205-fa41-4c5b-a7a5-7fc4b51b0cea""}","https://test12345.live/?num_scrambled_semantic=8&num_scrambled_causal=4&num_scrambled_schematic=4&participantId=45E3DC1ABFB543F7B8FE97B44BAEC48A&assignmentId=fcfd1132-b210-4f32-a17d-5ae2bd11a444&projectId=a6b6d205-fa41-4c5b-a7a5-7fc4b51b0cea","45E3DC1ABFB543F7B8FE97B44BAEC48A-2025-05-27-18-44-59","","null","","[]","null","",""
"","","","","","image-button-response","15","236275","0.0-6.0-1.0-0.2","45E3DC1ABFB543F7B8FE97B44BAEC48A","45E3DC1ABFB543F7B8FE97B44BAEC48A","fcfd1132-b210-4f32-a17d-5ae2bd11a444","a6b6d205-fa41-4c5b-a7a5-7fc4b51b0cea","{""num_scrambled_semantic"":""8"",""num_scrambled_causal"":""4"",""num_scrambled_schematic"":""4"",""participantId"":""45E3DC1ABFB543F7B8FE97B44BAEC48A"",""assignmentId"":""fcfd1132-b210-4f32-a17d-5ae2bd11a444"",""projectId"":""a6b6d205-fa41-4c5b-a7a5-7fc4b51b0cea""}","https://test12345.live/?num_scrambled_semantic=8&num_scrambled_causal=4&num_scrambled_schematic=4&participantId=45E3DC1ABFB543F7B8FE97B44BAEC48A&assignmentId=fcfd1132-b210-4f32-a17d-5ae2bd11a444&projectId=a6b6d205-fa41-4c5b-a7a5-7fc4b51b0cea","45E3DC1ABFB543F7B8FE97B44BAEC48A-2025-05-27-18-44-59","","null","","images/instructions/movie_3.png","null","",""
"","","","","","image-button-response","16","237846","0.0-6.0-1.0-1.2","45E3DC1ABFB543F7B8FE97B44BAEC48A","45E3DC1ABFB543F7B8FE97B44BAEC48A","fcfd1132-b210-4f32-a17d-5ae2bd11a444","a6b6d205-fa41-4c5b-a7a5-7fc4b51b0cea","{""num_scrambled_semantic"":""8"",""num_scrambled_causal"":""4"",""num_scrambled_schematic"":""4"",""participantId"":""45E3DC1ABFB543F7B8FE97B44BAEC48A"",""assignmentId"":""fcfd1132-b210-4f32-a17d-5ae2bd11a444"",""projectId"":""a6b6d205-fa41-4c5b-a7a5-7fc4b51b0cea""}","https://test12345.live/?num_scrambled_semantic=8&num_scrambled_causal=4&num_scrambled_schematic=4&participantId=45E3DC1ABFB543F7B8FE97B44BAEC48A&assignmentId=fcfd1132-b210-4f32-a17d-5ae2bd11a444&projectId=a6b6d205-fa41-4c5b-a7a5-7fc4b51b0cea","45E3DC1ABFB543F7B8FE97B44BAEC48A-2025-05-27-18-44-59","","1570","","images/instructions/movie_3.png","0","",""
"","","","","","image-button-response","17","239651","0.0-6.0-1.0-2.2","45E3DC1ABFB543F7B8FE97B44BAEC48A","45E3DC1ABFB543F7B8FE97B44BAEC48A","fcfd1132-b210-4f32-a17d-5ae2bd11a444","a6b6d205-fa41-4c5b-a7a5-7fc4b51b0cea","{""num_scrambled_semantic"":""8"",""num_scrambled_causal"":""4"",""num_scrambled_schematic"":""4"",""participantId"":""45E3DC1ABFB543F7B8FE97B44BAEC48A"",""assignmentId"":""fcfd1132-b210-4f32-a17d-5ae2bd11a444"",""projectId"":""a6b6d205-fa41-4c5b-a7a5-7fc4b51b0cea""}","https://test12345.live/?num_scrambled_semantic=8&num_scrambled_causal=4&num_scrambled_schematic=4&participantId=45E3DC1ABFB543F7B8FE97B44BAEC48A&assignmentId=fcfd1132-b210-4f32-a17d-5ae2bd11a444&projectId=a6b6d205-fa41-4c5b-a7a5-7fc4b51b0cea","45E3DC1ABFB543F7B8FE97B44BAEC48A-2025-05-27-18-44-59","","null","","[]","null","",""
"","","","","","image-button-response","18","244163","0.0-6.0-1.0-0.3","45E3DC1ABFB543F7B8FE97B44BAEC48A","45E3DC1ABFB543F7B8FE97B44BAEC48A","fcfd1132-b210-4f32-a17d-5ae2bd11a444","a6b6d205-fa41-4c5b-a7a5-7fc4b51b0cea","{""num_scrambled_semantic"":""8"",""num_scrambled_causal"":""4"",""num_scrambled_schematic"":""4"",""participantId"":""45E3DC1ABFB543F7B8FE97B44BAEC48A"",""assignmentId"":""fcfd1132-b210-4f32-a17d-5ae2bd11a444"",""projectId"":""a6b6d205-fa41-4c5b-a7a5-7fc4b51b0cea""}","https://test12345.live/?num_scrambled_semantic=8&num_scrambled_causal=4&num_scrambled_schematic=4&participantId=45E3DC1ABFB543F7B8FE97B44BAEC48A&assignmentId=fcfd1132-b210-4f32-a17d-5ae2bd11a444&projectId=a6b6d205-fa41-4c5b-a7a5-7fc4b51b0cea","45E3DC1ABFB543F7B8FE97B44BAEC48A-2025-05-27-18-44-59","","null","","images/instructions/movie_4.png","null","",""
"","","","","","image-button-response","19","245811","0.0-6.0-1.0-1.3","45E3DC1ABFB543F7B8FE97B44BAEC48A","45E3DC1ABFB543F7B8FE97B44BAEC48A","fcfd1132-b210-4f32-a17d-5ae2bd11a444","a6b6d205-fa41-4c5b-a7a5-7fc4b51b0cea","{""num_scrambled_semantic"":""8"",""num_scrambled_causal"":""4"",""num_scrambled_schematic"":""4"",""participantId"":""45E3DC1ABFB543F7B8FE97B44BAEC48A"",""assignmentId"":""fcfd1132-b210-4f32-a17d-5ae2bd11a444"",""projectId"":""a6b6d205-fa41-4c5b-a7a5-7fc4b51b0cea""}","https://test12345.live/?num_scrambled_semantic=8&num_scrambled_causal=4&num_scrambled_schematic=4&participantId=45E3DC1ABFB543F7B8FE97B44BAEC48A&assignmentId=fcfd1132-b210-4f32-a17d-5ae2bd11a444&projectId=a6b6d205-fa41-4c5b-a7a5-7fc4b51b0cea","45E3DC1ABFB543F7B8FE97B44BAEC48A-2025-05-27-18-44-59","","1646","","images/instructions/movie_4.png","0","",""
"","","","","","image-button-response","20","247621","0.0-6.0-1.0-2.3","45E3DC1ABFB543F7B8FE97B44BAEC48A","45E3DC1ABFB543F7B8FE97B44BAEC48A","fcfd1132-b210-4f32-a17d-5ae2bd11a444","a6b6d205-fa41-4c5b-a7a5-7fc4b51b0cea","{""num_scrambled_semantic"":""8"",""num_scrambled_causal"":""4"",""num_scrambled_schematic"":""4"",""participantId"":""45E3DC1ABFB543F7B8FE97B44BAEC48A"",""assignmentId"":""fcfd1132-b210-4f32-a17d-5ae2bd11a444"",""projectId"":""a6b6d205-fa41-4c5b-a7a5-7fc4b51b0cea""}","https://test12345.live/?num_scrambled_semantic=8&num_scrambled_causal=4&num_scrambled_schematic=4&participantId=45E3DC1ABFB543F7B8FE97B44BAEC48A&assignmentId=fcfd1132-b210-4f32-a17d-5ae2bd11a444&projectId=a6b6d205-fa41-4c5b-a7a5-7fc4b51b0cea","45E3DC1ABFB543F7B8FE97B44BAEC48A-2025-05-27-18-44-59","","null","","[]","null","",""
"","","","","","instructions","21","268885","0.0-7.0","45E3DC1ABFB543F7B8FE97B44BAEC48A","45E3DC1ABFB543F7B8FE97B44BAEC48A","fcfd1132-b210-4f32-a17d-5ae2bd11a444","a6b6d205-fa41-4c5b-a7a5-7fc4b51b0cea","{""num_scrambled_semantic"":""8"",""num_scrambled_causal"":""4"",""num_scrambled_schematic"":""4"",""participantId"":""45E3DC1ABFB543F7B8FE97B44BAEC48A"",""assignmentId"":""fcfd1132-b210-4f32-a17d-5ae2bd11a444"",""projectId"":""a6b6d205-fa41-4c5b-a7a5-7fc4b51b0cea""}","https://test12345.live/?num_scrambled_semantic=8&num_scrambled_causal=4&num_scrambled_schematic=4&participantId=45E3DC1ABFB543F7B8FE97B44BAEC48A&assignmentId=fcfd1132-b210-4f32-a17d-5ae2bd11a444&projectId=a6b6d205-fa41-4c5b-a7a5-7fc4b51b0cea","45E3DC1ABFB543F7B8FE97B44BAEC48A-2025-05-27-18-44-59","[{""page_index"":0,""viewing_time"":17932},{""page_index"":1,""viewing_time"":3331}]","21263","","","","",""
"","","","","","html-audio-response","22","399013","0.0-8.0","45E3DC1ABFB543F7B8FE97B44BAEC48A","45E3DC1ABFB543F7B8FE97B44BAEC48A","fcfd1132-b210-4f32-a17d-5ae2bd11a444","a6b6d205-fa41-4c5b-a7a5-7fc4b51b0cea","{""num_scrambled_semantic"":""8"",""num_scrambled_causal"":""4"",""num_scrambled_schematic"":""4"",""participantId"":""45E3DC1ABFB543F7B8FE97B44BAEC48A"",""assignmentId"":""fcfd1132-b210-4f32-a17d-5ae2bd11a444"",""projectId"":""a6b6d205-fa41-4c5b-a7a5-7fc4b51b0cea""}","https://test12345.live/?num_scrambled_semantic=8&num_scrambled_causal=4&num_scrambled_schematic=4&participantId=45E3DC1ABFB543F7B8FE97B44BAEC48A&assignmentId=fcfd1132-b210-4f32-a17d-5ae2bd11a444&projectId=a6b6d205-fa41-4c5b-a7a5-7fc4b51b0cea","45E3DC1ABFB543F7B8FE97B44BAEC48A-2025-05-27-18-44-59","","5374","","[""<span style=\""color: red; font-size: 24px\""> NOW RECORDING</span><p>Please say out loud all the images you saw in the exact order you saw them. Try to recall as many images as you can, but remember: getting the order right is more important than the number of images you recall.</p>""]","","4",""
"","","","","","instructions","23","401908","0.0-9.0","45E3DC1ABFB543F7B8FE97B44BAEC48A","45E3DC1ABFB543F7B8FE97B44BAEC48A","fcfd1132-b210-4f32-a17d-5ae2bd11a444","a6b6d205-fa41-4c5b-a7a5-7fc4b51b0cea","{""num_scrambled_semantic"":""8"",""num_scrambled_causal"":""4"",""num_scrambled_schematic"":""4"",""participantId"":""45E3DC1ABFB543F7B8FE97B44BAEC48A"",""assignmentId"":""fcfd1132-b210-4f32-a17d-5ae2bd11a444"",""projectId"":""a6b6d205-fa41-4c5b-a7a5-7fc4b51b0cea""}","https://test12345.live/?num_scrambled_semantic=8&num_scrambled_causal=4&num_scrambled_schematic=4&participantId=45E3DC1ABFB543F7B8FE97B44BAEC48A&assignmentId=fcfd1132-b210-4f32-a17d-5ae2bd11a444&projectId=a6b6d205-fa41-4c5b-a7a5-7fc4b51b0cea","45E3DC1ABFB543F7B8FE97B44BAEC48A-2025-05-27-18-44-59","[{""page_index"":0,""viewing_time"":2886}]","2886","","","","",""
"","","","","","image-button-response","24","407918","0.0-10.0-0.0","45E3DC1ABFB543F7B8FE97B44BAEC48A","45E3DC1ABFB543F7B8FE97B44BAEC48A","fcfd1132-b210-4f32-a17d-5ae2bd11a444","a6b6d205-fa41-4c5b-a7a5-7fc4b51b0cea","{""num_scrambled_semantic"":""8"",""num_scrambled_causal"":""4"",""num_scrambled_schematic"":""4"",""participantId"":""45E3DC1ABFB543F7B8FE97B44BAEC48A"",""assignmentId"":""fcfd1132-b210-4f32-a17d-5ae2bd11a444"",""projectId"":""a6b6d205-fa41-4c5b-a7a5-7fc4b51b0cea""}","https://test12345.live/?num_scrambled_semantic=8&num_scrambled_causal=4&num_scrambled_schematic=4&participantId=45E3DC1ABFB543F7B8FE97B44BAEC48A&assignmentId=fcfd1132-b210-4f32-a17d-5ae2bd11a444&projectId=a6b6d205-fa41-4c5b-a7a5-7fc4b51b0cea","45E3DC1ABFB543F7B8FE97B44BAEC48A-2025-05-27-18-44-59","","null","","images/causal_sequence/package_causal/package_causal_0.png","null","",""
"","","","","","image-button-response","25","412426","0.0-10.0-1.0-0.0","45E3DC1ABFB543F7B8FE97B44BAEC48A","45E3DC1ABFB543F7B8FE97B44BAEC48A","fcfd1132-b210-4f32-a17d-5ae2bd11a444","a6b6d205-fa41-4c5b-a7a5-7fc4b51b0cea","{""num_scrambled_semantic"":""8"",""num_scrambled_causal"":""4"",""num_scrambled_schematic"":""4"",""participantId"":""45E3DC1ABFB543F7B8FE97B44BAEC48A"",""assignmentId"":""fcfd1132-b210-4f32-a17d-5ae2bd11a444"",""projectId"":""a6b6d205-fa41-4c5b-a7a5-7fc4b51b0cea""}","https://test12345.live/?num_scrambled_semantic=8&num_scrambled_causal=4&num_scrambled_schematic=4&participantId=45E3DC1ABFB543F7B8FE97B44BAEC48A&assignmentId=fcfd1132-b210-4f32-a17d-5ae2bd11a444&projectId=a6b6d205-fa41-4c5b-a7a5-7fc4b51b0cea","45E3DC1ABFB543F7B8FE97B44BAEC48A-2025-05-27-18-44-59","","null","","images/causal_sequence/package_causal/package_causal_1.png","null","",""
"","","","","","image-button-response","26","413873","0.0-10.0-1.0-1.0","45E3DC1ABFB543F7B8FE97B44BAEC48A","45E3DC1ABFB543F7B8FE97B44BAEC48A","fcfd1132-b210-4f32-a17d-5ae2bd11a444","a6b6d205-fa41-4c5b-a7a5-7fc4b51b0cea","{""num_scrambled_semantic"":""8"",""num_scrambled_causal"":""4"",""num_scrambled_schematic"":""4"",""participantId"":""45E3DC1ABFB543F7B8FE97B44BAEC48A"",""assignmentId"":""fcfd1132-b210-4f32-a17d-5ae2bd11a444"",""projectId"":""a6b6d205-fa41-4c5b-a7a5-7fc4b51b0cea""}","https://test12345.live/?num_scrambled_semantic=8&num_scrambled_causal=4&num_scrambled_schematic=4&participantId=45E3DC1ABFB543F7B8FE97B44BAEC48A&assignmentId=fcfd1132-b210-4f32-a17d-5ae2bd11a444&projectId=a6b6d205-fa41-4c5b-a7a5-7fc4b51b0cea","45E3DC1ABFB543F7B8FE97B44BAEC48A-2025-05-27-18-44-59","","1445","","images/causal_sequence/package_causal/package_causal_1.png","0","",""
"","","","","","image-button-response","27","415682","0.0-10.0-1.0-2.0","45E3DC1ABFB543F7B8FE97B44BAEC48A","45E3DC1ABFB543F7B8FE97B44BAEC48A","fcfd1132-b210-4f32-a17d-5ae2bd11a444","a6b6d205-fa41-4c5b-a7a5-7fc4b51b0cea","{""num_scrambled_semantic"":""8"",""num_scrambled_causal"":""4"",""num_scrambled_schematic"":""4"",""participantId"":""45E3DC1ABFB543F7B8FE97B44BAEC48A"",""assignmentId"":""fcfd1132-b210-4f32-a17d-5ae2bd11a444"",""projectId"":""a6b6d205-fa41-4c5b-a7a5-7fc4b51b0cea""}","https://test12345.live/?num_scrambled_semantic=8&num_scrambled_causal=4&num_scrambled_schematic=4&participantId=45E3DC1ABFB543F7B8FE97B44BAEC48A&assignmentId=fcfd1132-b210-4f32-a17d-5ae2bd11a444&projectId=a6b6d205-fa41-4c5b-a7a5-7fc4b51b0cea","45E3DC1ABFB543F7B8FE97B44BAEC48A-2025-05-27-18-44-59","","null","","[]","null","",""
"","","","","","image-button-response","28","420186","0.0-10.0-1.0-0.1","45E3DC1ABFB543F7B8FE97B44BAEC48A","45E3DC1ABFB543F7B8FE97B44BAEC48A","fcfd1132-b210-4f32-a17d-5ae2bd11a444","a6b6d205-fa41-4c5b-a7a5-7fc4b51b0cea","{""num_scrambled_semantic"":""8"",""num_scrambled_causal"":""4"",""num_scrambled_schematic"":""4"",""participantId"":""45E3DC1ABFB543F7B8FE97B44BAEC48A"",""assignmentId"":""fcfd1132-b210-4f32-a17d-5ae2bd11a444"",""projectId"":""a6b6d205-fa41-4c5b-a7a5-7fc4b51b0cea""}","https://test12345.live/?num_scrambled_semantic=8&num_scrambled_causal=4&num_scrambled_schematic=4&participantId=45E3DC1ABFB543F7B8FE97B44BAEC48A&assignmentId=fcfd1132-b210-4f32-a17d-5ae2bd11a444&projectId=a6b6d205-fa41-4c5b-a7a5-7fc4b51b0cea","45E3DC1ABFB543F7B8FE97B44BAEC48A-2025-05-27-18-44-59","","null","","images/causal_sequence/package_causal/package_causal_5.png","null","",""
"","","","","","image-button-response","29","421370","0.0-10.0-1.0-1.1","45E3DC1ABFB543F7B8FE97B44BAEC48A","45E3DC1ABFB543F7B8FE97B44BAEC48A","fcfd1132-b210-4f32-a17d-5ae2bd11a444","a6b6d205-fa41-4c5b-a7a5-7fc4b51b0cea","{""num_scrambled_semantic"":""8"",""num_scrambled_causal"":""4"",""num_scrambled_schematic"":""4"",""participantId"":""45E3DC1ABFB543F7B8FE97B44BAEC48A"",""assignmentId"":""fcfd1132-b210-4f32-a17d-5ae2bd11a444"",""projectId"":""a6b6d205-fa41-4c5b-a7a5-7fc4b51b0cea""}","https://test12345.live/?num_scrambled_semantic=8&num_scrambled_causal=4&num_scrambled_schematic=4&participantId=45E3DC1ABFB543F7B8FE97B44BAEC48A&assignmentId=fcfd1132-b210-4f32-a17d-5ae2bd11a444&projectId=a6b6d205-fa41-4c5b-a7a5-7fc4b51b0cea","45E3DC1ABFB543F7B8FE97B44BAEC48A-2025-05-27-18-44-59","","1183","","images/causal_sequence/package_causal/package_causal_5.png","0","",""
"","","","","","image-button-response","30","423180","0.0-10.0-1.0-2.1","45E3DC1ABFB543F7B8FE97B44BAEC48A","45E3DC1ABFB543F7B8FE97B44BAEC48A","fcfd1132-b210-4f32-a17d-5ae2bd11a444","a6b6d205-fa41-4c5b-a7a5-7fc4b51b0cea","{""num_scrambled_semantic"":""8"",""num_scrambled_causal"":""4"",""num_scrambled_schematic"":""4"",""participantId"":""45E3DC1ABFB543F7B8FE97B44BAEC48A"",""assignmentId"":""fcfd1132-b210-4f32-a17d-5ae2bd11a444"",""projectId"":""a6b6d205-fa41-4c5b-a7a5-7fc4b51b0cea""}","https://test12345.live/?num_scrambled_semantic=8&num_scrambled_causal=4&num_scrambled_schematic=4&participantId=45E3DC1ABFB543F7B8FE97B44BAEC48A&assignmentId=fcfd1132-b210-4f32-a17d-5ae2bd11a444&projectId=a6b6d205-fa41-4c5b-a7a5-7fc4b51b0cea","45E3DC1ABFB543F7B8FE97B44BAEC48A-2025-05-27-18-44-59","","null","","[]","null","",""
"","","","","","image-button-response","31","427687","0.0-10.0-1.0-0.2","45E3DC1ABFB543F7B8FE97B44BAEC48A","45E3DC1ABFB543F7B8FE97B44BAEC48A","fcfd1132-b210-4f32-a17d-5ae2bd11a444","a6b6d205-fa41-4c5b-a7a5-7fc4b51b0cea","{""num_scrambled_semantic"":""8"",""num_scrambled_causal"":""4"",""num_scrambled_schematic"":""4"",""participantId"":""45E3DC1ABFB543F7B8FE97B44BAEC48A"",""assignmentId"":""fcfd1132-b210-4f32-a17d-5ae2bd11a444"",""projectId"":""a6b6d205-fa41-4c5b-a7a5-7fc4b51b0cea""}","https://test12345.live/?num_scrambled_semantic=8&num_scrambled_causal=4&num_scrambled_schematic=4&participantId=45E3DC1ABFB543F7B8FE97B44BAEC48A&assignmentId=fcfd1132-b210-4f32-a17d-5ae2bd11a444&projectId=a6b6d205-fa41-4c5b-a7a5-7fc4b51b0cea","45E3DC1ABFB543F7B8FE97B44BAEC48A-2025-05-27-18-44-59","","null","","images/causal_sequence/package_causal/package_causal_7.png","null","",""
"","","","","","image-button-response","32","428821","0.0-10.0-1.0-1.2","45E3DC1ABFB543F7B8FE97B44BAEC48A","45E3DC1ABFB543F7B8FE97B44BAEC48A","fcfd1132-b210-4f32-a17d-5ae2bd11a444","a6b6d205-fa41-4c5b-a7a5-7fc4b51b0cea","{""num_scrambled_semantic"":""8"",""num_scrambled_causal"":""4"",""num_scrambled_schematic"":""4"",""participantId"":""45E3DC1ABFB543F7B8FE97B44BAEC48A"",""assignmentId"":""fcfd1132-b210-4f32-a17d-5ae2bd11a444"",""projectId"":""a6b6d205-fa41-4c5b-a7a5-7fc4b51b0cea""}","https://test12345.live/?num_scrambled_semantic=8&num_scrambled_causal=4&num_scrambled_schematic=4&participantId=45E3DC1ABFB543F7B8FE97B44BAEC48A&assignmentId=fcfd1132-b210-4f32-a17d-5ae2bd11a444&projectId=a6b6d205-fa41-4c5b-a7a5-7fc4b51b0cea","45E3DC1ABFB543F7B8FE97B44BAEC48A-2025-05-27-18-44-59","","1132","","images/causal_sequence/package_causal/package_causal_7.png","0","",""
"","","","","","image-button-response","33","430631","0.0-10.0-1.0-2.2","45E3DC1ABFB543F7B8FE97B44BAEC48A","45E3DC1ABFB543F7B8FE97B44BAEC48A","fcfd1132-b210-4f32-a17d-5ae2bd11a444","a6b6d205-fa41-4c5b-a7a5-7fc4b51b0cea","{""num_scrambled_semantic"":""8"",""num_scrambled_causal"":""4"",""num_scrambled_schematic"":""4"",""participantId"":""45E3DC1ABFB543F7B8FE97B44BAEC48A"",""assignmentId"":""fcfd1132-b210-4f32-a17d-5ae2bd11a444"",""projectId"":""a6b6d205-fa41-4c5b-a7a5-7fc4b51b0cea""}","https://test12345.live/?num_scrambled_semantic=8&num_scrambled_causal=4&num_scrambled_schematic=4&participantId=45E3DC1ABFB543F7B8FE97B44BAEC48A&assignmentId=fcfd1132-b210-4f32-a17d-5ae2bd11a444&projectId=a6b6d205-fa41-4c5b-a7a5-7fc4b51b0cea","45E3DC1ABFB543F7B8FE97B44BAEC48A-2025-05-27-18-44-59","","null","","[]","null","",""
"","","","","","image-button-response","34","435133","0.0-10.0-1.0-0.3","45E3DC1ABFB543F7B8FE97B44BAEC48A","45E3DC1ABFB543F7B8FE97B44BAEC48A","fcfd1132-b210-4f32-a17d-5ae2bd11a444","a6b6d205-fa41-4c5b-a7a5-7fc4b51b0cea","{""num_scrambled_semantic"":""8"",""num_scrambled_causal"":""4"",""num_scrambled_schematic"":""4"",""participantId"":""45E3DC1ABFB543F7B8FE97B44BAEC48A"",""assignmentId"":""fcfd1132-b210-4f32-a17d-5ae2bd11a444"",""projectId"":""a6b6d205-fa41-4c5b-a7a5-7fc4b51b0cea""}","https://test12345.live/?num_scrambled_semantic=8&num_scrambled_causal=4&num_scrambled_schematic=4&participantId=45E3DC1ABFB543F7B8FE97B44BAEC48A&assignmentId=fcfd1132-b210-4f32-a17d-5ae2bd11a444&projectId=a6b6d205-fa41-4c5b-a7a5-7fc4b51b0cea","45E3DC1ABFB543F7B8FE97B44BAEC48A-2025-05-27-18-44-59","","null","","images/causal_sequence/package_causal/package_causal_8.png","null","",""
"","","","","","image-button-response","35","436355","0.0-10.0-1.0-1.3","45E3DC1ABFB543F7B8FE97B44BAEC48A","45E3DC1ABFB543F7B8FE97B44BAEC48A","fcfd1132-b210-4f32-a17d-5ae2bd11a444","a6b6d205-fa41-4c5b-a7a5-7fc4b51b0cea","{""num_scrambled_semantic"":""8"",""num_scrambled_causal"":""4"",""num_scrambled_schematic"":""4"",""participantId"":""45E3DC1ABFB543F7B8FE97B44BAEC48A"",""assignmentId"":""fcfd1132-b210-4f32-a17d-5ae2bd11a444"",""projectId"":""a6b6d205-fa41-4c5b-a7a5-7fc4b51b0cea""}","https://test12345.live/?num_scrambled_semantic=8&num_scrambled_causal=4&num_scrambled_schematic=4&participantId=45E3DC1ABFB543F7B8FE97B44BAEC48A&assignmentId=fcfd1132-b210-4f32-a17d-5ae2bd11a444&projectId=a6b6d205-fa41-4c5b-a7a5-7fc4b51b0cea","45E3DC1ABFB543F7B8FE97B44BAEC48A-2025-05-27-18-44-59","","1220","","images/causal_sequence/package_causal/package_causal_8.png","0","",""
"","","","","","image-button-response","36","438166","0.0-10.0-1.0-2.3","45E3DC1ABFB543F7B8FE97B44BAEC48A","45E3DC1ABFB543F7B8FE97B44BAEC48A","fcfd1132-b210-4f32-a17d-5ae2bd11a444","a6b6d205-fa41-4c5b-a7a5-7fc4b51b0cea","{""num_scrambled_semantic"":""8"",""num_scrambled_causal"":""4"",""num_scrambled_schematic"":""4"",""participantId"":""45E3DC1ABFB543F7B8FE97B44BAEC48A"",""assignmentId"":""fcfd1132-b210-4f32-a17d-5ae2bd11a444"",""projectId"":""a6b6d205-fa41-4c5b-a7a5-7fc4b51b0cea""}","https://test12345.live/?num_scrambled_semantic=8&num_scrambled_causal=4&num_scrambled_schematic=4&participantId=45E3DC1ABFB543F7B8FE97B44BAEC48A&assignmentId=fcfd1132-b210-4f32-a17d-5ae2bd11a444&projectId=a6b6d205-fa41-4c5b-a7a5-7fc4b51b0cea","45E3DC1ABFB543F7B8FE97B44BAEC48A-2025-05-27-18-44-59","","null","","[]","null","",""
"","","","","","image-button-response","37","442676","0.0-10.0-1.0-0.4","45E3DC1ABFB543F7B8FE97B44BAEC48A","45E3DC1ABFB543F7B8FE97B44BAEC48A","fcfd1132-b210-4f32-a17d-5ae2bd11a444","a6b6d205-fa41-4c5b-a7a5-7fc4b51b0cea","{""num_scrambled_semantic"":""8"",""num_scrambled_causal"":""4"",""num_scrambled_schematic"":""4"",""participantId"":""45E3DC1ABFB543F7B8FE97B44BAEC48A"",""assignmentId"":""fcfd1132-b210-4f32-a17d-5ae2bd11a444"",""projectId"":""a6b6d205-fa41-4c5b-a7a5-7fc4b51b0cea""}","https://test12345.live/?num_scrambled_semantic=8&num_scrambled_causal=4&num_scrambled_schematic=4&participantId=45E3DC1ABFB543F7B8FE97B44BAEC48A&assignmentId=fcfd1132-b210-4f32-a17d-5ae2bd11a444&projectId=a6b6d205-fa41-4c5b-a7a5-7fc4b51b0cea","45E3DC1ABFB543F7B8FE97B44BAEC48A-2025-05-27-18-44-59","","null","","images/causal_sequence/package_causal/package_causal_2.png","null","",""
"","","","","","image-button-response","38","444200","0.0-10.0-1.0-1.4","45E3DC1ABFB543F7B8FE97B44BAEC48A","45E3DC1ABFB543F7B8FE97B44BAEC48A","fcfd1132-b210-4f32-a17d-5ae2bd11a444","a6b6d205-fa41-4c5b-a7a5-7fc4b51b0cea","{""num_scrambled_semantic"":""8"",""num_scrambled_causal"":""4"",""num_scrambled_schematic"":""4"",""participantId"":""45E3DC1ABFB543F7B8FE97B44BAEC48A"",""assignmentId"":""fcfd1132-b210-4f32-a17d-5ae2bd11a444"",""projectId"":""a6b6d205-fa41-4c5b-a7a5-7fc4b51b0cea""}","https://test12345.live/?num_scrambled_semantic=8&num_scrambled_causal=4&num_scrambled_schematic=4&participantId=45E3DC1ABFB543F7B8FE97B44BAEC48A&assignmentId=fcfd1132-b210-4f32-a17d-5ae2bd11a444&projectId=a6b6d205-fa41-4c5b-a7a5-7fc4b51b0cea","45E3DC1ABFB543F7B8FE97B44BAEC48A-2025-05-27-18-44-59","","1523","","images/causal_sequence/package_causal/package_causal_2.png","0","",""
"","","","","","image-button-response","39","446012","0.0-10.0-1.0-2.4","45E3DC1ABFB543F7B8FE97B44BAEC48A","45E3DC1ABFB543F7B8FE97B44BAEC48A","fcfd1132-b210-4f32-a17d-5ae2bd11a444","a6b6d205-fa41-4c5b-a7a5-7fc4b51b0cea","{""num_scrambled_semantic"":""8"",""num_scrambled_causal"":""4"",""num_scrambled_schematic"":""4"",""participantId"":""45E3DC1ABFB543F7B8FE97B44BAEC48A"",""assignmentId"":""fcfd1132-b210-4f32-a17d-5ae2bd11a444"",""projectId"":""a6b6d205-fa41-4c5b-a7a5-7fc4b51b0cea""}","https://test12345.live/?num_scrambled_semantic=8&num_scrambled_causal=4&num_scrambled_schematic=4&participantId=45E3DC1ABFB543F7B8FE97B44BAEC48A&assignmentId=fcfd1132-b210-4f32-a17d-5ae2bd11a444&projectId=a6b6d205-fa41-4c5b-a7a5-7fc4b51b0cea","45E3DC1ABFB543F7B8FE97B44BAEC48A-2025-05-27-18-44-59","","null","","[]","null","",""
"","","","","","image-button-response","40","450517","0.0-10.0-1.0-0.5","45E3DC1ABFB543F7B8FE97B44BAEC48A","45E3DC1ABFB543F7B8FE97B44BAEC48A","fcfd1132-b210-4f32-a17d-5ae2bd11a444","a6b6d205-fa41-4c5b-a7a5-7fc4b51b0cea","{""num_scrambled_semantic"":""8"",""num_scrambled_causal"":""4"",""num_scrambled_schematic"":""4"",""participantId"":""45E3DC1ABFB543F7B8FE97B44BAEC48A"",""assignmentId"":""fcfd1132-b210-4f32-a17d-5ae2bd11a444"",""projectId"":""a6b6d205-fa41-4c5b-a7a5-7fc4b51b0cea""}","https://test12345.live/?num_scrambled_semantic=8&num_scrambled_causal=4&num_scrambled_schematic=4&participantId=45E3DC1ABFB543F7B8FE97B44BAEC48A&assignmentId=fcfd1132-b210-4f32-a17d-5ae2bd11a444&projectId=a6b6d205-fa41-4c5b-a7a5-7fc4b51b0cea","45E3DC1ABFB543F7B8FE97B44BAEC48A-2025-05-27-18-44-59","","null","","images/causal_sequence/package_causal/package_causal_9.png","null","",""
"","","","","","image-button-response","41","451764","0.0-10.0-1.0-1.5","45E3DC1ABFB543F7B8FE97B44BAEC48A","45E3DC1ABFB543F7B8FE97B44BAEC48A","fcfd1132-b210-4f32-a17d-5ae2bd11a444","a6b6d205-fa41-4c5b-a7a5-7fc4b51b0cea","{""num_scrambled_semantic"":""8"",""num_scrambled_causal"":""4"",""num_scrambled_schematic"":""4"",""participantId"":""45E3DC1ABFB543F7B8FE97B44BAEC48A"",""assignmentId"":""fcfd1132-b210-4f32-a17d-5ae2bd11a444"",""projectId"":""a6b6d205-fa41-4c5b-a7a5-7fc4b51b0cea""}","https://test12345.live/?num_scrambled_semantic=8&num_scrambled_causal=4&num_scrambled_schematic=4&participantId=45E3DC1ABFB543F7B8FE97B44BAEC48A&assignmentId=fcfd1132-b210-4f32-a17d-5ae2bd11a444&projectId=a6b6d205-fa41-4c5b-a7a5-7fc4b51b0cea","45E3DC1ABFB543F7B8FE97B44BAEC48A-2025-05-27-18-44-59","","1246","","images/causal_sequence/package_causal/package_causal_9.png","0","",""
"","","","","","image-button-response","42","453571","0.0-10.0-1.0-2.5","45E3DC1ABFB543F7B8FE97B44BAEC48A","45E3DC1ABFB543F7B8FE97B44BAEC48A","fcfd1132-b210-4f32-a17d-5ae2bd11a444","a6b6d205-fa41-4c5b-a7a5-7fc4b51b0cea","{""num_scrambled_semantic"":""8"",""num_scrambled_causal"":""4"",""num_scrambled_schematic"":""4"",""participantId"":""45E3DC1ABFB543F7B8FE97B44BAEC48A"",""assignmentId"":""fcfd1132-b210-4f32-a17d-5ae2bd11a444"",""projectId"":""a6b6d205-fa41-4c5b-a7a5-7fc4b51b0cea""}","https://test12345.live/?num_scrambled_semantic=8&num_scrambled_causal=4&num_scrambled_schematic=4&participantId=45E3DC1ABFB543F7B8FE97B44BAEC48A&assignmentId=fcfd1132-b210-4f32-a17d-5ae2bd11a444&projectId=a6b6d205-fa41-4c5b-a7a5-7fc4b51b0cea","45E3DC1ABFB543F7B8FE97B44BAEC48A-2025-05-27-18-44-59","","null","","[]","null","",""
"","","","","","image-button-response","43","458075","0.0-10.0-1.0-0.6","45E3DC1ABFB543F7B8FE97B44BAEC48A","45E3DC1ABFB543F7B8FE97B44BAEC48A","fcfd1132-b210-4f32-a17d-5ae2bd11a444","a6b6d205-fa41-4c5b-a7a5-7fc4b51b0cea","{""num_scrambled_semantic"":""8"",""num_scrambled_causal"":""4"",""num_scrambled_schematic"":""4"",""participantId"":""45E3DC1ABFB543F7B8FE97B44BAEC48A"",""assignmentId"":""fcfd1132-b210-4f32-a17d-5ae2bd11a444"",""projectId"":""a6b6d205-fa41-4c5b-a7a5-7fc4b51b0cea""}","https://test12345.live/?num_scrambled_semantic=8&num_scrambled_causal=4&num_scrambled_schematic=4&participantId=45E3DC1ABFB543F7B8FE97B44BAEC48A&assignmentId=fcfd1132-b210-4f32-a17d-5ae2bd11a444&projectId=a6b6d205-fa41-4c5b-a7a5-7fc4b51b0cea","45E3DC1ABFB543F7B8FE97B44BAEC48A-2025-05-27-18-44-59","","null","","images/causal_sequence/package_causal/package_causal_6.png","null","",""
"","","","","","image-button-response","44","459334","0.0-10.0-1.0-1.6","45E3DC1ABFB543F7B8FE97B44BAEC48A","45E3DC1ABFB543F7B8FE97B44BAEC48A","fcfd1132-b210-4f32-a17d-5ae2bd11a444","a6b6d205-fa41-4c5b-a7a5-7fc4b51b0cea","{""num_scrambled_semantic"":""8"",""num_scrambled_causal"":""4"",""num_scrambled_schematic"":""4"",""participantId"":""45E3DC1ABFB543F7B8FE97B44BAEC48A"",""assignmentId"":""fcfd1132-b210-4f32-a17d-5ae2bd11a444"",""projectId"":""a6b6d205-fa41-4c5b-a7a5-7fc4b51b0cea""}","https://test12345.live/?num_scrambled_semantic=8&num_scrambled_causal=4&num_scrambled_schematic=4&participantId=45E3DC1ABFB543F7B8FE97B44BAEC48A&assignmentId=fcfd1132-b210-4f32-a17d-5ae2bd11a444&projectId=a6b6d205-fa41-4c5b-a7a5-7fc4b51b0cea","45E3DC1ABFB543F7B8FE97B44BAEC48A-2025-05-27-18-44-59","","1258","","images/causal_sequence/package_causal/package_causal_6.png","0","",""
"","","","","","image-button-response","45","461137","0.0-10.0-1.0-2.6","45E3DC1ABFB543F7B8FE97B44BAEC48A","45E3DC1ABFB543F7B8FE97B44BAEC48A","fcfd1132-b210-4f32-a17d-5ae2bd11a444","a6b6d205-fa41-4c5b-a7a5-7fc4b51b0cea","{""num_scrambled_semantic"":""8"",""num_scrambled_causal"":""4"",""num_scrambled_schematic"":""4"",""participantId"":""45E3DC1ABFB543F7B8FE97B44BAEC48A"",""assignmentId"":""fcfd1132-b210-4f32-a17d-5ae2bd11a444"",""projectId"":""a6b6d205-fa41-4c5b-a7a5-7fc4b51b0cea""}","https://test12345.live/?num_scrambled_semantic=8&num_scrambled_causal=4&num_scrambled_schematic=4&participantId=45E3DC1ABFB543F7B8FE97B44BAEC48A&assignmentId=fcfd1132-b210-4f32-a17d-5ae2bd11a444&projectId=a6b6d205-fa41-4c5b-a7a5-7fc4b51b0cea","45E3DC1ABFB543F7B8FE97B44BAEC48A-2025-05-27-18-44-59","","null","","[]","null","",""
"","","","","","image-button-response","46","465639","0.0-10.0-1.0-0.7","45E3DC1ABFB543F7B8FE97B44BAEC48A","45E3DC1ABFB543F7B8FE97B44BAEC48A","fcfd1132-b210-4f32-a17d-5ae2bd11a444","a6b6d205-fa41-4c5b-a7a5-7fc4b51b0cea","{""num_scrambled_semantic"":""8"",""num_scrambled_causal"":""4"",""num_scrambled_schematic"":""4"",""participantId"":""45E3DC1ABFB543F7B8FE97B44BAEC48A"",""assignmentId"":""fcfd1132-b210-4f32-a17d-5ae2bd11a444"",""projectId"":""a6b6d205-fa41-4c5b-a7a5-7fc4b51b0cea""}","https://test12345.live/?num_scrambled_semantic=8&num_scrambled_causal=4&num_scrambled_schematic=4&participantId=45E3DC1ABFB543F7B8FE97B44BAEC48A&assignmentId=fcfd1132-b210-4f32-a17d-5ae2bd11a444&projectId=a6b6d205-fa41-4c5b-a7a5-7fc4b51b0cea","45E3DC1ABFB543F7B8FE97B44BAEC48A-2025-05-27-18-44-59","","null","","images/causal_sequence/package_causal/package_causal_3.png","null","",""
"","","","","","image-button-response","47","466905","0.0-10.0-1.0-1.7","45E3DC1ABFB543F7B8FE97B44BAEC48A","45E3DC1ABFB543F7B8FE97B44BAEC48A","fcfd1132-b210-4f32-a17d-5ae2bd11a444","a6b6d205-fa41-4c5b-a7a5-7fc4b51b0cea","{""num_scrambled_semantic"":""8"",""num_scrambled_causal"":""4"",""num_scrambled_schematic"":""4"",""participantId"":""45E3DC1ABFB543F7B8FE97B44BAEC48A"",""assignmentId"":""fcfd1132-b210-4f32-a17d-5ae2bd11a444"",""projectId"":""a6b6d205-fa41-4c5b-a7a5-7fc4b51b0cea""}","https://test12345.live/?num_scrambled_semantic=8&num_scrambled_causal=4&num_scrambled_schematic=4&participantId=45E3DC1ABFB543F7B8FE97B44BAEC48A&assignmentId=fcfd1132-b210-4f32-a17d-5ae2bd11a444&projectId=a6b6d205-fa41-4c5b-a7a5-7fc4b51b0cea","45E3DC1ABFB543F7B8FE97B44BAEC48A-2025-05-27-18-44-59","","1264","","images/causal_sequence/package_causal/package_causal_3.png","0","",""
"","","","","","image-button-response","48","468720","0.0-10.0-1.0-2.7","45E3DC1ABFB543F7B8FE97B44BAEC48A","45E3DC1ABFB543F7B8FE97B44BAEC48A","fcfd1132-b210-4f32-a17d-5ae2bd11a444","a6b6d205-fa41-4c5b-a7a5-7fc4b51b0cea","{""num_scrambled_semantic"":""8"",""num_scrambled_causal"":""4"",""num_scrambled_schematic"":""4"",""participantId"":""45E3DC1ABFB543F7B8FE97B44BAEC48A"",""assignmentId"":""fcfd1132-b210-4f32-a17d-5ae2bd11a444"",""projectId"":""a6b6d205-fa41-4c5b-a7a5-7fc4b51b0cea""}","https://test12345.live/?num_scrambled_semantic=8&num_scrambled_causal=4&num_scrambled_schematic=4&participantId=45E3DC1ABFB543F7B8FE97B44BAEC48A&assignmentId=fcfd1132-b210-4f32-a17d-5ae2bd11a444&projectId=a6b6d205-fa41-4c5b-a7a5-7fc4b51b0cea","45E3DC1ABFB543F7B8FE97B44BAEC48A-2025-05-27-18-44-59","","null","","[]","null","",""
"","","","","","image-button-response","49","473223","0.0-10.0-1.0-0.8","45E3DC1ABFB543F7B8FE97B44BAEC48A","45E3DC1ABFB543F7B8FE97B44BAEC48A","fcfd1132-b210-4f32-a17d-5ae2bd11a444","a6b6d205-fa41-4c5b-a7a5-7fc4b51b0cea","{""num_scrambled_semantic"":""8"",""num_scrambled_causal"":""4"",""num_scrambled_schematic"":""4"",""participantId"":""45E3DC1ABFB543F7B8FE97B44BAEC48A"",""assignmentId"":""fcfd1132-b210-4f32-a17d-5ae2bd11a444"",""projectId"":""a6b6d205-fa41-4c5b-a7a5-7fc4b51b0cea""}","https://test12345.live/?num_scrambled_semantic=8&num_scrambled_causal=4&num_scrambled_schematic=4&participantId=45E3DC1ABFB543F7B8FE97B44BAEC48A&assignmentId=fcfd1132-b210-4f32-a17d-5ae2bd11a444&projectId=a6b6d205-fa41-4c5b-a7a5-7fc4b51b0cea","45E3DC1ABFB543F7B8FE97B44BAEC48A-2025-05-27-18-44-59","","null","","images/causal_sequence/package_causal/package_causal_4.png","null","",""
"","","","","","image-button-response","50","474268","0.0-10.0-1.0-1.8","45E3DC1ABFB543F7B8FE97B44BAEC48A","45E3DC1ABFB543F7B8FE97B44BAEC48A","fcfd1132-b210-4f32-a17d-5ae2bd11a444","a6b6d205-fa41-4c5b-a7a5-7fc4b51b0cea","{""num_scrambled_semantic"":""8"",""num_scrambled_causal"":""4"",""num_scrambled_schematic"":""4"",""participantId"":""45E3DC1ABFB543F7B8FE97B44BAEC48A"",""assignmentId"":""fcfd1132-b210-4f32-a17d-5ae2bd11a444"",""projectId"":""a6b6d205-fa41-4c5b-a7a5-7fc4b51b0cea""}","https://test12345.live/?num_scrambled_semantic=8&num_scrambled_causal=4&num_scrambled_schematic=4&participantId=45E3DC1ABFB543F7B8FE97B44BAEC48A&assignmentId=fcfd1132-b210-4f32-a17d-5ae2bd11a444&projectId=a6b6d205-fa41-4c5b-a7a5-7fc4b51b0cea","45E3DC1ABFB543F7B8FE97B44BAEC48A-2025-05-27-18-44-59","","1044","","images/causal_sequence/package_causal/package_causal_4.png","0","",""
"","","","","","image-button-response","51","476083","0.0-10.0-1.0-2.8","45E3DC1ABFB543F7B8FE97B44BAEC48A","45E3DC1ABFB543F7B8FE97B44BAEC48A","fcfd1132-b210-4f32-a17d-5ae2bd11a444","a6b6d205-fa41-4c5b-a7a5-7fc4b51b0cea","{""num_scrambled_semantic"":""8"",""num_scrambled_causal"":""4"",""num_scrambled_schematic"":""4"",""participantId"":""45E3DC1ABFB543F7B8FE97B44BAEC48A"",""assignmentId"":""fcfd1132-b210-4f32-a17d-5ae2bd11a444"",""projectId"":""a6b6d205-fa41-4c5b-a7a5-7fc4b51b0cea""}","https://test12345.live/?num_scrambled_semantic=8&num_scrambled_causal=4&num_scrambled_schematic=4&participantId=45E3DC1ABFB543F7B8FE97B44BAEC48A&assignmentId=fcfd1132-b210-4f32-a17d-5ae2bd11a444&projectId=a6b6d205-fa41-4c5b-a7a5-7fc4b51b0cea","45E3DC1ABFB543F7B8FE97B44BAEC48A-2025-05-27-18-44-59","","null","","[]","null","",""
"","","","","","image-button-response","52","480585","0.0-10.0-1.0-0.9","45E3DC1ABFB543F7B8FE97B44BAEC48A","45E3DC1ABFB543F7B8FE97B44BAEC48A","fcfd1132-b210-4f32-a17d-5ae2bd11a444","a6b6d205-fa41-4c5b-a7a5-7fc4b51b0cea","{""num_scrambled_semantic"":""8"",""num_scrambled_causal"":""4"",""num_scrambled_schematic"":""4"",""participantId"":""45E3DC1ABFB543F7B8FE97B44BAEC48A"",""assignmentId"":""fcfd1132-b210-4f32-a17d-5ae2bd11a444"",""projectId"":""a6b6d205-fa41-4c5b-a7a5-7fc4b51b0cea""}","https://test12345.live/?num_scrambled_semantic=8&num_scrambled_causal=4&num_scrambled_schematic=4&participantId=45E3DC1ABFB543F7B8FE97B44BAEC48A&assignmentId=fcfd1132-b210-4f32-a17d-5ae2bd11a444&projectId=a6b6d205-fa41-4c5b-a7a5-7fc4b51b0cea","45E3DC1ABFB543F7B8FE97B44BAEC48A-2025-05-27-18-44-59","","null","","images/causal_sequence/package_causal/package_causal_ten.png","null","",""
"","","","","","image-button-response","53","482149","0.0-10.0-1.0-1.9","45E3DC1ABFB543F7B8FE97B44BAEC48A","45E3DC1ABFB543F7B8FE97B44BAEC48A","fcfd1132-b210-4f32-a17d-5ae2bd11a444","a6b6d205-fa41-4c5b-a7a5-7fc4b51b0cea","{""num_scrambled_semantic"":""8"",""num_scrambled_causal"":""4"",""num_scrambled_schematic"":""4"",""participantId"":""45E3DC1ABFB543F7B8FE97B44BAEC48A"",""assignmentId"":""fcfd1132-b210-4f32-a17d-5ae2bd11a444"",""projectId"":""a6b6d205-fa41-4c5b-a7a5-7fc4b51b0cea""}","https://test12345.live/?num_scrambled_semantic=8&num_scrambled_causal=4&num_scrambled_schematic=4&participantId=45E3DC1ABFB543F7B8FE97B44BAEC48A&assignmentId=fcfd1132-b210-4f32-a17d-5ae2bd11a444&projectId=a6b6d205-fa41-4c5b-a7a5-7fc4b51b0cea","45E3DC1ABFB543F7B8FE97B44BAEC48A-2025-05-27-18-44-59","","1563","","images/causal_sequence/package_causal/package_causal_ten.png","0","",""
"","","","","","image-button-response","54","483951","0.0-10.0-1.0-2.9","45E3DC1ABFB543F7B8FE97B44BAEC48A","45E3DC1ABFB543F7B8FE97B44BAEC48A","fcfd1132-b210-4f32-a17d-5ae2bd11a444","a6b6d205-fa41-4c5b-a7a5-7fc4b51b0cea","{""num_scrambled_semantic"":""8"",""num_scrambled_causal"":""4"",""num_scrambled_schematic"":""4"",""participantId"":""45E3DC1ABFB543F7B8FE97B44BAEC48A"",""assignmentId"":""fcfd1132-b210-4f32-a17d-5ae2bd11a444"",""projectId"":""a6b6d205-fa41-4c5b-a7a5-7fc4b51b0cea""}","https://test12345.live/?num_scrambled_semantic=8&num_scrambled_causal=4&num_scrambled_schematic=4&participantId=45E3DC1ABFB543F7B8FE97B44BAEC48A&assignmentId=fcfd1132-b210-4f32-a17d-5ae2bd11a444&projectId=a6b6d205-fa41-4c5b-a7a5-7fc4b51b0cea","45E3DC1ABFB543F7B8FE97B44BAEC48A-2025-05-27-18-44-59","","null","","[]","null","",""
"","","","","","html-audio-response","55","574103","0.0-11.0","45E3DC1ABFB543F7B8FE97B44BAEC48A","45E3DC1ABFB543F7B8FE97B44BAEC48A","fcfd1132-b210-4f32-a17d-5ae2bd11a444","a6b6d205-fa41-4c5b-a7a5-7fc4b51b0cea","{""num_scrambled_semantic"":""8"",""num_scrambled_causal"":""4"",""num_scrambled_schematic"":""4"",""participantId"":""45E3DC1ABFB543F7B8FE97B44BAEC48A"",""assignmentId"":""fcfd1132-b210-4f32-a17d-5ae2bd11a444"",""projectId"":""a6b6d205-fa41-4c5b-a7a5-7fc4b51b0cea""}","https://test12345.live/?num_scrambled_semantic=8&num_scrambled_causal=4&num_scrambled_schematic=4&participantId=45E3DC1ABFB543F7B8FE97B44BAEC48A&assignmentId=fcfd1132-b210-4f32-a17d-5ae2bd11a444&projectId=a6b6d205-fa41-4c5b-a7a5-7fc4b51b0cea","45E3DC1ABFB543F7B8FE97B44BAEC48A-2025-05-27-18-44-59","","28279","","[""<span style=\""color: red; font-size: 24px\""> NOW RECORDING</span><p>Please say out loud all the images you saw, in the exact order you saw them. Try to recall as many images as you can, but remember: getting the order right is more important than the number of images you recall.</p>""]","","14","package_causal"
"","","","","","image-button-response","56","580117","0.0-12.0-0.0","45E3DC1ABFB543F7B8FE97B44BAEC48A","45E3DC1ABFB543F7B8FE97B44BAEC48A","fcfd1132-b210-4f32-a17d-5ae2bd11a444","a6b6d205-fa41-4c5b-a7a5-7fc4b51b0cea","{""num_scrambled_semantic"":""8"",""num_scrambled_causal"":""4"",""num_scrambled_schematic"":""4"",""participantId"":""45E3DC1ABFB543F7B8FE97B44BAEC48A"",""assignmentId"":""fcfd1132-b210-4f32-a17d-5ae2bd11a444"",""projectId"":""a6b6d205-fa41-4c5b-a7a5-7fc4b51b0cea""}","https://test12345.live/?num_scrambled_semantic=8&num_scrambled_causal=4&num_scrambled_schematic=4&participantId=45E3DC1ABFB543F7B8FE97B44BAEC48A&assignmentId=fcfd1132-b210-4f32-a17d-5ae2bd11a444&projectId=a6b6d205-fa41-4c5b-a7a5-7fc4b51b0cea","45E3DC1ABFB543F7B8FE97B44BAEC48A-2025-05-27-18-44-59","","null","","images/semantic_sequence/exploring_nature_semantic/exploring_nature_semantic_0.png","null","",""
"","","","","","image-button-response","57","584619","0.0-12.0-1.0-0.0","45E3DC1ABFB543F7B8FE97B44BAEC48A","45E3DC1ABFB543F7B8FE97B44BAEC48A","fcfd1132-b210-4f32-a17d-5ae2bd11a444","a6b6d205-fa41-4c5b-a7a5-7fc4b51b0cea","{""num_scrambled_semantic"":""8"",""num_scrambled_causal"":""4"",""num_scrambled_schematic"":""4"",""participantId"":""45E3DC1ABFB543F7B8FE97B44BAEC48A"",""assignmentId"":""fcfd1132-b210-4f32-a17d-5ae2bd11a444"",""projectId"":""a6b6d205-fa41-4c5b-a7a5-7fc4b51b0cea""}","https://test12345.live/?num_scrambled_semantic=8&num_scrambled_causal=4&num_scrambled_schematic=4&participantId=45E3DC1ABFB543F7B8FE97B44BAEC48A&assignmentId=fcfd1132-b210-4f32-a17d-5ae2bd11a444&projectId=a6b6d205-fa41-4c5b-a7a5-7fc4b51b0cea","45E3DC1ABFB543F7B8FE97B44BAEC48A-2025-05-27-18-44-59","","null","","images/semantic_sequence/exploring_nature_semantic/exploring_nature_semantic_3.png","null","",""
"","","","","","image-button-response","58","586048","0.0-12.0-1.0-1.0","45E3DC1ABFB543F7B8FE97B44BAEC48A","45E3DC1ABFB543F7B8FE97B44BAEC48A","fcfd1132-b210-4f32-a17d-5ae2bd11a444","a6b6d205-fa41-4c5b-a7a5-7fc4b51b0cea","{""num_scrambled_semantic"":""8"",""num_scrambled_causal"":""4"",""num_scrambled_schematic"":""4"",""participantId"":""45E3DC1ABFB543F7B8FE97B44BAEC48A"",""assignmentId"":""fcfd1132-b210-4f32-a17d-5ae2bd11a444"",""projectId"":""a6b6d205-fa41-4c5b-a7a5-7fc4b51b0cea""}","https://test12345.live/?num_scrambled_semantic=8&num_scrambled_causal=4&num_scrambled_schematic=4&participantId=45E3DC1ABFB543F7B8FE97B44BAEC48A&assignmentId=fcfd1132-b210-4f32-a17d-5ae2bd11a444&projectId=a6b6d205-fa41-4c5b-a7a5-7fc4b51b0cea","45E3DC1ABFB543F7B8FE97B44BAEC48A-2025-05-27-18-44-59","","1427","","images/semantic_sequence/exploring_nature_semantic/exploring_nature_semantic_3.png","0","",""
"","","","","","image-button-response","59","587859","0.0-12.0-1.0-2.0","45E3DC1ABFB543F7B8FE97B44BAEC48A","45E3DC1ABFB543F7B8FE97B44BAEC48A","fcfd1132-b210-4f32-a17d-5ae2bd11a444","a6b6d205-fa41-4c5b-a7a5-7fc4b51b0cea","{""num_scrambled_semantic"":""8"",""num_scrambled_causal"":""4"",""num_scrambled_schematic"":""4"",""participantId"":""45E3DC1ABFB543F7B8FE97B44BAEC48A"",""assignmentId"":""fcfd1132-b210-4f32-a17d-5ae2bd11a444"",""projectId"":""a6b6d205-fa41-4c5b-a7a5-7fc4b51b0cea""}","https://test12345.live/?num_scrambled_semantic=8&num_scrambled_causal=4&num_scrambled_schematic=4&participantId=45E3DC1ABFB543F7B8FE97B44BAEC48A&assignmentId=fcfd1132-b210-4f32-a17d-5ae2bd11a444&projectId=a6b6d205-fa41-4c5b-a7a5-7fc4b51b0cea","45E3DC1ABFB543F7B8FE97B44BAEC48A-2025-05-27-18-44-59","","null","","[]","null","",""
"","","","","","image-button-response","60","592377","0.0-12.0-1.0-0.1","45E3DC1ABFB543F7B8FE97B44BAEC48A","45E3DC1ABFB543F7B8FE97B44BAEC48A","fcfd1132-b210-4f32-a17d-5ae2bd11a444","a6b6d205-fa41-4c5b-a7a5-7fc4b51b0cea","{""num_scrambled_semantic"":""8"",""num_scrambled_causal"":""4"",""num_scrambled_schematic"":""4"",""participantId"":""45E3DC1ABFB543F7B8FE97B44BAEC48A"",""assignmentId"":""fcfd1132-b210-4f32-a17d-5ae2bd11a444"",""projectId"":""a6b6d205-fa41-4c5b-a7a5-7fc4b51b0cea""}","https://test12345.live/?num_scrambled_semantic=8&num_scrambled_causal=4&num_scrambled_schematic=4&participantId=45E3DC1ABFB543F7B8FE97B44BAEC48A&assignmentId=fcfd1132-b210-4f32-a17d-5ae2bd11a444&projectId=a6b6d205-fa41-4c5b-a7a5-7fc4b51b0cea","45E3DC1ABFB543F7B8FE97B44BAEC48A-2025-05-27-18-44-59","","null","","images/semantic_sequence/exploring_nature_semantic/exploring_nature_semantic_ten.png","null","",""
"","","","","","image-button-response","61","593872","0.0-12.0-1.0-1.1","45E3DC1ABFB543F7B8FE97B44BAEC48A","45E3DC1ABFB543F7B8FE97B44BAEC48A","fcfd1132-b210-4f32-a17d-5ae2bd11a444","a6b6d205-fa41-4c5b-a7a5-7fc4b51b0cea","{""num_scrambled_semantic"":""8"",""num_scrambled_causal"":""4"",""num_scrambled_schematic"":""4"",""participantId"":""45E3DC1ABFB543F7B8FE97B44BAEC48A"",""assignmentId"":""fcfd1132-b210-4f32-a17d-5ae2bd11a444"",""projectId"":""a6b6d205-fa41-4c5b-a7a5-7fc4b51b0cea""}","https://test12345.live/?num_scrambled_semantic=8&num_scrambled_causal=4&num_scrambled_schematic=4&participantId=45E3DC1ABFB543F7B8FE97B44BAEC48A&assignmentId=fcfd1132-b210-4f32-a17d-5ae2bd11a444&projectId=a6b6d205-fa41-4c5b-a7a5-7fc4b51b0cea","45E3DC1ABFB543F7B8FE97B44BAEC48A-2025-05-27-18-44-59","","1494","","images/semantic_sequence/exploring_nature_semantic/exploring_nature_semantic_ten.png","0","",""
"","","","","","image-button-response","62","595688","0.0-12.0-1.0-2.1","45E3DC1ABFB543F7B8FE97B44BAEC48A","45E3DC1ABFB543F7B8FE97B44BAEC48A","fcfd1132-b210-4f32-a17d-5ae2bd11a444","a6b6d205-fa41-4c5b-a7a5-7fc4b51b0cea","{""num_scrambled_semantic"":""8"",""num_scrambled_causal"":""4"",""num_scrambled_schematic"":""4"",""participantId"":""45E3DC1ABFB543F7B8FE97B44BAEC48A"",""assignmentId"":""fcfd1132-b210-4f32-a17d-5ae2bd11a444"",""projectId"":""a6b6d205-fa41-4c5b-a7a5-7fc4b51b0cea""}","https://test12345.live/?num_scrambled_semantic=8&num_scrambled_causal=4&num_scrambled_schematic=4&participantId=45E3DC1ABFB543F7B8FE97B44BAEC48A&assignmentId=fcfd1132-b210-4f32-a17d-5ae2bd11a444&projectId=a6b6d205-fa41-4c5b-a7a5-7fc4b51b0cea","45E3DC1ABFB543F7B8FE97B44BAEC48A-2025-05-27-18-44-59","","null","","[]","null","",""
"","","","","","image-button-response","63","600190","0.0-12.0-1.0-0.2","45E3DC1ABFB543F7B8FE97B44BAEC48A","45E3DC1ABFB543F7B8FE97B44BAEC48A","fcfd1132-b210-4f32-a17d-5ae2bd11a444","a6b6d205-fa41-4c5b-a7a5-7fc4b51b0cea","{""num_scrambled_semantic"":""8"",""num_scrambled_causal"":""4"",""num_scrambled_schematic"":""4"",""participantId"":""45E3DC1ABFB543F7B8FE97B44BAEC48A"",""assignmentId"":""fcfd1132-b210-4f32-a17d-5ae2bd11a444"",""projectId"":""a6b6d205-fa41-4c5b-a7a5-7fc4b51b0cea""}","https://test12345.live/?num_scrambled_semantic=8&num_scrambled_causal=4&num_scrambled_schematic=4&participantId=45E3DC1ABFB543F7B8FE97B44BAEC48A&assignmentId=fcfd1132-b210-4f32-a17d-5ae2bd11a444&projectId=a6b6d205-fa41-4c5b-a7a5-7fc4b51b0cea","45E3DC1ABFB543F7B8FE97B44BAEC48A-2025-05-27-18-44-59","","null","","images/semantic_sequence/exploring_nature_semantic/exploring_nature_semantic_5.png","null","",""
"","","","","","image-button-response","64","601717","0.0-12.0-1.0-1.2","45E3DC1ABFB543F7B8FE97B44BAEC48A","45E3DC1ABFB543F7B8FE97B44BAEC48A","fcfd1132-b210-4f32-a17d-5ae2bd11a444","a6b6d205-fa41-4c5b-a7a5-7fc4b51b0cea","{""num_scrambled_semantic"":""8"",""num_scrambled_causal"":""4"",""num_scrambled_schematic"":""4"",""participantId"":""45E3DC1ABFB543F7B8FE97B44BAEC48A"",""assignmentId"":""fcfd1132-b210-4f32-a17d-5ae2bd11a444"",""projectId"":""a6b6d205-fa41-4c5b-a7a5-7fc4b51b0cea""}","https://test12345.live/?num_scrambled_semantic=8&num_scrambled_causal=4&num_scrambled_schematic=4&participantId=45E3DC1ABFB543F7B8FE97B44BAEC48A&assignmentId=fcfd1132-b210-4f32-a17d-5ae2bd11a444&projectId=a6b6d205-fa41-4c5b-a7a5-7fc4b51b0cea","45E3DC1ABFB543F7B8FE97B44BAEC48A-2025-05-27-18-44-59","","1525","","images/semantic_sequence/exploring_nature_semantic/exploring_nature_semantic_5.png","0","",""
"","","","","","image-button-response","65","603525","0.0-12.0-1.0-2.2","45E3DC1ABFB543F7B8FE97B44BAEC48A","45E3DC1ABFB543F7B8FE97B44BAEC48A","fcfd1132-b210-4f32-a17d-5ae2bd11a444","a6b6d205-fa41-4c5b-a7a5-7fc4b51b0cea","{""num_scrambled_semantic"":""8"",""num_scrambled_causal"":""4"",""num_scrambled_schematic"":""4"",""participantId"":""45E3DC1ABFB543F7B8FE97B44BAEC48A"",""assignmentId"":""fcfd1132-b210-4f32-a17d-5ae2bd11a444"",""projectId"":""a6b6d205-fa41-4c5b-a7a5-7fc4b51b0cea""}","https://test12345.live/?num_scrambled_semantic=8&num_scrambled_causal=4&num_scrambled_schematic=4&participantId=45E3DC1ABFB543F7B8FE97B44BAEC48A&assignmentId=fcfd1132-b210-4f32-a17d-5ae2bd11a444&projectId=a6b6d205-fa41-4c5b-a7a5-7fc4b51b0cea","45E3DC1ABFB543F7B8FE97B44BAEC48A-2025-05-27-18-44-59","","null","","[]","null","",""
"","","","","","image-button-response","66","608035","0.0-12.0-1.0-0.3","45E3DC1ABFB543F7B8FE97B44BAEC48A","45E3DC1ABFB543F7B8FE97B44BAEC48A","fcfd1132-b210-4f32-a17d-5ae2bd11a444","a6b6d205-fa41-4c5b-a7a5-7fc4b51b0cea","{""num_scrambled_semantic"":""8"",""num_scrambled_causal"":""4"",""num_scrambled_schematic"":""4"",""participantId"":""45E3DC1ABFB543F7B8FE97B44BAEC48A"",""assignmentId"":""fcfd1132-b210-4f32-a17d-5ae2bd11a444"",""projectId"":""a6b6d205-fa41-4c5b-a7a5-7fc4b51b0cea""}","https://test12345.live/?num_scrambled_semantic=8&num_scrambled_causal=4&num_scrambled_schematic=4&participantId=45E3DC1ABFB543F7B8FE97B44BAEC48A&assignmentId=fcfd1132-b210-4f32-a17d-5ae2bd11a444&projectId=a6b6d205-fa41-4c5b-a7a5-7fc4b51b0cea","45E3DC1ABFB543F7B8FE97B44BAEC48A-2025-05-27-18-44-59","","null","","images/semantic_sequence/exploring_nature_semantic/exploring_nature_semantic_6.png","null","",""
"","","","","","image-button-response","67","609574","0.0-12.0-1.0-1.3","45E3DC1ABFB543F7B8FE97B44BAEC48A","45E3DC1ABFB543F7B8FE97B44BAEC48A","fcfd1132-b210-4f32-a17d-5ae2bd11a444","a6b6d205-fa41-4c5b-a7a5-7fc4b51b0cea","{""num_scrambled_semantic"":""8"",""num_scrambled_causal"":""4"",""num_scrambled_schematic"":""4"",""participantId"":""45E3DC1ABFB543F7B8FE97B44BAEC48A"",""assignmentId"":""fcfd1132-b210-4f32-a17d-5ae2bd11a444"",""projectId"":""a6b6d205-fa41-4c5b-a7a5-7fc4b51b0cea""}","https://test12345.live/?num_scrambled_semantic=8&num_scrambled_causal=4&num_scrambled_schematic=4&participantId=45E3DC1ABFB543F7B8FE97B44BAEC48A&assignmentId=fcfd1132-b210-4f32-a17d-5ae2bd11a444&projectId=a6b6d205-fa41-4c5b-a7a5-7fc4b51b0cea","45E3DC1ABFB543F7B8FE97B44BAEC48A-2025-05-27-18-44-59","","1538","","images/semantic_sequence/exploring_nature_semantic/exploring_nature_semantic_6.png","0","",""
"","","","","","image-button-response","68","611376","0.0-12.0-1.0-2.3","45E3DC1ABFB543F7B8FE97B44BAEC48A","45E3DC1ABFB543F7B8FE97B44BAEC48A","fcfd1132-b210-4f32-a17d-5ae2bd11a444","a6b6d205-fa41-4c5b-a7a5-7fc4b51b0cea","{""num_scrambled_semantic"":""8"",""num_scrambled_causal"":""4"",""num_scrambled_schematic"":""4"",""participantId"":""45E3DC1ABFB543F7B8FE97B44BAEC48A"",""assignmentId"":""fcfd1132-b210-4f32-a17d-5ae2bd11a444"",""projectId"":""a6b6d205-fa41-4c5b-a7a5-7fc4b51b0cea""}","https://test12345.live/?num_scrambled_semantic=8&num_scrambled_causal=4&num_scrambled_schematic=4&participantId=45E3DC1ABFB543F7B8FE97B44BAEC48A&assignmentId=fcfd1132-b210-4f32-a17d-5ae2bd11a444&projectId=a6b6d205-fa41-4c5b-a7a5-7fc4b51b0cea","45E3DC1ABFB543F7B8FE97B44BAEC48A-2025-05-27-18-44-59","","null","","[]","null","",""
"","","","","","image-button-response","69","615877","0.0-12.0-1.0-0.4","45E3DC1ABFB543F7B8FE97B44BAEC48A","45E3DC1ABFB543F7B8FE97B44BAEC48A","fcfd1132-b210-4f32-a17d-5ae2bd11a444","a6b6d205-fa41-4c5b-a7a5-7fc4b51b0cea","{""num_scrambled_semantic"":""8"",""num_scrambled_causal"":""4"",""num_scrambled_schematic"":""4"",""participantId"":""45E3DC1ABFB543F7B8FE97B44BAEC48A"",""assignmentId"":""fcfd1132-b210-4f32-a17d-5ae2bd11a444"",""projectId"":""a6b6d205-fa41-4c5b-a7a5-7fc4b51b0cea""}","https://test12345.live/?num_scrambled_semantic=8&num_scrambled_causal=4&num_scrambled_schematic=4&participantId=45E3DC1ABFB543F7B8FE97B44BAEC48A&assignmentId=fcfd1132-b210-4f32-a17d-5ae2bd11a444&projectId=a6b6d205-fa41-4c5b-a7a5-7fc4b51b0cea","45E3DC1ABFB543F7B8FE97B44BAEC48A-2025-05-27-18-44-59","","null","","images/semantic_sequence/exploring_nature_semantic/exploring_nature_semantic_4.png","null","",""
"","","","","","image-button-response","70","617284","0.0-12.0-1.0-1.4","45E3DC1ABFB543F7B8FE97B44BAEC48A","45E3DC1ABFB543F7B8FE97B44BAEC48A","fcfd1132-b210-4f32-a17d-5ae2bd11a444","a6b6d205-fa41-4c5b-a7a5-7fc4b51b0cea","{""num_scrambled_semantic"":""8"",""num_scrambled_causal"":""4"",""num_scrambled_schematic"":""4"",""participantId"":""45E3DC1ABFB543F7B8FE97B44BAEC48A"",""assignmentId"":""fcfd1132-b210-4f32-a17d-5ae2bd11a444"",""projectId"":""a6b6d205-fa41-4c5b-a7a5-7fc4b51b0cea""}","https://test12345.live/?num_scrambled_semantic=8&num_scrambled_causal=4&num_scrambled_schematic=4&participantId=45E3DC1ABFB543F7B8FE97B44BAEC48A&assignmentId=fcfd1132-b210-4f32-a17d-5ae2bd11a444&projectId=a6b6d205-fa41-4c5b-a7a5-7fc4b51b0cea","45E3DC1ABFB543F7B8FE97B44BAEC48A-2025-05-27-18-44-59","","1405","","images/semantic_sequence/exploring_nature_semantic/exploring_nature_semantic_4.png","0","",""
"","","","","","image-button-response","71","619092","0.0-12.0-1.0-2.4","45E3DC1ABFB543F7B8FE97B44BAEC48A","45E3DC1ABFB543F7B8FE97B44BAEC48A","fcfd1132-b210-4f32-a17d-5ae2bd11a444","a6b6d205-fa41-4c5b-a7a5-7fc4b51b0cea","{""num_scrambled_semantic"":""8"",""num_scrambled_causal"":""4"",""num_scrambled_schematic"":""4"",""participantId"":""45E3DC1ABFB543F7B8FE97B44BAEC48A"",""assignmentId"":""fcfd1132-b210-4f32-a17d-5ae2bd11a444"",""projectId"":""a6b6d205-fa41-4c5b-a7a5-7fc4b51b0cea""}","https://test12345.live/?num_scrambled_semantic=8&num_scrambled_causal=4&num_scrambled_schematic=4&participantId=45E3DC1ABFB543F7B8FE97B44BAEC48A&assignmentId=fcfd1132-b210-4f32-a17d-5ae2bd11a444&projectId=a6b6d205-fa41-4c5b-a7a5-7fc4b51b0cea","45E3DC1ABFB543F7B8FE97B44BAEC48A-2025-05-27-18-44-59","","null","","[]","null","",""
"","","","","","image-button-response","72","623598","0.0-12.0-1.0-0.5","45E3DC1ABFB543F7B8FE97B44BAEC48A","45E3DC1ABFB543F7B8FE97B44BAEC48A","fcfd1132-b210-4f32-a17d-5ae2bd11a444","a6b6d205-fa41-4c5b-a7a5-7fc4b51b0cea","{""num_scrambled_semantic"":""8"",""num_scrambled_causal"":""4"",""num_scrambled_schematic"":""4"",""participantId"":""45E3DC1ABFB543F7B8FE97B44BAEC48A"",""assignmentId"":""fcfd1132-b210-4f32-a17d-5ae2bd11a444"",""projectId"":""a6b6d205-fa41-4c5b-a7a5-7fc4b51b0cea""}","https://test12345.live/?num_scrambled_semantic=8&num_scrambled_causal=4&num_scrambled_schematic=4&participantId=45E3DC1ABFB543F7B8FE97B44BAEC48A&assignmentId=fcfd1132-b210-4f32-a17d-5ae2bd11a444&projectId=a6b6d205-fa41-4c5b-a7a5-7fc4b51b0cea","45E3DC1ABFB543F7B8FE97B44BAEC48A-2025-05-27-18-44-59","","null","","images/semantic_sequence/exploring_nature_semantic/exploring_nature_semantic_9.png","null","",""
"","","","","","image-button-response","73","624903","0.0-12.0-1.0-1.5","45E3DC1ABFB543F7B8FE97B44BAEC48A","45E3DC1ABFB543F7B8FE97B44BAEC48A","fcfd1132-b210-4f32-a17d-5ae2bd11a444","a6b6d205-fa41-4c5b-a7a5-7fc4b51b0cea","{""num_scrambled_semantic"":""8"",""num_scrambled_causal"":""4"",""num_scrambled_schematic"":""4"",""participantId"":""45E3DC1ABFB543F7B8FE97B44BAEC48A"",""assignmentId"":""fcfd1132-b210-4f32-a17d-5ae2bd11a444"",""projectId"":""a6b6d205-fa41-4c5b-a7a5-7fc4b51b0cea""}","https://test12345.live/?num_scrambled_semantic=8&num_scrambled_causal=4&num_scrambled_schematic=4&participantId=45E3DC1ABFB543F7B8FE97B44BAEC48A&assignmentId=fcfd1132-b210-4f32-a17d-5ae2bd11a444&projectId=a6b6d205-fa41-4c5b-a7a5-7fc4b51b0cea","45E3DC1ABFB543F7B8FE97B44BAEC48A-2025-05-27-18-44-59","","1304","","images/semantic_sequence/exploring_nature_semantic/exploring_nature_semantic_9.png","0","",""
"","","","","","image-button-response","74","626708","0.0-12.0-1.0-2.5","45E3DC1ABFB543F7B8FE97B44BAEC48A","45E3DC1ABFB543F7B8FE97B44BAEC48A","fcfd1132-b210-4f32-a17d-5ae2bd11a444","a6b6d205-fa41-4c5b-a7a5-7fc4b51b0cea","{""num_scrambled_semantic"":""8"",""num_scrambled_causal"":""4"",""num_scrambled_schematic"":""4"",""participantId"":""45E3DC1ABFB543F7B8FE97B44BAEC48A"",""assignmentId"":""fcfd1132-b210-4f32-a17d-5ae2bd11a444"",""projectId"":""a6b6d205-fa41-4c5b-a7a5-7fc4b51b0cea""}","https://test12345.live/?num_scrambled_semantic=8&num_scrambled_causal=4&num_scrambled_schematic=4&participantId=45E3DC1ABFB543F7B8FE97B44BAEC48A&assignmentId=fcfd1132-b210-4f32-a17d-5ae2bd11a444&projectId=a6b6d205-fa41-4c5b-a7a5-7fc4b51b0cea","45E3DC1ABFB543F7B8FE97B44BAEC48A-2025-05-27-18-44-59","","null","","[]","null","",""
"","","","","","image-button-response","75","631219","0.0-12.0-1.0-0.6","45E3DC1ABFB543F7B8FE97B44BAEC48A","45E3DC1ABFB543F7B8FE97B44BAEC48A","fcfd1132-b210-4f32-a17d-5ae2bd11a444","a6b6d205-fa41-4c5b-a7a5-7fc4b51b0cea","{""num_scrambled_semantic"":""8"",""num_scrambled_causal"":""4"",""num_scrambled_schematic"":""4"",""participantId"":""45E3DC1ABFB543F7B8FE97B44BAEC48A"",""assignmentId"":""fcfd1132-b210-4f32-a17d-5ae2bd11a444"",""projectId"":""a6b6d205-fa41-4c5b-a7a5-7fc4b51b0cea""}","https://test12345.live/?num_scrambled_semantic=8&num_scrambled_causal=4&num_scrambled_schematic=4&participantId=45E3DC1ABFB543F7B8FE97B44BAEC48A&assignmentId=fcfd1132-b210-4f32-a17d-5ae2bd11a444&projectId=a6b6d205-fa41-4c5b-a7a5-7fc4b51b0cea","45E3DC1ABFB543F7B8FE97B44BAEC48A-2025-05-27-18-44-59","","null","","images/semantic_sequence/exploring_nature_semantic/exploring_nature_semantic_8.png","null","",""
"","","","","","image-button-response","76","632444","0.0-12.0-1.0-1.6","45E3DC1ABFB543F7B8FE97B44BAEC48A","45E3DC1ABFB543F7B8FE97B44BAEC48A","fcfd1132-b210-4f32-a17d-5ae2bd11a444","a6b6d205-fa41-4c5b-a7a5-7fc4b51b0cea","{""num_scrambled_semantic"":""8"",""num_scrambled_causal"":""4"",""num_scrambled_schematic"":""4"",""participantId"":""45E3DC1ABFB543F7B8FE97B44BAEC48A"",""assignmentId"":""fcfd1132-b210-4f32-a17d-5ae2bd11a444"",""projectId"":""a6b6d205-fa41-4c5b-a7a5-7fc4b51b0cea""}","https://test12345.live/?num_scrambled_semantic=8&num_scrambled_causal=4&num_scrambled_schematic=4&participantId=45E3DC1ABFB543F7B8FE97B44BAEC48A&assignmentId=fcfd1132-b210-4f32-a17d-5ae2bd11a444&projectId=a6b6d205-fa41-4c5b-a7a5-7fc4b51b0cea","45E3DC1ABFB543F7B8FE97B44BAEC48A-2025-05-27-18-44-59","","1224","","images/semantic_sequence/exploring_nature_semantic/exploring_nature_semantic_8.png","0","",""
"","","","","","image-button-response","77","634249","0.0-12.0-1.0-2.6","45E3DC1ABFB543F7B8FE97B44BAEC48A","45E3DC1ABFB543F7B8FE97B44BAEC48A","fcfd1132-b210-4f32-a17d-5ae2bd11a444","a6b6d205-fa41-4c5b-a7a5-7fc4b51b0cea","{""num_scrambled_semantic"":""8"",""num_scrambled_causal"":""4"",""num_scrambled_schematic"":""4"",""participantId"":""45E3DC1ABFB543F7B8FE97B44BAEC48A"",""assignmentId"":""fcfd1132-b210-4f32-a17d-5ae2bd11a444"",""projectId"":""a6b6d205-fa41-4c5b-a7a5-7fc4b51b0cea""}","https://test12345.live/?num_scrambled_semantic=8&num_scrambled_causal=4&num_scrambled_schematic=4&participantId=45E3DC1ABFB543F7B8FE97B44BAEC48A&assignmentId=fcfd1132-b210-4f32-a17d-5ae2bd11a444&projectId=a6b6d205-fa41-4c5b-a7a5-7fc4b51b0cea","45E3DC1ABFB543F7B8FE97B44BAEC48A-2025-05-27-18-44-59","","null","","[]","null","",""
"","","","","","image-button-response","78","638760","0.0-12.0-1.0-0.7","45E3DC1ABFB543F7B8FE97B44BAEC48A","45E3DC1ABFB543F7B8FE97B44BAEC48A","fcfd1132-b210-4f32-a17d-5ae2bd11a444","a6b6d205-fa41-4c5b-a7a5-7fc4b51b0cea","{""num_scrambled_semantic"":""8"",""num_scrambled_causal"":""4"",""num_scrambled_schematic"":""4"",""participantId"":""45E3DC1ABFB543F7B8FE97B44BAEC48A"",""assignmentId"":""fcfd1132-b210-4f32-a17d-5ae2bd11a444"",""projectId"":""a6b6d205-fa41-4c5b-a7a5-7fc4b51b0cea""}","https://test12345.live/?num_scrambled_semantic=8&num_scrambled_causal=4&num_scrambled_schematic=4&participantId=45E3DC1ABFB543F7B8FE97B44BAEC48A&assignmentId=fcfd1132-b210-4f32-a17d-5ae2bd11a444&projectId=a6b6d205-fa41-4c5b-a7a5-7fc4b51b0cea","45E3DC1ABFB543F7B8FE97B44BAEC48A-2025-05-27-18-44-59","","null","","images/semantic_sequence/exploring_nature_semantic/exploring_nature_semantic_2.png","null","",""
"","","","","","image-button-response","79","640048","0.0-12.0-1.0-1.7","45E3DC1ABFB543F7B8FE97B44BAEC48A","45E3DC1ABFB543F7B8FE97B44BAEC48A","fcfd1132-b210-4f32-a17d-5ae2bd11a444","a6b6d205-fa41-4c5b-a7a5-7fc4b51b0cea","{""num_scrambled_semantic"":""8"",""num_scrambled_causal"":""4"",""num_scrambled_schematic"":""4"",""participantId"":""45E3DC1ABFB543F7B8FE97B44BAEC48A"",""assignmentId"":""fcfd1132-b210-4f32-a17d-5ae2bd11a444"",""projectId"":""a6b6d205-fa41-4c5b-a7a5-7fc4b51b0cea""}","https://test12345.live/?num_scrambled_semantic=8&num_scrambled_causal=4&num_scrambled_schematic=4&participantId=45E3DC1ABFB543F7B8FE97B44BAEC48A&assignmentId=fcfd1132-b210-4f32-a17d-5ae2bd11a444&projectId=a6b6d205-fa41-4c5b-a7a5-7fc4b51b0cea","45E3DC1ABFB543F7B8FE97B44BAEC48A-2025-05-27-18-44-59","","1287","","images/semantic_sequence/exploring_nature_semantic/exploring_nature_semantic_2.png","0","",""
"","","","","","image-button-response","80","641856","0.0-12.0-1.0-2.7","45E3DC1ABFB543F7B8FE97B44BAEC48A","45E3DC1ABFB543F7B8FE97B44BAEC48A","fcfd1132-b210-4f32-a17d-5ae2bd11a444","a6b6d205-fa41-4c5b-a7a5-7fc4b51b0cea","{""num_scrambled_semantic"":""8"",""num_scrambled_causal"":""4"",""num_scrambled_schematic"":""4"",""participantId"":""45E3DC1ABFB543F7B8FE97B44BAEC48A"",""assignmentId"":""fcfd1132-b210-4f32-a17d-5ae2bd11a444"",""projectId"":""a6b6d205-fa41-4c5b-a7a5-7fc4b51b0cea""}","https://test12345.live/?num_scrambled_semantic=8&num_scrambled_causal=4&num_scrambled_schematic=4&participantId=45E3DC1ABFB543F7B8FE97B44BAEC48A&assignmentId=fcfd1132-b210-4f32-a17d-5ae2bd11a444&projectId=a6b6d205-fa41-4c5b-a7a5-7fc4b51b0cea","45E3DC1ABFB543F7B8FE97B44BAEC48A-2025-05-27-18-44-59","","null","","[]","null","",""
"","","","","","image-button-response","81","646360","0.0-12.0-1.0-0.8","45E3DC1ABFB543F7B8FE97B44BAEC48A","45E3DC1ABFB543F7B8FE97B44BAEC48A","fcfd1132-b210-4f32-a17d-5ae2bd11a444","a6b6d205-fa41-4c5b-a7a5-7fc4b51b0cea","{""num_scrambled_semantic"":""8"",""num_scrambled_causal"":""4"",""num_scrambled_schematic"":""4"",""participantId"":""45E3DC1ABFB543F7B8FE97B44BAEC48A"",""assignmentId"":""fcfd1132-b210-4f32-a17d-5ae2bd11a444"",""projectId"":""a6b6d205-fa41-4c5b-a7a5-7fc4b51b0cea""}","https://test12345.live/?num_scrambled_semantic=8&num_scrambled_causal=4&num_scrambled_schematic=4&participantId=45E3DC1ABFB543F7B8FE97B44BAEC48A&assignmentId=fcfd1132-b210-4f32-a17d-5ae2bd11a444&projectId=a6b6d205-fa41-4c5b-a7a5-7fc4b51b0cea","45E3DC1ABFB543F7B8FE97B44BAEC48A-2025-05-27-18-44-59","","null","","images/semantic_sequence/exploring_nature_semantic/exploring_nature_semantic_7.png","null","",""
"","","","","","image-button-response","82","647683","0.0-12.0-1.0-1.8","45E3DC1ABFB543F7B8FE97B44BAEC48A","45E3DC1ABFB543F7B8FE97B44BAEC48A","fcfd1132-b210-4f32-a17d-5ae2bd11a444","a6b6d205-fa41-4c5b-a7a5-7fc4b51b0cea","{""num_scrambled_semantic"":""8"",""num_scrambled_causal"":""4"",""num_scrambled_schematic"":""4"",""participantId"":""45E3DC1ABFB543F7B8FE97B44BAEC48A"",""assignmentId"":""fcfd1132-b210-4f32-a17d-5ae2bd11a444"",""projectId"":""a6b6d205-fa41-4c5b-a7a5-7fc4b51b0cea""}","https://test12345.live/?num_scrambled_semantic=8&num_scrambled_causal=4&num_scrambled_schematic=4&participantId=45E3DC1ABFB543F7B8FE97B44BAEC48A&assignmentId=fcfd1132-b210-4f32-a17d-5ae2bd11a444&projectId=a6b6d205-fa41-4c5b-a7a5-7fc4b51b0cea","45E3DC1ABFB543F7B8FE97B44BAEC48A-2025-05-27-18-44-59","","1323","","images/semantic_sequence/exploring_nature_semantic/exploring_nature_semantic_7.png","0","",""
"","","","","","image-button-response","83","649490","0.0-12.0-1.0-2.8","45E3DC1ABFB543F7B8FE97B44BAEC48A","45E3DC1ABFB543F7B8FE97B44BAEC48A","fcfd1132-b210-4f32-a17d-5ae2bd11a444","a6b6d205-fa41-4c5b-a7a5-7fc4b51b0cea","{""num_scrambled_semantic"":""8"",""num_scrambled_causal"":""4"",""num_scrambled_schematic"":""4"",""participantId"":""45E3DC1ABFB543F7B8FE97B44BAEC48A"",""assignmentId"":""fcfd1132-b210-4f32-a17d-5ae2bd11a444"",""projectId"":""a6b6d205-fa41-4c5b-a7a5-7fc4b51b0cea""}","https://test12345.live/?num_scrambled_semantic=8&num_scrambled_causal=4&num_scrambled_schematic=4&participantId=45E3DC1ABFB543F7B8FE97B44BAEC48A&assignmentId=fcfd1132-b210-4f32-a17d-5ae2bd11a444&projectId=a6b6d205-fa41-4c5b-a7a5-7fc4b51b0cea","45E3DC1ABFB543F7B8FE97B44BAEC48A-2025-05-27-18-44-59","","null","","[]","null","",""
"","","","","","image-button-response","84","653993","0.0-12.0-1.0-0.9","45E3DC1ABFB543F7B8FE97B44BAEC48A","45E3DC1ABFB543F7B8FE97B44BAEC48A","fcfd1132-b210-4f32-a17d-5ae2bd11a444","a6b6d205-fa41-4c5b-a7a5-7fc4b51b0cea","{""num_scrambled_semantic"":""8"",""num_scrambled_causal"":""4"",""num_scrambled_schematic"":""4"",""participantId"":""45E3DC1ABFB543F7B8FE97B44BAEC48A"",""assignmentId"":""fcfd1132-b210-4f32-a17d-5ae2bd11a444"",""projectId"":""a6b6d205-fa41-4c5b-a7a5-7fc4b51b0cea""}","https://test12345.live/?num_scrambled_semantic=8&num_scrambled_causal=4&num_scrambled_schematic=4&participantId=45E3DC1ABFB543F7B8FE97B44BAEC48A&assignmentId=fcfd1132-b210-4f32-a17d-5ae2bd11a444&projectId=a6b6d205-fa41-4c5b-a7a5-7fc4b51b0cea","45E3DC1ABFB543F7B8FE97B44BAEC48A-2025-05-27-18-44-59","","null","","images/semantic_sequence/exploring_nature_semantic/exploring_nature_semantic_1.png","null","",""
"","","","","","image-button-response","85","655186","0.0-12.0-1.0-1.9","45E3DC1ABFB543F7B8FE97B44BAEC48A","45E3DC1ABFB543F7B8FE97B44BAEC48A","fcfd1132-b210-4f32-a17d-5ae2bd11a444","a6b6d205-fa41-4c5b-a7a5-7fc4b51b0cea","{""num_scrambled_semantic"":""8"",""num_scrambled_causal"":""4"",""num_scrambled_schematic"":""4"",""participantId"":""45E3DC1ABFB543F7B8FE97B44BAEC48A"",""assignmentId"":""fcfd1132-b210-4f32-a17d-5ae2bd11a444"",""projectId"":""a6b6d205-fa41-4c5b-a7a5-7fc4b51b0cea""}","https://test12345.live/?num_scrambled_semantic=8&num_scrambled_causal=4&num_scrambled_schematic=4&participantId=45E3DC1ABFB543F7B8FE97B44BAEC48A&assignmentId=fcfd1132-b210-4f32-a17d-5ae2bd11a444&projectId=a6b6d205-fa41-4c5b-a7a5-7fc4b51b0cea","45E3DC1ABFB543F7B8FE97B44BAEC48A-2025-05-27-18-44-59","","1192","","images/semantic_sequence/exploring_nature_semantic/exploring_nature_semantic_1.png","0","",""
"","","","","","image-button-response","86","656996","0.0-12.0-1.0-2.9","45E3DC1ABFB543F7B8FE97B44BAEC48A","45E3DC1ABFB543F7B8FE97B44BAEC48A","fcfd1132-b210-4f32-a17d-5ae2bd11a444","a6b6d205-fa41-4c5b-a7a5-7fc4b51b0cea","{""num_scrambled_semantic"":""8"",""num_scrambled_causal"":""4"",""num_scrambled_schematic"":""4"",""participantId"":""45E3DC1ABFB543F7B8FE97B44BAEC48A"",""assignmentId"":""fcfd1132-b210-4f32-a17d-5ae2bd11a444"",""projectId"":""a6b6d205-fa41-4c5b-a7a5-7fc4b51b0cea""}","https://test12345.live/?num_scrambled_semantic=8&num_scrambled_causal=4&num_scrambled_schematic=4&participantId=45E3DC1ABFB543F7B8FE97B44BAEC48A&assignmentId=fcfd1132-b210-4f32-a17d-5ae2bd11a444&projectId=a6b6d205-fa41-4c5b-a7a5-7fc4b51b0cea","45E3DC1ABFB543F7B8FE97B44BAEC48A-2025-05-27-18-44-59","","null","","[]","null","",""
"","","","","","html-audio-response","87","678780","0.0-13.0","45E3DC1ABFB543F7B8FE97B44BAEC48A","45E3DC1ABFB543F7B8FE97B44BAEC48A","fcfd1132-b210-4f32-a17d-5ae2bd11a444","a6b6d205-fa41-4c5b-a7a5-7fc4b51b0cea","{""num_scrambled_semantic"":""8"",""num_scrambled_causal"":""4"",""num_scrambled_schematic"":""4"",""participantId"":""45E3DC1ABFB543F7B8FE97B44BAEC48A"",""assignmentId"":""fcfd1132-b210-4f32-a17d-5ae2bd11a444"",""projectId"":""a6b6d205-fa41-4c5b-a7a5-7fc4b51b0cea""}","https://test12345.live/?num_scrambled_semantic=8&num_scrambled_causal=4&num_scrambled_schematic=4&participantId=45E3DC1ABFB543F7B8FE97B44BAEC48A&assignmentId=fcfd1132-b210-4f32-a17d-5ae2bd11a444&projectId=a6b6d205-fa41-4c5b-a7a5-7fc4b51b0cea","45E3DC1ABFB543F7B8FE97B44BAEC48A-2025-05-27-18-44-59","","20550","","[""<span style=\""color: red; font-size: 24px\""> NOW RECORDING</span><p>Please say out loud all the images you saw, in the exact order you saw them. Try to recall as many images as you can, but remember: getting the order right is more important than the number of images you recall.</p>""]","","12","exploring_nature_semantic"
"","","","","","image-button-response","88","684801","0.0-14.0-0.0","45E3DC1ABFB543F7B8FE97B44BAEC48A","45E3DC1ABFB543F7B8FE97B44BAEC48A","fcfd1132-b210-4f32-a17d-5ae2bd11a444","a6b6d205-fa41-4c5b-a7a5-7fc4b51b0cea","{""num_scrambled_semantic"":""8"",""num_scrambled_causal"":""4"",""num_scrambled_schematic"":""4"",""participantId"":""45E3DC1ABFB543F7B8FE97B44BAEC48A"",""assignmentId"":""fcfd1132-b210-4f32-a17d-5ae2bd11a444"",""projectId"":""a6b6d205-fa41-4c5b-a7a5-7fc4b51b0cea""}","https://test12345.live/?num_scrambled_semantic=8&num_scrambled_causal=4&num_scrambled_schematic=4&participantId=45E3DC1ABFB543F7B8FE97B44BAEC48A&assignmentId=fcfd1132-b210-4f32-a17d-5ae2bd11a444&projectId=a6b6d205-fa41-4c5b-a7a5-7fc4b51b0cea","45E3DC1ABFB543F7B8FE97B44BAEC48A-2025-05-27-18-44-59","","null","","images/causal_sequence/coin_causal/coin_causal_0.png","null","",""
"","","","","","image-button-response","89","689313","0.0-14.0-1.0-0.0","45E3DC1ABFB543F7B8FE97B44BAEC48A","45E3DC1ABFB543F7B8FE97B44BAEC48A","fcfd1132-b210-4f32-a17d-5ae2bd11a444","a6b6d205-fa41-4c5b-a7a5-7fc4b51b0cea","{""num_scrambled_semantic"":""8"",""num_scrambled_causal"":""4"",""num_scrambled_schematic"":""4"",""participantId"":""45E3DC1ABFB543F7B8FE97B44BAEC48A"",""assignmentId"":""fcfd1132-b210-4f32-a17d-5ae2bd11a444"",""projectId"":""a6b6d205-fa41-4c5b-a7a5-7fc4b51b0cea""}","https://test12345.live/?num_scrambled_semantic=8&num_scrambled_causal=4&num_scrambled_schematic=4&participantId=45E3DC1ABFB543F7B8FE97B44BAEC48A&assignmentId=fcfd1132-b210-4f32-a17d-5ae2bd11a444&projectId=a6b6d205-fa41-4c5b-a7a5-7fc4b51b0cea","45E3DC1ABFB543F7B8FE97B44BAEC48A-2025-05-27-18-44-59","","null","","images/causal_sequence/coin_causal/coin_causal_7.png","null","",""
"","","","","","image-button-response","90","691541","0.0-14.0-1.0-1.0","45E3DC1ABFB543F7B8FE97B44BAEC48A","45E3DC1ABFB543F7B8FE97B44BAEC48A","fcfd1132-b210-4f32-a17d-5ae2bd11a444","a6b6d205-fa41-4c5b-a7a5-7fc4b51b0cea","{""num_scrambled_semantic"":""8"",""num_scrambled_causal"":""4"",""num_scrambled_schematic"":""4"",""participantId"":""45E3DC1ABFB543F7B8FE97B44BAEC48A"",""assignmentId"":""fcfd1132-b210-4f32-a17d-5ae2bd11a444"",""projectId"":""a6b6d205-fa41-4c5b-a7a5-7fc4b51b0cea""}","https://test12345.live/?num_scrambled_semantic=8&num_scrambled_causal=4&num_scrambled_schematic=4&participantId=45E3DC1ABFB543F7B8FE97B44BAEC48A&assignmentId=fcfd1132-b210-4f32-a17d-5ae2bd11a444&projectId=a6b6d205-fa41-4c5b-a7a5-7fc4b51b0cea","45E3DC1ABFB543F7B8FE97B44BAEC48A-2025-05-27-18-44-59","","2227","","images/causal_sequence/coin_causal/coin_causal_7.png","0","",""
"","","","","","image-button-response","91","693342","0.0-14.0-1.0-2.0","45E3DC1ABFB543F7B8FE97B44BAEC48A","45E3DC1ABFB543F7B8FE97B44BAEC48A","fcfd1132-b210-4f32-a17d-5ae2bd11a444","a6b6d205-fa41-4c5b-a7a5-7fc4b51b0cea","{""num_scrambled_semantic"":""8"",""num_scrambled_causal"":""4"",""num_scrambled_schematic"":""4"",""participantId"":""45E3DC1ABFB543F7B8FE97B44BAEC48A"",""assignmentId"":""fcfd1132-b210-4f32-a17d-5ae2bd11a444"",""projectId"":""a6b6d205-fa41-4c5b-a7a5-7fc4b51b0cea""}","https://test12345.live/?num_scrambled_semantic=8&num_scrambled_causal=4&num_scrambled_schematic=4&participantId=45E3DC1ABFB543F7B8FE97B44BAEC48A&assignmentId=fcfd1132-b210-4f32-a17d-5ae2bd11a444&projectId=a6b6d205-fa41-4c5b-a7a5-7fc4b51b0cea","45E3DC1ABFB543F7B8FE97B44BAEC48A-2025-05-27-18-44-59","","null","","[]","null","",""
"","","","","","image-button-response","92","697847","0.0-14.0-1.0-0.1","45E3DC1ABFB543F7B8FE97B44BAEC48A","45E3DC1ABFB543F7B8FE97B44BAEC48A","fcfd1132-b210-4f32-a17d-5ae2bd11a444","a6b6d205-fa41-4c5b-a7a5-7fc4b51b0cea","{""num_scrambled_semantic"":""8"",""num_scrambled_causal"":""4"",""num_scrambled_schematic"":""4"",""participantId"":""45E3DC1ABFB543F7B8FE97B44BAEC48A"",""assignmentId"":""fcfd1132-b210-4f32-a17d-5ae2bd11a444"",""projectId"":""a6b6d205-fa41-4c5b-a7a5-7fc4b51b0cea""}","https://test12345.live/?num_scrambled_semantic=8&num_scrambled_causal=4&num_scrambled_schematic=4&participantId=45E3DC1ABFB543F7B8FE97B44BAEC48A&assignmentId=fcfd1132-b210-4f32-a17d-5ae2bd11a444&projectId=a6b6d205-fa41-4c5b-a7a5-7fc4b51b0cea","45E3DC1ABFB543F7B8FE97B44BAEC48A-2025-05-27-18-44-59","","null","","images/causal_sequence/coin_causal/coin_causal_1.png","null","",""
"","","","","","image-button-response","93","699692","0.0-14.0-1.0-1.1","45E3DC1ABFB543F7B8FE97B44BAEC48A","45E3DC1ABFB543F7B8FE97B44BAEC48A","fcfd1132-b210-4f32-a17d-5ae2bd11a444","a6b6d205-fa41-4c5b-a7a5-7fc4b51b0cea","{""num_scrambled_semantic"":""8"",""num_scrambled_causal"":""4"",""num_scrambled_schematic"":""4"",""participantId"":""45E3DC1ABFB543F7B8FE97B44BAEC48A"",""assignmentId"":""fcfd1132-b210-4f32-a17d-5ae2bd11a444"",""projectId"":""a6b6d205-fa41-4c5b-a7a5-7fc4b51b0cea""}","https://test12345.live/?num_scrambled_semantic=8&num_scrambled_causal=4&num_scrambled_schematic=4&participantId=45E3DC1ABFB543F7B8FE97B44BAEC48A&assignmentId=fcfd1132-b210-4f32-a17d-5ae2bd11a444&projectId=a6b6d205-fa41-4c5b-a7a5-7fc4b51b0cea","45E3DC1ABFB543F7B8FE97B44BAEC48A-2025-05-27-18-44-59","","1843","","images/causal_sequence/coin_causal/coin_causal_1.png","0","",""
"","","","","","image-button-response","94","701497","0.0-14.0-1.0-2.1","45E3DC1ABFB543F7B8FE97B44BAEC48A","45E3DC1ABFB543F7B8FE97B44BAEC48A","fcfd1132-b210-4f32-a17d-5ae2bd11a444","a6b6d205-fa41-4c5b-a7a5-7fc4b51b0cea","{""num_scrambled_semantic"":""8"",""num_scrambled_causal"":""4"",""num_scrambled_schematic"":""4"",""participantId"":""45E3DC1ABFB543F7B8FE97B44BAEC48A"",""assignmentId"":""fcfd1132-b210-4f32-a17d-5ae2bd11a444"",""projectId"":""a6b6d205-fa41-4c5b-a7a5-7fc4b51b0cea""}","https://test12345.live/?num_scrambled_semantic=8&num_scrambled_causal=4&num_scrambled_schematic=4&participantId=45E3DC1ABFB543F7B8FE97B44BAEC48A&assignmentId=fcfd1132-b210-4f32-a17d-5ae2bd11a444&projectId=a6b6d205-fa41-4c5b-a7a5-7fc4b51b0cea","45E3DC1ABFB543F7B8FE97B44BAEC48A-2025-05-27-18-44-59","","null","","[]","null","",""
"","","","","","image-button-response","95","706005","0.0-14.0-1.0-0.2","45E3DC1ABFB543F7B8FE97B44BAEC48A","45E3DC1ABFB543F7B8FE97B44BAEC48A","fcfd1132-b210-4f32-a17d-5ae2bd11a444","a6b6d205-fa41-4c5b-a7a5-7fc4b51b0cea","{""num_scrambled_semantic"":""8"",""num_scrambled_causal"":""4"",""num_scrambled_schematic"":""4"",""participantId"":""45E3DC1ABFB543F7B8FE97B44BAEC48A"",""assignmentId"":""fcfd1132-b210-4f32-a17d-5ae2bd11a444"",""projectId"":""a6b6d205-fa41-4c5b-a7a5-7fc4b51b0cea""}","https://test12345.live/?num_scrambled_semantic=8&num_scrambled_causal=4&num_scrambled_schematic=4&participantId=45E3DC1ABFB543F7B8FE97B44BAEC48A&assignmentId=fcfd1132-b210-4f32-a17d-5ae2bd11a444&projectId=a6b6d205-fa41-4c5b-a7a5-7fc4b51b0cea","45E3DC1ABFB543F7B8FE97B44BAEC48A-2025-05-27-18-44-59","","null","","images/causal_sequence/coin_causal/coin_causal_9.png","null","",""
"","","","","","image-button-response","96","707348","0.0-14.0-1.0-1.2","45E3DC1ABFB543F7B8FE97B44BAEC48A","45E3DC1ABFB543F7B8FE97B44BAEC48A","fcfd1132-b210-4f32-a17d-5ae2bd11a444","a6b6d205-fa41-4c5b-a7a5-7fc4b51b0cea","{""num_scrambled_semantic"":""8"",""num_scrambled_causal"":""4"",""num_scrambled_schematic"":""4"",""participantId"":""45E3DC1ABFB543F7B8FE97B44BAEC48A"",""assignmentId"":""fcfd1132-b210-4f32-a17d-5ae2bd11a444"",""projectId"":""a6b6d205-fa41-4c5b-a7a5-7fc4b51b0cea""}","https://test12345.live/?num_scrambled_semantic=8&num_scrambled_causal=4&num_scrambled_schematic=4&participantId=45E3DC1ABFB543F7B8FE97B44BAEC48A&assignmentId=fcfd1132-b210-4f32-a17d-5ae2bd11a444&projectId=a6b6d205-fa41-4c5b-a7a5-7fc4b51b0cea","45E3DC1ABFB543F7B8FE97B44BAEC48A-2025-05-27-18-44-59","","1342","","images/causal_sequence/coin_causal/coin_causal_9.png","0","",""
"","","","","","image-button-response","97","709152","0.0-14.0-1.0-2.2","45E3DC1ABFB543F7B8FE97B44BAEC48A","45E3DC1ABFB543F7B8FE97B44BAEC48A","fcfd1132-b210-4f32-a17d-5ae2bd11a444","a6b6d205-fa41-4c5b-a7a5-7fc4b51b0cea","{""num_scrambled_semantic"":""8"",""num_scrambled_causal"":""4"",""num_scrambled_schematic"":""4"",""participantId"":""45E3DC1ABFB543F7B8FE97B44BAEC48A"",""assignmentId"":""fcfd1132-b210-4f32-a17d-5ae2bd11a444"",""projectId"":""a6b6d205-fa41-4c5b-a7a5-7fc4b51b0cea""}","https://test12345.live/?num_scrambled_semantic=8&num_scrambled_causal=4&num_scrambled_schematic=4&participantId=45E3DC1ABFB543F7B8FE97B44BAEC48A&assignmentId=fcfd1132-b210-4f32-a17d-5ae2bd11a444&projectId=a6b6d205-fa41-4c5b-a7a5-7fc4b51b0cea","45E3DC1ABFB543F7B8FE97B44BAEC48A-2025-05-27-18-44-59","","null","","[]","null","",""
"","","","","","image-button-response","98","713664","0.0-14.0-1.0-0.3","45E3DC1ABFB543F7B8FE97B44BAEC48A","45E3DC1ABFB543F7B8FE97B44BAEC48A","fcfd1132-b210-4f32-a17d-5ae2bd11a444","a6b6d205-fa41-4c5b-a7a5-7fc4b51b0cea","{""num_scrambled_semantic"":""8"",""num_scrambled_causal"":""4"",""num_scrambled_schematic"":""4"",""participantId"":""45E3DC1ABFB543F7B8FE97B44BAEC48A"",""assignmentId"":""fcfd1132-b210-4f32-a17d-5ae2bd11a444"",""projectId"":""a6b6d205-fa41-4c5b-a7a5-7fc4b51b0cea""}","https://test12345.live/?num_scrambled_semantic=8&num_scrambled_causal=4&num_scrambled_schematic=4&participantId=45E3DC1ABFB543F7B8FE97B44BAEC48A&assignmentId=fcfd1132-b210-4f32-a17d-5ae2bd11a444&projectId=a6b6d205-fa41-4c5b-a7a5-7fc4b51b0cea","45E3DC1ABFB543F7B8FE97B44BAEC48A-2025-05-27-18-44-59","","null","","images/causal_sequence/coin_causal/coin_causal_5.png","null","",""
"","","","","","image-button-response","99","714999","0.0-14.0-1.0-1.3","45E3DC1ABFB543F7B8FE97B44BAEC48A","45E3DC1ABFB543F7B8FE97B44BAEC48A","fcfd1132-b210-4f32-a17d-5ae2bd11a444","a6b6d205-fa41-4c5b-a7a5-7fc4b51b0cea","{""num_scrambled_semantic"":""8"",""num_scrambled_causal"":""4"",""num_scrambled_schematic"":""4"",""participantId"":""45E3DC1ABFB543F7B8FE97B44BAEC48A"",""assignmentId"":""fcfd1132-b210-4f32-a17d-5ae2bd11a444"",""projectId"":""a6b6d205-fa41-4c5b-a7a5-7fc4b51b0cea""}","https://test12345.live/?num_scrambled_semantic=8&num_scrambled_causal=4&num_scrambled_schematic=4&participantId=45E3DC1ABFB543F7B8FE97B44BAEC48A&assignmentId=fcfd1132-b210-4f32-a17d-5ae2bd11a444&projectId=a6b6d205-fa41-4c5b-a7a5-7fc4b51b0cea","45E3DC1ABFB543F7B8FE97B44BAEC48A-2025-05-27-18-44-59","","1334","","images/causal_sequence/coin_causal/coin_causal_5.png","0","",""
"","","","","","image-button-response","100","716809","0.0-14.0-1.0-2.3","45E3DC1ABFB543F7B8FE97B44BAEC48A","45E3DC1ABFB543F7B8FE97B44BAEC48A","fcfd1132-b210-4f32-a17d-5ae2bd11a444","a6b6d205-fa41-4c5b-a7a5-7fc4b51b0cea","{""num_scrambled_semantic"":""8"",""num_scrambled_causal"":""4"",""num_scrambled_schematic"":""4"",""participantId"":""45E3DC1ABFB543F7B8FE97B44BAEC48A"",""assignmentId"":""fcfd1132-b210-4f32-a17d-5ae2bd11a444"",""projectId"":""a6b6d205-fa41-4c5b-a7a5-7fc4b51b0cea""}","https://test12345.live/?num_scrambled_semantic=8&num_scrambled_causal=4&num_scrambled_schematic=4&participantId=45E3DC1ABFB543F7B8FE97B44BAEC48A&assignmentId=fcfd1132-b210-4f32-a17d-5ae2bd11a444&projectId=a6b6d205-fa41-4c5b-a7a5-7fc4b51b0cea","45E3DC1ABFB543F7B8FE97B44BAEC48A-2025-05-27-18-44-59","","null","","[]","null","",""
"","","","","","image-button-response","101","721315","0.0-14.0-1.0-0.4","45E3DC1ABFB543F7B8FE97B44BAEC48A","45E3DC1ABFB543F7B8FE97B44BAEC48A","fcfd1132-b210-4f32-a17d-5ae2bd11a444","a6b6d205-fa41-4c5b-a7a5-7fc4b51b0cea","{""num_scrambled_semantic"":""8"",""num_scrambled_causal"":""4"",""num_scrambled_schematic"":""4"",""participantId"":""45E3DC1ABFB543F7B8FE97B44BAEC48A"",""assignmentId"":""fcfd1132-b210-4f32-a17d-5ae2bd11a444"",""projectId"":""a6b6d205-fa41-4c5b-a7a5-7fc4b51b0cea""}","https://test12345.live/?num_scrambled_semantic=8&num_scrambled_causal=4&num_scrambled_schematic=4&participantId=45E3DC1ABFB543F7B8FE97B44BAEC48A&assignmentId=fcfd1132-b210-4f32-a17d-5ae2bd11a444&projectId=a6b6d205-fa41-4c5b-a7a5-7fc4b51b0cea","45E3DC1ABFB543F7B8FE97B44BAEC48A-2025-05-27-18-44-59","","null","","images/causal_sequence/coin_causal/coin_causal_8.png","null","",""
"","","","","","image-button-response","102","722638","0.0-14.0-1.0-1.4","45E3DC1ABFB543F7B8FE97B44BAEC48A","45E3DC1ABFB543F7B8FE97B44BAEC48A","fcfd1132-b210-4f32-a17d-5ae2bd11a444","a6b6d205-fa41-4c5b-a7a5-7fc4b51b0cea","{""num_scrambled_semantic"":""8"",""num_scrambled_causal"":""4"",""num_scrambled_schematic"":""4"",""participantId"":""45E3DC1ABFB543F7B8FE97B44BAEC48A"",""assignmentId"":""fcfd1132-b210-4f32-a17d-5ae2bd11a444"",""projectId"":""a6b6d205-fa41-4c5b-a7a5-7fc4b51b0cea""}","https://test12345.live/?num_scrambled_semantic=8&num_scrambled_causal=4&num_scrambled_schematic=4&participantId=45E3DC1ABFB543F7B8FE97B44BAEC48A&assignmentId=fcfd1132-b210-4f32-a17d-5ae2bd11a444&projectId=a6b6d205-fa41-4c5b-a7a5-7fc4b51b0cea","45E3DC1ABFB543F7B8FE97B44BAEC48A-2025-05-27-18-44-59","","1322","","images/causal_sequence/coin_causal/coin_causal_8.png","0","",""
"","","","","","image-button-response","103","724447","0.0-14.0-1.0-2.4","45E3DC1ABFB543F7B8FE97B44BAEC48A","45E3DC1ABFB543F7B8FE97B44BAEC48A","fcfd1132-b210-4f32-a17d-5ae2bd11a444","a6b6d205-fa41-4c5b-a7a5-7fc4b51b0cea","{""num_scrambled_semantic"":""8"",""num_scrambled_causal"":""4"",""num_scrambled_schematic"":""4"",""participantId"":""45E3DC1ABFB543F7B8FE97B44BAEC48A"",""assignmentId"":""fcfd1132-b210-4f32-a17d-5ae2bd11a444"",""projectId"":""a6b6d205-fa41-4c5b-a7a5-7fc4b51b0cea""}","https://test12345.live/?num_scrambled_semantic=8&num_scrambled_causal=4&num_scrambled_schematic=4&participantId=45E3DC1ABFB543F7B8FE97B44BAEC48A&assignmentId=fcfd1132-b210-4f32-a17d-5ae2bd11a444&projectId=a6b6d205-fa41-4c5b-a7a5-7fc4b51b0cea","45E3DC1ABFB543F7B8FE97B44BAEC48A-2025-05-27-18-44-59","","null","","[]","null","",""
"","","","","","image-button-response","104","728950","0.0-14.0-1.0-0.5","45E3DC1ABFB543F7B8FE97B44BAEC48A","45E3DC1ABFB543F7B8FE97B44BAEC48A","fcfd1132-b210-4f32-a17d-5ae2bd11a444","a6b6d205-fa41-4c5b-a7a5-7fc4b51b0cea","{""num_scrambled_semantic"":""8"",""num_scrambled_causal"":""4"",""num_scrambled_schematic"":""4"",""participantId"":""45E3DC1ABFB543F7B8FE97B44BAEC48A"",""assignmentId"":""fcfd1132-b210-4f32-a17d-5ae2bd11a444"",""projectId"":""a6b6d205-fa41-4c5b-a7a5-7fc4b51b0cea""}","https://test12345.live/?num_scrambled_semantic=8&num_scrambled_causal=4&num_scrambled_schematic=4&participantId=45E3DC1ABFB543F7B8FE97B44BAEC48A&assignmentId=fcfd1132-b210-4f32-a17d-5ae2bd11a444&projectId=a6b6d205-fa41-4c5b-a7a5-7fc4b51b0cea","45E3DC1ABFB543F7B8FE97B44BAEC48A-2025-05-27-18-44-59","","null","","images/causal_sequence/coin_causal/coin_causal_3.png","null","",""
"","","","","","image-button-response","105","730181","0.0-14.0-1.0-1.5","45E3DC1ABFB543F7B8FE97B44BAEC48A","45E3DC1ABFB543F7B8FE97B44BAEC48A","fcfd1132-b210-4f32-a17d-5ae2bd11a444","a6b6d205-fa41-4c5b-a7a5-7fc4b51b0cea","{""num_scrambled_semantic"":""8"",""num_scrambled_causal"":""4"",""num_scrambled_schematic"":""4"",""participantId"":""45E3DC1ABFB543F7B8FE97B44BAEC48A"",""assignmentId"":""fcfd1132-b210-4f32-a17d-5ae2bd11a444"",""projectId"":""a6b6d205-fa41-4c5b-a7a5-7fc4b51b0cea""}","https://test12345.live/?num_scrambled_semantic=8&num_scrambled_causal=4&num_scrambled_schematic=4&participantId=45E3DC1ABFB543F7B8FE97B44BAEC48A&assignmentId=fcfd1132-b210-4f32-a17d-5ae2bd11a444&projectId=a6b6d205-fa41-4c5b-a7a5-7fc4b51b0cea","45E3DC1ABFB543F7B8FE97B44BAEC48A-2025-05-27-18-44-59","","1228","","images/causal_sequence/coin_causal/coin_causal_3.png","0","",""
"","","","","","image-button-response","106","731991","0.0-14.0-1.0-2.5","45E3DC1ABFB543F7B8FE97B44BAEC48A","45E3DC1ABFB543F7B8FE97B44BAEC48A","fcfd1132-b210-4f32-a17d-5ae2bd11a444","a6b6d205-fa41-4c5b-a7a5-7fc4b51b0cea","{""num_scrambled_semantic"":""8"",""num_scrambled_causal"":""4"",""num_scrambled_schematic"":""4"",""participantId"":""45E3DC1ABFB543F7B8FE97B44BAEC48A"",""assignmentId"":""fcfd1132-b210-4f32-a17d-5ae2bd11a444"",""projectId"":""a6b6d205-fa41-4c5b-a7a5-7fc4b51b0cea""}","https://test12345.live/?num_scrambled_semantic=8&num_scrambled_causal=4&num_scrambled_schematic=4&participantId=45E3DC1ABFB543F7B8FE97B44BAEC48A&assignmentId=fcfd1132-b210-4f32-a17d-5ae2bd11a444&projectId=a6b6d205-fa41-4c5b-a7a5-7fc4b51b0cea","45E3DC1ABFB543F7B8FE97B44BAEC48A-2025-05-27-18-44-59","","null","","[]","null","",""
"","","","","","image-button-response","107","736507","0.0-14.0-1.0-0.6","45E3DC1ABFB543F7B8FE97B44BAEC48A","45E3DC1ABFB543F7B8FE97B44BAEC48A","fcfd1132-b210-4f32-a17d-5ae2bd11a444","a6b6d205-fa41-4c5b-a7a5-7fc4b51b0cea","{""num_scrambled_semantic"":""8"",""num_scrambled_causal"":""4"",""num_scrambled_schematic"":""4"",""participantId"":""45E3DC1ABFB543F7B8FE97B44BAEC48A"",""assignmentId"":""fcfd1132-b210-4f32-a17d-5ae2bd11a444"",""projectId"":""a6b6d205-fa41-4c5b-a7a5-7fc4b51b0cea""}","https://test12345.live/?num_scrambled_semantic=8&num_scrambled_causal=4&num_scrambled_schematic=4&participantId=45E3DC1ABFB543F7B8FE97B44BAEC48A&assignmentId=fcfd1132-b210-4f32-a17d-5ae2bd11a444&projectId=a6b6d205-fa41-4c5b-a7a5-7fc4b51b0cea","45E3DC1ABFB543F7B8FE97B44BAEC48A-2025-05-27-18-44-59","","null","","images/causal_sequence/coin_causal/coin_causal_ten.png","null","",""
"","","","","","image-button-response","108","737714","0.0-14.0-1.0-1.6","45E3DC1ABFB543F7B8FE97B44BAEC48A","45E3DC1ABFB543F7B8FE97B44BAEC48A","fcfd1132-b210-4f32-a17d-5ae2bd11a444","a6b6d205-fa41-4c5b-a7a5-7fc4b51b0cea","{""num_scrambled_semantic"":""8"",""num_scrambled_causal"":""4"",""num_scrambled_schematic"":""4"",""participantId"":""45E3DC1ABFB543F7B8FE97B44BAEC48A"",""assignmentId"":""fcfd1132-b210-4f32-a17d-5ae2bd11a444"",""projectId"":""a6b6d205-fa41-4c5b-a7a5-7fc4b51b0cea""}","https://test12345.live/?num_scrambled_semantic=8&num_scrambled_causal=4&num_scrambled_schematic=4&participantId=45E3DC1ABFB543F7B8FE97B44BAEC48A&assignmentId=fcfd1132-b210-4f32-a17d-5ae2bd11a444&projectId=a6b6d205-fa41-4c5b-a7a5-7fc4b51b0cea","45E3DC1ABFB543F7B8FE97B44BAEC48A-2025-05-27-18-44-59","","1206","","images/causal_sequence/coin_causal/coin_causal_ten.png","0","",""
"","","","","","image-button-response","109","739522","0.0-14.0-1.0-2.6","45E3DC1ABFB543F7B8FE97B44BAEC48A","45E3DC1ABFB543F7B8FE97B44BAEC48A","fcfd1132-b210-4f32-a17d-5ae2bd11a444","a6b6d205-fa41-4c5b-a7a5-7fc4b51b0cea","{""num_scrambled_semantic"":""8"",""num_scrambled_causal"":""4"",""num_scrambled_schematic"":""4"",""participantId"":""45E3DC1ABFB543F7B8FE97B44BAEC48A"",""assignmentId"":""fcfd1132-b210-4f32-a17d-5ae2bd11a444"",""projectId"":""a6b6d205-fa41-4c5b-a7a5-7fc4b51b0cea""}","https://test12345.live/?num_scrambled_semantic=8&num_scrambled_causal=4&num_scrambled_schematic=4&participantId=45E3DC1ABFB543F7B8FE97B44BAEC48A&assignmentId=fcfd1132-b210-4f32-a17d-5ae2bd11a444&projectId=a6b6d205-fa41-4c5b-a7a5-7fc4b51b0cea","45E3DC1ABFB543F7B8FE97B44BAEC48A-2025-05-27-18-44-59","","null","","[]","null","",""
"","","","","","image-button-response","110","744026","0.0-14.0-1.0-0.7","45E3DC1ABFB543F7B8FE97B44BAEC48A","45E3DC1ABFB543F7B8FE97B44BAEC48A","fcfd1132-b210-4f32-a17d-5ae2bd11a444","a6b6d205-fa41-4c5b-a7a5-7fc4b51b0cea","{""num_scrambled_semantic"":""8"",""num_scrambled_causal"":""4"",""num_scrambled_schematic"":""4"",""participantId"":""45E3DC1ABFB543F7B8FE97B44BAEC48A"",""assignmentId"":""fcfd1132-b210-4f32-a17d-5ae2bd11a444"",""projectId"":""a6b6d205-fa41-4c5b-a7a5-7fc4b51b0cea""}","https://test12345.live/?num_scrambled_semantic=8&num_scrambled_causal=4&num_scrambled_schematic=4&participantId=45E3DC1ABFB543F7B8FE97B44BAEC48A&assignmentId=fcfd1132-b210-4f32-a17d-5ae2bd11a444&projectId=a6b6d205-fa41-4c5b-a7a5-7fc4b51b0cea","45E3DC1ABFB543F7B8FE97B44BAEC48A-2025-05-27-18-44-59","","null","","images/causal_sequence/coin_causal/coin_causal_2.png","null","",""
"","","","","","image-button-response","111","745267","0.0-14.0-1.0-1.7","45E3DC1ABFB543F7B8FE97B44BAEC48A","45E3DC1ABFB543F7B8FE97B44BAEC48A","fcfd1132-b210-4f32-a17d-5ae2bd11a444","a6b6d205-fa41-4c5b-a7a5-7fc4b51b0cea","{""num_scrambled_semantic"":""8"",""num_scrambled_causal"":""4"",""num_scrambled_schematic"":""4"",""participantId"":""45E3DC1ABFB543F7B8FE97B44BAEC48A"",""assignmentId"":""fcfd1132-b210-4f32-a17d-5ae2bd11a444"",""projectId"":""a6b6d205-fa41-4c5b-a7a5-7fc4b51b0cea""}","https://test12345.live/?num_scrambled_semantic=8&num_scrambled_causal=4&num_scrambled_schematic=4&participantId=45E3DC1ABFB543F7B8FE97B44BAEC48A&assignmentId=fcfd1132-b210-4f32-a17d-5ae2bd11a444&projectId=a6b6d205-fa41-4c5b-a7a5-7fc4b51b0cea","45E3DC1ABFB543F7B8FE97B44BAEC48A-2025-05-27-18-44-59","","1239","","images/causal_sequence/coin_causal/coin_causal_2.png","0","",""
"","","","","","image-button-response","112","747070","0.0-14.0-1.0-2.7","45E3DC1ABFB543F7B8FE97B44BAEC48A","45E3DC1ABFB543F7B8FE97B44BAEC48A","fcfd1132-b210-4f32-a17d-5ae2bd11a444","a6b6d205-fa41-4c5b-a7a5-7fc4b51b0cea","{""num_scrambled_semantic"":""8"",""num_scrambled_causal"":""4"",""num_scrambled_schematic"":""4"",""participantId"":""45E3DC1ABFB543F7B8FE97B44BAEC48A"",""assignmentId"":""fcfd1132-b210-4f32-a17d-5ae2bd11a444"",""projectId"":""a6b6d205-fa41-4c5b-a7a5-7fc4b51b0cea""}","https://test12345.live/?num_scrambled_semantic=8&num_scrambled_causal=4&num_scrambled_schematic=4&participantId=45E3DC1ABFB543F7B8FE97B44BAEC48A&assignmentId=fcfd1132-b210-4f32-a17d-5ae2bd11a444&projectId=a6b6d205-fa41-4c5b-a7a5-7fc4b51b0cea","45E3DC1ABFB543F7B8FE97B44BAEC48A-2025-05-27-18-44-59","","null","","[]","null","",""
"","","","","","image-button-response","113","751586","0.0-14.0-1.0-0.8","45E3DC1ABFB543F7B8FE97B44BAEC48A","45E3DC1ABFB543F7B8FE97B44BAEC48A","fcfd1132-b210-4f32-a17d-5ae2bd11a444","a6b6d205-fa41-4c5b-a7a5-7fc4b51b0cea","{""num_scrambled_semantic"":""8"",""num_scrambled_causal"":""4"",""num_scrambled_schematic"":""4"",""participantId"":""45E3DC1ABFB543F7B8FE97B44BAEC48A"",""assignmentId"":""fcfd1132-b210-4f32-a17d-5ae2bd11a444"",""projectId"":""a6b6d205-fa41-4c5b-a7a5-7fc4b51b0cea""}","https://test12345.live/?num_scrambled_semantic=8&num_scrambled_causal=4&num_scrambled_schematic=4&participantId=45E3DC1ABFB543F7B8FE97B44BAEC48A&assignmentId=fcfd1132-b210-4f32-a17d-5ae2bd11a444&projectId=a6b6d205-fa41-4c5b-a7a5-7fc4b51b0cea","45E3DC1ABFB543F7B8FE97B44BAEC48A-2025-05-27-18-44-59","","null","","images/causal_sequence/coin_causal/coin_causal_4.png","null","",""
"","","","","","image-button-response","114","752630","0.0-14.0-1.0-1.8","45E3DC1ABFB543F7B8FE97B44BAEC48A","45E3DC1ABFB543F7B8FE97B44BAEC48A","fcfd1132-b210-4f32-a17d-5ae2bd11a444","a6b6d205-fa41-4c5b-a7a5-7fc4b51b0cea","{""num_scrambled_semantic"":""8"",""num_scrambled_causal"":""4"",""num_scrambled_schematic"":""4"",""participantId"":""45E3DC1ABFB543F7B8FE97B44BAEC48A"",""assignmentId"":""fcfd1132-b210-4f32-a17d-5ae2bd11a444"",""projectId"":""a6b6d205-fa41-4c5b-a7a5-7fc4b51b0cea""}","https://test12345.live/?num_scrambled_semantic=8&num_scrambled_causal=4&num_scrambled_schematic=4&participantId=45E3DC1ABFB543F7B8FE97B44BAEC48A&assignmentId=fcfd1132-b210-4f32-a17d-5ae2bd11a444&projectId=a6b6d205-fa41-4c5b-a7a5-7fc4b51b0cea","45E3DC1ABFB543F7B8FE97B44BAEC48A-2025-05-27-18-44-59","","1043","","images/causal_sequence/coin_causal/coin_causal_4.png","0","",""
