"success","timeout","failed_images","failed_audio","failed_video","trial_type","trial_index","time_elapsed","internal_node_id","subject","subject_id","study_id","session_id","urlvar","current_url","audio_id","view_history","rt","device_id","stimulus","response","estimated_stimulus_onset","seq_name"
"true","false","[]","[]","[]","preload","0","54163","0.0-0.0","45F3B52EB83A49E49D4C7F95087F5681","45F3B52EB83A49E49D4C7F95087F5681","0198bea0-9aa5-7eba-ab65-4b6838d58e1f","0198be8b-78cf-72d2-ba2b-1e62c78022e0","{""num_scrambled_semantic"":""8"",""num_scrambled_causal"":""4"",""num_scrambled_schematic"":""4"",""participantId"":""45F3B52EB83A49E49D4C7F95087F5681"",""assignmentId"":""0198bea0-9aa5-7eba-ab65-4b6838d58e1f"",""projectId"":""0198be8b-78cf-72d2-ba2b-1e62c78022e0""}","https://test12345.live/?num_scrambled_semantic=8&num_scrambled_causal=4&num_scrambled_schematic=4&participantId=45F3B52EB83A49E49D4C7F95087F5681&assignmentId=0198bea0-9aa5-7eba-ab65-4b6838d58e1f&projectId=0198be8b-78cf-72d2-ba2b-1e62c78022e0","45F3B52EB83A49E49D4C7F95087F5681-2025-08-18-20-06-11","","","","","","",""
"","","","","","instructions","1","114649","0.0-1.0","45F3B52EB83A49E49D4C7F95087F5681","45F3B52EB83A49E49D4C7F95087F5681","0198bea0-9aa5-7eba-ab65-4b6838d58e1f","0198be8b-78cf-72d2-ba2b-1e62c78022e0","{""num_scrambled_semantic"":""8"",""num_scrambled_causal"":""4"",""num_scrambled_schematic"":""4"",""participantId"":""45F3B52EB83A49E49D4C7F95087F5681"",""assignmentId"":""0198bea0-9aa5-7eba-ab65-4b6838d58e1f"",""projectId"":""0198be8b-78cf-72d2-ba2b-1e62c78022e0""}","https://test12345.live/?num_scrambled_semantic=8&num_scrambled_causal=4&num_scrambled_schematic=4&participantId=45F3B52EB83A49E49D4C7F95087F5681&assignmentId=0198bea0-9aa5-7eba-ab65-4b6838d58e1f&projectId=0198be8b-78cf-72d2-ba2b-1e62c78022e0","45F3B52EB83A49E49D4C7F95087F5681-2025-08-18-20-06-11","[{""page_index"":0,""viewing_time"":60486}]","60487","","","","",""
"","","","","","instructions","2","366915","0.0-2.0","45F3B52EB83A49E49D4C7F95087F5681","45F3B52EB83A49E49D4C7F95087F5681","0198bea0-9aa5-7eba-ab65-4b6838d58e1f","0198be8b-78cf-72d2-ba2b-1e62c78022e0","{""num_scrambled_semantic"":""8"",""num_scrambled_causal"":""4"",""num_scrambled_schematic"":""4"",""participantId"":""45F3B52EB83A49E49D4C7F95087F5681"",""assignmentId"":""0198bea0-9aa5-7eba-ab65-4b6838d58e1f"",""projectId"":""0198be8b-78cf-72d2-ba2b-1e62c78022e0""}","https://test12345.live/?num_scrambled_semantic=8&num_scrambled_causal=4&num_scrambled_schematic=4&participantId=45F3B52EB83A49E49D4C7F95087F5681&assignmentId=0198bea0-9aa5-7eba-ab65-4b6838d58e1f&projectId=0198be8b-78cf-72d2-ba2b-1e62c78022e0","45F3B52EB83A49E49D4C7F95087F5681-2025-08-18-20-06-11","[{""page_index"":0,""viewing_time"":252269}]","252269","","","","",""
"true","","","","","fullscreen","3","369437","0.0-3.0","45F3B52EB83A49E49D4C7F95087F5681","45F3B52EB83A49E49D4C7F95087F5681","0198bea0-9aa5-7eba-ab65-4b6838d58e1f","0198be8b-78cf-72d2-ba2b-1e62c78022e0","{""num_scrambled_semantic"":""8"",""num_scrambled_causal"":""4"",""num_scrambled_schematic"":""4"",""participantId"":""45F3B52EB83A49E49D4C7F95087F5681"",""assignmentId"":""0198bea0-9aa5-7eba-ab65-4b6838d58e1f"",""projectId"":""0198be8b-78cf-72d2-ba2b-1e62c78022e0""}","https://test12345.live/?num_scrambled_semantic=8&num_scrambled_causal=4&num_scrambled_schematic=4&participantId=45F3B52EB83A49E49D4C7F95087F5681&assignmentId=0198bea0-9aa5-7eba-ab65-4b6838d58e1f&projectId=0198be8b-78cf-72d2-ba2b-1e62c78022e0","45F3B52EB83A49E49D4C7F95087F5681-2025-08-18-20-06-11","","1517","","","","",""
"","","","","","initialize-microphone","4","376113","0.0-4.0-0.0","45F3B52EB83A49E49D4C7F95087F5681","45F3B52EB83A49E49D4C7F95087F5681","0198bea0-9aa5-7eba-ab65-4b6838d58e1f","0198be8b-78cf-72d2-ba2b-1e62c78022e0","{""num_scrambled_semantic"":""8"",""num_scrambled_causal"":""4"",""num_scrambled_schematic"":""4"",""participantId"":""45F3B52EB83A49E49D4C7F95087F5681"",""assignmentId"":""0198bea0-9aa5-7eba-ab65-4b6838d58e1f"",""projectId"":""0198be8b-78cf-72d2-ba2b-1e62c78022e0""}","https://test12345.live/?num_scrambled_semantic=8&num_scrambled_causal=4&num_scrambled_schematic=4&participantId=45F3B52EB83A49E49D4C7F95087F5681&assignmentId=0198bea0-9aa5-7eba-ab65-4b6838d58e1f&projectId=0198be8b-78cf-72d2-ba2b-1e62c78022e0","45F3B52EB83A49E49D4C7F95087F5681-2025-08-18-20-06-11","","","c75886b2573626aa762da4bd2af09652bd1888d34e56ba2ff1e8de8b64d4992f","","","",""
"","","","","","html-audio-response","5","387483","0.0-4.0-1.0","45F3B52EB83A49E49D4C7F95087F5681","45F3B52EB83A49E49D4C7F95087F5681","0198bea0-9aa5-7eba-ab65-4b6838d58e1f","0198be8b-78cf-72d2-ba2b-1e62c78022e0","{""num_scrambled_semantic"":""8"",""num_scrambled_causal"":""4"",""num_scrambled_schematic"":""4"",""participantId"":""45F3B52EB83A49E49D4C7F95087F5681"",""assignmentId"":""0198bea0-9aa5-7eba-ab65-4b6838d58e1f"",""projectId"":""0198be8b-78cf-72d2-ba2b-1e62c78022e0""}","https://test12345.live/?num_scrambled_semantic=8&num_scrambled_causal=4&num_scrambled_schematic=4&participantId=45F3B52EB83A49E49D4C7F95087F5681&assignmentId=0198bea0-9aa5-7eba-ab65-4b6838d58e1f&projectId=0198be8b-78cf-72d2-ba2b-1e62c78022e0","45F3B52EB83A49E49D4C7F95087F5681-2025-08-18-20-06-11","","4931","","<span style=""color: red; font-size: 24px""> NOW RECORDING</span>
        <p>Please test Microphone</p>","","16",""
"","","","","","html-button-response","6","389367","0.0-4.0-2.0","45F3B52EB83A49E49D4C7F95087F5681","45F3B52EB83A49E49D4C7F95087F5681","0198bea0-9aa5-7eba-ab65-4b6838d58e1f","0198be8b-78cf-72d2-ba2b-1e62c78022e0","{""num_scrambled_semantic"":""8"",""num_scrambled_causal"":""4"",""num_scrambled_schematic"":""4"",""participantId"":""45F3B52EB83A49E49D4C7F95087F5681"",""assignmentId"":""0198bea0-9aa5-7eba-ab65-4b6838d58e1f"",""projectId"":""0198be8b-78cf-72d2-ba2b-1e62c78022e0""}","https://test12345.live/?num_scrambled_semantic=8&num_scrambled_causal=4&num_scrambled_schematic=4&participantId=45F3B52EB83A49E49D4C7F95087F5681&assignmentId=0198bea0-9aa5-7eba-ab65-4b6838d58e1f&projectId=0198be8b-78cf-72d2-ba2b-1e62c78022e0","45F3B52EB83A49E49D4C7F95087F5681-2025-08-18-20-06-11","","1882","","<p style=""font-size:48px; color:red;"">Is Microphone OK?</p>","1","",""
"","","","","","instructions","7","402916","0.0-5.0","45F3B52EB83A49E49D4C7F95087F5681","45F3B52EB83A49E49D4C7F95087F5681","0198bea0-9aa5-7eba-ab65-4b6838d58e1f","0198be8b-78cf-72d2-ba2b-1e62c78022e0","{""num_scrambled_semantic"":""8"",""num_scrambled_causal"":""4"",""num_scrambled_schematic"":""4"",""participantId"":""45F3B52EB83A49E49D4C7F95087F5681"",""assignmentId"":""0198bea0-9aa5-7eba-ab65-4b6838d58e1f"",""projectId"":""0198be8b-78cf-72d2-ba2b-1e62c78022e0""}","https://test12345.live/?num_scrambled_semantic=8&num_scrambled_causal=4&num_scrambled_schematic=4&participantId=45F3B52EB83A49E49D4C7F95087F5681&assignmentId=0198bea0-9aa5-7eba-ab65-4b6838d58e1f&projectId=0198be8b-78cf-72d2-ba2b-1e62c78022e0","45F3B52EB83A49E49D4C7F95087F5681-2025-08-18-20-06-11","[{""page_index"":0,""viewing_time"":4063},{""page_index"":1,""viewing_time"":9484}]","13548","","","","",""
"","","","","","image-button-response","8","408923","0.0-6.0-0.0","45F3B52EB83A49E49D4C7F95087F5681","45F3B52EB83A49E49D4C7F95087F5681","0198bea0-9aa5-7eba-ab65-4b6838d58e1f","0198be8b-78cf-72d2-ba2b-1e62c78022e0","{""num_scrambled_semantic"":""8"",""num_scrambled_causal"":""4"",""num_scrambled_schematic"":""4"",""participantId"":""45F3B52EB83A49E49D4C7F95087F5681"",""assignmentId"":""0198bea0-9aa5-7eba-ab65-4b6838d58e1f"",""projectId"":""0198be8b-78cf-72d2-ba2b-1e62c78022e0""}","https://test12345.live/?num_scrambled_semantic=8&num_scrambled_causal=4&num_scrambled_schematic=4&participantId=45F3B52EB83A49E49D4C7F95087F5681&assignmentId=0198bea0-9aa5-7eba-ab65-4b6838d58e1f&projectId=0198be8b-78cf-72d2-ba2b-1e62c78022e0","45F3B52EB83A49E49D4C7F95087F5681-2025-08-18-20-06-11","","null","","images/instructions/movie_0.png","null","",""
"","","","","","image-button-response","9","413428","0.0-6.0-1.0-0.0","45F3B52EB83A49E49D4C7F95087F5681","45F3B52EB83A49E49D4C7F95087F5681","0198bea0-9aa5-7eba-ab65-4b6838d58e1f","0198be8b-78cf-72d2-ba2b-1e62c78022e0","{""num_scrambled_semantic"":""8"",""num_scrambled_causal"":""4"",""num_scrambled_schematic"":""4"",""participantId"":""45F3B52EB83A49E49D4C7F95087F5681"",""assignmentId"":""0198bea0-9aa5-7eba-ab65-4b6838d58e1f"",""projectId"":""0198be8b-78cf-72d2-ba2b-1e62c78022e0""}","https://test12345.live/?num_scrambled_semantic=8&num_scrambled_causal=4&num_scrambled_schematic=4&participantId=45F3B52EB83A49E49D4C7F95087F5681&assignmentId=0198bea0-9aa5-7eba-ab65-4b6838d58e1f&projectId=0198be8b-78cf-72d2-ba2b-1e62c78022e0","45F3B52EB83A49E49D4C7F95087F5681-2025-08-18-20-06-11","","null","","images/instructions/movie_1.png","null","",""
"","","","","","image-button-response","10","416600","0.0-6.0-1.0-1.0","45F3B52EB83A49E49D4C7F95087F5681","45F3B52EB83A49E49D4C7F95087F5681","0198bea0-9aa5-7eba-ab65-4b6838d58e1f","0198be8b-78cf-72d2-ba2b-1e62c78022e0","{""num_scrambled_semantic"":""8"",""num_scrambled_causal"":""4"",""num_scrambled_schematic"":""4"",""participantId"":""45F3B52EB83A49E49D4C7F95087F5681"",""assignmentId"":""0198bea0-9aa5-7eba-ab65-4b6838d58e1f"",""projectId"":""0198be8b-78cf-72d2-ba2b-1e62c78022e0""}","https://test12345.live/?num_scrambled_semantic=8&num_scrambled_causal=4&num_scrambled_schematic=4&participantId=45F3B52EB83A49E49D4C7F95087F5681&assignmentId=0198bea0-9aa5-7eba-ab65-4b6838d58e1f&projectId=0198be8b-78cf-72d2-ba2b-1e62c78022e0","45F3B52EB83A49E49D4C7F95087F5681-2025-08-18-20-06-11","","3170","","images/instructions/movie_1.png","0","",""
"","","","","","image-button-response","11","418405","0.0-6.0-1.0-2.0","45F3B52EB83A49E49D4C7F95087F5681","45F3B52EB83A49E49D4C7F95087F5681","0198bea0-9aa5-7eba-ab65-4b6838d58e1f","0198be8b-78cf-72d2-ba2b-1e62c78022e0","{""num_scrambled_semantic"":""8"",""num_scrambled_causal"":""4"",""num_scrambled_schematic"":""4"",""participantId"":""45F3B52EB83A49E49D4C7F95087F5681"",""assignmentId"":""0198bea0-9aa5-7eba-ab65-4b6838d58e1f"",""projectId"":""0198be8b-78cf-72d2-ba2b-1e62c78022e0""}","https://test12345.live/?num_scrambled_semantic=8&num_scrambled_causal=4&num_scrambled_schematic=4&participantId=45F3B52EB83A49E49D4C7F95087F5681&assignmentId=0198bea0-9aa5-7eba-ab65-4b6838d58e1f&projectId=0198be8b-78cf-72d2-ba2b-1e62c78022e0","45F3B52EB83A49E49D4C7F95087F5681-2025-08-18-20-06-11","","null","","[]","null","",""
"","","","","","image-button-response","12","422912","0.0-6.0-1.0-0.1","45F3B52EB83A49E49D4C7F95087F5681","45F3B52EB83A49E49D4C7F95087F5681","0198bea0-9aa5-7eba-ab65-4b6838d58e1f","0198be8b-78cf-72d2-ba2b-1e62c78022e0","{""num_scrambled_semantic"":""8"",""num_scrambled_causal"":""4"",""num_scrambled_schematic"":""4"",""participantId"":""45F3B52EB83A49E49D4C7F95087F5681"",""assignmentId"":""0198bea0-9aa5-7eba-ab65-4b6838d58e1f"",""projectId"":""0198be8b-78cf-72d2-ba2b-1e62c78022e0""}","https://test12345.live/?num_scrambled_semantic=8&num_scrambled_causal=4&num_scrambled_schematic=4&participantId=45F3B52EB83A49E49D4C7F95087F5681&assignmentId=0198bea0-9aa5-7eba-ab65-4b6838d58e1f&projectId=0198be8b-78cf-72d2-ba2b-1e62c78022e0","45F3B52EB83A49E49D4C7F95087F5681-2025-08-18-20-06-11","","null","","images/instructions/movie_2.png","null","",""
"","","","","","image-button-response","13","426921","0.0-6.0-1.0-1.1","45F3B52EB83A49E49D4C7F95087F5681","45F3B52EB83A49E49D4C7F95087F5681","0198bea0-9aa5-7eba-ab65-4b6838d58e1f","0198be8b-78cf-72d2-ba2b-1e62c78022e0","{""num_scrambled_semantic"":""8"",""num_scrambled_causal"":""4"",""num_scrambled_schematic"":""4"",""participantId"":""45F3B52EB83A49E49D4C7F95087F5681"",""assignmentId"":""0198bea0-9aa5-7eba-ab65-4b6838d58e1f"",""projectId"":""0198be8b-78cf-72d2-ba2b-1e62c78022e0""}","https://test12345.live/?num_scrambled_semantic=8&num_scrambled_causal=4&num_scrambled_schematic=4&participantId=45F3B52EB83A49E49D4C7F95087F5681&assignmentId=0198bea0-9aa5-7eba-ab65-4b6838d58e1f&projectId=0198be8b-78cf-72d2-ba2b-1e62c78022e0","45F3B52EB83A49E49D4C7F95087F5681-2025-08-18-20-06-11","","null","","images/instructions/movie_2.png","null","",""
"","","","","","image-button-response","14","428726","0.0-6.0-1.0-2.1","45F3B52EB83A49E49D4C7F95087F5681","45F3B52EB83A49E49D4C7F95087F5681","0198bea0-9aa5-7eba-ab65-4b6838d58e1f","0198be8b-78cf-72d2-ba2b-1e62c78022e0","{""num_scrambled_semantic"":""8"",""num_scrambled_causal"":""4"",""num_scrambled_schematic"":""4"",""participantId"":""45F3B52EB83A49E49D4C7F95087F5681"",""assignmentId"":""0198bea0-9aa5-7eba-ab65-4b6838d58e1f"",""projectId"":""0198be8b-78cf-72d2-ba2b-1e62c78022e0""}","https://test12345.live/?num_scrambled_semantic=8&num_scrambled_causal=4&num_scrambled_schematic=4&participantId=45F3B52EB83A49E49D4C7F95087F5681&assignmentId=0198bea0-9aa5-7eba-ab65-4b6838d58e1f&projectId=0198be8b-78cf-72d2-ba2b-1e62c78022e0","45F3B52EB83A49E49D4C7F95087F5681-2025-08-18-20-06-11","","null","","[]","null","",""
"","","","","","image-button-response","15","433232","0.0-6.0-1.0-0.2","45F3B52EB83A49E49D4C7F95087F5681","45F3B52EB83A49E49D4C7F95087F5681","0198bea0-9aa5-7eba-ab65-4b6838d58e1f","0198be8b-78cf-72d2-ba2b-1e62c78022e0","{""num_scrambled_semantic"":""8"",""num_scrambled_causal"":""4"",""num_scrambled_schematic"":""4"",""participantId"":""45F3B52EB83A49E49D4C7F95087F5681"",""assignmentId"":""0198bea0-9aa5-7eba-ab65-4b6838d58e1f"",""projectId"":""0198be8b-78cf-72d2-ba2b-1e62c78022e0""}","https://test12345.live/?num_scrambled_semantic=8&num_scrambled_causal=4&num_scrambled_schematic=4&participantId=45F3B52EB83A49E49D4C7F95087F5681&assignmentId=0198bea0-9aa5-7eba-ab65-4b6838d58e1f&projectId=0198be8b-78cf-72d2-ba2b-1e62c78022e0","45F3B52EB83A49E49D4C7F95087F5681-2025-08-18-20-06-11","","null","","images/instructions/movie_3.png","null","",""
"","","","","","image-button-response","16","435100","0.0-6.0-1.0-1.2","45F3B52EB83A49E49D4C7F95087F5681","45F3B52EB83A49E49D4C7F95087F5681","0198bea0-9aa5-7eba-ab65-4b6838d58e1f","0198be8b-78cf-72d2-ba2b-1e62c78022e0","{""num_scrambled_semantic"":""8"",""num_scrambled_causal"":""4"",""num_scrambled_schematic"":""4"",""participantId"":""45F3B52EB83A49E49D4C7F95087F5681"",""assignmentId"":""0198bea0-9aa5-7eba-ab65-4b6838d58e1f"",""projectId"":""0198be8b-78cf-72d2-ba2b-1e62c78022e0""}","https://test12345.live/?num_scrambled_semantic=8&num_scrambled_causal=4&num_scrambled_schematic=4&participantId=45F3B52EB83A49E49D4C7F95087F5681&assignmentId=0198bea0-9aa5-7eba-ab65-4b6838d58e1f&projectId=0198be8b-78cf-72d2-ba2b-1e62c78022e0","45F3B52EB83A49E49D4C7F95087F5681-2025-08-18-20-06-11","","1865","","images/instructions/movie_3.png","0","",""
"","","","","","image-button-response","17","436905","0.0-6.0-1.0-2.2","45F3B52EB83A49E49D4C7F95087F5681","45F3B52EB83A49E49D4C7F95087F5681","0198bea0-9aa5-7eba-ab65-4b6838d58e1f","0198be8b-78cf-72d2-ba2b-1e62c78022e0","{""num_scrambled_semantic"":""8"",""num_scrambled_causal"":""4"",""num_scrambled_schematic"":""4"",""participantId"":""45F3B52EB83A49E49D4C7F95087F5681"",""assignmentId"":""0198bea0-9aa5-7eba-ab65-4b6838d58e1f"",""projectId"":""0198be8b-78cf-72d2-ba2b-1e62c78022e0""}","https://test12345.live/?num_scrambled_semantic=8&num_scrambled_causal=4&num_scrambled_schematic=4&participantId=45F3B52EB83A49E49D4C7F95087F5681&assignmentId=0198bea0-9aa5-7eba-ab65-4b6838d58e1f&projectId=0198be8b-78cf-72d2-ba2b-1e62c78022e0","45F3B52EB83A49E49D4C7F95087F5681-2025-08-18-20-06-11","","null","","[]","null","",""
"","","","","","image-button-response","18","441413","0.0-6.0-1.0-0.3","45F3B52EB83A49E49D4C7F95087F5681","45F3B52EB83A49E49D4C7F95087F5681","0198bea0-9aa5-7eba-ab65-4b6838d58e1f","0198be8b-78cf-72d2-ba2b-1e62c78022e0","{""num_scrambled_semantic"":""8"",""num_scrambled_causal"":""4"",""num_scrambled_schematic"":""4"",""participantId"":""45F3B52EB83A49E49D4C7F95087F5681"",""assignmentId"":""0198bea0-9aa5-7eba-ab65-4b6838d58e1f"",""projectId"":""0198be8b-78cf-72d2-ba2b-1e62c78022e0""}","https://test12345.live/?num_scrambled_semantic=8&num_scrambled_causal=4&num_scrambled_schematic=4&participantId=45F3B52EB83A49E49D4C7F95087F5681&assignmentId=0198bea0-9aa5-7eba-ab65-4b6838d58e1f&projectId=0198be8b-78cf-72d2-ba2b-1e62c78022e0","45F3B52EB83A49E49D4C7F95087F5681-2025-08-18-20-06-11","","null","","images/instructions/movie_4.png","null","",""
"","","","","","image-button-response","19","443950","0.0-6.0-1.0-1.3","45F3B52EB83A49E49D4C7F95087F5681","45F3B52EB83A49E49D4C7F95087F5681","0198bea0-9aa5-7eba-ab65-4b6838d58e1f","0198be8b-78cf-72d2-ba2b-1e62c78022e0","{""num_scrambled_semantic"":""8"",""num_scrambled_causal"":""4"",""num_scrambled_schematic"":""4"",""participantId"":""45F3B52EB83A49E49D4C7F95087F5681"",""assignmentId"":""0198bea0-9aa5-7eba-ab65-4b6838d58e1f"",""projectId"":""0198be8b-78cf-72d2-ba2b-1e62c78022e0""}","https://test12345.live/?num_scrambled_semantic=8&num_scrambled_causal=4&num_scrambled_schematic=4&participantId=45F3B52EB83A49E49D4C7F95087F5681&assignmentId=0198bea0-9aa5-7eba-ab65-4b6838d58e1f&projectId=0198be8b-78cf-72d2-ba2b-1e62c78022e0","45F3B52EB83A49E49D4C7F95087F5681-2025-08-18-20-06-11","","2535","","images/instructions/movie_4.png","0","",""
"","","","","","image-button-response","20","445754","0.0-6.0-1.0-2.3","45F3B52EB83A49E49D4C7F95087F5681","45F3B52EB83A49E49D4C7F95087F5681","0198bea0-9aa5-7eba-ab65-4b6838d58e1f","0198be8b-78cf-72d2-ba2b-1e62c78022e0","{""num_scrambled_semantic"":""8"",""num_scrambled_causal"":""4"",""num_scrambled_schematic"":""4"",""participantId"":""45F3B52EB83A49E49D4C7F95087F5681"",""assignmentId"":""0198bea0-9aa5-7eba-ab65-4b6838d58e1f"",""projectId"":""0198be8b-78cf-72d2-ba2b-1e62c78022e0""}","https://test12345.live/?num_scrambled_semantic=8&num_scrambled_causal=4&num_scrambled_schematic=4&participantId=45F3B52EB83A49E49D4C7F95087F5681&assignmentId=0198bea0-9aa5-7eba-ab65-4b6838d58e1f&projectId=0198be8b-78cf-72d2-ba2b-1e62c78022e0","45F3B52EB83A49E49D4C7F95087F5681-2025-08-18-20-06-11","","null","","[]","null","",""
"","","","","","instructions","21","464533","0.0-7.0","45F3B52EB83A49E49D4C7F95087F5681","45F3B52EB83A49E49D4C7F95087F5681","0198bea0-9aa5-7eba-ab65-4b6838d58e1f","0198be8b-78cf-72d2-ba2b-1e62c78022e0","{""num_scrambled_semantic"":""8"",""num_scrambled_causal"":""4"",""num_scrambled_schematic"":""4"",""participantId"":""45F3B52EB83A49E49D4C7F95087F5681"",""assignmentId"":""0198bea0-9aa5-7eba-ab65-4b6838d58e1f"",""projectId"":""0198be8b-78cf-72d2-ba2b-1e62c78022e0""}","https://test12345.live/?num_scrambled_semantic=8&num_scrambled_causal=4&num_scrambled_schematic=4&participantId=45F3B52EB83A49E49D4C7F95087F5681&assignmentId=0198bea0-9aa5-7eba-ab65-4b6838d58e1f&projectId=0198be8b-78cf-72d2-ba2b-1e62c78022e0","45F3B52EB83A49E49D4C7F95087F5681-2025-08-18-20-06-11","[{""page_index"":0,""viewing_time"":18778}]","18779","","","","",""
"","","","","","html-audio-response","22","543882","0.0-8.0","45F3B52EB83A49E49D4C7F95087F5681","45F3B52EB83A49E49D4C7F95087F5681","0198bea0-9aa5-7eba-ab65-4b6838d58e1f","0198be8b-78cf-72d2-ba2b-1e62c78022e0","{""num_scrambled_semantic"":""8"",""num_scrambled_causal"":""4"",""num_scrambled_schematic"":""4"",""participantId"":""45F3B52EB83A49E49D4C7F95087F5681"",""assignmentId"":""0198bea0-9aa5-7eba-ab65-4b6838d58e1f"",""projectId"":""0198be8b-78cf-72d2-ba2b-1e62c78022e0""}","https://test12345.live/?num_scrambled_semantic=8&num_scrambled_causal=4&num_scrambled_schematic=4&participantId=45F3B52EB83A49E49D4C7F95087F5681&assignmentId=0198bea0-9aa5-7eba-ab65-4b6838d58e1f&projectId=0198be8b-78cf-72d2-ba2b-1e62c78022e0","45F3B52EB83A49E49D4C7F95087F5681-2025-08-18-20-06-11","","7431","","[""<span style=\""color: red; font-size: 24px\""> NOW RECORDING</span><p>Please say out loud all the images you saw, in the order of the story they create. Try to recall the sequence of events as they appeared in the story, not necessarily the order they were presented on the screen.</p>""]","","16",""
"","","","","","instructions","23","546351","0.0-9.0","45F3B52EB83A49E49D4C7F95087F5681","45F3B52EB83A49E49D4C7F95087F5681","0198bea0-9aa5-7eba-ab65-4b6838d58e1f","0198be8b-78cf-72d2-ba2b-1e62c78022e0","{""num_scrambled_semantic"":""8"",""num_scrambled_causal"":""4"",""num_scrambled_schematic"":""4"",""participantId"":""45F3B52EB83A49E49D4C7F95087F5681"",""assignmentId"":""0198bea0-9aa5-7eba-ab65-4b6838d58e1f"",""projectId"":""0198be8b-78cf-72d2-ba2b-1e62c78022e0""}","https://test12345.live/?num_scrambled_semantic=8&num_scrambled_causal=4&num_scrambled_schematic=4&participantId=45F3B52EB83A49E49D4C7F95087F5681&assignmentId=0198bea0-9aa5-7eba-ab65-4b6838d58e1f&projectId=0198be8b-78cf-72d2-ba2b-1e62c78022e0","45F3B52EB83A49E49D4C7F95087F5681-2025-08-18-20-06-11","[{""page_index"":0,""viewing_time"":2465}]","2466","","","","",""
"","","","","","image-button-response","24","552356","0.0-10.0-0.0","45F3B52EB83A49E49D4C7F95087F5681","45F3B52EB83A49E49D4C7F95087F5681","0198bea0-9aa5-7eba-ab65-4b6838d58e1f","0198be8b-78cf-72d2-ba2b-1e62c78022e0","{""num_scrambled_semantic"":""8"",""num_scrambled_causal"":""4"",""num_scrambled_schematic"":""4"",""participantId"":""45F3B52EB83A49E49D4C7F95087F5681"",""assignmentId"":""0198bea0-9aa5-7eba-ab65-4b6838d58e1f"",""projectId"":""0198be8b-78cf-72d2-ba2b-1e62c78022e0""}","https://test12345.live/?num_scrambled_semantic=8&num_scrambled_causal=4&num_scrambled_schematic=4&participantId=45F3B52EB83A49E49D4C7F95087F5681&assignmentId=0198bea0-9aa5-7eba-ab65-4b6838d58e1f&projectId=0198be8b-78cf-72d2-ba2b-1e62c78022e0","45F3B52EB83A49E49D4C7F95087F5681-2025-08-18-20-06-11","","null","","images/semantic_sequence/housework_semantic/housework_semantic_0.png","null","",""
"","","","","","image-button-response","25","556863","0.0-10.0-1.0-0.0","45F3B52EB83A49E49D4C7F95087F5681","45F3B52EB83A49E49D4C7F95087F5681","0198bea0-9aa5-7eba-ab65-4b6838d58e1f","0198be8b-78cf-72d2-ba2b-1e62c78022e0","{""num_scrambled_semantic"":""8"",""num_scrambled_causal"":""4"",""num_scrambled_schematic"":""4"",""participantId"":""45F3B52EB83A49E49D4C7F95087F5681"",""assignmentId"":""0198bea0-9aa5-7eba-ab65-4b6838d58e1f"",""projectId"":""0198be8b-78cf-72d2-ba2b-1e62c78022e0""}","https://test12345.live/?num_scrambled_semantic=8&num_scrambled_causal=4&num_scrambled_schematic=4&participantId=45F3B52EB83A49E49D4C7F95087F5681&assignmentId=0198bea0-9aa5-7eba-ab65-4b6838d58e1f&projectId=0198be8b-78cf-72d2-ba2b-1e62c78022e0","45F3B52EB83A49E49D4C7F95087F5681-2025-08-18-20-06-11","","null","","images/semantic_sequence/housework_semantic/housework_semantic_9.png","null","",""
"","","","","","image-button-response","26","559351","0.0-10.0-1.0-1.0","45F3B52EB83A49E49D4C7F95087F5681","45F3B52EB83A49E49D4C7F95087F5681","0198bea0-9aa5-7eba-ab65-4b6838d58e1f","0198be8b-78cf-72d2-ba2b-1e62c78022e0","{""num_scrambled_semantic"":""8"",""num_scrambled_causal"":""4"",""num_scrambled_schematic"":""4"",""participantId"":""45F3B52EB83A49E49D4C7F95087F5681"",""assignmentId"":""0198bea0-9aa5-7eba-ab65-4b6838d58e1f"",""projectId"":""0198be8b-78cf-72d2-ba2b-1e62c78022e0""}","https://test12345.live/?num_scrambled_semantic=8&num_scrambled_causal=4&num_scrambled_schematic=4&participantId=45F3B52EB83A49E49D4C7F95087F5681&assignmentId=0198bea0-9aa5-7eba-ab65-4b6838d58e1f&projectId=0198be8b-78cf-72d2-ba2b-1e62c78022e0","45F3B52EB83A49E49D4C7F95087F5681-2025-08-18-20-06-11","","2486","","images/semantic_sequence/housework_semantic/housework_semantic_9.png","0","",""
"","","","","","image-button-response","27","561155","0.0-10.0-1.0-2.0","45F3B52EB83A49E49D4C7F95087F5681","45F3B52EB83A49E49D4C7F95087F5681","0198bea0-9aa5-7eba-ab65-4b6838d58e1f","0198be8b-78cf-72d2-ba2b-1e62c78022e0","{""num_scrambled_semantic"":""8"",""num_scrambled_causal"":""4"",""num_scrambled_schematic"":""4"",""participantId"":""45F3B52EB83A49E49D4C7F95087F5681"",""assignmentId"":""0198bea0-9aa5-7eba-ab65-4b6838d58e1f"",""projectId"":""0198be8b-78cf-72d2-ba2b-1e62c78022e0""}","https://test12345.live/?num_scrambled_semantic=8&num_scrambled_causal=4&num_scrambled_schematic=4&participantId=45F3B52EB83A49E49D4C7F95087F5681&assignmentId=0198bea0-9aa5-7eba-ab65-4b6838d58e1f&projectId=0198be8b-78cf-72d2-ba2b-1e62c78022e0","45F3B52EB83A49E49D4C7F95087F5681-2025-08-18-20-06-11","","null","","[]","null","",""
"","","","","","image-button-response","28","565660","0.0-10.0-1.0-0.1","45F3B52EB83A49E49D4C7F95087F5681","45F3B52EB83A49E49D4C7F95087F5681","0198bea0-9aa5-7eba-ab65-4b6838d58e1f","0198be8b-78cf-72d2-ba2b-1e62c78022e0","{""num_scrambled_semantic"":""8"",""num_scrambled_causal"":""4"",""num_scrambled_schematic"":""4"",""participantId"":""45F3B52EB83A49E49D4C7F95087F5681"",""assignmentId"":""0198bea0-9aa5-7eba-ab65-4b6838d58e1f"",""projectId"":""0198be8b-78cf-72d2-ba2b-1e62c78022e0""}","https://test12345.live/?num_scrambled_semantic=8&num_scrambled_causal=4&num_scrambled_schematic=4&participantId=45F3B52EB83A49E49D4C7F95087F5681&assignmentId=0198bea0-9aa5-7eba-ab65-4b6838d58e1f&projectId=0198be8b-78cf-72d2-ba2b-1e62c78022e0","45F3B52EB83A49E49D4C7F95087F5681-2025-08-18-20-06-11","","null","","images/semantic_sequence/housework_semantic/housework_semantic_3.png","null","",""
"","","","","","image-button-response","29","567701","0.0-10.0-1.0-1.1","45F3B52EB83A49E49D4C7F95087F5681","45F3B52EB83A49E49D4C7F95087F5681","0198bea0-9aa5-7eba-ab65-4b6838d58e1f","0198be8b-78cf-72d2-ba2b-1e62c78022e0","{""num_scrambled_semantic"":""8"",""num_scrambled_causal"":""4"",""num_scrambled_schematic"":""4"",""participantId"":""45F3B52EB83A49E49D4C7F95087F5681"",""assignmentId"":""0198bea0-9aa5-7eba-ab65-4b6838d58e1f"",""projectId"":""0198be8b-78cf-72d2-ba2b-1e62c78022e0""}","https://test12345.live/?num_scrambled_semantic=8&num_scrambled_causal=4&num_scrambled_schematic=4&participantId=45F3B52EB83A49E49D4C7F95087F5681&assignmentId=0198bea0-9aa5-7eba-ab65-4b6838d58e1f&projectId=0198be8b-78cf-72d2-ba2b-1e62c78022e0","45F3B52EB83A49E49D4C7F95087F5681-2025-08-18-20-06-11","","2039","","images/semantic_sequence/housework_semantic/housework_semantic_3.png","0","",""
"","","","","","image-button-response","30","569504","0.0-10.0-1.0-2.1","45F3B52EB83A49E49D4C7F95087F5681","45F3B52EB83A49E49D4C7F95087F5681","0198bea0-9aa5-7eba-ab65-4b6838d58e1f","0198be8b-78cf-72d2-ba2b-1e62c78022e0","{""num_scrambled_semantic"":""8"",""num_scrambled_causal"":""4"",""num_scrambled_schematic"":""4"",""participantId"":""45F3B52EB83A49E49D4C7F95087F5681"",""assignmentId"":""0198bea0-9aa5-7eba-ab65-4b6838d58e1f"",""projectId"":""0198be8b-78cf-72d2-ba2b-1e62c78022e0""}","https://test12345.live/?num_scrambled_semantic=8&num_scrambled_causal=4&num_scrambled_schematic=4&participantId=45F3B52EB83A49E49D4C7F95087F5681&assignmentId=0198bea0-9aa5-7eba-ab65-4b6838d58e1f&projectId=0198be8b-78cf-72d2-ba2b-1e62c78022e0","45F3B52EB83A49E49D4C7F95087F5681-2025-08-18-20-06-11","","null","","[]","null","",""
"","","","","","image-button-response","31","574009","0.0-10.0-1.0-0.2","45F3B52EB83A49E49D4C7F95087F5681","45F3B52EB83A49E49D4C7F95087F5681","0198bea0-9aa5-7eba-ab65-4b6838d58e1f","0198be8b-78cf-72d2-ba2b-1e62c78022e0","{""num_scrambled_semantic"":""8"",""num_scrambled_causal"":""4"",""num_scrambled_schematic"":""4"",""participantId"":""45F3B52EB83A49E49D4C7F95087F5681"",""assignmentId"":""0198bea0-9aa5-7eba-ab65-4b6838d58e1f"",""projectId"":""0198be8b-78cf-72d2-ba2b-1e62c78022e0""}","https://test12345.live/?num_scrambled_semantic=8&num_scrambled_causal=4&num_scrambled_schematic=4&participantId=45F3B52EB83A49E49D4C7F95087F5681&assignmentId=0198bea0-9aa5-7eba-ab65-4b6838d58e1f&projectId=0198be8b-78cf-72d2-ba2b-1e62c78022e0","45F3B52EB83A49E49D4C7F95087F5681-2025-08-18-20-06-11","","null","","images/semantic_sequence/housework_semantic/housework_semantic_ten.png","null","",""
"","","","","","image-button-response","32","575101","0.0-10.0-1.0-1.2","45F3B52EB83A49E49D4C7F95087F5681","45F3B52EB83A49E49D4C7F95087F5681","0198bea0-9aa5-7eba-ab65-4b6838d58e1f","0198be8b-78cf-72d2-ba2b-1e62c78022e0","{""num_scrambled_semantic"":""8"",""num_scrambled_causal"":""4"",""num_scrambled_schematic"":""4"",""participantId"":""45F3B52EB83A49E49D4C7F95087F5681"",""assignmentId"":""0198bea0-9aa5-7eba-ab65-4b6838d58e1f"",""projectId"":""0198be8b-78cf-72d2-ba2b-1e62c78022e0""}","https://test12345.live/?num_scrambled_semantic=8&num_scrambled_causal=4&num_scrambled_schematic=4&participantId=45F3B52EB83A49E49D4C7F95087F5681&assignmentId=0198bea0-9aa5-7eba-ab65-4b6838d58e1f&projectId=0198be8b-78cf-72d2-ba2b-1e62c78022e0","45F3B52EB83A49E49D4C7F95087F5681-2025-08-18-20-06-11","","1090","","images/semantic_sequence/housework_semantic/housework_semantic_ten.png","0","",""
"","","","","","image-button-response","33","576905","0.0-10.0-1.0-2.2","45F3B52EB83A49E49D4C7F95087F5681","45F3B52EB83A49E49D4C7F95087F5681","0198bea0-9aa5-7eba-ab65-4b6838d58e1f","0198be8b-78cf-72d2-ba2b-1e62c78022e0","{""num_scrambled_semantic"":""8"",""num_scrambled_causal"":""4"",""num_scrambled_schematic"":""4"",""participantId"":""45F3B52EB83A49E49D4C7F95087F5681"",""assignmentId"":""0198bea0-9aa5-7eba-ab65-4b6838d58e1f"",""projectId"":""0198be8b-78cf-72d2-ba2b-1e62c78022e0""}","https://test12345.live/?num_scrambled_semantic=8&num_scrambled_causal=4&num_scrambled_schematic=4&participantId=45F3B52EB83A49E49D4C7F95087F5681&assignmentId=0198bea0-9aa5-7eba-ab65-4b6838d58e1f&projectId=0198be8b-78cf-72d2-ba2b-1e62c78022e0","45F3B52EB83A49E49D4C7F95087F5681-2025-08-18-20-06-11","","null","","[]","null","",""
"","","","","","image-button-response","34","581407","0.0-10.0-1.0-0.3","45F3B52EB83A49E49D4C7F95087F5681","45F3B52EB83A49E49D4C7F95087F5681","0198bea0-9aa5-7eba-ab65-4b6838d58e1f","0198be8b-78cf-72d2-ba2b-1e62c78022e0","{""num_scrambled_semantic"":""8"",""num_scrambled_causal"":""4"",""num_scrambled_schematic"":""4"",""participantId"":""45F3B52EB83A49E49D4C7F95087F5681"",""assignmentId"":""0198bea0-9aa5-7eba-ab65-4b6838d58e1f"",""projectId"":""0198be8b-78cf-72d2-ba2b-1e62c78022e0""}","https://test12345.live/?num_scrambled_semantic=8&num_scrambled_causal=4&num_scrambled_schematic=4&participantId=45F3B52EB83A49E49D4C7F95087F5681&assignmentId=0198bea0-9aa5-7eba-ab65-4b6838d58e1f&projectId=0198be8b-78cf-72d2-ba2b-1e62c78022e0","45F3B52EB83A49E49D4C7F95087F5681-2025-08-18-20-06-11","","null","","images/semantic_sequence/housework_semantic/housework_semantic_8.png","null","",""
"","","","","","image-button-response","35","582134","0.0-10.0-1.0-1.3","45F3B52EB83A49E49D4C7F95087F5681","45F3B52EB83A49E49D4C7F95087F5681","0198bea0-9aa5-7eba-ab65-4b6838d58e1f","0198be8b-78cf-72d2-ba2b-1e62c78022e0","{""num_scrambled_semantic"":""8"",""num_scrambled_causal"":""4"",""num_scrambled_schematic"":""4"",""participantId"":""45F3B52EB83A49E49D4C7F95087F5681"",""assignmentId"":""0198bea0-9aa5-7eba-ab65-4b6838d58e1f"",""projectId"":""0198be8b-78cf-72d2-ba2b-1e62c78022e0""}","https://test12345.live/?num_scrambled_semantic=8&num_scrambled_causal=4&num_scrambled_schematic=4&participantId=45F3B52EB83A49E49D4C7F95087F5681&assignmentId=0198bea0-9aa5-7eba-ab65-4b6838d58e1f&projectId=0198be8b-78cf-72d2-ba2b-1e62c78022e0","45F3B52EB83A49E49D4C7F95087F5681-2025-08-18-20-06-11","","725","","images/semantic_sequence/housework_semantic/housework_semantic_8.png","0","",""
"","","","","","image-button-response","36","583937","0.0-10.0-1.0-2.3","45F3B52EB83A49E49D4C7F95087F5681","45F3B52EB83A49E49D4C7F95087F5681","0198bea0-9aa5-7eba-ab65-4b6838d58e1f","0198be8b-78cf-72d2-ba2b-1e62c78022e0","{""num_scrambled_semantic"":""8"",""num_scrambled_causal"":""4"",""num_scrambled_schematic"":""4"",""participantId"":""45F3B52EB83A49E49D4C7F95087F5681"",""assignmentId"":""0198bea0-9aa5-7eba-ab65-4b6838d58e1f"",""projectId"":""0198be8b-78cf-72d2-ba2b-1e62c78022e0""}","https://test12345.live/?num_scrambled_semantic=8&num_scrambled_causal=4&num_scrambled_schematic=4&participantId=45F3B52EB83A49E49D4C7F95087F5681&assignmentId=0198bea0-9aa5-7eba-ab65-4b6838d58e1f&projectId=0198be8b-78cf-72d2-ba2b-1e62c78022e0","45F3B52EB83A49E49D4C7F95087F5681-2025-08-18-20-06-11","","null","","[]","null","",""
"","","","","","image-button-response","37","588442","0.0-10.0-1.0-0.4","45F3B52EB83A49E49D4C7F95087F5681","45F3B52EB83A49E49D4C7F95087F5681","0198bea0-9aa5-7eba-ab65-4b6838d58e1f","0198be8b-78cf-72d2-ba2b-1e62c78022e0","{""num_scrambled_semantic"":""8"",""num_scrambled_causal"":""4"",""num_scrambled_schematic"":""4"",""participantId"":""45F3B52EB83A49E49D4C7F95087F5681"",""assignmentId"":""0198bea0-9aa5-7eba-ab65-4b6838d58e1f"",""projectId"":""0198be8b-78cf-72d2-ba2b-1e62c78022e0""}","https://test12345.live/?num_scrambled_semantic=8&num_scrambled_causal=4&num_scrambled_schematic=4&participantId=45F3B52EB83A49E49D4C7F95087F5681&assignmentId=0198bea0-9aa5-7eba-ab65-4b6838d58e1f&projectId=0198be8b-78cf-72d2-ba2b-1e62c78022e0","45F3B52EB83A49E49D4C7F95087F5681-2025-08-18-20-06-11","","null","","images/semantic_sequence/housework_semantic/housework_semantic_1.png","null","",""
"","","","","","image-button-response","38","589301","0.0-10.0-1.0-1.4","45F3B52EB83A49E49D4C7F95087F5681","45F3B52EB83A49E49D4C7F95087F5681","0198bea0-9aa5-7eba-ab65-4b6838d58e1f","0198be8b-78cf-72d2-ba2b-1e62c78022e0","{""num_scrambled_semantic"":""8"",""num_scrambled_causal"":""4"",""num_scrambled_schematic"":""4"",""participantId"":""45F3B52EB83A49E49D4C7F95087F5681"",""assignmentId"":""0198bea0-9aa5-7eba-ab65-4b6838d58e1f"",""projectId"":""0198be8b-78cf-72d2-ba2b-1e62c78022e0""}","https://test12345.live/?num_scrambled_semantic=8&num_scrambled_causal=4&num_scrambled_schematic=4&participantId=45F3B52EB83A49E49D4C7F95087F5681&assignmentId=0198bea0-9aa5-7eba-ab65-4b6838d58e1f&projectId=0198be8b-78cf-72d2-ba2b-1e62c78022e0","45F3B52EB83A49E49D4C7F95087F5681-2025-08-18-20-06-11","","857","","images/semantic_sequence/housework_semantic/housework_semantic_1.png","0","",""
"","","","","","image-button-response","39","591104","0.0-10.0-1.0-2.4","45F3B52EB83A49E49D4C7F95087F5681","45F3B52EB83A49E49D4C7F95087F5681","0198bea0-9aa5-7eba-ab65-4b6838d58e1f","0198be8b-78cf-72d2-ba2b-1e62c78022e0","{""num_scrambled_semantic"":""8"",""num_scrambled_causal"":""4"",""num_scrambled_schematic"":""4"",""participantId"":""45F3B52EB83A49E49D4C7F95087F5681"",""assignmentId"":""0198bea0-9aa5-7eba-ab65-4b6838d58e1f"",""projectId"":""0198be8b-78cf-72d2-ba2b-1e62c78022e0""}","https://test12345.live/?num_scrambled_semantic=8&num_scrambled_causal=4&num_scrambled_schematic=4&participantId=45F3B52EB83A49E49D4C7F95087F5681&assignmentId=0198bea0-9aa5-7eba-ab65-4b6838d58e1f&projectId=0198be8b-78cf-72d2-ba2b-1e62c78022e0","45F3B52EB83A49E49D4C7F95087F5681-2025-08-18-20-06-11","","null","","[]","null","",""
"","","","","","image-button-response","40","595607","0.0-10.0-1.0-0.5","45F3B52EB83A49E49D4C7F95087F5681","45F3B52EB83A49E49D4C7F95087F5681","0198bea0-9aa5-7eba-ab65-4b6838d58e1f","0198be8b-78cf-72d2-ba2b-1e62c78022e0","{""num_scrambled_semantic"":""8"",""num_scrambled_causal"":""4"",""num_scrambled_schematic"":""4"",""participantId"":""45F3B52EB83A49E49D4C7F95087F5681"",""assignmentId"":""0198bea0-9aa5-7eba-ab65-4b6838d58e1f"",""projectId"":""0198be8b-78cf-72d2-ba2b-1e62c78022e0""}","https://test12345.live/?num_scrambled_semantic=8&num_scrambled_causal=4&num_scrambled_schematic=4&participantId=45F3B52EB83A49E49D4C7F95087F5681&assignmentId=0198bea0-9aa5-7eba-ab65-4b6838d58e1f&projectId=0198be8b-78cf-72d2-ba2b-1e62c78022e0","45F3B52EB83A49E49D4C7F95087F5681-2025-08-18-20-06-11","","null","","images/semantic_sequence/housework_semantic/housework_semantic_5.png","null","",""
"","","","","","image-button-response","41","596334","0.0-10.0-1.0-1.5","45F3B52EB83A49E49D4C7F95087F5681","45F3B52EB83A49E49D4C7F95087F5681","0198bea0-9aa5-7eba-ab65-4b6838d58e1f","0198be8b-78cf-72d2-ba2b-1e62c78022e0","{""num_scrambled_semantic"":""8"",""num_scrambled_causal"":""4"",""num_scrambled_schematic"":""4"",""participantId"":""45F3B52EB83A49E49D4C7F95087F5681"",""assignmentId"":""0198bea0-9aa5-7eba-ab65-4b6838d58e1f"",""projectId"":""0198be8b-78cf-72d2-ba2b-1e62c78022e0""}","https://test12345.live/?num_scrambled_semantic=8&num_scrambled_causal=4&num_scrambled_schematic=4&participantId=45F3B52EB83A49E49D4C7F95087F5681&assignmentId=0198bea0-9aa5-7eba-ab65-4b6838d58e1f&projectId=0198be8b-78cf-72d2-ba2b-1e62c78022e0","45F3B52EB83A49E49D4C7F95087F5681-2025-08-18-20-06-11","","726","","images/semantic_sequence/housework_semantic/housework_semantic_5.png","0","",""
"","","","","","image-button-response","42","598140","0.0-10.0-1.0-2.5","45F3B52EB83A49E49D4C7F95087F5681","45F3B52EB83A49E49D4C7F95087F5681","0198bea0-9aa5-7eba-ab65-4b6838d58e1f","0198be8b-78cf-72d2-ba2b-1e62c78022e0","{""num_scrambled_semantic"":""8"",""num_scrambled_causal"":""4"",""num_scrambled_schematic"":""4"",""participantId"":""45F3B52EB83A49E49D4C7F95087F5681"",""assignmentId"":""0198bea0-9aa5-7eba-ab65-4b6838d58e1f"",""projectId"":""0198be8b-78cf-72d2-ba2b-1e62c78022e0""}","https://test12345.live/?num_scrambled_semantic=8&num_scrambled_causal=4&num_scrambled_schematic=4&participantId=45F3B52EB83A49E49D4C7F95087F5681&assignmentId=0198bea0-9aa5-7eba-ab65-4b6838d58e1f&projectId=0198be8b-78cf-72d2-ba2b-1e62c78022e0","45F3B52EB83A49E49D4C7F95087F5681-2025-08-18-20-06-11","","null","","[]","null","",""
"","","","","","image-button-response","43","602646","0.0-10.0-1.0-0.6","45F3B52EB83A49E49D4C7F95087F5681","45F3B52EB83A49E49D4C7F95087F5681","0198bea0-9aa5-7eba-ab65-4b6838d58e1f","0198be8b-78cf-72d2-ba2b-1e62c78022e0","{""num_scrambled_semantic"":""8"",""num_scrambled_causal"":""4"",""num_scrambled_schematic"":""4"",""participantId"":""45F3B52EB83A49E49D4C7F95087F5681"",""assignmentId"":""0198bea0-9aa5-7eba-ab65-4b6838d58e1f"",""projectId"":""0198be8b-78cf-72d2-ba2b-1e62c78022e0""}","https://test12345.live/?num_scrambled_semantic=8&num_scrambled_causal=4&num_scrambled_schematic=4&participantId=45F3B52EB83A49E49D4C7F95087F5681&assignmentId=0198bea0-9aa5-7eba-ab65-4b6838d58e1f&projectId=0198be8b-78cf-72d2-ba2b-1e62c78022e0","45F3B52EB83A49E49D4C7F95087F5681-2025-08-18-20-06-11","","null","","images/semantic_sequence/housework_semantic/housework_semantic_6.png","null","",""
"","","","","","image-button-response","44","603652","0.0-10.0-1.0-1.6","45F3B52EB83A49E49D4C7F95087F5681","45F3B52EB83A49E49D4C7F95087F5681","0198bea0-9aa5-7eba-ab65-4b6838d58e1f","0198be8b-78cf-72d2-ba2b-1e62c78022e0","{""num_scrambled_semantic"":""8"",""num_scrambled_causal"":""4"",""num_scrambled_schematic"":""4"",""participantId"":""45F3B52EB83A49E49D4C7F95087F5681"",""assignmentId"":""0198bea0-9aa5-7eba-ab65-4b6838d58e1f"",""projectId"":""0198be8b-78cf-72d2-ba2b-1e62c78022e0""}","https://test12345.live/?num_scrambled_semantic=8&num_scrambled_causal=4&num_scrambled_schematic=4&participantId=45F3B52EB83A49E49D4C7F95087F5681&assignmentId=0198bea0-9aa5-7eba-ab65-4b6838d58e1f&projectId=0198be8b-78cf-72d2-ba2b-1e62c78022e0","45F3B52EB83A49E49D4C7F95087F5681-2025-08-18-20-06-11","","1003","","images/semantic_sequence/housework_semantic/housework_semantic_6.png","0","",""
"","","","","","image-button-response","45","605454","0.0-10.0-1.0-2.6","45F3B52EB83A49E49D4C7F95087F5681","45F3B52EB83A49E49D4C7F95087F5681","0198bea0-9aa5-7eba-ab65-4b6838d58e1f","0198be8b-78cf-72d2-ba2b-1e62c78022e0","{""num_scrambled_semantic"":""8"",""num_scrambled_causal"":""4"",""num_scrambled_schematic"":""4"",""participantId"":""45F3B52EB83A49E49D4C7F95087F5681"",""assignmentId"":""0198bea0-9aa5-7eba-ab65-4b6838d58e1f"",""projectId"":""0198be8b-78cf-72d2-ba2b-1e62c78022e0""}","https://test12345.live/?num_scrambled_semantic=8&num_scrambled_causal=4&num_scrambled_schematic=4&participantId=45F3B52EB83A49E49D4C7F95087F5681&assignmentId=0198bea0-9aa5-7eba-ab65-4b6838d58e1f&projectId=0198be8b-78cf-72d2-ba2b-1e62c78022e0","45F3B52EB83A49E49D4C7F95087F5681-2025-08-18-20-06-11","","null","","[]","null","",""
"","","","","","image-button-response","46","609959","0.0-10.0-1.0-0.7","45F3B52EB83A49E49D4C7F95087F5681","45F3B52EB83A49E49D4C7F95087F5681","0198bea0-9aa5-7eba-ab65-4b6838d58e1f","0198be8b-78cf-72d2-ba2b-1e62c78022e0","{""num_scrambled_semantic"":""8"",""num_scrambled_causal"":""4"",""num_scrambled_schematic"":""4"",""participantId"":""45F3B52EB83A49E49D4C7F95087F5681"",""assignmentId"":""0198bea0-9aa5-7eba-ab65-4b6838d58e1f"",""projectId"":""0198be8b-78cf-72d2-ba2b-1e62c78022e0""}","https://test12345.live/?num_scrambled_semantic=8&num_scrambled_causal=4&num_scrambled_schematic=4&participantId=45F3B52EB83A49E49D4C7F95087F5681&assignmentId=0198bea0-9aa5-7eba-ab65-4b6838d58e1f&projectId=0198be8b-78cf-72d2-ba2b-1e62c78022e0","45F3B52EB83A49E49D4C7F95087F5681-2025-08-18-20-06-11","","null","","images/semantic_sequence/housework_semantic/housework_semantic_7.png","null","",""
"","","","","","image-button-response","47","610466","0.0-10.0-1.0-1.7","45F3B52EB83A49E49D4C7F95087F5681","45F3B52EB83A49E49D4C7F95087F5681","0198bea0-9aa5-7eba-ab65-4b6838d58e1f","0198be8b-78cf-72d2-ba2b-1e62c78022e0","{""num_scrambled_semantic"":""8"",""num_scrambled_causal"":""4"",""num_scrambled_schematic"":""4"",""participantId"":""45F3B52EB83A49E49D4C7F95087F5681"",""assignmentId"":""0198bea0-9aa5-7eba-ab65-4b6838d58e1f"",""projectId"":""0198be8b-78cf-72d2-ba2b-1e62c78022e0""}","https://test12345.live/?num_scrambled_semantic=8&num_scrambled_causal=4&num_scrambled_schematic=4&participantId=45F3B52EB83A49E49D4C7F95087F5681&assignmentId=0198bea0-9aa5-7eba-ab65-4b6838d58e1f&projectId=0198be8b-78cf-72d2-ba2b-1e62c78022e0","45F3B52EB83A49E49D4C7F95087F5681-2025-08-18-20-06-11","","506","","images/semantic_sequence/housework_semantic/housework_semantic_7.png","0","",""
"","","","","","image-button-response","48","612272","0.0-10.0-1.0-2.7","45F3B52EB83A49E49D4C7F95087F5681","45F3B52EB83A49E49D4C7F95087F5681","0198bea0-9aa5-7eba-ab65-4b6838d58e1f","0198be8b-78cf-72d2-ba2b-1e62c78022e0","{""num_scrambled_semantic"":""8"",""num_scrambled_causal"":""4"",""num_scrambled_schematic"":""4"",""participantId"":""45F3B52EB83A49E49D4C7F95087F5681"",""assignmentId"":""0198bea0-9aa5-7eba-ab65-4b6838d58e1f"",""projectId"":""0198be8b-78cf-72d2-ba2b-1e62c78022e0""}","https://test12345.live/?num_scrambled_semantic=8&num_scrambled_causal=4&num_scrambled_schematic=4&participantId=45F3B52EB83A49E49D4C7F95087F5681&assignmentId=0198bea0-9aa5-7eba-ab65-4b6838d58e1f&projectId=0198be8b-78cf-72d2-ba2b-1e62c78022e0","45F3B52EB83A49E49D4C7F95087F5681-2025-08-18-20-06-11","","null","","[]","null","",""
"","","","","","image-button-response","49","616775","0.0-10.0-1.0-0.8","45F3B52EB83A49E49D4C7F95087F5681","45F3B52EB83A49E49D4C7F95087F5681","0198bea0-9aa5-7eba-ab65-4b6838d58e1f","0198be8b-78cf-72d2-ba2b-1e62c78022e0","{""num_scrambled_semantic"":""8"",""num_scrambled_causal"":""4"",""num_scrambled_schematic"":""4"",""participantId"":""45F3B52EB83A49E49D4C7F95087F5681"",""assignmentId"":""0198bea0-9aa5-7eba-ab65-4b6838d58e1f"",""projectId"":""0198be8b-78cf-72d2-ba2b-1e62c78022e0""}","https://test12345.live/?num_scrambled_semantic=8&num_scrambled_causal=4&num_scrambled_schematic=4&participantId=45F3B52EB83A49E49D4C7F95087F5681&assignmentId=0198bea0-9aa5-7eba-ab65-4b6838d58e1f&projectId=0198be8b-78cf-72d2-ba2b-1e62c78022e0","45F3B52EB83A49E49D4C7F95087F5681-2025-08-18-20-06-11","","null","","images/semantic_sequence/housework_semantic/housework_semantic_2.png","null","",""
"","","","","","image-button-response","50","617317","0.0-10.0-1.0-1.8","45F3B52EB83A49E49D4C7F95087F5681","45F3B52EB83A49E49D4C7F95087F5681","0198bea0-9aa5-7eba-ab65-4b6838d58e1f","0198be8b-78cf-72d2-ba2b-1e62c78022e0","{""num_scrambled_semantic"":""8"",""num_scrambled_causal"":""4"",""num_scrambled_schematic"":""4"",""participantId"":""45F3B52EB83A49E49D4C7F95087F5681"",""assignmentId"":""0198bea0-9aa5-7eba-ab65-4b6838d58e1f"",""projectId"":""0198be8b-78cf-72d2-ba2b-1e62c78022e0""}","https://test12345.live/?num_scrambled_semantic=8&num_scrambled_causal=4&num_scrambled_schematic=4&participantId=45F3B52EB83A49E49D4C7F95087F5681&assignmentId=0198bea0-9aa5-7eba-ab65-4b6838d58e1f&projectId=0198be8b-78cf-72d2-ba2b-1e62c78022e0","45F3B52EB83A49E49D4C7F95087F5681-2025-08-18-20-06-11","","540","","images/semantic_sequence/housework_semantic/housework_semantic_2.png","0","",""
"","","","","","image-button-response","51","619120","0.0-10.0-1.0-2.8","45F3B52EB83A49E49D4C7F95087F5681","45F3B52EB83A49E49D4C7F95087F5681","0198bea0-9aa5-7eba-ab65-4b6838d58e1f","0198be8b-78cf-72d2-ba2b-1e62c78022e0","{""num_scrambled_semantic"":""8"",""num_scrambled_causal"":""4"",""num_scrambled_schematic"":""4"",""participantId"":""45F3B52EB83A49E49D4C7F95087F5681"",""assignmentId"":""0198bea0-9aa5-7eba-ab65-4b6838d58e1f"",""projectId"":""0198be8b-78cf-72d2-ba2b-1e62c78022e0""}","https://test12345.live/?num_scrambled_semantic=8&num_scrambled_causal=4&num_scrambled_schematic=4&participantId=45F3B52EB83A49E49D4C7F95087F5681&assignmentId=0198bea0-9aa5-7eba-ab65-4b6838d58e1f&projectId=0198be8b-78cf-72d2-ba2b-1e62c78022e0","45F3B52EB83A49E49D4C7F95087F5681-2025-08-18-20-06-11","","null","","[]","null","",""
"","","","","","image-button-response","52","623627","0.0-10.0-1.0-0.9","45F3B52EB83A49E49D4C7F95087F5681","45F3B52EB83A49E49D4C7F95087F5681","0198bea0-9aa5-7eba-ab65-4b6838d58e1f","0198be8b-78cf-72d2-ba2b-1e62c78022e0","{""num_scrambled_semantic"":""8"",""num_scrambled_causal"":""4"",""num_scrambled_schematic"":""4"",""participantId"":""45F3B52EB83A49E49D4C7F95087F5681"",""assignmentId"":""0198bea0-9aa5-7eba-ab65-4b6838d58e1f"",""projectId"":""0198be8b-78cf-72d2-ba2b-1e62c78022e0""}","https://test12345.live/?num_scrambled_semantic=8&num_scrambled_causal=4&num_scrambled_schematic=4&participantId=45F3B52EB83A49E49D4C7F95087F5681&assignmentId=0198bea0-9aa5-7eba-ab65-4b6838d58e1f&projectId=0198be8b-78cf-72d2-ba2b-1e62c78022e0","45F3B52EB83A49E49D4C7F95087F5681-2025-08-18-20-06-11","","null","","images/semantic_sequence/housework_semantic/housework_semantic_4.png","null","",""
"","","","","","image-button-response","53","627632","0.0-10.0-1.0-1.9","45F3B52EB83A49E49D4C7F95087F5681","45F3B52EB83A49E49D4C7F95087F5681","0198bea0-9aa5-7eba-ab65-4b6838d58e1f","0198be8b-78cf-72d2-ba2b-1e62c78022e0","{""num_scrambled_semantic"":""8"",""num_scrambled_causal"":""4"",""num_scrambled_schematic"":""4"",""participantId"":""45F3B52EB83A49E49D4C7F95087F5681"",""assignmentId"":""0198bea0-9aa5-7eba-ab65-4b6838d58e1f"",""projectId"":""0198be8b-78cf-72d2-ba2b-1e62c78022e0""}","https://test12345.live/?num_scrambled_semantic=8&num_scrambled_causal=4&num_scrambled_schematic=4&participantId=45F3B52EB83A49E49D4C7F95087F5681&assignmentId=0198bea0-9aa5-7eba-ab65-4b6838d58e1f&projectId=0198be8b-78cf-72d2-ba2b-1e62c78022e0","45F3B52EB83A49E49D4C7F95087F5681-2025-08-18-20-06-11","","null","","images/semantic_sequence/housework_semantic/housework_semantic_4.png","null","",""
"","","","","","image-button-response","54","629436","0.0-10.0-1.0-2.9","45F3B52EB83A49E49D4C7F95087F5681","45F3B52EB83A49E49D4C7F95087F5681","0198bea0-9aa5-7eba-ab65-4b6838d58e1f","0198be8b-78cf-72d2-ba2b-1e62c78022e0","{""num_scrambled_semantic"":""8"",""num_scrambled_causal"":""4"",""num_scrambled_schematic"":""4"",""participantId"":""45F3B52EB83A49E49D4C7F95087F5681"",""assignmentId"":""0198bea0-9aa5-7eba-ab65-4b6838d58e1f"",""projectId"":""0198be8b-78cf-72d2-ba2b-1e62c78022e0""}","https://test12345.live/?num_scrambled_semantic=8&num_scrambled_causal=4&num_scrambled_schematic=4&participantId=45F3B52EB83A49E49D4C7F95087F5681&assignmentId=0198bea0-9aa5-7eba-ab65-4b6838d58e1f&projectId=0198be8b-78cf-72d2-ba2b-1e62c78022e0","45F3B52EB83A49E49D4C7F95087F5681-2025-08-18-20-06-11","","null","","[]","null","",""
"","","","","","html-audio-response","55","662717","0.0-11.0","45F3B52EB83A49E49D4C7F95087F5681","45F3B52EB83A49E49D4C7F95087F5681","0198bea0-9aa5-7eba-ab65-4b6838d58e1f","0198be8b-78cf-72d2-ba2b-1e62c78022e0","{""num_scrambled_semantic"":""8"",""num_scrambled_causal"":""4"",""num_scrambled_schematic"":""4"",""participantId"":""45F3B52EB83A49E49D4C7F95087F5681"",""assignmentId"":""0198bea0-9aa5-7eba-ab65-4b6838d58e1f"",""projectId"":""0198be8b-78cf-72d2-ba2b-1e62c78022e0""}","https://test12345.live/?num_scrambled_semantic=8&num_scrambled_causal=4&num_scrambled_schematic=4&participantId=45F3B52EB83A49E49D4C7F95087F5681&assignmentId=0198bea0-9aa5-7eba-ab65-4b6838d58e1f&projectId=0198be8b-78cf-72d2-ba2b-1e62c78022e0","45F3B52EB83A49E49D4C7F95087F5681-2025-08-18-20-06-11","","12344","","[""<span style=\""color: red; font-size: 24px\""> NOW RECORDING</span><p>Please say out loud all the images you saw, in the order of the story they create. Try to recall the sequence of events as they appeared in the story, not necessarily the order they were presented on the screen.</p>""]","","2","housework_semantic"
"","","","","","image-button-response","56","668723","0.0-12.0-0.0","45F3B52EB83A49E49D4C7F95087F5681","45F3B52EB83A49E49D4C7F95087F5681","0198bea0-9aa5-7eba-ab65-4b6838d58e1f","0198be8b-78cf-72d2-ba2b-1e62c78022e0","{""num_scrambled_semantic"":""8"",""num_scrambled_causal"":""4"",""num_scrambled_schematic"":""4"",""participantId"":""45F3B52EB83A49E49D4C7F95087F5681"",""assignmentId"":""0198bea0-9aa5-7eba-ab65-4b6838d58e1f"",""projectId"":""0198be8b-78cf-72d2-ba2b-1e62c78022e0""}","https://test12345.live/?num_scrambled_semantic=8&num_scrambled_causal=4&num_scrambled_schematic=4&participantId=45F3B52EB83A49E49D4C7F95087F5681&assignmentId=0198bea0-9aa5-7eba-ab65-4b6838d58e1f&projectId=0198be8b-78cf-72d2-ba2b-1e62c78022e0","45F3B52EB83A49E49D4C7F95087F5681-2025-08-18-20-06-11","","null","","images/semantic_sequence/redecorating_semantic/redecorating_semantic_0.png","null","",""
"","","","","","image-button-response","57","673230","0.0-12.0-1.0-0.0","45F3B52EB83A49E49D4C7F95087F5681","45F3B52EB83A49E49D4C7F95087F5681","0198bea0-9aa5-7eba-ab65-4b6838d58e1f","0198be8b-78cf-72d2-ba2b-1e62c78022e0","{""num_scrambled_semantic"":""8"",""num_scrambled_causal"":""4"",""num_scrambled_schematic"":""4"",""participantId"":""45F3B52EB83A49E49D4C7F95087F5681"",""assignmentId"":""0198bea0-9aa5-7eba-ab65-4b6838d58e1f"",""projectId"":""0198be8b-78cf-72d2-ba2b-1e62c78022e0""}","https://test12345.live/?num_scrambled_semantic=8&num_scrambled_causal=4&num_scrambled_schematic=4&participantId=45F3B52EB83A49E49D4C7F95087F5681&assignmentId=0198bea0-9aa5-7eba-ab65-4b6838d58e1f&projectId=0198be8b-78cf-72d2-ba2b-1e62c78022e0","45F3B52EB83A49E49D4C7F95087F5681-2025-08-18-20-06-11","","null","","images/semantic_sequence/redecorating_semantic/redecorating_semantic_ten.png","null","",""
"","","","","","image-button-response","58","676234","0.0-12.0-1.0-1.0","45F3B52EB83A49E49D4C7F95087F5681","45F3B52EB83A49E49D4C7F95087F5681","0198bea0-9aa5-7eba-ab65-4b6838d58e1f","0198be8b-78cf-72d2-ba2b-1e62c78022e0","{""num_scrambled_semantic"":""8"",""num_scrambled_causal"":""4"",""num_scrambled_schematic"":""4"",""participantId"":""45F3B52EB83A49E49D4C7F95087F5681"",""assignmentId"":""0198bea0-9aa5-7eba-ab65-4b6838d58e1f"",""projectId"":""0198be8b-78cf-72d2-ba2b-1e62c78022e0""}","https://test12345.live/?num_scrambled_semantic=8&num_scrambled_causal=4&num_scrambled_schematic=4&participantId=45F3B52EB83A49E49D4C7F95087F5681&assignmentId=0198bea0-9aa5-7eba-ab65-4b6838d58e1f&projectId=0198be8b-78cf-72d2-ba2b-1e62c78022e0","45F3B52EB83A49E49D4C7F95087F5681-2025-08-18-20-06-11","","3002","","images/semantic_sequence/redecorating_semantic/redecorating_semantic_ten.png","0","",""
"","","","","","image-button-response","59","678038","0.0-12.0-1.0-2.0","45F3B52EB83A49E49D4C7F95087F5681","45F3B52EB83A49E49D4C7F95087F5681","0198bea0-9aa5-7eba-ab65-4b6838d58e1f","0198be8b-78cf-72d2-ba2b-1e62c78022e0","{""num_scrambled_semantic"":""8"",""num_scrambled_causal"":""4"",""num_scrambled_schematic"":""4"",""participantId"":""45F3B52EB83A49E49D4C7F95087F5681"",""assignmentId"":""0198bea0-9aa5-7eba-ab65-4b6838d58e1f"",""projectId"":""0198be8b-78cf-72d2-ba2b-1e62c78022e0""}","https://test12345.live/?num_scrambled_semantic=8&num_scrambled_causal=4&num_scrambled_schematic=4&participantId=45F3B52EB83A49E49D4C7F95087F5681&assignmentId=0198bea0-9aa5-7eba-ab65-4b6838d58e1f&projectId=0198be8b-78cf-72d2-ba2b-1e62c78022e0","45F3B52EB83A49E49D4C7F95087F5681-2025-08-18-20-06-11","","null","","[]","null","",""
"","","","","","image-button-response","60","682545","0.0-12.0-1.0-0.1","45F3B52EB83A49E49D4C7F95087F5681","45F3B52EB83A49E49D4C7F95087F5681","0198bea0-9aa5-7eba-ab65-4b6838d58e1f","0198be8b-78cf-72d2-ba2b-1e62c78022e0","{""num_scrambled_semantic"":""8"",""num_scrambled_causal"":""4"",""num_scrambled_schematic"":""4"",""participantId"":""45F3B52EB83A49E49D4C7F95087F5681"",""assignmentId"":""0198bea0-9aa5-7eba-ab65-4b6838d58e1f"",""projectId"":""0198be8b-78cf-72d2-ba2b-1e62c78022e0""}","https://test12345.live/?num_scrambled_semantic=8&num_scrambled_causal=4&num_scrambled_schematic=4&participantId=45F3B52EB83A49E49D4C7F95087F5681&assignmentId=0198bea0-9aa5-7eba-ab65-4b6838d58e1f&projectId=0198be8b-78cf-72d2-ba2b-1e62c78022e0","45F3B52EB83A49E49D4C7F95087F5681-2025-08-18-20-06-11","","null","","images/semantic_sequence/redecorating_semantic/redecorating_semantic_8.png","null","",""
"","","","","","image-button-response","61","684601","0.0-12.0-1.0-1.1","45F3B52EB83A49E49D4C7F95087F5681","45F3B52EB83A49E49D4C7F95087F5681","0198bea0-9aa5-7eba-ab65-4b6838d58e1f","0198be8b-78cf-72d2-ba2b-1e62c78022e0","{""num_scrambled_semantic"":""8"",""num_scrambled_causal"":""4"",""num_scrambled_schematic"":""4"",""participantId"":""45F3B52EB83A49E49D4C7F95087F5681"",""assignmentId"":""0198bea0-9aa5-7eba-ab65-4b6838d58e1f"",""projectId"":""0198be8b-78cf-72d2-ba2b-1e62c78022e0""}","https://test12345.live/?num_scrambled_semantic=8&num_scrambled_causal=4&num_scrambled_schematic=4&participantId=45F3B52EB83A49E49D4C7F95087F5681&assignmentId=0198bea0-9aa5-7eba-ab65-4b6838d58e1f&projectId=0198be8b-78cf-72d2-ba2b-1e62c78022e0","45F3B52EB83A49E49D4C7F95087F5681-2025-08-18-20-06-11","","2055","","images/semantic_sequence/redecorating_semantic/redecorating_semantic_8.png","0","",""
"","","","","","image-button-response","62","686408","0.0-12.0-1.0-2.1","45F3B52EB83A49E49D4C7F95087F5681","45F3B52EB83A49E49D4C7F95087F5681","0198bea0-9aa5-7eba-ab65-4b6838d58e1f","0198be8b-78cf-72d2-ba2b-1e62c78022e0","{""num_scrambled_semantic"":""8"",""num_scrambled_causal"":""4"",""num_scrambled_schematic"":""4"",""participantId"":""45F3B52EB83A49E49D4C7F95087F5681"",""assignmentId"":""0198bea0-9aa5-7eba-ab65-4b6838d58e1f"",""projectId"":""0198be8b-78cf-72d2-ba2b-1e62c78022e0""}","https://test12345.live/?num_scrambled_semantic=8&num_scrambled_causal=4&num_scrambled_schematic=4&participantId=45F3B52EB83A49E49D4C7F95087F5681&assignmentId=0198bea0-9aa5-7eba-ab65-4b6838d58e1f&projectId=0198be8b-78cf-72d2-ba2b-1e62c78022e0","45F3B52EB83A49E49D4C7F95087F5681-2025-08-18-20-06-11","","null","","[]","null","",""
"","","","","","image-button-response","63","690914","0.0-12.0-1.0-0.2","45F3B52EB83A49E49D4C7F95087F5681","45F3B52EB83A49E49D4C7F95087F5681","0198bea0-9aa5-7eba-ab65-4b6838d58e1f","0198be8b-78cf-72d2-ba2b-1e62c78022e0","{""num_scrambled_semantic"":""8"",""num_scrambled_causal"":""4"",""num_scrambled_schematic"":""4"",""participantId"":""45F3B52EB83A49E49D4C7F95087F5681"",""assignmentId"":""0198bea0-9aa5-7eba-ab65-4b6838d58e1f"",""projectId"":""0198be8b-78cf-72d2-ba2b-1e62c78022e0""}","https://test12345.live/?num_scrambled_semantic=8&num_scrambled_causal=4&num_scrambled_schematic=4&participantId=45F3B52EB83A49E49D4C7F95087F5681&assignmentId=0198bea0-9aa5-7eba-ab65-4b6838d58e1f&projectId=0198be8b-78cf-72d2-ba2b-1e62c78022e0","45F3B52EB83A49E49D4C7F95087F5681-2025-08-18-20-06-11","","null","","images/semantic_sequence/redecorating_semantic/redecorating_semantic_3.png","null","",""
"","","","","","image-button-response","64","695698","0.0-12.0-1.0-1.2","45F3B52EB83A49E49D4C7F95087F5681","45F3B52EB83A49E49D4C7F95087F5681","0198bea0-9aa5-7eba-ab65-4b6838d58e1f","0198be8b-78cf-72d2-ba2b-1e62c78022e0","{""num_scrambled_semantic"":""8"",""num_scrambled_causal"":""4"",""num_scrambled_schematic"":""4"",""participantId"":""45F3B52EB83A49E49D4C7F95087F5681"",""assignmentId"":""0198bea0-9aa5-7eba-ab65-4b6838d58e1f"",""projectId"":""0198be8b-78cf-72d2-ba2b-1e62c78022e0""}","https://test12345.live/?num_scrambled_semantic=8&num_scrambled_causal=4&num_scrambled_schematic=4&participantId=45F3B52EB83A49E49D4C7F95087F5681&assignmentId=0198bea0-9aa5-7eba-ab65-4b6838d58e1f&projectId=0198be8b-78cf-72d2-ba2b-1e62c78022e0","45F3B52EB83A49E49D4C7F95087F5681-2025-08-18-20-06-11","","null","","images/semantic_sequence/redecorating_semantic/redecorating_semantic_3.png","null","",""
"","","","","","image-button-response","65","697698","0.0-12.0-1.0-2.2","45F3B52EB83A49E49D4C7F95087F5681","45F3B52EB83A49E49D4C7F95087F5681","0198bea0-9aa5-7eba-ab65-4b6838d58e1f","0198be8b-78cf-72d2-ba2b-1e62c78022e0","{""num_scrambled_semantic"":""8"",""num_scrambled_causal"":""4"",""num_scrambled_schematic"":""4"",""participantId"":""45F3B52EB83A49E49D4C7F95087F5681"",""assignmentId"":""0198bea0-9aa5-7eba-ab65-4b6838d58e1f"",""projectId"":""0198be8b-78cf-72d2-ba2b-1e62c78022e0""}","https://test12345.live/?num_scrambled_semantic=8&num_scrambled_causal=4&num_scrambled_schematic=4&participantId=45F3B52EB83A49E49D4C7F95087F5681&assignmentId=0198bea0-9aa5-7eba-ab65-4b6838d58e1f&projectId=0198be8b-78cf-72d2-ba2b-1e62c78022e0","45F3B52EB83A49E49D4C7F95087F5681-2025-08-18-20-06-11","","null","","[]","null","",""
"","","","","","image-button-response","66","702696","0.0-12.0-1.0-0.3","45F3B52EB83A49E49D4C7F95087F5681","45F3B52EB83A49E49D4C7F95087F5681","0198bea0-9aa5-7eba-ab65-4b6838d58e1f","0198be8b-78cf-72d2-ba2b-1e62c78022e0","{""num_scrambled_semantic"":""8"",""num_scrambled_causal"":""4"",""num_scrambled_schematic"":""4"",""participantId"":""45F3B52EB83A49E49D4C7F95087F5681"",""assignmentId"":""0198bea0-9aa5-7eba-ab65-4b6838d58e1f"",""projectId"":""0198be8b-78cf-72d2-ba2b-1e62c78022e0""}","https://test12345.live/?num_scrambled_semantic=8&num_scrambled_causal=4&num_scrambled_schematic=4&participantId=45F3B52EB83A49E49D4C7F95087F5681&assignmentId=0198bea0-9aa5-7eba-ab65-4b6838d58e1f&projectId=0198be8b-78cf-72d2-ba2b-1e62c78022e0","45F3B52EB83A49E49D4C7F95087F5681-2025-08-18-20-06-11","","null","","images/semantic_sequence/redecorating_semantic/redecorating_semantic_5.png","null","",""
"","","","","","image-button-response","67","706699","0.0-12.0-1.0-1.3","45F3B52EB83A49E49D4C7F95087F5681","45F3B52EB83A49E49D4C7F95087F5681","0198bea0-9aa5-7eba-ab65-4b6838d58e1f","0198be8b-78cf-72d2-ba2b-1e62c78022e0","{""num_scrambled_semantic"":""8"",""num_scrambled_causal"":""4"",""num_scrambled_schematic"":""4"",""participantId"":""45F3B52EB83A49E49D4C7F95087F5681"",""assignmentId"":""0198bea0-9aa5-7eba-ab65-4b6838d58e1f"",""projectId"":""0198be8b-78cf-72d2-ba2b-1e62c78022e0""}","https://test12345.live/?num_scrambled_semantic=8&num_scrambled_causal=4&num_scrambled_schematic=4&participantId=45F3B52EB83A49E49D4C7F95087F5681&assignmentId=0198bea0-9aa5-7eba-ab65-4b6838d58e1f&projectId=0198be8b-78cf-72d2-ba2b-1e62c78022e0","45F3B52EB83A49E49D4C7F95087F5681-2025-08-18-20-06-11","","null","","images/semantic_sequence/redecorating_semantic/redecorating_semantic_5.png","null","",""
"","","","","","image-button-response","68","708503","0.0-12.0-1.0-2.3","45F3B52EB83A49E49D4C7F95087F5681","45F3B52EB83A49E49D4C7F95087F5681","0198bea0-9aa5-7eba-ab65-4b6838d58e1f","0198be8b-78cf-72d2-ba2b-1e62c78022e0","{""num_scrambled_semantic"":""8"",""num_scrambled_causal"":""4"",""num_scrambled_schematic"":""4"",""participantId"":""45F3B52EB83A49E49D4C7F95087F5681"",""assignmentId"":""0198bea0-9aa5-7eba-ab65-4b6838d58e1f"",""projectId"":""0198be8b-78cf-72d2-ba2b-1e62c78022e0""}","https://test12345.live/?num_scrambled_semantic=8&num_scrambled_causal=4&num_scrambled_schematic=4&participantId=45F3B52EB83A49E49D4C7F95087F5681&assignmentId=0198bea0-9aa5-7eba-ab65-4b6838d58e1f&projectId=0198be8b-78cf-72d2-ba2b-1e62c78022e0","45F3B52EB83A49E49D4C7F95087F5681-2025-08-18-20-06-11","","null","","[]","null","",""
"","","","","","image-button-response","69","713007","0.0-12.0-1.0-0.4","45F3B52EB83A49E49D4C7F95087F5681","45F3B52EB83A49E49D4C7F95087F5681","0198bea0-9aa5-7eba-ab65-4b6838d58e1f","0198be8b-78cf-72d2-ba2b-1e62c78022e0","{""num_scrambled_semantic"":""8"",""num_scrambled_causal"":""4"",""num_scrambled_schematic"":""4"",""participantId"":""45F3B52EB83A49E49D4C7F95087F5681"",""assignmentId"":""0198bea0-9aa5-7eba-ab65-4b6838d58e1f"",""projectId"":""0198be8b-78cf-72d2-ba2b-1e62c78022e0""}","https://test12345.live/?num_scrambled_semantic=8&num_scrambled_causal=4&num_scrambled_schematic=4&participantId=45F3B52EB83A49E49D4C7F95087F5681&assignmentId=0198bea0-9aa5-7eba-ab65-4b6838d58e1f&projectId=0198be8b-78cf-72d2-ba2b-1e62c78022e0","45F3B52EB83A49E49D4C7F95087F5681-2025-08-18-20-06-11","","null","","images/semantic_sequence/redecorating_semantic/redecorating_semantic_4.png","null","",""
"","","","","","image-button-response","70","714917","0.0-12.0-1.0-1.4","45F3B52EB83A49E49D4C7F95087F5681","45F3B52EB83A49E49D4C7F95087F5681","0198bea0-9aa5-7eba-ab65-4b6838d58e1f","0198be8b-78cf-72d2-ba2b-1e62c78022e0","{""num_scrambled_semantic"":""8"",""num_scrambled_causal"":""4"",""num_scrambled_schematic"":""4"",""participantId"":""45F3B52EB83A49E49D4C7F95087F5681"",""assignmentId"":""0198bea0-9aa5-7eba-ab65-4b6838d58e1f"",""projectId"":""0198be8b-78cf-72d2-ba2b-1e62c78022e0""}","https://test12345.live/?num_scrambled_semantic=8&num_scrambled_causal=4&num_scrambled_schematic=4&participantId=45F3B52EB83A49E49D4C7F95087F5681&assignmentId=0198bea0-9aa5-7eba-ab65-4b6838d58e1f&projectId=0198be8b-78cf-72d2-ba2b-1e62c78022e0","45F3B52EB83A49E49D4C7F95087F5681-2025-08-18-20-06-11","","1907","","images/semantic_sequence/redecorating_semantic/redecorating_semantic_4.png","0","",""
"","","","","","image-button-response","71","716723","0.0-12.0-1.0-2.4","45F3B52EB83A49E49D4C7F95087F5681","45F3B52EB83A49E49D4C7F95087F5681","0198bea0-9aa5-7eba-ab65-4b6838d58e1f","0198be8b-78cf-72d2-ba2b-1e62c78022e0","{""num_scrambled_semantic"":""8"",""num_scrambled_causal"":""4"",""num_scrambled_schematic"":""4"",""participantId"":""45F3B52EB83A49E49D4C7F95087F5681"",""assignmentId"":""0198bea0-9aa5-7eba-ab65-4b6838d58e1f"",""projectId"":""0198be8b-78cf-72d2-ba2b-1e62c78022e0""}","https://test12345.live/?num_scrambled_semantic=8&num_scrambled_causal=4&num_scrambled_schematic=4&participantId=45F3B52EB83A49E49D4C7F95087F5681&assignmentId=0198bea0-9aa5-7eba-ab65-4b6838d58e1f&projectId=0198be8b-78cf-72d2-ba2b-1e62c78022e0","45F3B52EB83A49E49D4C7F95087F5681-2025-08-18-20-06-11","","null","","[]","null","",""
"","","","","","image-button-response","72","721228","0.0-12.0-1.0-0.5","45F3B52EB83A49E49D4C7F95087F5681","45F3B52EB83A49E49D4C7F95087F5681","0198bea0-9aa5-7eba-ab65-4b6838d58e1f","0198be8b-78cf-72d2-ba2b-1e62c78022e0","{""num_scrambled_semantic"":""8"",""num_scrambled_causal"":""4"",""num_scrambled_schematic"":""4"",""participantId"":""45F3B52EB83A49E49D4C7F95087F5681"",""assignmentId"":""0198bea0-9aa5-7eba-ab65-4b6838d58e1f"",""projectId"":""0198be8b-78cf-72d2-ba2b-1e62c78022e0""}","https://test12345.live/?num_scrambled_semantic=8&num_scrambled_causal=4&num_scrambled_schematic=4&participantId=45F3B52EB83A49E49D4C7F95087F5681&assignmentId=0198bea0-9aa5-7eba-ab65-4b6838d58e1f&projectId=0198be8b-78cf-72d2-ba2b-1e62c78022e0","45F3B52EB83A49E49D4C7F95087F5681-2025-08-18-20-06-11","","null","","images/semantic_sequence/redecorating_semantic/redecorating_semantic_2.png","null","",""
"","","","","","image-button-response","73","721902","0.0-12.0-1.0-1.5","45F3B52EB83A49E49D4C7F95087F5681","45F3B52EB83A49E49D4C7F95087F5681","0198bea0-9aa5-7eba-ab65-4b6838d58e1f","0198be8b-78cf-72d2-ba2b-1e62c78022e0","{""num_scrambled_semantic"":""8"",""num_scrambled_causal"":""4"",""num_scrambled_schematic"":""4"",""participantId"":""45F3B52EB83A49E49D4C7F95087F5681"",""assignmentId"":""0198bea0-9aa5-7eba-ab65-4b6838d58e1f"",""projectId"":""0198be8b-78cf-72d2-ba2b-1e62c78022e0""}","https://test12345.live/?num_scrambled_semantic=8&num_scrambled_causal=4&num_scrambled_schematic=4&participantId=45F3B52EB83A49E49D4C7F95087F5681&assignmentId=0198bea0-9aa5-7eba-ab65-4b6838d58e1f&projectId=0198be8b-78cf-72d2-ba2b-1e62c78022e0","45F3B52EB83A49E49D4C7F95087F5681-2025-08-18-20-06-11","","671","","images/semantic_sequence/redecorating_semantic/redecorating_semantic_2.png","0","",""
"","","","","","image-button-response","74","723704","0.0-12.0-1.0-2.5","45F3B52EB83A49E49D4C7F95087F5681","45F3B52EB83A49E49D4C7F95087F5681","0198bea0-9aa5-7eba-ab65-4b6838d58e1f","0198be8b-78cf-72d2-ba2b-1e62c78022e0","{""num_scrambled_semantic"":""8"",""num_scrambled_causal"":""4"",""num_scrambled_schematic"":""4"",""participantId"":""45F3B52EB83A49E49D4C7F95087F5681"",""assignmentId"":""0198bea0-9aa5-7eba-ab65-4b6838d58e1f"",""projectId"":""0198be8b-78cf-72d2-ba2b-1e62c78022e0""}","https://test12345.live/?num_scrambled_semantic=8&num_scrambled_causal=4&num_scrambled_schematic=4&participantId=45F3B52EB83A49E49D4C7F95087F5681&assignmentId=0198bea0-9aa5-7eba-ab65-4b6838d58e1f&projectId=0198be8b-78cf-72d2-ba2b-1e62c78022e0","45F3B52EB83A49E49D4C7F95087F5681-2025-08-18-20-06-11","","null","","[]","null","",""
"","","","","","image-button-response","75","728208","0.0-12.0-1.0-0.6","45F3B52EB83A49E49D4C7F95087F5681","45F3B52EB83A49E49D4C7F95087F5681","0198bea0-9aa5-7eba-ab65-4b6838d58e1f","0198be8b-78cf-72d2-ba2b-1e62c78022e0","{""num_scrambled_semantic"":""8"",""num_scrambled_causal"":""4"",""num_scrambled_schematic"":""4"",""participantId"":""45F3B52EB83A49E49D4C7F95087F5681"",""assignmentId"":""0198bea0-9aa5-7eba-ab65-4b6838d58e1f"",""projectId"":""0198be8b-78cf-72d2-ba2b-1e62c78022e0""}","https://test12345.live/?num_scrambled_semantic=8&num_scrambled_causal=4&num_scrambled_schematic=4&participantId=45F3B52EB83A49E49D4C7F95087F5681&assignmentId=0198bea0-9aa5-7eba-ab65-4b6838d58e1f&projectId=0198be8b-78cf-72d2-ba2b-1e62c78022e0","45F3B52EB83A49E49D4C7F95087F5681-2025-08-18-20-06-11","","null","","images/semantic_sequence/redecorating_semantic/redecorating_semantic_6.png","null","",""
"","","","","","image-button-response","76","729368","0.0-12.0-1.0-1.6","45F3B52EB83A49E49D4C7F95087F5681","45F3B52EB83A49E49D4C7F95087F5681","0198bea0-9aa5-7eba-ab65-4b6838d58e1f","0198be8b-78cf-72d2-ba2b-1e62c78022e0","{""num_scrambled_semantic"":""8"",""num_scrambled_causal"":""4"",""num_scrambled_schematic"":""4"",""participantId"":""45F3B52EB83A49E49D4C7F95087F5681"",""assignmentId"":""0198bea0-9aa5-7eba-ab65-4b6838d58e1f"",""projectId"":""0198be8b-78cf-72d2-ba2b-1e62c78022e0""}","https://test12345.live/?num_scrambled_semantic=8&num_scrambled_causal=4&num_scrambled_schematic=4&participantId=45F3B52EB83A49E49D4C7F95087F5681&assignmentId=0198bea0-9aa5-7eba-ab65-4b6838d58e1f&projectId=0198be8b-78cf-72d2-ba2b-1e62c78022e0","45F3B52EB83A49E49D4C7F95087F5681-2025-08-18-20-06-11","","1158","","images/semantic_sequence/redecorating_semantic/redecorating_semantic_6.png","0","",""
"","","","","","image-button-response","77","731173","0.0-12.0-1.0-2.6","45F3B52EB83A49E49D4C7F95087F5681","45F3B52EB83A49E49D4C7F95087F5681","0198bea0-9aa5-7eba-ab65-4b6838d58e1f","0198be8b-78cf-72d2-ba2b-1e62c78022e0","{""num_scrambled_semantic"":""8"",""num_scrambled_causal"":""4"",""num_scrambled_schematic"":""4"",""participantId"":""45F3B52EB83A49E49D4C7F95087F5681"",""assignmentId"":""0198bea0-9aa5-7eba-ab65-4b6838d58e1f"",""projectId"":""0198be8b-78cf-72d2-ba2b-1e62c78022e0""}","https://test12345.live/?num_scrambled_semantic=8&num_scrambled_causal=4&num_scrambled_schematic=4&participantId=45F3B52EB83A49E49D4C7F95087F5681&assignmentId=0198bea0-9aa5-7eba-ab65-4b6838d58e1f&projectId=0198be8b-78cf-72d2-ba2b-1e62c78022e0","45F3B52EB83A49E49D4C7F95087F5681-2025-08-18-20-06-11","","null","","[]","null","",""
"","","","","","image-button-response","78","735676","0.0-12.0-1.0-0.7","45F3B52EB83A49E49D4C7F95087F5681","45F3B52EB83A49E49D4C7F95087F5681","0198bea0-9aa5-7eba-ab65-4b6838d58e1f","0198be8b-78cf-72d2-ba2b-1e62c78022e0","{""num_scrambled_semantic"":""8"",""num_scrambled_causal"":""4"",""num_scrambled_schematic"":""4"",""participantId"":""45F3B52EB83A49E49D4C7F95087F5681"",""assignmentId"":""0198bea0-9aa5-7eba-ab65-4b6838d58e1f"",""projectId"":""0198be8b-78cf-72d2-ba2b-1e62c78022e0""}","https://test12345.live/?num_scrambled_semantic=8&num_scrambled_causal=4&num_scrambled_schematic=4&participantId=45F3B52EB83A49E49D4C7F95087F5681&assignmentId=0198bea0-9aa5-7eba-ab65-4b6838d58e1f&projectId=0198be8b-78cf-72d2-ba2b-1e62c78022e0","45F3B52EB83A49E49D4C7F95087F5681-2025-08-18-20-06-11","","null","","images/semantic_sequence/redecorating_semantic/redecorating_semantic_9.png","null","",""
"","","","","","image-button-response","79","736602","0.0-12.0-1.0-1.7","45F3B52EB83A49E49D4C7F95087F5681","45F3B52EB83A49E49D4C7F95087F5681","0198bea0-9aa5-7eba-ab65-4b6838d58e1f","0198be8b-78cf-72d2-ba2b-1e62c78022e0","{""num_scrambled_semantic"":""8"",""num_scrambled_causal"":""4"",""num_scrambled_schematic"":""4"",""participantId"":""45F3B52EB83A49E49D4C7F95087F5681"",""assignmentId"":""0198bea0-9aa5-7eba-ab65-4b6838d58e1f"",""projectId"":""0198be8b-78cf-72d2-ba2b-1e62c78022e0""}","https://test12345.live/?num_scrambled_semantic=8&num_scrambled_causal=4&num_scrambled_schematic=4&participantId=45F3B52EB83A49E49D4C7F95087F5681&assignmentId=0198bea0-9aa5-7eba-ab65-4b6838d58e1f&projectId=0198be8b-78cf-72d2-ba2b-1e62c78022e0","45F3B52EB83A49E49D4C7F95087F5681-2025-08-18-20-06-11","","923","","images/semantic_sequence/redecorating_semantic/redecorating_semantic_9.png","0","",""
"","","","","","image-button-response","80","738408","0.0-12.0-1.0-2.7","45F3B52EB83A49E49D4C7F95087F5681","45F3B52EB83A49E49D4C7F95087F5681","0198bea0-9aa5-7eba-ab65-4b6838d58e1f","0198be8b-78cf-72d2-ba2b-1e62c78022e0","{""num_scrambled_semantic"":""8"",""num_scrambled_causal"":""4"",""num_scrambled_schematic"":""4"",""participantId"":""45F3B52EB83A49E49D4C7F95087F5681"",""assignmentId"":""0198bea0-9aa5-7eba-ab65-4b6838d58e1f"",""projectId"":""0198be8b-78cf-72d2-ba2b-1e62c78022e0""}","https://test12345.live/?num_scrambled_semantic=8&num_scrambled_causal=4&num_scrambled_schematic=4&participantId=45F3B52EB83A49E49D4C7F95087F5681&assignmentId=0198bea0-9aa5-7eba-ab65-4b6838d58e1f&projectId=0198be8b-78cf-72d2-ba2b-1e62c78022e0","45F3B52EB83A49E49D4C7F95087F5681-2025-08-18-20-06-11","","null","","[]","null","",""
"","","","","","image-button-response","81","742912","0.0-12.0-1.0-0.8","45F3B52EB83A49E49D4C7F95087F5681","45F3B52EB83A49E49D4C7F95087F5681","0198bea0-9aa5-7eba-ab65-4b6838d58e1f","0198be8b-78cf-72d2-ba2b-1e62c78022e0","{""num_scrambled_semantic"":""8"",""num_scrambled_causal"":""4"",""num_scrambled_schematic"":""4"",""participantId"":""45F3B52EB83A49E49D4C7F95087F5681"",""assignmentId"":""0198bea0-9aa5-7eba-ab65-4b6838d58e1f"",""projectId"":""0198be8b-78cf-72d2-ba2b-1e62c78022e0""}","https://test12345.live/?num_scrambled_semantic=8&num_scrambled_causal=4&num_scrambled_schematic=4&participantId=45F3B52EB83A49E49D4C7F95087F5681&assignmentId=0198bea0-9aa5-7eba-ab65-4b6838d58e1f&projectId=0198be8b-78cf-72d2-ba2b-1e62c78022e0","45F3B52EB83A49E49D4C7F95087F5681-2025-08-18-20-06-11","","null","","images/semantic_sequence/redecorating_semantic/redecorating_semantic_7.png","null","",""
"","","","","","image-button-response","82","743568","0.0-12.0-1.0-1.8","45F3B52EB83A49E49D4C7F95087F5681","45F3B52EB83A49E49D4C7F95087F5681","0198bea0-9aa5-7eba-ab65-4b6838d58e1f","0198be8b-78cf-72d2-ba2b-1e62c78022e0","{""num_scrambled_semantic"":""8"",""num_scrambled_causal"":""4"",""num_scrambled_schematic"":""4"",""participantId"":""45F3B52EB83A49E49D4C7F95087F5681"",""assignmentId"":""0198bea0-9aa5-7eba-ab65-4b6838d58e1f"",""projectId"":""0198be8b-78cf-72d2-ba2b-1e62c78022e0""}","https://test12345.live/?num_scrambled_semantic=8&num_scrambled_causal=4&num_scrambled_schematic=4&participantId=45F3B52EB83A49E49D4C7F95087F5681&assignmentId=0198bea0-9aa5-7eba-ab65-4b6838d58e1f&projectId=0198be8b-78cf-72d2-ba2b-1e62c78022e0","45F3B52EB83A49E49D4C7F95087F5681-2025-08-18-20-06-11","","654","","images/semantic_sequence/redecorating_semantic/redecorating_semantic_7.png","0","",""
"","","","","","image-button-response","83","745373","0.0-12.0-1.0-2.8","45F3B52EB83A49E49D4C7F95087F5681","45F3B52EB83A49E49D4C7F95087F5681","0198bea0-9aa5-7eba-ab65-4b6838d58e1f","0198be8b-78cf-72d2-ba2b-1e62c78022e0","{""num_scrambled_semantic"":""8"",""num_scrambled_causal"":""4"",""num_scrambled_schematic"":""4"",""participantId"":""45F3B52EB83A49E49D4C7F95087F5681"",""assignmentId"":""0198bea0-9aa5-7eba-ab65-4b6838d58e1f"",""projectId"":""0198be8b-78cf-72d2-ba2b-1e62c78022e0""}","https://test12345.live/?num_scrambled_semantic=8&num_scrambled_causal=4&num_scrambled_schematic=4&participantId=45F3B52EB83A49E49D4C7F95087F5681&assignmentId=0198bea0-9aa5-7eba-ab65-4b6838d58e1f&projectId=0198be8b-78cf-72d2-ba2b-1e62c78022e0","45F3B52EB83A49E49D4C7F95087F5681-2025-08-18-20-06-11","","null","","[]","null","",""
"","","","","","image-button-response","84","749877","0.0-12.0-1.0-0.9","45F3B52EB83A49E49D4C7F95087F5681","45F3B52EB83A49E49D4C7F95087F5681","0198bea0-9aa5-7eba-ab65-4b6838d58e1f","0198be8b-78cf-72d2-ba2b-1e62c78022e0","{""num_scrambled_semantic"":""8"",""num_scrambled_causal"":""4"",""num_scrambled_schematic"":""4"",""participantId"":""45F3B52EB83A49E49D4C7F95087F5681"",""assignmentId"":""0198bea0-9aa5-7eba-ab65-4b6838d58e1f"",""projectId"":""0198be8b-78cf-72d2-ba2b-1e62c78022e0""}","https://test12345.live/?num_scrambled_semantic=8&num_scrambled_causal=4&num_scrambled_schematic=4&participantId=45F3B52EB83A49E49D4C7F95087F5681&assignmentId=0198bea0-9aa5-7eba-ab65-4b6838d58e1f&projectId=0198be8b-78cf-72d2-ba2b-1e62c78022e0","45F3B52EB83A49E49D4C7F95087F5681-2025-08-18-20-06-11","","null","","images/semantic_sequence/redecorating_semantic/redecorating_semantic_1.png","null","",""
"","","","","","image-button-response","85","750518","0.0-12.0-1.0-1.9","45F3B52EB83A49E49D4C7F95087F5681","45F3B52EB83A49E49D4C7F95087F5681","0198bea0-9aa5-7eba-ab65-4b6838d58e1f","0198be8b-78cf-72d2-ba2b-1e62c78022e0","{""num_scrambled_semantic"":""8"",""num_scrambled_causal"":""4"",""num_scrambled_schematic"":""4"",""participantId"":""45F3B52EB83A49E49D4C7F95087F5681"",""assignmentId"":""0198bea0-9aa5-7eba-ab65-4b6838d58e1f"",""projectId"":""0198be8b-78cf-72d2-ba2b-1e62c78022e0""}","https://test12345.live/?num_scrambled_semantic=8&num_scrambled_causal=4&num_scrambled_schematic=4&participantId=45F3B52EB83A49E49D4C7F95087F5681&assignmentId=0198bea0-9aa5-7eba-ab65-4b6838d58e1f&projectId=0198be8b-78cf-72d2-ba2b-1e62c78022e0","45F3B52EB83A49E49D4C7F95087F5681-2025-08-18-20-06-11","","639","","images/semantic_sequence/redecorating_semantic/redecorating_semantic_1.png","0","",""
"","","","","","image-button-response","86","752321","0.0-12.0-1.0-2.9","45F3B52EB83A49E49D4C7F95087F5681","45F3B52EB83A49E49D4C7F95087F5681","0198bea0-9aa5-7eba-ab65-4b6838d58e1f","0198be8b-78cf-72d2-ba2b-1e62c78022e0","{""num_scrambled_semantic"":""8"",""num_scrambled_causal"":""4"",""num_scrambled_schematic"":""4"",""participantId"":""45F3B52EB83A49E49D4C7F95087F5681"",""assignmentId"":""0198bea0-9aa5-7eba-ab65-4b6838d58e1f"",""projectId"":""0198be8b-78cf-72d2-ba2b-1e62c78022e0""}","https://test12345.live/?num_scrambled_semantic=8&num_scrambled_causal=4&num_scrambled_schematic=4&participantId=45F3B52EB83A49E49D4C7F95087F5681&assignmentId=0198bea0-9aa5-7eba-ab65-4b6838d58e1f&projectId=0198be8b-78cf-72d2-ba2b-1e62c78022e0","45F3B52EB83A49E49D4C7F95087F5681-2025-08-18-20-06-11","","null","","[]","null","",""
"","","","","","html-audio-response","87","792300","0.0-13.0","45F3B52EB83A49E49D4C7F95087F5681","45F3B52EB83A49E49D4C7F95087F5681","0198bea0-9aa5-7eba-ab65-4b6838d58e1f","0198be8b-78cf-72d2-ba2b-1e62c78022e0","{""num_scrambled_semantic"":""8"",""num_scrambled_causal"":""4"",""num_scrambled_schematic"":""4"",""participantId"":""45F3B52EB83A49E49D4C7F95087F5681"",""assignmentId"":""0198bea0-9aa5-7eba-ab65-4b6838d58e1f"",""projectId"":""0198be8b-78cf-72d2-ba2b-1e62c78022e0""}","https://test12345.live/?num_scrambled_semantic=8&num_scrambled_causal=4&num_scrambled_schematic=4&participantId=45F3B52EB83A49E49D4C7F95087F5681&assignmentId=0198bea0-9aa5-7eba-ab65-4b6838d58e1f&projectId=0198be8b-78cf-72d2-ba2b-1e62c78022e0","45F3B52EB83A49E49D4C7F95087F5681-2025-08-18-20-06-11","","8454","","[""<span style=\""color: red; font-size: 24px\""> NOW RECORDING</span><p>Please say out loud all the images you saw, in the order of the story they create. Try to recall the sequence of events as they appeared in the story, not necessarily the order they were presented on the screen.</p>""]","","4","redecorating_semantic"
"","","","","","image-button-response","88","798308","0.0-14.0-0.0","45F3B52EB83A49E49D4C7F95087F5681","45F3B52EB83A49E49D4C7F95087F5681","0198bea0-9aa5-7eba-ab65-4b6838d58e1f","0198be8b-78cf-72d2-ba2b-1e62c78022e0","{""num_scrambled_semantic"":""8"",""num_scrambled_causal"":""4"",""num_scrambled_schematic"":""4"",""participantId"":""45F3B52EB83A49E49D4C7F95087F5681"",""assignmentId"":""0198bea0-9aa5-7eba-ab65-4b6838d58e1f"",""projectId"":""0198be8b-78cf-72d2-ba2b-1e62c78022e0""}","https://test12345.live/?num_scrambled_semantic=8&num_scrambled_causal=4&num_scrambled_schematic=4&participantId=45F3B52EB83A49E49D4C7F95087F5681&assignmentId=0198bea0-9aa5-7eba-ab65-4b6838d58e1f&projectId=0198be8b-78cf-72d2-ba2b-1e62c78022e0","45F3B52EB83A49E49D4C7F95087F5681-2025-08-18-20-06-11","","null","","images/causal_sequence/saving_a_cat_causal/saving_a_cat_causal_0.png","null","",""
"","","","","","image-button-response","89","802814","0.0-14.0-1.0-0.0","45F3B52EB83A49E49D4C7F95087F5681","45F3B52EB83A49E49D4C7F95087F5681","0198bea0-9aa5-7eba-ab65-4b6838d58e1f","0198be8b-78cf-72d2-ba2b-1e62c78022e0","{""num_scrambled_semantic"":""8"",""num_scrambled_causal"":""4"",""num_scrambled_schematic"":""4"",""participantId"":""45F3B52EB83A49E49D4C7F95087F5681"",""assignmentId"":""0198bea0-9aa5-7eba-ab65-4b6838d58e1f"",""projectId"":""0198be8b-78cf-72d2-ba2b-1e62c78022e0""}","https://test12345.live/?num_scrambled_semantic=8&num_scrambled_causal=4&num_scrambled_schematic=4&participantId=45F3B52EB83A49E49D4C7F95087F5681&assignmentId=0198bea0-9aa5-7eba-ab65-4b6838d58e1f&projectId=0198be8b-78cf-72d2-ba2b-1e62c78022e0","45F3B52EB83A49E49D4C7F95087F5681-2025-08-18-20-06-11","","null","","images/causal_sequence/saving_a_cat_causal/saving_a_cat_causal_5.png","null","",""
"","","","","","image-button-response","90","805402","0.0-14.0-1.0-1.0","45F3B52EB83A49E49D4C7F95087F5681","45F3B52EB83A49E49D4C7F95087F5681","0198bea0-9aa5-7eba-ab65-4b6838d58e1f","0198be8b-78cf-72d2-ba2b-1e62c78022e0","{""num_scrambled_semantic"":""8"",""num_scrambled_causal"":""4"",""num_scrambled_schematic"":""4"",""participantId"":""45F3B52EB83A49E49D4C7F95087F5681"",""assignmentId"":""0198bea0-9aa5-7eba-ab65-4b6838d58e1f"",""projectId"":""0198be8b-78cf-72d2-ba2b-1e62c78022e0""}","https://test12345.live/?num_scrambled_semantic=8&num_scrambled_causal=4&num_scrambled_schematic=4&participantId=45F3B52EB83A49E49D4C7F95087F5681&assignmentId=0198bea0-9aa5-7eba-ab65-4b6838d58e1f&projectId=0198be8b-78cf-72d2-ba2b-1e62c78022e0","45F3B52EB83A49E49D4C7F95087F5681-2025-08-18-20-06-11","","2586","","images/causal_sequence/saving_a_cat_causal/saving_a_cat_causal_5.png","0","",""
"","","","","","image-button-response","91","807206","0.0-14.0-1.0-2.0","45F3B52EB83A49E49D4C7F95087F5681","45F3B52EB83A49E49D4C7F95087F5681","0198bea0-9aa5-7eba-ab65-4b6838d58e1f","0198be8b-78cf-72d2-ba2b-1e62c78022e0","{""num_scrambled_semantic"":""8"",""num_scrambled_causal"":""4"",""num_scrambled_schematic"":""4"",""participantId"":""45F3B52EB83A49E49D4C7F95087F5681"",""assignmentId"":""0198bea0-9aa5-7eba-ab65-4b6838d58e1f"",""projectId"":""0198be8b-78cf-72d2-ba2b-1e62c78022e0""}","https://test12345.live/?num_scrambled_semantic=8&num_scrambled_causal=4&num_scrambled_schematic=4&participantId=45F3B52EB83A49E49D4C7F95087F5681&assignmentId=0198bea0-9aa5-7eba-ab65-4b6838d58e1f&projectId=0198be8b-78cf-72d2-ba2b-1e62c78022e0","45F3B52EB83A49E49D4C7F95087F5681-2025-08-18-20-06-11","","null","","[]","null","",""
"","","","","","image-button-response","92","811709","0.0-14.0-1.0-0.1","45F3B52EB83A49E49D4C7F95087F5681","45F3B52EB83A49E49D4C7F95087F5681","0198bea0-9aa5-7eba-ab65-4b6838d58e1f","0198be8b-78cf-72d2-ba2b-1e62c78022e0","{""num_scrambled_semantic"":""8"",""num_scrambled_causal"":""4"",""num_scrambled_schematic"":""4"",""participantId"":""45F3B52EB83A49E49D4C7F95087F5681"",""assignmentId"":""0198bea0-9aa5-7eba-ab65-4b6838d58e1f"",""projectId"":""0198be8b-78cf-72d2-ba2b-1e62c78022e0""}","https://test12345.live/?num_scrambled_semantic=8&num_scrambled_causal=4&num_scrambled_schematic=4&participantId=45F3B52EB83A49E49D4C7F95087F5681&assignmentId=0198bea0-9aa5-7eba-ab65-4b6838d58e1f&projectId=0198be8b-78cf-72d2-ba2b-1e62c78022e0","45F3B52EB83A49E49D4C7F95087F5681-2025-08-18-20-06-11","","null","","images/causal_sequence/saving_a_cat_causal/saving_a_cat_causal_6.png","null","",""
"","","","","","image-button-response","93","813835","0.0-14.0-1.0-1.1","45F3B52EB83A49E49D4C7F95087F5681","45F3B52EB83A49E49D4C7F95087F5681","0198bea0-9aa5-7eba-ab65-4b6838d58e1f","0198be8b-78cf-72d2-ba2b-1e62c78022e0","{""num_scrambled_semantic"":""8"",""num_scrambled_causal"":""4"",""num_scrambled_schematic"":""4"",""participantId"":""45F3B52EB83A49E49D4C7F95087F5681"",""assignmentId"":""0198bea0-9aa5-7eba-ab65-4b6838d58e1f"",""projectId"":""0198be8b-78cf-72d2-ba2b-1e62c78022e0""}","https://test12345.live/?num_scrambled_semantic=8&num_scrambled_causal=4&num_scrambled_schematic=4&participantId=45F3B52EB83A49E49D4C7F95087F5681&assignmentId=0198bea0-9aa5-7eba-ab65-4b6838d58e1f&projectId=0198be8b-78cf-72d2-ba2b-1e62c78022e0","45F3B52EB83A49E49D4C7F95087F5681-2025-08-18-20-06-11","","2124","","images/causal_sequence/saving_a_cat_causal/saving_a_cat_causal_6.png","0","",""
"","","","","","image-button-response","94","815639","0.0-14.0-1.0-2.1","45F3B52EB83A49E49D4C7F95087F5681","45F3B52EB83A49E49D4C7F95087F5681","0198bea0-9aa5-7eba-ab65-4b6838d58e1f","0198be8b-78cf-72d2-ba2b-1e62c78022e0","{""num_scrambled_semantic"":""8"",""num_scrambled_causal"":""4"",""num_scrambled_schematic"":""4"",""participantId"":""45F3B52EB83A49E49D4C7F95087F5681"",""assignmentId"":""0198bea0-9aa5-7eba-ab65-4b6838d58e1f"",""projectId"":""0198be8b-78cf-72d2-ba2b-1e62c78022e0""}","https://test12345.live/?num_scrambled_semantic=8&num_scrambled_causal=4&num_scrambled_schematic=4&participantId=45F3B52EB83A49E49D4C7F95087F5681&assignmentId=0198bea0-9aa5-7eba-ab65-4b6838d58e1f&projectId=0198be8b-78cf-72d2-ba2b-1e62c78022e0","45F3B52EB83A49E49D4C7F95087F5681-2025-08-18-20-06-11","","null","","[]","null","",""
"","","","","","image-button-response","95","820146","0.0-14.0-1.0-0.2","45F3B52EB83A49E49D4C7F95087F5681","45F3B52EB83A49E49D4C7F95087F5681","0198bea0-9aa5-7eba-ab65-4b6838d58e1f","0198be8b-78cf-72d2-ba2b-1e62c78022e0","{""num_scrambled_semantic"":""8"",""num_scrambled_causal"":""4"",""num_scrambled_schematic"":""4"",""participantId"":""45F3B52EB83A49E49D4C7F95087F5681"",""assignmentId"":""0198bea0-9aa5-7eba-ab65-4b6838d58e1f"",""projectId"":""0198be8b-78cf-72d2-ba2b-1e62c78022e0""}","https://test12345.live/?num_scrambled_semantic=8&num_scrambled_causal=4&num_scrambled_schematic=4&participantId=45F3B52EB83A49E49D4C7F95087F5681&assignmentId=0198bea0-9aa5-7eba-ab65-4b6838d58e1f&projectId=0198be8b-78cf-72d2-ba2b-1e62c78022e0","45F3B52EB83A49E49D4C7F95087F5681-2025-08-18-20-06-11","","null","","images/causal_sequence/saving_a_cat_causal/saving_a_cat_causal_3.png","null","",""
"","","","","","image-button-response","96","822636","0.0-14.0-1.0-1.2","45F3B52EB83A49E49D4C7F95087F5681","45F3B52EB83A49E49D4C7F95087F5681","0198bea0-9aa5-7eba-ab65-4b6838d58e1f","0198be8b-78cf-72d2-ba2b-1e62c78022e0","{""num_scrambled_semantic"":""8"",""num_scrambled_causal"":""4"",""num_scrambled_schematic"":""4"",""participantId"":""45F3B52EB83A49E49D4C7F95087F5681"",""assignmentId"":""0198bea0-9aa5-7eba-ab65-4b6838d58e1f"",""projectId"":""0198be8b-78cf-72d2-ba2b-1e62c78022e0""}","https://test12345.live/?num_scrambled_semantic=8&num_scrambled_causal=4&num_scrambled_schematic=4&participantId=45F3B52EB83A49E49D4C7F95087F5681&assignmentId=0198bea0-9aa5-7eba-ab65-4b6838d58e1f&projectId=0198be8b-78cf-72d2-ba2b-1e62c78022e0","45F3B52EB83A49E49D4C7F95087F5681-2025-08-18-20-06-11","","2487","","images/causal_sequence/saving_a_cat_causal/saving_a_cat_causal_3.png","1","",""
"","","","","","image-button-response","97","824443","0.0-14.0-1.0-2.2","45F3B52EB83A49E49D4C7F95087F5681","45F3B52EB83A49E49D4C7F95087F5681","0198bea0-9aa5-7eba-ab65-4b6838d58e1f","0198be8b-78cf-72d2-ba2b-1e62c78022e0","{""num_scrambled_semantic"":""8"",""num_scrambled_causal"":""4"",""num_scrambled_schematic"":""4"",""participantId"":""45F3B52EB83A49E49D4C7F95087F5681"",""assignmentId"":""0198bea0-9aa5-7eba-ab65-4b6838d58e1f"",""projectId"":""0198be8b-78cf-72d2-ba2b-1e62c78022e0""}","https://test12345.live/?num_scrambled_semantic=8&num_scrambled_causal=4&num_scrambled_schematic=4&participantId=45F3B52EB83A49E49D4C7F95087F5681&assignmentId=0198bea0-9aa5-7eba-ab65-4b6838d58e1f&projectId=0198be8b-78cf-72d2-ba2b-1e62c78022e0","45F3B52EB83A49E49D4C7F95087F5681-2025-08-18-20-06-11","","null","","[]","null","",""
"","","","","","image-button-response","98","828950","0.0-14.0-1.0-0.3","45F3B52EB83A49E49D4C7F95087F5681","45F3B52EB83A49E49D4C7F95087F5681","0198bea0-9aa5-7eba-ab65-4b6838d58e1f","0198be8b-78cf-72d2-ba2b-1e62c78022e0","{""num_scrambled_semantic"":""8"",""num_scrambled_causal"":""4"",""num_scrambled_schematic"":""4"",""participantId"":""45F3B52EB83A49E49D4C7F95087F5681"",""assignmentId"":""0198bea0-9aa5-7eba-ab65-4b6838d58e1f"",""projectId"":""0198be8b-78cf-72d2-ba2b-1e62c78022e0""}","https://test12345.live/?num_scrambled_semantic=8&num_scrambled_causal=4&num_scrambled_schematic=4&participantId=45F3B52EB83A49E49D4C7F95087F5681&assignmentId=0198bea0-9aa5-7eba-ab65-4b6838d58e1f&projectId=0198be8b-78cf-72d2-ba2b-1e62c78022e0","45F3B52EB83A49E49D4C7F95087F5681-2025-08-18-20-06-11","","null","","images/causal_sequence/saving_a_cat_causal/saving_a_cat_causal_8.png","null","",""
"","","","","","image-button-response","99","829917","0.0-14.0-1.0-1.3","45F3B52EB83A49E49D4C7F95087F5681","45F3B52EB83A49E49D4C7F95087F5681","0198bea0-9aa5-7eba-ab65-4b6838d58e1f","0198be8b-78cf-72d2-ba2b-1e62c78022e0","{""num_scrambled_semantic"":""8"",""num_scrambled_causal"":""4"",""num_scrambled_schematic"":""4"",""participantId"":""45F3B52EB83A49E49D4C7F95087F5681"",""assignmentId"":""0198bea0-9aa5-7eba-ab65-4b6838d58e1f"",""projectId"":""0198be8b-78cf-72d2-ba2b-1e62c78022e0""}","https://test12345.live/?num_scrambled_semantic=8&num_scrambled_causal=4&num_scrambled_schematic=4&participantId=45F3B52EB83A49E49D4C7F95087F5681&assignmentId=0198bea0-9aa5-7eba-ab65-4b6838d58e1f&projectId=0198be8b-78cf-72d2-ba2b-1e62c78022e0","45F3B52EB83A49E49D4C7F95087F5681-2025-08-18-20-06-11","","965","","images/causal_sequence/saving_a_cat_causal/saving_a_cat_causal_8.png","0","",""
"","","","","","image-button-response","100","831718","0.0-14.0-1.0-2.3","45F3B52EB83A49E49D4C7F95087F5681","45F3B52EB83A49E49D4C7F95087F5681","0198bea0-9aa5-7eba-ab65-4b6838d58e1f","0198be8b-78cf-72d2-ba2b-1e62c78022e0","{""num_scrambled_semantic"":""8"",""num_scrambled_causal"":""4"",""num_scrambled_schematic"":""4"",""participantId"":""45F3B52EB83A49E49D4C7F95087F5681"",""assignmentId"":""0198bea0-9aa5-7eba-ab65-4b6838d58e1f"",""projectId"":""0198be8b-78cf-72d2-ba2b-1e62c78022e0""}","https://test12345.live/?num_scrambled_semantic=8&num_scrambled_causal=4&num_scrambled_schematic=4&participantId=45F3B52EB83A49E49D4C7F95087F5681&assignmentId=0198bea0-9aa5-7eba-ab65-4b6838d58e1f&projectId=0198be8b-78cf-72d2-ba2b-1e62c78022e0","45F3B52EB83A49E49D4C7F95087F5681-2025-08-18-20-06-11","","null","","[]","null","",""
"","","","","","image-button-response","101","836225","0.0-14.0-1.0-0.4","45F3B52EB83A49E49D4C7F95087F5681","45F3B52EB83A49E49D4C7F95087F5681","0198bea0-9aa5-7eba-ab65-4b6838d58e1f","0198be8b-78cf-72d2-ba2b-1e62c78022e0","{""num_scrambled_semantic"":""8"",""num_scrambled_causal"":""4"",""num_scrambled_schematic"":""4"",""participantId"":""45F3B52EB83A49E49D4C7F95087F5681"",""assignmentId"":""0198bea0-9aa5-7eba-ab65-4b6838d58e1f"",""projectId"":""0198be8b-78cf-72d2-ba2b-1e62c78022e0""}","https://test12345.live/?num_scrambled_semantic=8&num_scrambled_causal=4&num_scrambled_schematic=4&participantId=45F3B52EB83A49E49D4C7F95087F5681&assignmentId=0198bea0-9aa5-7eba-ab65-4b6838d58e1f&projectId=0198be8b-78cf-72d2-ba2b-1e62c78022e0","45F3B52EB83A49E49D4C7F95087F5681-2025-08-18-20-06-11","","null","","images/causal_sequence/saving_a_cat_causal/saving_a_cat_causal_2.png","null","",""
"","","","","","image-button-response","102","837751","0.0-14.0-1.0-1.4","45F3B52EB83A49E49D4C7F95087F5681","45F3B52EB83A49E49D4C7F95087F5681","0198bea0-9aa5-7eba-ab65-4b6838d58e1f","0198be8b-78cf-72d2-ba2b-1e62c78022e0","{""num_scrambled_semantic"":""8"",""num_scrambled_causal"":""4"",""num_scrambled_schematic"":""4"",""participantId"":""45F3B52EB83A49E49D4C7F95087F5681"",""assignmentId"":""0198bea0-9aa5-7eba-ab65-4b6838d58e1f"",""projectId"":""0198be8b-78cf-72d2-ba2b-1e62c78022e0""}","https://test12345.live/?num_scrambled_semantic=8&num_scrambled_causal=4&num_scrambled_schematic=4&participantId=45F3B52EB83A49E49D4C7F95087F5681&assignmentId=0198bea0-9aa5-7eba-ab65-4b6838d58e1f&projectId=0198be8b-78cf-72d2-ba2b-1e62c78022e0","45F3B52EB83A49E49D4C7F95087F5681-2025-08-18-20-06-11","","1525","","images/causal_sequence/saving_a_cat_causal/saving_a_cat_causal_2.png","1","",""
"","","","","","image-button-response","103","839558","0.0-14.0-1.0-2.4","45F3B52EB83A49E49D4C7F95087F5681","45F3B52EB83A49E49D4C7F95087F5681","0198bea0-9aa5-7eba-ab65-4b6838d58e1f","0198be8b-78cf-72d2-ba2b-1e62c78022e0","{""num_scrambled_semantic"":""8"",""num_scrambled_causal"":""4"",""num_scrambled_schematic"":""4"",""participantId"":""45F3B52EB83A49E49D4C7F95087F5681"",""assignmentId"":""0198bea0-9aa5-7eba-ab65-4b6838d58e1f"",""projectId"":""0198be8b-78cf-72d2-ba2b-1e62c78022e0""}","https://test12345.live/?num_scrambled_semantic=8&num_scrambled_causal=4&num_scrambled_schematic=4&participantId=45F3B52EB83A49E49D4C7F95087F5681&assignmentId=0198bea0-9aa5-7eba-ab65-4b6838d58e1f&projectId=0198be8b-78cf-72d2-ba2b-1e62c78022e0","45F3B52EB83A49E49D4C7F95087F5681-2025-08-18-20-06-11","","null","","[]","null","",""
"","","","","","image-button-response","104","844064","0.0-14.0-1.0-0.5","45F3B52EB83A49E49D4C7F95087F5681","45F3B52EB83A49E49D4C7F95087F5681","0198bea0-9aa5-7eba-ab65-4b6838d58e1f","0198be8b-78cf-72d2-ba2b-1e62c78022e0","{""num_scrambled_semantic"":""8"",""num_scrambled_causal"":""4"",""num_scrambled_schematic"":""4"",""participantId"":""45F3B52EB83A49E49D4C7F95087F5681"",""assignmentId"":""0198bea0-9aa5-7eba-ab65-4b6838d58e1f"",""projectId"":""0198be8b-78cf-72d2-ba2b-1e62c78022e0""}","https://test12345.live/?num_scrambled_semantic=8&num_scrambled_causal=4&num_scrambled_schematic=4&participantId=45F3B52EB83A49E49D4C7F95087F5681&assignmentId=0198bea0-9aa5-7eba-ab65-4b6838d58e1f&projectId=0198be8b-78cf-72d2-ba2b-1e62c78022e0","45F3B52EB83A49E49D4C7F95087F5681-2025-08-18-20-06-11","","null","","images/causal_sequence/saving_a_cat_causal/saving_a_cat_causal_9.png","null","",""
"","","","","","image-button-response","105","844851","0.0-14.0-1.0-1.5","45F3B52EB83A49E49D4C7F95087F5681","45F3B52EB83A49E49D4C7F95087F5681","0198bea0-9aa5-7eba-ab65-4b6838d58e1f","0198be8b-78cf-72d2-ba2b-1e62c78022e0","{""num_scrambled_semantic"":""8"",""num_scrambled_causal"":""4"",""num_scrambled_schematic"":""4"",""participantId"":""45F3B52EB83A49E49D4C7F95087F5681"",""assignmentId"":""0198bea0-9aa5-7eba-ab65-4b6838d58e1f"",""projectId"":""0198be8b-78cf-72d2-ba2b-1e62c78022e0""}","https://test12345.live/?num_scrambled_semantic=8&num_scrambled_causal=4&num_scrambled_schematic=4&participantId=45F3B52EB83A49E49D4C7F95087F5681&assignmentId=0198bea0-9aa5-7eba-ab65-4b6838d58e1f&projectId=0198be8b-78cf-72d2-ba2b-1e62c78022e0","45F3B52EB83A49E49D4C7F95087F5681-2025-08-18-20-06-11","","785","","images/causal_sequence/saving_a_cat_causal/saving_a_cat_causal_9.png","0","",""
"","","","","","image-button-response","106","846655","0.0-14.0-1.0-2.5","45F3B52EB83A49E49D4C7F95087F5681","45F3B52EB83A49E49D4C7F95087F5681","0198bea0-9aa5-7eba-ab65-4b6838d58e1f","0198be8b-78cf-72d2-ba2b-1e62c78022e0","{""num_scrambled_semantic"":""8"",""num_scrambled_causal"":""4"",""num_scrambled_schematic"":""4"",""participantId"":""45F3B52EB83A49E49D4C7F95087F5681"",""assignmentId"":""0198bea0-9aa5-7eba-ab65-4b6838d58e1f"",""projectId"":""0198be8b-78cf-72d2-ba2b-1e62c78022e0""}","https://test12345.live/?num_scrambled_semantic=8&num_scrambled_causal=4&num_scrambled_schematic=4&participantId=45F3B52EB83A49E49D4C7F95087F5681&assignmentId=0198bea0-9aa5-7eba-ab65-4b6838d58e1f&projectId=0198be8b-78cf-72d2-ba2b-1e62c78022e0","45F3B52EB83A49E49D4C7F95087F5681-2025-08-18-20-06-11","","null","","[]","null","",""
"","","","","","image-button-response","107","851156","0.0-14.0-1.0-0.6","45F3B52EB83A49E49D4C7F95087F5681","45F3B52EB83A49E49D4C7F95087F5681","0198bea0-9aa5-7eba-ab65-4b6838d58e1f","0198be8b-78cf-72d2-ba2b-1e62c78022e0","{""num_scrambled_semantic"":""8"",""num_scrambled_causal"":""4"",""num_scrambled_schematic"":""4"",""participantId"":""45F3B52EB83A49E49D4C7F95087F5681"",""assignmentId"":""0198bea0-9aa5-7eba-ab65-4b6838d58e1f"",""projectId"":""0198be8b-78cf-72d2-ba2b-1e62c78022e0""}","https://test12345.live/?num_scrambled_semantic=8&num_scrambled_causal=4&num_scrambled_schematic=4&participantId=45F3B52EB83A49E49D4C7F95087F5681&assignmentId=0198bea0-9aa5-7eba-ab65-4b6838d58e1f&projectId=0198be8b-78cf-72d2-ba2b-1e62c78022e0","45F3B52EB83A49E49D4C7F95087F5681-2025-08-18-20-06-11","","null","","images/causal_sequence/saving_a_cat_causal/saving_a_cat_causal_1.png","null","",""
"","","","","","image-button-response","108","851768","0.0-14.0-1.0-1.6","45F3B52EB83A49E49D4C7F95087F5681","45F3B52EB83A49E49D4C7F95087F5681","0198bea0-9aa5-7eba-ab65-4b6838d58e1f","0198be8b-78cf-72d2-ba2b-1e62c78022e0","{""num_scrambled_semantic"":""8"",""num_scrambled_causal"":""4"",""num_scrambled_schematic"":""4"",""participantId"":""45F3B52EB83A49E49D4C7F95087F5681"",""assignmentId"":""0198bea0-9aa5-7eba-ab65-4b6838d58e1f"",""projectId"":""0198be8b-78cf-72d2-ba2b-1e62c78022e0""}","https://test12345.live/?num_scrambled_semantic=8&num_scrambled_causal=4&num_scrambled_schematic=4&participantId=45F3B52EB83A49E49D4C7F95087F5681&assignmentId=0198bea0-9aa5-7eba-ab65-4b6838d58e1f&projectId=0198be8b-78cf-72d2-ba2b-1e62c78022e0","45F3B52EB83A49E49D4C7F95087F5681-2025-08-18-20-06-11","","610","","images/causal_sequence/saving_a_cat_causal/saving_a_cat_causal_1.png","0","",""
"","","","","","image-button-response","109","853573","0.0-14.0-1.0-2.6","45F3B52EB83A49E49D4C7F95087F5681","45F3B52EB83A49E49D4C7F95087F5681","0198bea0-9aa5-7eba-ab65-4b6838d58e1f","0198be8b-78cf-72d2-ba2b-1e62c78022e0","{""num_scrambled_semantic"":""8"",""num_scrambled_causal"":""4"",""num_scrambled_schematic"":""4"",""participantId"":""45F3B52EB83A49E49D4C7F95087F5681"",""assignmentId"":""0198bea0-9aa5-7eba-ab65-4b6838d58e1f"",""projectId"":""0198be8b-78cf-72d2-ba2b-1e62c78022e0""}","https://test12345.live/?num_scrambled_semantic=8&num_scrambled_causal=4&num_scrambled_schematic=4&participantId=45F3B52EB83A49E49D4C7F95087F5681&assignmentId=0198bea0-9aa5-7eba-ab65-4b6838d58e1f&projectId=0198be8b-78cf-72d2-ba2b-1e62c78022e0","45F3B52EB83A49E49D4C7F95087F5681-2025-08-18-20-06-11","","null","","[]","null","",""
"","","","","","image-button-response","110","858076","0.0-14.0-1.0-0.7","45F3B52EB83A49E49D4C7F95087F5681","45F3B52EB83A49E49D4C7F95087F5681","0198bea0-9aa5-7eba-ab65-4b6838d58e1f","0198be8b-78cf-72d2-ba2b-1e62c78022e0","{""num_scrambled_semantic"":""8"",""num_scrambled_causal"":""4"",""num_scrambled_schematic"":""4"",""participantId"":""45F3B52EB83A49E49D4C7F95087F5681"",""assignmentId"":""0198bea0-9aa5-7eba-ab65-4b6838d58e1f"",""projectId"":""0198be8b-78cf-72d2-ba2b-1e62c78022e0""}","https://test12345.live/?num_scrambled_semantic=8&num_scrambled_causal=4&num_scrambled_schematic=4&participantId=45F3B52EB83A49E49D4C7F95087F5681&assignmentId=0198bea0-9aa5-7eba-ab65-4b6838d58e1f&projectId=0198be8b-78cf-72d2-ba2b-1e62c78022e0","45F3B52EB83A49E49D4C7F95087F5681-2025-08-18-20-06-11","","null","","images/causal_sequence/saving_a_cat_causal/saving_a_cat_causal_7.png","null","",""
"","","","","","image-button-response","111","858968","0.0-14.0-1.0-1.7","45F3B52EB83A49E49D4C7F95087F5681","45F3B52EB83A49E49D4C7F95087F5681","0198bea0-9aa5-7eba-ab65-4b6838d58e1f","0198be8b-78cf-72d2-ba2b-1e62c78022e0","{""num_scrambled_semantic"":""8"",""num_scrambled_causal"":""4"",""num_scrambled_schematic"":""4"",""participantId"":""45F3B52EB83A49E49D4C7F95087F5681"",""assignmentId"":""0198bea0-9aa5-7eba-ab65-4b6838d58e1f"",""projectId"":""0198be8b-78cf-72d2-ba2b-1e62c78022e0""}","https://test12345.live/?num_scrambled_semantic=8&num_scrambled_causal=4&num_scrambled_schematic=4&participantId=45F3B52EB83A49E49D4C7F95087F5681&assignmentId=0198bea0-9aa5-7eba-ab65-4b6838d58e1f&projectId=0198be8b-78cf-72d2-ba2b-1e62c78022e0","45F3B52EB83A49E49D4C7F95087F5681-2025-08-18-20-06-11","","891","","images/causal_sequence/saving_a_cat_causal/saving_a_cat_causal_7.png","0","",""
"","","","","","image-button-response","112","860773","0.0-14.0-1.0-2.7","45F3B52EB83A49E49D4C7F95087F5681","45F3B52EB83A49E49D4C7F95087F5681","0198bea0-9aa5-7eba-ab65-4b6838d58e1f","0198be8b-78cf-72d2-ba2b-1e62c78022e0","{""num_scrambled_semantic"":""8"",""num_scrambled_causal"":""4"",""num_scrambled_schematic"":""4"",""participantId"":""45F3B52EB83A49E49D4C7F95087F5681"",""assignmentId"":""0198bea0-9aa5-7eba-ab65-4b6838d58e1f"",""projectId"":""0198be8b-78cf-72d2-ba2b-1e62c78022e0""}","https://test12345.live/?num_scrambled_semantic=8&num_scrambled_causal=4&num_scrambled_schematic=4&participantId=45F3B52EB83A49E49D4C7F95087F5681&assignmentId=0198bea0-9aa5-7eba-ab65-4b6838d58e1f&projectId=0198be8b-78cf-72d2-ba2b-1e62c78022e0","45F3B52EB83A49E49D4C7F95087F5681-2025-08-18-20-06-11","","null","","[]","null","",""
"","","","","","image-button-response","113","865277","0.0-14.0-1.0-0.8","45F3B52EB83A49E49D4C7F95087F5681","45F3B52EB83A49E49D4C7F95087F5681","0198bea0-9aa5-7eba-ab65-4b6838d58e1f","0198be8b-78cf-72d2-ba2b-1e62c78022e0","{""num_scrambled_semantic"":""8"",""num_scrambled_causal"":""4"",""num_scrambled_schematic"":""4"",""participantId"":""45F3B52EB83A49E49D4C7F95087F5681"",""assignmentId"":""0198bea0-9aa5-7eba-ab65-4b6838d58e1f"",""projectId"":""0198be8b-78cf-72d2-ba2b-1e62c78022e0""}","https://test12345.live/?num_scrambled_semantic=8&num_scrambled_causal=4&num_scrambled_schematic=4&participantId=45F3B52EB83A49E49D4C7F95087F5681&assignmentId=0198bea0-9aa5-7eba-ab65-4b6838d58e1f&projectId=0198be8b-78cf-72d2-ba2b-1e62c78022e0","45F3B52EB83A49E49D4C7F95087F5681-2025-08-18-20-06-11","","null","","images/causal_sequence/saving_a_cat_causal/saving_a_cat_causal_ten.png","null","",""
