"success","timeout","failed_images","failed_audio","failed_video","trial_type","trial_index","time_elapsed","internal_node_id","subject","subject_id","study_id","session_id","urlvar","current_url","audio_id","view_history","rt","device_id","stimulus","response","estimated_stimulus_onset","seq_name"
"true","false","[]","[]","[]","preload","0","35","0.0-0.0","464DE6E64E9C4B1081719C0169E29EDD","464DE6E64E9C4B1081719C0169E29EDD","0198ee68-fb06-7d49-a567-8566d0a97af1","0198ee3c-27ac-7803-a9ea-f3b4ad4ad678","{""num_scrambled_semantic"":""8"",""num_scrambled_causal"":""4"",""num_scrambled_schematic"":""4"",""participantId"":""464DE6E64E9C4B1081719C0169E29EDD"",""assignmentId"":""0198ee68-fb06-7d49-a567-8566d0a97af1"",""projectId"":""0198ee3c-27ac-7803-a9ea-f3b4ad4ad678""}","https://test12345.live/?num_scrambled_semantic=8&num_scrambled_causal=4&num_scrambled_schematic=4&participantId=464DE6E64E9C4B1081719C0169E29EDD&assignmentId=0198ee68-fb06-7d49-a567-8566d0a97af1&projectId=0198ee3c-27ac-7803-a9ea-f3b4ad4ad678","464DE6E64E9C4B1081719C0169E29EDD-2025-08-28-03-10-02","","","","","","",""
"","","","","","instructions","1","5789","0.0-1.0","464DE6E64E9C4B1081719C0169E29EDD","464DE6E64E9C4B1081719C0169E29EDD","0198ee68-fb06-7d49-a567-8566d0a97af1","0198ee3c-27ac-7803-a9ea-f3b4ad4ad678","{""num_scrambled_semantic"":""8"",""num_scrambled_causal"":""4"",""num_scrambled_schematic"":""4"",""participantId"":""464DE6E64E9C4B1081719C0169E29EDD"",""assignmentId"":""0198ee68-fb06-7d49-a567-8566d0a97af1"",""projectId"":""0198ee3c-27ac-7803-a9ea-f3b4ad4ad678""}","https://test12345.live/?num_scrambled_semantic=8&num_scrambled_causal=4&num_scrambled_schematic=4&participantId=464DE6E64E9C4B1081719C0169E29EDD&assignmentId=0198ee68-fb06-7d49-a567-8566d0a97af1&projectId=0198ee3c-27ac-7803-a9ea-f3b4ad4ad678","464DE6E64E9C4B1081719C0169E29EDD-2025-08-28-03-10-02","[{""page_index"":0,""viewing_time"":5753}]","5753","","","","",""
"","","","","","instructions","2","8577","0.0-2.0","464DE6E64E9C4B1081719C0169E29EDD","464DE6E64E9C4B1081719C0169E29EDD","0198ee68-fb06-7d49-a567-8566d0a97af1","0198ee3c-27ac-7803-a9ea-f3b4ad4ad678","{""num_scrambled_semantic"":""8"",""num_scrambled_causal"":""4"",""num_scrambled_schematic"":""4"",""participantId"":""464DE6E64E9C4B1081719C0169E29EDD"",""assignmentId"":""0198ee68-fb06-7d49-a567-8566d0a97af1"",""projectId"":""0198ee3c-27ac-7803-a9ea-f3b4ad4ad678""}","https://test12345.live/?num_scrambled_semantic=8&num_scrambled_causal=4&num_scrambled_schematic=4&participantId=464DE6E64E9C4B1081719C0169E29EDD&assignmentId=0198ee68-fb06-7d49-a567-8566d0a97af1&projectId=0198ee3c-27ac-7803-a9ea-f3b4ad4ad678","464DE6E64E9C4B1081719C0169E29EDD-2025-08-28-03-10-02","[{""page_index"":0,""viewing_time"":2787}]","2788","","","","",""
"true","","","","","fullscreen","3","11026","0.0-3.0","464DE6E64E9C4B1081719C0169E29EDD","464DE6E64E9C4B1081719C0169E29EDD","0198ee68-fb06-7d49-a567-8566d0a97af1","0198ee3c-27ac-7803-a9ea-f3b4ad4ad678","{""num_scrambled_semantic"":""8"",""num_scrambled_causal"":""4"",""num_scrambled_schematic"":""4"",""participantId"":""464DE6E64E9C4B1081719C0169E29EDD"",""assignmentId"":""0198ee68-fb06-7d49-a567-8566d0a97af1"",""projectId"":""0198ee3c-27ac-7803-a9ea-f3b4ad4ad678""}","https://test12345.live/?num_scrambled_semantic=8&num_scrambled_causal=4&num_scrambled_schematic=4&participantId=464DE6E64E9C4B1081719C0169E29EDD&assignmentId=0198ee68-fb06-7d49-a567-8566d0a97af1&projectId=0198ee3c-27ac-7803-a9ea-f3b4ad4ad678","464DE6E64E9C4B1081719C0169E29EDD-2025-08-28-03-10-02","","1436","","","","",""
"","","","","","initialize-microphone","4","15390","0.0-4.0-0.0","464DE6E64E9C4B1081719C0169E29EDD","464DE6E64E9C4B1081719C0169E29EDD","0198ee68-fb06-7d49-a567-8566d0a97af1","0198ee3c-27ac-7803-a9ea-f3b4ad4ad678","{""num_scrambled_semantic"":""8"",""num_scrambled_causal"":""4"",""num_scrambled_schematic"":""4"",""participantId"":""464DE6E64E9C4B1081719C0169E29EDD"",""assignmentId"":""0198ee68-fb06-7d49-a567-8566d0a97af1"",""projectId"":""0198ee3c-27ac-7803-a9ea-f3b4ad4ad678""}","https://test12345.live/?num_scrambled_semantic=8&num_scrambled_causal=4&num_scrambled_schematic=4&participantId=464DE6E64E9C4B1081719C0169E29EDD&assignmentId=0198ee68-fb06-7d49-a567-8566d0a97af1&projectId=0198ee3c-27ac-7803-a9ea-f3b4ad4ad678","464DE6E64E9C4B1081719C0169E29EDD-2025-08-28-03-10-02","","","BBC10KXN5zywxu5dkfs/j1n8mz5taRAen4Msbfny4+o=","","","",""
"","","","","","html-audio-response","5","22694","0.0-4.0-1.0","464DE6E64E9C4B1081719C0169E29EDD","464DE6E64E9C4B1081719C0169E29EDD","0198ee68-fb06-7d49-a567-8566d0a97af1","0198ee3c-27ac-7803-a9ea-f3b4ad4ad678","{""num_scrambled_semantic"":""8"",""num_scrambled_causal"":""4"",""num_scrambled_schematic"":""4"",""participantId"":""464DE6E64E9C4B1081719C0169E29EDD"",""assignmentId"":""0198ee68-fb06-7d49-a567-8566d0a97af1"",""projectId"":""0198ee3c-27ac-7803-a9ea-f3b4ad4ad678""}","https://test12345.live/?num_scrambled_semantic=8&num_scrambled_causal=4&num_scrambled_schematic=4&participantId=464DE6E64E9C4B1081719C0169E29EDD&assignmentId=0198ee68-fb06-7d49-a567-8566d0a97af1&projectId=0198ee3c-27ac-7803-a9ea-f3b4ad4ad678","464DE6E64E9C4B1081719C0169E29EDD-2025-08-28-03-10-02","","3265","","<span style=""color: red; font-size: 24px""> NOW RECORDING</span>
        <p>Please test Microphone</p>","","1",""
"","","","","","html-button-response","6","23999","0.0-4.0-2.0","464DE6E64E9C4B1081719C0169E29EDD","464DE6E64E9C4B1081719C0169E29EDD","0198ee68-fb06-7d49-a567-8566d0a97af1","0198ee3c-27ac-7803-a9ea-f3b4ad4ad678","{""num_scrambled_semantic"":""8"",""num_scrambled_causal"":""4"",""num_scrambled_schematic"":""4"",""participantId"":""464DE6E64E9C4B1081719C0169E29EDD"",""assignmentId"":""0198ee68-fb06-7d49-a567-8566d0a97af1"",""projectId"":""0198ee3c-27ac-7803-a9ea-f3b4ad4ad678""}","https://test12345.live/?num_scrambled_semantic=8&num_scrambled_causal=4&num_scrambled_schematic=4&participantId=464DE6E64E9C4B1081719C0169E29EDD&assignmentId=0198ee68-fb06-7d49-a567-8566d0a97af1&projectId=0198ee3c-27ac-7803-a9ea-f3b4ad4ad678","464DE6E64E9C4B1081719C0169E29EDD-2025-08-28-03-10-02","","1304","","<p style=""font-size:48px; color:red;"">Is Microphone OK?</p>","1","",""
"","","","","","instructions","7","29204","0.0-5.0","464DE6E64E9C4B1081719C0169E29EDD","464DE6E64E9C4B1081719C0169E29EDD","0198ee68-fb06-7d49-a567-8566d0a97af1","0198ee3c-27ac-7803-a9ea-f3b4ad4ad678","{""num_scrambled_semantic"":""8"",""num_scrambled_causal"":""4"",""num_scrambled_schematic"":""4"",""participantId"":""464DE6E64E9C4B1081719C0169E29EDD"",""assignmentId"":""0198ee68-fb06-7d49-a567-8566d0a97af1"",""projectId"":""0198ee3c-27ac-7803-a9ea-f3b4ad4ad678""}","https://test12345.live/?num_scrambled_semantic=8&num_scrambled_causal=4&num_scrambled_schematic=4&participantId=464DE6E64E9C4B1081719C0169E29EDD&assignmentId=0198ee68-fb06-7d49-a567-8566d0a97af1&projectId=0198ee3c-27ac-7803-a9ea-f3b4ad4ad678","464DE6E64E9C4B1081719C0169E29EDD-2025-08-28-03-10-02","[{""page_index"":0,""viewing_time"":3627},{""page_index"":1,""viewing_time"":1577}]","5204","","","","",""
"","","","","","image-button-response","8","35222","0.0-6.0-0.0","464DE6E64E9C4B1081719C0169E29EDD","464DE6E64E9C4B1081719C0169E29EDD","0198ee68-fb06-7d49-a567-8566d0a97af1","0198ee3c-27ac-7803-a9ea-f3b4ad4ad678","{""num_scrambled_semantic"":""8"",""num_scrambled_causal"":""4"",""num_scrambled_schematic"":""4"",""participantId"":""464DE6E64E9C4B1081719C0169E29EDD"",""assignmentId"":""0198ee68-fb06-7d49-a567-8566d0a97af1"",""projectId"":""0198ee3c-27ac-7803-a9ea-f3b4ad4ad678""}","https://test12345.live/?num_scrambled_semantic=8&num_scrambled_causal=4&num_scrambled_schematic=4&participantId=464DE6E64E9C4B1081719C0169E29EDD&assignmentId=0198ee68-fb06-7d49-a567-8566d0a97af1&projectId=0198ee3c-27ac-7803-a9ea-f3b4ad4ad678","464DE6E64E9C4B1081719C0169E29EDD-2025-08-28-03-10-02","","null","","images/instructions/movie_0.png","null","",""
"","","","","","image-button-response","9","39774","0.0-6.0-1.0-0.0","464DE6E64E9C4B1081719C0169E29EDD","464DE6E64E9C4B1081719C0169E29EDD","0198ee68-fb06-7d49-a567-8566d0a97af1","0198ee3c-27ac-7803-a9ea-f3b4ad4ad678","{""num_scrambled_semantic"":""8"",""num_scrambled_causal"":""4"",""num_scrambled_schematic"":""4"",""participantId"":""464DE6E64E9C4B1081719C0169E29EDD"",""assignmentId"":""0198ee68-fb06-7d49-a567-8566d0a97af1"",""projectId"":""0198ee3c-27ac-7803-a9ea-f3b4ad4ad678""}","https://test12345.live/?num_scrambled_semantic=8&num_scrambled_causal=4&num_scrambled_schematic=4&participantId=464DE6E64E9C4B1081719C0169E29EDD&assignmentId=0198ee68-fb06-7d49-a567-8566d0a97af1&projectId=0198ee3c-27ac-7803-a9ea-f3b4ad4ad678","464DE6E64E9C4B1081719C0169E29EDD-2025-08-28-03-10-02","","null","","images/instructions/movie_1.png","null","",""
"","","","","","image-button-response","10","41187","0.0-6.0-1.0-1.0","464DE6E64E9C4B1081719C0169E29EDD","464DE6E64E9C4B1081719C0169E29EDD","0198ee68-fb06-7d49-a567-8566d0a97af1","0198ee3c-27ac-7803-a9ea-f3b4ad4ad678","{""num_scrambled_semantic"":""8"",""num_scrambled_causal"":""4"",""num_scrambled_schematic"":""4"",""participantId"":""464DE6E64E9C4B1081719C0169E29EDD"",""assignmentId"":""0198ee68-fb06-7d49-a567-8566d0a97af1"",""projectId"":""0198ee3c-27ac-7803-a9ea-f3b4ad4ad678""}","https://test12345.live/?num_scrambled_semantic=8&num_scrambled_causal=4&num_scrambled_schematic=4&participantId=464DE6E64E9C4B1081719C0169E29EDD&assignmentId=0198ee68-fb06-7d49-a567-8566d0a97af1&projectId=0198ee3c-27ac-7803-a9ea-f3b4ad4ad678","464DE6E64E9C4B1081719C0169E29EDD-2025-08-28-03-10-02","","1410","","images/instructions/movie_1.png","0","",""
"","","","","","image-button-response","11","42998","0.0-6.0-1.0-2.0","464DE6E64E9C4B1081719C0169E29EDD","464DE6E64E9C4B1081719C0169E29EDD","0198ee68-fb06-7d49-a567-8566d0a97af1","0198ee3c-27ac-7803-a9ea-f3b4ad4ad678","{""num_scrambled_semantic"":""8"",""num_scrambled_causal"":""4"",""num_scrambled_schematic"":""4"",""participantId"":""464DE6E64E9C4B1081719C0169E29EDD"",""assignmentId"":""0198ee68-fb06-7d49-a567-8566d0a97af1"",""projectId"":""0198ee3c-27ac-7803-a9ea-f3b4ad4ad678""}","https://test12345.live/?num_scrambled_semantic=8&num_scrambled_causal=4&num_scrambled_schematic=4&participantId=464DE6E64E9C4B1081719C0169E29EDD&assignmentId=0198ee68-fb06-7d49-a567-8566d0a97af1&projectId=0198ee3c-27ac-7803-a9ea-f3b4ad4ad678","464DE6E64E9C4B1081719C0169E29EDD-2025-08-28-03-10-02","","null","","[]","null","",""
"","","","","","image-button-response","12","47522","0.0-6.0-1.0-0.1","464DE6E64E9C4B1081719C0169E29EDD","464DE6E64E9C4B1081719C0169E29EDD","0198ee68-fb06-7d49-a567-8566d0a97af1","0198ee3c-27ac-7803-a9ea-f3b4ad4ad678","{""num_scrambled_semantic"":""8"",""num_scrambled_causal"":""4"",""num_scrambled_schematic"":""4"",""participantId"":""464DE6E64E9C4B1081719C0169E29EDD"",""assignmentId"":""0198ee68-fb06-7d49-a567-8566d0a97af1"",""projectId"":""0198ee3c-27ac-7803-a9ea-f3b4ad4ad678""}","https://test12345.live/?num_scrambled_semantic=8&num_scrambled_causal=4&num_scrambled_schematic=4&participantId=464DE6E64E9C4B1081719C0169E29EDD&assignmentId=0198ee68-fb06-7d49-a567-8566d0a97af1&projectId=0198ee3c-27ac-7803-a9ea-f3b4ad4ad678","464DE6E64E9C4B1081719C0169E29EDD-2025-08-28-03-10-02","","null","","images/instructions/movie_2.png","null","",""
"","","","","","image-button-response","13","50064","0.0-6.0-1.0-1.1","464DE6E64E9C4B1081719C0169E29EDD","464DE6E64E9C4B1081719C0169E29EDD","0198ee68-fb06-7d49-a567-8566d0a97af1","0198ee3c-27ac-7803-a9ea-f3b4ad4ad678","{""num_scrambled_semantic"":""8"",""num_scrambled_causal"":""4"",""num_scrambled_schematic"":""4"",""participantId"":""464DE6E64E9C4B1081719C0169E29EDD"",""assignmentId"":""0198ee68-fb06-7d49-a567-8566d0a97af1"",""projectId"":""0198ee3c-27ac-7803-a9ea-f3b4ad4ad678""}","https://test12345.live/?num_scrambled_semantic=8&num_scrambled_causal=4&num_scrambled_schematic=4&participantId=464DE6E64E9C4B1081719C0169E29EDD&assignmentId=0198ee68-fb06-7d49-a567-8566d0a97af1&projectId=0198ee3c-27ac-7803-a9ea-f3b4ad4ad678","464DE6E64E9C4B1081719C0169E29EDD-2025-08-28-03-10-02","","2539","","images/instructions/movie_2.png","0","",""
"","","","","","image-button-response","14","51870","0.0-6.0-1.0-2.1","464DE6E64E9C4B1081719C0169E29EDD","464DE6E64E9C4B1081719C0169E29EDD","0198ee68-fb06-7d49-a567-8566d0a97af1","0198ee3c-27ac-7803-a9ea-f3b4ad4ad678","{""num_scrambled_semantic"":""8"",""num_scrambled_causal"":""4"",""num_scrambled_schematic"":""4"",""participantId"":""464DE6E64E9C4B1081719C0169E29EDD"",""assignmentId"":""0198ee68-fb06-7d49-a567-8566d0a97af1"",""projectId"":""0198ee3c-27ac-7803-a9ea-f3b4ad4ad678""}","https://test12345.live/?num_scrambled_semantic=8&num_scrambled_causal=4&num_scrambled_schematic=4&participantId=464DE6E64E9C4B1081719C0169E29EDD&assignmentId=0198ee68-fb06-7d49-a567-8566d0a97af1&projectId=0198ee3c-27ac-7803-a9ea-f3b4ad4ad678","464DE6E64E9C4B1081719C0169E29EDD-2025-08-28-03-10-02","","null","","[]","null","",""
"","","","","","image-button-response","15","56394","0.0-6.0-1.0-0.2","464DE6E64E9C4B1081719C0169E29EDD","464DE6E64E9C4B1081719C0169E29EDD","0198ee68-fb06-7d49-a567-8566d0a97af1","0198ee3c-27ac-7803-a9ea-f3b4ad4ad678","{""num_scrambled_semantic"":""8"",""num_scrambled_causal"":""4"",""num_scrambled_schematic"":""4"",""participantId"":""464DE6E64E9C4B1081719C0169E29EDD"",""assignmentId"":""0198ee68-fb06-7d49-a567-8566d0a97af1"",""projectId"":""0198ee3c-27ac-7803-a9ea-f3b4ad4ad678""}","https://test12345.live/?num_scrambled_semantic=8&num_scrambled_causal=4&num_scrambled_schematic=4&participantId=464DE6E64E9C4B1081719C0169E29EDD&assignmentId=0198ee68-fb06-7d49-a567-8566d0a97af1&projectId=0198ee3c-27ac-7803-a9ea-f3b4ad4ad678","464DE6E64E9C4B1081719C0169E29EDD-2025-08-28-03-10-02","","null","","images/instructions/movie_3.png","null","",""
"","","","","","image-button-response","16","56974","0.0-6.0-1.0-1.2","464DE6E64E9C4B1081719C0169E29EDD","464DE6E64E9C4B1081719C0169E29EDD","0198ee68-fb06-7d49-a567-8566d0a97af1","0198ee3c-27ac-7803-a9ea-f3b4ad4ad678","{""num_scrambled_semantic"":""8"",""num_scrambled_causal"":""4"",""num_scrambled_schematic"":""4"",""participantId"":""464DE6E64E9C4B1081719C0169E29EDD"",""assignmentId"":""0198ee68-fb06-7d49-a567-8566d0a97af1"",""projectId"":""0198ee3c-27ac-7803-a9ea-f3b4ad4ad678""}","https://test12345.live/?num_scrambled_semantic=8&num_scrambled_causal=4&num_scrambled_schematic=4&participantId=464DE6E64E9C4B1081719C0169E29EDD&assignmentId=0198ee68-fb06-7d49-a567-8566d0a97af1&projectId=0198ee3c-27ac-7803-a9ea-f3b4ad4ad678","464DE6E64E9C4B1081719C0169E29EDD-2025-08-28-03-10-02","","577","","images/instructions/movie_3.png","0","",""
"","","","","","image-button-response","17","58775","0.0-6.0-1.0-2.2","464DE6E64E9C4B1081719C0169E29EDD","464DE6E64E9C4B1081719C0169E29EDD","0198ee68-fb06-7d49-a567-8566d0a97af1","0198ee3c-27ac-7803-a9ea-f3b4ad4ad678","{""num_scrambled_semantic"":""8"",""num_scrambled_causal"":""4"",""num_scrambled_schematic"":""4"",""participantId"":""464DE6E64E9C4B1081719C0169E29EDD"",""assignmentId"":""0198ee68-fb06-7d49-a567-8566d0a97af1"",""projectId"":""0198ee3c-27ac-7803-a9ea-f3b4ad4ad678""}","https://test12345.live/?num_scrambled_semantic=8&num_scrambled_causal=4&num_scrambled_schematic=4&participantId=464DE6E64E9C4B1081719C0169E29EDD&assignmentId=0198ee68-fb06-7d49-a567-8566d0a97af1&projectId=0198ee3c-27ac-7803-a9ea-f3b4ad4ad678","464DE6E64E9C4B1081719C0169E29EDD-2025-08-28-03-10-02","","null","","[]","null","",""
"","","","","","image-button-response","18","63322","0.0-6.0-1.0-0.3","464DE6E64E9C4B1081719C0169E29EDD","464DE6E64E9C4B1081719C0169E29EDD","0198ee68-fb06-7d49-a567-8566d0a97af1","0198ee3c-27ac-7803-a9ea-f3b4ad4ad678","{""num_scrambled_semantic"":""8"",""num_scrambled_causal"":""4"",""num_scrambled_schematic"":""4"",""participantId"":""464DE6E64E9C4B1081719C0169E29EDD"",""assignmentId"":""0198ee68-fb06-7d49-a567-8566d0a97af1"",""projectId"":""0198ee3c-27ac-7803-a9ea-f3b4ad4ad678""}","https://test12345.live/?num_scrambled_semantic=8&num_scrambled_causal=4&num_scrambled_schematic=4&participantId=464DE6E64E9C4B1081719C0169E29EDD&assignmentId=0198ee68-fb06-7d49-a567-8566d0a97af1&projectId=0198ee3c-27ac-7803-a9ea-f3b4ad4ad678","464DE6E64E9C4B1081719C0169E29EDD-2025-08-28-03-10-02","","null","","images/instructions/movie_4.png","null","",""
"","","","","","image-button-response","19","64615","0.0-6.0-1.0-1.3","464DE6E64E9C4B1081719C0169E29EDD","464DE6E64E9C4B1081719C0169E29EDD","0198ee68-fb06-7d49-a567-8566d0a97af1","0198ee3c-27ac-7803-a9ea-f3b4ad4ad678","{""num_scrambled_semantic"":""8"",""num_scrambled_causal"":""4"",""num_scrambled_schematic"":""4"",""participantId"":""464DE6E64E9C4B1081719C0169E29EDD"",""assignmentId"":""0198ee68-fb06-7d49-a567-8566d0a97af1"",""projectId"":""0198ee3c-27ac-7803-a9ea-f3b4ad4ad678""}","https://test12345.live/?num_scrambled_semantic=8&num_scrambled_causal=4&num_scrambled_schematic=4&participantId=464DE6E64E9C4B1081719C0169E29EDD&assignmentId=0198ee68-fb06-7d49-a567-8566d0a97af1&projectId=0198ee3c-27ac-7803-a9ea-f3b4ad4ad678","464DE6E64E9C4B1081719C0169E29EDD-2025-08-28-03-10-02","","1290","","images/instructions/movie_4.png","0","",""
"","","","","","image-button-response","20","66416","0.0-6.0-1.0-2.3","464DE6E64E9C4B1081719C0169E29EDD","464DE6E64E9C4B1081719C0169E29EDD","0198ee68-fb06-7d49-a567-8566d0a97af1","0198ee3c-27ac-7803-a9ea-f3b4ad4ad678","{""num_scrambled_semantic"":""8"",""num_scrambled_causal"":""4"",""num_scrambled_schematic"":""4"",""participantId"":""464DE6E64E9C4B1081719C0169E29EDD"",""assignmentId"":""0198ee68-fb06-7d49-a567-8566d0a97af1"",""projectId"":""0198ee3c-27ac-7803-a9ea-f3b4ad4ad678""}","https://test12345.live/?num_scrambled_semantic=8&num_scrambled_causal=4&num_scrambled_schematic=4&participantId=464DE6E64E9C4B1081719C0169E29EDD&assignmentId=0198ee68-fb06-7d49-a567-8566d0a97af1&projectId=0198ee3c-27ac-7803-a9ea-f3b4ad4ad678","464DE6E64E9C4B1081719C0169E29EDD-2025-08-28-03-10-02","","null","","[]","null","",""
"","","","","","instructions","21","68158","0.0-7.0","464DE6E64E9C4B1081719C0169E29EDD","464DE6E64E9C4B1081719C0169E29EDD","0198ee68-fb06-7d49-a567-8566d0a97af1","0198ee3c-27ac-7803-a9ea-f3b4ad4ad678","{""num_scrambled_semantic"":""8"",""num_scrambled_causal"":""4"",""num_scrambled_schematic"":""4"",""participantId"":""464DE6E64E9C4B1081719C0169E29EDD"",""assignmentId"":""0198ee68-fb06-7d49-a567-8566d0a97af1"",""projectId"":""0198ee3c-27ac-7803-a9ea-f3b4ad4ad678""}","https://test12345.live/?num_scrambled_semantic=8&num_scrambled_causal=4&num_scrambled_schematic=4&participantId=464DE6E64E9C4B1081719C0169E29EDD&assignmentId=0198ee68-fb06-7d49-a567-8566d0a97af1&projectId=0198ee3c-27ac-7803-a9ea-f3b4ad4ad678","464DE6E64E9C4B1081719C0169E29EDD-2025-08-28-03-10-02","[{""page_index"":0,""viewing_time"":1743}]","1743","","","","",""
"","","","","","html-audio-response","22","79637","0.0-8.0","464DE6E64E9C4B1081719C0169E29EDD","464DE6E64E9C4B1081719C0169E29EDD","0198ee68-fb06-7d49-a567-8566d0a97af1","0198ee3c-27ac-7803-a9ea-f3b4ad4ad678","{""num_scrambled_semantic"":""8"",""num_scrambled_causal"":""4"",""num_scrambled_schematic"":""4"",""participantId"":""464DE6E64E9C4B1081719C0169E29EDD"",""assignmentId"":""0198ee68-fb06-7d49-a567-8566d0a97af1"",""projectId"":""0198ee3c-27ac-7803-a9ea-f3b4ad4ad678""}","https://test12345.live/?num_scrambled_semantic=8&num_scrambled_causal=4&num_scrambled_schematic=4&participantId=464DE6E64E9C4B1081719C0169E29EDD&assignmentId=0198ee68-fb06-7d49-a567-8566d0a97af1&projectId=0198ee3c-27ac-7803-a9ea-f3b4ad4ad678","464DE6E64E9C4B1081719C0169E29EDD-2025-08-28-03-10-02","","9802","","[""<span style=\""color: red; font-size: 24px\""> NOW RECORDING</span><p>Please say out loud all the images you saw, in the order of the story they create. Try to recall the sequence of events as they appeared in the story, not necessarily the order they were presented on the screen.</p>""]","","12",""
"","","","","","instructions","23","81076","0.0-9.0","464DE6E64E9C4B1081719C0169E29EDD","464DE6E64E9C4B1081719C0169E29EDD","0198ee68-fb06-7d49-a567-8566d0a97af1","0198ee3c-27ac-7803-a9ea-f3b4ad4ad678","{""num_scrambled_semantic"":""8"",""num_scrambled_causal"":""4"",""num_scrambled_schematic"":""4"",""participantId"":""464DE6E64E9C4B1081719C0169E29EDD"",""assignmentId"":""0198ee68-fb06-7d49-a567-8566d0a97af1"",""projectId"":""0198ee3c-27ac-7803-a9ea-f3b4ad4ad678""}","https://test12345.live/?num_scrambled_semantic=8&num_scrambled_causal=4&num_scrambled_schematic=4&participantId=464DE6E64E9C4B1081719C0169E29EDD&assignmentId=0198ee68-fb06-7d49-a567-8566d0a97af1&projectId=0198ee3c-27ac-7803-a9ea-f3b4ad4ad678","464DE6E64E9C4B1081719C0169E29EDD-2025-08-28-03-10-02","[{""page_index"":0,""viewing_time"":1438}]","1438","","","","",""
"","","","","","image-button-response","24","87089","0.0-10.0-0.0","464DE6E64E9C4B1081719C0169E29EDD","464DE6E64E9C4B1081719C0169E29EDD","0198ee68-fb06-7d49-a567-8566d0a97af1","0198ee3c-27ac-7803-a9ea-f3b4ad4ad678","{""num_scrambled_semantic"":""8"",""num_scrambled_causal"":""4"",""num_scrambled_schematic"":""4"",""participantId"":""464DE6E64E9C4B1081719C0169E29EDD"",""assignmentId"":""0198ee68-fb06-7d49-a567-8566d0a97af1"",""projectId"":""0198ee3c-27ac-7803-a9ea-f3b4ad4ad678""}","https://test12345.live/?num_scrambled_semantic=8&num_scrambled_causal=4&num_scrambled_schematic=4&participantId=464DE6E64E9C4B1081719C0169E29EDD&assignmentId=0198ee68-fb06-7d49-a567-8566d0a97af1&projectId=0198ee3c-27ac-7803-a9ea-f3b4ad4ad678","464DE6E64E9C4B1081719C0169E29EDD-2025-08-28-03-10-02","","null","","images/semantic_sequence/cat_care_semantic/cat_care_semantic_0.png","null","",""
"","","","","","image-button-response","25","91616","0.0-10.0-1.0-0.0","464DE6E64E9C4B1081719C0169E29EDD","464DE6E64E9C4B1081719C0169E29EDD","0198ee68-fb06-7d49-a567-8566d0a97af1","0198ee3c-27ac-7803-a9ea-f3b4ad4ad678","{""num_scrambled_semantic"":""8"",""num_scrambled_causal"":""4"",""num_scrambled_schematic"":""4"",""participantId"":""464DE6E64E9C4B1081719C0169E29EDD"",""assignmentId"":""0198ee68-fb06-7d49-a567-8566d0a97af1"",""projectId"":""0198ee3c-27ac-7803-a9ea-f3b4ad4ad678""}","https://test12345.live/?num_scrambled_semantic=8&num_scrambled_causal=4&num_scrambled_schematic=4&participantId=464DE6E64E9C4B1081719C0169E29EDD&assignmentId=0198ee68-fb06-7d49-a567-8566d0a97af1&projectId=0198ee3c-27ac-7803-a9ea-f3b4ad4ad678","464DE6E64E9C4B1081719C0169E29EDD-2025-08-28-03-10-02","","null","","images/semantic_sequence/cat_care_semantic/cat_care_semantic_ten.png","null","",""
"","","","","","image-button-response","26","93200","0.0-10.0-1.0-1.0","464DE6E64E9C4B1081719C0169E29EDD","464DE6E64E9C4B1081719C0169E29EDD","0198ee68-fb06-7d49-a567-8566d0a97af1","0198ee3c-27ac-7803-a9ea-f3b4ad4ad678","{""num_scrambled_semantic"":""8"",""num_scrambled_causal"":""4"",""num_scrambled_schematic"":""4"",""participantId"":""464DE6E64E9C4B1081719C0169E29EDD"",""assignmentId"":""0198ee68-fb06-7d49-a567-8566d0a97af1"",""projectId"":""0198ee3c-27ac-7803-a9ea-f3b4ad4ad678""}","https://test12345.live/?num_scrambled_semantic=8&num_scrambled_causal=4&num_scrambled_schematic=4&participantId=464DE6E64E9C4B1081719C0169E29EDD&assignmentId=0198ee68-fb06-7d49-a567-8566d0a97af1&projectId=0198ee3c-27ac-7803-a9ea-f3b4ad4ad678","464DE6E64E9C4B1081719C0169E29EDD-2025-08-28-03-10-02","","1583","","images/semantic_sequence/cat_care_semantic/cat_care_semantic_ten.png","1","",""
"","","","","","image-button-response","27","95013","0.0-10.0-1.0-2.0","464DE6E64E9C4B1081719C0169E29EDD","464DE6E64E9C4B1081719C0169E29EDD","0198ee68-fb06-7d49-a567-8566d0a97af1","0198ee3c-27ac-7803-a9ea-f3b4ad4ad678","{""num_scrambled_semantic"":""8"",""num_scrambled_causal"":""4"",""num_scrambled_schematic"":""4"",""participantId"":""464DE6E64E9C4B1081719C0169E29EDD"",""assignmentId"":""0198ee68-fb06-7d49-a567-8566d0a97af1"",""projectId"":""0198ee3c-27ac-7803-a9ea-f3b4ad4ad678""}","https://test12345.live/?num_scrambled_semantic=8&num_scrambled_causal=4&num_scrambled_schematic=4&participantId=464DE6E64E9C4B1081719C0169E29EDD&assignmentId=0198ee68-fb06-7d49-a567-8566d0a97af1&projectId=0198ee3c-27ac-7803-a9ea-f3b4ad4ad678","464DE6E64E9C4B1081719C0169E29EDD-2025-08-28-03-10-02","","null","","[]","null","",""
"","","","","","image-button-response","28","99559","0.0-10.0-1.0-0.1","464DE6E64E9C4B1081719C0169E29EDD","464DE6E64E9C4B1081719C0169E29EDD","0198ee68-fb06-7d49-a567-8566d0a97af1","0198ee3c-27ac-7803-a9ea-f3b4ad4ad678","{""num_scrambled_semantic"":""8"",""num_scrambled_causal"":""4"",""num_scrambled_schematic"":""4"",""participantId"":""464DE6E64E9C4B1081719C0169E29EDD"",""assignmentId"":""0198ee68-fb06-7d49-a567-8566d0a97af1"",""projectId"":""0198ee3c-27ac-7803-a9ea-f3b4ad4ad678""}","https://test12345.live/?num_scrambled_semantic=8&num_scrambled_causal=4&num_scrambled_schematic=4&participantId=464DE6E64E9C4B1081719C0169E29EDD&assignmentId=0198ee68-fb06-7d49-a567-8566d0a97af1&projectId=0198ee3c-27ac-7803-a9ea-f3b4ad4ad678","464DE6E64E9C4B1081719C0169E29EDD-2025-08-28-03-10-02","","null","","images/semantic_sequence/cat_care_semantic/cat_care_semantic_5.png","null","",""
"","","","","","image-button-response","29","101691","0.0-10.0-1.0-1.1","464DE6E64E9C4B1081719C0169E29EDD","464DE6E64E9C4B1081719C0169E29EDD","0198ee68-fb06-7d49-a567-8566d0a97af1","0198ee3c-27ac-7803-a9ea-f3b4ad4ad678","{""num_scrambled_semantic"":""8"",""num_scrambled_causal"":""4"",""num_scrambled_schematic"":""4"",""participantId"":""464DE6E64E9C4B1081719C0169E29EDD"",""assignmentId"":""0198ee68-fb06-7d49-a567-8566d0a97af1"",""projectId"":""0198ee3c-27ac-7803-a9ea-f3b4ad4ad678""}","https://test12345.live/?num_scrambled_semantic=8&num_scrambled_causal=4&num_scrambled_schematic=4&participantId=464DE6E64E9C4B1081719C0169E29EDD&assignmentId=0198ee68-fb06-7d49-a567-8566d0a97af1&projectId=0198ee3c-27ac-7803-a9ea-f3b4ad4ad678","464DE6E64E9C4B1081719C0169E29EDD-2025-08-28-03-10-02","","2130","","images/semantic_sequence/cat_care_semantic/cat_care_semantic_5.png","0","",""
"","","","","","image-button-response","30","103503","0.0-10.0-1.0-2.1","464DE6E64E9C4B1081719C0169E29EDD","464DE6E64E9C4B1081719C0169E29EDD","0198ee68-fb06-7d49-a567-8566d0a97af1","0198ee3c-27ac-7803-a9ea-f3b4ad4ad678","{""num_scrambled_semantic"":""8"",""num_scrambled_causal"":""4"",""num_scrambled_schematic"":""4"",""participantId"":""464DE6E64E9C4B1081719C0169E29EDD"",""assignmentId"":""0198ee68-fb06-7d49-a567-8566d0a97af1"",""projectId"":""0198ee3c-27ac-7803-a9ea-f3b4ad4ad678""}","https://test12345.live/?num_scrambled_semantic=8&num_scrambled_causal=4&num_scrambled_schematic=4&participantId=464DE6E64E9C4B1081719C0169E29EDD&assignmentId=0198ee68-fb06-7d49-a567-8566d0a97af1&projectId=0198ee3c-27ac-7803-a9ea-f3b4ad4ad678","464DE6E64E9C4B1081719C0169E29EDD-2025-08-28-03-10-02","","null","","[]","null","",""
"","","","","","image-button-response","31","108049","0.0-10.0-1.0-0.2","464DE6E64E9C4B1081719C0169E29EDD","464DE6E64E9C4B1081719C0169E29EDD","0198ee68-fb06-7d49-a567-8566d0a97af1","0198ee3c-27ac-7803-a9ea-f3b4ad4ad678","{""num_scrambled_semantic"":""8"",""num_scrambled_causal"":""4"",""num_scrambled_schematic"":""4"",""participantId"":""464DE6E64E9C4B1081719C0169E29EDD"",""assignmentId"":""0198ee68-fb06-7d49-a567-8566d0a97af1"",""projectId"":""0198ee3c-27ac-7803-a9ea-f3b4ad4ad678""}","https://test12345.live/?num_scrambled_semantic=8&num_scrambled_causal=4&num_scrambled_schematic=4&participantId=464DE6E64E9C4B1081719C0169E29EDD&assignmentId=0198ee68-fb06-7d49-a567-8566d0a97af1&projectId=0198ee3c-27ac-7803-a9ea-f3b4ad4ad678","464DE6E64E9C4B1081719C0169E29EDD-2025-08-28-03-10-02","","null","","images/semantic_sequence/cat_care_semantic/cat_care_semantic_6.png","null","",""
"","","","","","image-button-response","32","109488","0.0-10.0-1.0-1.2","464DE6E64E9C4B1081719C0169E29EDD","464DE6E64E9C4B1081719C0169E29EDD","0198ee68-fb06-7d49-a567-8566d0a97af1","0198ee3c-27ac-7803-a9ea-f3b4ad4ad678","{""num_scrambled_semantic"":""8"",""num_scrambled_causal"":""4"",""num_scrambled_schematic"":""4"",""participantId"":""464DE6E64E9C4B1081719C0169E29EDD"",""assignmentId"":""0198ee68-fb06-7d49-a567-8566d0a97af1"",""projectId"":""0198ee3c-27ac-7803-a9ea-f3b4ad4ad678""}","https://test12345.live/?num_scrambled_semantic=8&num_scrambled_causal=4&num_scrambled_schematic=4&participantId=464DE6E64E9C4B1081719C0169E29EDD&assignmentId=0198ee68-fb06-7d49-a567-8566d0a97af1&projectId=0198ee3c-27ac-7803-a9ea-f3b4ad4ad678","464DE6E64E9C4B1081719C0169E29EDD-2025-08-28-03-10-02","","1436","","images/semantic_sequence/cat_care_semantic/cat_care_semantic_6.png","0","",""
"","","","","","image-button-response","33","111300","0.0-10.0-1.0-2.2","464DE6E64E9C4B1081719C0169E29EDD","464DE6E64E9C4B1081719C0169E29EDD","0198ee68-fb06-7d49-a567-8566d0a97af1","0198ee3c-27ac-7803-a9ea-f3b4ad4ad678","{""num_scrambled_semantic"":""8"",""num_scrambled_causal"":""4"",""num_scrambled_schematic"":""4"",""participantId"":""464DE6E64E9C4B1081719C0169E29EDD"",""assignmentId"":""0198ee68-fb06-7d49-a567-8566d0a97af1"",""projectId"":""0198ee3c-27ac-7803-a9ea-f3b4ad4ad678""}","https://test12345.live/?num_scrambled_semantic=8&num_scrambled_causal=4&num_scrambled_schematic=4&participantId=464DE6E64E9C4B1081719C0169E29EDD&assignmentId=0198ee68-fb06-7d49-a567-8566d0a97af1&projectId=0198ee3c-27ac-7803-a9ea-f3b4ad4ad678","464DE6E64E9C4B1081719C0169E29EDD-2025-08-28-03-10-02","","null","","[]","null","",""
"","","","","","image-button-response","34","115848","0.0-10.0-1.0-0.3","464DE6E64E9C4B1081719C0169E29EDD","464DE6E64E9C4B1081719C0169E29EDD","0198ee68-fb06-7d49-a567-8566d0a97af1","0198ee3c-27ac-7803-a9ea-f3b4ad4ad678","{""num_scrambled_semantic"":""8"",""num_scrambled_causal"":""4"",""num_scrambled_schematic"":""4"",""participantId"":""464DE6E64E9C4B1081719C0169E29EDD"",""assignmentId"":""0198ee68-fb06-7d49-a567-8566d0a97af1"",""projectId"":""0198ee3c-27ac-7803-a9ea-f3b4ad4ad678""}","https://test12345.live/?num_scrambled_semantic=8&num_scrambled_causal=4&num_scrambled_schematic=4&participantId=464DE6E64E9C4B1081719C0169E29EDD&assignmentId=0198ee68-fb06-7d49-a567-8566d0a97af1&projectId=0198ee3c-27ac-7803-a9ea-f3b4ad4ad678","464DE6E64E9C4B1081719C0169E29EDD-2025-08-28-03-10-02","","null","","images/semantic_sequence/cat_care_semantic/cat_care_semantic_2.png","null","",""
"","","","","","image-button-response","35","119864","0.0-10.0-1.0-1.3","464DE6E64E9C4B1081719C0169E29EDD","464DE6E64E9C4B1081719C0169E29EDD","0198ee68-fb06-7d49-a567-8566d0a97af1","0198ee3c-27ac-7803-a9ea-f3b4ad4ad678","{""num_scrambled_semantic"":""8"",""num_scrambled_causal"":""4"",""num_scrambled_schematic"":""4"",""participantId"":""464DE6E64E9C4B1081719C0169E29EDD"",""assignmentId"":""0198ee68-fb06-7d49-a567-8566d0a97af1"",""projectId"":""0198ee3c-27ac-7803-a9ea-f3b4ad4ad678""}","https://test12345.live/?num_scrambled_semantic=8&num_scrambled_causal=4&num_scrambled_schematic=4&participantId=464DE6E64E9C4B1081719C0169E29EDD&assignmentId=0198ee68-fb06-7d49-a567-8566d0a97af1&projectId=0198ee3c-27ac-7803-a9ea-f3b4ad4ad678","464DE6E64E9C4B1081719C0169E29EDD-2025-08-28-03-10-02","","null","","images/semantic_sequence/cat_care_semantic/cat_care_semantic_2.png","null","",""
"","","","","","image-button-response","36","121675","0.0-10.0-1.0-2.3","464DE6E64E9C4B1081719C0169E29EDD","464DE6E64E9C4B1081719C0169E29EDD","0198ee68-fb06-7d49-a567-8566d0a97af1","0198ee3c-27ac-7803-a9ea-f3b4ad4ad678","{""num_scrambled_semantic"":""8"",""num_scrambled_causal"":""4"",""num_scrambled_schematic"":""4"",""participantId"":""464DE6E64E9C4B1081719C0169E29EDD"",""assignmentId"":""0198ee68-fb06-7d49-a567-8566d0a97af1"",""projectId"":""0198ee3c-27ac-7803-a9ea-f3b4ad4ad678""}","https://test12345.live/?num_scrambled_semantic=8&num_scrambled_causal=4&num_scrambled_schematic=4&participantId=464DE6E64E9C4B1081719C0169E29EDD&assignmentId=0198ee68-fb06-7d49-a567-8566d0a97af1&projectId=0198ee3c-27ac-7803-a9ea-f3b4ad4ad678","464DE6E64E9C4B1081719C0169E29EDD-2025-08-28-03-10-02","","null","","[]","null","",""
"","","","","","image-button-response","37","126208","0.0-10.0-1.0-0.4","464DE6E64E9C4B1081719C0169E29EDD","464DE6E64E9C4B1081719C0169E29EDD","0198ee68-fb06-7d49-a567-8566d0a97af1","0198ee3c-27ac-7803-a9ea-f3b4ad4ad678","{""num_scrambled_semantic"":""8"",""num_scrambled_causal"":""4"",""num_scrambled_schematic"":""4"",""participantId"":""464DE6E64E9C4B1081719C0169E29EDD"",""assignmentId"":""0198ee68-fb06-7d49-a567-8566d0a97af1"",""projectId"":""0198ee3c-27ac-7803-a9ea-f3b4ad4ad678""}","https://test12345.live/?num_scrambled_semantic=8&num_scrambled_causal=4&num_scrambled_schematic=4&participantId=464DE6E64E9C4B1081719C0169E29EDD&assignmentId=0198ee68-fb06-7d49-a567-8566d0a97af1&projectId=0198ee3c-27ac-7803-a9ea-f3b4ad4ad678","464DE6E64E9C4B1081719C0169E29EDD-2025-08-28-03-10-02","","null","","images/semantic_sequence/cat_care_semantic/cat_care_semantic_8.png","null","",""
"","","","","","image-button-response","38","129192","0.0-10.0-1.0-1.4","464DE6E64E9C4B1081719C0169E29EDD","464DE6E64E9C4B1081719C0169E29EDD","0198ee68-fb06-7d49-a567-8566d0a97af1","0198ee3c-27ac-7803-a9ea-f3b4ad4ad678","{""num_scrambled_semantic"":""8"",""num_scrambled_causal"":""4"",""num_scrambled_schematic"":""4"",""participantId"":""464DE6E64E9C4B1081719C0169E29EDD"",""assignmentId"":""0198ee68-fb06-7d49-a567-8566d0a97af1"",""projectId"":""0198ee3c-27ac-7803-a9ea-f3b4ad4ad678""}","https://test12345.live/?num_scrambled_semantic=8&num_scrambled_causal=4&num_scrambled_schematic=4&participantId=464DE6E64E9C4B1081719C0169E29EDD&assignmentId=0198ee68-fb06-7d49-a567-8566d0a97af1&projectId=0198ee3c-27ac-7803-a9ea-f3b4ad4ad678","464DE6E64E9C4B1081719C0169E29EDD-2025-08-28-03-10-02","","2980","","images/semantic_sequence/cat_care_semantic/cat_care_semantic_8.png","0","",""
"","","","","","image-button-response","39","131005","0.0-10.0-1.0-2.4","464DE6E64E9C4B1081719C0169E29EDD","464DE6E64E9C4B1081719C0169E29EDD","0198ee68-fb06-7d49-a567-8566d0a97af1","0198ee3c-27ac-7803-a9ea-f3b4ad4ad678","{""num_scrambled_semantic"":""8"",""num_scrambled_causal"":""4"",""num_scrambled_schematic"":""4"",""participantId"":""464DE6E64E9C4B1081719C0169E29EDD"",""assignmentId"":""0198ee68-fb06-7d49-a567-8566d0a97af1"",""projectId"":""0198ee3c-27ac-7803-a9ea-f3b4ad4ad678""}","https://test12345.live/?num_scrambled_semantic=8&num_scrambled_causal=4&num_scrambled_schematic=4&participantId=464DE6E64E9C4B1081719C0169E29EDD&assignmentId=0198ee68-fb06-7d49-a567-8566d0a97af1&projectId=0198ee3c-27ac-7803-a9ea-f3b4ad4ad678","464DE6E64E9C4B1081719C0169E29EDD-2025-08-28-03-10-02","","null","","[]","null","",""
"","","","","","image-button-response","40","135547","0.0-10.0-1.0-0.5","464DE6E64E9C4B1081719C0169E29EDD","464DE6E64E9C4B1081719C0169E29EDD","0198ee68-fb06-7d49-a567-8566d0a97af1","0198ee3c-27ac-7803-a9ea-f3b4ad4ad678","{""num_scrambled_semantic"":""8"",""num_scrambled_causal"":""4"",""num_scrambled_schematic"":""4"",""participantId"":""464DE6E64E9C4B1081719C0169E29EDD"",""assignmentId"":""0198ee68-fb06-7d49-a567-8566d0a97af1"",""projectId"":""0198ee3c-27ac-7803-a9ea-f3b4ad4ad678""}","https://test12345.live/?num_scrambled_semantic=8&num_scrambled_causal=4&num_scrambled_schematic=4&participantId=464DE6E64E9C4B1081719C0169E29EDD&assignmentId=0198ee68-fb06-7d49-a567-8566d0a97af1&projectId=0198ee3c-27ac-7803-a9ea-f3b4ad4ad678","464DE6E64E9C4B1081719C0169E29EDD-2025-08-28-03-10-02","","null","","images/semantic_sequence/cat_care_semantic/cat_care_semantic_7.png","null","",""
"","","","","","image-button-response","41","137098","0.0-10.0-1.0-1.5","464DE6E64E9C4B1081719C0169E29EDD","464DE6E64E9C4B1081719C0169E29EDD","0198ee68-fb06-7d49-a567-8566d0a97af1","0198ee3c-27ac-7803-a9ea-f3b4ad4ad678","{""num_scrambled_semantic"":""8"",""num_scrambled_causal"":""4"",""num_scrambled_schematic"":""4"",""participantId"":""464DE6E64E9C4B1081719C0169E29EDD"",""assignmentId"":""0198ee68-fb06-7d49-a567-8566d0a97af1"",""projectId"":""0198ee3c-27ac-7803-a9ea-f3b4ad4ad678""}","https://test12345.live/?num_scrambled_semantic=8&num_scrambled_causal=4&num_scrambled_schematic=4&participantId=464DE6E64E9C4B1081719C0169E29EDD&assignmentId=0198ee68-fb06-7d49-a567-8566d0a97af1&projectId=0198ee3c-27ac-7803-a9ea-f3b4ad4ad678","464DE6E64E9C4B1081719C0169E29EDD-2025-08-28-03-10-02","","1548","","images/semantic_sequence/cat_care_semantic/cat_care_semantic_7.png","0","",""
"","","","","","image-button-response","42","138900","0.0-10.0-1.0-2.5","464DE6E64E9C4B1081719C0169E29EDD","464DE6E64E9C4B1081719C0169E29EDD","0198ee68-fb06-7d49-a567-8566d0a97af1","0198ee3c-27ac-7803-a9ea-f3b4ad4ad678","{""num_scrambled_semantic"":""8"",""num_scrambled_causal"":""4"",""num_scrambled_schematic"":""4"",""participantId"":""464DE6E64E9C4B1081719C0169E29EDD"",""assignmentId"":""0198ee68-fb06-7d49-a567-8566d0a97af1"",""projectId"":""0198ee3c-27ac-7803-a9ea-f3b4ad4ad678""}","https://test12345.live/?num_scrambled_semantic=8&num_scrambled_causal=4&num_scrambled_schematic=4&participantId=464DE6E64E9C4B1081719C0169E29EDD&assignmentId=0198ee68-fb06-7d49-a567-8566d0a97af1&projectId=0198ee3c-27ac-7803-a9ea-f3b4ad4ad678","464DE6E64E9C4B1081719C0169E29EDD-2025-08-28-03-10-02","","null","","[]","null","",""
"","","","","","image-button-response","43","143446","0.0-10.0-1.0-0.6","464DE6E64E9C4B1081719C0169E29EDD","464DE6E64E9C4B1081719C0169E29EDD","0198ee68-fb06-7d49-a567-8566d0a97af1","0198ee3c-27ac-7803-a9ea-f3b4ad4ad678","{""num_scrambled_semantic"":""8"",""num_scrambled_causal"":""4"",""num_scrambled_schematic"":""4"",""participantId"":""464DE6E64E9C4B1081719C0169E29EDD"",""assignmentId"":""0198ee68-fb06-7d49-a567-8566d0a97af1"",""projectId"":""0198ee3c-27ac-7803-a9ea-f3b4ad4ad678""}","https://test12345.live/?num_scrambled_semantic=8&num_scrambled_causal=4&num_scrambled_schematic=4&participantId=464DE6E64E9C4B1081719C0169E29EDD&assignmentId=0198ee68-fb06-7d49-a567-8566d0a97af1&projectId=0198ee3c-27ac-7803-a9ea-f3b4ad4ad678","464DE6E64E9C4B1081719C0169E29EDD-2025-08-28-03-10-02","","null","","images/semantic_sequence/cat_care_semantic/cat_care_semantic_3.png","null","",""
"","","","","","image-button-response","44","143927","0.0-10.0-1.0-1.6","464DE6E64E9C4B1081719C0169E29EDD","464DE6E64E9C4B1081719C0169E29EDD","0198ee68-fb06-7d49-a567-8566d0a97af1","0198ee3c-27ac-7803-a9ea-f3b4ad4ad678","{""num_scrambled_semantic"":""8"",""num_scrambled_causal"":""4"",""num_scrambled_schematic"":""4"",""participantId"":""464DE6E64E9C4B1081719C0169E29EDD"",""assignmentId"":""0198ee68-fb06-7d49-a567-8566d0a97af1"",""projectId"":""0198ee3c-27ac-7803-a9ea-f3b4ad4ad678""}","https://test12345.live/?num_scrambled_semantic=8&num_scrambled_causal=4&num_scrambled_schematic=4&participantId=464DE6E64E9C4B1081719C0169E29EDD&assignmentId=0198ee68-fb06-7d49-a567-8566d0a97af1&projectId=0198ee3c-27ac-7803-a9ea-f3b4ad4ad678","464DE6E64E9C4B1081719C0169E29EDD-2025-08-28-03-10-02","","476","","images/semantic_sequence/cat_care_semantic/cat_care_semantic_3.png","0","",""
"","","","","","image-button-response","45","145737","0.0-10.0-1.0-2.6","464DE6E64E9C4B1081719C0169E29EDD","464DE6E64E9C4B1081719C0169E29EDD","0198ee68-fb06-7d49-a567-8566d0a97af1","0198ee3c-27ac-7803-a9ea-f3b4ad4ad678","{""num_scrambled_semantic"":""8"",""num_scrambled_causal"":""4"",""num_scrambled_schematic"":""4"",""participantId"":""464DE6E64E9C4B1081719C0169E29EDD"",""assignmentId"":""0198ee68-fb06-7d49-a567-8566d0a97af1"",""projectId"":""0198ee3c-27ac-7803-a9ea-f3b4ad4ad678""}","https://test12345.live/?num_scrambled_semantic=8&num_scrambled_causal=4&num_scrambled_schematic=4&participantId=464DE6E64E9C4B1081719C0169E29EDD&assignmentId=0198ee68-fb06-7d49-a567-8566d0a97af1&projectId=0198ee3c-27ac-7803-a9ea-f3b4ad4ad678","464DE6E64E9C4B1081719C0169E29EDD-2025-08-28-03-10-02","","null","","[]","null","",""
"","","","","","image-button-response","46","150290","0.0-10.0-1.0-0.7","464DE6E64E9C4B1081719C0169E29EDD","464DE6E64E9C4B1081719C0169E29EDD","0198ee68-fb06-7d49-a567-8566d0a97af1","0198ee3c-27ac-7803-a9ea-f3b4ad4ad678","{""num_scrambled_semantic"":""8"",""num_scrambled_causal"":""4"",""num_scrambled_schematic"":""4"",""participantId"":""464DE6E64E9C4B1081719C0169E29EDD"",""assignmentId"":""0198ee68-fb06-7d49-a567-8566d0a97af1"",""projectId"":""0198ee3c-27ac-7803-a9ea-f3b4ad4ad678""}","https://test12345.live/?num_scrambled_semantic=8&num_scrambled_causal=4&num_scrambled_schematic=4&participantId=464DE6E64E9C4B1081719C0169E29EDD&assignmentId=0198ee68-fb06-7d49-a567-8566d0a97af1&projectId=0198ee3c-27ac-7803-a9ea-f3b4ad4ad678","464DE6E64E9C4B1081719C0169E29EDD-2025-08-28-03-10-02","","null","","images/semantic_sequence/cat_care_semantic/cat_care_semantic_1.png","null","",""
"","","","","","image-button-response","47","151310","0.0-10.0-1.0-1.7","464DE6E64E9C4B1081719C0169E29EDD","464DE6E64E9C4B1081719C0169E29EDD","0198ee68-fb06-7d49-a567-8566d0a97af1","0198ee3c-27ac-7803-a9ea-f3b4ad4ad678","{""num_scrambled_semantic"":""8"",""num_scrambled_causal"":""4"",""num_scrambled_schematic"":""4"",""participantId"":""464DE6E64E9C4B1081719C0169E29EDD"",""assignmentId"":""0198ee68-fb06-7d49-a567-8566d0a97af1"",""projectId"":""0198ee3c-27ac-7803-a9ea-f3b4ad4ad678""}","https://test12345.live/?num_scrambled_semantic=8&num_scrambled_causal=4&num_scrambled_schematic=4&participantId=464DE6E64E9C4B1081719C0169E29EDD&assignmentId=0198ee68-fb06-7d49-a567-8566d0a97af1&projectId=0198ee3c-27ac-7803-a9ea-f3b4ad4ad678","464DE6E64E9C4B1081719C0169E29EDD-2025-08-28-03-10-02","","1015","","images/semantic_sequence/cat_care_semantic/cat_care_semantic_1.png","0","",""
"","","","","","image-button-response","48","153111","0.0-10.0-1.0-2.7","464DE6E64E9C4B1081719C0169E29EDD","464DE6E64E9C4B1081719C0169E29EDD","0198ee68-fb06-7d49-a567-8566d0a97af1","0198ee3c-27ac-7803-a9ea-f3b4ad4ad678","{""num_scrambled_semantic"":""8"",""num_scrambled_causal"":""4"",""num_scrambled_schematic"":""4"",""participantId"":""464DE6E64E9C4B1081719C0169E29EDD"",""assignmentId"":""0198ee68-fb06-7d49-a567-8566d0a97af1"",""projectId"":""0198ee3c-27ac-7803-a9ea-f3b4ad4ad678""}","https://test12345.live/?num_scrambled_semantic=8&num_scrambled_causal=4&num_scrambled_schematic=4&participantId=464DE6E64E9C4B1081719C0169E29EDD&assignmentId=0198ee68-fb06-7d49-a567-8566d0a97af1&projectId=0198ee3c-27ac-7803-a9ea-f3b4ad4ad678","464DE6E64E9C4B1081719C0169E29EDD-2025-08-28-03-10-02","","null","","[]","null","",""
"","","","","","image-button-response","49","157648","0.0-10.0-1.0-0.8","464DE6E64E9C4B1081719C0169E29EDD","464DE6E64E9C4B1081719C0169E29EDD","0198ee68-fb06-7d49-a567-8566d0a97af1","0198ee3c-27ac-7803-a9ea-f3b4ad4ad678","{""num_scrambled_semantic"":""8"",""num_scrambled_causal"":""4"",""num_scrambled_schematic"":""4"",""participantId"":""464DE6E64E9C4B1081719C0169E29EDD"",""assignmentId"":""0198ee68-fb06-7d49-a567-8566d0a97af1"",""projectId"":""0198ee3c-27ac-7803-a9ea-f3b4ad4ad678""}","https://test12345.live/?num_scrambled_semantic=8&num_scrambled_causal=4&num_scrambled_schematic=4&participantId=464DE6E64E9C4B1081719C0169E29EDD&assignmentId=0198ee68-fb06-7d49-a567-8566d0a97af1&projectId=0198ee3c-27ac-7803-a9ea-f3b4ad4ad678","464DE6E64E9C4B1081719C0169E29EDD-2025-08-28-03-10-02","","null","","images/semantic_sequence/cat_care_semantic/cat_care_semantic_9.png","null","",""
"","","","","","image-button-response","50","158951","0.0-10.0-1.0-1.8","464DE6E64E9C4B1081719C0169E29EDD","464DE6E64E9C4B1081719C0169E29EDD","0198ee68-fb06-7d49-a567-8566d0a97af1","0198ee3c-27ac-7803-a9ea-f3b4ad4ad678","{""num_scrambled_semantic"":""8"",""num_scrambled_causal"":""4"",""num_scrambled_schematic"":""4"",""participantId"":""464DE6E64E9C4B1081719C0169E29EDD"",""assignmentId"":""0198ee68-fb06-7d49-a567-8566d0a97af1"",""projectId"":""0198ee3c-27ac-7803-a9ea-f3b4ad4ad678""}","https://test12345.live/?num_scrambled_semantic=8&num_scrambled_causal=4&num_scrambled_schematic=4&participantId=464DE6E64E9C4B1081719C0169E29EDD&assignmentId=0198ee68-fb06-7d49-a567-8566d0a97af1&projectId=0198ee3c-27ac-7803-a9ea-f3b4ad4ad678","464DE6E64E9C4B1081719C0169E29EDD-2025-08-28-03-10-02","","1299","","images/semantic_sequence/cat_care_semantic/cat_care_semantic_9.png","0","",""
"","","","","","image-button-response","51","160756","0.0-10.0-1.0-2.8","464DE6E64E9C4B1081719C0169E29EDD","464DE6E64E9C4B1081719C0169E29EDD","0198ee68-fb06-7d49-a567-8566d0a97af1","0198ee3c-27ac-7803-a9ea-f3b4ad4ad678","{""num_scrambled_semantic"":""8"",""num_scrambled_causal"":""4"",""num_scrambled_schematic"":""4"",""participantId"":""464DE6E64E9C4B1081719C0169E29EDD"",""assignmentId"":""0198ee68-fb06-7d49-a567-8566d0a97af1"",""projectId"":""0198ee3c-27ac-7803-a9ea-f3b4ad4ad678""}","https://test12345.live/?num_scrambled_semantic=8&num_scrambled_causal=4&num_scrambled_schematic=4&participantId=464DE6E64E9C4B1081719C0169E29EDD&assignmentId=0198ee68-fb06-7d49-a567-8566d0a97af1&projectId=0198ee3c-27ac-7803-a9ea-f3b4ad4ad678","464DE6E64E9C4B1081719C0169E29EDD-2025-08-28-03-10-02","","null","","[]","null","",""
"","","","","","image-button-response","52","165287","0.0-10.0-1.0-0.9","464DE6E64E9C4B1081719C0169E29EDD","464DE6E64E9C4B1081719C0169E29EDD","0198ee68-fb06-7d49-a567-8566d0a97af1","0198ee3c-27ac-7803-a9ea-f3b4ad4ad678","{""num_scrambled_semantic"":""8"",""num_scrambled_causal"":""4"",""num_scrambled_schematic"":""4"",""participantId"":""464DE6E64E9C4B1081719C0169E29EDD"",""assignmentId"":""0198ee68-fb06-7d49-a567-8566d0a97af1"",""projectId"":""0198ee3c-27ac-7803-a9ea-f3b4ad4ad678""}","https://test12345.live/?num_scrambled_semantic=8&num_scrambled_causal=4&num_scrambled_schematic=4&participantId=464DE6E64E9C4B1081719C0169E29EDD&assignmentId=0198ee68-fb06-7d49-a567-8566d0a97af1&projectId=0198ee3c-27ac-7803-a9ea-f3b4ad4ad678","464DE6E64E9C4B1081719C0169E29EDD-2025-08-28-03-10-02","","null","","images/semantic_sequence/cat_care_semantic/cat_care_semantic_4.png","null","",""
"","","","","","image-button-response","53","166775","0.0-10.0-1.0-1.9","464DE6E64E9C4B1081719C0169E29EDD","464DE6E64E9C4B1081719C0169E29EDD","0198ee68-fb06-7d49-a567-8566d0a97af1","0198ee3c-27ac-7803-a9ea-f3b4ad4ad678","{""num_scrambled_semantic"":""8"",""num_scrambled_causal"":""4"",""num_scrambled_schematic"":""4"",""participantId"":""464DE6E64E9C4B1081719C0169E29EDD"",""assignmentId"":""0198ee68-fb06-7d49-a567-8566d0a97af1"",""projectId"":""0198ee3c-27ac-7803-a9ea-f3b4ad4ad678""}","https://test12345.live/?num_scrambled_semantic=8&num_scrambled_causal=4&num_scrambled_schematic=4&participantId=464DE6E64E9C4B1081719C0169E29EDD&assignmentId=0198ee68-fb06-7d49-a567-8566d0a97af1&projectId=0198ee3c-27ac-7803-a9ea-f3b4ad4ad678","464DE6E64E9C4B1081719C0169E29EDD-2025-08-28-03-10-02","","1486","","images/semantic_sequence/cat_care_semantic/cat_care_semantic_4.png","0","",""
"","","","","","image-button-response","54","168587","0.0-10.0-1.0-2.9","464DE6E64E9C4B1081719C0169E29EDD","464DE6E64E9C4B1081719C0169E29EDD","0198ee68-fb06-7d49-a567-8566d0a97af1","0198ee3c-27ac-7803-a9ea-f3b4ad4ad678","{""num_scrambled_semantic"":""8"",""num_scrambled_causal"":""4"",""num_scrambled_schematic"":""4"",""participantId"":""464DE6E64E9C4B1081719C0169E29EDD"",""assignmentId"":""0198ee68-fb06-7d49-a567-8566d0a97af1"",""projectId"":""0198ee3c-27ac-7803-a9ea-f3b4ad4ad678""}","https://test12345.live/?num_scrambled_semantic=8&num_scrambled_causal=4&num_scrambled_schematic=4&participantId=464DE6E64E9C4B1081719C0169E29EDD&assignmentId=0198ee68-fb06-7d49-a567-8566d0a97af1&projectId=0198ee3c-27ac-7803-a9ea-f3b4ad4ad678","464DE6E64E9C4B1081719C0169E29EDD-2025-08-28-03-10-02","","null","","[]","null","",""
"","","","","","html-audio-response","55","192910","0.0-11.0","464DE6E64E9C4B1081719C0169E29EDD","464DE6E64E9C4B1081719C0169E29EDD","0198ee68-fb06-7d49-a567-8566d0a97af1","0198ee3c-27ac-7803-a9ea-f3b4ad4ad678","{""num_scrambled_semantic"":""8"",""num_scrambled_causal"":""4"",""num_scrambled_schematic"":""4"",""participantId"":""464DE6E64E9C4B1081719C0169E29EDD"",""assignmentId"":""0198ee68-fb06-7d49-a567-8566d0a97af1"",""projectId"":""0198ee3c-27ac-7803-a9ea-f3b4ad4ad678""}","https://test12345.live/?num_scrambled_semantic=8&num_scrambled_causal=4&num_scrambled_schematic=4&participantId=464DE6E64E9C4B1081719C0169E29EDD&assignmentId=0198ee68-fb06-7d49-a567-8566d0a97af1&projectId=0198ee3c-27ac-7803-a9ea-f3b4ad4ad678","464DE6E64E9C4B1081719C0169E29EDD-2025-08-28-03-10-02","","22361","","[""<span style=\""color: red; font-size: 24px\""> NOW RECORDING</span><p>Please say out loud all the images you saw, in the order of the story they create. Try to recall the sequence of events as they appeared in the story, not necessarily the order they were presented on the screen.</p>""]","","2","cat_care_semantic"
"","","","","","image-button-response","56","198928","0.0-12.0-0.0","464DE6E64E9C4B1081719C0169E29EDD","464DE6E64E9C4B1081719C0169E29EDD","0198ee68-fb06-7d49-a567-8566d0a97af1","0198ee3c-27ac-7803-a9ea-f3b4ad4ad678","{""num_scrambled_semantic"":""8"",""num_scrambled_causal"":""4"",""num_scrambled_schematic"":""4"",""participantId"":""464DE6E64E9C4B1081719C0169E29EDD"",""assignmentId"":""0198ee68-fb06-7d49-a567-8566d0a97af1"",""projectId"":""0198ee3c-27ac-7803-a9ea-f3b4ad4ad678""}","https://test12345.live/?num_scrambled_semantic=8&num_scrambled_causal=4&num_scrambled_schematic=4&participantId=464DE6E64E9C4B1081719C0169E29EDD&assignmentId=0198ee68-fb06-7d49-a567-8566d0a97af1&projectId=0198ee3c-27ac-7803-a9ea-f3b4ad4ad678","464DE6E64E9C4B1081719C0169E29EDD-2025-08-28-03-10-02","","null","","images/schematic_sequence/dinner_party_scheme/dinner_party_scheme_0.png","null","",""
"","","","","","image-button-response","57","203480","0.0-12.0-1.0-0.0","464DE6E64E9C4B1081719C0169E29EDD","464DE6E64E9C4B1081719C0169E29EDD","0198ee68-fb06-7d49-a567-8566d0a97af1","0198ee3c-27ac-7803-a9ea-f3b4ad4ad678","{""num_scrambled_semantic"":""8"",""num_scrambled_causal"":""4"",""num_scrambled_schematic"":""4"",""participantId"":""464DE6E64E9C4B1081719C0169E29EDD"",""assignmentId"":""0198ee68-fb06-7d49-a567-8566d0a97af1"",""projectId"":""0198ee3c-27ac-7803-a9ea-f3b4ad4ad678""}","https://test12345.live/?num_scrambled_semantic=8&num_scrambled_causal=4&num_scrambled_schematic=4&participantId=464DE6E64E9C4B1081719C0169E29EDD&assignmentId=0198ee68-fb06-7d49-a567-8566d0a97af1&projectId=0198ee3c-27ac-7803-a9ea-f3b4ad4ad678","464DE6E64E9C4B1081719C0169E29EDD-2025-08-28-03-10-02","","null","","images/schematic_sequence/dinner_party_scheme/dinner_party_scheme_2.png","null","",""
"","","","","","image-button-response","58","206285","0.0-12.0-1.0-1.0","464DE6E64E9C4B1081719C0169E29EDD","464DE6E64E9C4B1081719C0169E29EDD","0198ee68-fb06-7d49-a567-8566d0a97af1","0198ee3c-27ac-7803-a9ea-f3b4ad4ad678","{""num_scrambled_semantic"":""8"",""num_scrambled_causal"":""4"",""num_scrambled_schematic"":""4"",""participantId"":""464DE6E64E9C4B1081719C0169E29EDD"",""assignmentId"":""0198ee68-fb06-7d49-a567-8566d0a97af1"",""projectId"":""0198ee3c-27ac-7803-a9ea-f3b4ad4ad678""}","https://test12345.live/?num_scrambled_semantic=8&num_scrambled_causal=4&num_scrambled_schematic=4&participantId=464DE6E64E9C4B1081719C0169E29EDD&assignmentId=0198ee68-fb06-7d49-a567-8566d0a97af1&projectId=0198ee3c-27ac-7803-a9ea-f3b4ad4ad678","464DE6E64E9C4B1081719C0169E29EDD-2025-08-28-03-10-02","","2800","","images/schematic_sequence/dinner_party_scheme/dinner_party_scheme_2.png","0","",""
"","","","","","image-button-response","59","208095","0.0-12.0-1.0-2.0","464DE6E64E9C4B1081719C0169E29EDD","464DE6E64E9C4B1081719C0169E29EDD","0198ee68-fb06-7d49-a567-8566d0a97af1","0198ee3c-27ac-7803-a9ea-f3b4ad4ad678","{""num_scrambled_semantic"":""8"",""num_scrambled_causal"":""4"",""num_scrambled_schematic"":""4"",""participantId"":""464DE6E64E9C4B1081719C0169E29EDD"",""assignmentId"":""0198ee68-fb06-7d49-a567-8566d0a97af1"",""projectId"":""0198ee3c-27ac-7803-a9ea-f3b4ad4ad678""}","https://test12345.live/?num_scrambled_semantic=8&num_scrambled_causal=4&num_scrambled_schematic=4&participantId=464DE6E64E9C4B1081719C0169E29EDD&assignmentId=0198ee68-fb06-7d49-a567-8566d0a97af1&projectId=0198ee3c-27ac-7803-a9ea-f3b4ad4ad678","464DE6E64E9C4B1081719C0169E29EDD-2025-08-28-03-10-02","","null","","[]","null","",""
"","","","","","image-button-response","60","212650","0.0-12.0-1.0-0.1","464DE6E64E9C4B1081719C0169E29EDD","464DE6E64E9C4B1081719C0169E29EDD","0198ee68-fb06-7d49-a567-8566d0a97af1","0198ee3c-27ac-7803-a9ea-f3b4ad4ad678","{""num_scrambled_semantic"":""8"",""num_scrambled_causal"":""4"",""num_scrambled_schematic"":""4"",""participantId"":""464DE6E64E9C4B1081719C0169E29EDD"",""assignmentId"":""0198ee68-fb06-7d49-a567-8566d0a97af1"",""projectId"":""0198ee3c-27ac-7803-a9ea-f3b4ad4ad678""}","https://test12345.live/?num_scrambled_semantic=8&num_scrambled_causal=4&num_scrambled_schematic=4&participantId=464DE6E64E9C4B1081719C0169E29EDD&assignmentId=0198ee68-fb06-7d49-a567-8566d0a97af1&projectId=0198ee3c-27ac-7803-a9ea-f3b4ad4ad678","464DE6E64E9C4B1081719C0169E29EDD-2025-08-28-03-10-02","","null","","images/schematic_sequence/dinner_party_scheme/dinner_party_scheme_9.png","null","",""
"","","","","","image-button-response","61","213825","0.0-12.0-1.0-1.1","464DE6E64E9C4B1081719C0169E29EDD","464DE6E64E9C4B1081719C0169E29EDD","0198ee68-fb06-7d49-a567-8566d0a97af1","0198ee3c-27ac-7803-a9ea-f3b4ad4ad678","{""num_scrambled_semantic"":""8"",""num_scrambled_causal"":""4"",""num_scrambled_schematic"":""4"",""participantId"":""464DE6E64E9C4B1081719C0169E29EDD"",""assignmentId"":""0198ee68-fb06-7d49-a567-8566d0a97af1"",""projectId"":""0198ee3c-27ac-7803-a9ea-f3b4ad4ad678""}","https://test12345.live/?num_scrambled_semantic=8&num_scrambled_causal=4&num_scrambled_schematic=4&participantId=464DE6E64E9C4B1081719C0169E29EDD&assignmentId=0198ee68-fb06-7d49-a567-8566d0a97af1&projectId=0198ee3c-27ac-7803-a9ea-f3b4ad4ad678","464DE6E64E9C4B1081719C0169E29EDD-2025-08-28-03-10-02","","1171","","images/schematic_sequence/dinner_party_scheme/dinner_party_scheme_9.png","0","",""
"","","","","","image-button-response","62","215681","0.0-12.0-1.0-2.1","464DE6E64E9C4B1081719C0169E29EDD","464DE6E64E9C4B1081719C0169E29EDD","0198ee68-fb06-7d49-a567-8566d0a97af1","0198ee3c-27ac-7803-a9ea-f3b4ad4ad678","{""num_scrambled_semantic"":""8"",""num_scrambled_causal"":""4"",""num_scrambled_schematic"":""4"",""participantId"":""464DE6E64E9C4B1081719C0169E29EDD"",""assignmentId"":""0198ee68-fb06-7d49-a567-8566d0a97af1"",""projectId"":""0198ee3c-27ac-7803-a9ea-f3b4ad4ad678""}","https://test12345.live/?num_scrambled_semantic=8&num_scrambled_causal=4&num_scrambled_schematic=4&participantId=464DE6E64E9C4B1081719C0169E29EDD&assignmentId=0198ee68-fb06-7d49-a567-8566d0a97af1&projectId=0198ee3c-27ac-7803-a9ea-f3b4ad4ad678","464DE6E64E9C4B1081719C0169E29EDD-2025-08-28-03-10-02","","null","","[]","null","",""
"","","","","","image-button-response","63","220231","0.0-12.0-1.0-0.2","464DE6E64E9C4B1081719C0169E29EDD","464DE6E64E9C4B1081719C0169E29EDD","0198ee68-fb06-7d49-a567-8566d0a97af1","0198ee3c-27ac-7803-a9ea-f3b4ad4ad678","{""num_scrambled_semantic"":""8"",""num_scrambled_causal"":""4"",""num_scrambled_schematic"":""4"",""participantId"":""464DE6E64E9C4B1081719C0169E29EDD"",""assignmentId"":""0198ee68-fb06-7d49-a567-8566d0a97af1"",""projectId"":""0198ee3c-27ac-7803-a9ea-f3b4ad4ad678""}","https://test12345.live/?num_scrambled_semantic=8&num_scrambled_causal=4&num_scrambled_schematic=4&participantId=464DE6E64E9C4B1081719C0169E29EDD&assignmentId=0198ee68-fb06-7d49-a567-8566d0a97af1&projectId=0198ee3c-27ac-7803-a9ea-f3b4ad4ad678","464DE6E64E9C4B1081719C0169E29EDD-2025-08-28-03-10-02","","null","","images/schematic_sequence/dinner_party_scheme/dinner_party_scheme_4.png","null","",""
"","","","","","image-button-response","64","221117","0.0-12.0-1.0-1.2","464DE6E64E9C4B1081719C0169E29EDD","464DE6E64E9C4B1081719C0169E29EDD","0198ee68-fb06-7d49-a567-8566d0a97af1","0198ee3c-27ac-7803-a9ea-f3b4ad4ad678","{""num_scrambled_semantic"":""8"",""num_scrambled_causal"":""4"",""num_scrambled_schematic"":""4"",""participantId"":""464DE6E64E9C4B1081719C0169E29EDD"",""assignmentId"":""0198ee68-fb06-7d49-a567-8566d0a97af1"",""projectId"":""0198ee3c-27ac-7803-a9ea-f3b4ad4ad678""}","https://test12345.live/?num_scrambled_semantic=8&num_scrambled_causal=4&num_scrambled_schematic=4&participantId=464DE6E64E9C4B1081719C0169E29EDD&assignmentId=0198ee68-fb06-7d49-a567-8566d0a97af1&projectId=0198ee3c-27ac-7803-a9ea-f3b4ad4ad678","464DE6E64E9C4B1081719C0169E29EDD-2025-08-28-03-10-02","","882","","images/schematic_sequence/dinner_party_scheme/dinner_party_scheme_4.png","0","",""
"","","","","","image-button-response","65","222927","0.0-12.0-1.0-2.2","464DE6E64E9C4B1081719C0169E29EDD","464DE6E64E9C4B1081719C0169E29EDD","0198ee68-fb06-7d49-a567-8566d0a97af1","0198ee3c-27ac-7803-a9ea-f3b4ad4ad678","{""num_scrambled_semantic"":""8"",""num_scrambled_causal"":""4"",""num_scrambled_schematic"":""4"",""participantId"":""464DE6E64E9C4B1081719C0169E29EDD"",""assignmentId"":""0198ee68-fb06-7d49-a567-8566d0a97af1"",""projectId"":""0198ee3c-27ac-7803-a9ea-f3b4ad4ad678""}","https://test12345.live/?num_scrambled_semantic=8&num_scrambled_causal=4&num_scrambled_schematic=4&participantId=464DE6E64E9C4B1081719C0169E29EDD&assignmentId=0198ee68-fb06-7d49-a567-8566d0a97af1&projectId=0198ee3c-27ac-7803-a9ea-f3b4ad4ad678","464DE6E64E9C4B1081719C0169E29EDD-2025-08-28-03-10-02","","null","","[]","null","",""
"","","","","","image-button-response","66","227456","0.0-12.0-1.0-0.3","464DE6E64E9C4B1081719C0169E29EDD","464DE6E64E9C4B1081719C0169E29EDD","0198ee68-fb06-7d49-a567-8566d0a97af1","0198ee3c-27ac-7803-a9ea-f3b4ad4ad678","{""num_scrambled_semantic"":""8"",""num_scrambled_causal"":""4"",""num_scrambled_schematic"":""4"",""participantId"":""464DE6E64E9C4B1081719C0169E29EDD"",""assignmentId"":""0198ee68-fb06-7d49-a567-8566d0a97af1"",""projectId"":""0198ee3c-27ac-7803-a9ea-f3b4ad4ad678""}","https://test12345.live/?num_scrambled_semantic=8&num_scrambled_causal=4&num_scrambled_schematic=4&participantId=464DE6E64E9C4B1081719C0169E29EDD&assignmentId=0198ee68-fb06-7d49-a567-8566d0a97af1&projectId=0198ee3c-27ac-7803-a9ea-f3b4ad4ad678","464DE6E64E9C4B1081719C0169E29EDD-2025-08-28-03-10-02","","null","","images/schematic_sequence/dinner_party_scheme/dinner_party_scheme_1.png","null","",""
"","","","","","image-button-response","67","230727","0.0-12.0-1.0-1.3","464DE6E64E9C4B1081719C0169E29EDD","464DE6E64E9C4B1081719C0169E29EDD","0198ee68-fb06-7d49-a567-8566d0a97af1","0198ee3c-27ac-7803-a9ea-f3b4ad4ad678","{""num_scrambled_semantic"":""8"",""num_scrambled_causal"":""4"",""num_scrambled_schematic"":""4"",""participantId"":""464DE6E64E9C4B1081719C0169E29EDD"",""assignmentId"":""0198ee68-fb06-7d49-a567-8566d0a97af1"",""projectId"":""0198ee3c-27ac-7803-a9ea-f3b4ad4ad678""}","https://test12345.live/?num_scrambled_semantic=8&num_scrambled_causal=4&num_scrambled_schematic=4&participantId=464DE6E64E9C4B1081719C0169E29EDD&assignmentId=0198ee68-fb06-7d49-a567-8566d0a97af1&projectId=0198ee3c-27ac-7803-a9ea-f3b4ad4ad678","464DE6E64E9C4B1081719C0169E29EDD-2025-08-28-03-10-02","","3268","","images/schematic_sequence/dinner_party_scheme/dinner_party_scheme_1.png","0","",""
"","","","","","image-button-response","68","232539","0.0-12.0-1.0-2.3","464DE6E64E9C4B1081719C0169E29EDD","464DE6E64E9C4B1081719C0169E29EDD","0198ee68-fb06-7d49-a567-8566d0a97af1","0198ee3c-27ac-7803-a9ea-f3b4ad4ad678","{""num_scrambled_semantic"":""8"",""num_scrambled_causal"":""4"",""num_scrambled_schematic"":""4"",""participantId"":""464DE6E64E9C4B1081719C0169E29EDD"",""assignmentId"":""0198ee68-fb06-7d49-a567-8566d0a97af1"",""projectId"":""0198ee3c-27ac-7803-a9ea-f3b4ad4ad678""}","https://test12345.live/?num_scrambled_semantic=8&num_scrambled_causal=4&num_scrambled_schematic=4&participantId=464DE6E64E9C4B1081719C0169E29EDD&assignmentId=0198ee68-fb06-7d49-a567-8566d0a97af1&projectId=0198ee3c-27ac-7803-a9ea-f3b4ad4ad678","464DE6E64E9C4B1081719C0169E29EDD-2025-08-28-03-10-02","","null","","[]","null","",""
"","","","","","image-button-response","69","237075","0.0-12.0-1.0-0.4","464DE6E64E9C4B1081719C0169E29EDD","464DE6E64E9C4B1081719C0169E29EDD","0198ee68-fb06-7d49-a567-8566d0a97af1","0198ee3c-27ac-7803-a9ea-f3b4ad4ad678","{""num_scrambled_semantic"":""8"",""num_scrambled_causal"":""4"",""num_scrambled_schematic"":""4"",""participantId"":""464DE6E64E9C4B1081719C0169E29EDD"",""assignmentId"":""0198ee68-fb06-7d49-a567-8566d0a97af1"",""projectId"":""0198ee3c-27ac-7803-a9ea-f3b4ad4ad678""}","https://test12345.live/?num_scrambled_semantic=8&num_scrambled_causal=4&num_scrambled_schematic=4&participantId=464DE6E64E9C4B1081719C0169E29EDD&assignmentId=0198ee68-fb06-7d49-a567-8566d0a97af1&projectId=0198ee3c-27ac-7803-a9ea-f3b4ad4ad678","464DE6E64E9C4B1081719C0169E29EDD-2025-08-28-03-10-02","","null","","images/schematic_sequence/dinner_party_scheme/dinner_party_scheme_7.png","null","",""
"","","","","","image-button-response","70","238627","0.0-12.0-1.0-1.4","464DE6E64E9C4B1081719C0169E29EDD","464DE6E64E9C4B1081719C0169E29EDD","0198ee68-fb06-7d49-a567-8566d0a97af1","0198ee3c-27ac-7803-a9ea-f3b4ad4ad678","{""num_scrambled_semantic"":""8"",""num_scrambled_causal"":""4"",""num_scrambled_schematic"":""4"",""participantId"":""464DE6E64E9C4B1081719C0169E29EDD"",""assignmentId"":""0198ee68-fb06-7d49-a567-8566d0a97af1"",""projectId"":""0198ee3c-27ac-7803-a9ea-f3b4ad4ad678""}","https://test12345.live/?num_scrambled_semantic=8&num_scrambled_causal=4&num_scrambled_schematic=4&participantId=464DE6E64E9C4B1081719C0169E29EDD&assignmentId=0198ee68-fb06-7d49-a567-8566d0a97af1&projectId=0198ee3c-27ac-7803-a9ea-f3b4ad4ad678","464DE6E64E9C4B1081719C0169E29EDD-2025-08-28-03-10-02","","1548","","images/schematic_sequence/dinner_party_scheme/dinner_party_scheme_7.png","0","",""
"","","","","","image-button-response","71","240434","0.0-12.0-1.0-2.4","464DE6E64E9C4B1081719C0169E29EDD","464DE6E64E9C4B1081719C0169E29EDD","0198ee68-fb06-7d49-a567-8566d0a97af1","0198ee3c-27ac-7803-a9ea-f3b4ad4ad678","{""num_scrambled_semantic"":""8"",""num_scrambled_causal"":""4"",""num_scrambled_schematic"":""4"",""participantId"":""464DE6E64E9C4B1081719C0169E29EDD"",""assignmentId"":""0198ee68-fb06-7d49-a567-8566d0a97af1"",""projectId"":""0198ee3c-27ac-7803-a9ea-f3b4ad4ad678""}","https://test12345.live/?num_scrambled_semantic=8&num_scrambled_causal=4&num_scrambled_schematic=4&participantId=464DE6E64E9C4B1081719C0169E29EDD&assignmentId=0198ee68-fb06-7d49-a567-8566d0a97af1&projectId=0198ee3c-27ac-7803-a9ea-f3b4ad4ad678","464DE6E64E9C4B1081719C0169E29EDD-2025-08-28-03-10-02","","null","","[]","null","",""
"","","","","","image-button-response","72","244964","0.0-12.0-1.0-0.5","464DE6E64E9C4B1081719C0169E29EDD","464DE6E64E9C4B1081719C0169E29EDD","0198ee68-fb06-7d49-a567-8566d0a97af1","0198ee3c-27ac-7803-a9ea-f3b4ad4ad678","{""num_scrambled_semantic"":""8"",""num_scrambled_causal"":""4"",""num_scrambled_schematic"":""4"",""participantId"":""464DE6E64E9C4B1081719C0169E29EDD"",""assignmentId"":""0198ee68-fb06-7d49-a567-8566d0a97af1"",""projectId"":""0198ee3c-27ac-7803-a9ea-f3b4ad4ad678""}","https://test12345.live/?num_scrambled_semantic=8&num_scrambled_causal=4&num_scrambled_schematic=4&participantId=464DE6E64E9C4B1081719C0169E29EDD&assignmentId=0198ee68-fb06-7d49-a567-8566d0a97af1&projectId=0198ee3c-27ac-7803-a9ea-f3b4ad4ad678","464DE6E64E9C4B1081719C0169E29EDD-2025-08-28-03-10-02","","null","","images/schematic_sequence/dinner_party_scheme/dinner_party_scheme_3.png","null","",""
"","","","","","image-button-response","73","246878","0.0-12.0-1.0-1.5","464DE6E64E9C4B1081719C0169E29EDD","464DE6E64E9C4B1081719C0169E29EDD","0198ee68-fb06-7d49-a567-8566d0a97af1","0198ee3c-27ac-7803-a9ea-f3b4ad4ad678","{""num_scrambled_semantic"":""8"",""num_scrambled_causal"":""4"",""num_scrambled_schematic"":""4"",""participantId"":""464DE6E64E9C4B1081719C0169E29EDD"",""assignmentId"":""0198ee68-fb06-7d49-a567-8566d0a97af1"",""projectId"":""0198ee3c-27ac-7803-a9ea-f3b4ad4ad678""}","https://test12345.live/?num_scrambled_semantic=8&num_scrambled_causal=4&num_scrambled_schematic=4&participantId=464DE6E64E9C4B1081719C0169E29EDD&assignmentId=0198ee68-fb06-7d49-a567-8566d0a97af1&projectId=0198ee3c-27ac-7803-a9ea-f3b4ad4ad678","464DE6E64E9C4B1081719C0169E29EDD-2025-08-28-03-10-02","","1906","","images/schematic_sequence/dinner_party_scheme/dinner_party_scheme_3.png","0","",""
"","","","","","image-button-response","74","248681","0.0-12.0-1.0-2.5","464DE6E64E9C4B1081719C0169E29EDD","464DE6E64E9C4B1081719C0169E29EDD","0198ee68-fb06-7d49-a567-8566d0a97af1","0198ee3c-27ac-7803-a9ea-f3b4ad4ad678","{""num_scrambled_semantic"":""8"",""num_scrambled_causal"":""4"",""num_scrambled_schematic"":""4"",""participantId"":""464DE6E64E9C4B1081719C0169E29EDD"",""assignmentId"":""0198ee68-fb06-7d49-a567-8566d0a97af1"",""projectId"":""0198ee3c-27ac-7803-a9ea-f3b4ad4ad678""}","https://test12345.live/?num_scrambled_semantic=8&num_scrambled_causal=4&num_scrambled_schematic=4&participantId=464DE6E64E9C4B1081719C0169E29EDD&assignmentId=0198ee68-fb06-7d49-a567-8566d0a97af1&projectId=0198ee3c-27ac-7803-a9ea-f3b4ad4ad678","464DE6E64E9C4B1081719C0169E29EDD-2025-08-28-03-10-02","","null","","[]","null","",""
"","","","","","image-button-response","75","253213","0.0-12.0-1.0-0.6","464DE6E64E9C4B1081719C0169E29EDD","464DE6E64E9C4B1081719C0169E29EDD","0198ee68-fb06-7d49-a567-8566d0a97af1","0198ee3c-27ac-7803-a9ea-f3b4ad4ad678","{""num_scrambled_semantic"":""8"",""num_scrambled_causal"":""4"",""num_scrambled_schematic"":""4"",""participantId"":""464DE6E64E9C4B1081719C0169E29EDD"",""assignmentId"":""0198ee68-fb06-7d49-a567-8566d0a97af1"",""projectId"":""0198ee3c-27ac-7803-a9ea-f3b4ad4ad678""}","https://test12345.live/?num_scrambled_semantic=8&num_scrambled_causal=4&num_scrambled_schematic=4&participantId=464DE6E64E9C4B1081719C0169E29EDD&assignmentId=0198ee68-fb06-7d49-a567-8566d0a97af1&projectId=0198ee3c-27ac-7803-a9ea-f3b4ad4ad678","464DE6E64E9C4B1081719C0169E29EDD-2025-08-28-03-10-02","","null","","images/schematic_sequence/dinner_party_scheme/dinner_party_scheme_5.png","null","",""
"","","","","","image-button-response","76","254562","0.0-12.0-1.0-1.6","464DE6E64E9C4B1081719C0169E29EDD","464DE6E64E9C4B1081719C0169E29EDD","0198ee68-fb06-7d49-a567-8566d0a97af1","0198ee3c-27ac-7803-a9ea-f3b4ad4ad678","{""num_scrambled_semantic"":""8"",""num_scrambled_causal"":""4"",""num_scrambled_schematic"":""4"",""participantId"":""464DE6E64E9C4B1081719C0169E29EDD"",""assignmentId"":""0198ee68-fb06-7d49-a567-8566d0a97af1"",""projectId"":""0198ee3c-27ac-7803-a9ea-f3b4ad4ad678""}","https://test12345.live/?num_scrambled_semantic=8&num_scrambled_causal=4&num_scrambled_schematic=4&participantId=464DE6E64E9C4B1081719C0169E29EDD&assignmentId=0198ee68-fb06-7d49-a567-8566d0a97af1&projectId=0198ee3c-27ac-7803-a9ea-f3b4ad4ad678","464DE6E64E9C4B1081719C0169E29EDD-2025-08-28-03-10-02","","1346","","images/schematic_sequence/dinner_party_scheme/dinner_party_scheme_5.png","0","",""
"","","","","","image-button-response","77","256368","0.0-12.0-1.0-2.6","464DE6E64E9C4B1081719C0169E29EDD","464DE6E64E9C4B1081719C0169E29EDD","0198ee68-fb06-7d49-a567-8566d0a97af1","0198ee3c-27ac-7803-a9ea-f3b4ad4ad678","{""num_scrambled_semantic"":""8"",""num_scrambled_causal"":""4"",""num_scrambled_schematic"":""4"",""participantId"":""464DE6E64E9C4B1081719C0169E29EDD"",""assignmentId"":""0198ee68-fb06-7d49-a567-8566d0a97af1"",""projectId"":""0198ee3c-27ac-7803-a9ea-f3b4ad4ad678""}","https://test12345.live/?num_scrambled_semantic=8&num_scrambled_causal=4&num_scrambled_schematic=4&participantId=464DE6E64E9C4B1081719C0169E29EDD&assignmentId=0198ee68-fb06-7d49-a567-8566d0a97af1&projectId=0198ee3c-27ac-7803-a9ea-f3b4ad4ad678","464DE6E64E9C4B1081719C0169E29EDD-2025-08-28-03-10-02","","null","","[]","null","",""
"","","","","","image-button-response","78","260919","0.0-12.0-1.0-0.7","464DE6E64E9C4B1081719C0169E29EDD","464DE6E64E9C4B1081719C0169E29EDD","0198ee68-fb06-7d49-a567-8566d0a97af1","0198ee3c-27ac-7803-a9ea-f3b4ad4ad678","{""num_scrambled_semantic"":""8"",""num_scrambled_causal"":""4"",""num_scrambled_schematic"":""4"",""participantId"":""464DE6E64E9C4B1081719C0169E29EDD"",""assignmentId"":""0198ee68-fb06-7d49-a567-8566d0a97af1"",""projectId"":""0198ee3c-27ac-7803-a9ea-f3b4ad4ad678""}","https://test12345.live/?num_scrambled_semantic=8&num_scrambled_causal=4&num_scrambled_schematic=4&participantId=464DE6E64E9C4B1081719C0169E29EDD&assignmentId=0198ee68-fb06-7d49-a567-8566d0a97af1&projectId=0198ee3c-27ac-7803-a9ea-f3b4ad4ad678","464DE6E64E9C4B1081719C0169E29EDD-2025-08-28-03-10-02","","null","","images/schematic_sequence/dinner_party_scheme/dinner_party_scheme_6.png","null","",""
"","","","","","image-button-response","79","263318","0.0-12.0-1.0-1.7","464DE6E64E9C4B1081719C0169E29EDD","464DE6E64E9C4B1081719C0169E29EDD","0198ee68-fb06-7d49-a567-8566d0a97af1","0198ee3c-27ac-7803-a9ea-f3b4ad4ad678","{""num_scrambled_semantic"":""8"",""num_scrambled_causal"":""4"",""num_scrambled_schematic"":""4"",""participantId"":""464DE6E64E9C4B1081719C0169E29EDD"",""assignmentId"":""0198ee68-fb06-7d49-a567-8566d0a97af1"",""projectId"":""0198ee3c-27ac-7803-a9ea-f3b4ad4ad678""}","https://test12345.live/?num_scrambled_semantic=8&num_scrambled_causal=4&num_scrambled_schematic=4&participantId=464DE6E64E9C4B1081719C0169E29EDD&assignmentId=0198ee68-fb06-7d49-a567-8566d0a97af1&projectId=0198ee3c-27ac-7803-a9ea-f3b4ad4ad678","464DE6E64E9C4B1081719C0169E29EDD-2025-08-28-03-10-02","","2399","","images/schematic_sequence/dinner_party_scheme/dinner_party_scheme_6.png","0","",""
"","","","","","image-button-response","80","265186","0.0-12.0-1.0-2.7","464DE6E64E9C4B1081719C0169E29EDD","464DE6E64E9C4B1081719C0169E29EDD","0198ee68-fb06-7d49-a567-8566d0a97af1","0198ee3c-27ac-7803-a9ea-f3b4ad4ad678","{""num_scrambled_semantic"":""8"",""num_scrambled_causal"":""4"",""num_scrambled_schematic"":""4"",""participantId"":""464DE6E64E9C4B1081719C0169E29EDD"",""assignmentId"":""0198ee68-fb06-7d49-a567-8566d0a97af1"",""projectId"":""0198ee3c-27ac-7803-a9ea-f3b4ad4ad678""}","https://test12345.live/?num_scrambled_semantic=8&num_scrambled_causal=4&num_scrambled_schematic=4&participantId=464DE6E64E9C4B1081719C0169E29EDD&assignmentId=0198ee68-fb06-7d49-a567-8566d0a97af1&projectId=0198ee3c-27ac-7803-a9ea-f3b4ad4ad678","464DE6E64E9C4B1081719C0169E29EDD-2025-08-28-03-10-02","","null","","[]","null","",""
"","","","","","image-button-response","81","269732","0.0-12.0-1.0-0.8","464DE6E64E9C4B1081719C0169E29EDD","464DE6E64E9C4B1081719C0169E29EDD","0198ee68-fb06-7d49-a567-8566d0a97af1","0198ee3c-27ac-7803-a9ea-f3b4ad4ad678","{""num_scrambled_semantic"":""8"",""num_scrambled_causal"":""4"",""num_scrambled_schematic"":""4"",""participantId"":""464DE6E64E9C4B1081719C0169E29EDD"",""assignmentId"":""0198ee68-fb06-7d49-a567-8566d0a97af1"",""projectId"":""0198ee3c-27ac-7803-a9ea-f3b4ad4ad678""}","https://test12345.live/?num_scrambled_semantic=8&num_scrambled_causal=4&num_scrambled_schematic=4&participantId=464DE6E64E9C4B1081719C0169E29EDD&assignmentId=0198ee68-fb06-7d49-a567-8566d0a97af1&projectId=0198ee3c-27ac-7803-a9ea-f3b4ad4ad678","464DE6E64E9C4B1081719C0169E29EDD-2025-08-28-03-10-02","","null","","images/schematic_sequence/dinner_party_scheme/dinner_party_scheme_8.png","null","",""
"","","","","","image-button-response","82","270833","0.0-12.0-1.0-1.8","464DE6E64E9C4B1081719C0169E29EDD","464DE6E64E9C4B1081719C0169E29EDD","0198ee68-fb06-7d49-a567-8566d0a97af1","0198ee3c-27ac-7803-a9ea-f3b4ad4ad678","{""num_scrambled_semantic"":""8"",""num_scrambled_causal"":""4"",""num_scrambled_schematic"":""4"",""participantId"":""464DE6E64E9C4B1081719C0169E29EDD"",""assignmentId"":""0198ee68-fb06-7d49-a567-8566d0a97af1"",""projectId"":""0198ee3c-27ac-7803-a9ea-f3b4ad4ad678""}","https://test12345.live/?num_scrambled_semantic=8&num_scrambled_causal=4&num_scrambled_schematic=4&participantId=464DE6E64E9C4B1081719C0169E29EDD&assignmentId=0198ee68-fb06-7d49-a567-8566d0a97af1&projectId=0198ee3c-27ac-7803-a9ea-f3b4ad4ad678","464DE6E64E9C4B1081719C0169E29EDD-2025-08-28-03-10-02","","1100","","images/schematic_sequence/dinner_party_scheme/dinner_party_scheme_8.png","0","",""
"","","","","","image-button-response","83","272646","0.0-12.0-1.0-2.8","464DE6E64E9C4B1081719C0169E29EDD","464DE6E64E9C4B1081719C0169E29EDD","0198ee68-fb06-7d49-a567-8566d0a97af1","0198ee3c-27ac-7803-a9ea-f3b4ad4ad678","{""num_scrambled_semantic"":""8"",""num_scrambled_causal"":""4"",""num_scrambled_schematic"":""4"",""participantId"":""464DE6E64E9C4B1081719C0169E29EDD"",""assignmentId"":""0198ee68-fb06-7d49-a567-8566d0a97af1"",""projectId"":""0198ee3c-27ac-7803-a9ea-f3b4ad4ad678""}","https://test12345.live/?num_scrambled_semantic=8&num_scrambled_causal=4&num_scrambled_schematic=4&participantId=464DE6E64E9C4B1081719C0169E29EDD&assignmentId=0198ee68-fb06-7d49-a567-8566d0a97af1&projectId=0198ee3c-27ac-7803-a9ea-f3b4ad4ad678","464DE6E64E9C4B1081719C0169E29EDD-2025-08-28-03-10-02","","null","","[]","null","",""
"","","","","","image-button-response","84","277205","0.0-12.0-1.0-0.9","464DE6E64E9C4B1081719C0169E29EDD","464DE6E64E9C4B1081719C0169E29EDD","0198ee68-fb06-7d49-a567-8566d0a97af1","0198ee3c-27ac-7803-a9ea-f3b4ad4ad678","{""num_scrambled_semantic"":""8"",""num_scrambled_causal"":""4"",""num_scrambled_schematic"":""4"",""participantId"":""464DE6E64E9C4B1081719C0169E29EDD"",""assignmentId"":""0198ee68-fb06-7d49-a567-8566d0a97af1"",""projectId"":""0198ee3c-27ac-7803-a9ea-f3b4ad4ad678""}","https://test12345.live/?num_scrambled_semantic=8&num_scrambled_causal=4&num_scrambled_schematic=4&participantId=464DE6E64E9C4B1081719C0169E29EDD&assignmentId=0198ee68-fb06-7d49-a567-8566d0a97af1&projectId=0198ee3c-27ac-7803-a9ea-f3b4ad4ad678","464DE6E64E9C4B1081719C0169E29EDD-2025-08-28-03-10-02","","null","","images/schematic_sequence/dinner_party_scheme/dinner_party_scheme_ten.png","null","",""
"","","","","","image-button-response","85","278603","0.0-12.0-1.0-1.9","464DE6E64E9C4B1081719C0169E29EDD","464DE6E64E9C4B1081719C0169E29EDD","0198ee68-fb06-7d49-a567-8566d0a97af1","0198ee3c-27ac-7803-a9ea-f3b4ad4ad678","{""num_scrambled_semantic"":""8"",""num_scrambled_causal"":""4"",""num_scrambled_schematic"":""4"",""participantId"":""464DE6E64E9C4B1081719C0169E29EDD"",""assignmentId"":""0198ee68-fb06-7d49-a567-8566d0a97af1"",""projectId"":""0198ee3c-27ac-7803-a9ea-f3b4ad4ad678""}","https://test12345.live/?num_scrambled_semantic=8&num_scrambled_causal=4&num_scrambled_schematic=4&participantId=464DE6E64E9C4B1081719C0169E29EDD&assignmentId=0198ee68-fb06-7d49-a567-8566d0a97af1&projectId=0198ee3c-27ac-7803-a9ea-f3b4ad4ad678","464DE6E64E9C4B1081719C0169E29EDD-2025-08-28-03-10-02","","1394","","images/schematic_sequence/dinner_party_scheme/dinner_party_scheme_ten.png","0","",""
"","","","","","image-button-response","86","280416","0.0-12.0-1.0-2.9","464DE6E64E9C4B1081719C0169E29EDD","464DE6E64E9C4B1081719C0169E29EDD","0198ee68-fb06-7d49-a567-8566d0a97af1","0198ee3c-27ac-7803-a9ea-f3b4ad4ad678","{""num_scrambled_semantic"":""8"",""num_scrambled_causal"":""4"",""num_scrambled_schematic"":""4"",""participantId"":""464DE6E64E9C4B1081719C0169E29EDD"",""assignmentId"":""0198ee68-fb06-7d49-a567-8566d0a97af1"",""projectId"":""0198ee3c-27ac-7803-a9ea-f3b4ad4ad678""}","https://test12345.live/?num_scrambled_semantic=8&num_scrambled_causal=4&num_scrambled_schematic=4&participantId=464DE6E64E9C4B1081719C0169E29EDD&assignmentId=0198ee68-fb06-7d49-a567-8566d0a97af1&projectId=0198ee3c-27ac-7803-a9ea-f3b4ad4ad678","464DE6E64E9C4B1081719C0169E29EDD-2025-08-28-03-10-02","","null","","[]","null","",""
"","","","","","html-audio-response","87","307300","0.0-13.0","464DE6E64E9C4B1081719C0169E29EDD","464DE6E64E9C4B1081719C0169E29EDD","0198ee68-fb06-7d49-a567-8566d0a97af1","0198ee3c-27ac-7803-a9ea-f3b4ad4ad678","{""num_scrambled_semantic"":""8"",""num_scrambled_causal"":""4"",""num_scrambled_schematic"":""4"",""participantId"":""464DE6E64E9C4B1081719C0169E29EDD"",""assignmentId"":""0198ee68-fb06-7d49-a567-8566d0a97af1"",""projectId"":""0198ee3c-27ac-7803-a9ea-f3b4ad4ad678""}","https://test12345.live/?num_scrambled_semantic=8&num_scrambled_causal=4&num_scrambled_schematic=4&participantId=464DE6E64E9C4B1081719C0169E29EDD&assignmentId=0198ee68-fb06-7d49-a567-8566d0a97af1&projectId=0198ee3c-27ac-7803-a9ea-f3b4ad4ad678","464DE6E64E9C4B1081719C0169E29EDD-2025-08-28-03-10-02","","25852","","[""<span style=\""color: red; font-size: 24px\""> NOW RECORDING</span><p>Please say out loud all the images you saw, in the order of the story they create. Try to recall the sequence of events as they appeared in the story, not necessarily the order they were presented on the screen.</p>""]","","1","dinner_party_scheme"
"","","","","","image-button-response","88","313322","0.0-14.0-0.0","464DE6E64E9C4B1081719C0169E29EDD","464DE6E64E9C4B1081719C0169E29EDD","0198ee68-fb06-7d49-a567-8566d0a97af1","0198ee3c-27ac-7803-a9ea-f3b4ad4ad678","{""num_scrambled_semantic"":""8"",""num_scrambled_causal"":""4"",""num_scrambled_schematic"":""4"",""participantId"":""464DE6E64E9C4B1081719C0169E29EDD"",""assignmentId"":""0198ee68-fb06-7d49-a567-8566d0a97af1"",""projectId"":""0198ee3c-27ac-7803-a9ea-f3b4ad4ad678""}","https://test12345.live/?num_scrambled_semantic=8&num_scrambled_causal=4&num_scrambled_schematic=4&participantId=464DE6E64E9C4B1081719C0169E29EDD&assignmentId=0198ee68-fb06-7d49-a567-8566d0a97af1&projectId=0198ee3c-27ac-7803-a9ea-f3b4ad4ad678","464DE6E64E9C4B1081719C0169E29EDD-2025-08-28-03-10-02","","null","","images/semantic_sequence/kitchen_operations_semantic/kitchen_operations_semantic_0.png","null","",""
"","","","","","image-button-response","89","317855","0.0-14.0-1.0-0.0","464DE6E64E9C4B1081719C0169E29EDD","464DE6E64E9C4B1081719C0169E29EDD","0198ee68-fb06-7d49-a567-8566d0a97af1","0198ee3c-27ac-7803-a9ea-f3b4ad4ad678","{""num_scrambled_semantic"":""8"",""num_scrambled_causal"":""4"",""num_scrambled_schematic"":""4"",""participantId"":""464DE6E64E9C4B1081719C0169E29EDD"",""assignmentId"":""0198ee68-fb06-7d49-a567-8566d0a97af1"",""projectId"":""0198ee3c-27ac-7803-a9ea-f3b4ad4ad678""}","https://test12345.live/?num_scrambled_semantic=8&num_scrambled_causal=4&num_scrambled_schematic=4&participantId=464DE6E64E9C4B1081719C0169E29EDD&assignmentId=0198ee68-fb06-7d49-a567-8566d0a97af1&projectId=0198ee3c-27ac-7803-a9ea-f3b4ad4ad678","464DE6E64E9C4B1081719C0169E29EDD-2025-08-28-03-10-02","","null","","images/semantic_sequence/kitchen_operations_semantic/kitchen_operations_semantic_1.png","null","",""
"","","","","","image-button-response","90","319076","0.0-14.0-1.0-1.0","464DE6E64E9C4B1081719C0169E29EDD","464DE6E64E9C4B1081719C0169E29EDD","0198ee68-fb06-7d49-a567-8566d0a97af1","0198ee3c-27ac-7803-a9ea-f3b4ad4ad678","{""num_scrambled_semantic"":""8"",""num_scrambled_causal"":""4"",""num_scrambled_schematic"":""4"",""participantId"":""464DE6E64E9C4B1081719C0169E29EDD"",""assignmentId"":""0198ee68-fb06-7d49-a567-8566d0a97af1"",""projectId"":""0198ee3c-27ac-7803-a9ea-f3b4ad4ad678""}","https://test12345.live/?num_scrambled_semantic=8&num_scrambled_causal=4&num_scrambled_schematic=4&participantId=464DE6E64E9C4B1081719C0169E29EDD&assignmentId=0198ee68-fb06-7d49-a567-8566d0a97af1&projectId=0198ee3c-27ac-7803-a9ea-f3b4ad4ad678","464DE6E64E9C4B1081719C0169E29EDD-2025-08-28-03-10-02","","1219","","images/semantic_sequence/kitchen_operations_semantic/kitchen_operations_semantic_1.png","0","",""
"","","","","","image-button-response","91","320889","0.0-14.0-1.0-2.0","464DE6E64E9C4B1081719C0169E29EDD","464DE6E64E9C4B1081719C0169E29EDD","0198ee68-fb06-7d49-a567-8566d0a97af1","0198ee3c-27ac-7803-a9ea-f3b4ad4ad678","{""num_scrambled_semantic"":""8"",""num_scrambled_causal"":""4"",""num_scrambled_schematic"":""4"",""participantId"":""464DE6E64E9C4B1081719C0169E29EDD"",""assignmentId"":""0198ee68-fb06-7d49-a567-8566d0a97af1"",""projectId"":""0198ee3c-27ac-7803-a9ea-f3b4ad4ad678""}","https://test12345.live/?num_scrambled_semantic=8&num_scrambled_causal=4&num_scrambled_schematic=4&participantId=464DE6E64E9C4B1081719C0169E29EDD&assignmentId=0198ee68-fb06-7d49-a567-8566d0a97af1&projectId=0198ee3c-27ac-7803-a9ea-f3b4ad4ad678","464DE6E64E9C4B1081719C0169E29EDD-2025-08-28-03-10-02","","null","","[]","null","",""
"","","","","","image-button-response","92","325414","0.0-14.0-1.0-0.1","464DE6E64E9C4B1081719C0169E29EDD","464DE6E64E9C4B1081719C0169E29EDD","0198ee68-fb06-7d49-a567-8566d0a97af1","0198ee3c-27ac-7803-a9ea-f3b4ad4ad678","{""num_scrambled_semantic"":""8"",""num_scrambled_causal"":""4"",""num_scrambled_schematic"":""4"",""participantId"":""464DE6E64E9C4B1081719C0169E29EDD"",""assignmentId"":""0198ee68-fb06-7d49-a567-8566d0a97af1"",""projectId"":""0198ee3c-27ac-7803-a9ea-f3b4ad4ad678""}","https://test12345.live/?num_scrambled_semantic=8&num_scrambled_causal=4&num_scrambled_schematic=4&participantId=464DE6E64E9C4B1081719C0169E29EDD&assignmentId=0198ee68-fb06-7d49-a567-8566d0a97af1&projectId=0198ee3c-27ac-7803-a9ea-f3b4ad4ad678","464DE6E64E9C4B1081719C0169E29EDD-2025-08-28-03-10-02","","null","","images/semantic_sequence/kitchen_operations_semantic/kitchen_operations_semantic_2.png","null","",""
"","","","","","image-button-response","93","329432","0.0-14.0-1.0-1.1","464DE6E64E9C4B1081719C0169E29EDD","464DE6E64E9C4B1081719C0169E29EDD","0198ee68-fb06-7d49-a567-8566d0a97af1","0198ee3c-27ac-7803-a9ea-f3b4ad4ad678","{""num_scrambled_semantic"":""8"",""num_scrambled_causal"":""4"",""num_scrambled_schematic"":""4"",""participantId"":""464DE6E64E9C4B1081719C0169E29EDD"",""assignmentId"":""0198ee68-fb06-7d49-a567-8566d0a97af1"",""projectId"":""0198ee3c-27ac-7803-a9ea-f3b4ad4ad678""}","https://test12345.live/?num_scrambled_semantic=8&num_scrambled_causal=4&num_scrambled_schematic=4&participantId=464DE6E64E9C4B1081719C0169E29EDD&assignmentId=0198ee68-fb06-7d49-a567-8566d0a97af1&projectId=0198ee3c-27ac-7803-a9ea-f3b4ad4ad678","464DE6E64E9C4B1081719C0169E29EDD-2025-08-28-03-10-02","","null","","images/semantic_sequence/kitchen_operations_semantic/kitchen_operations_semantic_2.png","null","",""
"","","","","","image-button-response","94","331234","0.0-14.0-1.0-2.1","464DE6E64E9C4B1081719C0169E29EDD","464DE6E64E9C4B1081719C0169E29EDD","0198ee68-fb06-7d49-a567-8566d0a97af1","0198ee3c-27ac-7803-a9ea-f3b4ad4ad678","{""num_scrambled_semantic"":""8"",""num_scrambled_causal"":""4"",""num_scrambled_schematic"":""4"",""participantId"":""464DE6E64E9C4B1081719C0169E29EDD"",""assignmentId"":""0198ee68-fb06-7d49-a567-8566d0a97af1"",""projectId"":""0198ee3c-27ac-7803-a9ea-f3b4ad4ad678""}","https://test12345.live/?num_scrambled_semantic=8&num_scrambled_causal=4&num_scrambled_schematic=4&participantId=464DE6E64E9C4B1081719C0169E29EDD&assignmentId=0198ee68-fb06-7d49-a567-8566d0a97af1&projectId=0198ee3c-27ac-7803-a9ea-f3b4ad4ad678","464DE6E64E9C4B1081719C0169E29EDD-2025-08-28-03-10-02","","null","","[]","null","",""
"","","","","","image-button-response","95","335753","0.0-14.0-1.0-0.2","464DE6E64E9C4B1081719C0169E29EDD","464DE6E64E9C4B1081719C0169E29EDD","0198ee68-fb06-7d49-a567-8566d0a97af1","0198ee3c-27ac-7803-a9ea-f3b4ad4ad678","{""num_scrambled_semantic"":""8"",""num_scrambled_causal"":""4"",""num_scrambled_schematic"":""4"",""participantId"":""464DE6E64E9C4B1081719C0169E29EDD"",""assignmentId"":""0198ee68-fb06-7d49-a567-8566d0a97af1"",""projectId"":""0198ee3c-27ac-7803-a9ea-f3b4ad4ad678""}","https://test12345.live/?num_scrambled_semantic=8&num_scrambled_causal=4&num_scrambled_schematic=4&participantId=464DE6E64E9C4B1081719C0169E29EDD&assignmentId=0198ee68-fb06-7d49-a567-8566d0a97af1&projectId=0198ee3c-27ac-7803-a9ea-f3b4ad4ad678","464DE6E64E9C4B1081719C0169E29EDD-2025-08-28-03-10-02","","null","","images/semantic_sequence/kitchen_operations_semantic/kitchen_operations_semantic_3.png","null","",""
"","","","","","image-button-response","96","336224","0.0-14.0-1.0-1.2","464DE6E64E9C4B1081719C0169E29EDD","464DE6E64E9C4B1081719C0169E29EDD","0198ee68-fb06-7d49-a567-8566d0a97af1","0198ee3c-27ac-7803-a9ea-f3b4ad4ad678","{""num_scrambled_semantic"":""8"",""num_scrambled_causal"":""4"",""num_scrambled_schematic"":""4"",""participantId"":""464DE6E64E9C4B1081719C0169E29EDD"",""assignmentId"":""0198ee68-fb06-7d49-a567-8566d0a97af1"",""projectId"":""0198ee3c-27ac-7803-a9ea-f3b4ad4ad678""}","https://test12345.live/?num_scrambled_semantic=8&num_scrambled_causal=4&num_scrambled_schematic=4&participantId=464DE6E64E9C4B1081719C0169E29EDD&assignmentId=0198ee68-fb06-7d49-a567-8566d0a97af1&projectId=0198ee3c-27ac-7803-a9ea-f3b4ad4ad678","464DE6E64E9C4B1081719C0169E29EDD-2025-08-28-03-10-02","","466","","images/semantic_sequence/kitchen_operations_semantic/kitchen_operations_semantic_3.png","0","",""
"","","","","","image-button-response","97","338032","0.0-14.0-1.0-2.2","464DE6E64E9C4B1081719C0169E29EDD","464DE6E64E9C4B1081719C0169E29EDD","0198ee68-fb06-7d49-a567-8566d0a97af1","0198ee3c-27ac-7803-a9ea-f3b4ad4ad678","{""num_scrambled_semantic"":""8"",""num_scrambled_causal"":""4"",""num_scrambled_schematic"":""4"",""participantId"":""464DE6E64E9C4B1081719C0169E29EDD"",""assignmentId"":""0198ee68-fb06-7d49-a567-8566d0a97af1"",""projectId"":""0198ee3c-27ac-7803-a9ea-f3b4ad4ad678""}","https://test12345.live/?num_scrambled_semantic=8&num_scrambled_causal=4&num_scrambled_schematic=4&participantId=464DE6E64E9C4B1081719C0169E29EDD&assignmentId=0198ee68-fb06-7d49-a567-8566d0a97af1&projectId=0198ee3c-27ac-7803-a9ea-f3b4ad4ad678","464DE6E64E9C4B1081719C0169E29EDD-2025-08-28-03-10-02","","null","","[]","null","",""
"","","","","","image-button-response","98","342555","0.0-14.0-1.0-0.3","464DE6E64E9C4B1081719C0169E29EDD","464DE6E64E9C4B1081719C0169E29EDD","0198ee68-fb06-7d49-a567-8566d0a97af1","0198ee3c-27ac-7803-a9ea-f3b4ad4ad678","{""num_scrambled_semantic"":""8"",""num_scrambled_causal"":""4"",""num_scrambled_schematic"":""4"",""participantId"":""464DE6E64E9C4B1081719C0169E29EDD"",""assignmentId"":""0198ee68-fb06-7d49-a567-8566d0a97af1"",""projectId"":""0198ee3c-27ac-7803-a9ea-f3b4ad4ad678""}","https://test12345.live/?num_scrambled_semantic=8&num_scrambled_causal=4&num_scrambled_schematic=4&participantId=464DE6E64E9C4B1081719C0169E29EDD&assignmentId=0198ee68-fb06-7d49-a567-8566d0a97af1&projectId=0198ee3c-27ac-7803-a9ea-f3b4ad4ad678","464DE6E64E9C4B1081719C0169E29EDD-2025-08-28-03-10-02","","null","","images/semantic_sequence/kitchen_operations_semantic/kitchen_operations_semantic_4.png","null","",""
"","","","","","image-button-response","99","345428","0.0-14.0-1.0-1.3","464DE6E64E9C4B1081719C0169E29EDD","464DE6E64E9C4B1081719C0169E29EDD","0198ee68-fb06-7d49-a567-8566d0a97af1","0198ee3c-27ac-7803-a9ea-f3b4ad4ad678","{""num_scrambled_semantic"":""8"",""num_scrambled_causal"":""4"",""num_scrambled_schematic"":""4"",""participantId"":""464DE6E64E9C4B1081719C0169E29EDD"",""assignmentId"":""0198ee68-fb06-7d49-a567-8566d0a97af1"",""projectId"":""0198ee3c-27ac-7803-a9ea-f3b4ad4ad678""}","https://test12345.live/?num_scrambled_semantic=8&num_scrambled_causal=4&num_scrambled_schematic=4&participantId=464DE6E64E9C4B1081719C0169E29EDD&assignmentId=0198ee68-fb06-7d49-a567-8566d0a97af1&projectId=0198ee3c-27ac-7803-a9ea-f3b4ad4ad678","464DE6E64E9C4B1081719C0169E29EDD-2025-08-28-03-10-02","","2869","","images/semantic_sequence/kitchen_operations_semantic/kitchen_operations_semantic_4.png","0","",""
"","","","","","image-button-response","100","347243","0.0-14.0-1.0-2.3","464DE6E64E9C4B1081719C0169E29EDD","464DE6E64E9C4B1081719C0169E29EDD","0198ee68-fb06-7d49-a567-8566d0a97af1","0198ee3c-27ac-7803-a9ea-f3b4ad4ad678","{""num_scrambled_semantic"":""8"",""num_scrambled_causal"":""4"",""num_scrambled_schematic"":""4"",""participantId"":""464DE6E64E9C4B1081719C0169E29EDD"",""assignmentId"":""0198ee68-fb06-7d49-a567-8566d0a97af1"",""projectId"":""0198ee3c-27ac-7803-a9ea-f3b4ad4ad678""}","https://test12345.live/?num_scrambled_semantic=8&num_scrambled_causal=4&num_scrambled_schematic=4&participantId=464DE6E64E9C4B1081719C0169E29EDD&assignmentId=0198ee68-fb06-7d49-a567-8566d0a97af1&projectId=0198ee3c-27ac-7803-a9ea-f3b4ad4ad678","464DE6E64E9C4B1081719C0169E29EDD-2025-08-28-03-10-02","","null","","[]","null","",""
"","","","","","image-button-response","101","351771","0.0-14.0-1.0-0.4","464DE6E64E9C4B1081719C0169E29EDD","464DE6E64E9C4B1081719C0169E29EDD","0198ee68-fb06-7d49-a567-8566d0a97af1","0198ee3c-27ac-7803-a9ea-f3b4ad4ad678","{""num_scrambled_semantic"":""8"",""num_scrambled_causal"":""4"",""num_scrambled_schematic"":""4"",""participantId"":""464DE6E64E9C4B1081719C0169E29EDD"",""assignmentId"":""0198ee68-fb06-7d49-a567-8566d0a97af1"",""projectId"":""0198ee3c-27ac-7803-a9ea-f3b4ad4ad678""}","https://test12345.live/?num_scrambled_semantic=8&num_scrambled_causal=4&num_scrambled_schematic=4&participantId=464DE6E64E9C4B1081719C0169E29EDD&assignmentId=0198ee68-fb06-7d49-a567-8566d0a97af1&projectId=0198ee3c-27ac-7803-a9ea-f3b4ad4ad678","464DE6E64E9C4B1081719C0169E29EDD-2025-08-28-03-10-02","","null","","images/semantic_sequence/kitchen_operations_semantic/kitchen_operations_semantic_5.png","null","",""
"","","","","","image-button-response","102","352487","0.0-14.0-1.0-1.4","464DE6E64E9C4B1081719C0169E29EDD","464DE6E64E9C4B1081719C0169E29EDD","0198ee68-fb06-7d49-a567-8566d0a97af1","0198ee3c-27ac-7803-a9ea-f3b4ad4ad678","{""num_scrambled_semantic"":""8"",""num_scrambled_causal"":""4"",""num_scrambled_schematic"":""4"",""participantId"":""464DE6E64E9C4B1081719C0169E29EDD"",""assignmentId"":""0198ee68-fb06-7d49-a567-8566d0a97af1"",""projectId"":""0198ee3c-27ac-7803-a9ea-f3b4ad4ad678""}","https://test12345.live/?num_scrambled_semantic=8&num_scrambled_causal=4&num_scrambled_schematic=4&participantId=464DE6E64E9C4B1081719C0169E29EDD&assignmentId=0198ee68-fb06-7d49-a567-8566d0a97af1&projectId=0198ee3c-27ac-7803-a9ea-f3b4ad4ad678","464DE6E64E9C4B1081719C0169E29EDD-2025-08-28-03-10-02","","713","","images/semantic_sequence/kitchen_operations_semantic/kitchen_operations_semantic_5.png","0","",""
"","","","","","image-button-response","103","354293","0.0-14.0-1.0-2.4","464DE6E64E9C4B1081719C0169E29EDD","464DE6E64E9C4B1081719C0169E29EDD","0198ee68-fb06-7d49-a567-8566d0a97af1","0198ee3c-27ac-7803-a9ea-f3b4ad4ad678","{""num_scrambled_semantic"":""8"",""num_scrambled_causal"":""4"",""num_scrambled_schematic"":""4"",""participantId"":""464DE6E64E9C4B1081719C0169E29EDD"",""assignmentId"":""0198ee68-fb06-7d49-a567-8566d0a97af1"",""projectId"":""0198ee3c-27ac-7803-a9ea-f3b4ad4ad678""}","https://test12345.live/?num_scrambled_semantic=8&num_scrambled_causal=4&num_scrambled_schematic=4&participantId=464DE6E64E9C4B1081719C0169E29EDD&assignmentId=0198ee68-fb06-7d49-a567-8566d0a97af1&projectId=0198ee3c-27ac-7803-a9ea-f3b4ad4ad678","464DE6E64E9C4B1081719C0169E29EDD-2025-08-28-03-10-02","","null","","[]","null","",""
"","","","","","image-button-response","104","358825","0.0-14.0-1.0-0.5","464DE6E64E9C4B1081719C0169E29EDD","464DE6E64E9C4B1081719C0169E29EDD","0198ee68-fb06-7d49-a567-8566d0a97af1","0198ee3c-27ac-7803-a9ea-f3b4ad4ad678","{""num_scrambled_semantic"":""8"",""num_scrambled_causal"":""4"",""num_scrambled_schematic"":""4"",""participantId"":""464DE6E64E9C4B1081719C0169E29EDD"",""assignmentId"":""0198ee68-fb06-7d49-a567-8566d0a97af1"",""projectId"":""0198ee3c-27ac-7803-a9ea-f3b4ad4ad678""}","https://test12345.live/?num_scrambled_semantic=8&num_scrambled_causal=4&num_scrambled_schematic=4&participantId=464DE6E64E9C4B1081719C0169E29EDD&assignmentId=0198ee68-fb06-7d49-a567-8566d0a97af1&projectId=0198ee3c-27ac-7803-a9ea-f3b4ad4ad678","464DE6E64E9C4B1081719C0169E29EDD-2025-08-28-03-10-02","","null","","images/semantic_sequence/kitchen_operations_semantic/kitchen_operations_semantic_6.png","null","",""
"","","","","","image-button-response","105","360515","0.0-14.0-1.0-1.5","464DE6E64E9C4B1081719C0169E29EDD","464DE6E64E9C4B1081719C0169E29EDD","0198ee68-fb06-7d49-a567-8566d0a97af1","0198ee3c-27ac-7803-a9ea-f3b4ad4ad678","{""num_scrambled_semantic"":""8"",""num_scrambled_causal"":""4"",""num_scrambled_schematic"":""4"",""participantId"":""464DE6E64E9C4B1081719C0169E29EDD"",""assignmentId"":""0198ee68-fb06-7d49-a567-8566d0a97af1"",""projectId"":""0198ee3c-27ac-7803-a9ea-f3b4ad4ad678""}","https://test12345.live/?num_scrambled_semantic=8&num_scrambled_causal=4&num_scrambled_schematic=4&participantId=464DE6E64E9C4B1081719C0169E29EDD&assignmentId=0198ee68-fb06-7d49-a567-8566d0a97af1&projectId=0198ee3c-27ac-7803-a9ea-f3b4ad4ad678","464DE6E64E9C4B1081719C0169E29EDD-2025-08-28-03-10-02","","1687","","images/semantic_sequence/kitchen_operations_semantic/kitchen_operations_semantic_6.png","0","",""
"","","","","","image-button-response","106","362326","0.0-14.0-1.0-2.5","464DE6E64E9C4B1081719C0169E29EDD","464DE6E64E9C4B1081719C0169E29EDD","0198ee68-fb06-7d49-a567-8566d0a97af1","0198ee3c-27ac-7803-a9ea-f3b4ad4ad678","{""num_scrambled_semantic"":""8"",""num_scrambled_causal"":""4"",""num_scrambled_schematic"":""4"",""participantId"":""464DE6E64E9C4B1081719C0169E29EDD"",""assignmentId"":""0198ee68-fb06-7d49-a567-8566d0a97af1"",""projectId"":""0198ee3c-27ac-7803-a9ea-f3b4ad4ad678""}","https://test12345.live/?num_scrambled_semantic=8&num_scrambled_causal=4&num_scrambled_schematic=4&participantId=464DE6E64E9C4B1081719C0169E29EDD&assignmentId=0198ee68-fb06-7d49-a567-8566d0a97af1&projectId=0198ee3c-27ac-7803-a9ea-f3b4ad4ad678","464DE6E64E9C4B1081719C0169E29EDD-2025-08-28-03-10-02","","null","","[]","null","",""
"","","","","","image-button-response","107","366843","0.0-14.0-1.0-0.6","464DE6E64E9C4B1081719C0169E29EDD","464DE6E64E9C4B1081719C0169E29EDD","0198ee68-fb06-7d49-a567-8566d0a97af1","0198ee3c-27ac-7803-a9ea-f3b4ad4ad678","{""num_scrambled_semantic"":""8"",""num_scrambled_causal"":""4"",""num_scrambled_schematic"":""4"",""participantId"":""464DE6E64E9C4B1081719C0169E29EDD"",""assignmentId"":""0198ee68-fb06-7d49-a567-8566d0a97af1"",""projectId"":""0198ee3c-27ac-7803-a9ea-f3b4ad4ad678""}","https://test12345.live/?num_scrambled_semantic=8&num_scrambled_causal=4&num_scrambled_schematic=4&participantId=464DE6E64E9C4B1081719C0169E29EDD&assignmentId=0198ee68-fb06-7d49-a567-8566d0a97af1&projectId=0198ee3c-27ac-7803-a9ea-f3b4ad4ad678","464DE6E64E9C4B1081719C0169E29EDD-2025-08-28-03-10-02","","null","","images/semantic_sequence/kitchen_operations_semantic/kitchen_operations_semantic_7.png","null","",""
"","","","","","image-button-response","108","368831","0.0-14.0-1.0-1.6","464DE6E64E9C4B1081719C0169E29EDD","464DE6E64E9C4B1081719C0169E29EDD","0198ee68-fb06-7d49-a567-8566d0a97af1","0198ee3c-27ac-7803-a9ea-f3b4ad4ad678","{""num_scrambled_semantic"":""8"",""num_scrambled_causal"":""4"",""num_scrambled_schematic"":""4"",""participantId"":""464DE6E64E9C4B1081719C0169E29EDD"",""assignmentId"":""0198ee68-fb06-7d49-a567-8566d0a97af1"",""projectId"":""0198ee3c-27ac-7803-a9ea-f3b4ad4ad678""}","https://test12345.live/?num_scrambled_semantic=8&num_scrambled_causal=4&num_scrambled_schematic=4&participantId=464DE6E64E9C4B1081719C0169E29EDD&assignmentId=0198ee68-fb06-7d49-a567-8566d0a97af1&projectId=0198ee3c-27ac-7803-a9ea-f3b4ad4ad678","464DE6E64E9C4B1081719C0169E29EDD-2025-08-28-03-10-02","","1985","","images/semantic_sequence/kitchen_operations_semantic/kitchen_operations_semantic_7.png","0","",""
"","","","","","image-button-response","109","370642","0.0-14.0-1.0-2.6","464DE6E64E9C4B1081719C0169E29EDD","464DE6E64E9C4B1081719C0169E29EDD","0198ee68-fb06-7d49-a567-8566d0a97af1","0198ee3c-27ac-7803-a9ea-f3b4ad4ad678","{""num_scrambled_semantic"":""8"",""num_scrambled_causal"":""4"",""num_scrambled_schematic"":""4"",""participantId"":""464DE6E64E9C4B1081719C0169E29EDD"",""assignmentId"":""0198ee68-fb06-7d49-a567-8566d0a97af1"",""projectId"":""0198ee3c-27ac-7803-a9ea-f3b4ad4ad678""}","https://test12345.live/?num_scrambled_semantic=8&num_scrambled_causal=4&num_scrambled_schematic=4&participantId=464DE6E64E9C4B1081719C0169E29EDD&assignmentId=0198ee68-fb06-7d49-a567-8566d0a97af1&projectId=0198ee3c-27ac-7803-a9ea-f3b4ad4ad678","464DE6E64E9C4B1081719C0169E29EDD-2025-08-28-03-10-02","","null","","[]","null","",""
"","","","","","image-button-response","110","375192","0.0-14.0-1.0-0.7","464DE6E64E9C4B1081719C0169E29EDD","464DE6E64E9C4B1081719C0169E29EDD","0198ee68-fb06-7d49-a567-8566d0a97af1","0198ee3c-27ac-7803-a9ea-f3b4ad4ad678","{""num_scrambled_semantic"":""8"",""num_scrambled_causal"":""4"",""num_scrambled_schematic"":""4"",""participantId"":""464DE6E64E9C4B1081719C0169E29EDD"",""assignmentId"":""0198ee68-fb06-7d49-a567-8566d0a97af1"",""projectId"":""0198ee3c-27ac-7803-a9ea-f3b4ad4ad678""}","https://test12345.live/?num_scrambled_semantic=8&num_scrambled_causal=4&num_scrambled_schematic=4&participantId=464DE6E64E9C4B1081719C0169E29EDD&assignmentId=0198ee68-fb06-7d49-a567-8566d0a97af1&projectId=0198ee3c-27ac-7803-a9ea-f3b4ad4ad678","464DE6E64E9C4B1081719C0169E29EDD-2025-08-28-03-10-02","","null","","images/semantic_sequence/kitchen_operations_semantic/kitchen_operations_semantic_8.png","null","",""
"","","","","","image-button-response","111","377011","0.0-14.0-1.0-1.7","464DE6E64E9C4B1081719C0169E29EDD","464DE6E64E9C4B1081719C0169E29EDD","0198ee68-fb06-7d49-a567-8566d0a97af1","0198ee3c-27ac-7803-a9ea-f3b4ad4ad678","{""num_scrambled_semantic"":""8"",""num_scrambled_causal"":""4"",""num_scrambled_schematic"":""4"",""participantId"":""464DE6E64E9C4B1081719C0169E29EDD"",""assignmentId"":""0198ee68-fb06-7d49-a567-8566d0a97af1"",""projectId"":""0198ee3c-27ac-7803-a9ea-f3b4ad4ad678""}","https://test12345.live/?num_scrambled_semantic=8&num_scrambled_causal=4&num_scrambled_schematic=4&participantId=464DE6E64E9C4B1081719C0169E29EDD&assignmentId=0198ee68-fb06-7d49-a567-8566d0a97af1&projectId=0198ee3c-27ac-7803-a9ea-f3b4ad4ad678","464DE6E64E9C4B1081719C0169E29EDD-2025-08-28-03-10-02","","1815","","images/semantic_sequence/kitchen_operations_semantic/kitchen_operations_semantic_8.png","0","",""
"","","","","","image-button-response","112","378823","0.0-14.0-1.0-2.7","464DE6E64E9C4B1081719C0169E29EDD","464DE6E64E9C4B1081719C0169E29EDD","0198ee68-fb06-7d49-a567-8566d0a97af1","0198ee3c-27ac-7803-a9ea-f3b4ad4ad678","{""num_scrambled_semantic"":""8"",""num_scrambled_causal"":""4"",""num_scrambled_schematic"":""4"",""participantId"":""464DE6E64E9C4B1081719C0169E29EDD"",""assignmentId"":""0198ee68-fb06-7d49-a567-8566d0a97af1"",""projectId"":""0198ee3c-27ac-7803-a9ea-f3b4ad4ad678""}","https://test12345.live/?num_scrambled_semantic=8&num_scrambled_causal=4&num_scrambled_schematic=4&participantId=464DE6E64E9C4B1081719C0169E29EDD&assignmentId=0198ee68-fb06-7d49-a567-8566d0a97af1&projectId=0198ee3c-27ac-7803-a9ea-f3b4ad4ad678","464DE6E64E9C4B1081719C0169E29EDD-2025-08-28-03-10-02","","null","","[]","null","",""
"","","","","","image-button-response","113","383344","0.0-14.0-1.0-0.8","464DE6E64E9C4B1081719C0169E29EDD","464DE6E64E9C4B1081719C0169E29EDD","0198ee68-fb06-7d49-a567-8566d0a97af1","0198ee3c-27ac-7803-a9ea-f3b4ad4ad678","{""num_scrambled_semantic"":""8"",""num_scrambled_causal"":""4"",""num_scrambled_schematic"":""4"",""participantId"":""464DE6E64E9C4B1081719C0169E29EDD"",""assignmentId"":""0198ee68-fb06-7d49-a567-8566d0a97af1"",""projectId"":""0198ee3c-27ac-7803-a9ea-f3b4ad4ad678""}","https://test12345.live/?num_scrambled_semantic=8&num_scrambled_causal=4&num_scrambled_schematic=4&participantId=464DE6E64E9C4B1081719C0169E29EDD&assignmentId=0198ee68-fb06-7d49-a567-8566d0a97af1&projectId=0198ee3c-27ac-7803-a9ea-f3b4ad4ad678","464DE6E64E9C4B1081719C0169E29EDD-2025-08-28-03-10-02","","null","","images/semantic_sequence/kitchen_operations_semantic/kitchen_operations_semantic_9.png","null","",""
