"success","timeout","failed_images","failed_audio","failed_video","trial_type","trial_index","time_elapsed","internal_node_id","subject","subject_id","study_id","session_id","urlvar","current_url","audio_id","view_history","rt","device_id","stimulus","response","estimated_stimulus_onset","seq_name"
"true","false","[]","[]","[]","preload","0","19254","0.0-0.0","46C4DD283B6C4CBF824FA858A3E11BF7","46C4DD283B6C4CBF824FA858A3E11BF7","0198ee42-a48f-7c5f-9f02-a0c1ce9a2492","0198ee3c-27ac-7803-a9ea-f3b4ad4ad678","{""num_scrambled_semantic"":""8"",""num_scrambled_causal"":""4"",""num_scrambled_schematic"":""4"",""participantId"":""46C4DD283B6C4CBF824FA858A3E11BF7"",""assignmentId"":""0198ee42-a48f-7c5f-9f02-a0c1ce9a2492"",""projectId"":""0198ee3c-27ac-7803-a9ea-f3b4ad4ad678""}","https://test12345.live/?num_scrambled_semantic=8&num_scrambled_causal=4&num_scrambled_schematic=4&participantId=46C4DD283B6C4CBF824FA858A3E11BF7&assignmentId=0198ee42-a48f-7c5f-9f02-a0c1ce9a2492&projectId=0198ee3c-27ac-7803-a9ea-f3b4ad4ad678","46C4DD283B6C4CBF824FA858A3E11BF7-2025-08-28-02-22-54","","","","","","",""
"","","","","","instructions","1","70270","0.0-1.0","46C4DD283B6C4CBF824FA858A3E11BF7","46C4DD283B6C4CBF824FA858A3E11BF7","0198ee42-a48f-7c5f-9f02-a0c1ce9a2492","0198ee3c-27ac-7803-a9ea-f3b4ad4ad678","{""num_scrambled_semantic"":""8"",""num_scrambled_causal"":""4"",""num_scrambled_schematic"":""4"",""participantId"":""46C4DD283B6C4CBF824FA858A3E11BF7"",""assignmentId"":""0198ee42-a48f-7c5f-9f02-a0c1ce9a2492"",""projectId"":""0198ee3c-27ac-7803-a9ea-f3b4ad4ad678""}","https://test12345.live/?num_scrambled_semantic=8&num_scrambled_causal=4&num_scrambled_schematic=4&participantId=46C4DD283B6C4CBF824FA858A3E11BF7&assignmentId=0198ee42-a48f-7c5f-9f02-a0c1ce9a2492&projectId=0198ee3c-27ac-7803-a9ea-f3b4ad4ad678","46C4DD283B6C4CBF824FA858A3E11BF7-2025-08-28-02-22-54","[{""page_index"":0,""viewing_time"":51014}]","51015","","","","",""
"","","","","","instructions","2","79302","0.0-2.0","46C4DD283B6C4CBF824FA858A3E11BF7","46C4DD283B6C4CBF824FA858A3E11BF7","0198ee42-a48f-7c5f-9f02-a0c1ce9a2492","0198ee3c-27ac-7803-a9ea-f3b4ad4ad678","{""num_scrambled_semantic"":""8"",""num_scrambled_causal"":""4"",""num_scrambled_schematic"":""4"",""participantId"":""46C4DD283B6C4CBF824FA858A3E11BF7"",""assignmentId"":""0198ee42-a48f-7c5f-9f02-a0c1ce9a2492"",""projectId"":""0198ee3c-27ac-7803-a9ea-f3b4ad4ad678""}","https://test12345.live/?num_scrambled_semantic=8&num_scrambled_causal=4&num_scrambled_schematic=4&participantId=46C4DD283B6C4CBF824FA858A3E11BF7&assignmentId=0198ee42-a48f-7c5f-9f02-a0c1ce9a2492&projectId=0198ee3c-27ac-7803-a9ea-f3b4ad4ad678","46C4DD283B6C4CBF824FA858A3E11BF7-2025-08-28-02-22-54","[{""page_index"":0,""viewing_time"":9031}]","9031","","","","",""
"true","","","","","fullscreen","3","93014","0.0-3.0","46C4DD283B6C4CBF824FA858A3E11BF7","46C4DD283B6C4CBF824FA858A3E11BF7","0198ee42-a48f-7c5f-9f02-a0c1ce9a2492","0198ee3c-27ac-7803-a9ea-f3b4ad4ad678","{""num_scrambled_semantic"":""8"",""num_scrambled_causal"":""4"",""num_scrambled_schematic"":""4"",""participantId"":""46C4DD283B6C4CBF824FA858A3E11BF7"",""assignmentId"":""0198ee42-a48f-7c5f-9f02-a0c1ce9a2492"",""projectId"":""0198ee3c-27ac-7803-a9ea-f3b4ad4ad678""}","https://test12345.live/?num_scrambled_semantic=8&num_scrambled_causal=4&num_scrambled_schematic=4&participantId=46C4DD283B6C4CBF824FA858A3E11BF7&assignmentId=0198ee42-a48f-7c5f-9f02-a0c1ce9a2492&projectId=0198ee3c-27ac-7803-a9ea-f3b4ad4ad678","46C4DD283B6C4CBF824FA858A3E11BF7-2025-08-28-02-22-54","","12666","","","","",""
"","","","","","initialize-microphone","4","115913","0.0-4.0-0.0","46C4DD283B6C4CBF824FA858A3E11BF7","46C4DD283B6C4CBF824FA858A3E11BF7","0198ee42-a48f-7c5f-9f02-a0c1ce9a2492","0198ee3c-27ac-7803-a9ea-f3b4ad4ad678","{""num_scrambled_semantic"":""8"",""num_scrambled_causal"":""4"",""num_scrambled_schematic"":""4"",""participantId"":""46C4DD283B6C4CBF824FA858A3E11BF7"",""assignmentId"":""0198ee42-a48f-7c5f-9f02-a0c1ce9a2492"",""projectId"":""0198ee3c-27ac-7803-a9ea-f3b4ad4ad678""}","https://test12345.live/?num_scrambled_semantic=8&num_scrambled_causal=4&num_scrambled_schematic=4&participantId=46C4DD283B6C4CBF824FA858A3E11BF7&assignmentId=0198ee42-a48f-7c5f-9f02-a0c1ce9a2492&projectId=0198ee3c-27ac-7803-a9ea-f3b4ad4ad678","46C4DD283B6C4CBF824FA858A3E11BF7-2025-08-28-02-22-54","","","4df12f01fe130063ad767bc82991dd5783dcbd8ebf7f8334aaf3dee88e1d24c2","","","",""
"","","","","","html-audio-response","5","151711","0.0-4.0-1.0","46C4DD283B6C4CBF824FA858A3E11BF7","46C4DD283B6C4CBF824FA858A3E11BF7","0198ee42-a48f-7c5f-9f02-a0c1ce9a2492","0198ee3c-27ac-7803-a9ea-f3b4ad4ad678","{""num_scrambled_semantic"":""8"",""num_scrambled_causal"":""4"",""num_scrambled_schematic"":""4"",""participantId"":""46C4DD283B6C4CBF824FA858A3E11BF7"",""assignmentId"":""0198ee42-a48f-7c5f-9f02-a0c1ce9a2492"",""projectId"":""0198ee3c-27ac-7803-a9ea-f3b4ad4ad678""}","https://test12345.live/?num_scrambled_semantic=8&num_scrambled_causal=4&num_scrambled_schematic=4&participantId=46C4DD283B6C4CBF824FA858A3E11BF7&assignmentId=0198ee42-a48f-7c5f-9f02-a0c1ce9a2492&projectId=0198ee3c-27ac-7803-a9ea-f3b4ad4ad678","46C4DD283B6C4CBF824FA858A3E11BF7-2025-08-28-02-22-54","","7934","","<span style=""color: red; font-size: 24px""> NOW RECORDING</span>
        <p>Please test Microphone</p>","","19",""
"","","","","","html-button-response","6","154072","0.0-4.0-2.0","46C4DD283B6C4CBF824FA858A3E11BF7","46C4DD283B6C4CBF824FA858A3E11BF7","0198ee42-a48f-7c5f-9f02-a0c1ce9a2492","0198ee3c-27ac-7803-a9ea-f3b4ad4ad678","{""num_scrambled_semantic"":""8"",""num_scrambled_causal"":""4"",""num_scrambled_schematic"":""4"",""participantId"":""46C4DD283B6C4CBF824FA858A3E11BF7"",""assignmentId"":""0198ee42-a48f-7c5f-9f02-a0c1ce9a2492"",""projectId"":""0198ee3c-27ac-7803-a9ea-f3b4ad4ad678""}","https://test12345.live/?num_scrambled_semantic=8&num_scrambled_causal=4&num_scrambled_schematic=4&participantId=46C4DD283B6C4CBF824FA858A3E11BF7&assignmentId=0198ee42-a48f-7c5f-9f02-a0c1ce9a2492&projectId=0198ee3c-27ac-7803-a9ea-f3b4ad4ad678","46C4DD283B6C4CBF824FA858A3E11BF7-2025-08-28-02-22-54","","2356","","<p style=""font-size:48px; color:red;"">Is Microphone OK?</p>","1","",""
"","","","","","instructions","7","162848","0.0-5.0","46C4DD283B6C4CBF824FA858A3E11BF7","46C4DD283B6C4CBF824FA858A3E11BF7","0198ee42-a48f-7c5f-9f02-a0c1ce9a2492","0198ee3c-27ac-7803-a9ea-f3b4ad4ad678","{""num_scrambled_semantic"":""8"",""num_scrambled_causal"":""4"",""num_scrambled_schematic"":""4"",""participantId"":""46C4DD283B6C4CBF824FA858A3E11BF7"",""assignmentId"":""0198ee42-a48f-7c5f-9f02-a0c1ce9a2492"",""projectId"":""0198ee3c-27ac-7803-a9ea-f3b4ad4ad678""}","https://test12345.live/?num_scrambled_semantic=8&num_scrambled_causal=4&num_scrambled_schematic=4&participantId=46C4DD283B6C4CBF824FA858A3E11BF7&assignmentId=0198ee42-a48f-7c5f-9f02-a0c1ce9a2492&projectId=0198ee3c-27ac-7803-a9ea-f3b4ad4ad678","46C4DD283B6C4CBF824FA858A3E11BF7-2025-08-28-02-22-54","[{""page_index"":0,""viewing_time"":3501},{""page_index"":1,""viewing_time"":5273}]","8774","","","","",""
"","","","","","image-button-response","8","168882","0.0-6.0-0.0","46C4DD283B6C4CBF824FA858A3E11BF7","46C4DD283B6C4CBF824FA858A3E11BF7","0198ee42-a48f-7c5f-9f02-a0c1ce9a2492","0198ee3c-27ac-7803-a9ea-f3b4ad4ad678","{""num_scrambled_semantic"":""8"",""num_scrambled_causal"":""4"",""num_scrambled_schematic"":""4"",""participantId"":""46C4DD283B6C4CBF824FA858A3E11BF7"",""assignmentId"":""0198ee42-a48f-7c5f-9f02-a0c1ce9a2492"",""projectId"":""0198ee3c-27ac-7803-a9ea-f3b4ad4ad678""}","https://test12345.live/?num_scrambled_semantic=8&num_scrambled_causal=4&num_scrambled_schematic=4&participantId=46C4DD283B6C4CBF824FA858A3E11BF7&assignmentId=0198ee42-a48f-7c5f-9f02-a0c1ce9a2492&projectId=0198ee3c-27ac-7803-a9ea-f3b4ad4ad678","46C4DD283B6C4CBF824FA858A3E11BF7-2025-08-28-02-22-54","","null","","images/instructions/movie_0.png","null","",""
"","","","","","image-button-response","9","173392","0.0-6.0-1.0-0.0","46C4DD283B6C4CBF824FA858A3E11BF7","46C4DD283B6C4CBF824FA858A3E11BF7","0198ee42-a48f-7c5f-9f02-a0c1ce9a2492","0198ee3c-27ac-7803-a9ea-f3b4ad4ad678","{""num_scrambled_semantic"":""8"",""num_scrambled_causal"":""4"",""num_scrambled_schematic"":""4"",""participantId"":""46C4DD283B6C4CBF824FA858A3E11BF7"",""assignmentId"":""0198ee42-a48f-7c5f-9f02-a0c1ce9a2492"",""projectId"":""0198ee3c-27ac-7803-a9ea-f3b4ad4ad678""}","https://test12345.live/?num_scrambled_semantic=8&num_scrambled_causal=4&num_scrambled_schematic=4&participantId=46C4DD283B6C4CBF824FA858A3E11BF7&assignmentId=0198ee42-a48f-7c5f-9f02-a0c1ce9a2492&projectId=0198ee3c-27ac-7803-a9ea-f3b4ad4ad678","46C4DD283B6C4CBF824FA858A3E11BF7-2025-08-28-02-22-54","","null","","images/instructions/movie_1.png","null","",""
"","","","","","image-button-response","10","177241","0.0-6.0-1.0-1.0","46C4DD283B6C4CBF824FA858A3E11BF7","46C4DD283B6C4CBF824FA858A3E11BF7","0198ee42-a48f-7c5f-9f02-a0c1ce9a2492","0198ee3c-27ac-7803-a9ea-f3b4ad4ad678","{""num_scrambled_semantic"":""8"",""num_scrambled_causal"":""4"",""num_scrambled_schematic"":""4"",""participantId"":""46C4DD283B6C4CBF824FA858A3E11BF7"",""assignmentId"":""0198ee42-a48f-7c5f-9f02-a0c1ce9a2492"",""projectId"":""0198ee3c-27ac-7803-a9ea-f3b4ad4ad678""}","https://test12345.live/?num_scrambled_semantic=8&num_scrambled_causal=4&num_scrambled_schematic=4&participantId=46C4DD283B6C4CBF824FA858A3E11BF7&assignmentId=0198ee42-a48f-7c5f-9f02-a0c1ce9a2492&projectId=0198ee3c-27ac-7803-a9ea-f3b4ad4ad678","46C4DD283B6C4CBF824FA858A3E11BF7-2025-08-28-02-22-54","","3847","","images/instructions/movie_1.png","0","",""
"","","","","","image-button-response","11","179056","0.0-6.0-1.0-2.0","46C4DD283B6C4CBF824FA858A3E11BF7","46C4DD283B6C4CBF824FA858A3E11BF7","0198ee42-a48f-7c5f-9f02-a0c1ce9a2492","0198ee3c-27ac-7803-a9ea-f3b4ad4ad678","{""num_scrambled_semantic"":""8"",""num_scrambled_causal"":""4"",""num_scrambled_schematic"":""4"",""participantId"":""46C4DD283B6C4CBF824FA858A3E11BF7"",""assignmentId"":""0198ee42-a48f-7c5f-9f02-a0c1ce9a2492"",""projectId"":""0198ee3c-27ac-7803-a9ea-f3b4ad4ad678""}","https://test12345.live/?num_scrambled_semantic=8&num_scrambled_causal=4&num_scrambled_schematic=4&participantId=46C4DD283B6C4CBF824FA858A3E11BF7&assignmentId=0198ee42-a48f-7c5f-9f02-a0c1ce9a2492&projectId=0198ee3c-27ac-7803-a9ea-f3b4ad4ad678","46C4DD283B6C4CBF824FA858A3E11BF7-2025-08-28-02-22-54","","null","","[]","null","",""
"","","","","","image-button-response","12","183572","0.0-6.0-1.0-0.1","46C4DD283B6C4CBF824FA858A3E11BF7","46C4DD283B6C4CBF824FA858A3E11BF7","0198ee42-a48f-7c5f-9f02-a0c1ce9a2492","0198ee3c-27ac-7803-a9ea-f3b4ad4ad678","{""num_scrambled_semantic"":""8"",""num_scrambled_causal"":""4"",""num_scrambled_schematic"":""4"",""participantId"":""46C4DD283B6C4CBF824FA858A3E11BF7"",""assignmentId"":""0198ee42-a48f-7c5f-9f02-a0c1ce9a2492"",""projectId"":""0198ee3c-27ac-7803-a9ea-f3b4ad4ad678""}","https://test12345.live/?num_scrambled_semantic=8&num_scrambled_causal=4&num_scrambled_schematic=4&participantId=46C4DD283B6C4CBF824FA858A3E11BF7&assignmentId=0198ee42-a48f-7c5f-9f02-a0c1ce9a2492&projectId=0198ee3c-27ac-7803-a9ea-f3b4ad4ad678","46C4DD283B6C4CBF824FA858A3E11BF7-2025-08-28-02-22-54","","null","","images/instructions/movie_2.png","null","",""
"","","","","","image-button-response","13","185839","0.0-6.0-1.0-1.1","46C4DD283B6C4CBF824FA858A3E11BF7","46C4DD283B6C4CBF824FA858A3E11BF7","0198ee42-a48f-7c5f-9f02-a0c1ce9a2492","0198ee3c-27ac-7803-a9ea-f3b4ad4ad678","{""num_scrambled_semantic"":""8"",""num_scrambled_causal"":""4"",""num_scrambled_schematic"":""4"",""participantId"":""46C4DD283B6C4CBF824FA858A3E11BF7"",""assignmentId"":""0198ee42-a48f-7c5f-9f02-a0c1ce9a2492"",""projectId"":""0198ee3c-27ac-7803-a9ea-f3b4ad4ad678""}","https://test12345.live/?num_scrambled_semantic=8&num_scrambled_causal=4&num_scrambled_schematic=4&participantId=46C4DD283B6C4CBF824FA858A3E11BF7&assignmentId=0198ee42-a48f-7c5f-9f02-a0c1ce9a2492&projectId=0198ee3c-27ac-7803-a9ea-f3b4ad4ad678","46C4DD283B6C4CBF824FA858A3E11BF7-2025-08-28-02-22-54","","2265","","images/instructions/movie_2.png","1","",""
"","","","","","image-button-response","14","187646","0.0-6.0-1.0-2.1","46C4DD283B6C4CBF824FA858A3E11BF7","46C4DD283B6C4CBF824FA858A3E11BF7","0198ee42-a48f-7c5f-9f02-a0c1ce9a2492","0198ee3c-27ac-7803-a9ea-f3b4ad4ad678","{""num_scrambled_semantic"":""8"",""num_scrambled_causal"":""4"",""num_scrambled_schematic"":""4"",""participantId"":""46C4DD283B6C4CBF824FA858A3E11BF7"",""assignmentId"":""0198ee42-a48f-7c5f-9f02-a0c1ce9a2492"",""projectId"":""0198ee3c-27ac-7803-a9ea-f3b4ad4ad678""}","https://test12345.live/?num_scrambled_semantic=8&num_scrambled_causal=4&num_scrambled_schematic=4&participantId=46C4DD283B6C4CBF824FA858A3E11BF7&assignmentId=0198ee42-a48f-7c5f-9f02-a0c1ce9a2492&projectId=0198ee3c-27ac-7803-a9ea-f3b4ad4ad678","46C4DD283B6C4CBF824FA858A3E11BF7-2025-08-28-02-22-54","","null","","[]","null","",""
"","","","","","image-button-response","15","192162","0.0-6.0-1.0-0.2","46C4DD283B6C4CBF824FA858A3E11BF7","46C4DD283B6C4CBF824FA858A3E11BF7","0198ee42-a48f-7c5f-9f02-a0c1ce9a2492","0198ee3c-27ac-7803-a9ea-f3b4ad4ad678","{""num_scrambled_semantic"":""8"",""num_scrambled_causal"":""4"",""num_scrambled_schematic"":""4"",""participantId"":""46C4DD283B6C4CBF824FA858A3E11BF7"",""assignmentId"":""0198ee42-a48f-7c5f-9f02-a0c1ce9a2492"",""projectId"":""0198ee3c-27ac-7803-a9ea-f3b4ad4ad678""}","https://test12345.live/?num_scrambled_semantic=8&num_scrambled_causal=4&num_scrambled_schematic=4&participantId=46C4DD283B6C4CBF824FA858A3E11BF7&assignmentId=0198ee42-a48f-7c5f-9f02-a0c1ce9a2492&projectId=0198ee3c-27ac-7803-a9ea-f3b4ad4ad678","46C4DD283B6C4CBF824FA858A3E11BF7-2025-08-28-02-22-54","","null","","images/instructions/movie_3.png","null","",""
"","","","","","image-button-response","16","195122","0.0-6.0-1.0-1.2","46C4DD283B6C4CBF824FA858A3E11BF7","46C4DD283B6C4CBF824FA858A3E11BF7","0198ee42-a48f-7c5f-9f02-a0c1ce9a2492","0198ee3c-27ac-7803-a9ea-f3b4ad4ad678","{""num_scrambled_semantic"":""8"",""num_scrambled_causal"":""4"",""num_scrambled_schematic"":""4"",""participantId"":""46C4DD283B6C4CBF824FA858A3E11BF7"",""assignmentId"":""0198ee42-a48f-7c5f-9f02-a0c1ce9a2492"",""projectId"":""0198ee3c-27ac-7803-a9ea-f3b4ad4ad678""}","https://test12345.live/?num_scrambled_semantic=8&num_scrambled_causal=4&num_scrambled_schematic=4&participantId=46C4DD283B6C4CBF824FA858A3E11BF7&assignmentId=0198ee42-a48f-7c5f-9f02-a0c1ce9a2492&projectId=0198ee3c-27ac-7803-a9ea-f3b4ad4ad678","46C4DD283B6C4CBF824FA858A3E11BF7-2025-08-28-02-22-54","","2958","","images/instructions/movie_3.png","0","",""
"","","","","","image-button-response","17","196928","0.0-6.0-1.0-2.2","46C4DD283B6C4CBF824FA858A3E11BF7","46C4DD283B6C4CBF824FA858A3E11BF7","0198ee42-a48f-7c5f-9f02-a0c1ce9a2492","0198ee3c-27ac-7803-a9ea-f3b4ad4ad678","{""num_scrambled_semantic"":""8"",""num_scrambled_causal"":""4"",""num_scrambled_schematic"":""4"",""participantId"":""46C4DD283B6C4CBF824FA858A3E11BF7"",""assignmentId"":""0198ee42-a48f-7c5f-9f02-a0c1ce9a2492"",""projectId"":""0198ee3c-27ac-7803-a9ea-f3b4ad4ad678""}","https://test12345.live/?num_scrambled_semantic=8&num_scrambled_causal=4&num_scrambled_schematic=4&participantId=46C4DD283B6C4CBF824FA858A3E11BF7&assignmentId=0198ee42-a48f-7c5f-9f02-a0c1ce9a2492&projectId=0198ee3c-27ac-7803-a9ea-f3b4ad4ad678","46C4DD283B6C4CBF824FA858A3E11BF7-2025-08-28-02-22-54","","null","","[]","null","",""
"","","","","","image-button-response","18","201470","0.0-6.0-1.0-0.3","46C4DD283B6C4CBF824FA858A3E11BF7","46C4DD283B6C4CBF824FA858A3E11BF7","0198ee42-a48f-7c5f-9f02-a0c1ce9a2492","0198ee3c-27ac-7803-a9ea-f3b4ad4ad678","{""num_scrambled_semantic"":""8"",""num_scrambled_causal"":""4"",""num_scrambled_schematic"":""4"",""participantId"":""46C4DD283B6C4CBF824FA858A3E11BF7"",""assignmentId"":""0198ee42-a48f-7c5f-9f02-a0c1ce9a2492"",""projectId"":""0198ee3c-27ac-7803-a9ea-f3b4ad4ad678""}","https://test12345.live/?num_scrambled_semantic=8&num_scrambled_causal=4&num_scrambled_schematic=4&participantId=46C4DD283B6C4CBF824FA858A3E11BF7&assignmentId=0198ee42-a48f-7c5f-9f02-a0c1ce9a2492&projectId=0198ee3c-27ac-7803-a9ea-f3b4ad4ad678","46C4DD283B6C4CBF824FA858A3E11BF7-2025-08-28-02-22-54","","null","","images/instructions/movie_4.png","null","",""
"","","","","","image-button-response","19","202570","0.0-6.0-1.0-1.3","46C4DD283B6C4CBF824FA858A3E11BF7","46C4DD283B6C4CBF824FA858A3E11BF7","0198ee42-a48f-7c5f-9f02-a0c1ce9a2492","0198ee3c-27ac-7803-a9ea-f3b4ad4ad678","{""num_scrambled_semantic"":""8"",""num_scrambled_causal"":""4"",""num_scrambled_schematic"":""4"",""participantId"":""46C4DD283B6C4CBF824FA858A3E11BF7"",""assignmentId"":""0198ee42-a48f-7c5f-9f02-a0c1ce9a2492"",""projectId"":""0198ee3c-27ac-7803-a9ea-f3b4ad4ad678""}","https://test12345.live/?num_scrambled_semantic=8&num_scrambled_causal=4&num_scrambled_schematic=4&participantId=46C4DD283B6C4CBF824FA858A3E11BF7&assignmentId=0198ee42-a48f-7c5f-9f02-a0c1ce9a2492&projectId=0198ee3c-27ac-7803-a9ea-f3b4ad4ad678","46C4DD283B6C4CBF824FA858A3E11BF7-2025-08-28-02-22-54","","1097","","images/instructions/movie_4.png","0","",""
"","","","","","image-button-response","20","204373","0.0-6.0-1.0-2.3","46C4DD283B6C4CBF824FA858A3E11BF7","46C4DD283B6C4CBF824FA858A3E11BF7","0198ee42-a48f-7c5f-9f02-a0c1ce9a2492","0198ee3c-27ac-7803-a9ea-f3b4ad4ad678","{""num_scrambled_semantic"":""8"",""num_scrambled_causal"":""4"",""num_scrambled_schematic"":""4"",""participantId"":""46C4DD283B6C4CBF824FA858A3E11BF7"",""assignmentId"":""0198ee42-a48f-7c5f-9f02-a0c1ce9a2492"",""projectId"":""0198ee3c-27ac-7803-a9ea-f3b4ad4ad678""}","https://test12345.live/?num_scrambled_semantic=8&num_scrambled_causal=4&num_scrambled_schematic=4&participantId=46C4DD283B6C4CBF824FA858A3E11BF7&assignmentId=0198ee42-a48f-7c5f-9f02-a0c1ce9a2492&projectId=0198ee3c-27ac-7803-a9ea-f3b4ad4ad678","46C4DD283B6C4CBF824FA858A3E11BF7-2025-08-28-02-22-54","","null","","[]","null","",""
"","","","","","instructions","21","227504","0.0-7.0","46C4DD283B6C4CBF824FA858A3E11BF7","46C4DD283B6C4CBF824FA858A3E11BF7","0198ee42-a48f-7c5f-9f02-a0c1ce9a2492","0198ee3c-27ac-7803-a9ea-f3b4ad4ad678","{""num_scrambled_semantic"":""8"",""num_scrambled_causal"":""4"",""num_scrambled_schematic"":""4"",""participantId"":""46C4DD283B6C4CBF824FA858A3E11BF7"",""assignmentId"":""0198ee42-a48f-7c5f-9f02-a0c1ce9a2492"",""projectId"":""0198ee3c-27ac-7803-a9ea-f3b4ad4ad678""}","https://test12345.live/?num_scrambled_semantic=8&num_scrambled_causal=4&num_scrambled_schematic=4&participantId=46C4DD283B6C4CBF824FA858A3E11BF7&assignmentId=0198ee42-a48f-7c5f-9f02-a0c1ce9a2492&projectId=0198ee3c-27ac-7803-a9ea-f3b4ad4ad678","46C4DD283B6C4CBF824FA858A3E11BF7-2025-08-28-02-22-54","[{""page_index"":0,""viewing_time"":23130}]","23130","","","","",""
"","","","","","html-audio-response","22","322158","0.0-8.0","46C4DD283B6C4CBF824FA858A3E11BF7","46C4DD283B6C4CBF824FA858A3E11BF7","0198ee42-a48f-7c5f-9f02-a0c1ce9a2492","0198ee3c-27ac-7803-a9ea-f3b4ad4ad678","{""num_scrambled_semantic"":""8"",""num_scrambled_causal"":""4"",""num_scrambled_schematic"":""4"",""participantId"":""46C4DD283B6C4CBF824FA858A3E11BF7"",""assignmentId"":""0198ee42-a48f-7c5f-9f02-a0c1ce9a2492"",""projectId"":""0198ee3c-27ac-7803-a9ea-f3b4ad4ad678""}","https://test12345.live/?num_scrambled_semantic=8&num_scrambled_causal=4&num_scrambled_schematic=4&participantId=46C4DD283B6C4CBF824FA858A3E11BF7&assignmentId=0198ee42-a48f-7c5f-9f02-a0c1ce9a2492&projectId=0198ee3c-27ac-7803-a9ea-f3b4ad4ad678","46C4DD283B6C4CBF824FA858A3E11BF7-2025-08-28-02-22-54","","3318","","[""<span style=\""color: red; font-size: 24px\""> NOW RECORDING</span><p>Please say out loud all the images you saw, in the order of the story they create. Try to recall the sequence of events as they appeared in the story, not necessarily the order they were presented on the screen.</p>""]","","9",""
"","","","","","instructions","23","323927","0.0-9.0","46C4DD283B6C4CBF824FA858A3E11BF7","46C4DD283B6C4CBF824FA858A3E11BF7","0198ee42-a48f-7c5f-9f02-a0c1ce9a2492","0198ee3c-27ac-7803-a9ea-f3b4ad4ad678","{""num_scrambled_semantic"":""8"",""num_scrambled_causal"":""4"",""num_scrambled_schematic"":""4"",""participantId"":""46C4DD283B6C4CBF824FA858A3E11BF7"",""assignmentId"":""0198ee42-a48f-7c5f-9f02-a0c1ce9a2492"",""projectId"":""0198ee3c-27ac-7803-a9ea-f3b4ad4ad678""}","https://test12345.live/?num_scrambled_semantic=8&num_scrambled_causal=4&num_scrambled_schematic=4&participantId=46C4DD283B6C4CBF824FA858A3E11BF7&assignmentId=0198ee42-a48f-7c5f-9f02-a0c1ce9a2492&projectId=0198ee3c-27ac-7803-a9ea-f3b4ad4ad678","46C4DD283B6C4CBF824FA858A3E11BF7-2025-08-28-02-22-54","[{""page_index"":0,""viewing_time"":1761}]","1761","","","","",""
"","","","","","image-button-response","24","329937","0.0-10.0-0.0","46C4DD283B6C4CBF824FA858A3E11BF7","46C4DD283B6C4CBF824FA858A3E11BF7","0198ee42-a48f-7c5f-9f02-a0c1ce9a2492","0198ee3c-27ac-7803-a9ea-f3b4ad4ad678","{""num_scrambled_semantic"":""8"",""num_scrambled_causal"":""4"",""num_scrambled_schematic"":""4"",""participantId"":""46C4DD283B6C4CBF824FA858A3E11BF7"",""assignmentId"":""0198ee42-a48f-7c5f-9f02-a0c1ce9a2492"",""projectId"":""0198ee3c-27ac-7803-a9ea-f3b4ad4ad678""}","https://test12345.live/?num_scrambled_semantic=8&num_scrambled_causal=4&num_scrambled_schematic=4&participantId=46C4DD283B6C4CBF824FA858A3E11BF7&assignmentId=0198ee42-a48f-7c5f-9f02-a0c1ce9a2492&projectId=0198ee3c-27ac-7803-a9ea-f3b4ad4ad678","46C4DD283B6C4CBF824FA858A3E11BF7-2025-08-28-02-22-54","","null","","images/semantic_sequence/redecorating_a_house_semantic/redecorating_a_house_semantic_0.png","null","",""
"","","","","","image-button-response","25","334454","0.0-10.0-1.0-0.0","46C4DD283B6C4CBF824FA858A3E11BF7","46C4DD283B6C4CBF824FA858A3E11BF7","0198ee42-a48f-7c5f-9f02-a0c1ce9a2492","0198ee3c-27ac-7803-a9ea-f3b4ad4ad678","{""num_scrambled_semantic"":""8"",""num_scrambled_causal"":""4"",""num_scrambled_schematic"":""4"",""participantId"":""46C4DD283B6C4CBF824FA858A3E11BF7"",""assignmentId"":""0198ee42-a48f-7c5f-9f02-a0c1ce9a2492"",""projectId"":""0198ee3c-27ac-7803-a9ea-f3b4ad4ad678""}","https://test12345.live/?num_scrambled_semantic=8&num_scrambled_causal=4&num_scrambled_schematic=4&participantId=46C4DD283B6C4CBF824FA858A3E11BF7&assignmentId=0198ee42-a48f-7c5f-9f02-a0c1ce9a2492&projectId=0198ee3c-27ac-7803-a9ea-f3b4ad4ad678","46C4DD283B6C4CBF824FA858A3E11BF7-2025-08-28-02-22-54","","null","","images/semantic_sequence/redecorating_a_house_semantic/redecorating_a_house_semantic_2.png","null","",""
"","","","","","image-button-response","26","338458","0.0-10.0-1.0-1.0","46C4DD283B6C4CBF824FA858A3E11BF7","46C4DD283B6C4CBF824FA858A3E11BF7","0198ee42-a48f-7c5f-9f02-a0c1ce9a2492","0198ee3c-27ac-7803-a9ea-f3b4ad4ad678","{""num_scrambled_semantic"":""8"",""num_scrambled_causal"":""4"",""num_scrambled_schematic"":""4"",""participantId"":""46C4DD283B6C4CBF824FA858A3E11BF7"",""assignmentId"":""0198ee42-a48f-7c5f-9f02-a0c1ce9a2492"",""projectId"":""0198ee3c-27ac-7803-a9ea-f3b4ad4ad678""}","https://test12345.live/?num_scrambled_semantic=8&num_scrambled_causal=4&num_scrambled_schematic=4&participantId=46C4DD283B6C4CBF824FA858A3E11BF7&assignmentId=0198ee42-a48f-7c5f-9f02-a0c1ce9a2492&projectId=0198ee3c-27ac-7803-a9ea-f3b4ad4ad678","46C4DD283B6C4CBF824FA858A3E11BF7-2025-08-28-02-22-54","","null","","images/semantic_sequence/redecorating_a_house_semantic/redecorating_a_house_semantic_2.png","null","",""
"","","","","","image-button-response","27","340275","0.0-10.0-1.0-2.0","46C4DD283B6C4CBF824FA858A3E11BF7","46C4DD283B6C4CBF824FA858A3E11BF7","0198ee42-a48f-7c5f-9f02-a0c1ce9a2492","0198ee3c-27ac-7803-a9ea-f3b4ad4ad678","{""num_scrambled_semantic"":""8"",""num_scrambled_causal"":""4"",""num_scrambled_schematic"":""4"",""participantId"":""46C4DD283B6C4CBF824FA858A3E11BF7"",""assignmentId"":""0198ee42-a48f-7c5f-9f02-a0c1ce9a2492"",""projectId"":""0198ee3c-27ac-7803-a9ea-f3b4ad4ad678""}","https://test12345.live/?num_scrambled_semantic=8&num_scrambled_causal=4&num_scrambled_schematic=4&participantId=46C4DD283B6C4CBF824FA858A3E11BF7&assignmentId=0198ee42-a48f-7c5f-9f02-a0c1ce9a2492&projectId=0198ee3c-27ac-7803-a9ea-f3b4ad4ad678","46C4DD283B6C4CBF824FA858A3E11BF7-2025-08-28-02-22-54","","null","","[]","null","",""
"","","","","","image-button-response","28","344777","0.0-10.0-1.0-0.1","46C4DD283B6C4CBF824FA858A3E11BF7","46C4DD283B6C4CBF824FA858A3E11BF7","0198ee42-a48f-7c5f-9f02-a0c1ce9a2492","0198ee3c-27ac-7803-a9ea-f3b4ad4ad678","{""num_scrambled_semantic"":""8"",""num_scrambled_causal"":""4"",""num_scrambled_schematic"":""4"",""participantId"":""46C4DD283B6C4CBF824FA858A3E11BF7"",""assignmentId"":""0198ee42-a48f-7c5f-9f02-a0c1ce9a2492"",""projectId"":""0198ee3c-27ac-7803-a9ea-f3b4ad4ad678""}","https://test12345.live/?num_scrambled_semantic=8&num_scrambled_causal=4&num_scrambled_schematic=4&participantId=46C4DD283B6C4CBF824FA858A3E11BF7&assignmentId=0198ee42-a48f-7c5f-9f02-a0c1ce9a2492&projectId=0198ee3c-27ac-7803-a9ea-f3b4ad4ad678","46C4DD283B6C4CBF824FA858A3E11BF7-2025-08-28-02-22-54","","null","","images/semantic_sequence/redecorating_a_house_semantic/redecorating_a_house_semantic_4.png","null","",""
"","","","","","image-button-response","29","346548","0.0-10.0-1.0-1.1","46C4DD283B6C4CBF824FA858A3E11BF7","46C4DD283B6C4CBF824FA858A3E11BF7","0198ee42-a48f-7c5f-9f02-a0c1ce9a2492","0198ee3c-27ac-7803-a9ea-f3b4ad4ad678","{""num_scrambled_semantic"":""8"",""num_scrambled_causal"":""4"",""num_scrambled_schematic"":""4"",""participantId"":""46C4DD283B6C4CBF824FA858A3E11BF7"",""assignmentId"":""0198ee42-a48f-7c5f-9f02-a0c1ce9a2492"",""projectId"":""0198ee3c-27ac-7803-a9ea-f3b4ad4ad678""}","https://test12345.live/?num_scrambled_semantic=8&num_scrambled_causal=4&num_scrambled_schematic=4&participantId=46C4DD283B6C4CBF824FA858A3E11BF7&assignmentId=0198ee42-a48f-7c5f-9f02-a0c1ce9a2492&projectId=0198ee3c-27ac-7803-a9ea-f3b4ad4ad678","46C4DD283B6C4CBF824FA858A3E11BF7-2025-08-28-02-22-54","","1770","","images/semantic_sequence/redecorating_a_house_semantic/redecorating_a_house_semantic_4.png","0","",""
"","","","","","image-button-response","30","348352","0.0-10.0-1.0-2.1","46C4DD283B6C4CBF824FA858A3E11BF7","46C4DD283B6C4CBF824FA858A3E11BF7","0198ee42-a48f-7c5f-9f02-a0c1ce9a2492","0198ee3c-27ac-7803-a9ea-f3b4ad4ad678","{""num_scrambled_semantic"":""8"",""num_scrambled_causal"":""4"",""num_scrambled_schematic"":""4"",""participantId"":""46C4DD283B6C4CBF824FA858A3E11BF7"",""assignmentId"":""0198ee42-a48f-7c5f-9f02-a0c1ce9a2492"",""projectId"":""0198ee3c-27ac-7803-a9ea-f3b4ad4ad678""}","https://test12345.live/?num_scrambled_semantic=8&num_scrambled_causal=4&num_scrambled_schematic=4&participantId=46C4DD283B6C4CBF824FA858A3E11BF7&assignmentId=0198ee42-a48f-7c5f-9f02-a0c1ce9a2492&projectId=0198ee3c-27ac-7803-a9ea-f3b4ad4ad678","46C4DD283B6C4CBF824FA858A3E11BF7-2025-08-28-02-22-54","","null","","[]","null","",""
"","","","","","image-button-response","31","352861","0.0-10.0-1.0-0.2","46C4DD283B6C4CBF824FA858A3E11BF7","46C4DD283B6C4CBF824FA858A3E11BF7","0198ee42-a48f-7c5f-9f02-a0c1ce9a2492","0198ee3c-27ac-7803-a9ea-f3b4ad4ad678","{""num_scrambled_semantic"":""8"",""num_scrambled_causal"":""4"",""num_scrambled_schematic"":""4"",""participantId"":""46C4DD283B6C4CBF824FA858A3E11BF7"",""assignmentId"":""0198ee42-a48f-7c5f-9f02-a0c1ce9a2492"",""projectId"":""0198ee3c-27ac-7803-a9ea-f3b4ad4ad678""}","https://test12345.live/?num_scrambled_semantic=8&num_scrambled_causal=4&num_scrambled_schematic=4&participantId=46C4DD283B6C4CBF824FA858A3E11BF7&assignmentId=0198ee42-a48f-7c5f-9f02-a0c1ce9a2492&projectId=0198ee3c-27ac-7803-a9ea-f3b4ad4ad678","46C4DD283B6C4CBF824FA858A3E11BF7-2025-08-28-02-22-54","","null","","images/semantic_sequence/redecorating_a_house_semantic/redecorating_a_house_semantic_1.png","null","",""
"","","","","","image-button-response","32","354624","0.0-10.0-1.0-1.2","46C4DD283B6C4CBF824FA858A3E11BF7","46C4DD283B6C4CBF824FA858A3E11BF7","0198ee42-a48f-7c5f-9f02-a0c1ce9a2492","0198ee3c-27ac-7803-a9ea-f3b4ad4ad678","{""num_scrambled_semantic"":""8"",""num_scrambled_causal"":""4"",""num_scrambled_schematic"":""4"",""participantId"":""46C4DD283B6C4CBF824FA858A3E11BF7"",""assignmentId"":""0198ee42-a48f-7c5f-9f02-a0c1ce9a2492"",""projectId"":""0198ee3c-27ac-7803-a9ea-f3b4ad4ad678""}","https://test12345.live/?num_scrambled_semantic=8&num_scrambled_causal=4&num_scrambled_schematic=4&participantId=46C4DD283B6C4CBF824FA858A3E11BF7&assignmentId=0198ee42-a48f-7c5f-9f02-a0c1ce9a2492&projectId=0198ee3c-27ac-7803-a9ea-f3b4ad4ad678","46C4DD283B6C4CBF824FA858A3E11BF7-2025-08-28-02-22-54","","1762","","images/semantic_sequence/redecorating_a_house_semantic/redecorating_a_house_semantic_1.png","0","",""
"","","","","","image-button-response","33","356436","0.0-10.0-1.0-2.2","46C4DD283B6C4CBF824FA858A3E11BF7","46C4DD283B6C4CBF824FA858A3E11BF7","0198ee42-a48f-7c5f-9f02-a0c1ce9a2492","0198ee3c-27ac-7803-a9ea-f3b4ad4ad678","{""num_scrambled_semantic"":""8"",""num_scrambled_causal"":""4"",""num_scrambled_schematic"":""4"",""participantId"":""46C4DD283B6C4CBF824FA858A3E11BF7"",""assignmentId"":""0198ee42-a48f-7c5f-9f02-a0c1ce9a2492"",""projectId"":""0198ee3c-27ac-7803-a9ea-f3b4ad4ad678""}","https://test12345.live/?num_scrambled_semantic=8&num_scrambled_causal=4&num_scrambled_schematic=4&participantId=46C4DD283B6C4CBF824FA858A3E11BF7&assignmentId=0198ee42-a48f-7c5f-9f02-a0c1ce9a2492&projectId=0198ee3c-27ac-7803-a9ea-f3b4ad4ad678","46C4DD283B6C4CBF824FA858A3E11BF7-2025-08-28-02-22-54","","null","","[]","null","",""
"","","","","","image-button-response","34","360938","0.0-10.0-1.0-0.3","46C4DD283B6C4CBF824FA858A3E11BF7","46C4DD283B6C4CBF824FA858A3E11BF7","0198ee42-a48f-7c5f-9f02-a0c1ce9a2492","0198ee3c-27ac-7803-a9ea-f3b4ad4ad678","{""num_scrambled_semantic"":""8"",""num_scrambled_causal"":""4"",""num_scrambled_schematic"":""4"",""participantId"":""46C4DD283B6C4CBF824FA858A3E11BF7"",""assignmentId"":""0198ee42-a48f-7c5f-9f02-a0c1ce9a2492"",""projectId"":""0198ee3c-27ac-7803-a9ea-f3b4ad4ad678""}","https://test12345.live/?num_scrambled_semantic=8&num_scrambled_causal=4&num_scrambled_schematic=4&participantId=46C4DD283B6C4CBF824FA858A3E11BF7&assignmentId=0198ee42-a48f-7c5f-9f02-a0c1ce9a2492&projectId=0198ee3c-27ac-7803-a9ea-f3b4ad4ad678","46C4DD283B6C4CBF824FA858A3E11BF7-2025-08-28-02-22-54","","null","","images/semantic_sequence/redecorating_a_house_semantic/redecorating_a_house_semantic_7.png","null","",""
"","","","","","image-button-response","35","362727","0.0-10.0-1.0-1.3","46C4DD283B6C4CBF824FA858A3E11BF7","46C4DD283B6C4CBF824FA858A3E11BF7","0198ee42-a48f-7c5f-9f02-a0c1ce9a2492","0198ee3c-27ac-7803-a9ea-f3b4ad4ad678","{""num_scrambled_semantic"":""8"",""num_scrambled_causal"":""4"",""num_scrambled_schematic"":""4"",""participantId"":""46C4DD283B6C4CBF824FA858A3E11BF7"",""assignmentId"":""0198ee42-a48f-7c5f-9f02-a0c1ce9a2492"",""projectId"":""0198ee3c-27ac-7803-a9ea-f3b4ad4ad678""}","https://test12345.live/?num_scrambled_semantic=8&num_scrambled_causal=4&num_scrambled_schematic=4&participantId=46C4DD283B6C4CBF824FA858A3E11BF7&assignmentId=0198ee42-a48f-7c5f-9f02-a0c1ce9a2492&projectId=0198ee3c-27ac-7803-a9ea-f3b4ad4ad678","46C4DD283B6C4CBF824FA858A3E11BF7-2025-08-28-02-22-54","","1788","","images/semantic_sequence/redecorating_a_house_semantic/redecorating_a_house_semantic_7.png","0","",""
"","","","","","image-button-response","36","364535","0.0-10.0-1.0-2.3","46C4DD283B6C4CBF824FA858A3E11BF7","46C4DD283B6C4CBF824FA858A3E11BF7","0198ee42-a48f-7c5f-9f02-a0c1ce9a2492","0198ee3c-27ac-7803-a9ea-f3b4ad4ad678","{""num_scrambled_semantic"":""8"",""num_scrambled_causal"":""4"",""num_scrambled_schematic"":""4"",""participantId"":""46C4DD283B6C4CBF824FA858A3E11BF7"",""assignmentId"":""0198ee42-a48f-7c5f-9f02-a0c1ce9a2492"",""projectId"":""0198ee3c-27ac-7803-a9ea-f3b4ad4ad678""}","https://test12345.live/?num_scrambled_semantic=8&num_scrambled_causal=4&num_scrambled_schematic=4&participantId=46C4DD283B6C4CBF824FA858A3E11BF7&assignmentId=0198ee42-a48f-7c5f-9f02-a0c1ce9a2492&projectId=0198ee3c-27ac-7803-a9ea-f3b4ad4ad678","46C4DD283B6C4CBF824FA858A3E11BF7-2025-08-28-02-22-54","","null","","[]","null","",""
"","","","","","image-button-response","37","369052","0.0-10.0-1.0-0.4","46C4DD283B6C4CBF824FA858A3E11BF7","46C4DD283B6C4CBF824FA858A3E11BF7","0198ee42-a48f-7c5f-9f02-a0c1ce9a2492","0198ee3c-27ac-7803-a9ea-f3b4ad4ad678","{""num_scrambled_semantic"":""8"",""num_scrambled_causal"":""4"",""num_scrambled_schematic"":""4"",""participantId"":""46C4DD283B6C4CBF824FA858A3E11BF7"",""assignmentId"":""0198ee42-a48f-7c5f-9f02-a0c1ce9a2492"",""projectId"":""0198ee3c-27ac-7803-a9ea-f3b4ad4ad678""}","https://test12345.live/?num_scrambled_semantic=8&num_scrambled_causal=4&num_scrambled_schematic=4&participantId=46C4DD283B6C4CBF824FA858A3E11BF7&assignmentId=0198ee42-a48f-7c5f-9f02-a0c1ce9a2492&projectId=0198ee3c-27ac-7803-a9ea-f3b4ad4ad678","46C4DD283B6C4CBF824FA858A3E11BF7-2025-08-28-02-22-54","","null","","images/semantic_sequence/redecorating_a_house_semantic/redecorating_a_house_semantic_3.png","null","",""
"","","","","","image-button-response","38","373067","0.0-10.0-1.0-1.4","46C4DD283B6C4CBF824FA858A3E11BF7","46C4DD283B6C4CBF824FA858A3E11BF7","0198ee42-a48f-7c5f-9f02-a0c1ce9a2492","0198ee3c-27ac-7803-a9ea-f3b4ad4ad678","{""num_scrambled_semantic"":""8"",""num_scrambled_causal"":""4"",""num_scrambled_schematic"":""4"",""participantId"":""46C4DD283B6C4CBF824FA858A3E11BF7"",""assignmentId"":""0198ee42-a48f-7c5f-9f02-a0c1ce9a2492"",""projectId"":""0198ee3c-27ac-7803-a9ea-f3b4ad4ad678""}","https://test12345.live/?num_scrambled_semantic=8&num_scrambled_causal=4&num_scrambled_schematic=4&participantId=46C4DD283B6C4CBF824FA858A3E11BF7&assignmentId=0198ee42-a48f-7c5f-9f02-a0c1ce9a2492&projectId=0198ee3c-27ac-7803-a9ea-f3b4ad4ad678","46C4DD283B6C4CBF824FA858A3E11BF7-2025-08-28-02-22-54","","null","","images/semantic_sequence/redecorating_a_house_semantic/redecorating_a_house_semantic_3.png","null","",""
"","","","","","image-button-response","39","374875","0.0-10.0-1.0-2.4","46C4DD283B6C4CBF824FA858A3E11BF7","46C4DD283B6C4CBF824FA858A3E11BF7","0198ee42-a48f-7c5f-9f02-a0c1ce9a2492","0198ee3c-27ac-7803-a9ea-f3b4ad4ad678","{""num_scrambled_semantic"":""8"",""num_scrambled_causal"":""4"",""num_scrambled_schematic"":""4"",""participantId"":""46C4DD283B6C4CBF824FA858A3E11BF7"",""assignmentId"":""0198ee42-a48f-7c5f-9f02-a0c1ce9a2492"",""projectId"":""0198ee3c-27ac-7803-a9ea-f3b4ad4ad678""}","https://test12345.live/?num_scrambled_semantic=8&num_scrambled_causal=4&num_scrambled_schematic=4&participantId=46C4DD283B6C4CBF824FA858A3E11BF7&assignmentId=0198ee42-a48f-7c5f-9f02-a0c1ce9a2492&projectId=0198ee3c-27ac-7803-a9ea-f3b4ad4ad678","46C4DD283B6C4CBF824FA858A3E11BF7-2025-08-28-02-22-54","","null","","[]","null","",""
"","","","","","image-button-response","40","379385","0.0-10.0-1.0-0.5","46C4DD283B6C4CBF824FA858A3E11BF7","46C4DD283B6C4CBF824FA858A3E11BF7","0198ee42-a48f-7c5f-9f02-a0c1ce9a2492","0198ee3c-27ac-7803-a9ea-f3b4ad4ad678","{""num_scrambled_semantic"":""8"",""num_scrambled_causal"":""4"",""num_scrambled_schematic"":""4"",""participantId"":""46C4DD283B6C4CBF824FA858A3E11BF7"",""assignmentId"":""0198ee42-a48f-7c5f-9f02-a0c1ce9a2492"",""projectId"":""0198ee3c-27ac-7803-a9ea-f3b4ad4ad678""}","https://test12345.live/?num_scrambled_semantic=8&num_scrambled_causal=4&num_scrambled_schematic=4&participantId=46C4DD283B6C4CBF824FA858A3E11BF7&assignmentId=0198ee42-a48f-7c5f-9f02-a0c1ce9a2492&projectId=0198ee3c-27ac-7803-a9ea-f3b4ad4ad678","46C4DD283B6C4CBF824FA858A3E11BF7-2025-08-28-02-22-54","","null","","images/semantic_sequence/redecorating_a_house_semantic/redecorating_a_house_semantic_5.png","null","",""
"","","","","","image-button-response","41","380749","0.0-10.0-1.0-1.5","46C4DD283B6C4CBF824FA858A3E11BF7","46C4DD283B6C4CBF824FA858A3E11BF7","0198ee42-a48f-7c5f-9f02-a0c1ce9a2492","0198ee3c-27ac-7803-a9ea-f3b4ad4ad678","{""num_scrambled_semantic"":""8"",""num_scrambled_causal"":""4"",""num_scrambled_schematic"":""4"",""participantId"":""46C4DD283B6C4CBF824FA858A3E11BF7"",""assignmentId"":""0198ee42-a48f-7c5f-9f02-a0c1ce9a2492"",""projectId"":""0198ee3c-27ac-7803-a9ea-f3b4ad4ad678""}","https://test12345.live/?num_scrambled_semantic=8&num_scrambled_causal=4&num_scrambled_schematic=4&participantId=46C4DD283B6C4CBF824FA858A3E11BF7&assignmentId=0198ee42-a48f-7c5f-9f02-a0c1ce9a2492&projectId=0198ee3c-27ac-7803-a9ea-f3b4ad4ad678","46C4DD283B6C4CBF824FA858A3E11BF7-2025-08-28-02-22-54","","1362","","images/semantic_sequence/redecorating_a_house_semantic/redecorating_a_house_semantic_5.png","0","",""
"","","","","","image-button-response","42","382554","0.0-10.0-1.0-2.5","46C4DD283B6C4CBF824FA858A3E11BF7","46C4DD283B6C4CBF824FA858A3E11BF7","0198ee42-a48f-7c5f-9f02-a0c1ce9a2492","0198ee3c-27ac-7803-a9ea-f3b4ad4ad678","{""num_scrambled_semantic"":""8"",""num_scrambled_causal"":""4"",""num_scrambled_schematic"":""4"",""participantId"":""46C4DD283B6C4CBF824FA858A3E11BF7"",""assignmentId"":""0198ee42-a48f-7c5f-9f02-a0c1ce9a2492"",""projectId"":""0198ee3c-27ac-7803-a9ea-f3b4ad4ad678""}","https://test12345.live/?num_scrambled_semantic=8&num_scrambled_causal=4&num_scrambled_schematic=4&participantId=46C4DD283B6C4CBF824FA858A3E11BF7&assignmentId=0198ee42-a48f-7c5f-9f02-a0c1ce9a2492&projectId=0198ee3c-27ac-7803-a9ea-f3b4ad4ad678","46C4DD283B6C4CBF824FA858A3E11BF7-2025-08-28-02-22-54","","null","","[]","null","",""
"","","","","","image-button-response","43","387066","0.0-10.0-1.0-0.6","46C4DD283B6C4CBF824FA858A3E11BF7","46C4DD283B6C4CBF824FA858A3E11BF7","0198ee42-a48f-7c5f-9f02-a0c1ce9a2492","0198ee3c-27ac-7803-a9ea-f3b4ad4ad678","{""num_scrambled_semantic"":""8"",""num_scrambled_causal"":""4"",""num_scrambled_schematic"":""4"",""participantId"":""46C4DD283B6C4CBF824FA858A3E11BF7"",""assignmentId"":""0198ee42-a48f-7c5f-9f02-a0c1ce9a2492"",""projectId"":""0198ee3c-27ac-7803-a9ea-f3b4ad4ad678""}","https://test12345.live/?num_scrambled_semantic=8&num_scrambled_causal=4&num_scrambled_schematic=4&participantId=46C4DD283B6C4CBF824FA858A3E11BF7&assignmentId=0198ee42-a48f-7c5f-9f02-a0c1ce9a2492&projectId=0198ee3c-27ac-7803-a9ea-f3b4ad4ad678","46C4DD283B6C4CBF824FA858A3E11BF7-2025-08-28-02-22-54","","null","","images/semantic_sequence/redecorating_a_house_semantic/redecorating_a_house_semantic_9.png","null","",""
"","","","","","image-button-response","44","391072","0.0-10.0-1.0-1.6","46C4DD283B6C4CBF824FA858A3E11BF7","46C4DD283B6C4CBF824FA858A3E11BF7","0198ee42-a48f-7c5f-9f02-a0c1ce9a2492","0198ee3c-27ac-7803-a9ea-f3b4ad4ad678","{""num_scrambled_semantic"":""8"",""num_scrambled_causal"":""4"",""num_scrambled_schematic"":""4"",""participantId"":""46C4DD283B6C4CBF824FA858A3E11BF7"",""assignmentId"":""0198ee42-a48f-7c5f-9f02-a0c1ce9a2492"",""projectId"":""0198ee3c-27ac-7803-a9ea-f3b4ad4ad678""}","https://test12345.live/?num_scrambled_semantic=8&num_scrambled_causal=4&num_scrambled_schematic=4&participantId=46C4DD283B6C4CBF824FA858A3E11BF7&assignmentId=0198ee42-a48f-7c5f-9f02-a0c1ce9a2492&projectId=0198ee3c-27ac-7803-a9ea-f3b4ad4ad678","46C4DD283B6C4CBF824FA858A3E11BF7-2025-08-28-02-22-54","","null","","images/semantic_sequence/redecorating_a_house_semantic/redecorating_a_house_semantic_9.png","null","",""
"","","","","","image-button-response","45","392879","0.0-10.0-1.0-2.6","46C4DD283B6C4CBF824FA858A3E11BF7","46C4DD283B6C4CBF824FA858A3E11BF7","0198ee42-a48f-7c5f-9f02-a0c1ce9a2492","0198ee3c-27ac-7803-a9ea-f3b4ad4ad678","{""num_scrambled_semantic"":""8"",""num_scrambled_causal"":""4"",""num_scrambled_schematic"":""4"",""participantId"":""46C4DD283B6C4CBF824FA858A3E11BF7"",""assignmentId"":""0198ee42-a48f-7c5f-9f02-a0c1ce9a2492"",""projectId"":""0198ee3c-27ac-7803-a9ea-f3b4ad4ad678""}","https://test12345.live/?num_scrambled_semantic=8&num_scrambled_causal=4&num_scrambled_schematic=4&participantId=46C4DD283B6C4CBF824FA858A3E11BF7&assignmentId=0198ee42-a48f-7c5f-9f02-a0c1ce9a2492&projectId=0198ee3c-27ac-7803-a9ea-f3b4ad4ad678","46C4DD283B6C4CBF824FA858A3E11BF7-2025-08-28-02-22-54","","null","","[]","null","",""
"","","","","","image-button-response","46","397384","0.0-10.0-1.0-0.7","46C4DD283B6C4CBF824FA858A3E11BF7","46C4DD283B6C4CBF824FA858A3E11BF7","0198ee42-a48f-7c5f-9f02-a0c1ce9a2492","0198ee3c-27ac-7803-a9ea-f3b4ad4ad678","{""num_scrambled_semantic"":""8"",""num_scrambled_causal"":""4"",""num_scrambled_schematic"":""4"",""participantId"":""46C4DD283B6C4CBF824FA858A3E11BF7"",""assignmentId"":""0198ee42-a48f-7c5f-9f02-a0c1ce9a2492"",""projectId"":""0198ee3c-27ac-7803-a9ea-f3b4ad4ad678""}","https://test12345.live/?num_scrambled_semantic=8&num_scrambled_causal=4&num_scrambled_schematic=4&participantId=46C4DD283B6C4CBF824FA858A3E11BF7&assignmentId=0198ee42-a48f-7c5f-9f02-a0c1ce9a2492&projectId=0198ee3c-27ac-7803-a9ea-f3b4ad4ad678","46C4DD283B6C4CBF824FA858A3E11BF7-2025-08-28-02-22-54","","null","","images/semantic_sequence/redecorating_a_house_semantic/redecorating_a_house_semantic_6.png","null","",""
"","","","","","image-button-response","47","398959","0.0-10.0-1.0-1.7","46C4DD283B6C4CBF824FA858A3E11BF7","46C4DD283B6C4CBF824FA858A3E11BF7","0198ee42-a48f-7c5f-9f02-a0c1ce9a2492","0198ee3c-27ac-7803-a9ea-f3b4ad4ad678","{""num_scrambled_semantic"":""8"",""num_scrambled_causal"":""4"",""num_scrambled_schematic"":""4"",""participantId"":""46C4DD283B6C4CBF824FA858A3E11BF7"",""assignmentId"":""0198ee42-a48f-7c5f-9f02-a0c1ce9a2492"",""projectId"":""0198ee3c-27ac-7803-a9ea-f3b4ad4ad678""}","https://test12345.live/?num_scrambled_semantic=8&num_scrambled_causal=4&num_scrambled_schematic=4&participantId=46C4DD283B6C4CBF824FA858A3E11BF7&assignmentId=0198ee42-a48f-7c5f-9f02-a0c1ce9a2492&projectId=0198ee3c-27ac-7803-a9ea-f3b4ad4ad678","46C4DD283B6C4CBF824FA858A3E11BF7-2025-08-28-02-22-54","","1572","","images/semantic_sequence/redecorating_a_house_semantic/redecorating_a_house_semantic_6.png","0","",""
"","","","","","image-button-response","48","400771","0.0-10.0-1.0-2.7","46C4DD283B6C4CBF824FA858A3E11BF7","46C4DD283B6C4CBF824FA858A3E11BF7","0198ee42-a48f-7c5f-9f02-a0c1ce9a2492","0198ee3c-27ac-7803-a9ea-f3b4ad4ad678","{""num_scrambled_semantic"":""8"",""num_scrambled_causal"":""4"",""num_scrambled_schematic"":""4"",""participantId"":""46C4DD283B6C4CBF824FA858A3E11BF7"",""assignmentId"":""0198ee42-a48f-7c5f-9f02-a0c1ce9a2492"",""projectId"":""0198ee3c-27ac-7803-a9ea-f3b4ad4ad678""}","https://test12345.live/?num_scrambled_semantic=8&num_scrambled_causal=4&num_scrambled_schematic=4&participantId=46C4DD283B6C4CBF824FA858A3E11BF7&assignmentId=0198ee42-a48f-7c5f-9f02-a0c1ce9a2492&projectId=0198ee3c-27ac-7803-a9ea-f3b4ad4ad678","46C4DD283B6C4CBF824FA858A3E11BF7-2025-08-28-02-22-54","","null","","[]","null","",""
"","","","","","image-button-response","49","405273","0.0-10.0-1.0-0.8","46C4DD283B6C4CBF824FA858A3E11BF7","46C4DD283B6C4CBF824FA858A3E11BF7","0198ee42-a48f-7c5f-9f02-a0c1ce9a2492","0198ee3c-27ac-7803-a9ea-f3b4ad4ad678","{""num_scrambled_semantic"":""8"",""num_scrambled_causal"":""4"",""num_scrambled_schematic"":""4"",""participantId"":""46C4DD283B6C4CBF824FA858A3E11BF7"",""assignmentId"":""0198ee42-a48f-7c5f-9f02-a0c1ce9a2492"",""projectId"":""0198ee3c-27ac-7803-a9ea-f3b4ad4ad678""}","https://test12345.live/?num_scrambled_semantic=8&num_scrambled_causal=4&num_scrambled_schematic=4&participantId=46C4DD283B6C4CBF824FA858A3E11BF7&assignmentId=0198ee42-a48f-7c5f-9f02-a0c1ce9a2492&projectId=0198ee3c-27ac-7803-a9ea-f3b4ad4ad678","46C4DD283B6C4CBF824FA858A3E11BF7-2025-08-28-02-22-54","","null","","images/semantic_sequence/redecorating_a_house_semantic/redecorating_a_house_semantic_ten.png","null","",""
"","","","","","image-button-response","50","406679","0.0-10.0-1.0-1.8","46C4DD283B6C4CBF824FA858A3E11BF7","46C4DD283B6C4CBF824FA858A3E11BF7","0198ee42-a48f-7c5f-9f02-a0c1ce9a2492","0198ee3c-27ac-7803-a9ea-f3b4ad4ad678","{""num_scrambled_semantic"":""8"",""num_scrambled_causal"":""4"",""num_scrambled_schematic"":""4"",""participantId"":""46C4DD283B6C4CBF824FA858A3E11BF7"",""assignmentId"":""0198ee42-a48f-7c5f-9f02-a0c1ce9a2492"",""projectId"":""0198ee3c-27ac-7803-a9ea-f3b4ad4ad678""}","https://test12345.live/?num_scrambled_semantic=8&num_scrambled_causal=4&num_scrambled_schematic=4&participantId=46C4DD283B6C4CBF824FA858A3E11BF7&assignmentId=0198ee42-a48f-7c5f-9f02-a0c1ce9a2492&projectId=0198ee3c-27ac-7803-a9ea-f3b4ad4ad678","46C4DD283B6C4CBF824FA858A3E11BF7-2025-08-28-02-22-54","","1404","","images/semantic_sequence/redecorating_a_house_semantic/redecorating_a_house_semantic_ten.png","0","",""
"","","","","","image-button-response","51","408488","0.0-10.0-1.0-2.8","46C4DD283B6C4CBF824FA858A3E11BF7","46C4DD283B6C4CBF824FA858A3E11BF7","0198ee42-a48f-7c5f-9f02-a0c1ce9a2492","0198ee3c-27ac-7803-a9ea-f3b4ad4ad678","{""num_scrambled_semantic"":""8"",""num_scrambled_causal"":""4"",""num_scrambled_schematic"":""4"",""participantId"":""46C4DD283B6C4CBF824FA858A3E11BF7"",""assignmentId"":""0198ee42-a48f-7c5f-9f02-a0c1ce9a2492"",""projectId"":""0198ee3c-27ac-7803-a9ea-f3b4ad4ad678""}","https://test12345.live/?num_scrambled_semantic=8&num_scrambled_causal=4&num_scrambled_schematic=4&participantId=46C4DD283B6C4CBF824FA858A3E11BF7&assignmentId=0198ee42-a48f-7c5f-9f02-a0c1ce9a2492&projectId=0198ee3c-27ac-7803-a9ea-f3b4ad4ad678","46C4DD283B6C4CBF824FA858A3E11BF7-2025-08-28-02-22-54","","null","","[]","null","",""
"","","","","","image-button-response","52","413004","0.0-10.0-1.0-0.9","46C4DD283B6C4CBF824FA858A3E11BF7","46C4DD283B6C4CBF824FA858A3E11BF7","0198ee42-a48f-7c5f-9f02-a0c1ce9a2492","0198ee3c-27ac-7803-a9ea-f3b4ad4ad678","{""num_scrambled_semantic"":""8"",""num_scrambled_causal"":""4"",""num_scrambled_schematic"":""4"",""participantId"":""46C4DD283B6C4CBF824FA858A3E11BF7"",""assignmentId"":""0198ee42-a48f-7c5f-9f02-a0c1ce9a2492"",""projectId"":""0198ee3c-27ac-7803-a9ea-f3b4ad4ad678""}","https://test12345.live/?num_scrambled_semantic=8&num_scrambled_causal=4&num_scrambled_schematic=4&participantId=46C4DD283B6C4CBF824FA858A3E11BF7&assignmentId=0198ee42-a48f-7c5f-9f02-a0c1ce9a2492&projectId=0198ee3c-27ac-7803-a9ea-f3b4ad4ad678","46C4DD283B6C4CBF824FA858A3E11BF7-2025-08-28-02-22-54","","null","","images/semantic_sequence/redecorating_a_house_semantic/redecorating_a_house_semantic_8.png","null","",""
"","","","","","image-button-response","53","416491","0.0-10.0-1.0-1.9","46C4DD283B6C4CBF824FA858A3E11BF7","46C4DD283B6C4CBF824FA858A3E11BF7","0198ee42-a48f-7c5f-9f02-a0c1ce9a2492","0198ee3c-27ac-7803-a9ea-f3b4ad4ad678","{""num_scrambled_semantic"":""8"",""num_scrambled_causal"":""4"",""num_scrambled_schematic"":""4"",""participantId"":""46C4DD283B6C4CBF824FA858A3E11BF7"",""assignmentId"":""0198ee42-a48f-7c5f-9f02-a0c1ce9a2492"",""projectId"":""0198ee3c-27ac-7803-a9ea-f3b4ad4ad678""}","https://test12345.live/?num_scrambled_semantic=8&num_scrambled_causal=4&num_scrambled_schematic=4&participantId=46C4DD283B6C4CBF824FA858A3E11BF7&assignmentId=0198ee42-a48f-7c5f-9f02-a0c1ce9a2492&projectId=0198ee3c-27ac-7803-a9ea-f3b4ad4ad678","46C4DD283B6C4CBF824FA858A3E11BF7-2025-08-28-02-22-54","","3486","","images/semantic_sequence/redecorating_a_house_semantic/redecorating_a_house_semantic_8.png","0","",""
"","","","","","image-button-response","54","418312","0.0-10.0-1.0-2.9","46C4DD283B6C4CBF824FA858A3E11BF7","46C4DD283B6C4CBF824FA858A3E11BF7","0198ee42-a48f-7c5f-9f02-a0c1ce9a2492","0198ee3c-27ac-7803-a9ea-f3b4ad4ad678","{""num_scrambled_semantic"":""8"",""num_scrambled_causal"":""4"",""num_scrambled_schematic"":""4"",""participantId"":""46C4DD283B6C4CBF824FA858A3E11BF7"",""assignmentId"":""0198ee42-a48f-7c5f-9f02-a0c1ce9a2492"",""projectId"":""0198ee3c-27ac-7803-a9ea-f3b4ad4ad678""}","https://test12345.live/?num_scrambled_semantic=8&num_scrambled_causal=4&num_scrambled_schematic=4&participantId=46C4DD283B6C4CBF824FA858A3E11BF7&assignmentId=0198ee42-a48f-7c5f-9f02-a0c1ce9a2492&projectId=0198ee3c-27ac-7803-a9ea-f3b4ad4ad678","46C4DD283B6C4CBF824FA858A3E11BF7-2025-08-28-02-22-54","","null","","[]","null","",""
"","","","","","html-audio-response","55","486133","0.0-11.0","46C4DD283B6C4CBF824FA858A3E11BF7","46C4DD283B6C4CBF824FA858A3E11BF7","0198ee42-a48f-7c5f-9f02-a0c1ce9a2492","0198ee3c-27ac-7803-a9ea-f3b4ad4ad678","{""num_scrambled_semantic"":""8"",""num_scrambled_causal"":""4"",""num_scrambled_schematic"":""4"",""participantId"":""46C4DD283B6C4CBF824FA858A3E11BF7"",""assignmentId"":""0198ee42-a48f-7c5f-9f02-a0c1ce9a2492"",""projectId"":""0198ee3c-27ac-7803-a9ea-f3b4ad4ad678""}","https://test12345.live/?num_scrambled_semantic=8&num_scrambled_causal=4&num_scrambled_schematic=4&participantId=46C4DD283B6C4CBF824FA858A3E11BF7&assignmentId=0198ee42-a48f-7c5f-9f02-a0c1ce9a2492&projectId=0198ee3c-27ac-7803-a9ea-f3b4ad4ad678","46C4DD283B6C4CBF824FA858A3E11BF7-2025-08-28-02-22-54","","14337","","[""<span style=\""color: red; font-size: 24px\""> NOW RECORDING</span><p>Please say out loud all the images you saw, in the order of the story they create. Try to recall the sequence of events as they appeared in the story, not necessarily the order they were presented on the screen.</p>""]","","13","redecorating_a_house_semantic"
"","","","","","image-button-response","56","492148","0.0-12.0-0.0","46C4DD283B6C4CBF824FA858A3E11BF7","46C4DD283B6C4CBF824FA858A3E11BF7","0198ee42-a48f-7c5f-9f02-a0c1ce9a2492","0198ee3c-27ac-7803-a9ea-f3b4ad4ad678","{""num_scrambled_semantic"":""8"",""num_scrambled_causal"":""4"",""num_scrambled_schematic"":""4"",""participantId"":""46C4DD283B6C4CBF824FA858A3E11BF7"",""assignmentId"":""0198ee42-a48f-7c5f-9f02-a0c1ce9a2492"",""projectId"":""0198ee3c-27ac-7803-a9ea-f3b4ad4ad678""}","https://test12345.live/?num_scrambled_semantic=8&num_scrambled_causal=4&num_scrambled_schematic=4&participantId=46C4DD283B6C4CBF824FA858A3E11BF7&assignmentId=0198ee42-a48f-7c5f-9f02-a0c1ce9a2492&projectId=0198ee3c-27ac-7803-a9ea-f3b4ad4ad678","46C4DD283B6C4CBF824FA858A3E11BF7-2025-08-28-02-22-54","","null","","images/causal_sequence/museum_causal/museum_causal_0.png","null","",""
"","","","","","image-button-response","57","496659","0.0-12.0-1.0-0.0","46C4DD283B6C4CBF824FA858A3E11BF7","46C4DD283B6C4CBF824FA858A3E11BF7","0198ee42-a48f-7c5f-9f02-a0c1ce9a2492","0198ee3c-27ac-7803-a9ea-f3b4ad4ad678","{""num_scrambled_semantic"":""8"",""num_scrambled_causal"":""4"",""num_scrambled_schematic"":""4"",""participantId"":""46C4DD283B6C4CBF824FA858A3E11BF7"",""assignmentId"":""0198ee42-a48f-7c5f-9f02-a0c1ce9a2492"",""projectId"":""0198ee3c-27ac-7803-a9ea-f3b4ad4ad678""}","https://test12345.live/?num_scrambled_semantic=8&num_scrambled_causal=4&num_scrambled_schematic=4&participantId=46C4DD283B6C4CBF824FA858A3E11BF7&assignmentId=0198ee42-a48f-7c5f-9f02-a0c1ce9a2492&projectId=0198ee3c-27ac-7803-a9ea-f3b4ad4ad678","46C4DD283B6C4CBF824FA858A3E11BF7-2025-08-28-02-22-54","","null","","images/causal_sequence/museum_causal/museum_causal_1.png","null","",""
"","","","","","image-button-response","58","499529","0.0-12.0-1.0-1.0","46C4DD283B6C4CBF824FA858A3E11BF7","46C4DD283B6C4CBF824FA858A3E11BF7","0198ee42-a48f-7c5f-9f02-a0c1ce9a2492","0198ee3c-27ac-7803-a9ea-f3b4ad4ad678","{""num_scrambled_semantic"":""8"",""num_scrambled_causal"":""4"",""num_scrambled_schematic"":""4"",""participantId"":""46C4DD283B6C4CBF824FA858A3E11BF7"",""assignmentId"":""0198ee42-a48f-7c5f-9f02-a0c1ce9a2492"",""projectId"":""0198ee3c-27ac-7803-a9ea-f3b4ad4ad678""}","https://test12345.live/?num_scrambled_semantic=8&num_scrambled_causal=4&num_scrambled_schematic=4&participantId=46C4DD283B6C4CBF824FA858A3E11BF7&assignmentId=0198ee42-a48f-7c5f-9f02-a0c1ce9a2492&projectId=0198ee3c-27ac-7803-a9ea-f3b4ad4ad678","46C4DD283B6C4CBF824FA858A3E11BF7-2025-08-28-02-22-54","","2868","","images/causal_sequence/museum_causal/museum_causal_1.png","0","",""
"","","","","","image-button-response","59","501340","0.0-12.0-1.0-2.0","46C4DD283B6C4CBF824FA858A3E11BF7","46C4DD283B6C4CBF824FA858A3E11BF7","0198ee42-a48f-7c5f-9f02-a0c1ce9a2492","0198ee3c-27ac-7803-a9ea-f3b4ad4ad678","{""num_scrambled_semantic"":""8"",""num_scrambled_causal"":""4"",""num_scrambled_schematic"":""4"",""participantId"":""46C4DD283B6C4CBF824FA858A3E11BF7"",""assignmentId"":""0198ee42-a48f-7c5f-9f02-a0c1ce9a2492"",""projectId"":""0198ee3c-27ac-7803-a9ea-f3b4ad4ad678""}","https://test12345.live/?num_scrambled_semantic=8&num_scrambled_causal=4&num_scrambled_schematic=4&participantId=46C4DD283B6C4CBF824FA858A3E11BF7&assignmentId=0198ee42-a48f-7c5f-9f02-a0c1ce9a2492&projectId=0198ee3c-27ac-7803-a9ea-f3b4ad4ad678","46C4DD283B6C4CBF824FA858A3E11BF7-2025-08-28-02-22-54","","null","","[]","null","",""
"","","","","","image-button-response","60","505844","0.0-12.0-1.0-0.1","46C4DD283B6C4CBF824FA858A3E11BF7","46C4DD283B6C4CBF824FA858A3E11BF7","0198ee42-a48f-7c5f-9f02-a0c1ce9a2492","0198ee3c-27ac-7803-a9ea-f3b4ad4ad678","{""num_scrambled_semantic"":""8"",""num_scrambled_causal"":""4"",""num_scrambled_schematic"":""4"",""participantId"":""46C4DD283B6C4CBF824FA858A3E11BF7"",""assignmentId"":""0198ee42-a48f-7c5f-9f02-a0c1ce9a2492"",""projectId"":""0198ee3c-27ac-7803-a9ea-f3b4ad4ad678""}","https://test12345.live/?num_scrambled_semantic=8&num_scrambled_causal=4&num_scrambled_schematic=4&participantId=46C4DD283B6C4CBF824FA858A3E11BF7&assignmentId=0198ee42-a48f-7c5f-9f02-a0c1ce9a2492&projectId=0198ee3c-27ac-7803-a9ea-f3b4ad4ad678","46C4DD283B6C4CBF824FA858A3E11BF7-2025-08-28-02-22-54","","null","","images/causal_sequence/museum_causal/museum_causal_2.png","null","",""
"","","","","","image-button-response","61","508438","0.0-12.0-1.0-1.1","46C4DD283B6C4CBF824FA858A3E11BF7","46C4DD283B6C4CBF824FA858A3E11BF7","0198ee42-a48f-7c5f-9f02-a0c1ce9a2492","0198ee3c-27ac-7803-a9ea-f3b4ad4ad678","{""num_scrambled_semantic"":""8"",""num_scrambled_causal"":""4"",""num_scrambled_schematic"":""4"",""participantId"":""46C4DD283B6C4CBF824FA858A3E11BF7"",""assignmentId"":""0198ee42-a48f-7c5f-9f02-a0c1ce9a2492"",""projectId"":""0198ee3c-27ac-7803-a9ea-f3b4ad4ad678""}","https://test12345.live/?num_scrambled_semantic=8&num_scrambled_causal=4&num_scrambled_schematic=4&participantId=46C4DD283B6C4CBF824FA858A3E11BF7&assignmentId=0198ee42-a48f-7c5f-9f02-a0c1ce9a2492&projectId=0198ee3c-27ac-7803-a9ea-f3b4ad4ad678","46C4DD283B6C4CBF824FA858A3E11BF7-2025-08-28-02-22-54","","2592","","images/causal_sequence/museum_causal/museum_causal_2.png","1","",""
"","","","","","image-button-response","62","510248","0.0-12.0-1.0-2.1","46C4DD283B6C4CBF824FA858A3E11BF7","46C4DD283B6C4CBF824FA858A3E11BF7","0198ee42-a48f-7c5f-9f02-a0c1ce9a2492","0198ee3c-27ac-7803-a9ea-f3b4ad4ad678","{""num_scrambled_semantic"":""8"",""num_scrambled_causal"":""4"",""num_scrambled_schematic"":""4"",""participantId"":""46C4DD283B6C4CBF824FA858A3E11BF7"",""assignmentId"":""0198ee42-a48f-7c5f-9f02-a0c1ce9a2492"",""projectId"":""0198ee3c-27ac-7803-a9ea-f3b4ad4ad678""}","https://test12345.live/?num_scrambled_semantic=8&num_scrambled_causal=4&num_scrambled_schematic=4&participantId=46C4DD283B6C4CBF824FA858A3E11BF7&assignmentId=0198ee42-a48f-7c5f-9f02-a0c1ce9a2492&projectId=0198ee3c-27ac-7803-a9ea-f3b4ad4ad678","46C4DD283B6C4CBF824FA858A3E11BF7-2025-08-28-02-22-54","","null","","[]","null","",""
"","","","","","image-button-response","63","514758","0.0-12.0-1.0-0.2","46C4DD283B6C4CBF824FA858A3E11BF7","46C4DD283B6C4CBF824FA858A3E11BF7","0198ee42-a48f-7c5f-9f02-a0c1ce9a2492","0198ee3c-27ac-7803-a9ea-f3b4ad4ad678","{""num_scrambled_semantic"":""8"",""num_scrambled_causal"":""4"",""num_scrambled_schematic"":""4"",""participantId"":""46C4DD283B6C4CBF824FA858A3E11BF7"",""assignmentId"":""0198ee42-a48f-7c5f-9f02-a0c1ce9a2492"",""projectId"":""0198ee3c-27ac-7803-a9ea-f3b4ad4ad678""}","https://test12345.live/?num_scrambled_semantic=8&num_scrambled_causal=4&num_scrambled_schematic=4&participantId=46C4DD283B6C4CBF824FA858A3E11BF7&assignmentId=0198ee42-a48f-7c5f-9f02-a0c1ce9a2492&projectId=0198ee3c-27ac-7803-a9ea-f3b4ad4ad678","46C4DD283B6C4CBF824FA858A3E11BF7-2025-08-28-02-22-54","","null","","images/causal_sequence/museum_causal/museum_causal_3.png","null","",""
"","","","","","image-button-response","64","516528","0.0-12.0-1.0-1.2","46C4DD283B6C4CBF824FA858A3E11BF7","46C4DD283B6C4CBF824FA858A3E11BF7","0198ee42-a48f-7c5f-9f02-a0c1ce9a2492","0198ee3c-27ac-7803-a9ea-f3b4ad4ad678","{""num_scrambled_semantic"":""8"",""num_scrambled_causal"":""4"",""num_scrambled_schematic"":""4"",""participantId"":""46C4DD283B6C4CBF824FA858A3E11BF7"",""assignmentId"":""0198ee42-a48f-7c5f-9f02-a0c1ce9a2492"",""projectId"":""0198ee3c-27ac-7803-a9ea-f3b4ad4ad678""}","https://test12345.live/?num_scrambled_semantic=8&num_scrambled_causal=4&num_scrambled_schematic=4&participantId=46C4DD283B6C4CBF824FA858A3E11BF7&assignmentId=0198ee42-a48f-7c5f-9f02-a0c1ce9a2492&projectId=0198ee3c-27ac-7803-a9ea-f3b4ad4ad678","46C4DD283B6C4CBF824FA858A3E11BF7-2025-08-28-02-22-54","","1769","","images/causal_sequence/museum_causal/museum_causal_3.png","1","",""
"","","","","","image-button-response","65","518341","0.0-12.0-1.0-2.2","46C4DD283B6C4CBF824FA858A3E11BF7","46C4DD283B6C4CBF824FA858A3E11BF7","0198ee42-a48f-7c5f-9f02-a0c1ce9a2492","0198ee3c-27ac-7803-a9ea-f3b4ad4ad678","{""num_scrambled_semantic"":""8"",""num_scrambled_causal"":""4"",""num_scrambled_schematic"":""4"",""participantId"":""46C4DD283B6C4CBF824FA858A3E11BF7"",""assignmentId"":""0198ee42-a48f-7c5f-9f02-a0c1ce9a2492"",""projectId"":""0198ee3c-27ac-7803-a9ea-f3b4ad4ad678""}","https://test12345.live/?num_scrambled_semantic=8&num_scrambled_causal=4&num_scrambled_schematic=4&participantId=46C4DD283B6C4CBF824FA858A3E11BF7&assignmentId=0198ee42-a48f-7c5f-9f02-a0c1ce9a2492&projectId=0198ee3c-27ac-7803-a9ea-f3b4ad4ad678","46C4DD283B6C4CBF824FA858A3E11BF7-2025-08-28-02-22-54","","null","","[]","null","",""
"","","","","","image-button-response","66","522858","0.0-12.0-1.0-0.3","46C4DD283B6C4CBF824FA858A3E11BF7","46C4DD283B6C4CBF824FA858A3E11BF7","0198ee42-a48f-7c5f-9f02-a0c1ce9a2492","0198ee3c-27ac-7803-a9ea-f3b4ad4ad678","{""num_scrambled_semantic"":""8"",""num_scrambled_causal"":""4"",""num_scrambled_schematic"":""4"",""participantId"":""46C4DD283B6C4CBF824FA858A3E11BF7"",""assignmentId"":""0198ee42-a48f-7c5f-9f02-a0c1ce9a2492"",""projectId"":""0198ee3c-27ac-7803-a9ea-f3b4ad4ad678""}","https://test12345.live/?num_scrambled_semantic=8&num_scrambled_causal=4&num_scrambled_schematic=4&participantId=46C4DD283B6C4CBF824FA858A3E11BF7&assignmentId=0198ee42-a48f-7c5f-9f02-a0c1ce9a2492&projectId=0198ee3c-27ac-7803-a9ea-f3b4ad4ad678","46C4DD283B6C4CBF824FA858A3E11BF7-2025-08-28-02-22-54","","null","","images/causal_sequence/museum_causal/museum_causal_4.png","null","",""
"","","","","","image-button-response","67","525069","0.0-12.0-1.0-1.3","46C4DD283B6C4CBF824FA858A3E11BF7","46C4DD283B6C4CBF824FA858A3E11BF7","0198ee42-a48f-7c5f-9f02-a0c1ce9a2492","0198ee3c-27ac-7803-a9ea-f3b4ad4ad678","{""num_scrambled_semantic"":""8"",""num_scrambled_causal"":""4"",""num_scrambled_schematic"":""4"",""participantId"":""46C4DD283B6C4CBF824FA858A3E11BF7"",""assignmentId"":""0198ee42-a48f-7c5f-9f02-a0c1ce9a2492"",""projectId"":""0198ee3c-27ac-7803-a9ea-f3b4ad4ad678""}","https://test12345.live/?num_scrambled_semantic=8&num_scrambled_causal=4&num_scrambled_schematic=4&participantId=46C4DD283B6C4CBF824FA858A3E11BF7&assignmentId=0198ee42-a48f-7c5f-9f02-a0c1ce9a2492&projectId=0198ee3c-27ac-7803-a9ea-f3b4ad4ad678","46C4DD283B6C4CBF824FA858A3E11BF7-2025-08-28-02-22-54","","2210","","images/causal_sequence/museum_causal/museum_causal_4.png","1","",""
"","","","","","image-button-response","68","526887","0.0-12.0-1.0-2.3","46C4DD283B6C4CBF824FA858A3E11BF7","46C4DD283B6C4CBF824FA858A3E11BF7","0198ee42-a48f-7c5f-9f02-a0c1ce9a2492","0198ee3c-27ac-7803-a9ea-f3b4ad4ad678","{""num_scrambled_semantic"":""8"",""num_scrambled_causal"":""4"",""num_scrambled_schematic"":""4"",""participantId"":""46C4DD283B6C4CBF824FA858A3E11BF7"",""assignmentId"":""0198ee42-a48f-7c5f-9f02-a0c1ce9a2492"",""projectId"":""0198ee3c-27ac-7803-a9ea-f3b4ad4ad678""}","https://test12345.live/?num_scrambled_semantic=8&num_scrambled_causal=4&num_scrambled_schematic=4&participantId=46C4DD283B6C4CBF824FA858A3E11BF7&assignmentId=0198ee42-a48f-7c5f-9f02-a0c1ce9a2492&projectId=0198ee3c-27ac-7803-a9ea-f3b4ad4ad678","46C4DD283B6C4CBF824FA858A3E11BF7-2025-08-28-02-22-54","","null","","[]","null","",""
"","","","","","image-button-response","69","531403","0.0-12.0-1.0-0.4","46C4DD283B6C4CBF824FA858A3E11BF7","46C4DD283B6C4CBF824FA858A3E11BF7","0198ee42-a48f-7c5f-9f02-a0c1ce9a2492","0198ee3c-27ac-7803-a9ea-f3b4ad4ad678","{""num_scrambled_semantic"":""8"",""num_scrambled_causal"":""4"",""num_scrambled_schematic"":""4"",""participantId"":""46C4DD283B6C4CBF824FA858A3E11BF7"",""assignmentId"":""0198ee42-a48f-7c5f-9f02-a0c1ce9a2492"",""projectId"":""0198ee3c-27ac-7803-a9ea-f3b4ad4ad678""}","https://test12345.live/?num_scrambled_semantic=8&num_scrambled_causal=4&num_scrambled_schematic=4&participantId=46C4DD283B6C4CBF824FA858A3E11BF7&assignmentId=0198ee42-a48f-7c5f-9f02-a0c1ce9a2492&projectId=0198ee3c-27ac-7803-a9ea-f3b4ad4ad678","46C4DD283B6C4CBF824FA858A3E11BF7-2025-08-28-02-22-54","","null","","images/causal_sequence/museum_causal/museum_causal_5.png","null","",""
"","","","","","image-button-response","70","532762","0.0-12.0-1.0-1.4","46C4DD283B6C4CBF824FA858A3E11BF7","46C4DD283B6C4CBF824FA858A3E11BF7","0198ee42-a48f-7c5f-9f02-a0c1ce9a2492","0198ee3c-27ac-7803-a9ea-f3b4ad4ad678","{""num_scrambled_semantic"":""8"",""num_scrambled_causal"":""4"",""num_scrambled_schematic"":""4"",""participantId"":""46C4DD283B6C4CBF824FA858A3E11BF7"",""assignmentId"":""0198ee42-a48f-7c5f-9f02-a0c1ce9a2492"",""projectId"":""0198ee3c-27ac-7803-a9ea-f3b4ad4ad678""}","https://test12345.live/?num_scrambled_semantic=8&num_scrambled_causal=4&num_scrambled_schematic=4&participantId=46C4DD283B6C4CBF824FA858A3E11BF7&assignmentId=0198ee42-a48f-7c5f-9f02-a0c1ce9a2492&projectId=0198ee3c-27ac-7803-a9ea-f3b4ad4ad678","46C4DD283B6C4CBF824FA858A3E11BF7-2025-08-28-02-22-54","","1357","","images/causal_sequence/museum_causal/museum_causal_5.png","0","",""
"","","","","","image-button-response","71","534578","0.0-12.0-1.0-2.4","46C4DD283B6C4CBF824FA858A3E11BF7","46C4DD283B6C4CBF824FA858A3E11BF7","0198ee42-a48f-7c5f-9f02-a0c1ce9a2492","0198ee3c-27ac-7803-a9ea-f3b4ad4ad678","{""num_scrambled_semantic"":""8"",""num_scrambled_causal"":""4"",""num_scrambled_schematic"":""4"",""participantId"":""46C4DD283B6C4CBF824FA858A3E11BF7"",""assignmentId"":""0198ee42-a48f-7c5f-9f02-a0c1ce9a2492"",""projectId"":""0198ee3c-27ac-7803-a9ea-f3b4ad4ad678""}","https://test12345.live/?num_scrambled_semantic=8&num_scrambled_causal=4&num_scrambled_schematic=4&participantId=46C4DD283B6C4CBF824FA858A3E11BF7&assignmentId=0198ee42-a48f-7c5f-9f02-a0c1ce9a2492&projectId=0198ee3c-27ac-7803-a9ea-f3b4ad4ad678","46C4DD283B6C4CBF824FA858A3E11BF7-2025-08-28-02-22-54","","null","","[]","null","",""
"","","","","","image-button-response","72","539092","0.0-12.0-1.0-0.5","46C4DD283B6C4CBF824FA858A3E11BF7","46C4DD283B6C4CBF824FA858A3E11BF7","0198ee42-a48f-7c5f-9f02-a0c1ce9a2492","0198ee3c-27ac-7803-a9ea-f3b4ad4ad678","{""num_scrambled_semantic"":""8"",""num_scrambled_causal"":""4"",""num_scrambled_schematic"":""4"",""participantId"":""46C4DD283B6C4CBF824FA858A3E11BF7"",""assignmentId"":""0198ee42-a48f-7c5f-9f02-a0c1ce9a2492"",""projectId"":""0198ee3c-27ac-7803-a9ea-f3b4ad4ad678""}","https://test12345.live/?num_scrambled_semantic=8&num_scrambled_causal=4&num_scrambled_schematic=4&participantId=46C4DD283B6C4CBF824FA858A3E11BF7&assignmentId=0198ee42-a48f-7c5f-9f02-a0c1ce9a2492&projectId=0198ee3c-27ac-7803-a9ea-f3b4ad4ad678","46C4DD283B6C4CBF824FA858A3E11BF7-2025-08-28-02-22-54","","null","","images/causal_sequence/museum_causal/museum_causal_6.png","null","",""
"","","","","","image-button-response","73","540858","0.0-12.0-1.0-1.5","46C4DD283B6C4CBF824FA858A3E11BF7","46C4DD283B6C4CBF824FA858A3E11BF7","0198ee42-a48f-7c5f-9f02-a0c1ce9a2492","0198ee3c-27ac-7803-a9ea-f3b4ad4ad678","{""num_scrambled_semantic"":""8"",""num_scrambled_causal"":""4"",""num_scrambled_schematic"":""4"",""participantId"":""46C4DD283B6C4CBF824FA858A3E11BF7"",""assignmentId"":""0198ee42-a48f-7c5f-9f02-a0c1ce9a2492"",""projectId"":""0198ee3c-27ac-7803-a9ea-f3b4ad4ad678""}","https://test12345.live/?num_scrambled_semantic=8&num_scrambled_causal=4&num_scrambled_schematic=4&participantId=46C4DD283B6C4CBF824FA858A3E11BF7&assignmentId=0198ee42-a48f-7c5f-9f02-a0c1ce9a2492&projectId=0198ee3c-27ac-7803-a9ea-f3b4ad4ad678","46C4DD283B6C4CBF824FA858A3E11BF7-2025-08-28-02-22-54","","1765","","images/causal_sequence/museum_causal/museum_causal_6.png","0","",""
"","","","","","image-button-response","74","542673","0.0-12.0-1.0-2.5","46C4DD283B6C4CBF824FA858A3E11BF7","46C4DD283B6C4CBF824FA858A3E11BF7","0198ee42-a48f-7c5f-9f02-a0c1ce9a2492","0198ee3c-27ac-7803-a9ea-f3b4ad4ad678","{""num_scrambled_semantic"":""8"",""num_scrambled_causal"":""4"",""num_scrambled_schematic"":""4"",""participantId"":""46C4DD283B6C4CBF824FA858A3E11BF7"",""assignmentId"":""0198ee42-a48f-7c5f-9f02-a0c1ce9a2492"",""projectId"":""0198ee3c-27ac-7803-a9ea-f3b4ad4ad678""}","https://test12345.live/?num_scrambled_semantic=8&num_scrambled_causal=4&num_scrambled_schematic=4&participantId=46C4DD283B6C4CBF824FA858A3E11BF7&assignmentId=0198ee42-a48f-7c5f-9f02-a0c1ce9a2492&projectId=0198ee3c-27ac-7803-a9ea-f3b4ad4ad678","46C4DD283B6C4CBF824FA858A3E11BF7-2025-08-28-02-22-54","","null","","[]","null","",""
"","","","","","image-button-response","75","547184","0.0-12.0-1.0-0.6","46C4DD283B6C4CBF824FA858A3E11BF7","46C4DD283B6C4CBF824FA858A3E11BF7","0198ee42-a48f-7c5f-9f02-a0c1ce9a2492","0198ee3c-27ac-7803-a9ea-f3b4ad4ad678","{""num_scrambled_semantic"":""8"",""num_scrambled_causal"":""4"",""num_scrambled_schematic"":""4"",""participantId"":""46C4DD283B6C4CBF824FA858A3E11BF7"",""assignmentId"":""0198ee42-a48f-7c5f-9f02-a0c1ce9a2492"",""projectId"":""0198ee3c-27ac-7803-a9ea-f3b4ad4ad678""}","https://test12345.live/?num_scrambled_semantic=8&num_scrambled_causal=4&num_scrambled_schematic=4&participantId=46C4DD283B6C4CBF824FA858A3E11BF7&assignmentId=0198ee42-a48f-7c5f-9f02-a0c1ce9a2492&projectId=0198ee3c-27ac-7803-a9ea-f3b4ad4ad678","46C4DD283B6C4CBF824FA858A3E11BF7-2025-08-28-02-22-54","","null","","images/causal_sequence/museum_causal/museum_causal_7.png","null","",""
"","","","","","image-button-response","76","549380","0.0-12.0-1.0-1.6","46C4DD283B6C4CBF824FA858A3E11BF7","46C4DD283B6C4CBF824FA858A3E11BF7","0198ee42-a48f-7c5f-9f02-a0c1ce9a2492","0198ee3c-27ac-7803-a9ea-f3b4ad4ad678","{""num_scrambled_semantic"":""8"",""num_scrambled_causal"":""4"",""num_scrambled_schematic"":""4"",""participantId"":""46C4DD283B6C4CBF824FA858A3E11BF7"",""assignmentId"":""0198ee42-a48f-7c5f-9f02-a0c1ce9a2492"",""projectId"":""0198ee3c-27ac-7803-a9ea-f3b4ad4ad678""}","https://test12345.live/?num_scrambled_semantic=8&num_scrambled_causal=4&num_scrambled_schematic=4&participantId=46C4DD283B6C4CBF824FA858A3E11BF7&assignmentId=0198ee42-a48f-7c5f-9f02-a0c1ce9a2492&projectId=0198ee3c-27ac-7803-a9ea-f3b4ad4ad678","46C4DD283B6C4CBF824FA858A3E11BF7-2025-08-28-02-22-54","","2194","","images/causal_sequence/museum_causal/museum_causal_7.png","1","",""
"","","","","","image-button-response","77","551183","0.0-12.0-1.0-2.6","46C4DD283B6C4CBF824FA858A3E11BF7","46C4DD283B6C4CBF824FA858A3E11BF7","0198ee42-a48f-7c5f-9f02-a0c1ce9a2492","0198ee3c-27ac-7803-a9ea-f3b4ad4ad678","{""num_scrambled_semantic"":""8"",""num_scrambled_causal"":""4"",""num_scrambled_schematic"":""4"",""participantId"":""46C4DD283B6C4CBF824FA858A3E11BF7"",""assignmentId"":""0198ee42-a48f-7c5f-9f02-a0c1ce9a2492"",""projectId"":""0198ee3c-27ac-7803-a9ea-f3b4ad4ad678""}","https://test12345.live/?num_scrambled_semantic=8&num_scrambled_causal=4&num_scrambled_schematic=4&participantId=46C4DD283B6C4CBF824FA858A3E11BF7&assignmentId=0198ee42-a48f-7c5f-9f02-a0c1ce9a2492&projectId=0198ee3c-27ac-7803-a9ea-f3b4ad4ad678","46C4DD283B6C4CBF824FA858A3E11BF7-2025-08-28-02-22-54","","null","","[]","null","",""
"","","","","","image-button-response","78","555686","0.0-12.0-1.0-0.7","46C4DD283B6C4CBF824FA858A3E11BF7","46C4DD283B6C4CBF824FA858A3E11BF7","0198ee42-a48f-7c5f-9f02-a0c1ce9a2492","0198ee3c-27ac-7803-a9ea-f3b4ad4ad678","{""num_scrambled_semantic"":""8"",""num_scrambled_causal"":""4"",""num_scrambled_schematic"":""4"",""participantId"":""46C4DD283B6C4CBF824FA858A3E11BF7"",""assignmentId"":""0198ee42-a48f-7c5f-9f02-a0c1ce9a2492"",""projectId"":""0198ee3c-27ac-7803-a9ea-f3b4ad4ad678""}","https://test12345.live/?num_scrambled_semantic=8&num_scrambled_causal=4&num_scrambled_schematic=4&participantId=46C4DD283B6C4CBF824FA858A3E11BF7&assignmentId=0198ee42-a48f-7c5f-9f02-a0c1ce9a2492&projectId=0198ee3c-27ac-7803-a9ea-f3b4ad4ad678","46C4DD283B6C4CBF824FA858A3E11BF7-2025-08-28-02-22-54","","null","","images/causal_sequence/museum_causal/museum_causal_8.png","null","",""
"","","","","","image-button-response","79","559186","0.0-12.0-1.0-1.7","46C4DD283B6C4CBF824FA858A3E11BF7","46C4DD283B6C4CBF824FA858A3E11BF7","0198ee42-a48f-7c5f-9f02-a0c1ce9a2492","0198ee3c-27ac-7803-a9ea-f3b4ad4ad678","{""num_scrambled_semantic"":""8"",""num_scrambled_causal"":""4"",""num_scrambled_schematic"":""4"",""participantId"":""46C4DD283B6C4CBF824FA858A3E11BF7"",""assignmentId"":""0198ee42-a48f-7c5f-9f02-a0c1ce9a2492"",""projectId"":""0198ee3c-27ac-7803-a9ea-f3b4ad4ad678""}","https://test12345.live/?num_scrambled_semantic=8&num_scrambled_causal=4&num_scrambled_schematic=4&participantId=46C4DD283B6C4CBF824FA858A3E11BF7&assignmentId=0198ee42-a48f-7c5f-9f02-a0c1ce9a2492&projectId=0198ee3c-27ac-7803-a9ea-f3b4ad4ad678","46C4DD283B6C4CBF824FA858A3E11BF7-2025-08-28-02-22-54","","3498","","images/causal_sequence/museum_causal/museum_causal_8.png","0","",""
"","","","","","image-button-response","80","560990","0.0-12.0-1.0-2.7","46C4DD283B6C4CBF824FA858A3E11BF7","46C4DD283B6C4CBF824FA858A3E11BF7","0198ee42-a48f-7c5f-9f02-a0c1ce9a2492","0198ee3c-27ac-7803-a9ea-f3b4ad4ad678","{""num_scrambled_semantic"":""8"",""num_scrambled_causal"":""4"",""num_scrambled_schematic"":""4"",""participantId"":""46C4DD283B6C4CBF824FA858A3E11BF7"",""assignmentId"":""0198ee42-a48f-7c5f-9f02-a0c1ce9a2492"",""projectId"":""0198ee3c-27ac-7803-a9ea-f3b4ad4ad678""}","https://test12345.live/?num_scrambled_semantic=8&num_scrambled_causal=4&num_scrambled_schematic=4&participantId=46C4DD283B6C4CBF824FA858A3E11BF7&assignmentId=0198ee42-a48f-7c5f-9f02-a0c1ce9a2492&projectId=0198ee3c-27ac-7803-a9ea-f3b4ad4ad678","46C4DD283B6C4CBF824FA858A3E11BF7-2025-08-28-02-22-54","","null","","[]","null","",""
"","","","","","image-button-response","81","565492","0.0-12.0-1.0-0.8","46C4DD283B6C4CBF824FA858A3E11BF7","46C4DD283B6C4CBF824FA858A3E11BF7","0198ee42-a48f-7c5f-9f02-a0c1ce9a2492","0198ee3c-27ac-7803-a9ea-f3b4ad4ad678","{""num_scrambled_semantic"":""8"",""num_scrambled_causal"":""4"",""num_scrambled_schematic"":""4"",""participantId"":""46C4DD283B6C4CBF824FA858A3E11BF7"",""assignmentId"":""0198ee42-a48f-7c5f-9f02-a0c1ce9a2492"",""projectId"":""0198ee3c-27ac-7803-a9ea-f3b4ad4ad678""}","https://test12345.live/?num_scrambled_semantic=8&num_scrambled_causal=4&num_scrambled_schematic=4&participantId=46C4DD283B6C4CBF824FA858A3E11BF7&assignmentId=0198ee42-a48f-7c5f-9f02-a0c1ce9a2492&projectId=0198ee3c-27ac-7803-a9ea-f3b4ad4ad678","46C4DD283B6C4CBF824FA858A3E11BF7-2025-08-28-02-22-54","","null","","images/causal_sequence/museum_causal/museum_causal_9.png","null","",""
"","","","","","image-button-response","82","566823","0.0-12.0-1.0-1.8","46C4DD283B6C4CBF824FA858A3E11BF7","46C4DD283B6C4CBF824FA858A3E11BF7","0198ee42-a48f-7c5f-9f02-a0c1ce9a2492","0198ee3c-27ac-7803-a9ea-f3b4ad4ad678","{""num_scrambled_semantic"":""8"",""num_scrambled_causal"":""4"",""num_scrambled_schematic"":""4"",""participantId"":""46C4DD283B6C4CBF824FA858A3E11BF7"",""assignmentId"":""0198ee42-a48f-7c5f-9f02-a0c1ce9a2492"",""projectId"":""0198ee3c-27ac-7803-a9ea-f3b4ad4ad678""}","https://test12345.live/?num_scrambled_semantic=8&num_scrambled_causal=4&num_scrambled_schematic=4&participantId=46C4DD283B6C4CBF824FA858A3E11BF7&assignmentId=0198ee42-a48f-7c5f-9f02-a0c1ce9a2492&projectId=0198ee3c-27ac-7803-a9ea-f3b4ad4ad678","46C4DD283B6C4CBF824FA858A3E11BF7-2025-08-28-02-22-54","","1329","","images/causal_sequence/museum_causal/museum_causal_9.png","1","",""
"","","","","","image-button-response","83","568634","0.0-12.0-1.0-2.8","46C4DD283B6C4CBF824FA858A3E11BF7","46C4DD283B6C4CBF824FA858A3E11BF7","0198ee42-a48f-7c5f-9f02-a0c1ce9a2492","0198ee3c-27ac-7803-a9ea-f3b4ad4ad678","{""num_scrambled_semantic"":""8"",""num_scrambled_causal"":""4"",""num_scrambled_schematic"":""4"",""participantId"":""46C4DD283B6C4CBF824FA858A3E11BF7"",""assignmentId"":""0198ee42-a48f-7c5f-9f02-a0c1ce9a2492"",""projectId"":""0198ee3c-27ac-7803-a9ea-f3b4ad4ad678""}","https://test12345.live/?num_scrambled_semantic=8&num_scrambled_causal=4&num_scrambled_schematic=4&participantId=46C4DD283B6C4CBF824FA858A3E11BF7&assignmentId=0198ee42-a48f-7c5f-9f02-a0c1ce9a2492&projectId=0198ee3c-27ac-7803-a9ea-f3b4ad4ad678","46C4DD283B6C4CBF824FA858A3E11BF7-2025-08-28-02-22-54","","null","","[]","null","",""
"","","","","","image-button-response","84","573137","0.0-12.0-1.0-0.9","46C4DD283B6C4CBF824FA858A3E11BF7","46C4DD283B6C4CBF824FA858A3E11BF7","0198ee42-a48f-7c5f-9f02-a0c1ce9a2492","0198ee3c-27ac-7803-a9ea-f3b4ad4ad678","{""num_scrambled_semantic"":""8"",""num_scrambled_causal"":""4"",""num_scrambled_schematic"":""4"",""participantId"":""46C4DD283B6C4CBF824FA858A3E11BF7"",""assignmentId"":""0198ee42-a48f-7c5f-9f02-a0c1ce9a2492"",""projectId"":""0198ee3c-27ac-7803-a9ea-f3b4ad4ad678""}","https://test12345.live/?num_scrambled_semantic=8&num_scrambled_causal=4&num_scrambled_schematic=4&participantId=46C4DD283B6C4CBF824FA858A3E11BF7&assignmentId=0198ee42-a48f-7c5f-9f02-a0c1ce9a2492&projectId=0198ee3c-27ac-7803-a9ea-f3b4ad4ad678","46C4DD283B6C4CBF824FA858A3E11BF7-2025-08-28-02-22-54","","null","","images/causal_sequence/museum_causal/museum_causal_ten.png","null","",""
"","","","","","image-button-response","85","576984","0.0-12.0-1.0-1.9","46C4DD283B6C4CBF824FA858A3E11BF7","46C4DD283B6C4CBF824FA858A3E11BF7","0198ee42-a48f-7c5f-9f02-a0c1ce9a2492","0198ee3c-27ac-7803-a9ea-f3b4ad4ad678","{""num_scrambled_semantic"":""8"",""num_scrambled_causal"":""4"",""num_scrambled_schematic"":""4"",""participantId"":""46C4DD283B6C4CBF824FA858A3E11BF7"",""assignmentId"":""0198ee42-a48f-7c5f-9f02-a0c1ce9a2492"",""projectId"":""0198ee3c-27ac-7803-a9ea-f3b4ad4ad678""}","https://test12345.live/?num_scrambled_semantic=8&num_scrambled_causal=4&num_scrambled_schematic=4&participantId=46C4DD283B6C4CBF824FA858A3E11BF7&assignmentId=0198ee42-a48f-7c5f-9f02-a0c1ce9a2492&projectId=0198ee3c-27ac-7803-a9ea-f3b4ad4ad678","46C4DD283B6C4CBF824FA858A3E11BF7-2025-08-28-02-22-54","","3845","","images/causal_sequence/museum_causal/museum_causal_ten.png","0","",""
"","","","","","image-button-response","86","578793","0.0-12.0-1.0-2.9","46C4DD283B6C4CBF824FA858A3E11BF7","46C4DD283B6C4CBF824FA858A3E11BF7","0198ee42-a48f-7c5f-9f02-a0c1ce9a2492","0198ee3c-27ac-7803-a9ea-f3b4ad4ad678","{""num_scrambled_semantic"":""8"",""num_scrambled_causal"":""4"",""num_scrambled_schematic"":""4"",""participantId"":""46C4DD283B6C4CBF824FA858A3E11BF7"",""assignmentId"":""0198ee42-a48f-7c5f-9f02-a0c1ce9a2492"",""projectId"":""0198ee3c-27ac-7803-a9ea-f3b4ad4ad678""}","https://test12345.live/?num_scrambled_semantic=8&num_scrambled_causal=4&num_scrambled_schematic=4&participantId=46C4DD283B6C4CBF824FA858A3E11BF7&assignmentId=0198ee42-a48f-7c5f-9f02-a0c1ce9a2492&projectId=0198ee3c-27ac-7803-a9ea-f3b4ad4ad678","46C4DD283B6C4CBF824FA858A3E11BF7-2025-08-28-02-22-54","","null","","[]","null","",""
"","","","","","html-audio-response","87","616149","0.0-13.0","46C4DD283B6C4CBF824FA858A3E11BF7","46C4DD283B6C4CBF824FA858A3E11BF7","0198ee42-a48f-7c5f-9f02-a0c1ce9a2492","0198ee3c-27ac-7803-a9ea-f3b4ad4ad678","{""num_scrambled_semantic"":""8"",""num_scrambled_causal"":""4"",""num_scrambled_schematic"":""4"",""participantId"":""46C4DD283B6C4CBF824FA858A3E11BF7"",""assignmentId"":""0198ee42-a48f-7c5f-9f02-a0c1ce9a2492"",""projectId"":""0198ee3c-27ac-7803-a9ea-f3b4ad4ad678""}","https://test12345.live/?num_scrambled_semantic=8&num_scrambled_causal=4&num_scrambled_schematic=4&participantId=46C4DD283B6C4CBF824FA858A3E11BF7&assignmentId=0198ee42-a48f-7c5f-9f02-a0c1ce9a2492&projectId=0198ee3c-27ac-7803-a9ea-f3b4ad4ad678","46C4DD283B6C4CBF824FA858A3E11BF7-2025-08-28-02-22-54","","15902","","[""<span style=\""color: red; font-size: 24px\""> NOW RECORDING</span><p>Please say out loud all the images you saw, in the order of the story they create. Try to recall the sequence of events as they appeared in the story, not necessarily the order they were presented on the screen.</p>""]","","1","museum_causal"
"","","","","","image-button-response","88","622158","0.0-14.0-0.0","46C4DD283B6C4CBF824FA858A3E11BF7","46C4DD283B6C4CBF824FA858A3E11BF7","0198ee42-a48f-7c5f-9f02-a0c1ce9a2492","0198ee3c-27ac-7803-a9ea-f3b4ad4ad678","{""num_scrambled_semantic"":""8"",""num_scrambled_causal"":""4"",""num_scrambled_schematic"":""4"",""participantId"":""46C4DD283B6C4CBF824FA858A3E11BF7"",""assignmentId"":""0198ee42-a48f-7c5f-9f02-a0c1ce9a2492"",""projectId"":""0198ee3c-27ac-7803-a9ea-f3b4ad4ad678""}","https://test12345.live/?num_scrambled_semantic=8&num_scrambled_causal=4&num_scrambled_schematic=4&participantId=46C4DD283B6C4CBF824FA858A3E11BF7&assignmentId=0198ee42-a48f-7c5f-9f02-a0c1ce9a2492&projectId=0198ee3c-27ac-7803-a9ea-f3b4ad4ad678","46C4DD283B6C4CBF824FA858A3E11BF7-2025-08-28-02-22-54","","null","","images/schematic_sequence/restaurant_scheme/restaurant_scheme_0.png","null","",""
"","","","","","image-button-response","89","626675","0.0-14.0-1.0-0.0","46C4DD283B6C4CBF824FA858A3E11BF7","46C4DD283B6C4CBF824FA858A3E11BF7","0198ee42-a48f-7c5f-9f02-a0c1ce9a2492","0198ee3c-27ac-7803-a9ea-f3b4ad4ad678","{""num_scrambled_semantic"":""8"",""num_scrambled_causal"":""4"",""num_scrambled_schematic"":""4"",""participantId"":""46C4DD283B6C4CBF824FA858A3E11BF7"",""assignmentId"":""0198ee42-a48f-7c5f-9f02-a0c1ce9a2492"",""projectId"":""0198ee3c-27ac-7803-a9ea-f3b4ad4ad678""}","https://test12345.live/?num_scrambled_semantic=8&num_scrambled_causal=4&num_scrambled_schematic=4&participantId=46C4DD283B6C4CBF824FA858A3E11BF7&assignmentId=0198ee42-a48f-7c5f-9f02-a0c1ce9a2492&projectId=0198ee3c-27ac-7803-a9ea-f3b4ad4ad678","46C4DD283B6C4CBF824FA858A3E11BF7-2025-08-28-02-22-54","","null","","images/schematic_sequence/restaurant_scheme/restaurant_scheme_1.png","null","",""
"","","","","","image-button-response","90","629477","0.0-14.0-1.0-1.0","46C4DD283B6C4CBF824FA858A3E11BF7","46C4DD283B6C4CBF824FA858A3E11BF7","0198ee42-a48f-7c5f-9f02-a0c1ce9a2492","0198ee3c-27ac-7803-a9ea-f3b4ad4ad678","{""num_scrambled_semantic"":""8"",""num_scrambled_causal"":""4"",""num_scrambled_schematic"":""4"",""participantId"":""46C4DD283B6C4CBF824FA858A3E11BF7"",""assignmentId"":""0198ee42-a48f-7c5f-9f02-a0c1ce9a2492"",""projectId"":""0198ee3c-27ac-7803-a9ea-f3b4ad4ad678""}","https://test12345.live/?num_scrambled_semantic=8&num_scrambled_causal=4&num_scrambled_schematic=4&participantId=46C4DD283B6C4CBF824FA858A3E11BF7&assignmentId=0198ee42-a48f-7c5f-9f02-a0c1ce9a2492&projectId=0198ee3c-27ac-7803-a9ea-f3b4ad4ad678","46C4DD283B6C4CBF824FA858A3E11BF7-2025-08-28-02-22-54","","2800","","images/schematic_sequence/restaurant_scheme/restaurant_scheme_1.png","0","",""
"","","","","","image-button-response","91","631297","0.0-14.0-1.0-2.0","46C4DD283B6C4CBF824FA858A3E11BF7","46C4DD283B6C4CBF824FA858A3E11BF7","0198ee42-a48f-7c5f-9f02-a0c1ce9a2492","0198ee3c-27ac-7803-a9ea-f3b4ad4ad678","{""num_scrambled_semantic"":""8"",""num_scrambled_causal"":""4"",""num_scrambled_schematic"":""4"",""participantId"":""46C4DD283B6C4CBF824FA858A3E11BF7"",""assignmentId"":""0198ee42-a48f-7c5f-9f02-a0c1ce9a2492"",""projectId"":""0198ee3c-27ac-7803-a9ea-f3b4ad4ad678""}","https://test12345.live/?num_scrambled_semantic=8&num_scrambled_causal=4&num_scrambled_schematic=4&participantId=46C4DD283B6C4CBF824FA858A3E11BF7&assignmentId=0198ee42-a48f-7c5f-9f02-a0c1ce9a2492&projectId=0198ee3c-27ac-7803-a9ea-f3b4ad4ad678","46C4DD283B6C4CBF824FA858A3E11BF7-2025-08-28-02-22-54","","null","","[]","null","",""
"","","","","","image-button-response","92","635802","0.0-14.0-1.0-0.1","46C4DD283B6C4CBF824FA858A3E11BF7","46C4DD283B6C4CBF824FA858A3E11BF7","0198ee42-a48f-7c5f-9f02-a0c1ce9a2492","0198ee3c-27ac-7803-a9ea-f3b4ad4ad678","{""num_scrambled_semantic"":""8"",""num_scrambled_causal"":""4"",""num_scrambled_schematic"":""4"",""participantId"":""46C4DD283B6C4CBF824FA858A3E11BF7"",""assignmentId"":""0198ee42-a48f-7c5f-9f02-a0c1ce9a2492"",""projectId"":""0198ee3c-27ac-7803-a9ea-f3b4ad4ad678""}","https://test12345.live/?num_scrambled_semantic=8&num_scrambled_causal=4&num_scrambled_schematic=4&participantId=46C4DD283B6C4CBF824FA858A3E11BF7&assignmentId=0198ee42-a48f-7c5f-9f02-a0c1ce9a2492&projectId=0198ee3c-27ac-7803-a9ea-f3b4ad4ad678","46C4DD283B6C4CBF824FA858A3E11BF7-2025-08-28-02-22-54","","null","","images/schematic_sequence/restaurant_scheme/restaurant_scheme_2.png","null","",""
"","","","","","image-button-response","93","639813","0.0-14.0-1.0-1.1","46C4DD283B6C4CBF824FA858A3E11BF7","46C4DD283B6C4CBF824FA858A3E11BF7","0198ee42-a48f-7c5f-9f02-a0c1ce9a2492","0198ee3c-27ac-7803-a9ea-f3b4ad4ad678","{""num_scrambled_semantic"":""8"",""num_scrambled_causal"":""4"",""num_scrambled_schematic"":""4"",""participantId"":""46C4DD283B6C4CBF824FA858A3E11BF7"",""assignmentId"":""0198ee42-a48f-7c5f-9f02-a0c1ce9a2492"",""projectId"":""0198ee3c-27ac-7803-a9ea-f3b4ad4ad678""}","https://test12345.live/?num_scrambled_semantic=8&num_scrambled_causal=4&num_scrambled_schematic=4&participantId=46C4DD283B6C4CBF824FA858A3E11BF7&assignmentId=0198ee42-a48f-7c5f-9f02-a0c1ce9a2492&projectId=0198ee3c-27ac-7803-a9ea-f3b4ad4ad678","46C4DD283B6C4CBF824FA858A3E11BF7-2025-08-28-02-22-54","","null","","images/schematic_sequence/restaurant_scheme/restaurant_scheme_2.png","null","",""
"","","","","","image-button-response","94","641624","0.0-14.0-1.0-2.1","46C4DD283B6C4CBF824FA858A3E11BF7","46C4DD283B6C4CBF824FA858A3E11BF7","0198ee42-a48f-7c5f-9f02-a0c1ce9a2492","0198ee3c-27ac-7803-a9ea-f3b4ad4ad678","{""num_scrambled_semantic"":""8"",""num_scrambled_causal"":""4"",""num_scrambled_schematic"":""4"",""participantId"":""46C4DD283B6C4CBF824FA858A3E11BF7"",""assignmentId"":""0198ee42-a48f-7c5f-9f02-a0c1ce9a2492"",""projectId"":""0198ee3c-27ac-7803-a9ea-f3b4ad4ad678""}","https://test12345.live/?num_scrambled_semantic=8&num_scrambled_causal=4&num_scrambled_schematic=4&participantId=46C4DD283B6C4CBF824FA858A3E11BF7&assignmentId=0198ee42-a48f-7c5f-9f02-a0c1ce9a2492&projectId=0198ee3c-27ac-7803-a9ea-f3b4ad4ad678","46C4DD283B6C4CBF824FA858A3E11BF7-2025-08-28-02-22-54","","null","","[]","null","",""
"","","","","","image-button-response","95","646129","0.0-14.0-1.0-0.2","46C4DD283B6C4CBF824FA858A3E11BF7","46C4DD283B6C4CBF824FA858A3E11BF7","0198ee42-a48f-7c5f-9f02-a0c1ce9a2492","0198ee3c-27ac-7803-a9ea-f3b4ad4ad678","{""num_scrambled_semantic"":""8"",""num_scrambled_causal"":""4"",""num_scrambled_schematic"":""4"",""participantId"":""46C4DD283B6C4CBF824FA858A3E11BF7"",""assignmentId"":""0198ee42-a48f-7c5f-9f02-a0c1ce9a2492"",""projectId"":""0198ee3c-27ac-7803-a9ea-f3b4ad4ad678""}","https://test12345.live/?num_scrambled_semantic=8&num_scrambled_causal=4&num_scrambled_schematic=4&participantId=46C4DD283B6C4CBF824FA858A3E11BF7&assignmentId=0198ee42-a48f-7c5f-9f02-a0c1ce9a2492&projectId=0198ee3c-27ac-7803-a9ea-f3b4ad4ad678","46C4DD283B6C4CBF824FA858A3E11BF7-2025-08-28-02-22-54","","null","","images/schematic_sequence/restaurant_scheme/restaurant_scheme_3.png","null","",""
"","","","","","image-button-response","96","647775","0.0-14.0-1.0-1.2","46C4DD283B6C4CBF824FA858A3E11BF7","46C4DD283B6C4CBF824FA858A3E11BF7","0198ee42-a48f-7c5f-9f02-a0c1ce9a2492","0198ee3c-27ac-7803-a9ea-f3b4ad4ad678","{""num_scrambled_semantic"":""8"",""num_scrambled_causal"":""4"",""num_scrambled_schematic"":""4"",""participantId"":""46C4DD283B6C4CBF824FA858A3E11BF7"",""assignmentId"":""0198ee42-a48f-7c5f-9f02-a0c1ce9a2492"",""projectId"":""0198ee3c-27ac-7803-a9ea-f3b4ad4ad678""}","https://test12345.live/?num_scrambled_semantic=8&num_scrambled_causal=4&num_scrambled_schematic=4&participantId=46C4DD283B6C4CBF824FA858A3E11BF7&assignmentId=0198ee42-a48f-7c5f-9f02-a0c1ce9a2492&projectId=0198ee3c-27ac-7803-a9ea-f3b4ad4ad678","46C4DD283B6C4CBF824FA858A3E11BF7-2025-08-28-02-22-54","","1644","","images/schematic_sequence/restaurant_scheme/restaurant_scheme_3.png","1","",""
"","","","","","image-button-response","97","649589","0.0-14.0-1.0-2.2","46C4DD283B6C4CBF824FA858A3E11BF7","46C4DD283B6C4CBF824FA858A3E11BF7","0198ee42-a48f-7c5f-9f02-a0c1ce9a2492","0198ee3c-27ac-7803-a9ea-f3b4ad4ad678","{""num_scrambled_semantic"":""8"",""num_scrambled_causal"":""4"",""num_scrambled_schematic"":""4"",""participantId"":""46C4DD283B6C4CBF824FA858A3E11BF7"",""assignmentId"":""0198ee42-a48f-7c5f-9f02-a0c1ce9a2492"",""projectId"":""0198ee3c-27ac-7803-a9ea-f3b4ad4ad678""}","https://test12345.live/?num_scrambled_semantic=8&num_scrambled_causal=4&num_scrambled_schematic=4&participantId=46C4DD283B6C4CBF824FA858A3E11BF7&assignmentId=0198ee42-a48f-7c5f-9f02-a0c1ce9a2492&projectId=0198ee3c-27ac-7803-a9ea-f3b4ad4ad678","46C4DD283B6C4CBF824FA858A3E11BF7-2025-08-28-02-22-54","","null","","[]","null","",""
"","","","","","image-button-response","98","654101","0.0-14.0-1.0-0.3","46C4DD283B6C4CBF824FA858A3E11BF7","46C4DD283B6C4CBF824FA858A3E11BF7","0198ee42-a48f-7c5f-9f02-a0c1ce9a2492","0198ee3c-27ac-7803-a9ea-f3b4ad4ad678","{""num_scrambled_semantic"":""8"",""num_scrambled_causal"":""4"",""num_scrambled_schematic"":""4"",""participantId"":""46C4DD283B6C4CBF824FA858A3E11BF7"",""assignmentId"":""0198ee42-a48f-7c5f-9f02-a0c1ce9a2492"",""projectId"":""0198ee3c-27ac-7803-a9ea-f3b4ad4ad678""}","https://test12345.live/?num_scrambled_semantic=8&num_scrambled_causal=4&num_scrambled_schematic=4&participantId=46C4DD283B6C4CBF824FA858A3E11BF7&assignmentId=0198ee42-a48f-7c5f-9f02-a0c1ce9a2492&projectId=0198ee3c-27ac-7803-a9ea-f3b4ad4ad678","46C4DD283B6C4CBF824FA858A3E11BF7-2025-08-28-02-22-54","","null","","images/schematic_sequence/restaurant_scheme/restaurant_scheme_4.png","null","",""
"","","","","","image-button-response","99","656101","0.0-14.0-1.0-1.3","46C4DD283B6C4CBF824FA858A3E11BF7","46C4DD283B6C4CBF824FA858A3E11BF7","0198ee42-a48f-7c5f-9f02-a0c1ce9a2492","0198ee3c-27ac-7803-a9ea-f3b4ad4ad678","{""num_scrambled_semantic"":""8"",""num_scrambled_causal"":""4"",""num_scrambled_schematic"":""4"",""participantId"":""46C4DD283B6C4CBF824FA858A3E11BF7"",""assignmentId"":""0198ee42-a48f-7c5f-9f02-a0c1ce9a2492"",""projectId"":""0198ee3c-27ac-7803-a9ea-f3b4ad4ad678""}","https://test12345.live/?num_scrambled_semantic=8&num_scrambled_causal=4&num_scrambled_schematic=4&participantId=46C4DD283B6C4CBF824FA858A3E11BF7&assignmentId=0198ee42-a48f-7c5f-9f02-a0c1ce9a2492&projectId=0198ee3c-27ac-7803-a9ea-f3b4ad4ad678","46C4DD283B6C4CBF824FA858A3E11BF7-2025-08-28-02-22-54","","1999","","images/schematic_sequence/restaurant_scheme/restaurant_scheme_4.png","0","",""
"","","","","","image-button-response","100","657914","0.0-14.0-1.0-2.3","46C4DD283B6C4CBF824FA858A3E11BF7","46C4DD283B6C4CBF824FA858A3E11BF7","0198ee42-a48f-7c5f-9f02-a0c1ce9a2492","0198ee3c-27ac-7803-a9ea-f3b4ad4ad678","{""num_scrambled_semantic"":""8"",""num_scrambled_causal"":""4"",""num_scrambled_schematic"":""4"",""participantId"":""46C4DD283B6C4CBF824FA858A3E11BF7"",""assignmentId"":""0198ee42-a48f-7c5f-9f02-a0c1ce9a2492"",""projectId"":""0198ee3c-27ac-7803-a9ea-f3b4ad4ad678""}","https://test12345.live/?num_scrambled_semantic=8&num_scrambled_causal=4&num_scrambled_schematic=4&participantId=46C4DD283B6C4CBF824FA858A3E11BF7&assignmentId=0198ee42-a48f-7c5f-9f02-a0c1ce9a2492&projectId=0198ee3c-27ac-7803-a9ea-f3b4ad4ad678","46C4DD283B6C4CBF824FA858A3E11BF7-2025-08-28-02-22-54","","null","","[]","null","",""
"","","","","","image-button-response","101","662431","0.0-14.0-1.0-0.4","46C4DD283B6C4CBF824FA858A3E11BF7","46C4DD283B6C4CBF824FA858A3E11BF7","0198ee42-a48f-7c5f-9f02-a0c1ce9a2492","0198ee3c-27ac-7803-a9ea-f3b4ad4ad678","{""num_scrambled_semantic"":""8"",""num_scrambled_causal"":""4"",""num_scrambled_schematic"":""4"",""participantId"":""46C4DD283B6C4CBF824FA858A3E11BF7"",""assignmentId"":""0198ee42-a48f-7c5f-9f02-a0c1ce9a2492"",""projectId"":""0198ee3c-27ac-7803-a9ea-f3b4ad4ad678""}","https://test12345.live/?num_scrambled_semantic=8&num_scrambled_causal=4&num_scrambled_schematic=4&participantId=46C4DD283B6C4CBF824FA858A3E11BF7&assignmentId=0198ee42-a48f-7c5f-9f02-a0c1ce9a2492&projectId=0198ee3c-27ac-7803-a9ea-f3b4ad4ad678","46C4DD283B6C4CBF824FA858A3E11BF7-2025-08-28-02-22-54","","null","","images/schematic_sequence/restaurant_scheme/restaurant_scheme_5.png","null","",""
"","","","","","image-button-response","102","664771","0.0-14.0-1.0-1.4","46C4DD283B6C4CBF824FA858A3E11BF7","46C4DD283B6C4CBF824FA858A3E11BF7","0198ee42-a48f-7c5f-9f02-a0c1ce9a2492","0198ee3c-27ac-7803-a9ea-f3b4ad4ad678","{""num_scrambled_semantic"":""8"",""num_scrambled_causal"":""4"",""num_scrambled_schematic"":""4"",""participantId"":""46C4DD283B6C4CBF824FA858A3E11BF7"",""assignmentId"":""0198ee42-a48f-7c5f-9f02-a0c1ce9a2492"",""projectId"":""0198ee3c-27ac-7803-a9ea-f3b4ad4ad678""}","https://test12345.live/?num_scrambled_semantic=8&num_scrambled_causal=4&num_scrambled_schematic=4&participantId=46C4DD283B6C4CBF824FA858A3E11BF7&assignmentId=0198ee42-a48f-7c5f-9f02-a0c1ce9a2492&projectId=0198ee3c-27ac-7803-a9ea-f3b4ad4ad678","46C4DD283B6C4CBF824FA858A3E11BF7-2025-08-28-02-22-54","","2339","","images/schematic_sequence/restaurant_scheme/restaurant_scheme_5.png","0","",""
"","","","","","image-button-response","103","666577","0.0-14.0-1.0-2.4","46C4DD283B6C4CBF824FA858A3E11BF7","46C4DD283B6C4CBF824FA858A3E11BF7","0198ee42-a48f-7c5f-9f02-a0c1ce9a2492","0198ee3c-27ac-7803-a9ea-f3b4ad4ad678","{""num_scrambled_semantic"":""8"",""num_scrambled_causal"":""4"",""num_scrambled_schematic"":""4"",""participantId"":""46C4DD283B6C4CBF824FA858A3E11BF7"",""assignmentId"":""0198ee42-a48f-7c5f-9f02-a0c1ce9a2492"",""projectId"":""0198ee3c-27ac-7803-a9ea-f3b4ad4ad678""}","https://test12345.live/?num_scrambled_semantic=8&num_scrambled_causal=4&num_scrambled_schematic=4&participantId=46C4DD283B6C4CBF824FA858A3E11BF7&assignmentId=0198ee42-a48f-7c5f-9f02-a0c1ce9a2492&projectId=0198ee3c-27ac-7803-a9ea-f3b4ad4ad678","46C4DD283B6C4CBF824FA858A3E11BF7-2025-08-28-02-22-54","","null","","[]","null","",""
"","","","","","image-button-response","104","671084","0.0-14.0-1.0-0.5","46C4DD283B6C4CBF824FA858A3E11BF7","46C4DD283B6C4CBF824FA858A3E11BF7","0198ee42-a48f-7c5f-9f02-a0c1ce9a2492","0198ee3c-27ac-7803-a9ea-f3b4ad4ad678","{""num_scrambled_semantic"":""8"",""num_scrambled_causal"":""4"",""num_scrambled_schematic"":""4"",""participantId"":""46C4DD283B6C4CBF824FA858A3E11BF7"",""assignmentId"":""0198ee42-a48f-7c5f-9f02-a0c1ce9a2492"",""projectId"":""0198ee3c-27ac-7803-a9ea-f3b4ad4ad678""}","https://test12345.live/?num_scrambled_semantic=8&num_scrambled_causal=4&num_scrambled_schematic=4&participantId=46C4DD283B6C4CBF824FA858A3E11BF7&assignmentId=0198ee42-a48f-7c5f-9f02-a0c1ce9a2492&projectId=0198ee3c-27ac-7803-a9ea-f3b4ad4ad678","46C4DD283B6C4CBF824FA858A3E11BF7-2025-08-28-02-22-54","","null","","images/schematic_sequence/restaurant_scheme/restaurant_scheme_6.png","null","",""
"","","","","","image-button-response","105","673785","0.0-14.0-1.0-1.5","46C4DD283B6C4CBF824FA858A3E11BF7","46C4DD283B6C4CBF824FA858A3E11BF7","0198ee42-a48f-7c5f-9f02-a0c1ce9a2492","0198ee3c-27ac-7803-a9ea-f3b4ad4ad678","{""num_scrambled_semantic"":""8"",""num_scrambled_causal"":""4"",""num_scrambled_schematic"":""4"",""participantId"":""46C4DD283B6C4CBF824FA858A3E11BF7"",""assignmentId"":""0198ee42-a48f-7c5f-9f02-a0c1ce9a2492"",""projectId"":""0198ee3c-27ac-7803-a9ea-f3b4ad4ad678""}","https://test12345.live/?num_scrambled_semantic=8&num_scrambled_causal=4&num_scrambled_schematic=4&participantId=46C4DD283B6C4CBF824FA858A3E11BF7&assignmentId=0198ee42-a48f-7c5f-9f02-a0c1ce9a2492&projectId=0198ee3c-27ac-7803-a9ea-f3b4ad4ad678","46C4DD283B6C4CBF824FA858A3E11BF7-2025-08-28-02-22-54","","2699","","images/schematic_sequence/restaurant_scheme/restaurant_scheme_6.png","1","",""
"","","","","","image-button-response","106","675589","0.0-14.0-1.0-2.5","46C4DD283B6C4CBF824FA858A3E11BF7","46C4DD283B6C4CBF824FA858A3E11BF7","0198ee42-a48f-7c5f-9f02-a0c1ce9a2492","0198ee3c-27ac-7803-a9ea-f3b4ad4ad678","{""num_scrambled_semantic"":""8"",""num_scrambled_causal"":""4"",""num_scrambled_schematic"":""4"",""participantId"":""46C4DD283B6C4CBF824FA858A3E11BF7"",""assignmentId"":""0198ee42-a48f-7c5f-9f02-a0c1ce9a2492"",""projectId"":""0198ee3c-27ac-7803-a9ea-f3b4ad4ad678""}","https://test12345.live/?num_scrambled_semantic=8&num_scrambled_causal=4&num_scrambled_schematic=4&participantId=46C4DD283B6C4CBF824FA858A3E11BF7&assignmentId=0198ee42-a48f-7c5f-9f02-a0c1ce9a2492&projectId=0198ee3c-27ac-7803-a9ea-f3b4ad4ad678","46C4DD283B6C4CBF824FA858A3E11BF7-2025-08-28-02-22-54","","null","","[]","null","",""
"","","","","","image-button-response","107","680098","0.0-14.0-1.0-0.6","46C4DD283B6C4CBF824FA858A3E11BF7","46C4DD283B6C4CBF824FA858A3E11BF7","0198ee42-a48f-7c5f-9f02-a0c1ce9a2492","0198ee3c-27ac-7803-a9ea-f3b4ad4ad678","{""num_scrambled_semantic"":""8"",""num_scrambled_causal"":""4"",""num_scrambled_schematic"":""4"",""participantId"":""46C4DD283B6C4CBF824FA858A3E11BF7"",""assignmentId"":""0198ee42-a48f-7c5f-9f02-a0c1ce9a2492"",""projectId"":""0198ee3c-27ac-7803-a9ea-f3b4ad4ad678""}","https://test12345.live/?num_scrambled_semantic=8&num_scrambled_causal=4&num_scrambled_schematic=4&participantId=46C4DD283B6C4CBF824FA858A3E11BF7&assignmentId=0198ee42-a48f-7c5f-9f02-a0c1ce9a2492&projectId=0198ee3c-27ac-7803-a9ea-f3b4ad4ad678","46C4DD283B6C4CBF824FA858A3E11BF7-2025-08-28-02-22-54","","null","","images/schematic_sequence/restaurant_scheme/restaurant_scheme_7.png","null","",""
"","","","","","image-button-response","108","683289","0.0-14.0-1.0-1.6","46C4DD283B6C4CBF824FA858A3E11BF7","46C4DD283B6C4CBF824FA858A3E11BF7","0198ee42-a48f-7c5f-9f02-a0c1ce9a2492","0198ee3c-27ac-7803-a9ea-f3b4ad4ad678","{""num_scrambled_semantic"":""8"",""num_scrambled_causal"":""4"",""num_scrambled_schematic"":""4"",""participantId"":""46C4DD283B6C4CBF824FA858A3E11BF7"",""assignmentId"":""0198ee42-a48f-7c5f-9f02-a0c1ce9a2492"",""projectId"":""0198ee3c-27ac-7803-a9ea-f3b4ad4ad678""}","https://test12345.live/?num_scrambled_semantic=8&num_scrambled_causal=4&num_scrambled_schematic=4&participantId=46C4DD283B6C4CBF824FA858A3E11BF7&assignmentId=0198ee42-a48f-7c5f-9f02-a0c1ce9a2492&projectId=0198ee3c-27ac-7803-a9ea-f3b4ad4ad678","46C4DD283B6C4CBF824FA858A3E11BF7-2025-08-28-02-22-54","","3183","","images/schematic_sequence/restaurant_scheme/restaurant_scheme_7.png","1","",""
"","","","","","image-button-response","109","685103","0.0-14.0-1.0-2.6","46C4DD283B6C4CBF824FA858A3E11BF7","46C4DD283B6C4CBF824FA858A3E11BF7","0198ee42-a48f-7c5f-9f02-a0c1ce9a2492","0198ee3c-27ac-7803-a9ea-f3b4ad4ad678","{""num_scrambled_semantic"":""8"",""num_scrambled_causal"":""4"",""num_scrambled_schematic"":""4"",""participantId"":""46C4DD283B6C4CBF824FA858A3E11BF7"",""assignmentId"":""0198ee42-a48f-7c5f-9f02-a0c1ce9a2492"",""projectId"":""0198ee3c-27ac-7803-a9ea-f3b4ad4ad678""}","https://test12345.live/?num_scrambled_semantic=8&num_scrambled_causal=4&num_scrambled_schematic=4&participantId=46C4DD283B6C4CBF824FA858A3E11BF7&assignmentId=0198ee42-a48f-7c5f-9f02-a0c1ce9a2492&projectId=0198ee3c-27ac-7803-a9ea-f3b4ad4ad678","46C4DD283B6C4CBF824FA858A3E11BF7-2025-08-28-02-22-54","","null","","[]","null","",""
"","","","","","image-button-response","110","689618","0.0-14.0-1.0-0.7","46C4DD283B6C4CBF824FA858A3E11BF7","46C4DD283B6C4CBF824FA858A3E11BF7","0198ee42-a48f-7c5f-9f02-a0c1ce9a2492","0198ee3c-27ac-7803-a9ea-f3b4ad4ad678","{""num_scrambled_semantic"":""8"",""num_scrambled_causal"":""4"",""num_scrambled_schematic"":""4"",""participantId"":""46C4DD283B6C4CBF824FA858A3E11BF7"",""assignmentId"":""0198ee42-a48f-7c5f-9f02-a0c1ce9a2492"",""projectId"":""0198ee3c-27ac-7803-a9ea-f3b4ad4ad678""}","https://test12345.live/?num_scrambled_semantic=8&num_scrambled_causal=4&num_scrambled_schematic=4&participantId=46C4DD283B6C4CBF824FA858A3E11BF7&assignmentId=0198ee42-a48f-7c5f-9f02-a0c1ce9a2492&projectId=0198ee3c-27ac-7803-a9ea-f3b4ad4ad678","46C4DD283B6C4CBF824FA858A3E11BF7-2025-08-28-02-22-54","","null","","images/schematic_sequence/restaurant_scheme/restaurant_scheme_8.png","null","",""
"","","","","","image-button-response","111","690938","0.0-14.0-1.0-1.7","46C4DD283B6C4CBF824FA858A3E11BF7","46C4DD283B6C4CBF824FA858A3E11BF7","0198ee42-a48f-7c5f-9f02-a0c1ce9a2492","0198ee3c-27ac-7803-a9ea-f3b4ad4ad678","{""num_scrambled_semantic"":""8"",""num_scrambled_causal"":""4"",""num_scrambled_schematic"":""4"",""participantId"":""46C4DD283B6C4CBF824FA858A3E11BF7"",""assignmentId"":""0198ee42-a48f-7c5f-9f02-a0c1ce9a2492"",""projectId"":""0198ee3c-27ac-7803-a9ea-f3b4ad4ad678""}","https://test12345.live/?num_scrambled_semantic=8&num_scrambled_causal=4&num_scrambled_schematic=4&participantId=46C4DD283B6C4CBF824FA858A3E11BF7&assignmentId=0198ee42-a48f-7c5f-9f02-a0c1ce9a2492&projectId=0198ee3c-27ac-7803-a9ea-f3b4ad4ad678","46C4DD283B6C4CBF824FA858A3E11BF7-2025-08-28-02-22-54","","1318","","images/schematic_sequence/restaurant_scheme/restaurant_scheme_8.png","1","",""
"","","","","","image-button-response","112","692747","0.0-14.0-1.0-2.7","46C4DD283B6C4CBF824FA858A3E11BF7","46C4DD283B6C4CBF824FA858A3E11BF7","0198ee42-a48f-7c5f-9f02-a0c1ce9a2492","0198ee3c-27ac-7803-a9ea-f3b4ad4ad678","{""num_scrambled_semantic"":""8"",""num_scrambled_causal"":""4"",""num_scrambled_schematic"":""4"",""participantId"":""46C4DD283B6C4CBF824FA858A3E11BF7"",""assignmentId"":""0198ee42-a48f-7c5f-9f02-a0c1ce9a2492"",""projectId"":""0198ee3c-27ac-7803-a9ea-f3b4ad4ad678""}","https://test12345.live/?num_scrambled_semantic=8&num_scrambled_causal=4&num_scrambled_schematic=4&participantId=46C4DD283B6C4CBF824FA858A3E11BF7&assignmentId=0198ee42-a48f-7c5f-9f02-a0c1ce9a2492&projectId=0198ee3c-27ac-7803-a9ea-f3b4ad4ad678","46C4DD283B6C4CBF824FA858A3E11BF7-2025-08-28-02-22-54","","null","","[]","null","",""
"","","","","","image-button-response","113","697262","0.0-14.0-1.0-0.8","46C4DD283B6C4CBF824FA858A3E11BF7","46C4DD283B6C4CBF824FA858A3E11BF7","0198ee42-a48f-7c5f-9f02-a0c1ce9a2492","0198ee3c-27ac-7803-a9ea-f3b4ad4ad678","{""num_scrambled_semantic"":""8"",""num_scrambled_causal"":""4"",""num_scrambled_schematic"":""4"",""participantId"":""46C4DD283B6C4CBF824FA858A3E11BF7"",""assignmentId"":""0198ee42-a48f-7c5f-9f02-a0c1ce9a2492"",""projectId"":""0198ee3c-27ac-7803-a9ea-f3b4ad4ad678""}","https://test12345.live/?num_scrambled_semantic=8&num_scrambled_causal=4&num_scrambled_schematic=4&participantId=46C4DD283B6C4CBF824FA858A3E11BF7&assignmentId=0198ee42-a48f-7c5f-9f02-a0c1ce9a2492&projectId=0198ee3c-27ac-7803-a9ea-f3b4ad4ad678","46C4DD283B6C4CBF824FA858A3E11BF7-2025-08-28-02-22-54","","null","","images/schematic_sequence/restaurant_scheme/restaurant_scheme_9.png","null","",""
