"success","timeout","failed_images","failed_audio","failed_video","trial_type","trial_index","time_elapsed","internal_node_id","subject","subject_id","study_id","session_id","urlvar","current_url","audio_id","view_history","rt","device_id","stimulus","response","estimated_stimulus_onset","seq_name"
"true","false","[]","[]","[]","preload","0","7046","0.0-0.0","46FD756618464BA6AA2CE07DA35F4263","46FD756618464BA6AA2CE07DA35F4263","0198ee58-42b6-7913-a0f3-7409f1dc76ec","0198ee3c-27ac-7803-a9ea-f3b4ad4ad678","{""num_scrambled_semantic"":""8"",""num_scrambled_causal"":""4"",""num_scrambled_schematic"":""4"",""participantId"":""46FD756618464BA6AA2CE07DA35F4263"",""assignmentId"":""0198ee58-42b6-7913-a0f3-7409f1dc76ec"",""projectId"":""0198ee3c-27ac-7803-a9ea-f3b4ad4ad678""}","https://test12345.live/?num_scrambled_semantic=8&num_scrambled_causal=4&num_scrambled_schematic=4&participantId=46FD756618464BA6AA2CE07DA35F4263&assignmentId=0198ee58-42b6-7913-a0f3-7409f1dc76ec&projectId=0198ee3c-27ac-7803-a9ea-f3b4ad4ad678","46FD756618464BA6AA2CE07DA35F4263-2025-08-28-02-35-23","","","","","","",""
"","","","","","instructions","1","38319","0.0-1.0","46FD756618464BA6AA2CE07DA35F4263","46FD756618464BA6AA2CE07DA35F4263","0198ee58-42b6-7913-a0f3-7409f1dc76ec","0198ee3c-27ac-7803-a9ea-f3b4ad4ad678","{""num_scrambled_semantic"":""8"",""num_scrambled_causal"":""4"",""num_scrambled_schematic"":""4"",""participantId"":""46FD756618464BA6AA2CE07DA35F4263"",""assignmentId"":""0198ee58-42b6-7913-a0f3-7409f1dc76ec"",""projectId"":""0198ee3c-27ac-7803-a9ea-f3b4ad4ad678""}","https://test12345.live/?num_scrambled_semantic=8&num_scrambled_causal=4&num_scrambled_schematic=4&participantId=46FD756618464BA6AA2CE07DA35F4263&assignmentId=0198ee58-42b6-7913-a0f3-7409f1dc76ec&projectId=0198ee3c-27ac-7803-a9ea-f3b4ad4ad678","46FD756618464BA6AA2CE07DA35F4263-2025-08-28-02-35-23","[{""page_index"":0,""viewing_time"":31272}]","31272","","","","",""
"","","","","","instructions","2","47151","0.0-2.0","46FD756618464BA6AA2CE07DA35F4263","46FD756618464BA6AA2CE07DA35F4263","0198ee58-42b6-7913-a0f3-7409f1dc76ec","0198ee3c-27ac-7803-a9ea-f3b4ad4ad678","{""num_scrambled_semantic"":""8"",""num_scrambled_causal"":""4"",""num_scrambled_schematic"":""4"",""participantId"":""46FD756618464BA6AA2CE07DA35F4263"",""assignmentId"":""0198ee58-42b6-7913-a0f3-7409f1dc76ec"",""projectId"":""0198ee3c-27ac-7803-a9ea-f3b4ad4ad678""}","https://test12345.live/?num_scrambled_semantic=8&num_scrambled_causal=4&num_scrambled_schematic=4&participantId=46FD756618464BA6AA2CE07DA35F4263&assignmentId=0198ee58-42b6-7913-a0f3-7409f1dc76ec&projectId=0198ee3c-27ac-7803-a9ea-f3b4ad4ad678","46FD756618464BA6AA2CE07DA35F4263-2025-08-28-02-35-23","[{""page_index"":0,""viewing_time"":8831}]","8831","","","","",""
"true","","","","","fullscreen","3","51033","0.0-3.0","46FD756618464BA6AA2CE07DA35F4263","46FD756618464BA6AA2CE07DA35F4263","0198ee58-42b6-7913-a0f3-7409f1dc76ec","0198ee3c-27ac-7803-a9ea-f3b4ad4ad678","{""num_scrambled_semantic"":""8"",""num_scrambled_causal"":""4"",""num_scrambled_schematic"":""4"",""participantId"":""46FD756618464BA6AA2CE07DA35F4263"",""assignmentId"":""0198ee58-42b6-7913-a0f3-7409f1dc76ec"",""projectId"":""0198ee3c-27ac-7803-a9ea-f3b4ad4ad678""}","https://test12345.live/?num_scrambled_semantic=8&num_scrambled_causal=4&num_scrambled_schematic=4&participantId=46FD756618464BA6AA2CE07DA35F4263&assignmentId=0198ee58-42b6-7913-a0f3-7409f1dc76ec&projectId=0198ee3c-27ac-7803-a9ea-f3b4ad4ad678","46FD756618464BA6AA2CE07DA35F4263-2025-08-28-02-35-23","","2867","","","","",""
"","","","","","initialize-microphone","4","57494","0.0-4.0-0.0","46FD756618464BA6AA2CE07DA35F4263","46FD756618464BA6AA2CE07DA35F4263","0198ee58-42b6-7913-a0f3-7409f1dc76ec","0198ee3c-27ac-7803-a9ea-f3b4ad4ad678","{""num_scrambled_semantic"":""8"",""num_scrambled_causal"":""4"",""num_scrambled_schematic"":""4"",""participantId"":""46FD756618464BA6AA2CE07DA35F4263"",""assignmentId"":""0198ee58-42b6-7913-a0f3-7409f1dc76ec"",""projectId"":""0198ee3c-27ac-7803-a9ea-f3b4ad4ad678""}","https://test12345.live/?num_scrambled_semantic=8&num_scrambled_causal=4&num_scrambled_schematic=4&participantId=46FD756618464BA6AA2CE07DA35F4263&assignmentId=0198ee58-42b6-7913-a0f3-7409f1dc76ec&projectId=0198ee3c-27ac-7803-a9ea-f3b4ad4ad678","46FD756618464BA6AA2CE07DA35F4263-2025-08-28-02-35-23","","","afb55ab36a25f276f509de08e083172701c00c13fae437b91ff2589854fdb6bf","","","",""
"","","","","","html-audio-response","5","68719","0.0-4.0-1.0","46FD756618464BA6AA2CE07DA35F4263","46FD756618464BA6AA2CE07DA35F4263","0198ee58-42b6-7913-a0f3-7409f1dc76ec","0198ee3c-27ac-7803-a9ea-f3b4ad4ad678","{""num_scrambled_semantic"":""8"",""num_scrambled_causal"":""4"",""num_scrambled_schematic"":""4"",""participantId"":""46FD756618464BA6AA2CE07DA35F4263"",""assignmentId"":""0198ee58-42b6-7913-a0f3-7409f1dc76ec"",""projectId"":""0198ee3c-27ac-7803-a9ea-f3b4ad4ad678""}","https://test12345.live/?num_scrambled_semantic=8&num_scrambled_causal=4&num_scrambled_schematic=4&participantId=46FD756618464BA6AA2CE07DA35F4263&assignmentId=0198ee58-42b6-7913-a0f3-7409f1dc76ec&projectId=0198ee3c-27ac-7803-a9ea-f3b4ad4ad678","46FD756618464BA6AA2CE07DA35F4263-2025-08-28-02-35-23","","4815","","<span style=""color: red; font-size: 24px""> NOW RECORDING</span>
        <p>Please test Microphone</p>","","4",""
"","","","","","html-button-response","6","70571","0.0-4.0-2.0","46FD756618464BA6AA2CE07DA35F4263","46FD756618464BA6AA2CE07DA35F4263","0198ee58-42b6-7913-a0f3-7409f1dc76ec","0198ee3c-27ac-7803-a9ea-f3b4ad4ad678","{""num_scrambled_semantic"":""8"",""num_scrambled_causal"":""4"",""num_scrambled_schematic"":""4"",""participantId"":""46FD756618464BA6AA2CE07DA35F4263"",""assignmentId"":""0198ee58-42b6-7913-a0f3-7409f1dc76ec"",""projectId"":""0198ee3c-27ac-7803-a9ea-f3b4ad4ad678""}","https://test12345.live/?num_scrambled_semantic=8&num_scrambled_causal=4&num_scrambled_schematic=4&participantId=46FD756618464BA6AA2CE07DA35F4263&assignmentId=0198ee58-42b6-7913-a0f3-7409f1dc76ec&projectId=0198ee3c-27ac-7803-a9ea-f3b4ad4ad678","46FD756618464BA6AA2CE07DA35F4263-2025-08-28-02-35-23","","1851","","<p style=""font-size:48px; color:red;"">Is Microphone OK?</p>","1","",""
"","","","","","instructions","7","74846","0.0-5.0","46FD756618464BA6AA2CE07DA35F4263","46FD756618464BA6AA2CE07DA35F4263","0198ee58-42b6-7913-a0f3-7409f1dc76ec","0198ee3c-27ac-7803-a9ea-f3b4ad4ad678","{""num_scrambled_semantic"":""8"",""num_scrambled_causal"":""4"",""num_scrambled_schematic"":""4"",""participantId"":""46FD756618464BA6AA2CE07DA35F4263"",""assignmentId"":""0198ee58-42b6-7913-a0f3-7409f1dc76ec"",""projectId"":""0198ee3c-27ac-7803-a9ea-f3b4ad4ad678""}","https://test12345.live/?num_scrambled_semantic=8&num_scrambled_causal=4&num_scrambled_schematic=4&participantId=46FD756618464BA6AA2CE07DA35F4263&assignmentId=0198ee58-42b6-7913-a0f3-7409f1dc76ec&projectId=0198ee3c-27ac-7803-a9ea-f3b4ad4ad678","46FD756618464BA6AA2CE07DA35F4263-2025-08-28-02-35-23","[{""page_index"":0,""viewing_time"":2583},{""page_index"":1,""viewing_time"":1692}]","4275","","","","",""
"","","","","","image-button-response","8","80849","0.0-6.0-0.0","46FD756618464BA6AA2CE07DA35F4263","46FD756618464BA6AA2CE07DA35F4263","0198ee58-42b6-7913-a0f3-7409f1dc76ec","0198ee3c-27ac-7803-a9ea-f3b4ad4ad678","{""num_scrambled_semantic"":""8"",""num_scrambled_causal"":""4"",""num_scrambled_schematic"":""4"",""participantId"":""46FD756618464BA6AA2CE07DA35F4263"",""assignmentId"":""0198ee58-42b6-7913-a0f3-7409f1dc76ec"",""projectId"":""0198ee3c-27ac-7803-a9ea-f3b4ad4ad678""}","https://test12345.live/?num_scrambled_semantic=8&num_scrambled_causal=4&num_scrambled_schematic=4&participantId=46FD756618464BA6AA2CE07DA35F4263&assignmentId=0198ee58-42b6-7913-a0f3-7409f1dc76ec&projectId=0198ee3c-27ac-7803-a9ea-f3b4ad4ad678","46FD756618464BA6AA2CE07DA35F4263-2025-08-28-02-35-23","","null","","images/instructions/movie_0.png","null","",""
"","","","","","image-button-response","9","85352","0.0-6.0-1.0-0.0","46FD756618464BA6AA2CE07DA35F4263","46FD756618464BA6AA2CE07DA35F4263","0198ee58-42b6-7913-a0f3-7409f1dc76ec","0198ee3c-27ac-7803-a9ea-f3b4ad4ad678","{""num_scrambled_semantic"":""8"",""num_scrambled_causal"":""4"",""num_scrambled_schematic"":""4"",""participantId"":""46FD756618464BA6AA2CE07DA35F4263"",""assignmentId"":""0198ee58-42b6-7913-a0f3-7409f1dc76ec"",""projectId"":""0198ee3c-27ac-7803-a9ea-f3b4ad4ad678""}","https://test12345.live/?num_scrambled_semantic=8&num_scrambled_causal=4&num_scrambled_schematic=4&participantId=46FD756618464BA6AA2CE07DA35F4263&assignmentId=0198ee58-42b6-7913-a0f3-7409f1dc76ec&projectId=0198ee3c-27ac-7803-a9ea-f3b4ad4ad678","46FD756618464BA6AA2CE07DA35F4263-2025-08-28-02-35-23","","null","","images/instructions/movie_1.png","null","",""
"","","","","","image-button-response","10","89356","0.0-6.0-1.0-1.0","46FD756618464BA6AA2CE07DA35F4263","46FD756618464BA6AA2CE07DA35F4263","0198ee58-42b6-7913-a0f3-7409f1dc76ec","0198ee3c-27ac-7803-a9ea-f3b4ad4ad678","{""num_scrambled_semantic"":""8"",""num_scrambled_causal"":""4"",""num_scrambled_schematic"":""4"",""participantId"":""46FD756618464BA6AA2CE07DA35F4263"",""assignmentId"":""0198ee58-42b6-7913-a0f3-7409f1dc76ec"",""projectId"":""0198ee3c-27ac-7803-a9ea-f3b4ad4ad678""}","https://test12345.live/?num_scrambled_semantic=8&num_scrambled_causal=4&num_scrambled_schematic=4&participantId=46FD756618464BA6AA2CE07DA35F4263&assignmentId=0198ee58-42b6-7913-a0f3-7409f1dc76ec&projectId=0198ee3c-27ac-7803-a9ea-f3b4ad4ad678","46FD756618464BA6AA2CE07DA35F4263-2025-08-28-02-35-23","","null","","images/instructions/movie_1.png","null","",""
"","","","","","image-button-response","11","91159","0.0-6.0-1.0-2.0","46FD756618464BA6AA2CE07DA35F4263","46FD756618464BA6AA2CE07DA35F4263","0198ee58-42b6-7913-a0f3-7409f1dc76ec","0198ee3c-27ac-7803-a9ea-f3b4ad4ad678","{""num_scrambled_semantic"":""8"",""num_scrambled_causal"":""4"",""num_scrambled_schematic"":""4"",""participantId"":""46FD756618464BA6AA2CE07DA35F4263"",""assignmentId"":""0198ee58-42b6-7913-a0f3-7409f1dc76ec"",""projectId"":""0198ee3c-27ac-7803-a9ea-f3b4ad4ad678""}","https://test12345.live/?num_scrambled_semantic=8&num_scrambled_causal=4&num_scrambled_schematic=4&participantId=46FD756618464BA6AA2CE07DA35F4263&assignmentId=0198ee58-42b6-7913-a0f3-7409f1dc76ec&projectId=0198ee3c-27ac-7803-a9ea-f3b4ad4ad678","46FD756618464BA6AA2CE07DA35F4263-2025-08-28-02-35-23","","null","","[]","null","",""
"","","","","","image-button-response","12","95663","0.0-6.0-1.0-0.1","46FD756618464BA6AA2CE07DA35F4263","46FD756618464BA6AA2CE07DA35F4263","0198ee58-42b6-7913-a0f3-7409f1dc76ec","0198ee3c-27ac-7803-a9ea-f3b4ad4ad678","{""num_scrambled_semantic"":""8"",""num_scrambled_causal"":""4"",""num_scrambled_schematic"":""4"",""participantId"":""46FD756618464BA6AA2CE07DA35F4263"",""assignmentId"":""0198ee58-42b6-7913-a0f3-7409f1dc76ec"",""projectId"":""0198ee3c-27ac-7803-a9ea-f3b4ad4ad678""}","https://test12345.live/?num_scrambled_semantic=8&num_scrambled_causal=4&num_scrambled_schematic=4&participantId=46FD756618464BA6AA2CE07DA35F4263&assignmentId=0198ee58-42b6-7913-a0f3-7409f1dc76ec&projectId=0198ee3c-27ac-7803-a9ea-f3b4ad4ad678","46FD756618464BA6AA2CE07DA35F4263-2025-08-28-02-35-23","","null","","images/instructions/movie_2.png","null","",""
"","","","","","image-button-response","13","97743","0.0-6.0-1.0-1.1","46FD756618464BA6AA2CE07DA35F4263","46FD756618464BA6AA2CE07DA35F4263","0198ee58-42b6-7913-a0f3-7409f1dc76ec","0198ee3c-27ac-7803-a9ea-f3b4ad4ad678","{""num_scrambled_semantic"":""8"",""num_scrambled_causal"":""4"",""num_scrambled_schematic"":""4"",""participantId"":""46FD756618464BA6AA2CE07DA35F4263"",""assignmentId"":""0198ee58-42b6-7913-a0f3-7409f1dc76ec"",""projectId"":""0198ee3c-27ac-7803-a9ea-f3b4ad4ad678""}","https://test12345.live/?num_scrambled_semantic=8&num_scrambled_causal=4&num_scrambled_schematic=4&participantId=46FD756618464BA6AA2CE07DA35F4263&assignmentId=0198ee58-42b6-7913-a0f3-7409f1dc76ec&projectId=0198ee3c-27ac-7803-a9ea-f3b4ad4ad678","46FD756618464BA6AA2CE07DA35F4263-2025-08-28-02-35-23","","2077","","images/instructions/movie_2.png","1","",""
"","","","","","image-button-response","14","99545","0.0-6.0-1.0-2.1","46FD756618464BA6AA2CE07DA35F4263","46FD756618464BA6AA2CE07DA35F4263","0198ee58-42b6-7913-a0f3-7409f1dc76ec","0198ee3c-27ac-7803-a9ea-f3b4ad4ad678","{""num_scrambled_semantic"":""8"",""num_scrambled_causal"":""4"",""num_scrambled_schematic"":""4"",""participantId"":""46FD756618464BA6AA2CE07DA35F4263"",""assignmentId"":""0198ee58-42b6-7913-a0f3-7409f1dc76ec"",""projectId"":""0198ee3c-27ac-7803-a9ea-f3b4ad4ad678""}","https://test12345.live/?num_scrambled_semantic=8&num_scrambled_causal=4&num_scrambled_schematic=4&participantId=46FD756618464BA6AA2CE07DA35F4263&assignmentId=0198ee58-42b6-7913-a0f3-7409f1dc76ec&projectId=0198ee3c-27ac-7803-a9ea-f3b4ad4ad678","46FD756618464BA6AA2CE07DA35F4263-2025-08-28-02-35-23","","null","","[]","null","",""
"","","","","","image-button-response","15","104047","0.0-6.0-1.0-0.2","46FD756618464BA6AA2CE07DA35F4263","46FD756618464BA6AA2CE07DA35F4263","0198ee58-42b6-7913-a0f3-7409f1dc76ec","0198ee3c-27ac-7803-a9ea-f3b4ad4ad678","{""num_scrambled_semantic"":""8"",""num_scrambled_causal"":""4"",""num_scrambled_schematic"":""4"",""participantId"":""46FD756618464BA6AA2CE07DA35F4263"",""assignmentId"":""0198ee58-42b6-7913-a0f3-7409f1dc76ec"",""projectId"":""0198ee3c-27ac-7803-a9ea-f3b4ad4ad678""}","https://test12345.live/?num_scrambled_semantic=8&num_scrambled_causal=4&num_scrambled_schematic=4&participantId=46FD756618464BA6AA2CE07DA35F4263&assignmentId=0198ee58-42b6-7913-a0f3-7409f1dc76ec&projectId=0198ee3c-27ac-7803-a9ea-f3b4ad4ad678","46FD756618464BA6AA2CE07DA35F4263-2025-08-28-02-35-23","","null","","images/instructions/movie_3.png","null","",""
"","","","","","image-button-response","16","105395","0.0-6.0-1.0-1.2","46FD756618464BA6AA2CE07DA35F4263","46FD756618464BA6AA2CE07DA35F4263","0198ee58-42b6-7913-a0f3-7409f1dc76ec","0198ee3c-27ac-7803-a9ea-f3b4ad4ad678","{""num_scrambled_semantic"":""8"",""num_scrambled_causal"":""4"",""num_scrambled_schematic"":""4"",""participantId"":""46FD756618464BA6AA2CE07DA35F4263"",""assignmentId"":""0198ee58-42b6-7913-a0f3-7409f1dc76ec"",""projectId"":""0198ee3c-27ac-7803-a9ea-f3b4ad4ad678""}","https://test12345.live/?num_scrambled_semantic=8&num_scrambled_causal=4&num_scrambled_schematic=4&participantId=46FD756618464BA6AA2CE07DA35F4263&assignmentId=0198ee58-42b6-7913-a0f3-7409f1dc76ec&projectId=0198ee3c-27ac-7803-a9ea-f3b4ad4ad678","46FD756618464BA6AA2CE07DA35F4263-2025-08-28-02-35-23","","1345","","images/instructions/movie_3.png","0","",""
"","","","","","image-button-response","17","107197","0.0-6.0-1.0-2.2","46FD756618464BA6AA2CE07DA35F4263","46FD756618464BA6AA2CE07DA35F4263","0198ee58-42b6-7913-a0f3-7409f1dc76ec","0198ee3c-27ac-7803-a9ea-f3b4ad4ad678","{""num_scrambled_semantic"":""8"",""num_scrambled_causal"":""4"",""num_scrambled_schematic"":""4"",""participantId"":""46FD756618464BA6AA2CE07DA35F4263"",""assignmentId"":""0198ee58-42b6-7913-a0f3-7409f1dc76ec"",""projectId"":""0198ee3c-27ac-7803-a9ea-f3b4ad4ad678""}","https://test12345.live/?num_scrambled_semantic=8&num_scrambled_causal=4&num_scrambled_schematic=4&participantId=46FD756618464BA6AA2CE07DA35F4263&assignmentId=0198ee58-42b6-7913-a0f3-7409f1dc76ec&projectId=0198ee3c-27ac-7803-a9ea-f3b4ad4ad678","46FD756618464BA6AA2CE07DA35F4263-2025-08-28-02-35-23","","null","","[]","null","",""
"","","","","","image-button-response","18","111699","0.0-6.0-1.0-0.3","46FD756618464BA6AA2CE07DA35F4263","46FD756618464BA6AA2CE07DA35F4263","0198ee58-42b6-7913-a0f3-7409f1dc76ec","0198ee3c-27ac-7803-a9ea-f3b4ad4ad678","{""num_scrambled_semantic"":""8"",""num_scrambled_causal"":""4"",""num_scrambled_schematic"":""4"",""participantId"":""46FD756618464BA6AA2CE07DA35F4263"",""assignmentId"":""0198ee58-42b6-7913-a0f3-7409f1dc76ec"",""projectId"":""0198ee3c-27ac-7803-a9ea-f3b4ad4ad678""}","https://test12345.live/?num_scrambled_semantic=8&num_scrambled_causal=4&num_scrambled_schematic=4&participantId=46FD756618464BA6AA2CE07DA35F4263&assignmentId=0198ee58-42b6-7913-a0f3-7409f1dc76ec&projectId=0198ee3c-27ac-7803-a9ea-f3b4ad4ad678","46FD756618464BA6AA2CE07DA35F4263-2025-08-28-02-35-23","","null","","images/instructions/movie_4.png","null","",""
"","","","","","image-button-response","19","112866","0.0-6.0-1.0-1.3","46FD756618464BA6AA2CE07DA35F4263","46FD756618464BA6AA2CE07DA35F4263","0198ee58-42b6-7913-a0f3-7409f1dc76ec","0198ee3c-27ac-7803-a9ea-f3b4ad4ad678","{""num_scrambled_semantic"":""8"",""num_scrambled_causal"":""4"",""num_scrambled_schematic"":""4"",""participantId"":""46FD756618464BA6AA2CE07DA35F4263"",""assignmentId"":""0198ee58-42b6-7913-a0f3-7409f1dc76ec"",""projectId"":""0198ee3c-27ac-7803-a9ea-f3b4ad4ad678""}","https://test12345.live/?num_scrambled_semantic=8&num_scrambled_causal=4&num_scrambled_schematic=4&participantId=46FD756618464BA6AA2CE07DA35F4263&assignmentId=0198ee58-42b6-7913-a0f3-7409f1dc76ec&projectId=0198ee3c-27ac-7803-a9ea-f3b4ad4ad678","46FD756618464BA6AA2CE07DA35F4263-2025-08-28-02-35-23","","1165","","images/instructions/movie_4.png","0","",""
"","","","","","image-button-response","20","114668","0.0-6.0-1.0-2.3","46FD756618464BA6AA2CE07DA35F4263","46FD756618464BA6AA2CE07DA35F4263","0198ee58-42b6-7913-a0f3-7409f1dc76ec","0198ee3c-27ac-7803-a9ea-f3b4ad4ad678","{""num_scrambled_semantic"":""8"",""num_scrambled_causal"":""4"",""num_scrambled_schematic"":""4"",""participantId"":""46FD756618464BA6AA2CE07DA35F4263"",""assignmentId"":""0198ee58-42b6-7913-a0f3-7409f1dc76ec"",""projectId"":""0198ee3c-27ac-7803-a9ea-f3b4ad4ad678""}","https://test12345.live/?num_scrambled_semantic=8&num_scrambled_causal=4&num_scrambled_schematic=4&participantId=46FD756618464BA6AA2CE07DA35F4263&assignmentId=0198ee58-42b6-7913-a0f3-7409f1dc76ec&projectId=0198ee3c-27ac-7803-a9ea-f3b4ad4ad678","46FD756618464BA6AA2CE07DA35F4263-2025-08-28-02-35-23","","null","","[]","null","",""
"","","","","","instructions","21","124106","0.0-7.0","46FD756618464BA6AA2CE07DA35F4263","46FD756618464BA6AA2CE07DA35F4263","0198ee58-42b6-7913-a0f3-7409f1dc76ec","0198ee3c-27ac-7803-a9ea-f3b4ad4ad678","{""num_scrambled_semantic"":""8"",""num_scrambled_causal"":""4"",""num_scrambled_schematic"":""4"",""participantId"":""46FD756618464BA6AA2CE07DA35F4263"",""assignmentId"":""0198ee58-42b6-7913-a0f3-7409f1dc76ec"",""projectId"":""0198ee3c-27ac-7803-a9ea-f3b4ad4ad678""}","https://test12345.live/?num_scrambled_semantic=8&num_scrambled_causal=4&num_scrambled_schematic=4&participantId=46FD756618464BA6AA2CE07DA35F4263&assignmentId=0198ee58-42b6-7913-a0f3-7409f1dc76ec&projectId=0198ee3c-27ac-7803-a9ea-f3b4ad4ad678","46FD756618464BA6AA2CE07DA35F4263-2025-08-28-02-35-23","[{""page_index"":0,""viewing_time"":9438}]","9438","","","","",""
"","","","","","html-audio-response","22","164643","0.0-8.0","46FD756618464BA6AA2CE07DA35F4263","46FD756618464BA6AA2CE07DA35F4263","0198ee58-42b6-7913-a0f3-7409f1dc76ec","0198ee3c-27ac-7803-a9ea-f3b4ad4ad678","{""num_scrambled_semantic"":""8"",""num_scrambled_causal"":""4"",""num_scrambled_schematic"":""4"",""participantId"":""46FD756618464BA6AA2CE07DA35F4263"",""assignmentId"":""0198ee58-42b6-7913-a0f3-7409f1dc76ec"",""projectId"":""0198ee3c-27ac-7803-a9ea-f3b4ad4ad678""}","https://test12345.live/?num_scrambled_semantic=8&num_scrambled_causal=4&num_scrambled_schematic=4&participantId=46FD756618464BA6AA2CE07DA35F4263&assignmentId=0198ee58-42b6-7913-a0f3-7409f1dc76ec&projectId=0198ee3c-27ac-7803-a9ea-f3b4ad4ad678","46FD756618464BA6AA2CE07DA35F4263-2025-08-28-02-35-23","","13312","","[""<span style=\""color: red; font-size: 24px\""> NOW RECORDING</span><p>Please say out loud all the images you saw, in the order of the story they create. Try to recall the sequence of events as they appeared in the story, not necessarily the order they were presented on the screen.</p>""]","","3",""
"","","","","","instructions","23","166102","0.0-9.0","46FD756618464BA6AA2CE07DA35F4263","46FD756618464BA6AA2CE07DA35F4263","0198ee58-42b6-7913-a0f3-7409f1dc76ec","0198ee3c-27ac-7803-a9ea-f3b4ad4ad678","{""num_scrambled_semantic"":""8"",""num_scrambled_causal"":""4"",""num_scrambled_schematic"":""4"",""participantId"":""46FD756618464BA6AA2CE07DA35F4263"",""assignmentId"":""0198ee58-42b6-7913-a0f3-7409f1dc76ec"",""projectId"":""0198ee3c-27ac-7803-a9ea-f3b4ad4ad678""}","https://test12345.live/?num_scrambled_semantic=8&num_scrambled_causal=4&num_scrambled_schematic=4&participantId=46FD756618464BA6AA2CE07DA35F4263&assignmentId=0198ee58-42b6-7913-a0f3-7409f1dc76ec&projectId=0198ee3c-27ac-7803-a9ea-f3b4ad4ad678","46FD756618464BA6AA2CE07DA35F4263-2025-08-28-02-35-23","[{""page_index"":0,""viewing_time"":1455}]","1455","","","","",""
"","","","","","image-button-response","24","172106","0.0-10.0-0.0","46FD756618464BA6AA2CE07DA35F4263","46FD756618464BA6AA2CE07DA35F4263","0198ee58-42b6-7913-a0f3-7409f1dc76ec","0198ee3c-27ac-7803-a9ea-f3b4ad4ad678","{""num_scrambled_semantic"":""8"",""num_scrambled_causal"":""4"",""num_scrambled_schematic"":""4"",""participantId"":""46FD756618464BA6AA2CE07DA35F4263"",""assignmentId"":""0198ee58-42b6-7913-a0f3-7409f1dc76ec"",""projectId"":""0198ee3c-27ac-7803-a9ea-f3b4ad4ad678""}","https://test12345.live/?num_scrambled_semantic=8&num_scrambled_causal=4&num_scrambled_schematic=4&participantId=46FD756618464BA6AA2CE07DA35F4263&assignmentId=0198ee58-42b6-7913-a0f3-7409f1dc76ec&projectId=0198ee3c-27ac-7803-a9ea-f3b4ad4ad678","46FD756618464BA6AA2CE07DA35F4263-2025-08-28-02-35-23","","null","","images/schematic_sequence/flight_scheme/flight_scheme_0.png","null","",""
"","","","","","image-button-response","25","176609","0.0-10.0-1.0-0.0","46FD756618464BA6AA2CE07DA35F4263","46FD756618464BA6AA2CE07DA35F4263","0198ee58-42b6-7913-a0f3-7409f1dc76ec","0198ee3c-27ac-7803-a9ea-f3b4ad4ad678","{""num_scrambled_semantic"":""8"",""num_scrambled_causal"":""4"",""num_scrambled_schematic"":""4"",""participantId"":""46FD756618464BA6AA2CE07DA35F4263"",""assignmentId"":""0198ee58-42b6-7913-a0f3-7409f1dc76ec"",""projectId"":""0198ee3c-27ac-7803-a9ea-f3b4ad4ad678""}","https://test12345.live/?num_scrambled_semantic=8&num_scrambled_causal=4&num_scrambled_schematic=4&participantId=46FD756618464BA6AA2CE07DA35F4263&assignmentId=0198ee58-42b6-7913-a0f3-7409f1dc76ec&projectId=0198ee3c-27ac-7803-a9ea-f3b4ad4ad678","46FD756618464BA6AA2CE07DA35F4263-2025-08-28-02-35-23","","null","","images/schematic_sequence/flight_scheme/flight_scheme_1.png","null","",""
"","","","","","image-button-response","26","179438","0.0-10.0-1.0-1.0","46FD756618464BA6AA2CE07DA35F4263","46FD756618464BA6AA2CE07DA35F4263","0198ee58-42b6-7913-a0f3-7409f1dc76ec","0198ee3c-27ac-7803-a9ea-f3b4ad4ad678","{""num_scrambled_semantic"":""8"",""num_scrambled_causal"":""4"",""num_scrambled_schematic"":""4"",""participantId"":""46FD756618464BA6AA2CE07DA35F4263"",""assignmentId"":""0198ee58-42b6-7913-a0f3-7409f1dc76ec"",""projectId"":""0198ee3c-27ac-7803-a9ea-f3b4ad4ad678""}","https://test12345.live/?num_scrambled_semantic=8&num_scrambled_causal=4&num_scrambled_schematic=4&participantId=46FD756618464BA6AA2CE07DA35F4263&assignmentId=0198ee58-42b6-7913-a0f3-7409f1dc76ec&projectId=0198ee3c-27ac-7803-a9ea-f3b4ad4ad678","46FD756618464BA6AA2CE07DA35F4263-2025-08-28-02-35-23","","2827","","images/schematic_sequence/flight_scheme/flight_scheme_1.png","1","",""
"","","","","","image-button-response","27","181241","0.0-10.0-1.0-2.0","46FD756618464BA6AA2CE07DA35F4263","46FD756618464BA6AA2CE07DA35F4263","0198ee58-42b6-7913-a0f3-7409f1dc76ec","0198ee3c-27ac-7803-a9ea-f3b4ad4ad678","{""num_scrambled_semantic"":""8"",""num_scrambled_causal"":""4"",""num_scrambled_schematic"":""4"",""participantId"":""46FD756618464BA6AA2CE07DA35F4263"",""assignmentId"":""0198ee58-42b6-7913-a0f3-7409f1dc76ec"",""projectId"":""0198ee3c-27ac-7803-a9ea-f3b4ad4ad678""}","https://test12345.live/?num_scrambled_semantic=8&num_scrambled_causal=4&num_scrambled_schematic=4&participantId=46FD756618464BA6AA2CE07DA35F4263&assignmentId=0198ee58-42b6-7913-a0f3-7409f1dc76ec&projectId=0198ee3c-27ac-7803-a9ea-f3b4ad4ad678","46FD756618464BA6AA2CE07DA35F4263-2025-08-28-02-35-23","","null","","[]","null","",""
"","","","","","image-button-response","28","185744","0.0-10.0-1.0-0.1","46FD756618464BA6AA2CE07DA35F4263","46FD756618464BA6AA2CE07DA35F4263","0198ee58-42b6-7913-a0f3-7409f1dc76ec","0198ee3c-27ac-7803-a9ea-f3b4ad4ad678","{""num_scrambled_semantic"":""8"",""num_scrambled_causal"":""4"",""num_scrambled_schematic"":""4"",""participantId"":""46FD756618464BA6AA2CE07DA35F4263"",""assignmentId"":""0198ee58-42b6-7913-a0f3-7409f1dc76ec"",""projectId"":""0198ee3c-27ac-7803-a9ea-f3b4ad4ad678""}","https://test12345.live/?num_scrambled_semantic=8&num_scrambled_causal=4&num_scrambled_schematic=4&participantId=46FD756618464BA6AA2CE07DA35F4263&assignmentId=0198ee58-42b6-7913-a0f3-7409f1dc76ec&projectId=0198ee3c-27ac-7803-a9ea-f3b4ad4ad678","46FD756618464BA6AA2CE07DA35F4263-2025-08-28-02-35-23","","null","","images/schematic_sequence/flight_scheme/flight_scheme_2.png","null","",""
"","","","","","image-button-response","29","187483","0.0-10.0-1.0-1.1","46FD756618464BA6AA2CE07DA35F4263","46FD756618464BA6AA2CE07DA35F4263","0198ee58-42b6-7913-a0f3-7409f1dc76ec","0198ee3c-27ac-7803-a9ea-f3b4ad4ad678","{""num_scrambled_semantic"":""8"",""num_scrambled_causal"":""4"",""num_scrambled_schematic"":""4"",""participantId"":""46FD756618464BA6AA2CE07DA35F4263"",""assignmentId"":""0198ee58-42b6-7913-a0f3-7409f1dc76ec"",""projectId"":""0198ee3c-27ac-7803-a9ea-f3b4ad4ad678""}","https://test12345.live/?num_scrambled_semantic=8&num_scrambled_causal=4&num_scrambled_schematic=4&participantId=46FD756618464BA6AA2CE07DA35F4263&assignmentId=0198ee58-42b6-7913-a0f3-7409f1dc76ec&projectId=0198ee3c-27ac-7803-a9ea-f3b4ad4ad678","46FD756618464BA6AA2CE07DA35F4263-2025-08-28-02-35-23","","1737","","images/schematic_sequence/flight_scheme/flight_scheme_2.png","1","",""
"","","","","","image-button-response","30","189285","0.0-10.0-1.0-2.1","46FD756618464BA6AA2CE07DA35F4263","46FD756618464BA6AA2CE07DA35F4263","0198ee58-42b6-7913-a0f3-7409f1dc76ec","0198ee3c-27ac-7803-a9ea-f3b4ad4ad678","{""num_scrambled_semantic"":""8"",""num_scrambled_causal"":""4"",""num_scrambled_schematic"":""4"",""participantId"":""46FD756618464BA6AA2CE07DA35F4263"",""assignmentId"":""0198ee58-42b6-7913-a0f3-7409f1dc76ec"",""projectId"":""0198ee3c-27ac-7803-a9ea-f3b4ad4ad678""}","https://test12345.live/?num_scrambled_semantic=8&num_scrambled_causal=4&num_scrambled_schematic=4&participantId=46FD756618464BA6AA2CE07DA35F4263&assignmentId=0198ee58-42b6-7913-a0f3-7409f1dc76ec&projectId=0198ee3c-27ac-7803-a9ea-f3b4ad4ad678","46FD756618464BA6AA2CE07DA35F4263-2025-08-28-02-35-23","","null","","[]","null","",""
"","","","","","image-button-response","31","193787","0.0-10.0-1.0-0.2","46FD756618464BA6AA2CE07DA35F4263","46FD756618464BA6AA2CE07DA35F4263","0198ee58-42b6-7913-a0f3-7409f1dc76ec","0198ee3c-27ac-7803-a9ea-f3b4ad4ad678","{""num_scrambled_semantic"":""8"",""num_scrambled_causal"":""4"",""num_scrambled_schematic"":""4"",""participantId"":""46FD756618464BA6AA2CE07DA35F4263"",""assignmentId"":""0198ee58-42b6-7913-a0f3-7409f1dc76ec"",""projectId"":""0198ee3c-27ac-7803-a9ea-f3b4ad4ad678""}","https://test12345.live/?num_scrambled_semantic=8&num_scrambled_causal=4&num_scrambled_schematic=4&participantId=46FD756618464BA6AA2CE07DA35F4263&assignmentId=0198ee58-42b6-7913-a0f3-7409f1dc76ec&projectId=0198ee3c-27ac-7803-a9ea-f3b4ad4ad678","46FD756618464BA6AA2CE07DA35F4263-2025-08-28-02-35-23","","null","","images/schematic_sequence/flight_scheme/flight_scheme_3.png","null","",""
"","","","","","image-button-response","32","195214","0.0-10.0-1.0-1.2","46FD756618464BA6AA2CE07DA35F4263","46FD756618464BA6AA2CE07DA35F4263","0198ee58-42b6-7913-a0f3-7409f1dc76ec","0198ee3c-27ac-7803-a9ea-f3b4ad4ad678","{""num_scrambled_semantic"":""8"",""num_scrambled_causal"":""4"",""num_scrambled_schematic"":""4"",""participantId"":""46FD756618464BA6AA2CE07DA35F4263"",""assignmentId"":""0198ee58-42b6-7913-a0f3-7409f1dc76ec"",""projectId"":""0198ee3c-27ac-7803-a9ea-f3b4ad4ad678""}","https://test12345.live/?num_scrambled_semantic=8&num_scrambled_causal=4&num_scrambled_schematic=4&participantId=46FD756618464BA6AA2CE07DA35F4263&assignmentId=0198ee58-42b6-7913-a0f3-7409f1dc76ec&projectId=0198ee3c-27ac-7803-a9ea-f3b4ad4ad678","46FD756618464BA6AA2CE07DA35F4263-2025-08-28-02-35-23","","1426","","images/schematic_sequence/flight_scheme/flight_scheme_3.png","0","",""
"","","","","","image-button-response","33","197016","0.0-10.0-1.0-2.2","46FD756618464BA6AA2CE07DA35F4263","46FD756618464BA6AA2CE07DA35F4263","0198ee58-42b6-7913-a0f3-7409f1dc76ec","0198ee3c-27ac-7803-a9ea-f3b4ad4ad678","{""num_scrambled_semantic"":""8"",""num_scrambled_causal"":""4"",""num_scrambled_schematic"":""4"",""participantId"":""46FD756618464BA6AA2CE07DA35F4263"",""assignmentId"":""0198ee58-42b6-7913-a0f3-7409f1dc76ec"",""projectId"":""0198ee3c-27ac-7803-a9ea-f3b4ad4ad678""}","https://test12345.live/?num_scrambled_semantic=8&num_scrambled_causal=4&num_scrambled_schematic=4&participantId=46FD756618464BA6AA2CE07DA35F4263&assignmentId=0198ee58-42b6-7913-a0f3-7409f1dc76ec&projectId=0198ee3c-27ac-7803-a9ea-f3b4ad4ad678","46FD756618464BA6AA2CE07DA35F4263-2025-08-28-02-35-23","","null","","[]","null","",""
"","","","","","image-button-response","34","201517","0.0-10.0-1.0-0.3","46FD756618464BA6AA2CE07DA35F4263","46FD756618464BA6AA2CE07DA35F4263","0198ee58-42b6-7913-a0f3-7409f1dc76ec","0198ee3c-27ac-7803-a9ea-f3b4ad4ad678","{""num_scrambled_semantic"":""8"",""num_scrambled_causal"":""4"",""num_scrambled_schematic"":""4"",""participantId"":""46FD756618464BA6AA2CE07DA35F4263"",""assignmentId"":""0198ee58-42b6-7913-a0f3-7409f1dc76ec"",""projectId"":""0198ee3c-27ac-7803-a9ea-f3b4ad4ad678""}","https://test12345.live/?num_scrambled_semantic=8&num_scrambled_causal=4&num_scrambled_schematic=4&participantId=46FD756618464BA6AA2CE07DA35F4263&assignmentId=0198ee58-42b6-7913-a0f3-7409f1dc76ec&projectId=0198ee3c-27ac-7803-a9ea-f3b4ad4ad678","46FD756618464BA6AA2CE07DA35F4263-2025-08-28-02-35-23","","null","","images/schematic_sequence/flight_scheme/flight_scheme_4.png","null","",""
"","","","","","image-button-response","35","203422","0.0-10.0-1.0-1.3","46FD756618464BA6AA2CE07DA35F4263","46FD756618464BA6AA2CE07DA35F4263","0198ee58-42b6-7913-a0f3-7409f1dc76ec","0198ee3c-27ac-7803-a9ea-f3b4ad4ad678","{""num_scrambled_semantic"":""8"",""num_scrambled_causal"":""4"",""num_scrambled_schematic"":""4"",""participantId"":""46FD756618464BA6AA2CE07DA35F4263"",""assignmentId"":""0198ee58-42b6-7913-a0f3-7409f1dc76ec"",""projectId"":""0198ee3c-27ac-7803-a9ea-f3b4ad4ad678""}","https://test12345.live/?num_scrambled_semantic=8&num_scrambled_causal=4&num_scrambled_schematic=4&participantId=46FD756618464BA6AA2CE07DA35F4263&assignmentId=0198ee58-42b6-7913-a0f3-7409f1dc76ec&projectId=0198ee3c-27ac-7803-a9ea-f3b4ad4ad678","46FD756618464BA6AA2CE07DA35F4263-2025-08-28-02-35-23","","1902","","images/schematic_sequence/flight_scheme/flight_scheme_4.png","0","",""
"","","","","","image-button-response","36","205224","0.0-10.0-1.0-2.3","46FD756618464BA6AA2CE07DA35F4263","46FD756618464BA6AA2CE07DA35F4263","0198ee58-42b6-7913-a0f3-7409f1dc76ec","0198ee3c-27ac-7803-a9ea-f3b4ad4ad678","{""num_scrambled_semantic"":""8"",""num_scrambled_causal"":""4"",""num_scrambled_schematic"":""4"",""participantId"":""46FD756618464BA6AA2CE07DA35F4263"",""assignmentId"":""0198ee58-42b6-7913-a0f3-7409f1dc76ec"",""projectId"":""0198ee3c-27ac-7803-a9ea-f3b4ad4ad678""}","https://test12345.live/?num_scrambled_semantic=8&num_scrambled_causal=4&num_scrambled_schematic=4&participantId=46FD756618464BA6AA2CE07DA35F4263&assignmentId=0198ee58-42b6-7913-a0f3-7409f1dc76ec&projectId=0198ee3c-27ac-7803-a9ea-f3b4ad4ad678","46FD756618464BA6AA2CE07DA35F4263-2025-08-28-02-35-23","","null","","[]","null","",""
"","","","","","image-button-response","37","209727","0.0-10.0-1.0-0.4","46FD756618464BA6AA2CE07DA35F4263","46FD756618464BA6AA2CE07DA35F4263","0198ee58-42b6-7913-a0f3-7409f1dc76ec","0198ee3c-27ac-7803-a9ea-f3b4ad4ad678","{""num_scrambled_semantic"":""8"",""num_scrambled_causal"":""4"",""num_scrambled_schematic"":""4"",""participantId"":""46FD756618464BA6AA2CE07DA35F4263"",""assignmentId"":""0198ee58-42b6-7913-a0f3-7409f1dc76ec"",""projectId"":""0198ee3c-27ac-7803-a9ea-f3b4ad4ad678""}","https://test12345.live/?num_scrambled_semantic=8&num_scrambled_causal=4&num_scrambled_schematic=4&participantId=46FD756618464BA6AA2CE07DA35F4263&assignmentId=0198ee58-42b6-7913-a0f3-7409f1dc76ec&projectId=0198ee3c-27ac-7803-a9ea-f3b4ad4ad678","46FD756618464BA6AA2CE07DA35F4263-2025-08-28-02-35-23","","null","","images/schematic_sequence/flight_scheme/flight_scheme_5.png","null","",""
"","","","","","image-button-response","38","210870","0.0-10.0-1.0-1.4","46FD756618464BA6AA2CE07DA35F4263","46FD756618464BA6AA2CE07DA35F4263","0198ee58-42b6-7913-a0f3-7409f1dc76ec","0198ee3c-27ac-7803-a9ea-f3b4ad4ad678","{""num_scrambled_semantic"":""8"",""num_scrambled_causal"":""4"",""num_scrambled_schematic"":""4"",""participantId"":""46FD756618464BA6AA2CE07DA35F4263"",""assignmentId"":""0198ee58-42b6-7913-a0f3-7409f1dc76ec"",""projectId"":""0198ee3c-27ac-7803-a9ea-f3b4ad4ad678""}","https://test12345.live/?num_scrambled_semantic=8&num_scrambled_causal=4&num_scrambled_schematic=4&participantId=46FD756618464BA6AA2CE07DA35F4263&assignmentId=0198ee58-42b6-7913-a0f3-7409f1dc76ec&projectId=0198ee3c-27ac-7803-a9ea-f3b4ad4ad678","46FD756618464BA6AA2CE07DA35F4263-2025-08-28-02-35-23","","1141","","images/schematic_sequence/flight_scheme/flight_scheme_5.png","0","",""
"","","","","","image-button-response","39","212672","0.0-10.0-1.0-2.4","46FD756618464BA6AA2CE07DA35F4263","46FD756618464BA6AA2CE07DA35F4263","0198ee58-42b6-7913-a0f3-7409f1dc76ec","0198ee3c-27ac-7803-a9ea-f3b4ad4ad678","{""num_scrambled_semantic"":""8"",""num_scrambled_causal"":""4"",""num_scrambled_schematic"":""4"",""participantId"":""46FD756618464BA6AA2CE07DA35F4263"",""assignmentId"":""0198ee58-42b6-7913-a0f3-7409f1dc76ec"",""projectId"":""0198ee3c-27ac-7803-a9ea-f3b4ad4ad678""}","https://test12345.live/?num_scrambled_semantic=8&num_scrambled_causal=4&num_scrambled_schematic=4&participantId=46FD756618464BA6AA2CE07DA35F4263&assignmentId=0198ee58-42b6-7913-a0f3-7409f1dc76ec&projectId=0198ee3c-27ac-7803-a9ea-f3b4ad4ad678","46FD756618464BA6AA2CE07DA35F4263-2025-08-28-02-35-23","","null","","[]","null","",""
"","","","","","image-button-response","40","217175","0.0-10.0-1.0-0.5","46FD756618464BA6AA2CE07DA35F4263","46FD756618464BA6AA2CE07DA35F4263","0198ee58-42b6-7913-a0f3-7409f1dc76ec","0198ee3c-27ac-7803-a9ea-f3b4ad4ad678","{""num_scrambled_semantic"":""8"",""num_scrambled_causal"":""4"",""num_scrambled_schematic"":""4"",""participantId"":""46FD756618464BA6AA2CE07DA35F4263"",""assignmentId"":""0198ee58-42b6-7913-a0f3-7409f1dc76ec"",""projectId"":""0198ee3c-27ac-7803-a9ea-f3b4ad4ad678""}","https://test12345.live/?num_scrambled_semantic=8&num_scrambled_causal=4&num_scrambled_schematic=4&participantId=46FD756618464BA6AA2CE07DA35F4263&assignmentId=0198ee58-42b6-7913-a0f3-7409f1dc76ec&projectId=0198ee3c-27ac-7803-a9ea-f3b4ad4ad678","46FD756618464BA6AA2CE07DA35F4263-2025-08-28-02-35-23","","null","","images/schematic_sequence/flight_scheme/flight_scheme_6.png","null","",""
"","","","","","image-button-response","41","218266","0.0-10.0-1.0-1.5","46FD756618464BA6AA2CE07DA35F4263","46FD756618464BA6AA2CE07DA35F4263","0198ee58-42b6-7913-a0f3-7409f1dc76ec","0198ee3c-27ac-7803-a9ea-f3b4ad4ad678","{""num_scrambled_semantic"":""8"",""num_scrambled_causal"":""4"",""num_scrambled_schematic"":""4"",""participantId"":""46FD756618464BA6AA2CE07DA35F4263"",""assignmentId"":""0198ee58-42b6-7913-a0f3-7409f1dc76ec"",""projectId"":""0198ee3c-27ac-7803-a9ea-f3b4ad4ad678""}","https://test12345.live/?num_scrambled_semantic=8&num_scrambled_causal=4&num_scrambled_schematic=4&participantId=46FD756618464BA6AA2CE07DA35F4263&assignmentId=0198ee58-42b6-7913-a0f3-7409f1dc76ec&projectId=0198ee3c-27ac-7803-a9ea-f3b4ad4ad678","46FD756618464BA6AA2CE07DA35F4263-2025-08-28-02-35-23","","1088","","images/schematic_sequence/flight_scheme/flight_scheme_6.png","1","",""
"","","","","","image-button-response","42","220068","0.0-10.0-1.0-2.5","46FD756618464BA6AA2CE07DA35F4263","46FD756618464BA6AA2CE07DA35F4263","0198ee58-42b6-7913-a0f3-7409f1dc76ec","0198ee3c-27ac-7803-a9ea-f3b4ad4ad678","{""num_scrambled_semantic"":""8"",""num_scrambled_causal"":""4"",""num_scrambled_schematic"":""4"",""participantId"":""46FD756618464BA6AA2CE07DA35F4263"",""assignmentId"":""0198ee58-42b6-7913-a0f3-7409f1dc76ec"",""projectId"":""0198ee3c-27ac-7803-a9ea-f3b4ad4ad678""}","https://test12345.live/?num_scrambled_semantic=8&num_scrambled_causal=4&num_scrambled_schematic=4&participantId=46FD756618464BA6AA2CE07DA35F4263&assignmentId=0198ee58-42b6-7913-a0f3-7409f1dc76ec&projectId=0198ee3c-27ac-7803-a9ea-f3b4ad4ad678","46FD756618464BA6AA2CE07DA35F4263-2025-08-28-02-35-23","","null","","[]","null","",""
"","","","","","image-button-response","43","224571","0.0-10.0-1.0-0.6","46FD756618464BA6AA2CE07DA35F4263","46FD756618464BA6AA2CE07DA35F4263","0198ee58-42b6-7913-a0f3-7409f1dc76ec","0198ee3c-27ac-7803-a9ea-f3b4ad4ad678","{""num_scrambled_semantic"":""8"",""num_scrambled_causal"":""4"",""num_scrambled_schematic"":""4"",""participantId"":""46FD756618464BA6AA2CE07DA35F4263"",""assignmentId"":""0198ee58-42b6-7913-a0f3-7409f1dc76ec"",""projectId"":""0198ee3c-27ac-7803-a9ea-f3b4ad4ad678""}","https://test12345.live/?num_scrambled_semantic=8&num_scrambled_causal=4&num_scrambled_schematic=4&participantId=46FD756618464BA6AA2CE07DA35F4263&assignmentId=0198ee58-42b6-7913-a0f3-7409f1dc76ec&projectId=0198ee3c-27ac-7803-a9ea-f3b4ad4ad678","46FD756618464BA6AA2CE07DA35F4263-2025-08-28-02-35-23","","null","","images/schematic_sequence/flight_scheme/flight_scheme_7.png","null","",""
"","","","","","image-button-response","44","225970","0.0-10.0-1.0-1.6","46FD756618464BA6AA2CE07DA35F4263","46FD756618464BA6AA2CE07DA35F4263","0198ee58-42b6-7913-a0f3-7409f1dc76ec","0198ee3c-27ac-7803-a9ea-f3b4ad4ad678","{""num_scrambled_semantic"":""8"",""num_scrambled_causal"":""4"",""num_scrambled_schematic"":""4"",""participantId"":""46FD756618464BA6AA2CE07DA35F4263"",""assignmentId"":""0198ee58-42b6-7913-a0f3-7409f1dc76ec"",""projectId"":""0198ee3c-27ac-7803-a9ea-f3b4ad4ad678""}","https://test12345.live/?num_scrambled_semantic=8&num_scrambled_causal=4&num_scrambled_schematic=4&participantId=46FD756618464BA6AA2CE07DA35F4263&assignmentId=0198ee58-42b6-7913-a0f3-7409f1dc76ec&projectId=0198ee3c-27ac-7803-a9ea-f3b4ad4ad678","46FD756618464BA6AA2CE07DA35F4263-2025-08-28-02-35-23","","1398","","images/schematic_sequence/flight_scheme/flight_scheme_7.png","1","",""
"","","","","","image-button-response","45","227772","0.0-10.0-1.0-2.6","46FD756618464BA6AA2CE07DA35F4263","46FD756618464BA6AA2CE07DA35F4263","0198ee58-42b6-7913-a0f3-7409f1dc76ec","0198ee3c-27ac-7803-a9ea-f3b4ad4ad678","{""num_scrambled_semantic"":""8"",""num_scrambled_causal"":""4"",""num_scrambled_schematic"":""4"",""participantId"":""46FD756618464BA6AA2CE07DA35F4263"",""assignmentId"":""0198ee58-42b6-7913-a0f3-7409f1dc76ec"",""projectId"":""0198ee3c-27ac-7803-a9ea-f3b4ad4ad678""}","https://test12345.live/?num_scrambled_semantic=8&num_scrambled_causal=4&num_scrambled_schematic=4&participantId=46FD756618464BA6AA2CE07DA35F4263&assignmentId=0198ee58-42b6-7913-a0f3-7409f1dc76ec&projectId=0198ee3c-27ac-7803-a9ea-f3b4ad4ad678","46FD756618464BA6AA2CE07DA35F4263-2025-08-28-02-35-23","","null","","[]","null","",""
"","","","","","image-button-response","46","232274","0.0-10.0-1.0-0.7","46FD756618464BA6AA2CE07DA35F4263","46FD756618464BA6AA2CE07DA35F4263","0198ee58-42b6-7913-a0f3-7409f1dc76ec","0198ee3c-27ac-7803-a9ea-f3b4ad4ad678","{""num_scrambled_semantic"":""8"",""num_scrambled_causal"":""4"",""num_scrambled_schematic"":""4"",""participantId"":""46FD756618464BA6AA2CE07DA35F4263"",""assignmentId"":""0198ee58-42b6-7913-a0f3-7409f1dc76ec"",""projectId"":""0198ee3c-27ac-7803-a9ea-f3b4ad4ad678""}","https://test12345.live/?num_scrambled_semantic=8&num_scrambled_causal=4&num_scrambled_schematic=4&participantId=46FD756618464BA6AA2CE07DA35F4263&assignmentId=0198ee58-42b6-7913-a0f3-7409f1dc76ec&projectId=0198ee3c-27ac-7803-a9ea-f3b4ad4ad678","46FD756618464BA6AA2CE07DA35F4263-2025-08-28-02-35-23","","null","","images/schematic_sequence/flight_scheme/flight_scheme_8.png","null","",""
"","","","","","image-button-response","47","234411","0.0-10.0-1.0-1.7","46FD756618464BA6AA2CE07DA35F4263","46FD756618464BA6AA2CE07DA35F4263","0198ee58-42b6-7913-a0f3-7409f1dc76ec","0198ee3c-27ac-7803-a9ea-f3b4ad4ad678","{""num_scrambled_semantic"":""8"",""num_scrambled_causal"":""4"",""num_scrambled_schematic"":""4"",""participantId"":""46FD756618464BA6AA2CE07DA35F4263"",""assignmentId"":""0198ee58-42b6-7913-a0f3-7409f1dc76ec"",""projectId"":""0198ee3c-27ac-7803-a9ea-f3b4ad4ad678""}","https://test12345.live/?num_scrambled_semantic=8&num_scrambled_causal=4&num_scrambled_schematic=4&participantId=46FD756618464BA6AA2CE07DA35F4263&assignmentId=0198ee58-42b6-7913-a0f3-7409f1dc76ec&projectId=0198ee3c-27ac-7803-a9ea-f3b4ad4ad678","46FD756618464BA6AA2CE07DA35F4263-2025-08-28-02-35-23","","2134","","images/schematic_sequence/flight_scheme/flight_scheme_8.png","1","",""
"","","","","","image-button-response","48","236213","0.0-10.0-1.0-2.7","46FD756618464BA6AA2CE07DA35F4263","46FD756618464BA6AA2CE07DA35F4263","0198ee58-42b6-7913-a0f3-7409f1dc76ec","0198ee3c-27ac-7803-a9ea-f3b4ad4ad678","{""num_scrambled_semantic"":""8"",""num_scrambled_causal"":""4"",""num_scrambled_schematic"":""4"",""participantId"":""46FD756618464BA6AA2CE07DA35F4263"",""assignmentId"":""0198ee58-42b6-7913-a0f3-7409f1dc76ec"",""projectId"":""0198ee3c-27ac-7803-a9ea-f3b4ad4ad678""}","https://test12345.live/?num_scrambled_semantic=8&num_scrambled_causal=4&num_scrambled_schematic=4&participantId=46FD756618464BA6AA2CE07DA35F4263&assignmentId=0198ee58-42b6-7913-a0f3-7409f1dc76ec&projectId=0198ee3c-27ac-7803-a9ea-f3b4ad4ad678","46FD756618464BA6AA2CE07DA35F4263-2025-08-28-02-35-23","","null","","[]","null","",""
"","","","","","image-button-response","49","240715","0.0-10.0-1.0-0.8","46FD756618464BA6AA2CE07DA35F4263","46FD756618464BA6AA2CE07DA35F4263","0198ee58-42b6-7913-a0f3-7409f1dc76ec","0198ee3c-27ac-7803-a9ea-f3b4ad4ad678","{""num_scrambled_semantic"":""8"",""num_scrambled_causal"":""4"",""num_scrambled_schematic"":""4"",""participantId"":""46FD756618464BA6AA2CE07DA35F4263"",""assignmentId"":""0198ee58-42b6-7913-a0f3-7409f1dc76ec"",""projectId"":""0198ee3c-27ac-7803-a9ea-f3b4ad4ad678""}","https://test12345.live/?num_scrambled_semantic=8&num_scrambled_causal=4&num_scrambled_schematic=4&participantId=46FD756618464BA6AA2CE07DA35F4263&assignmentId=0198ee58-42b6-7913-a0f3-7409f1dc76ec&projectId=0198ee3c-27ac-7803-a9ea-f3b4ad4ad678","46FD756618464BA6AA2CE07DA35F4263-2025-08-28-02-35-23","","null","","images/schematic_sequence/flight_scheme/flight_scheme_9.png","null","",""
"","","","","","image-button-response","50","241978","0.0-10.0-1.0-1.8","46FD756618464BA6AA2CE07DA35F4263","46FD756618464BA6AA2CE07DA35F4263","0198ee58-42b6-7913-a0f3-7409f1dc76ec","0198ee3c-27ac-7803-a9ea-f3b4ad4ad678","{""num_scrambled_semantic"":""8"",""num_scrambled_causal"":""4"",""num_scrambled_schematic"":""4"",""participantId"":""46FD756618464BA6AA2CE07DA35F4263"",""assignmentId"":""0198ee58-42b6-7913-a0f3-7409f1dc76ec"",""projectId"":""0198ee3c-27ac-7803-a9ea-f3b4ad4ad678""}","https://test12345.live/?num_scrambled_semantic=8&num_scrambled_causal=4&num_scrambled_schematic=4&participantId=46FD756618464BA6AA2CE07DA35F4263&assignmentId=0198ee58-42b6-7913-a0f3-7409f1dc76ec&projectId=0198ee3c-27ac-7803-a9ea-f3b4ad4ad678","46FD756618464BA6AA2CE07DA35F4263-2025-08-28-02-35-23","","1261","","images/schematic_sequence/flight_scheme/flight_scheme_9.png","0","",""
"","","","","","image-button-response","51","243780","0.0-10.0-1.0-2.8","46FD756618464BA6AA2CE07DA35F4263","46FD756618464BA6AA2CE07DA35F4263","0198ee58-42b6-7913-a0f3-7409f1dc76ec","0198ee3c-27ac-7803-a9ea-f3b4ad4ad678","{""num_scrambled_semantic"":""8"",""num_scrambled_causal"":""4"",""num_scrambled_schematic"":""4"",""participantId"":""46FD756618464BA6AA2CE07DA35F4263"",""assignmentId"":""0198ee58-42b6-7913-a0f3-7409f1dc76ec"",""projectId"":""0198ee3c-27ac-7803-a9ea-f3b4ad4ad678""}","https://test12345.live/?num_scrambled_semantic=8&num_scrambled_causal=4&num_scrambled_schematic=4&participantId=46FD756618464BA6AA2CE07DA35F4263&assignmentId=0198ee58-42b6-7913-a0f3-7409f1dc76ec&projectId=0198ee3c-27ac-7803-a9ea-f3b4ad4ad678","46FD756618464BA6AA2CE07DA35F4263-2025-08-28-02-35-23","","null","","[]","null","",""
"","","","","","image-button-response","52","248284","0.0-10.0-1.0-0.9","46FD756618464BA6AA2CE07DA35F4263","46FD756618464BA6AA2CE07DA35F4263","0198ee58-42b6-7913-a0f3-7409f1dc76ec","0198ee3c-27ac-7803-a9ea-f3b4ad4ad678","{""num_scrambled_semantic"":""8"",""num_scrambled_causal"":""4"",""num_scrambled_schematic"":""4"",""participantId"":""46FD756618464BA6AA2CE07DA35F4263"",""assignmentId"":""0198ee58-42b6-7913-a0f3-7409f1dc76ec"",""projectId"":""0198ee3c-27ac-7803-a9ea-f3b4ad4ad678""}","https://test12345.live/?num_scrambled_semantic=8&num_scrambled_causal=4&num_scrambled_schematic=4&participantId=46FD756618464BA6AA2CE07DA35F4263&assignmentId=0198ee58-42b6-7913-a0f3-7409f1dc76ec&projectId=0198ee3c-27ac-7803-a9ea-f3b4ad4ad678","46FD756618464BA6AA2CE07DA35F4263-2025-08-28-02-35-23","","null","","images/schematic_sequence/flight_scheme/flight_scheme_ten.png","null","",""
"","","","","","image-button-response","53","252026","0.0-10.0-1.0-1.9","46FD756618464BA6AA2CE07DA35F4263","46FD756618464BA6AA2CE07DA35F4263","0198ee58-42b6-7913-a0f3-7409f1dc76ec","0198ee3c-27ac-7803-a9ea-f3b4ad4ad678","{""num_scrambled_semantic"":""8"",""num_scrambled_causal"":""4"",""num_scrambled_schematic"":""4"",""participantId"":""46FD756618464BA6AA2CE07DA35F4263"",""assignmentId"":""0198ee58-42b6-7913-a0f3-7409f1dc76ec"",""projectId"":""0198ee3c-27ac-7803-a9ea-f3b4ad4ad678""}","https://test12345.live/?num_scrambled_semantic=8&num_scrambled_causal=4&num_scrambled_schematic=4&participantId=46FD756618464BA6AA2CE07DA35F4263&assignmentId=0198ee58-42b6-7913-a0f3-7409f1dc76ec&projectId=0198ee3c-27ac-7803-a9ea-f3b4ad4ad678","46FD756618464BA6AA2CE07DA35F4263-2025-08-28-02-35-23","","3741","","images/schematic_sequence/flight_scheme/flight_scheme_ten.png","0","",""
"","","","","","image-button-response","54","253828","0.0-10.0-1.0-2.9","46FD756618464BA6AA2CE07DA35F4263","46FD756618464BA6AA2CE07DA35F4263","0198ee58-42b6-7913-a0f3-7409f1dc76ec","0198ee3c-27ac-7803-a9ea-f3b4ad4ad678","{""num_scrambled_semantic"":""8"",""num_scrambled_causal"":""4"",""num_scrambled_schematic"":""4"",""participantId"":""46FD756618464BA6AA2CE07DA35F4263"",""assignmentId"":""0198ee58-42b6-7913-a0f3-7409f1dc76ec"",""projectId"":""0198ee3c-27ac-7803-a9ea-f3b4ad4ad678""}","https://test12345.live/?num_scrambled_semantic=8&num_scrambled_causal=4&num_scrambled_schematic=4&participantId=46FD756618464BA6AA2CE07DA35F4263&assignmentId=0198ee58-42b6-7913-a0f3-7409f1dc76ec&projectId=0198ee3c-27ac-7803-a9ea-f3b4ad4ad678","46FD756618464BA6AA2CE07DA35F4263-2025-08-28-02-35-23","","null","","[]","null","",""
"","","","","","html-audio-response","55","331234","0.0-11.0","46FD756618464BA6AA2CE07DA35F4263","46FD756618464BA6AA2CE07DA35F4263","0198ee58-42b6-7913-a0f3-7409f1dc76ec","0198ee3c-27ac-7803-a9ea-f3b4ad4ad678","{""num_scrambled_semantic"":""8"",""num_scrambled_causal"":""4"",""num_scrambled_schematic"":""4"",""participantId"":""46FD756618464BA6AA2CE07DA35F4263"",""assignmentId"":""0198ee58-42b6-7913-a0f3-7409f1dc76ec"",""projectId"":""0198ee3c-27ac-7803-a9ea-f3b4ad4ad678""}","https://test12345.live/?num_scrambled_semantic=8&num_scrambled_causal=4&num_scrambled_schematic=4&participantId=46FD756618464BA6AA2CE07DA35F4263&assignmentId=0198ee58-42b6-7913-a0f3-7409f1dc76ec&projectId=0198ee3c-27ac-7803-a9ea-f3b4ad4ad678","46FD756618464BA6AA2CE07DA35F4263-2025-08-28-02-35-23","","18943","","[""<span style=\""color: red; font-size: 24px\""> NOW RECORDING</span><p>Please say out loud all the images you saw, in the order of the story they create. Try to recall the sequence of events as they appeared in the story, not necessarily the order they were presented on the screen.</p>""]","","4","flight_scheme"
"","","","","","image-button-response","56","337239","0.0-12.0-0.0","46FD756618464BA6AA2CE07DA35F4263","46FD756618464BA6AA2CE07DA35F4263","0198ee58-42b6-7913-a0f3-7409f1dc76ec","0198ee3c-27ac-7803-a9ea-f3b4ad4ad678","{""num_scrambled_semantic"":""8"",""num_scrambled_causal"":""4"",""num_scrambled_schematic"":""4"",""participantId"":""46FD756618464BA6AA2CE07DA35F4263"",""assignmentId"":""0198ee58-42b6-7913-a0f3-7409f1dc76ec"",""projectId"":""0198ee3c-27ac-7803-a9ea-f3b4ad4ad678""}","https://test12345.live/?num_scrambled_semantic=8&num_scrambled_causal=4&num_scrambled_schematic=4&participantId=46FD756618464BA6AA2CE07DA35F4263&assignmentId=0198ee58-42b6-7913-a0f3-7409f1dc76ec&projectId=0198ee3c-27ac-7803-a9ea-f3b4ad4ad678","46FD756618464BA6AA2CE07DA35F4263-2025-08-28-02-35-23","","null","","images/schematic_sequence/dinner_party_scheme/dinner_party_scheme_0.png","null","",""
"","","","","","image-button-response","57","341742","0.0-12.0-1.0-0.0","46FD756618464BA6AA2CE07DA35F4263","46FD756618464BA6AA2CE07DA35F4263","0198ee58-42b6-7913-a0f3-7409f1dc76ec","0198ee3c-27ac-7803-a9ea-f3b4ad4ad678","{""num_scrambled_semantic"":""8"",""num_scrambled_causal"":""4"",""num_scrambled_schematic"":""4"",""participantId"":""46FD756618464BA6AA2CE07DA35F4263"",""assignmentId"":""0198ee58-42b6-7913-a0f3-7409f1dc76ec"",""projectId"":""0198ee3c-27ac-7803-a9ea-f3b4ad4ad678""}","https://test12345.live/?num_scrambled_semantic=8&num_scrambled_causal=4&num_scrambled_schematic=4&participantId=46FD756618464BA6AA2CE07DA35F4263&assignmentId=0198ee58-42b6-7913-a0f3-7409f1dc76ec&projectId=0198ee3c-27ac-7803-a9ea-f3b4ad4ad678","46FD756618464BA6AA2CE07DA35F4263-2025-08-28-02-35-23","","null","","images/schematic_sequence/dinner_party_scheme/dinner_party_scheme_5.png","null","",""
"","","","","","image-button-response","58","344042","0.0-12.0-1.0-1.0","46FD756618464BA6AA2CE07DA35F4263","46FD756618464BA6AA2CE07DA35F4263","0198ee58-42b6-7913-a0f3-7409f1dc76ec","0198ee3c-27ac-7803-a9ea-f3b4ad4ad678","{""num_scrambled_semantic"":""8"",""num_scrambled_causal"":""4"",""num_scrambled_schematic"":""4"",""participantId"":""46FD756618464BA6AA2CE07DA35F4263"",""assignmentId"":""0198ee58-42b6-7913-a0f3-7409f1dc76ec"",""projectId"":""0198ee3c-27ac-7803-a9ea-f3b4ad4ad678""}","https://test12345.live/?num_scrambled_semantic=8&num_scrambled_causal=4&num_scrambled_schematic=4&participantId=46FD756618464BA6AA2CE07DA35F4263&assignmentId=0198ee58-42b6-7913-a0f3-7409f1dc76ec&projectId=0198ee3c-27ac-7803-a9ea-f3b4ad4ad678","46FD756618464BA6AA2CE07DA35F4263-2025-08-28-02-35-23","","2298","","images/schematic_sequence/dinner_party_scheme/dinner_party_scheme_5.png","0","",""
"","","","","","image-button-response","59","345844","0.0-12.0-1.0-2.0","46FD756618464BA6AA2CE07DA35F4263","46FD756618464BA6AA2CE07DA35F4263","0198ee58-42b6-7913-a0f3-7409f1dc76ec","0198ee3c-27ac-7803-a9ea-f3b4ad4ad678","{""num_scrambled_semantic"":""8"",""num_scrambled_causal"":""4"",""num_scrambled_schematic"":""4"",""participantId"":""46FD756618464BA6AA2CE07DA35F4263"",""assignmentId"":""0198ee58-42b6-7913-a0f3-7409f1dc76ec"",""projectId"":""0198ee3c-27ac-7803-a9ea-f3b4ad4ad678""}","https://test12345.live/?num_scrambled_semantic=8&num_scrambled_causal=4&num_scrambled_schematic=4&participantId=46FD756618464BA6AA2CE07DA35F4263&assignmentId=0198ee58-42b6-7913-a0f3-7409f1dc76ec&projectId=0198ee3c-27ac-7803-a9ea-f3b4ad4ad678","46FD756618464BA6AA2CE07DA35F4263-2025-08-28-02-35-23","","null","","[]","null","",""
"","","","","","image-button-response","60","350346","0.0-12.0-1.0-0.1","46FD756618464BA6AA2CE07DA35F4263","46FD756618464BA6AA2CE07DA35F4263","0198ee58-42b6-7913-a0f3-7409f1dc76ec","0198ee3c-27ac-7803-a9ea-f3b4ad4ad678","{""num_scrambled_semantic"":""8"",""num_scrambled_causal"":""4"",""num_scrambled_schematic"":""4"",""participantId"":""46FD756618464BA6AA2CE07DA35F4263"",""assignmentId"":""0198ee58-42b6-7913-a0f3-7409f1dc76ec"",""projectId"":""0198ee3c-27ac-7803-a9ea-f3b4ad4ad678""}","https://test12345.live/?num_scrambled_semantic=8&num_scrambled_causal=4&num_scrambled_schematic=4&participantId=46FD756618464BA6AA2CE07DA35F4263&assignmentId=0198ee58-42b6-7913-a0f3-7409f1dc76ec&projectId=0198ee3c-27ac-7803-a9ea-f3b4ad4ad678","46FD756618464BA6AA2CE07DA35F4263-2025-08-28-02-35-23","","null","","images/schematic_sequence/dinner_party_scheme/dinner_party_scheme_3.png","null","",""
"","","","","","image-button-response","61","351690","0.0-12.0-1.0-1.1","46FD756618464BA6AA2CE07DA35F4263","46FD756618464BA6AA2CE07DA35F4263","0198ee58-42b6-7913-a0f3-7409f1dc76ec","0198ee3c-27ac-7803-a9ea-f3b4ad4ad678","{""num_scrambled_semantic"":""8"",""num_scrambled_causal"":""4"",""num_scrambled_schematic"":""4"",""participantId"":""46FD756618464BA6AA2CE07DA35F4263"",""assignmentId"":""0198ee58-42b6-7913-a0f3-7409f1dc76ec"",""projectId"":""0198ee3c-27ac-7803-a9ea-f3b4ad4ad678""}","https://test12345.live/?num_scrambled_semantic=8&num_scrambled_causal=4&num_scrambled_schematic=4&participantId=46FD756618464BA6AA2CE07DA35F4263&assignmentId=0198ee58-42b6-7913-a0f3-7409f1dc76ec&projectId=0198ee3c-27ac-7803-a9ea-f3b4ad4ad678","46FD756618464BA6AA2CE07DA35F4263-2025-08-28-02-35-23","","1342","","images/schematic_sequence/dinner_party_scheme/dinner_party_scheme_3.png","0","",""
"","","","","","image-button-response","62","353493","0.0-12.0-1.0-2.1","46FD756618464BA6AA2CE07DA35F4263","46FD756618464BA6AA2CE07DA35F4263","0198ee58-42b6-7913-a0f3-7409f1dc76ec","0198ee3c-27ac-7803-a9ea-f3b4ad4ad678","{""num_scrambled_semantic"":""8"",""num_scrambled_causal"":""4"",""num_scrambled_schematic"":""4"",""participantId"":""46FD756618464BA6AA2CE07DA35F4263"",""assignmentId"":""0198ee58-42b6-7913-a0f3-7409f1dc76ec"",""projectId"":""0198ee3c-27ac-7803-a9ea-f3b4ad4ad678""}","https://test12345.live/?num_scrambled_semantic=8&num_scrambled_causal=4&num_scrambled_schematic=4&participantId=46FD756618464BA6AA2CE07DA35F4263&assignmentId=0198ee58-42b6-7913-a0f3-7409f1dc76ec&projectId=0198ee3c-27ac-7803-a9ea-f3b4ad4ad678","46FD756618464BA6AA2CE07DA35F4263-2025-08-28-02-35-23","","null","","[]","null","",""
"","","","","","image-button-response","63","357995","0.0-12.0-1.0-0.2","46FD756618464BA6AA2CE07DA35F4263","46FD756618464BA6AA2CE07DA35F4263","0198ee58-42b6-7913-a0f3-7409f1dc76ec","0198ee3c-27ac-7803-a9ea-f3b4ad4ad678","{""num_scrambled_semantic"":""8"",""num_scrambled_causal"":""4"",""num_scrambled_schematic"":""4"",""participantId"":""46FD756618464BA6AA2CE07DA35F4263"",""assignmentId"":""0198ee58-42b6-7913-a0f3-7409f1dc76ec"",""projectId"":""0198ee3c-27ac-7803-a9ea-f3b4ad4ad678""}","https://test12345.live/?num_scrambled_semantic=8&num_scrambled_causal=4&num_scrambled_schematic=4&participantId=46FD756618464BA6AA2CE07DA35F4263&assignmentId=0198ee58-42b6-7913-a0f3-7409f1dc76ec&projectId=0198ee3c-27ac-7803-a9ea-f3b4ad4ad678","46FD756618464BA6AA2CE07DA35F4263-2025-08-28-02-35-23","","null","","images/schematic_sequence/dinner_party_scheme/dinner_party_scheme_ten.png","null","",""
"","","","","","image-button-response","64","358990","0.0-12.0-1.0-1.2","46FD756618464BA6AA2CE07DA35F4263","46FD756618464BA6AA2CE07DA35F4263","0198ee58-42b6-7913-a0f3-7409f1dc76ec","0198ee3c-27ac-7803-a9ea-f3b4ad4ad678","{""num_scrambled_semantic"":""8"",""num_scrambled_causal"":""4"",""num_scrambled_schematic"":""4"",""participantId"":""46FD756618464BA6AA2CE07DA35F4263"",""assignmentId"":""0198ee58-42b6-7913-a0f3-7409f1dc76ec"",""projectId"":""0198ee3c-27ac-7803-a9ea-f3b4ad4ad678""}","https://test12345.live/?num_scrambled_semantic=8&num_scrambled_causal=4&num_scrambled_schematic=4&participantId=46FD756618464BA6AA2CE07DA35F4263&assignmentId=0198ee58-42b6-7913-a0f3-7409f1dc76ec&projectId=0198ee3c-27ac-7803-a9ea-f3b4ad4ad678","46FD756618464BA6AA2CE07DA35F4263-2025-08-28-02-35-23","","993","","images/schematic_sequence/dinner_party_scheme/dinner_party_scheme_ten.png","0","",""
"","","","","","image-button-response","65","360793","0.0-12.0-1.0-2.2","46FD756618464BA6AA2CE07DA35F4263","46FD756618464BA6AA2CE07DA35F4263","0198ee58-42b6-7913-a0f3-7409f1dc76ec","0198ee3c-27ac-7803-a9ea-f3b4ad4ad678","{""num_scrambled_semantic"":""8"",""num_scrambled_causal"":""4"",""num_scrambled_schematic"":""4"",""participantId"":""46FD756618464BA6AA2CE07DA35F4263"",""assignmentId"":""0198ee58-42b6-7913-a0f3-7409f1dc76ec"",""projectId"":""0198ee3c-27ac-7803-a9ea-f3b4ad4ad678""}","https://test12345.live/?num_scrambled_semantic=8&num_scrambled_causal=4&num_scrambled_schematic=4&participantId=46FD756618464BA6AA2CE07DA35F4263&assignmentId=0198ee58-42b6-7913-a0f3-7409f1dc76ec&projectId=0198ee3c-27ac-7803-a9ea-f3b4ad4ad678","46FD756618464BA6AA2CE07DA35F4263-2025-08-28-02-35-23","","null","","[]","null","",""
"","","","","","image-button-response","66","365295","0.0-12.0-1.0-0.3","46FD756618464BA6AA2CE07DA35F4263","46FD756618464BA6AA2CE07DA35F4263","0198ee58-42b6-7913-a0f3-7409f1dc76ec","0198ee3c-27ac-7803-a9ea-f3b4ad4ad678","{""num_scrambled_semantic"":""8"",""num_scrambled_causal"":""4"",""num_scrambled_schematic"":""4"",""participantId"":""46FD756618464BA6AA2CE07DA35F4263"",""assignmentId"":""0198ee58-42b6-7913-a0f3-7409f1dc76ec"",""projectId"":""0198ee3c-27ac-7803-a9ea-f3b4ad4ad678""}","https://test12345.live/?num_scrambled_semantic=8&num_scrambled_causal=4&num_scrambled_schematic=4&participantId=46FD756618464BA6AA2CE07DA35F4263&assignmentId=0198ee58-42b6-7913-a0f3-7409f1dc76ec&projectId=0198ee3c-27ac-7803-a9ea-f3b4ad4ad678","46FD756618464BA6AA2CE07DA35F4263-2025-08-28-02-35-23","","null","","images/schematic_sequence/dinner_party_scheme/dinner_party_scheme_9.png","null","",""
"","","","","","image-button-response","67","366170","0.0-12.0-1.0-1.3","46FD756618464BA6AA2CE07DA35F4263","46FD756618464BA6AA2CE07DA35F4263","0198ee58-42b6-7913-a0f3-7409f1dc76ec","0198ee3c-27ac-7803-a9ea-f3b4ad4ad678","{""num_scrambled_semantic"":""8"",""num_scrambled_causal"":""4"",""num_scrambled_schematic"":""4"",""participantId"":""46FD756618464BA6AA2CE07DA35F4263"",""assignmentId"":""0198ee58-42b6-7913-a0f3-7409f1dc76ec"",""projectId"":""0198ee3c-27ac-7803-a9ea-f3b4ad4ad678""}","https://test12345.live/?num_scrambled_semantic=8&num_scrambled_causal=4&num_scrambled_schematic=4&participantId=46FD756618464BA6AA2CE07DA35F4263&assignmentId=0198ee58-42b6-7913-a0f3-7409f1dc76ec&projectId=0198ee3c-27ac-7803-a9ea-f3b4ad4ad678","46FD756618464BA6AA2CE07DA35F4263-2025-08-28-02-35-23","","874","","images/schematic_sequence/dinner_party_scheme/dinner_party_scheme_9.png","0","",""
"","","","","","image-button-response","68","367973","0.0-12.0-1.0-2.3","46FD756618464BA6AA2CE07DA35F4263","46FD756618464BA6AA2CE07DA35F4263","0198ee58-42b6-7913-a0f3-7409f1dc76ec","0198ee3c-27ac-7803-a9ea-f3b4ad4ad678","{""num_scrambled_semantic"":""8"",""num_scrambled_causal"":""4"",""num_scrambled_schematic"":""4"",""participantId"":""46FD756618464BA6AA2CE07DA35F4263"",""assignmentId"":""0198ee58-42b6-7913-a0f3-7409f1dc76ec"",""projectId"":""0198ee3c-27ac-7803-a9ea-f3b4ad4ad678""}","https://test12345.live/?num_scrambled_semantic=8&num_scrambled_causal=4&num_scrambled_schematic=4&participantId=46FD756618464BA6AA2CE07DA35F4263&assignmentId=0198ee58-42b6-7913-a0f3-7409f1dc76ec&projectId=0198ee3c-27ac-7803-a9ea-f3b4ad4ad678","46FD756618464BA6AA2CE07DA35F4263-2025-08-28-02-35-23","","null","","[]","null","",""
"","","","","","image-button-response","69","372475","0.0-12.0-1.0-0.4","46FD756618464BA6AA2CE07DA35F4263","46FD756618464BA6AA2CE07DA35F4263","0198ee58-42b6-7913-a0f3-7409f1dc76ec","0198ee3c-27ac-7803-a9ea-f3b4ad4ad678","{""num_scrambled_semantic"":""8"",""num_scrambled_causal"":""4"",""num_scrambled_schematic"":""4"",""participantId"":""46FD756618464BA6AA2CE07DA35F4263"",""assignmentId"":""0198ee58-42b6-7913-a0f3-7409f1dc76ec"",""projectId"":""0198ee3c-27ac-7803-a9ea-f3b4ad4ad678""}","https://test12345.live/?num_scrambled_semantic=8&num_scrambled_causal=4&num_scrambled_schematic=4&participantId=46FD756618464BA6AA2CE07DA35F4263&assignmentId=0198ee58-42b6-7913-a0f3-7409f1dc76ec&projectId=0198ee3c-27ac-7803-a9ea-f3b4ad4ad678","46FD756618464BA6AA2CE07DA35F4263-2025-08-28-02-35-23","","null","","images/schematic_sequence/dinner_party_scheme/dinner_party_scheme_2.png","null","",""
"","","","","","image-button-response","70","375990","0.0-12.0-1.0-1.4","46FD756618464BA6AA2CE07DA35F4263","46FD756618464BA6AA2CE07DA35F4263","0198ee58-42b6-7913-a0f3-7409f1dc76ec","0198ee3c-27ac-7803-a9ea-f3b4ad4ad678","{""num_scrambled_semantic"":""8"",""num_scrambled_causal"":""4"",""num_scrambled_schematic"":""4"",""participantId"":""46FD756618464BA6AA2CE07DA35F4263"",""assignmentId"":""0198ee58-42b6-7913-a0f3-7409f1dc76ec"",""projectId"":""0198ee3c-27ac-7803-a9ea-f3b4ad4ad678""}","https://test12345.live/?num_scrambled_semantic=8&num_scrambled_causal=4&num_scrambled_schematic=4&participantId=46FD756618464BA6AA2CE07DA35F4263&assignmentId=0198ee58-42b6-7913-a0f3-7409f1dc76ec&projectId=0198ee3c-27ac-7803-a9ea-f3b4ad4ad678","46FD756618464BA6AA2CE07DA35F4263-2025-08-28-02-35-23","","3513","","images/schematic_sequence/dinner_party_scheme/dinner_party_scheme_2.png","1","",""
"","","","","","image-button-response","71","377794","0.0-12.0-1.0-2.4","46FD756618464BA6AA2CE07DA35F4263","46FD756618464BA6AA2CE07DA35F4263","0198ee58-42b6-7913-a0f3-7409f1dc76ec","0198ee3c-27ac-7803-a9ea-f3b4ad4ad678","{""num_scrambled_semantic"":""8"",""num_scrambled_causal"":""4"",""num_scrambled_schematic"":""4"",""participantId"":""46FD756618464BA6AA2CE07DA35F4263"",""assignmentId"":""0198ee58-42b6-7913-a0f3-7409f1dc76ec"",""projectId"":""0198ee3c-27ac-7803-a9ea-f3b4ad4ad678""}","https://test12345.live/?num_scrambled_semantic=8&num_scrambled_causal=4&num_scrambled_schematic=4&participantId=46FD756618464BA6AA2CE07DA35F4263&assignmentId=0198ee58-42b6-7913-a0f3-7409f1dc76ec&projectId=0198ee3c-27ac-7803-a9ea-f3b4ad4ad678","46FD756618464BA6AA2CE07DA35F4263-2025-08-28-02-35-23","","null","","[]","null","",""
"","","","","","image-button-response","72","382296","0.0-12.0-1.0-0.5","46FD756618464BA6AA2CE07DA35F4263","46FD756618464BA6AA2CE07DA35F4263","0198ee58-42b6-7913-a0f3-7409f1dc76ec","0198ee3c-27ac-7803-a9ea-f3b4ad4ad678","{""num_scrambled_semantic"":""8"",""num_scrambled_causal"":""4"",""num_scrambled_schematic"":""4"",""participantId"":""46FD756618464BA6AA2CE07DA35F4263"",""assignmentId"":""0198ee58-42b6-7913-a0f3-7409f1dc76ec"",""projectId"":""0198ee3c-27ac-7803-a9ea-f3b4ad4ad678""}","https://test12345.live/?num_scrambled_semantic=8&num_scrambled_causal=4&num_scrambled_schematic=4&participantId=46FD756618464BA6AA2CE07DA35F4263&assignmentId=0198ee58-42b6-7913-a0f3-7409f1dc76ec&projectId=0198ee3c-27ac-7803-a9ea-f3b4ad4ad678","46FD756618464BA6AA2CE07DA35F4263-2025-08-28-02-35-23","","null","","images/schematic_sequence/dinner_party_scheme/dinner_party_scheme_1.png","null","",""
"","","","","","image-button-response","73","383446","0.0-12.0-1.0-1.5","46FD756618464BA6AA2CE07DA35F4263","46FD756618464BA6AA2CE07DA35F4263","0198ee58-42b6-7913-a0f3-7409f1dc76ec","0198ee3c-27ac-7803-a9ea-f3b4ad4ad678","{""num_scrambled_semantic"":""8"",""num_scrambled_causal"":""4"",""num_scrambled_schematic"":""4"",""participantId"":""46FD756618464BA6AA2CE07DA35F4263"",""assignmentId"":""0198ee58-42b6-7913-a0f3-7409f1dc76ec"",""projectId"":""0198ee3c-27ac-7803-a9ea-f3b4ad4ad678""}","https://test12345.live/?num_scrambled_semantic=8&num_scrambled_causal=4&num_scrambled_schematic=4&participantId=46FD756618464BA6AA2CE07DA35F4263&assignmentId=0198ee58-42b6-7913-a0f3-7409f1dc76ec&projectId=0198ee3c-27ac-7803-a9ea-f3b4ad4ad678","46FD756618464BA6AA2CE07DA35F4263-2025-08-28-02-35-23","","1148","","images/schematic_sequence/dinner_party_scheme/dinner_party_scheme_1.png","0","",""
"","","","","","image-button-response","74","385248","0.0-12.0-1.0-2.5","46FD756618464BA6AA2CE07DA35F4263","46FD756618464BA6AA2CE07DA35F4263","0198ee58-42b6-7913-a0f3-7409f1dc76ec","0198ee3c-27ac-7803-a9ea-f3b4ad4ad678","{""num_scrambled_semantic"":""8"",""num_scrambled_causal"":""4"",""num_scrambled_schematic"":""4"",""participantId"":""46FD756618464BA6AA2CE07DA35F4263"",""assignmentId"":""0198ee58-42b6-7913-a0f3-7409f1dc76ec"",""projectId"":""0198ee3c-27ac-7803-a9ea-f3b4ad4ad678""}","https://test12345.live/?num_scrambled_semantic=8&num_scrambled_causal=4&num_scrambled_schematic=4&participantId=46FD756618464BA6AA2CE07DA35F4263&assignmentId=0198ee58-42b6-7913-a0f3-7409f1dc76ec&projectId=0198ee3c-27ac-7803-a9ea-f3b4ad4ad678","46FD756618464BA6AA2CE07DA35F4263-2025-08-28-02-35-23","","null","","[]","null","",""
"","","","","","image-button-response","75","389750","0.0-12.0-1.0-0.6","46FD756618464BA6AA2CE07DA35F4263","46FD756618464BA6AA2CE07DA35F4263","0198ee58-42b6-7913-a0f3-7409f1dc76ec","0198ee3c-27ac-7803-a9ea-f3b4ad4ad678","{""num_scrambled_semantic"":""8"",""num_scrambled_causal"":""4"",""num_scrambled_schematic"":""4"",""participantId"":""46FD756618464BA6AA2CE07DA35F4263"",""assignmentId"":""0198ee58-42b6-7913-a0f3-7409f1dc76ec"",""projectId"":""0198ee3c-27ac-7803-a9ea-f3b4ad4ad678""}","https://test12345.live/?num_scrambled_semantic=8&num_scrambled_causal=4&num_scrambled_schematic=4&participantId=46FD756618464BA6AA2CE07DA35F4263&assignmentId=0198ee58-42b6-7913-a0f3-7409f1dc76ec&projectId=0198ee3c-27ac-7803-a9ea-f3b4ad4ad678","46FD756618464BA6AA2CE07DA35F4263-2025-08-28-02-35-23","","null","","images/schematic_sequence/dinner_party_scheme/dinner_party_scheme_8.png","null","",""
"","","","","","image-button-response","76","391059","0.0-12.0-1.0-1.6","46FD756618464BA6AA2CE07DA35F4263","46FD756618464BA6AA2CE07DA35F4263","0198ee58-42b6-7913-a0f3-7409f1dc76ec","0198ee3c-27ac-7803-a9ea-f3b4ad4ad678","{""num_scrambled_semantic"":""8"",""num_scrambled_causal"":""4"",""num_scrambled_schematic"":""4"",""participantId"":""46FD756618464BA6AA2CE07DA35F4263"",""assignmentId"":""0198ee58-42b6-7913-a0f3-7409f1dc76ec"",""projectId"":""0198ee3c-27ac-7803-a9ea-f3b4ad4ad678""}","https://test12345.live/?num_scrambled_semantic=8&num_scrambled_causal=4&num_scrambled_schematic=4&participantId=46FD756618464BA6AA2CE07DA35F4263&assignmentId=0198ee58-42b6-7913-a0f3-7409f1dc76ec&projectId=0198ee3c-27ac-7803-a9ea-f3b4ad4ad678","46FD756618464BA6AA2CE07DA35F4263-2025-08-28-02-35-23","","1306","","images/schematic_sequence/dinner_party_scheme/dinner_party_scheme_8.png","0","",""
"","","","","","image-button-response","77","392861","0.0-12.0-1.0-2.6","46FD756618464BA6AA2CE07DA35F4263","46FD756618464BA6AA2CE07DA35F4263","0198ee58-42b6-7913-a0f3-7409f1dc76ec","0198ee3c-27ac-7803-a9ea-f3b4ad4ad678","{""num_scrambled_semantic"":""8"",""num_scrambled_causal"":""4"",""num_scrambled_schematic"":""4"",""participantId"":""46FD756618464BA6AA2CE07DA35F4263"",""assignmentId"":""0198ee58-42b6-7913-a0f3-7409f1dc76ec"",""projectId"":""0198ee3c-27ac-7803-a9ea-f3b4ad4ad678""}","https://test12345.live/?num_scrambled_semantic=8&num_scrambled_causal=4&num_scrambled_schematic=4&participantId=46FD756618464BA6AA2CE07DA35F4263&assignmentId=0198ee58-42b6-7913-a0f3-7409f1dc76ec&projectId=0198ee3c-27ac-7803-a9ea-f3b4ad4ad678","46FD756618464BA6AA2CE07DA35F4263-2025-08-28-02-35-23","","null","","[]","null","",""
"","","","","","image-button-response","78","397363","0.0-12.0-1.0-0.7","46FD756618464BA6AA2CE07DA35F4263","46FD756618464BA6AA2CE07DA35F4263","0198ee58-42b6-7913-a0f3-7409f1dc76ec","0198ee3c-27ac-7803-a9ea-f3b4ad4ad678","{""num_scrambled_semantic"":""8"",""num_scrambled_causal"":""4"",""num_scrambled_schematic"":""4"",""participantId"":""46FD756618464BA6AA2CE07DA35F4263"",""assignmentId"":""0198ee58-42b6-7913-a0f3-7409f1dc76ec"",""projectId"":""0198ee3c-27ac-7803-a9ea-f3b4ad4ad678""}","https://test12345.live/?num_scrambled_semantic=8&num_scrambled_causal=4&num_scrambled_schematic=4&participantId=46FD756618464BA6AA2CE07DA35F4263&assignmentId=0198ee58-42b6-7913-a0f3-7409f1dc76ec&projectId=0198ee3c-27ac-7803-a9ea-f3b4ad4ad678","46FD756618464BA6AA2CE07DA35F4263-2025-08-28-02-35-23","","null","","images/schematic_sequence/dinner_party_scheme/dinner_party_scheme_7.png","null","",""
"","","","","","image-button-response","79","399170","0.0-12.0-1.0-1.7","46FD756618464BA6AA2CE07DA35F4263","46FD756618464BA6AA2CE07DA35F4263","0198ee58-42b6-7913-a0f3-7409f1dc76ec","0198ee3c-27ac-7803-a9ea-f3b4ad4ad678","{""num_scrambled_semantic"":""8"",""num_scrambled_causal"":""4"",""num_scrambled_schematic"":""4"",""participantId"":""46FD756618464BA6AA2CE07DA35F4263"",""assignmentId"":""0198ee58-42b6-7913-a0f3-7409f1dc76ec"",""projectId"":""0198ee3c-27ac-7803-a9ea-f3b4ad4ad678""}","https://test12345.live/?num_scrambled_semantic=8&num_scrambled_causal=4&num_scrambled_schematic=4&participantId=46FD756618464BA6AA2CE07DA35F4263&assignmentId=0198ee58-42b6-7913-a0f3-7409f1dc76ec&projectId=0198ee3c-27ac-7803-a9ea-f3b4ad4ad678","46FD756618464BA6AA2CE07DA35F4263-2025-08-28-02-35-23","","1807","","images/schematic_sequence/dinner_party_scheme/dinner_party_scheme_7.png","0","",""
"","","","","","image-button-response","80","400973","0.0-12.0-1.0-2.7","46FD756618464BA6AA2CE07DA35F4263","46FD756618464BA6AA2CE07DA35F4263","0198ee58-42b6-7913-a0f3-7409f1dc76ec","0198ee3c-27ac-7803-a9ea-f3b4ad4ad678","{""num_scrambled_semantic"":""8"",""num_scrambled_causal"":""4"",""num_scrambled_schematic"":""4"",""participantId"":""46FD756618464BA6AA2CE07DA35F4263"",""assignmentId"":""0198ee58-42b6-7913-a0f3-7409f1dc76ec"",""projectId"":""0198ee3c-27ac-7803-a9ea-f3b4ad4ad678""}","https://test12345.live/?num_scrambled_semantic=8&num_scrambled_causal=4&num_scrambled_schematic=4&participantId=46FD756618464BA6AA2CE07DA35F4263&assignmentId=0198ee58-42b6-7913-a0f3-7409f1dc76ec&projectId=0198ee3c-27ac-7803-a9ea-f3b4ad4ad678","46FD756618464BA6AA2CE07DA35F4263-2025-08-28-02-35-23","","null","","[]","null","",""
"","","","","","image-button-response","81","405475","0.0-12.0-1.0-0.8","46FD756618464BA6AA2CE07DA35F4263","46FD756618464BA6AA2CE07DA35F4263","0198ee58-42b6-7913-a0f3-7409f1dc76ec","0198ee3c-27ac-7803-a9ea-f3b4ad4ad678","{""num_scrambled_semantic"":""8"",""num_scrambled_causal"":""4"",""num_scrambled_schematic"":""4"",""participantId"":""46FD756618464BA6AA2CE07DA35F4263"",""assignmentId"":""0198ee58-42b6-7913-a0f3-7409f1dc76ec"",""projectId"":""0198ee3c-27ac-7803-a9ea-f3b4ad4ad678""}","https://test12345.live/?num_scrambled_semantic=8&num_scrambled_causal=4&num_scrambled_schematic=4&participantId=46FD756618464BA6AA2CE07DA35F4263&assignmentId=0198ee58-42b6-7913-a0f3-7409f1dc76ec&projectId=0198ee3c-27ac-7803-a9ea-f3b4ad4ad678","46FD756618464BA6AA2CE07DA35F4263-2025-08-28-02-35-23","","null","","images/schematic_sequence/dinner_party_scheme/dinner_party_scheme_6.png","null","",""
"","","","","","image-button-response","82","406662","0.0-12.0-1.0-1.8","46FD756618464BA6AA2CE07DA35F4263","46FD756618464BA6AA2CE07DA35F4263","0198ee58-42b6-7913-a0f3-7409f1dc76ec","0198ee3c-27ac-7803-a9ea-f3b4ad4ad678","{""num_scrambled_semantic"":""8"",""num_scrambled_causal"":""4"",""num_scrambled_schematic"":""4"",""participantId"":""46FD756618464BA6AA2CE07DA35F4263"",""assignmentId"":""0198ee58-42b6-7913-a0f3-7409f1dc76ec"",""projectId"":""0198ee3c-27ac-7803-a9ea-f3b4ad4ad678""}","https://test12345.live/?num_scrambled_semantic=8&num_scrambled_causal=4&num_scrambled_schematic=4&participantId=46FD756618464BA6AA2CE07DA35F4263&assignmentId=0198ee58-42b6-7913-a0f3-7409f1dc76ec&projectId=0198ee3c-27ac-7803-a9ea-f3b4ad4ad678","46FD756618464BA6AA2CE07DA35F4263-2025-08-28-02-35-23","","1185","","images/schematic_sequence/dinner_party_scheme/dinner_party_scheme_6.png","0","",""
"","","","","","image-button-response","83","408464","0.0-12.0-1.0-2.8","46FD756618464BA6AA2CE07DA35F4263","46FD756618464BA6AA2CE07DA35F4263","0198ee58-42b6-7913-a0f3-7409f1dc76ec","0198ee3c-27ac-7803-a9ea-f3b4ad4ad678","{""num_scrambled_semantic"":""8"",""num_scrambled_causal"":""4"",""num_scrambled_schematic"":""4"",""participantId"":""46FD756618464BA6AA2CE07DA35F4263"",""assignmentId"":""0198ee58-42b6-7913-a0f3-7409f1dc76ec"",""projectId"":""0198ee3c-27ac-7803-a9ea-f3b4ad4ad678""}","https://test12345.live/?num_scrambled_semantic=8&num_scrambled_causal=4&num_scrambled_schematic=4&participantId=46FD756618464BA6AA2CE07DA35F4263&assignmentId=0198ee58-42b6-7913-a0f3-7409f1dc76ec&projectId=0198ee3c-27ac-7803-a9ea-f3b4ad4ad678","46FD756618464BA6AA2CE07DA35F4263-2025-08-28-02-35-23","","null","","[]","null","",""
"","","","","","image-button-response","84","412966","0.0-12.0-1.0-0.9","46FD756618464BA6AA2CE07DA35F4263","46FD756618464BA6AA2CE07DA35F4263","0198ee58-42b6-7913-a0f3-7409f1dc76ec","0198ee3c-27ac-7803-a9ea-f3b4ad4ad678","{""num_scrambled_semantic"":""8"",""num_scrambled_causal"":""4"",""num_scrambled_schematic"":""4"",""participantId"":""46FD756618464BA6AA2CE07DA35F4263"",""assignmentId"":""0198ee58-42b6-7913-a0f3-7409f1dc76ec"",""projectId"":""0198ee3c-27ac-7803-a9ea-f3b4ad4ad678""}","https://test12345.live/?num_scrambled_semantic=8&num_scrambled_causal=4&num_scrambled_schematic=4&participantId=46FD756618464BA6AA2CE07DA35F4263&assignmentId=0198ee58-42b6-7913-a0f3-7409f1dc76ec&projectId=0198ee3c-27ac-7803-a9ea-f3b4ad4ad678","46FD756618464BA6AA2CE07DA35F4263-2025-08-28-02-35-23","","null","","images/schematic_sequence/dinner_party_scheme/dinner_party_scheme_4.png","null","",""
"","","","","","image-button-response","85","414622","0.0-12.0-1.0-1.9","46FD756618464BA6AA2CE07DA35F4263","46FD756618464BA6AA2CE07DA35F4263","0198ee58-42b6-7913-a0f3-7409f1dc76ec","0198ee3c-27ac-7803-a9ea-f3b4ad4ad678","{""num_scrambled_semantic"":""8"",""num_scrambled_causal"":""4"",""num_scrambled_schematic"":""4"",""participantId"":""46FD756618464BA6AA2CE07DA35F4263"",""assignmentId"":""0198ee58-42b6-7913-a0f3-7409f1dc76ec"",""projectId"":""0198ee3c-27ac-7803-a9ea-f3b4ad4ad678""}","https://test12345.live/?num_scrambled_semantic=8&num_scrambled_causal=4&num_scrambled_schematic=4&participantId=46FD756618464BA6AA2CE07DA35F4263&assignmentId=0198ee58-42b6-7913-a0f3-7409f1dc76ec&projectId=0198ee3c-27ac-7803-a9ea-f3b4ad4ad678","46FD756618464BA6AA2CE07DA35F4263-2025-08-28-02-35-23","","1654","","images/schematic_sequence/dinner_party_scheme/dinner_party_scheme_4.png","0","",""
"","","","","","image-button-response","86","416423","0.0-12.0-1.0-2.9","46FD756618464BA6AA2CE07DA35F4263","46FD756618464BA6AA2CE07DA35F4263","0198ee58-42b6-7913-a0f3-7409f1dc76ec","0198ee3c-27ac-7803-a9ea-f3b4ad4ad678","{""num_scrambled_semantic"":""8"",""num_scrambled_causal"":""4"",""num_scrambled_schematic"":""4"",""participantId"":""46FD756618464BA6AA2CE07DA35F4263"",""assignmentId"":""0198ee58-42b6-7913-a0f3-7409f1dc76ec"",""projectId"":""0198ee3c-27ac-7803-a9ea-f3b4ad4ad678""}","https://test12345.live/?num_scrambled_semantic=8&num_scrambled_causal=4&num_scrambled_schematic=4&participantId=46FD756618464BA6AA2CE07DA35F4263&assignmentId=0198ee58-42b6-7913-a0f3-7409f1dc76ec&projectId=0198ee3c-27ac-7803-a9ea-f3b4ad4ad678","46FD756618464BA6AA2CE07DA35F4263-2025-08-28-02-35-23","","null","","[]","null","",""
"","","","","","html-audio-response","87","449422","0.0-13.0","46FD756618464BA6AA2CE07DA35F4263","46FD756618464BA6AA2CE07DA35F4263","0198ee58-42b6-7913-a0f3-7409f1dc76ec","0198ee3c-27ac-7803-a9ea-f3b4ad4ad678","{""num_scrambled_semantic"":""8"",""num_scrambled_causal"":""4"",""num_scrambled_schematic"":""4"",""participantId"":""46FD756618464BA6AA2CE07DA35F4263"",""assignmentId"":""0198ee58-42b6-7913-a0f3-7409f1dc76ec"",""projectId"":""0198ee3c-27ac-7803-a9ea-f3b4ad4ad678""}","https://test12345.live/?num_scrambled_semantic=8&num_scrambled_causal=4&num_scrambled_schematic=4&participantId=46FD756618464BA6AA2CE07DA35F4263&assignmentId=0198ee58-42b6-7913-a0f3-7409f1dc76ec&projectId=0198ee3c-27ac-7803-a9ea-f3b4ad4ad678","46FD756618464BA6AA2CE07DA35F4263-2025-08-28-02-35-23","","31581","","[""<span style=\""color: red; font-size: 24px\""> NOW RECORDING</span><p>Please say out loud all the images you saw, in the order of the story they create. Try to recall the sequence of events as they appeared in the story, not necessarily the order they were presented on the screen.</p>""]","","3","dinner_party_scheme"
"","","","","","image-button-response","88","455429","0.0-14.0-0.0","46FD756618464BA6AA2CE07DA35F4263","46FD756618464BA6AA2CE07DA35F4263","0198ee58-42b6-7913-a0f3-7409f1dc76ec","0198ee3c-27ac-7803-a9ea-f3b4ad4ad678","{""num_scrambled_semantic"":""8"",""num_scrambled_causal"":""4"",""num_scrambled_schematic"":""4"",""participantId"":""46FD756618464BA6AA2CE07DA35F4263"",""assignmentId"":""0198ee58-42b6-7913-a0f3-7409f1dc76ec"",""projectId"":""0198ee3c-27ac-7803-a9ea-f3b4ad4ad678""}","https://test12345.live/?num_scrambled_semantic=8&num_scrambled_causal=4&num_scrambled_schematic=4&participantId=46FD756618464BA6AA2CE07DA35F4263&assignmentId=0198ee58-42b6-7913-a0f3-7409f1dc76ec&projectId=0198ee3c-27ac-7803-a9ea-f3b4ad4ad678","46FD756618464BA6AA2CE07DA35F4263-2025-08-28-02-35-23","","null","","images/semantic_sequence/housework_semantic/housework_semantic_0.png","null","",""
"","","","","","image-button-response","89","459931","0.0-14.0-1.0-0.0","46FD756618464BA6AA2CE07DA35F4263","46FD756618464BA6AA2CE07DA35F4263","0198ee58-42b6-7913-a0f3-7409f1dc76ec","0198ee3c-27ac-7803-a9ea-f3b4ad4ad678","{""num_scrambled_semantic"":""8"",""num_scrambled_causal"":""4"",""num_scrambled_schematic"":""4"",""participantId"":""46FD756618464BA6AA2CE07DA35F4263"",""assignmentId"":""0198ee58-42b6-7913-a0f3-7409f1dc76ec"",""projectId"":""0198ee3c-27ac-7803-a9ea-f3b4ad4ad678""}","https://test12345.live/?num_scrambled_semantic=8&num_scrambled_causal=4&num_scrambled_schematic=4&participantId=46FD756618464BA6AA2CE07DA35F4263&assignmentId=0198ee58-42b6-7913-a0f3-7409f1dc76ec&projectId=0198ee3c-27ac-7803-a9ea-f3b4ad4ad678","46FD756618464BA6AA2CE07DA35F4263-2025-08-28-02-35-23","","null","","images/semantic_sequence/housework_semantic/housework_semantic_4.png","null","",""
"","","","","","image-button-response","90","462146","0.0-14.0-1.0-1.0","46FD756618464BA6AA2CE07DA35F4263","46FD756618464BA6AA2CE07DA35F4263","0198ee58-42b6-7913-a0f3-7409f1dc76ec","0198ee3c-27ac-7803-a9ea-f3b4ad4ad678","{""num_scrambled_semantic"":""8"",""num_scrambled_causal"":""4"",""num_scrambled_schematic"":""4"",""participantId"":""46FD756618464BA6AA2CE07DA35F4263"",""assignmentId"":""0198ee58-42b6-7913-a0f3-7409f1dc76ec"",""projectId"":""0198ee3c-27ac-7803-a9ea-f3b4ad4ad678""}","https://test12345.live/?num_scrambled_semantic=8&num_scrambled_causal=4&num_scrambled_schematic=4&participantId=46FD756618464BA6AA2CE07DA35F4263&assignmentId=0198ee58-42b6-7913-a0f3-7409f1dc76ec&projectId=0198ee3c-27ac-7803-a9ea-f3b4ad4ad678","46FD756618464BA6AA2CE07DA35F4263-2025-08-28-02-35-23","","2214","","images/semantic_sequence/housework_semantic/housework_semantic_4.png","0","",""
"","","","","","image-button-response","91","463948","0.0-14.0-1.0-2.0","46FD756618464BA6AA2CE07DA35F4263","46FD756618464BA6AA2CE07DA35F4263","0198ee58-42b6-7913-a0f3-7409f1dc76ec","0198ee3c-27ac-7803-a9ea-f3b4ad4ad678","{""num_scrambled_semantic"":""8"",""num_scrambled_causal"":""4"",""num_scrambled_schematic"":""4"",""participantId"":""46FD756618464BA6AA2CE07DA35F4263"",""assignmentId"":""0198ee58-42b6-7913-a0f3-7409f1dc76ec"",""projectId"":""0198ee3c-27ac-7803-a9ea-f3b4ad4ad678""}","https://test12345.live/?num_scrambled_semantic=8&num_scrambled_causal=4&num_scrambled_schematic=4&participantId=46FD756618464BA6AA2CE07DA35F4263&assignmentId=0198ee58-42b6-7913-a0f3-7409f1dc76ec&projectId=0198ee3c-27ac-7803-a9ea-f3b4ad4ad678","46FD756618464BA6AA2CE07DA35F4263-2025-08-28-02-35-23","","null","","[]","null","",""
"","","","","","image-button-response","92","468450","0.0-14.0-1.0-0.1","46FD756618464BA6AA2CE07DA35F4263","46FD756618464BA6AA2CE07DA35F4263","0198ee58-42b6-7913-a0f3-7409f1dc76ec","0198ee3c-27ac-7803-a9ea-f3b4ad4ad678","{""num_scrambled_semantic"":""8"",""num_scrambled_causal"":""4"",""num_scrambled_schematic"":""4"",""participantId"":""46FD756618464BA6AA2CE07DA35F4263"",""assignmentId"":""0198ee58-42b6-7913-a0f3-7409f1dc76ec"",""projectId"":""0198ee3c-27ac-7803-a9ea-f3b4ad4ad678""}","https://test12345.live/?num_scrambled_semantic=8&num_scrambled_causal=4&num_scrambled_schematic=4&participantId=46FD756618464BA6AA2CE07DA35F4263&assignmentId=0198ee58-42b6-7913-a0f3-7409f1dc76ec&projectId=0198ee3c-27ac-7803-a9ea-f3b4ad4ad678","46FD756618464BA6AA2CE07DA35F4263-2025-08-28-02-35-23","","null","","images/semantic_sequence/housework_semantic/housework_semantic_1.png","null","",""
"","","","","","image-button-response","93","471066","0.0-14.0-1.0-1.1","46FD756618464BA6AA2CE07DA35F4263","46FD756618464BA6AA2CE07DA35F4263","0198ee58-42b6-7913-a0f3-7409f1dc76ec","0198ee3c-27ac-7803-a9ea-f3b4ad4ad678","{""num_scrambled_semantic"":""8"",""num_scrambled_causal"":""4"",""num_scrambled_schematic"":""4"",""participantId"":""46FD756618464BA6AA2CE07DA35F4263"",""assignmentId"":""0198ee58-42b6-7913-a0f3-7409f1dc76ec"",""projectId"":""0198ee3c-27ac-7803-a9ea-f3b4ad4ad678""}","https://test12345.live/?num_scrambled_semantic=8&num_scrambled_causal=4&num_scrambled_schematic=4&participantId=46FD756618464BA6AA2CE07DA35F4263&assignmentId=0198ee58-42b6-7913-a0f3-7409f1dc76ec&projectId=0198ee3c-27ac-7803-a9ea-f3b4ad4ad678","46FD756618464BA6AA2CE07DA35F4263-2025-08-28-02-35-23","","2614","","images/semantic_sequence/housework_semantic/housework_semantic_1.png","1","",""
"","","","","","image-button-response","94","472868","0.0-14.0-1.0-2.1","46FD756618464BA6AA2CE07DA35F4263","46FD756618464BA6AA2CE07DA35F4263","0198ee58-42b6-7913-a0f3-7409f1dc76ec","0198ee3c-27ac-7803-a9ea-f3b4ad4ad678","{""num_scrambled_semantic"":""8"",""num_scrambled_causal"":""4"",""num_scrambled_schematic"":""4"",""participantId"":""46FD756618464BA6AA2CE07DA35F4263"",""assignmentId"":""0198ee58-42b6-7913-a0f3-7409f1dc76ec"",""projectId"":""0198ee3c-27ac-7803-a9ea-f3b4ad4ad678""}","https://test12345.live/?num_scrambled_semantic=8&num_scrambled_causal=4&num_scrambled_schematic=4&participantId=46FD756618464BA6AA2CE07DA35F4263&assignmentId=0198ee58-42b6-7913-a0f3-7409f1dc76ec&projectId=0198ee3c-27ac-7803-a9ea-f3b4ad4ad678","46FD756618464BA6AA2CE07DA35F4263-2025-08-28-02-35-23","","null","","[]","null","",""
"","","","","","image-button-response","95","477369","0.0-14.0-1.0-0.2","46FD756618464BA6AA2CE07DA35F4263","46FD756618464BA6AA2CE07DA35F4263","0198ee58-42b6-7913-a0f3-7409f1dc76ec","0198ee3c-27ac-7803-a9ea-f3b4ad4ad678","{""num_scrambled_semantic"":""8"",""num_scrambled_causal"":""4"",""num_scrambled_schematic"":""4"",""participantId"":""46FD756618464BA6AA2CE07DA35F4263"",""assignmentId"":""0198ee58-42b6-7913-a0f3-7409f1dc76ec"",""projectId"":""0198ee3c-27ac-7803-a9ea-f3b4ad4ad678""}","https://test12345.live/?num_scrambled_semantic=8&num_scrambled_causal=4&num_scrambled_schematic=4&participantId=46FD756618464BA6AA2CE07DA35F4263&assignmentId=0198ee58-42b6-7913-a0f3-7409f1dc76ec&projectId=0198ee3c-27ac-7803-a9ea-f3b4ad4ad678","46FD756618464BA6AA2CE07DA35F4263-2025-08-28-02-35-23","","null","","images/semantic_sequence/housework_semantic/housework_semantic_5.png","null","",""
"","","","","","image-button-response","96","478391","0.0-14.0-1.0-1.2","46FD756618464BA6AA2CE07DA35F4263","46FD756618464BA6AA2CE07DA35F4263","0198ee58-42b6-7913-a0f3-7409f1dc76ec","0198ee3c-27ac-7803-a9ea-f3b4ad4ad678","{""num_scrambled_semantic"":""8"",""num_scrambled_causal"":""4"",""num_scrambled_schematic"":""4"",""participantId"":""46FD756618464BA6AA2CE07DA35F4263"",""assignmentId"":""0198ee58-42b6-7913-a0f3-7409f1dc76ec"",""projectId"":""0198ee3c-27ac-7803-a9ea-f3b4ad4ad678""}","https://test12345.live/?num_scrambled_semantic=8&num_scrambled_causal=4&num_scrambled_schematic=4&participantId=46FD756618464BA6AA2CE07DA35F4263&assignmentId=0198ee58-42b6-7913-a0f3-7409f1dc76ec&projectId=0198ee3c-27ac-7803-a9ea-f3b4ad4ad678","46FD756618464BA6AA2CE07DA35F4263-2025-08-28-02-35-23","","1019","","images/semantic_sequence/housework_semantic/housework_semantic_5.png","0","",""
"","","","","","image-button-response","97","480193","0.0-14.0-1.0-2.2","46FD756618464BA6AA2CE07DA35F4263","46FD756618464BA6AA2CE07DA35F4263","0198ee58-42b6-7913-a0f3-7409f1dc76ec","0198ee3c-27ac-7803-a9ea-f3b4ad4ad678","{""num_scrambled_semantic"":""8"",""num_scrambled_causal"":""4"",""num_scrambled_schematic"":""4"",""participantId"":""46FD756618464BA6AA2CE07DA35F4263"",""assignmentId"":""0198ee58-42b6-7913-a0f3-7409f1dc76ec"",""projectId"":""0198ee3c-27ac-7803-a9ea-f3b4ad4ad678""}","https://test12345.live/?num_scrambled_semantic=8&num_scrambled_causal=4&num_scrambled_schematic=4&participantId=46FD756618464BA6AA2CE07DA35F4263&assignmentId=0198ee58-42b6-7913-a0f3-7409f1dc76ec&projectId=0198ee3c-27ac-7803-a9ea-f3b4ad4ad678","46FD756618464BA6AA2CE07DA35F4263-2025-08-28-02-35-23","","null","","[]","null","",""
"","","","","","image-button-response","98","484694","0.0-14.0-1.0-0.3","46FD756618464BA6AA2CE07DA35F4263","46FD756618464BA6AA2CE07DA35F4263","0198ee58-42b6-7913-a0f3-7409f1dc76ec","0198ee3c-27ac-7803-a9ea-f3b4ad4ad678","{""num_scrambled_semantic"":""8"",""num_scrambled_causal"":""4"",""num_scrambled_schematic"":""4"",""participantId"":""46FD756618464BA6AA2CE07DA35F4263"",""assignmentId"":""0198ee58-42b6-7913-a0f3-7409f1dc76ec"",""projectId"":""0198ee3c-27ac-7803-a9ea-f3b4ad4ad678""}","https://test12345.live/?num_scrambled_semantic=8&num_scrambled_causal=4&num_scrambled_schematic=4&participantId=46FD756618464BA6AA2CE07DA35F4263&assignmentId=0198ee58-42b6-7913-a0f3-7409f1dc76ec&projectId=0198ee3c-27ac-7803-a9ea-f3b4ad4ad678","46FD756618464BA6AA2CE07DA35F4263-2025-08-28-02-35-23","","null","","images/semantic_sequence/housework_semantic/housework_semantic_6.png","null","",""
"","","","","","image-button-response","99","485662","0.0-14.0-1.0-1.3","46FD756618464BA6AA2CE07DA35F4263","46FD756618464BA6AA2CE07DA35F4263","0198ee58-42b6-7913-a0f3-7409f1dc76ec","0198ee3c-27ac-7803-a9ea-f3b4ad4ad678","{""num_scrambled_semantic"":""8"",""num_scrambled_causal"":""4"",""num_scrambled_schematic"":""4"",""participantId"":""46FD756618464BA6AA2CE07DA35F4263"",""assignmentId"":""0198ee58-42b6-7913-a0f3-7409f1dc76ec"",""projectId"":""0198ee3c-27ac-7803-a9ea-f3b4ad4ad678""}","https://test12345.live/?num_scrambled_semantic=8&num_scrambled_causal=4&num_scrambled_schematic=4&participantId=46FD756618464BA6AA2CE07DA35F4263&assignmentId=0198ee58-42b6-7913-a0f3-7409f1dc76ec&projectId=0198ee3c-27ac-7803-a9ea-f3b4ad4ad678","46FD756618464BA6AA2CE07DA35F4263-2025-08-28-02-35-23","","966","","images/semantic_sequence/housework_semantic/housework_semantic_6.png","0","",""
"","","","","","image-button-response","100","487465","0.0-14.0-1.0-2.3","46FD756618464BA6AA2CE07DA35F4263","46FD756618464BA6AA2CE07DA35F4263","0198ee58-42b6-7913-a0f3-7409f1dc76ec","0198ee3c-27ac-7803-a9ea-f3b4ad4ad678","{""num_scrambled_semantic"":""8"",""num_scrambled_causal"":""4"",""num_scrambled_schematic"":""4"",""participantId"":""46FD756618464BA6AA2CE07DA35F4263"",""assignmentId"":""0198ee58-42b6-7913-a0f3-7409f1dc76ec"",""projectId"":""0198ee3c-27ac-7803-a9ea-f3b4ad4ad678""}","https://test12345.live/?num_scrambled_semantic=8&num_scrambled_causal=4&num_scrambled_schematic=4&participantId=46FD756618464BA6AA2CE07DA35F4263&assignmentId=0198ee58-42b6-7913-a0f3-7409f1dc76ec&projectId=0198ee3c-27ac-7803-a9ea-f3b4ad4ad678","46FD756618464BA6AA2CE07DA35F4263-2025-08-28-02-35-23","","null","","[]","null","",""
"","","","","","image-button-response","101","491967","0.0-14.0-1.0-0.4","46FD756618464BA6AA2CE07DA35F4263","46FD756618464BA6AA2CE07DA35F4263","0198ee58-42b6-7913-a0f3-7409f1dc76ec","0198ee3c-27ac-7803-a9ea-f3b4ad4ad678","{""num_scrambled_semantic"":""8"",""num_scrambled_causal"":""4"",""num_scrambled_schematic"":""4"",""participantId"":""46FD756618464BA6AA2CE07DA35F4263"",""assignmentId"":""0198ee58-42b6-7913-a0f3-7409f1dc76ec"",""projectId"":""0198ee3c-27ac-7803-a9ea-f3b4ad4ad678""}","https://test12345.live/?num_scrambled_semantic=8&num_scrambled_causal=4&num_scrambled_schematic=4&participantId=46FD756618464BA6AA2CE07DA35F4263&assignmentId=0198ee58-42b6-7913-a0f3-7409f1dc76ec&projectId=0198ee3c-27ac-7803-a9ea-f3b4ad4ad678","46FD756618464BA6AA2CE07DA35F4263-2025-08-28-02-35-23","","null","","images/semantic_sequence/housework_semantic/housework_semantic_ten.png","null","",""
"","","","","","image-button-response","102","492866","0.0-14.0-1.0-1.4","46FD756618464BA6AA2CE07DA35F4263","46FD756618464BA6AA2CE07DA35F4263","0198ee58-42b6-7913-a0f3-7409f1dc76ec","0198ee3c-27ac-7803-a9ea-f3b4ad4ad678","{""num_scrambled_semantic"":""8"",""num_scrambled_causal"":""4"",""num_scrambled_schematic"":""4"",""participantId"":""46FD756618464BA6AA2CE07DA35F4263"",""assignmentId"":""0198ee58-42b6-7913-a0f3-7409f1dc76ec"",""projectId"":""0198ee3c-27ac-7803-a9ea-f3b4ad4ad678""}","https://test12345.live/?num_scrambled_semantic=8&num_scrambled_causal=4&num_scrambled_schematic=4&participantId=46FD756618464BA6AA2CE07DA35F4263&assignmentId=0198ee58-42b6-7913-a0f3-7409f1dc76ec&projectId=0198ee3c-27ac-7803-a9ea-f3b4ad4ad678","46FD756618464BA6AA2CE07DA35F4263-2025-08-28-02-35-23","","897","","images/semantic_sequence/housework_semantic/housework_semantic_ten.png","0","",""
"","","","","","image-button-response","103","494668","0.0-14.0-1.0-2.4","46FD756618464BA6AA2CE07DA35F4263","46FD756618464BA6AA2CE07DA35F4263","0198ee58-42b6-7913-a0f3-7409f1dc76ec","0198ee3c-27ac-7803-a9ea-f3b4ad4ad678","{""num_scrambled_semantic"":""8"",""num_scrambled_causal"":""4"",""num_scrambled_schematic"":""4"",""participantId"":""46FD756618464BA6AA2CE07DA35F4263"",""assignmentId"":""0198ee58-42b6-7913-a0f3-7409f1dc76ec"",""projectId"":""0198ee3c-27ac-7803-a9ea-f3b4ad4ad678""}","https://test12345.live/?num_scrambled_semantic=8&num_scrambled_causal=4&num_scrambled_schematic=4&participantId=46FD756618464BA6AA2CE07DA35F4263&assignmentId=0198ee58-42b6-7913-a0f3-7409f1dc76ec&projectId=0198ee3c-27ac-7803-a9ea-f3b4ad4ad678","46FD756618464BA6AA2CE07DA35F4263-2025-08-28-02-35-23","","null","","[]","null","",""
"","","","","","image-button-response","104","499171","0.0-14.0-1.0-0.5","46FD756618464BA6AA2CE07DA35F4263","46FD756618464BA6AA2CE07DA35F4263","0198ee58-42b6-7913-a0f3-7409f1dc76ec","0198ee3c-27ac-7803-a9ea-f3b4ad4ad678","{""num_scrambled_semantic"":""8"",""num_scrambled_causal"":""4"",""num_scrambled_schematic"":""4"",""participantId"":""46FD756618464BA6AA2CE07DA35F4263"",""assignmentId"":""0198ee58-42b6-7913-a0f3-7409f1dc76ec"",""projectId"":""0198ee3c-27ac-7803-a9ea-f3b4ad4ad678""}","https://test12345.live/?num_scrambled_semantic=8&num_scrambled_causal=4&num_scrambled_schematic=4&participantId=46FD756618464BA6AA2CE07DA35F4263&assignmentId=0198ee58-42b6-7913-a0f3-7409f1dc76ec&projectId=0198ee3c-27ac-7803-a9ea-f3b4ad4ad678","46FD756618464BA6AA2CE07DA35F4263-2025-08-28-02-35-23","","null","","images/semantic_sequence/housework_semantic/housework_semantic_2.png","null","",""
"","","","","","image-button-response","105","499991","0.0-14.0-1.0-1.5","46FD756618464BA6AA2CE07DA35F4263","46FD756618464BA6AA2CE07DA35F4263","0198ee58-42b6-7913-a0f3-7409f1dc76ec","0198ee3c-27ac-7803-a9ea-f3b4ad4ad678","{""num_scrambled_semantic"":""8"",""num_scrambled_causal"":""4"",""num_scrambled_schematic"":""4"",""participantId"":""46FD756618464BA6AA2CE07DA35F4263"",""assignmentId"":""0198ee58-42b6-7913-a0f3-7409f1dc76ec"",""projectId"":""0198ee3c-27ac-7803-a9ea-f3b4ad4ad678""}","https://test12345.live/?num_scrambled_semantic=8&num_scrambled_causal=4&num_scrambled_schematic=4&participantId=46FD756618464BA6AA2CE07DA35F4263&assignmentId=0198ee58-42b6-7913-a0f3-7409f1dc76ec&projectId=0198ee3c-27ac-7803-a9ea-f3b4ad4ad678","46FD756618464BA6AA2CE07DA35F4263-2025-08-28-02-35-23","","818","","images/semantic_sequence/housework_semantic/housework_semantic_2.png","0","",""
"","","","","","image-button-response","106","501792","0.0-14.0-1.0-2.5","46FD756618464BA6AA2CE07DA35F4263","46FD756618464BA6AA2CE07DA35F4263","0198ee58-42b6-7913-a0f3-7409f1dc76ec","0198ee3c-27ac-7803-a9ea-f3b4ad4ad678","{""num_scrambled_semantic"":""8"",""num_scrambled_causal"":""4"",""num_scrambled_schematic"":""4"",""participantId"":""46FD756618464BA6AA2CE07DA35F4263"",""assignmentId"":""0198ee58-42b6-7913-a0f3-7409f1dc76ec"",""projectId"":""0198ee3c-27ac-7803-a9ea-f3b4ad4ad678""}","https://test12345.live/?num_scrambled_semantic=8&num_scrambled_causal=4&num_scrambled_schematic=4&participantId=46FD756618464BA6AA2CE07DA35F4263&assignmentId=0198ee58-42b6-7913-a0f3-7409f1dc76ec&projectId=0198ee3c-27ac-7803-a9ea-f3b4ad4ad678","46FD756618464BA6AA2CE07DA35F4263-2025-08-28-02-35-23","","null","","[]","null","",""
"","","","","","image-button-response","107","506296","0.0-14.0-1.0-0.6","46FD756618464BA6AA2CE07DA35F4263","46FD756618464BA6AA2CE07DA35F4263","0198ee58-42b6-7913-a0f3-7409f1dc76ec","0198ee3c-27ac-7803-a9ea-f3b4ad4ad678","{""num_scrambled_semantic"":""8"",""num_scrambled_causal"":""4"",""num_scrambled_schematic"":""4"",""participantId"":""46FD756618464BA6AA2CE07DA35F4263"",""assignmentId"":""0198ee58-42b6-7913-a0f3-7409f1dc76ec"",""projectId"":""0198ee3c-27ac-7803-a9ea-f3b4ad4ad678""}","https://test12345.live/?num_scrambled_semantic=8&num_scrambled_causal=4&num_scrambled_schematic=4&participantId=46FD756618464BA6AA2CE07DA35F4263&assignmentId=0198ee58-42b6-7913-a0f3-7409f1dc76ec&projectId=0198ee3c-27ac-7803-a9ea-f3b4ad4ad678","46FD756618464BA6AA2CE07DA35F4263-2025-08-28-02-35-23","","null","","images/semantic_sequence/housework_semantic/housework_semantic_9.png","null","",""
"","","","","","image-button-response","108","507266","0.0-14.0-1.0-1.6","46FD756618464BA6AA2CE07DA35F4263","46FD756618464BA6AA2CE07DA35F4263","0198ee58-42b6-7913-a0f3-7409f1dc76ec","0198ee3c-27ac-7803-a9ea-f3b4ad4ad678","{""num_scrambled_semantic"":""8"",""num_scrambled_causal"":""4"",""num_scrambled_schematic"":""4"",""participantId"":""46FD756618464BA6AA2CE07DA35F4263"",""assignmentId"":""0198ee58-42b6-7913-a0f3-7409f1dc76ec"",""projectId"":""0198ee3c-27ac-7803-a9ea-f3b4ad4ad678""}","https://test12345.live/?num_scrambled_semantic=8&num_scrambled_causal=4&num_scrambled_schematic=4&participantId=46FD756618464BA6AA2CE07DA35F4263&assignmentId=0198ee58-42b6-7913-a0f3-7409f1dc76ec&projectId=0198ee3c-27ac-7803-a9ea-f3b4ad4ad678","46FD756618464BA6AA2CE07DA35F4263-2025-08-28-02-35-23","","968","","images/semantic_sequence/housework_semantic/housework_semantic_9.png","0","",""
"","","","","","image-button-response","109","509068","0.0-14.0-1.0-2.6","46FD756618464BA6AA2CE07DA35F4263","46FD756618464BA6AA2CE07DA35F4263","0198ee58-42b6-7913-a0f3-7409f1dc76ec","0198ee3c-27ac-7803-a9ea-f3b4ad4ad678","{""num_scrambled_semantic"":""8"",""num_scrambled_causal"":""4"",""num_scrambled_schematic"":""4"",""participantId"":""46FD756618464BA6AA2CE07DA35F4263"",""assignmentId"":""0198ee58-42b6-7913-a0f3-7409f1dc76ec"",""projectId"":""0198ee3c-27ac-7803-a9ea-f3b4ad4ad678""}","https://test12345.live/?num_scrambled_semantic=8&num_scrambled_causal=4&num_scrambled_schematic=4&participantId=46FD756618464BA6AA2CE07DA35F4263&assignmentId=0198ee58-42b6-7913-a0f3-7409f1dc76ec&projectId=0198ee3c-27ac-7803-a9ea-f3b4ad4ad678","46FD756618464BA6AA2CE07DA35F4263-2025-08-28-02-35-23","","null","","[]","null","",""
"","","","","","image-button-response","110","513570","0.0-14.0-1.0-0.7","46FD756618464BA6AA2CE07DA35F4263","46FD756618464BA6AA2CE07DA35F4263","0198ee58-42b6-7913-a0f3-7409f1dc76ec","0198ee3c-27ac-7803-a9ea-f3b4ad4ad678","{""num_scrambled_semantic"":""8"",""num_scrambled_causal"":""4"",""num_scrambled_schematic"":""4"",""participantId"":""46FD756618464BA6AA2CE07DA35F4263"",""assignmentId"":""0198ee58-42b6-7913-a0f3-7409f1dc76ec"",""projectId"":""0198ee3c-27ac-7803-a9ea-f3b4ad4ad678""}","https://test12345.live/?num_scrambled_semantic=8&num_scrambled_causal=4&num_scrambled_schematic=4&participantId=46FD756618464BA6AA2CE07DA35F4263&assignmentId=0198ee58-42b6-7913-a0f3-7409f1dc76ec&projectId=0198ee3c-27ac-7803-a9ea-f3b4ad4ad678","46FD756618464BA6AA2CE07DA35F4263-2025-08-28-02-35-23","","null","","images/semantic_sequence/housework_semantic/housework_semantic_3.png","null","",""
"","","","","","image-button-response","111","515591","0.0-14.0-1.0-1.7","46FD756618464BA6AA2CE07DA35F4263","46FD756618464BA6AA2CE07DA35F4263","0198ee58-42b6-7913-a0f3-7409f1dc76ec","0198ee3c-27ac-7803-a9ea-f3b4ad4ad678","{""num_scrambled_semantic"":""8"",""num_scrambled_causal"":""4"",""num_scrambled_schematic"":""4"",""participantId"":""46FD756618464BA6AA2CE07DA35F4263"",""assignmentId"":""0198ee58-42b6-7913-a0f3-7409f1dc76ec"",""projectId"":""0198ee3c-27ac-7803-a9ea-f3b4ad4ad678""}","https://test12345.live/?num_scrambled_semantic=8&num_scrambled_causal=4&num_scrambled_schematic=4&participantId=46FD756618464BA6AA2CE07DA35F4263&assignmentId=0198ee58-42b6-7913-a0f3-7409f1dc76ec&projectId=0198ee3c-27ac-7803-a9ea-f3b4ad4ad678","46FD756618464BA6AA2CE07DA35F4263-2025-08-28-02-35-23","","2019","","images/semantic_sequence/housework_semantic/housework_semantic_3.png","0","",""
"","","","","","image-button-response","112","517393","0.0-14.0-1.0-2.7","46FD756618464BA6AA2CE07DA35F4263","46FD756618464BA6AA2CE07DA35F4263","0198ee58-42b6-7913-a0f3-7409f1dc76ec","0198ee3c-27ac-7803-a9ea-f3b4ad4ad678","{""num_scrambled_semantic"":""8"",""num_scrambled_causal"":""4"",""num_scrambled_schematic"":""4"",""participantId"":""46FD756618464BA6AA2CE07DA35F4263"",""assignmentId"":""0198ee58-42b6-7913-a0f3-7409f1dc76ec"",""projectId"":""0198ee3c-27ac-7803-a9ea-f3b4ad4ad678""}","https://test12345.live/?num_scrambled_semantic=8&num_scrambled_causal=4&num_scrambled_schematic=4&participantId=46FD756618464BA6AA2CE07DA35F4263&assignmentId=0198ee58-42b6-7913-a0f3-7409f1dc76ec&projectId=0198ee3c-27ac-7803-a9ea-f3b4ad4ad678","46FD756618464BA6AA2CE07DA35F4263-2025-08-28-02-35-23","","null","","[]","null","",""
"","","","","","image-button-response","113","521895","0.0-14.0-1.0-0.8","46FD756618464BA6AA2CE07DA35F4263","46FD756618464BA6AA2CE07DA35F4263","0198ee58-42b6-7913-a0f3-7409f1dc76ec","0198ee3c-27ac-7803-a9ea-f3b4ad4ad678","{""num_scrambled_semantic"":""8"",""num_scrambled_causal"":""4"",""num_scrambled_schematic"":""4"",""participantId"":""46FD756618464BA6AA2CE07DA35F4263"",""assignmentId"":""0198ee58-42b6-7913-a0f3-7409f1dc76ec"",""projectId"":""0198ee3c-27ac-7803-a9ea-f3b4ad4ad678""}","https://test12345.live/?num_scrambled_semantic=8&num_scrambled_causal=4&num_scrambled_schematic=4&participantId=46FD756618464BA6AA2CE07DA35F4263&assignmentId=0198ee58-42b6-7913-a0f3-7409f1dc76ec&projectId=0198ee3c-27ac-7803-a9ea-f3b4ad4ad678","46FD756618464BA6AA2CE07DA35F4263-2025-08-28-02-35-23","","null","","images/semantic_sequence/housework_semantic/housework_semantic_8.png","null","",""
"","","","","","image-button-response","114","522850","0.0-14.0-1.0-1.8","46FD756618464BA6AA2CE07DA35F4263","46FD756618464BA6AA2CE07DA35F4263","0198ee58-42b6-7913-a0f3-7409f1dc76ec","0198ee3c-27ac-7803-a9ea-f3b4ad4ad678","{""num_scrambled_semantic"":""8"",""num_scrambled_causal"":""4"",""num_scrambled_schematic"":""4"",""participantId"":""46FD756618464BA6AA2CE07DA35F4263"",""assignmentId"":""0198ee58-42b6-7913-a0f3-7409f1dc76ec"",""projectId"":""0198ee3c-27ac-7803-a9ea-f3b4ad4ad678""}","https://test12345.live/?num_scrambled_semantic=8&num_scrambled_causal=4&num_scrambled_schematic=4&participantId=46FD756618464BA6AA2CE07DA35F4263&assignmentId=0198ee58-42b6-7913-a0f3-7409f1dc76ec&projectId=0198ee3c-27ac-7803-a9ea-f3b4ad4ad678","46FD756618464BA6AA2CE07DA35F4263-2025-08-28-02-35-23","","954","","images/semantic_sequence/housework_semantic/housework_semantic_8.png","0","",""
