"success","timeout","failed_images","failed_audio","failed_video","trial_type","trial_index","time_elapsed","internal_node_id","subject","subject_id","study_id","session_id","urlvar","current_url","audio_id","view_history","rt","device_id","stimulus","response","estimated_stimulus_onset","seq_name"
"true","false","[]","[]","[]","preload","0","6531","0.0-0.0","474F961C75AD433FBC592DCA8226F111","474F961C75AD433FBC592DCA8226F111","6cd95198-c14d-433a-9d1e-142c4d784950","9076ac92-be42-43a2-9634-8b67c7fe93a7","{""num_scrambled_semantic"":""8"",""num_scrambled_causal"":""4"",""num_scrambled_schematic"":""4"",""participantId"":""474F961C75AD433FBC592DCA8226F111"",""assignmentId"":""6cd95198-c14d-433a-9d1e-142c4d784950"",""projectId"":""9076ac92-be42-43a2-9634-8b67c7fe93a7""}","https://test12345.live/?num_scrambled_semantic=8&num_scrambled_causal=4&num_scrambled_schematic=4&participantId=474F961C75AD433FBC592DCA8226F111&assignmentId=6cd95198-c14d-433a-9d1e-142c4d784950&projectId=9076ac92-be42-43a2-9634-8b67c7fe93a7","474F961C75AD433FBC592DCA8226F111-2025-05-22-19-28-44","","","","","","",""
"","","","","","instructions","1","88942","0.0-1.0","474F961C75AD433FBC592DCA8226F111","474F961C75AD433FBC592DCA8226F111","6cd95198-c14d-433a-9d1e-142c4d784950","9076ac92-be42-43a2-9634-8b67c7fe93a7","{""num_scrambled_semantic"":""8"",""num_scrambled_causal"":""4"",""num_scrambled_schematic"":""4"",""participantId"":""474F961C75AD433FBC592DCA8226F111"",""assignmentId"":""6cd95198-c14d-433a-9d1e-142c4d784950"",""projectId"":""9076ac92-be42-43a2-9634-8b67c7fe93a7""}","https://test12345.live/?num_scrambled_semantic=8&num_scrambled_causal=4&num_scrambled_schematic=4&participantId=474F961C75AD433FBC592DCA8226F111&assignmentId=6cd95198-c14d-433a-9d1e-142c4d784950&projectId=9076ac92-be42-43a2-9634-8b67c7fe93a7","474F961C75AD433FBC592DCA8226F111-2025-05-22-19-28-44","[{""page_index"":0,""viewing_time"":82409}]","82410","","","","",""
"","","","","","instructions","2","106302","0.0-2.0","474F961C75AD433FBC592DCA8226F111","474F961C75AD433FBC592DCA8226F111","6cd95198-c14d-433a-9d1e-142c4d784950","9076ac92-be42-43a2-9634-8b67c7fe93a7","{""num_scrambled_semantic"":""8"",""num_scrambled_causal"":""4"",""num_scrambled_schematic"":""4"",""participantId"":""474F961C75AD433FBC592DCA8226F111"",""assignmentId"":""6cd95198-c14d-433a-9d1e-142c4d784950"",""projectId"":""9076ac92-be42-43a2-9634-8b67c7fe93a7""}","https://test12345.live/?num_scrambled_semantic=8&num_scrambled_causal=4&num_scrambled_schematic=4&participantId=474F961C75AD433FBC592DCA8226F111&assignmentId=6cd95198-c14d-433a-9d1e-142c4d784950&projectId=9076ac92-be42-43a2-9634-8b67c7fe93a7","474F961C75AD433FBC592DCA8226F111-2025-05-22-19-28-44","[{""page_index"":0,""viewing_time"":17359}]","17359","","","","",""
"true","","","","","fullscreen","3","115386","0.0-3.0","474F961C75AD433FBC592DCA8226F111","474F961C75AD433FBC592DCA8226F111","6cd95198-c14d-433a-9d1e-142c4d784950","9076ac92-be42-43a2-9634-8b67c7fe93a7","{""num_scrambled_semantic"":""8"",""num_scrambled_causal"":""4"",""num_scrambled_schematic"":""4"",""participantId"":""474F961C75AD433FBC592DCA8226F111"",""assignmentId"":""6cd95198-c14d-433a-9d1e-142c4d784950"",""projectId"":""9076ac92-be42-43a2-9634-8b67c7fe93a7""}","https://test12345.live/?num_scrambled_semantic=8&num_scrambled_causal=4&num_scrambled_schematic=4&participantId=474F961C75AD433FBC592DCA8226F111&assignmentId=6cd95198-c14d-433a-9d1e-142c4d784950&projectId=9076ac92-be42-43a2-9634-8b67c7fe93a7","474F961C75AD433FBC592DCA8226F111-2025-05-22-19-28-44","","8079","","","","",""
"","","","","","initialize-microphone","4","181234","0.0-4.0-0.0","474F961C75AD433FBC592DCA8226F111","474F961C75AD433FBC592DCA8226F111","6cd95198-c14d-433a-9d1e-142c4d784950","9076ac92-be42-43a2-9634-8b67c7fe93a7","{""num_scrambled_semantic"":""8"",""num_scrambled_causal"":""4"",""num_scrambled_schematic"":""4"",""participantId"":""474F961C75AD433FBC592DCA8226F111"",""assignmentId"":""6cd95198-c14d-433a-9d1e-142c4d784950"",""projectId"":""9076ac92-be42-43a2-9634-8b67c7fe93a7""}","https://test12345.live/?num_scrambled_semantic=8&num_scrambled_causal=4&num_scrambled_schematic=4&participantId=474F961C75AD433FBC592DCA8226F111&assignmentId=6cd95198-c14d-433a-9d1e-142c4d784950&projectId=9076ac92-be42-43a2-9634-8b67c7fe93a7","474F961C75AD433FBC592DCA8226F111-2025-05-22-19-28-44","","","752038c4c5395227b6bb3c8b39650d6388e3f16f58b84493cb205385588840f9","","","",""
"","","","","","html-audio-response","5","197813","0.0-4.0-1.0","474F961C75AD433FBC592DCA8226F111","474F961C75AD433FBC592DCA8226F111","6cd95198-c14d-433a-9d1e-142c4d784950","9076ac92-be42-43a2-9634-8b67c7fe93a7","{""num_scrambled_semantic"":""8"",""num_scrambled_causal"":""4"",""num_scrambled_schematic"":""4"",""participantId"":""474F961C75AD433FBC592DCA8226F111"",""assignmentId"":""6cd95198-c14d-433a-9d1e-142c4d784950"",""projectId"":""9076ac92-be42-43a2-9634-8b67c7fe93a7""}","https://test12345.live/?num_scrambled_semantic=8&num_scrambled_causal=4&num_scrambled_schematic=4&participantId=474F961C75AD433FBC592DCA8226F111&assignmentId=6cd95198-c14d-433a-9d1e-142c4d784950&projectId=9076ac92-be42-43a2-9634-8b67c7fe93a7","474F961C75AD433FBC592DCA8226F111-2025-05-22-19-28-44","","2992","","<span style=""color: red; font-size: 24px""> NOW RECORDING</span>
        <p>Please test Microphone</p>","","1",""
"","","","","","html-button-response","6","199727","0.0-4.0-2.0","474F961C75AD433FBC592DCA8226F111","474F961C75AD433FBC592DCA8226F111","6cd95198-c14d-433a-9d1e-142c4d784950","9076ac92-be42-43a2-9634-8b67c7fe93a7","{""num_scrambled_semantic"":""8"",""num_scrambled_causal"":""4"",""num_scrambled_schematic"":""4"",""participantId"":""474F961C75AD433FBC592DCA8226F111"",""assignmentId"":""6cd95198-c14d-433a-9d1e-142c4d784950"",""projectId"":""9076ac92-be42-43a2-9634-8b67c7fe93a7""}","https://test12345.live/?num_scrambled_semantic=8&num_scrambled_causal=4&num_scrambled_schematic=4&participantId=474F961C75AD433FBC592DCA8226F111&assignmentId=6cd95198-c14d-433a-9d1e-142c4d784950&projectId=9076ac92-be42-43a2-9634-8b67c7fe93a7","474F961C75AD433FBC592DCA8226F111-2025-05-22-19-28-44","","1912","","<p style=""font-size:48px; color:red;"">Is Microphone OK?</p>","1","",""
"","","","","","instructions","7","218759","0.0-5.0","474F961C75AD433FBC592DCA8226F111","474F961C75AD433FBC592DCA8226F111","6cd95198-c14d-433a-9d1e-142c4d784950","9076ac92-be42-43a2-9634-8b67c7fe93a7","{""num_scrambled_semantic"":""8"",""num_scrambled_causal"":""4"",""num_scrambled_schematic"":""4"",""participantId"":""474F961C75AD433FBC592DCA8226F111"",""assignmentId"":""6cd95198-c14d-433a-9d1e-142c4d784950"",""projectId"":""9076ac92-be42-43a2-9634-8b67c7fe93a7""}","https://test12345.live/?num_scrambled_semantic=8&num_scrambled_causal=4&num_scrambled_schematic=4&participantId=474F961C75AD433FBC592DCA8226F111&assignmentId=6cd95198-c14d-433a-9d1e-142c4d784950&projectId=9076ac92-be42-43a2-9634-8b67c7fe93a7","474F961C75AD433FBC592DCA8226F111-2025-05-22-19-28-44","[{""page_index"":0,""viewing_time"":7725},{""page_index"":1,""viewing_time"":11305}]","19031","","","","",""
"","","","","","image-button-response","8","224765","0.0-6.0-0.0","474F961C75AD433FBC592DCA8226F111","474F961C75AD433FBC592DCA8226F111","6cd95198-c14d-433a-9d1e-142c4d784950","9076ac92-be42-43a2-9634-8b67c7fe93a7","{""num_scrambled_semantic"":""8"",""num_scrambled_causal"":""4"",""num_scrambled_schematic"":""4"",""participantId"":""474F961C75AD433FBC592DCA8226F111"",""assignmentId"":""6cd95198-c14d-433a-9d1e-142c4d784950"",""projectId"":""9076ac92-be42-43a2-9634-8b67c7fe93a7""}","https://test12345.live/?num_scrambled_semantic=8&num_scrambled_causal=4&num_scrambled_schematic=4&participantId=474F961C75AD433FBC592DCA8226F111&assignmentId=6cd95198-c14d-433a-9d1e-142c4d784950&projectId=9076ac92-be42-43a2-9634-8b67c7fe93a7","474F961C75AD433FBC592DCA8226F111-2025-05-22-19-28-44","","null","","images/instructions/movie_0.png","null","",""
"","","","","","image-button-response","9","229279","0.0-6.0-1.0-0.0","474F961C75AD433FBC592DCA8226F111","474F961C75AD433FBC592DCA8226F111","6cd95198-c14d-433a-9d1e-142c4d784950","9076ac92-be42-43a2-9634-8b67c7fe93a7","{""num_scrambled_semantic"":""8"",""num_scrambled_causal"":""4"",""num_scrambled_schematic"":""4"",""participantId"":""474F961C75AD433FBC592DCA8226F111"",""assignmentId"":""6cd95198-c14d-433a-9d1e-142c4d784950"",""projectId"":""9076ac92-be42-43a2-9634-8b67c7fe93a7""}","https://test12345.live/?num_scrambled_semantic=8&num_scrambled_causal=4&num_scrambled_schematic=4&participantId=474F961C75AD433FBC592DCA8226F111&assignmentId=6cd95198-c14d-433a-9d1e-142c4d784950&projectId=9076ac92-be42-43a2-9634-8b67c7fe93a7","474F961C75AD433FBC592DCA8226F111-2025-05-22-19-28-44","","null","","images/instructions/movie_1.png","null","",""
"","","","","","image-button-response","10","232214","0.0-6.0-1.0-1.0","474F961C75AD433FBC592DCA8226F111","474F961C75AD433FBC592DCA8226F111","6cd95198-c14d-433a-9d1e-142c4d784950","9076ac92-be42-43a2-9634-8b67c7fe93a7","{""num_scrambled_semantic"":""8"",""num_scrambled_causal"":""4"",""num_scrambled_schematic"":""4"",""participantId"":""474F961C75AD433FBC592DCA8226F111"",""assignmentId"":""6cd95198-c14d-433a-9d1e-142c4d784950"",""projectId"":""9076ac92-be42-43a2-9634-8b67c7fe93a7""}","https://test12345.live/?num_scrambled_semantic=8&num_scrambled_causal=4&num_scrambled_schematic=4&participantId=474F961C75AD433FBC592DCA8226F111&assignmentId=6cd95198-c14d-433a-9d1e-142c4d784950&projectId=9076ac92-be42-43a2-9634-8b67c7fe93a7","474F961C75AD433FBC592DCA8226F111-2025-05-22-19-28-44","","2934","","images/instructions/movie_1.png","0","",""
"","","","","","image-button-response","11","234031","0.0-6.0-1.0-2.0","474F961C75AD433FBC592DCA8226F111","474F961C75AD433FBC592DCA8226F111","6cd95198-c14d-433a-9d1e-142c4d784950","9076ac92-be42-43a2-9634-8b67c7fe93a7","{""num_scrambled_semantic"":""8"",""num_scrambled_causal"":""4"",""num_scrambled_schematic"":""4"",""participantId"":""474F961C75AD433FBC592DCA8226F111"",""assignmentId"":""6cd95198-c14d-433a-9d1e-142c4d784950"",""projectId"":""9076ac92-be42-43a2-9634-8b67c7fe93a7""}","https://test12345.live/?num_scrambled_semantic=8&num_scrambled_causal=4&num_scrambled_schematic=4&participantId=474F961C75AD433FBC592DCA8226F111&assignmentId=6cd95198-c14d-433a-9d1e-142c4d784950&projectId=9076ac92-be42-43a2-9634-8b67c7fe93a7","474F961C75AD433FBC592DCA8226F111-2025-05-22-19-28-44","","null","","[]","null","",""
"","","","","","image-button-response","12","238547","0.0-6.0-1.0-0.1","474F961C75AD433FBC592DCA8226F111","474F961C75AD433FBC592DCA8226F111","6cd95198-c14d-433a-9d1e-142c4d784950","9076ac92-be42-43a2-9634-8b67c7fe93a7","{""num_scrambled_semantic"":""8"",""num_scrambled_causal"":""4"",""num_scrambled_schematic"":""4"",""participantId"":""474F961C75AD433FBC592DCA8226F111"",""assignmentId"":""6cd95198-c14d-433a-9d1e-142c4d784950"",""projectId"":""9076ac92-be42-43a2-9634-8b67c7fe93a7""}","https://test12345.live/?num_scrambled_semantic=8&num_scrambled_causal=4&num_scrambled_schematic=4&participantId=474F961C75AD433FBC592DCA8226F111&assignmentId=6cd95198-c14d-433a-9d1e-142c4d784950&projectId=9076ac92-be42-43a2-9634-8b67c7fe93a7","474F961C75AD433FBC592DCA8226F111-2025-05-22-19-28-44","","null","","images/instructions/movie_2.png","null","",""
"","","","","","image-button-response","13","240598","0.0-6.0-1.0-1.1","474F961C75AD433FBC592DCA8226F111","474F961C75AD433FBC592DCA8226F111","6cd95198-c14d-433a-9d1e-142c4d784950","9076ac92-be42-43a2-9634-8b67c7fe93a7","{""num_scrambled_semantic"":""8"",""num_scrambled_causal"":""4"",""num_scrambled_schematic"":""4"",""participantId"":""474F961C75AD433FBC592DCA8226F111"",""assignmentId"":""6cd95198-c14d-433a-9d1e-142c4d784950"",""projectId"":""9076ac92-be42-43a2-9634-8b67c7fe93a7""}","https://test12345.live/?num_scrambled_semantic=8&num_scrambled_causal=4&num_scrambled_schematic=4&participantId=474F961C75AD433FBC592DCA8226F111&assignmentId=6cd95198-c14d-433a-9d1e-142c4d784950&projectId=9076ac92-be42-43a2-9634-8b67c7fe93a7","474F961C75AD433FBC592DCA8226F111-2025-05-22-19-28-44","","2049","","images/instructions/movie_2.png","0","",""
"","","","","","image-button-response","14","242401","0.0-6.0-1.0-2.1","474F961C75AD433FBC592DCA8226F111","474F961C75AD433FBC592DCA8226F111","6cd95198-c14d-433a-9d1e-142c4d784950","9076ac92-be42-43a2-9634-8b67c7fe93a7","{""num_scrambled_semantic"":""8"",""num_scrambled_causal"":""4"",""num_scrambled_schematic"":""4"",""participantId"":""474F961C75AD433FBC592DCA8226F111"",""assignmentId"":""6cd95198-c14d-433a-9d1e-142c4d784950"",""projectId"":""9076ac92-be42-43a2-9634-8b67c7fe93a7""}","https://test12345.live/?num_scrambled_semantic=8&num_scrambled_causal=4&num_scrambled_schematic=4&participantId=474F961C75AD433FBC592DCA8226F111&assignmentId=6cd95198-c14d-433a-9d1e-142c4d784950&projectId=9076ac92-be42-43a2-9634-8b67c7fe93a7","474F961C75AD433FBC592DCA8226F111-2025-05-22-19-28-44","","null","","[]","null","",""
"","","","","","image-button-response","15","246913","0.0-6.0-1.0-0.2","474F961C75AD433FBC592DCA8226F111","474F961C75AD433FBC592DCA8226F111","6cd95198-c14d-433a-9d1e-142c4d784950","9076ac92-be42-43a2-9634-8b67c7fe93a7","{""num_scrambled_semantic"":""8"",""num_scrambled_causal"":""4"",""num_scrambled_schematic"":""4"",""participantId"":""474F961C75AD433FBC592DCA8226F111"",""assignmentId"":""6cd95198-c14d-433a-9d1e-142c4d784950"",""projectId"":""9076ac92-be42-43a2-9634-8b67c7fe93a7""}","https://test12345.live/?num_scrambled_semantic=8&num_scrambled_causal=4&num_scrambled_schematic=4&participantId=474F961C75AD433FBC592DCA8226F111&assignmentId=6cd95198-c14d-433a-9d1e-142c4d784950&projectId=9076ac92-be42-43a2-9634-8b67c7fe93a7","474F961C75AD433FBC592DCA8226F111-2025-05-22-19-28-44","","null","","images/instructions/movie_3.png","null","",""
"","","","","","image-button-response","16","248054","0.0-6.0-1.0-1.2","474F961C75AD433FBC592DCA8226F111","474F961C75AD433FBC592DCA8226F111","6cd95198-c14d-433a-9d1e-142c4d784950","9076ac92-be42-43a2-9634-8b67c7fe93a7","{""num_scrambled_semantic"":""8"",""num_scrambled_causal"":""4"",""num_scrambled_schematic"":""4"",""participantId"":""474F961C75AD433FBC592DCA8226F111"",""assignmentId"":""6cd95198-c14d-433a-9d1e-142c4d784950"",""projectId"":""9076ac92-be42-43a2-9634-8b67c7fe93a7""}","https://test12345.live/?num_scrambled_semantic=8&num_scrambled_causal=4&num_scrambled_schematic=4&participantId=474F961C75AD433FBC592DCA8226F111&assignmentId=6cd95198-c14d-433a-9d1e-142c4d784950&projectId=9076ac92-be42-43a2-9634-8b67c7fe93a7","474F961C75AD433FBC592DCA8226F111-2025-05-22-19-28-44","","1139","","images/instructions/movie_3.png","0","",""
"","","","","","image-button-response","17","249863","0.0-6.0-1.0-2.2","474F961C75AD433FBC592DCA8226F111","474F961C75AD433FBC592DCA8226F111","6cd95198-c14d-433a-9d1e-142c4d784950","9076ac92-be42-43a2-9634-8b67c7fe93a7","{""num_scrambled_semantic"":""8"",""num_scrambled_causal"":""4"",""num_scrambled_schematic"":""4"",""participantId"":""474F961C75AD433FBC592DCA8226F111"",""assignmentId"":""6cd95198-c14d-433a-9d1e-142c4d784950"",""projectId"":""9076ac92-be42-43a2-9634-8b67c7fe93a7""}","https://test12345.live/?num_scrambled_semantic=8&num_scrambled_causal=4&num_scrambled_schematic=4&participantId=474F961C75AD433FBC592DCA8226F111&assignmentId=6cd95198-c14d-433a-9d1e-142c4d784950&projectId=9076ac92-be42-43a2-9634-8b67c7fe93a7","474F961C75AD433FBC592DCA8226F111-2025-05-22-19-28-44","","null","","[]","null","",""
"","","","","","image-button-response","18","254370","0.0-6.0-1.0-0.3","474F961C75AD433FBC592DCA8226F111","474F961C75AD433FBC592DCA8226F111","6cd95198-c14d-433a-9d1e-142c4d784950","9076ac92-be42-43a2-9634-8b67c7fe93a7","{""num_scrambled_semantic"":""8"",""num_scrambled_causal"":""4"",""num_scrambled_schematic"":""4"",""participantId"":""474F961C75AD433FBC592DCA8226F111"",""assignmentId"":""6cd95198-c14d-433a-9d1e-142c4d784950"",""projectId"":""9076ac92-be42-43a2-9634-8b67c7fe93a7""}","https://test12345.live/?num_scrambled_semantic=8&num_scrambled_causal=4&num_scrambled_schematic=4&participantId=474F961C75AD433FBC592DCA8226F111&assignmentId=6cd95198-c14d-433a-9d1e-142c4d784950&projectId=9076ac92-be42-43a2-9634-8b67c7fe93a7","474F961C75AD433FBC592DCA8226F111-2025-05-22-19-28-44","","null","","images/instructions/movie_4.png","null","",""
"","","","","","image-button-response","19","255589","0.0-6.0-1.0-1.3","474F961C75AD433FBC592DCA8226F111","474F961C75AD433FBC592DCA8226F111","6cd95198-c14d-433a-9d1e-142c4d784950","9076ac92-be42-43a2-9634-8b67c7fe93a7","{""num_scrambled_semantic"":""8"",""num_scrambled_causal"":""4"",""num_scrambled_schematic"":""4"",""participantId"":""474F961C75AD433FBC592DCA8226F111"",""assignmentId"":""6cd95198-c14d-433a-9d1e-142c4d784950"",""projectId"":""9076ac92-be42-43a2-9634-8b67c7fe93a7""}","https://test12345.live/?num_scrambled_semantic=8&num_scrambled_causal=4&num_scrambled_schematic=4&participantId=474F961C75AD433FBC592DCA8226F111&assignmentId=6cd95198-c14d-433a-9d1e-142c4d784950&projectId=9076ac92-be42-43a2-9634-8b67c7fe93a7","474F961C75AD433FBC592DCA8226F111-2025-05-22-19-28-44","","1218","","images/instructions/movie_4.png","0","",""
"","","","","","image-button-response","20","257394","0.0-6.0-1.0-2.3","474F961C75AD433FBC592DCA8226F111","474F961C75AD433FBC592DCA8226F111","6cd95198-c14d-433a-9d1e-142c4d784950","9076ac92-be42-43a2-9634-8b67c7fe93a7","{""num_scrambled_semantic"":""8"",""num_scrambled_causal"":""4"",""num_scrambled_schematic"":""4"",""participantId"":""474F961C75AD433FBC592DCA8226F111"",""assignmentId"":""6cd95198-c14d-433a-9d1e-142c4d784950"",""projectId"":""9076ac92-be42-43a2-9634-8b67c7fe93a7""}","https://test12345.live/?num_scrambled_semantic=8&num_scrambled_causal=4&num_scrambled_schematic=4&participantId=474F961C75AD433FBC592DCA8226F111&assignmentId=6cd95198-c14d-433a-9d1e-142c4d784950&projectId=9076ac92-be42-43a2-9634-8b67c7fe93a7","474F961C75AD433FBC592DCA8226F111-2025-05-22-19-28-44","","null","","[]","null","",""
"","","","","","instructions","21","264661","0.0-7.0","474F961C75AD433FBC592DCA8226F111","474F961C75AD433FBC592DCA8226F111","6cd95198-c14d-433a-9d1e-142c4d784950","9076ac92-be42-43a2-9634-8b67c7fe93a7","{""num_scrambled_semantic"":""8"",""num_scrambled_causal"":""4"",""num_scrambled_schematic"":""4"",""participantId"":""474F961C75AD433FBC592DCA8226F111"",""assignmentId"":""6cd95198-c14d-433a-9d1e-142c4d784950"",""projectId"":""9076ac92-be42-43a2-9634-8b67c7fe93a7""}","https://test12345.live/?num_scrambled_semantic=8&num_scrambled_causal=4&num_scrambled_schematic=4&participantId=474F961C75AD433FBC592DCA8226F111&assignmentId=6cd95198-c14d-433a-9d1e-142c4d784950&projectId=9076ac92-be42-43a2-9634-8b67c7fe93a7","474F961C75AD433FBC592DCA8226F111-2025-05-22-19-28-44","[{""page_index"":0,""viewing_time"":6235},{""page_index"":1,""viewing_time"":1032}]","7268","","","","",""
"","","","","","html-audio-response","22","352805","0.0-8.0","474F961C75AD433FBC592DCA8226F111","474F961C75AD433FBC592DCA8226F111","6cd95198-c14d-433a-9d1e-142c4d784950","9076ac92-be42-43a2-9634-8b67c7fe93a7","{""num_scrambled_semantic"":""8"",""num_scrambled_causal"":""4"",""num_scrambled_schematic"":""4"",""participantId"":""474F961C75AD433FBC592DCA8226F111"",""assignmentId"":""6cd95198-c14d-433a-9d1e-142c4d784950"",""projectId"":""9076ac92-be42-43a2-9634-8b67c7fe93a7""}","https://test12345.live/?num_scrambled_semantic=8&num_scrambled_causal=4&num_scrambled_schematic=4&participantId=474F961C75AD433FBC592DCA8226F111&assignmentId=6cd95198-c14d-433a-9d1e-142c4d784950&projectId=9076ac92-be42-43a2-9634-8b67c7fe93a7","474F961C75AD433FBC592DCA8226F111-2025-05-22-19-28-44","","13305","","[""<span style=\""color: red; font-size: 24px\""> NOW RECORDING</span><p>Please say out loud all the images you saw in the exact order you saw them. Try to recall as many images as you can, but remember: getting the order right is more important than the number of images you recall.</p>""]","","2",""
"","","","","","instructions","23","354069","0.0-9.0","474F961C75AD433FBC592DCA8226F111","474F961C75AD433FBC592DCA8226F111","6cd95198-c14d-433a-9d1e-142c4d784950","9076ac92-be42-43a2-9634-8b67c7fe93a7","{""num_scrambled_semantic"":""8"",""num_scrambled_causal"":""4"",""num_scrambled_schematic"":""4"",""participantId"":""474F961C75AD433FBC592DCA8226F111"",""assignmentId"":""6cd95198-c14d-433a-9d1e-142c4d784950"",""projectId"":""9076ac92-be42-43a2-9634-8b67c7fe93a7""}","https://test12345.live/?num_scrambled_semantic=8&num_scrambled_causal=4&num_scrambled_schematic=4&participantId=474F961C75AD433FBC592DCA8226F111&assignmentId=6cd95198-c14d-433a-9d1e-142c4d784950&projectId=9076ac92-be42-43a2-9634-8b67c7fe93a7","474F961C75AD433FBC592DCA8226F111-2025-05-22-19-28-44","[{""page_index"":0,""viewing_time"":1260}]","1260","","","","",""
"","","","","","image-button-response","24","360073","0.0-10.0-0.0","474F961C75AD433FBC592DCA8226F111","474F961C75AD433FBC592DCA8226F111","6cd95198-c14d-433a-9d1e-142c4d784950","9076ac92-be42-43a2-9634-8b67c7fe93a7","{""num_scrambled_semantic"":""8"",""num_scrambled_causal"":""4"",""num_scrambled_schematic"":""4"",""participantId"":""474F961C75AD433FBC592DCA8226F111"",""assignmentId"":""6cd95198-c14d-433a-9d1e-142c4d784950"",""projectId"":""9076ac92-be42-43a2-9634-8b67c7fe93a7""}","https://test12345.live/?num_scrambled_semantic=8&num_scrambled_causal=4&num_scrambled_schematic=4&participantId=474F961C75AD433FBC592DCA8226F111&assignmentId=6cd95198-c14d-433a-9d1e-142c4d784950&projectId=9076ac92-be42-43a2-9634-8b67c7fe93a7","474F961C75AD433FBC592DCA8226F111-2025-05-22-19-28-44","","null","","images/causal_sequence/coin_causal/coin_causal_0.png","null","",""
"","","","","","image-button-response","25","364589","0.0-10.0-1.0-0.0","474F961C75AD433FBC592DCA8226F111","474F961C75AD433FBC592DCA8226F111","6cd95198-c14d-433a-9d1e-142c4d784950","9076ac92-be42-43a2-9634-8b67c7fe93a7","{""num_scrambled_semantic"":""8"",""num_scrambled_causal"":""4"",""num_scrambled_schematic"":""4"",""participantId"":""474F961C75AD433FBC592DCA8226F111"",""assignmentId"":""6cd95198-c14d-433a-9d1e-142c4d784950"",""projectId"":""9076ac92-be42-43a2-9634-8b67c7fe93a7""}","https://test12345.live/?num_scrambled_semantic=8&num_scrambled_causal=4&num_scrambled_schematic=4&participantId=474F961C75AD433FBC592DCA8226F111&assignmentId=6cd95198-c14d-433a-9d1e-142c4d784950&projectId=9076ac92-be42-43a2-9634-8b67c7fe93a7","474F961C75AD433FBC592DCA8226F111-2025-05-22-19-28-44","","null","","images/causal_sequence/coin_causal/coin_causal_7.png","null","",""
"","","","","","image-button-response","26","367222","0.0-10.0-1.0-1.0","474F961C75AD433FBC592DCA8226F111","474F961C75AD433FBC592DCA8226F111","6cd95198-c14d-433a-9d1e-142c4d784950","9076ac92-be42-43a2-9634-8b67c7fe93a7","{""num_scrambled_semantic"":""8"",""num_scrambled_causal"":""4"",""num_scrambled_schematic"":""4"",""participantId"":""474F961C75AD433FBC592DCA8226F111"",""assignmentId"":""6cd95198-c14d-433a-9d1e-142c4d784950"",""projectId"":""9076ac92-be42-43a2-9634-8b67c7fe93a7""}","https://test12345.live/?num_scrambled_semantic=8&num_scrambled_causal=4&num_scrambled_schematic=4&participantId=474F961C75AD433FBC592DCA8226F111&assignmentId=6cd95198-c14d-433a-9d1e-142c4d784950&projectId=9076ac92-be42-43a2-9634-8b67c7fe93a7","474F961C75AD433FBC592DCA8226F111-2025-05-22-19-28-44","","2631","","images/causal_sequence/coin_causal/coin_causal_7.png","1","",""
"","","","","","image-button-response","27","369032","0.0-10.0-1.0-2.0","474F961C75AD433FBC592DCA8226F111","474F961C75AD433FBC592DCA8226F111","6cd95198-c14d-433a-9d1e-142c4d784950","9076ac92-be42-43a2-9634-8b67c7fe93a7","{""num_scrambled_semantic"":""8"",""num_scrambled_causal"":""4"",""num_scrambled_schematic"":""4"",""participantId"":""474F961C75AD433FBC592DCA8226F111"",""assignmentId"":""6cd95198-c14d-433a-9d1e-142c4d784950"",""projectId"":""9076ac92-be42-43a2-9634-8b67c7fe93a7""}","https://test12345.live/?num_scrambled_semantic=8&num_scrambled_causal=4&num_scrambled_schematic=4&participantId=474F961C75AD433FBC592DCA8226F111&assignmentId=6cd95198-c14d-433a-9d1e-142c4d784950&projectId=9076ac92-be42-43a2-9634-8b67c7fe93a7","474F961C75AD433FBC592DCA8226F111-2025-05-22-19-28-44","","null","","[]","null","",""
"","","","","","image-button-response","28","373545","0.0-10.0-1.0-0.1","474F961C75AD433FBC592DCA8226F111","474F961C75AD433FBC592DCA8226F111","6cd95198-c14d-433a-9d1e-142c4d784950","9076ac92-be42-43a2-9634-8b67c7fe93a7","{""num_scrambled_semantic"":""8"",""num_scrambled_causal"":""4"",""num_scrambled_schematic"":""4"",""participantId"":""474F961C75AD433FBC592DCA8226F111"",""assignmentId"":""6cd95198-c14d-433a-9d1e-142c4d784950"",""projectId"":""9076ac92-be42-43a2-9634-8b67c7fe93a7""}","https://test12345.live/?num_scrambled_semantic=8&num_scrambled_causal=4&num_scrambled_schematic=4&participantId=474F961C75AD433FBC592DCA8226F111&assignmentId=6cd95198-c14d-433a-9d1e-142c4d784950&projectId=9076ac92-be42-43a2-9634-8b67c7fe93a7","474F961C75AD433FBC592DCA8226F111-2025-05-22-19-28-44","","null","","images/causal_sequence/coin_causal/coin_causal_4.png","null","",""
"","","","","","image-button-response","29","375477","0.0-10.0-1.0-1.1","474F961C75AD433FBC592DCA8226F111","474F961C75AD433FBC592DCA8226F111","6cd95198-c14d-433a-9d1e-142c4d784950","9076ac92-be42-43a2-9634-8b67c7fe93a7","{""num_scrambled_semantic"":""8"",""num_scrambled_causal"":""4"",""num_scrambled_schematic"":""4"",""participantId"":""474F961C75AD433FBC592DCA8226F111"",""assignmentId"":""6cd95198-c14d-433a-9d1e-142c4d784950"",""projectId"":""9076ac92-be42-43a2-9634-8b67c7fe93a7""}","https://test12345.live/?num_scrambled_semantic=8&num_scrambled_causal=4&num_scrambled_schematic=4&participantId=474F961C75AD433FBC592DCA8226F111&assignmentId=6cd95198-c14d-433a-9d1e-142c4d784950&projectId=9076ac92-be42-43a2-9634-8b67c7fe93a7","474F961C75AD433FBC592DCA8226F111-2025-05-22-19-28-44","","1931","","images/causal_sequence/coin_causal/coin_causal_4.png","0","",""
"","","","","","image-button-response","30","377281","0.0-10.0-1.0-2.1","474F961C75AD433FBC592DCA8226F111","474F961C75AD433FBC592DCA8226F111","6cd95198-c14d-433a-9d1e-142c4d784950","9076ac92-be42-43a2-9634-8b67c7fe93a7","{""num_scrambled_semantic"":""8"",""num_scrambled_causal"":""4"",""num_scrambled_schematic"":""4"",""participantId"":""474F961C75AD433FBC592DCA8226F111"",""assignmentId"":""6cd95198-c14d-433a-9d1e-142c4d784950"",""projectId"":""9076ac92-be42-43a2-9634-8b67c7fe93a7""}","https://test12345.live/?num_scrambled_semantic=8&num_scrambled_causal=4&num_scrambled_schematic=4&participantId=474F961C75AD433FBC592DCA8226F111&assignmentId=6cd95198-c14d-433a-9d1e-142c4d784950&projectId=9076ac92-be42-43a2-9634-8b67c7fe93a7","474F961C75AD433FBC592DCA8226F111-2025-05-22-19-28-44","","null","","[]","null","",""
"","","","","","image-button-response","31","381793","0.0-10.0-1.0-0.2","474F961C75AD433FBC592DCA8226F111","474F961C75AD433FBC592DCA8226F111","6cd95198-c14d-433a-9d1e-142c4d784950","9076ac92-be42-43a2-9634-8b67c7fe93a7","{""num_scrambled_semantic"":""8"",""num_scrambled_causal"":""4"",""num_scrambled_schematic"":""4"",""participantId"":""474F961C75AD433FBC592DCA8226F111"",""assignmentId"":""6cd95198-c14d-433a-9d1e-142c4d784950"",""projectId"":""9076ac92-be42-43a2-9634-8b67c7fe93a7""}","https://test12345.live/?num_scrambled_semantic=8&num_scrambled_causal=4&num_scrambled_schematic=4&participantId=474F961C75AD433FBC592DCA8226F111&assignmentId=6cd95198-c14d-433a-9d1e-142c4d784950&projectId=9076ac92-be42-43a2-9634-8b67c7fe93a7","474F961C75AD433FBC592DCA8226F111-2025-05-22-19-28-44","","null","","images/causal_sequence/coin_causal/coin_causal_1.png","null","",""
"","","","","","image-button-response","32","385221","0.0-10.0-1.0-1.2","474F961C75AD433FBC592DCA8226F111","474F961C75AD433FBC592DCA8226F111","6cd95198-c14d-433a-9d1e-142c4d784950","9076ac92-be42-43a2-9634-8b67c7fe93a7","{""num_scrambled_semantic"":""8"",""num_scrambled_causal"":""4"",""num_scrambled_schematic"":""4"",""participantId"":""474F961C75AD433FBC592DCA8226F111"",""assignmentId"":""6cd95198-c14d-433a-9d1e-142c4d784950"",""projectId"":""9076ac92-be42-43a2-9634-8b67c7fe93a7""}","https://test12345.live/?num_scrambled_semantic=8&num_scrambled_causal=4&num_scrambled_schematic=4&participantId=474F961C75AD433FBC592DCA8226F111&assignmentId=6cd95198-c14d-433a-9d1e-142c4d784950&projectId=9076ac92-be42-43a2-9634-8b67c7fe93a7","474F961C75AD433FBC592DCA8226F111-2025-05-22-19-28-44","","3427","","images/causal_sequence/coin_causal/coin_causal_1.png","0","",""
"","","","","","image-button-response","33","387028","0.0-10.0-1.0-2.2","474F961C75AD433FBC592DCA8226F111","474F961C75AD433FBC592DCA8226F111","6cd95198-c14d-433a-9d1e-142c4d784950","9076ac92-be42-43a2-9634-8b67c7fe93a7","{""num_scrambled_semantic"":""8"",""num_scrambled_causal"":""4"",""num_scrambled_schematic"":""4"",""participantId"":""474F961C75AD433FBC592DCA8226F111"",""assignmentId"":""6cd95198-c14d-433a-9d1e-142c4d784950"",""projectId"":""9076ac92-be42-43a2-9634-8b67c7fe93a7""}","https://test12345.live/?num_scrambled_semantic=8&num_scrambled_causal=4&num_scrambled_schematic=4&participantId=474F961C75AD433FBC592DCA8226F111&assignmentId=6cd95198-c14d-433a-9d1e-142c4d784950&projectId=9076ac92-be42-43a2-9634-8b67c7fe93a7","474F961C75AD433FBC592DCA8226F111-2025-05-22-19-28-44","","null","","[]","null","",""
"","","","","","image-button-response","34","391533","0.0-10.0-1.0-0.3","474F961C75AD433FBC592DCA8226F111","474F961C75AD433FBC592DCA8226F111","6cd95198-c14d-433a-9d1e-142c4d784950","9076ac92-be42-43a2-9634-8b67c7fe93a7","{""num_scrambled_semantic"":""8"",""num_scrambled_causal"":""4"",""num_scrambled_schematic"":""4"",""participantId"":""474F961C75AD433FBC592DCA8226F111"",""assignmentId"":""6cd95198-c14d-433a-9d1e-142c4d784950"",""projectId"":""9076ac92-be42-43a2-9634-8b67c7fe93a7""}","https://test12345.live/?num_scrambled_semantic=8&num_scrambled_causal=4&num_scrambled_schematic=4&participantId=474F961C75AD433FBC592DCA8226F111&assignmentId=6cd95198-c14d-433a-9d1e-142c4d784950&projectId=9076ac92-be42-43a2-9634-8b67c7fe93a7","474F961C75AD433FBC592DCA8226F111-2025-05-22-19-28-44","","null","","images/causal_sequence/coin_causal/coin_causal_ten.png","null","",""
"","","","","","image-button-response","35","393701","0.0-10.0-1.0-1.3","474F961C75AD433FBC592DCA8226F111","474F961C75AD433FBC592DCA8226F111","6cd95198-c14d-433a-9d1e-142c4d784950","9076ac92-be42-43a2-9634-8b67c7fe93a7","{""num_scrambled_semantic"":""8"",""num_scrambled_causal"":""4"",""num_scrambled_schematic"":""4"",""participantId"":""474F961C75AD433FBC592DCA8226F111"",""assignmentId"":""6cd95198-c14d-433a-9d1e-142c4d784950"",""projectId"":""9076ac92-be42-43a2-9634-8b67c7fe93a7""}","https://test12345.live/?num_scrambled_semantic=8&num_scrambled_causal=4&num_scrambled_schematic=4&participantId=474F961C75AD433FBC592DCA8226F111&assignmentId=6cd95198-c14d-433a-9d1e-142c4d784950&projectId=9076ac92-be42-43a2-9634-8b67c7fe93a7","474F961C75AD433FBC592DCA8226F111-2025-05-22-19-28-44","","2168","","images/causal_sequence/coin_causal/coin_causal_ten.png","0","",""
"","","","","","image-button-response","36","395503","0.0-10.0-1.0-2.3","474F961C75AD433FBC592DCA8226F111","474F961C75AD433FBC592DCA8226F111","6cd95198-c14d-433a-9d1e-142c4d784950","9076ac92-be42-43a2-9634-8b67c7fe93a7","{""num_scrambled_semantic"":""8"",""num_scrambled_causal"":""4"",""num_scrambled_schematic"":""4"",""participantId"":""474F961C75AD433FBC592DCA8226F111"",""assignmentId"":""6cd95198-c14d-433a-9d1e-142c4d784950"",""projectId"":""9076ac92-be42-43a2-9634-8b67c7fe93a7""}","https://test12345.live/?num_scrambled_semantic=8&num_scrambled_causal=4&num_scrambled_schematic=4&participantId=474F961C75AD433FBC592DCA8226F111&assignmentId=6cd95198-c14d-433a-9d1e-142c4d784950&projectId=9076ac92-be42-43a2-9634-8b67c7fe93a7","474F961C75AD433FBC592DCA8226F111-2025-05-22-19-28-44","","null","","[]","null","",""
"","","","","","image-button-response","37","400019","0.0-10.0-1.0-0.4","474F961C75AD433FBC592DCA8226F111","474F961C75AD433FBC592DCA8226F111","6cd95198-c14d-433a-9d1e-142c4d784950","9076ac92-be42-43a2-9634-8b67c7fe93a7","{""num_scrambled_semantic"":""8"",""num_scrambled_causal"":""4"",""num_scrambled_schematic"":""4"",""participantId"":""474F961C75AD433FBC592DCA8226F111"",""assignmentId"":""6cd95198-c14d-433a-9d1e-142c4d784950"",""projectId"":""9076ac92-be42-43a2-9634-8b67c7fe93a7""}","https://test12345.live/?num_scrambled_semantic=8&num_scrambled_causal=4&num_scrambled_schematic=4&participantId=474F961C75AD433FBC592DCA8226F111&assignmentId=6cd95198-c14d-433a-9d1e-142c4d784950&projectId=9076ac92-be42-43a2-9634-8b67c7fe93a7","474F961C75AD433FBC592DCA8226F111-2025-05-22-19-28-44","","null","","images/causal_sequence/coin_causal/coin_causal_6.png","null","",""
"","","","","","image-button-response","38","401565","0.0-10.0-1.0-1.4","474F961C75AD433FBC592DCA8226F111","474F961C75AD433FBC592DCA8226F111","6cd95198-c14d-433a-9d1e-142c4d784950","9076ac92-be42-43a2-9634-8b67c7fe93a7","{""num_scrambled_semantic"":""8"",""num_scrambled_causal"":""4"",""num_scrambled_schematic"":""4"",""participantId"":""474F961C75AD433FBC592DCA8226F111"",""assignmentId"":""6cd95198-c14d-433a-9d1e-142c4d784950"",""projectId"":""9076ac92-be42-43a2-9634-8b67c7fe93a7""}","https://test12345.live/?num_scrambled_semantic=8&num_scrambled_causal=4&num_scrambled_schematic=4&participantId=474F961C75AD433FBC592DCA8226F111&assignmentId=6cd95198-c14d-433a-9d1e-142c4d784950&projectId=9076ac92-be42-43a2-9634-8b67c7fe93a7","474F961C75AD433FBC592DCA8226F111-2025-05-22-19-28-44","","1545","","images/causal_sequence/coin_causal/coin_causal_6.png","0","",""
"","","","","","image-button-response","39","403381","0.0-10.0-1.0-2.4","474F961C75AD433FBC592DCA8226F111","474F961C75AD433FBC592DCA8226F111","6cd95198-c14d-433a-9d1e-142c4d784950","9076ac92-be42-43a2-9634-8b67c7fe93a7","{""num_scrambled_semantic"":""8"",""num_scrambled_causal"":""4"",""num_scrambled_schematic"":""4"",""participantId"":""474F961C75AD433FBC592DCA8226F111"",""assignmentId"":""6cd95198-c14d-433a-9d1e-142c4d784950"",""projectId"":""9076ac92-be42-43a2-9634-8b67c7fe93a7""}","https://test12345.live/?num_scrambled_semantic=8&num_scrambled_causal=4&num_scrambled_schematic=4&participantId=474F961C75AD433FBC592DCA8226F111&assignmentId=6cd95198-c14d-433a-9d1e-142c4d784950&projectId=9076ac92-be42-43a2-9634-8b67c7fe93a7","474F961C75AD433FBC592DCA8226F111-2025-05-22-19-28-44","","null","","[]","null","",""
"","","","","","image-button-response","40","407897","0.0-10.0-1.0-0.5","474F961C75AD433FBC592DCA8226F111","474F961C75AD433FBC592DCA8226F111","6cd95198-c14d-433a-9d1e-142c4d784950","9076ac92-be42-43a2-9634-8b67c7fe93a7","{""num_scrambled_semantic"":""8"",""num_scrambled_causal"":""4"",""num_scrambled_schematic"":""4"",""participantId"":""474F961C75AD433FBC592DCA8226F111"",""assignmentId"":""6cd95198-c14d-433a-9d1e-142c4d784950"",""projectId"":""9076ac92-be42-43a2-9634-8b67c7fe93a7""}","https://test12345.live/?num_scrambled_semantic=8&num_scrambled_causal=4&num_scrambled_schematic=4&participantId=474F961C75AD433FBC592DCA8226F111&assignmentId=6cd95198-c14d-433a-9d1e-142c4d784950&projectId=9076ac92-be42-43a2-9634-8b67c7fe93a7","474F961C75AD433FBC592DCA8226F111-2025-05-22-19-28-44","","null","","images/causal_sequence/coin_causal/coin_causal_9.png","null","",""
"","","","","","image-button-response","41","408661","0.0-10.0-1.0-1.5","474F961C75AD433FBC592DCA8226F111","474F961C75AD433FBC592DCA8226F111","6cd95198-c14d-433a-9d1e-142c4d784950","9076ac92-be42-43a2-9634-8b67c7fe93a7","{""num_scrambled_semantic"":""8"",""num_scrambled_causal"":""4"",""num_scrambled_schematic"":""4"",""participantId"":""474F961C75AD433FBC592DCA8226F111"",""assignmentId"":""6cd95198-c14d-433a-9d1e-142c4d784950"",""projectId"":""9076ac92-be42-43a2-9634-8b67c7fe93a7""}","https://test12345.live/?num_scrambled_semantic=8&num_scrambled_causal=4&num_scrambled_schematic=4&participantId=474F961C75AD433FBC592DCA8226F111&assignmentId=6cd95198-c14d-433a-9d1e-142c4d784950&projectId=9076ac92-be42-43a2-9634-8b67c7fe93a7","474F961C75AD433FBC592DCA8226F111-2025-05-22-19-28-44","","763","","images/causal_sequence/coin_causal/coin_causal_9.png","0","",""
"","","","","","image-button-response","42","410475","0.0-10.0-1.0-2.5","474F961C75AD433FBC592DCA8226F111","474F961C75AD433FBC592DCA8226F111","6cd95198-c14d-433a-9d1e-142c4d784950","9076ac92-be42-43a2-9634-8b67c7fe93a7","{""num_scrambled_semantic"":""8"",""num_scrambled_causal"":""4"",""num_scrambled_schematic"":""4"",""participantId"":""474F961C75AD433FBC592DCA8226F111"",""assignmentId"":""6cd95198-c14d-433a-9d1e-142c4d784950"",""projectId"":""9076ac92-be42-43a2-9634-8b67c7fe93a7""}","https://test12345.live/?num_scrambled_semantic=8&num_scrambled_causal=4&num_scrambled_schematic=4&participantId=474F961C75AD433FBC592DCA8226F111&assignmentId=6cd95198-c14d-433a-9d1e-142c4d784950&projectId=9076ac92-be42-43a2-9634-8b67c7fe93a7","474F961C75AD433FBC592DCA8226F111-2025-05-22-19-28-44","","null","","[]","null","",""
"","","","","","image-button-response","43","414980","0.0-10.0-1.0-0.6","474F961C75AD433FBC592DCA8226F111","474F961C75AD433FBC592DCA8226F111","6cd95198-c14d-433a-9d1e-142c4d784950","9076ac92-be42-43a2-9634-8b67c7fe93a7","{""num_scrambled_semantic"":""8"",""num_scrambled_causal"":""4"",""num_scrambled_schematic"":""4"",""participantId"":""474F961C75AD433FBC592DCA8226F111"",""assignmentId"":""6cd95198-c14d-433a-9d1e-142c4d784950"",""projectId"":""9076ac92-be42-43a2-9634-8b67c7fe93a7""}","https://test12345.live/?num_scrambled_semantic=8&num_scrambled_causal=4&num_scrambled_schematic=4&participantId=474F961C75AD433FBC592DCA8226F111&assignmentId=6cd95198-c14d-433a-9d1e-142c4d784950&projectId=9076ac92-be42-43a2-9634-8b67c7fe93a7","474F961C75AD433FBC592DCA8226F111-2025-05-22-19-28-44","","null","","images/causal_sequence/coin_causal/coin_causal_8.png","null","",""
"","","","","","image-button-response","44","415557","0.0-10.0-1.0-1.6","474F961C75AD433FBC592DCA8226F111","474F961C75AD433FBC592DCA8226F111","6cd95198-c14d-433a-9d1e-142c4d784950","9076ac92-be42-43a2-9634-8b67c7fe93a7","{""num_scrambled_semantic"":""8"",""num_scrambled_causal"":""4"",""num_scrambled_schematic"":""4"",""participantId"":""474F961C75AD433FBC592DCA8226F111"",""assignmentId"":""6cd95198-c14d-433a-9d1e-142c4d784950"",""projectId"":""9076ac92-be42-43a2-9634-8b67c7fe93a7""}","https://test12345.live/?num_scrambled_semantic=8&num_scrambled_causal=4&num_scrambled_schematic=4&participantId=474F961C75AD433FBC592DCA8226F111&assignmentId=6cd95198-c14d-433a-9d1e-142c4d784950&projectId=9076ac92-be42-43a2-9634-8b67c7fe93a7","474F961C75AD433FBC592DCA8226F111-2025-05-22-19-28-44","","576","","images/causal_sequence/coin_causal/coin_causal_8.png","0","",""
"","","","","","image-button-response","45","417362","0.0-10.0-1.0-2.6","474F961C75AD433FBC592DCA8226F111","474F961C75AD433FBC592DCA8226F111","6cd95198-c14d-433a-9d1e-142c4d784950","9076ac92-be42-43a2-9634-8b67c7fe93a7","{""num_scrambled_semantic"":""8"",""num_scrambled_causal"":""4"",""num_scrambled_schematic"":""4"",""participantId"":""474F961C75AD433FBC592DCA8226F111"",""assignmentId"":""6cd95198-c14d-433a-9d1e-142c4d784950"",""projectId"":""9076ac92-be42-43a2-9634-8b67c7fe93a7""}","https://test12345.live/?num_scrambled_semantic=8&num_scrambled_causal=4&num_scrambled_schematic=4&participantId=474F961C75AD433FBC592DCA8226F111&assignmentId=6cd95198-c14d-433a-9d1e-142c4d784950&projectId=9076ac92-be42-43a2-9634-8b67c7fe93a7","474F961C75AD433FBC592DCA8226F111-2025-05-22-19-28-44","","null","","[]","null","",""
"","","","","","image-button-response","46","421871","0.0-10.0-1.0-0.7","474F961C75AD433FBC592DCA8226F111","474F961C75AD433FBC592DCA8226F111","6cd95198-c14d-433a-9d1e-142c4d784950","9076ac92-be42-43a2-9634-8b67c7fe93a7","{""num_scrambled_semantic"":""8"",""num_scrambled_causal"":""4"",""num_scrambled_schematic"":""4"",""participantId"":""474F961C75AD433FBC592DCA8226F111"",""assignmentId"":""6cd95198-c14d-433a-9d1e-142c4d784950"",""projectId"":""9076ac92-be42-43a2-9634-8b67c7fe93a7""}","https://test12345.live/?num_scrambled_semantic=8&num_scrambled_causal=4&num_scrambled_schematic=4&participantId=474F961C75AD433FBC592DCA8226F111&assignmentId=6cd95198-c14d-433a-9d1e-142c4d784950&projectId=9076ac92-be42-43a2-9634-8b67c7fe93a7","474F961C75AD433FBC592DCA8226F111-2025-05-22-19-28-44","","null","","images/causal_sequence/coin_causal/coin_causal_2.png","null","",""
"","","","","","image-button-response","47","422621","0.0-10.0-1.0-1.7","474F961C75AD433FBC592DCA8226F111","474F961C75AD433FBC592DCA8226F111","6cd95198-c14d-433a-9d1e-142c4d784950","9076ac92-be42-43a2-9634-8b67c7fe93a7","{""num_scrambled_semantic"":""8"",""num_scrambled_causal"":""4"",""num_scrambled_schematic"":""4"",""participantId"":""474F961C75AD433FBC592DCA8226F111"",""assignmentId"":""6cd95198-c14d-433a-9d1e-142c4d784950"",""projectId"":""9076ac92-be42-43a2-9634-8b67c7fe93a7""}","https://test12345.live/?num_scrambled_semantic=8&num_scrambled_causal=4&num_scrambled_schematic=4&participantId=474F961C75AD433FBC592DCA8226F111&assignmentId=6cd95198-c14d-433a-9d1e-142c4d784950&projectId=9076ac92-be42-43a2-9634-8b67c7fe93a7","474F961C75AD433FBC592DCA8226F111-2025-05-22-19-28-44","","749","","images/causal_sequence/coin_causal/coin_causal_2.png","0","",""
"","","","","","image-button-response","48","424428","0.0-10.0-1.0-2.7","474F961C75AD433FBC592DCA8226F111","474F961C75AD433FBC592DCA8226F111","6cd95198-c14d-433a-9d1e-142c4d784950","9076ac92-be42-43a2-9634-8b67c7fe93a7","{""num_scrambled_semantic"":""8"",""num_scrambled_causal"":""4"",""num_scrambled_schematic"":""4"",""participantId"":""474F961C75AD433FBC592DCA8226F111"",""assignmentId"":""6cd95198-c14d-433a-9d1e-142c4d784950"",""projectId"":""9076ac92-be42-43a2-9634-8b67c7fe93a7""}","https://test12345.live/?num_scrambled_semantic=8&num_scrambled_causal=4&num_scrambled_schematic=4&participantId=474F961C75AD433FBC592DCA8226F111&assignmentId=6cd95198-c14d-433a-9d1e-142c4d784950&projectId=9076ac92-be42-43a2-9634-8b67c7fe93a7","474F961C75AD433FBC592DCA8226F111-2025-05-22-19-28-44","","null","","[]","null","",""
"","","","","","image-button-response","49","428941","0.0-10.0-1.0-0.8","474F961C75AD433FBC592DCA8226F111","474F961C75AD433FBC592DCA8226F111","6cd95198-c14d-433a-9d1e-142c4d784950","9076ac92-be42-43a2-9634-8b67c7fe93a7","{""num_scrambled_semantic"":""8"",""num_scrambled_causal"":""4"",""num_scrambled_schematic"":""4"",""participantId"":""474F961C75AD433FBC592DCA8226F111"",""assignmentId"":""6cd95198-c14d-433a-9d1e-142c4d784950"",""projectId"":""9076ac92-be42-43a2-9634-8b67c7fe93a7""}","https://test12345.live/?num_scrambled_semantic=8&num_scrambled_causal=4&num_scrambled_schematic=4&participantId=474F961C75AD433FBC592DCA8226F111&assignmentId=6cd95198-c14d-433a-9d1e-142c4d784950&projectId=9076ac92-be42-43a2-9634-8b67c7fe93a7","474F961C75AD433FBC592DCA8226F111-2025-05-22-19-28-44","","null","","images/causal_sequence/coin_causal/coin_causal_5.png","null","",""
"","","","","","image-button-response","50","431037","0.0-10.0-1.0-1.8","474F961C75AD433FBC592DCA8226F111","474F961C75AD433FBC592DCA8226F111","6cd95198-c14d-433a-9d1e-142c4d784950","9076ac92-be42-43a2-9634-8b67c7fe93a7","{""num_scrambled_semantic"":""8"",""num_scrambled_causal"":""4"",""num_scrambled_schematic"":""4"",""participantId"":""474F961C75AD433FBC592DCA8226F111"",""assignmentId"":""6cd95198-c14d-433a-9d1e-142c4d784950"",""projectId"":""9076ac92-be42-43a2-9634-8b67c7fe93a7""}","https://test12345.live/?num_scrambled_semantic=8&num_scrambled_causal=4&num_scrambled_schematic=4&participantId=474F961C75AD433FBC592DCA8226F111&assignmentId=6cd95198-c14d-433a-9d1e-142c4d784950&projectId=9076ac92-be42-43a2-9634-8b67c7fe93a7","474F961C75AD433FBC592DCA8226F111-2025-05-22-19-28-44","","2095","","images/causal_sequence/coin_causal/coin_causal_5.png","0","",""
"","","","","","image-button-response","51","432853","0.0-10.0-1.0-2.8","474F961C75AD433FBC592DCA8226F111","474F961C75AD433FBC592DCA8226F111","6cd95198-c14d-433a-9d1e-142c4d784950","9076ac92-be42-43a2-9634-8b67c7fe93a7","{""num_scrambled_semantic"":""8"",""num_scrambled_causal"":""4"",""num_scrambled_schematic"":""4"",""participantId"":""474F961C75AD433FBC592DCA8226F111"",""assignmentId"":""6cd95198-c14d-433a-9d1e-142c4d784950"",""projectId"":""9076ac92-be42-43a2-9634-8b67c7fe93a7""}","https://test12345.live/?num_scrambled_semantic=8&num_scrambled_causal=4&num_scrambled_schematic=4&participantId=474F961C75AD433FBC592DCA8226F111&assignmentId=6cd95198-c14d-433a-9d1e-142c4d784950&projectId=9076ac92-be42-43a2-9634-8b67c7fe93a7","474F961C75AD433FBC592DCA8226F111-2025-05-22-19-28-44","","null","","[]","null","",""
"","","","","","image-button-response","52","437365","0.0-10.0-1.0-0.9","474F961C75AD433FBC592DCA8226F111","474F961C75AD433FBC592DCA8226F111","6cd95198-c14d-433a-9d1e-142c4d784950","9076ac92-be42-43a2-9634-8b67c7fe93a7","{""num_scrambled_semantic"":""8"",""num_scrambled_causal"":""4"",""num_scrambled_schematic"":""4"",""participantId"":""474F961C75AD433FBC592DCA8226F111"",""assignmentId"":""6cd95198-c14d-433a-9d1e-142c4d784950"",""projectId"":""9076ac92-be42-43a2-9634-8b67c7fe93a7""}","https://test12345.live/?num_scrambled_semantic=8&num_scrambled_causal=4&num_scrambled_schematic=4&participantId=474F961C75AD433FBC592DCA8226F111&assignmentId=6cd95198-c14d-433a-9d1e-142c4d784950&projectId=9076ac92-be42-43a2-9634-8b67c7fe93a7","474F961C75AD433FBC592DCA8226F111-2025-05-22-19-28-44","","null","","images/causal_sequence/coin_causal/coin_causal_3.png","null","",""
"","","","","","image-button-response","53","437893","0.0-10.0-1.0-1.9","474F961C75AD433FBC592DCA8226F111","474F961C75AD433FBC592DCA8226F111","6cd95198-c14d-433a-9d1e-142c4d784950","9076ac92-be42-43a2-9634-8b67c7fe93a7","{""num_scrambled_semantic"":""8"",""num_scrambled_causal"":""4"",""num_scrambled_schematic"":""4"",""participantId"":""474F961C75AD433FBC592DCA8226F111"",""assignmentId"":""6cd95198-c14d-433a-9d1e-142c4d784950"",""projectId"":""9076ac92-be42-43a2-9634-8b67c7fe93a7""}","https://test12345.live/?num_scrambled_semantic=8&num_scrambled_causal=4&num_scrambled_schematic=4&participantId=474F961C75AD433FBC592DCA8226F111&assignmentId=6cd95198-c14d-433a-9d1e-142c4d784950&projectId=9076ac92-be42-43a2-9634-8b67c7fe93a7","474F961C75AD433FBC592DCA8226F111-2025-05-22-19-28-44","","527","","images/causal_sequence/coin_causal/coin_causal_3.png","0","",""
"","","","","","image-button-response","54","439697","0.0-10.0-1.0-2.9","474F961C75AD433FBC592DCA8226F111","474F961C75AD433FBC592DCA8226F111","6cd95198-c14d-433a-9d1e-142c4d784950","9076ac92-be42-43a2-9634-8b67c7fe93a7","{""num_scrambled_semantic"":""8"",""num_scrambled_causal"":""4"",""num_scrambled_schematic"":""4"",""participantId"":""474F961C75AD433FBC592DCA8226F111"",""assignmentId"":""6cd95198-c14d-433a-9d1e-142c4d784950"",""projectId"":""9076ac92-be42-43a2-9634-8b67c7fe93a7""}","https://test12345.live/?num_scrambled_semantic=8&num_scrambled_causal=4&num_scrambled_schematic=4&participantId=474F961C75AD433FBC592DCA8226F111&assignmentId=6cd95198-c14d-433a-9d1e-142c4d784950&projectId=9076ac92-be42-43a2-9634-8b67c7fe93a7","474F961C75AD433FBC592DCA8226F111-2025-05-22-19-28-44","","null","","[]","null","",""
"","","","","","html-audio-response","55","525950","0.0-11.0","474F961C75AD433FBC592DCA8226F111","474F961C75AD433FBC592DCA8226F111","6cd95198-c14d-433a-9d1e-142c4d784950","9076ac92-be42-43a2-9634-8b67c7fe93a7","{""num_scrambled_semantic"":""8"",""num_scrambled_causal"":""4"",""num_scrambled_schematic"":""4"",""participantId"":""474F961C75AD433FBC592DCA8226F111"",""assignmentId"":""6cd95198-c14d-433a-9d1e-142c4d784950"",""projectId"":""9076ac92-be42-43a2-9634-8b67c7fe93a7""}","https://test12345.live/?num_scrambled_semantic=8&num_scrambled_causal=4&num_scrambled_schematic=4&participantId=474F961C75AD433FBC592DCA8226F111&assignmentId=6cd95198-c14d-433a-9d1e-142c4d784950&projectId=9076ac92-be42-43a2-9634-8b67c7fe93a7","474F961C75AD433FBC592DCA8226F111-2025-05-22-19-28-44","","41865","","[""<span style=\""color: red; font-size: 24px\""> NOW RECORDING</span><p>Please say out loud all the images you saw, in the exact order you saw them. Try to recall as many images as you can, but remember: getting the order right is more important than the number of images you recall.</p>""]","","16","coin_causal"
"","","","","","image-button-response","56","531966","0.0-12.0-0.0","474F961C75AD433FBC592DCA8226F111","474F961C75AD433FBC592DCA8226F111","6cd95198-c14d-433a-9d1e-142c4d784950","9076ac92-be42-43a2-9634-8b67c7fe93a7","{""num_scrambled_semantic"":""8"",""num_scrambled_causal"":""4"",""num_scrambled_schematic"":""4"",""participantId"":""474F961C75AD433FBC592DCA8226F111"",""assignmentId"":""6cd95198-c14d-433a-9d1e-142c4d784950"",""projectId"":""9076ac92-be42-43a2-9634-8b67c7fe93a7""}","https://test12345.live/?num_scrambled_semantic=8&num_scrambled_causal=4&num_scrambled_schematic=4&participantId=474F961C75AD433FBC592DCA8226F111&assignmentId=6cd95198-c14d-433a-9d1e-142c4d784950&projectId=9076ac92-be42-43a2-9634-8b67c7fe93a7","474F961C75AD433FBC592DCA8226F111-2025-05-22-19-28-44","","null","","images/semantic_sequence/redecorating_semantic/redecorating_semantic_0.png","null","",""
"","","","","","image-button-response","57","536478","0.0-12.0-1.0-0.0","474F961C75AD433FBC592DCA8226F111","474F961C75AD433FBC592DCA8226F111","6cd95198-c14d-433a-9d1e-142c4d784950","9076ac92-be42-43a2-9634-8b67c7fe93a7","{""num_scrambled_semantic"":""8"",""num_scrambled_causal"":""4"",""num_scrambled_schematic"":""4"",""participantId"":""474F961C75AD433FBC592DCA8226F111"",""assignmentId"":""6cd95198-c14d-433a-9d1e-142c4d784950"",""projectId"":""9076ac92-be42-43a2-9634-8b67c7fe93a7""}","https://test12345.live/?num_scrambled_semantic=8&num_scrambled_causal=4&num_scrambled_schematic=4&participantId=474F961C75AD433FBC592DCA8226F111&assignmentId=6cd95198-c14d-433a-9d1e-142c4d784950&projectId=9076ac92-be42-43a2-9634-8b67c7fe93a7","474F961C75AD433FBC592DCA8226F111-2025-05-22-19-28-44","","null","","images/semantic_sequence/redecorating_semantic/redecorating_semantic_1.png","null","",""
"","","","","","image-button-response","58","540325","0.0-12.0-1.0-1.0","474F961C75AD433FBC592DCA8226F111","474F961C75AD433FBC592DCA8226F111","6cd95198-c14d-433a-9d1e-142c4d784950","9076ac92-be42-43a2-9634-8b67c7fe93a7","{""num_scrambled_semantic"":""8"",""num_scrambled_causal"":""4"",""num_scrambled_schematic"":""4"",""participantId"":""474F961C75AD433FBC592DCA8226F111"",""assignmentId"":""6cd95198-c14d-433a-9d1e-142c4d784950"",""projectId"":""9076ac92-be42-43a2-9634-8b67c7fe93a7""}","https://test12345.live/?num_scrambled_semantic=8&num_scrambled_causal=4&num_scrambled_schematic=4&participantId=474F961C75AD433FBC592DCA8226F111&assignmentId=6cd95198-c14d-433a-9d1e-142c4d784950&projectId=9076ac92-be42-43a2-9634-8b67c7fe93a7","474F961C75AD433FBC592DCA8226F111-2025-05-22-19-28-44","","3845","","images/semantic_sequence/redecorating_semantic/redecorating_semantic_1.png","0","",""
"","","","","","image-button-response","59","542129","0.0-12.0-1.0-2.0","474F961C75AD433FBC592DCA8226F111","474F961C75AD433FBC592DCA8226F111","6cd95198-c14d-433a-9d1e-142c4d784950","9076ac92-be42-43a2-9634-8b67c7fe93a7","{""num_scrambled_semantic"":""8"",""num_scrambled_causal"":""4"",""num_scrambled_schematic"":""4"",""participantId"":""474F961C75AD433FBC592DCA8226F111"",""assignmentId"":""6cd95198-c14d-433a-9d1e-142c4d784950"",""projectId"":""9076ac92-be42-43a2-9634-8b67c7fe93a7""}","https://test12345.live/?num_scrambled_semantic=8&num_scrambled_causal=4&num_scrambled_schematic=4&participantId=474F961C75AD433FBC592DCA8226F111&assignmentId=6cd95198-c14d-433a-9d1e-142c4d784950&projectId=9076ac92-be42-43a2-9634-8b67c7fe93a7","474F961C75AD433FBC592DCA8226F111-2025-05-22-19-28-44","","null","","[]","null","",""
"","","","","","image-button-response","60","546641","0.0-12.0-1.0-0.1","474F961C75AD433FBC592DCA8226F111","474F961C75AD433FBC592DCA8226F111","6cd95198-c14d-433a-9d1e-142c4d784950","9076ac92-be42-43a2-9634-8b67c7fe93a7","{""num_scrambled_semantic"":""8"",""num_scrambled_causal"":""4"",""num_scrambled_schematic"":""4"",""participantId"":""474F961C75AD433FBC592DCA8226F111"",""assignmentId"":""6cd95198-c14d-433a-9d1e-142c4d784950"",""projectId"":""9076ac92-be42-43a2-9634-8b67c7fe93a7""}","https://test12345.live/?num_scrambled_semantic=8&num_scrambled_causal=4&num_scrambled_schematic=4&participantId=474F961C75AD433FBC592DCA8226F111&assignmentId=6cd95198-c14d-433a-9d1e-142c4d784950&projectId=9076ac92-be42-43a2-9634-8b67c7fe93a7","474F961C75AD433FBC592DCA8226F111-2025-05-22-19-28-44","","null","","images/semantic_sequence/redecorating_semantic/redecorating_semantic_2.png","null","",""
"","","","","","image-button-response","61","547565","0.0-12.0-1.0-1.1","474F961C75AD433FBC592DCA8226F111","474F961C75AD433FBC592DCA8226F111","6cd95198-c14d-433a-9d1e-142c4d784950","9076ac92-be42-43a2-9634-8b67c7fe93a7","{""num_scrambled_semantic"":""8"",""num_scrambled_causal"":""4"",""num_scrambled_schematic"":""4"",""participantId"":""474F961C75AD433FBC592DCA8226F111"",""assignmentId"":""6cd95198-c14d-433a-9d1e-142c4d784950"",""projectId"":""9076ac92-be42-43a2-9634-8b67c7fe93a7""}","https://test12345.live/?num_scrambled_semantic=8&num_scrambled_causal=4&num_scrambled_schematic=4&participantId=474F961C75AD433FBC592DCA8226F111&assignmentId=6cd95198-c14d-433a-9d1e-142c4d784950&projectId=9076ac92-be42-43a2-9634-8b67c7fe93a7","474F961C75AD433FBC592DCA8226F111-2025-05-22-19-28-44","","923","","images/semantic_sequence/redecorating_semantic/redecorating_semantic_2.png","0","",""
"","","","","","image-button-response","62","549377","0.0-12.0-1.0-2.1","474F961C75AD433FBC592DCA8226F111","474F961C75AD433FBC592DCA8226F111","6cd95198-c14d-433a-9d1e-142c4d784950","9076ac92-be42-43a2-9634-8b67c7fe93a7","{""num_scrambled_semantic"":""8"",""num_scrambled_causal"":""4"",""num_scrambled_schematic"":""4"",""participantId"":""474F961C75AD433FBC592DCA8226F111"",""assignmentId"":""6cd95198-c14d-433a-9d1e-142c4d784950"",""projectId"":""9076ac92-be42-43a2-9634-8b67c7fe93a7""}","https://test12345.live/?num_scrambled_semantic=8&num_scrambled_causal=4&num_scrambled_schematic=4&participantId=474F961C75AD433FBC592DCA8226F111&assignmentId=6cd95198-c14d-433a-9d1e-142c4d784950&projectId=9076ac92-be42-43a2-9634-8b67c7fe93a7","474F961C75AD433FBC592DCA8226F111-2025-05-22-19-28-44","","null","","[]","null","",""
"","","","","","image-button-response","63","553884","0.0-12.0-1.0-0.2","474F961C75AD433FBC592DCA8226F111","474F961C75AD433FBC592DCA8226F111","6cd95198-c14d-433a-9d1e-142c4d784950","9076ac92-be42-43a2-9634-8b67c7fe93a7","{""num_scrambled_semantic"":""8"",""num_scrambled_causal"":""4"",""num_scrambled_schematic"":""4"",""participantId"":""474F961C75AD433FBC592DCA8226F111"",""assignmentId"":""6cd95198-c14d-433a-9d1e-142c4d784950"",""projectId"":""9076ac92-be42-43a2-9634-8b67c7fe93a7""}","https://test12345.live/?num_scrambled_semantic=8&num_scrambled_causal=4&num_scrambled_schematic=4&participantId=474F961C75AD433FBC592DCA8226F111&assignmentId=6cd95198-c14d-433a-9d1e-142c4d784950&projectId=9076ac92-be42-43a2-9634-8b67c7fe93a7","474F961C75AD433FBC592DCA8226F111-2025-05-22-19-28-44","","null","","images/semantic_sequence/redecorating_semantic/redecorating_semantic_3.png","null","",""
"","","","","","image-button-response","64","556150","0.0-12.0-1.0-1.2","474F961C75AD433FBC592DCA8226F111","474F961C75AD433FBC592DCA8226F111","6cd95198-c14d-433a-9d1e-142c4d784950","9076ac92-be42-43a2-9634-8b67c7fe93a7","{""num_scrambled_semantic"":""8"",""num_scrambled_causal"":""4"",""num_scrambled_schematic"":""4"",""participantId"":""474F961C75AD433FBC592DCA8226F111"",""assignmentId"":""6cd95198-c14d-433a-9d1e-142c4d784950"",""projectId"":""9076ac92-be42-43a2-9634-8b67c7fe93a7""}","https://test12345.live/?num_scrambled_semantic=8&num_scrambled_causal=4&num_scrambled_schematic=4&participantId=474F961C75AD433FBC592DCA8226F111&assignmentId=6cd95198-c14d-433a-9d1e-142c4d784950&projectId=9076ac92-be42-43a2-9634-8b67c7fe93a7","474F961C75AD433FBC592DCA8226F111-2025-05-22-19-28-44","","2265","","images/semantic_sequence/redecorating_semantic/redecorating_semantic_3.png","0","",""
"","","","","","image-button-response","65","557958","0.0-12.0-1.0-2.2","474F961C75AD433FBC592DCA8226F111","474F961C75AD433FBC592DCA8226F111","6cd95198-c14d-433a-9d1e-142c4d784950","9076ac92-be42-43a2-9634-8b67c7fe93a7","{""num_scrambled_semantic"":""8"",""num_scrambled_causal"":""4"",""num_scrambled_schematic"":""4"",""participantId"":""474F961C75AD433FBC592DCA8226F111"",""assignmentId"":""6cd95198-c14d-433a-9d1e-142c4d784950"",""projectId"":""9076ac92-be42-43a2-9634-8b67c7fe93a7""}","https://test12345.live/?num_scrambled_semantic=8&num_scrambled_causal=4&num_scrambled_schematic=4&participantId=474F961C75AD433FBC592DCA8226F111&assignmentId=6cd95198-c14d-433a-9d1e-142c4d784950&projectId=9076ac92-be42-43a2-9634-8b67c7fe93a7","474F961C75AD433FBC592DCA8226F111-2025-05-22-19-28-44","","null","","[]","null","",""
"","","","","","image-button-response","66","562460","0.0-12.0-1.0-0.3","474F961C75AD433FBC592DCA8226F111","474F961C75AD433FBC592DCA8226F111","6cd95198-c14d-433a-9d1e-142c4d784950","9076ac92-be42-43a2-9634-8b67c7fe93a7","{""num_scrambled_semantic"":""8"",""num_scrambled_causal"":""4"",""num_scrambled_schematic"":""4"",""participantId"":""474F961C75AD433FBC592DCA8226F111"",""assignmentId"":""6cd95198-c14d-433a-9d1e-142c4d784950"",""projectId"":""9076ac92-be42-43a2-9634-8b67c7fe93a7""}","https://test12345.live/?num_scrambled_semantic=8&num_scrambled_causal=4&num_scrambled_schematic=4&participantId=474F961C75AD433FBC592DCA8226F111&assignmentId=6cd95198-c14d-433a-9d1e-142c4d784950&projectId=9076ac92-be42-43a2-9634-8b67c7fe93a7","474F961C75AD433FBC592DCA8226F111-2025-05-22-19-28-44","","null","","images/semantic_sequence/redecorating_semantic/redecorating_semantic_4.png","null","",""
"","","","","","image-button-response","67","565021","0.0-12.0-1.0-1.3","474F961C75AD433FBC592DCA8226F111","474F961C75AD433FBC592DCA8226F111","6cd95198-c14d-433a-9d1e-142c4d784950","9076ac92-be42-43a2-9634-8b67c7fe93a7","{""num_scrambled_semantic"":""8"",""num_scrambled_causal"":""4"",""num_scrambled_schematic"":""4"",""participantId"":""474F961C75AD433FBC592DCA8226F111"",""assignmentId"":""6cd95198-c14d-433a-9d1e-142c4d784950"",""projectId"":""9076ac92-be42-43a2-9634-8b67c7fe93a7""}","https://test12345.live/?num_scrambled_semantic=8&num_scrambled_causal=4&num_scrambled_schematic=4&participantId=474F961C75AD433FBC592DCA8226F111&assignmentId=6cd95198-c14d-433a-9d1e-142c4d784950&projectId=9076ac92-be42-43a2-9634-8b67c7fe93a7","474F961C75AD433FBC592DCA8226F111-2025-05-22-19-28-44","","2560","","images/semantic_sequence/redecorating_semantic/redecorating_semantic_4.png","0","",""
"","","","","","image-button-response","68","566838","0.0-12.0-1.0-2.3","474F961C75AD433FBC592DCA8226F111","474F961C75AD433FBC592DCA8226F111","6cd95198-c14d-433a-9d1e-142c4d784950","9076ac92-be42-43a2-9634-8b67c7fe93a7","{""num_scrambled_semantic"":""8"",""num_scrambled_causal"":""4"",""num_scrambled_schematic"":""4"",""participantId"":""474F961C75AD433FBC592DCA8226F111"",""assignmentId"":""6cd95198-c14d-433a-9d1e-142c4d784950"",""projectId"":""9076ac92-be42-43a2-9634-8b67c7fe93a7""}","https://test12345.live/?num_scrambled_semantic=8&num_scrambled_causal=4&num_scrambled_schematic=4&participantId=474F961C75AD433FBC592DCA8226F111&assignmentId=6cd95198-c14d-433a-9d1e-142c4d784950&projectId=9076ac92-be42-43a2-9634-8b67c7fe93a7","474F961C75AD433FBC592DCA8226F111-2025-05-22-19-28-44","","null","","[]","null","",""
"","","","","","image-button-response","69","571340","0.0-12.0-1.0-0.4","474F961C75AD433FBC592DCA8226F111","474F961C75AD433FBC592DCA8226F111","6cd95198-c14d-433a-9d1e-142c4d784950","9076ac92-be42-43a2-9634-8b67c7fe93a7","{""num_scrambled_semantic"":""8"",""num_scrambled_causal"":""4"",""num_scrambled_schematic"":""4"",""participantId"":""474F961C75AD433FBC592DCA8226F111"",""assignmentId"":""6cd95198-c14d-433a-9d1e-142c4d784950"",""projectId"":""9076ac92-be42-43a2-9634-8b67c7fe93a7""}","https://test12345.live/?num_scrambled_semantic=8&num_scrambled_causal=4&num_scrambled_schematic=4&participantId=474F961C75AD433FBC592DCA8226F111&assignmentId=6cd95198-c14d-433a-9d1e-142c4d784950&projectId=9076ac92-be42-43a2-9634-8b67c7fe93a7","474F961C75AD433FBC592DCA8226F111-2025-05-22-19-28-44","","null","","images/semantic_sequence/redecorating_semantic/redecorating_semantic_5.png","null","",""
"","","","","","image-button-response","70","572301","0.0-12.0-1.0-1.4","474F961C75AD433FBC592DCA8226F111","474F961C75AD433FBC592DCA8226F111","6cd95198-c14d-433a-9d1e-142c4d784950","9076ac92-be42-43a2-9634-8b67c7fe93a7","{""num_scrambled_semantic"":""8"",""num_scrambled_causal"":""4"",""num_scrambled_schematic"":""4"",""participantId"":""474F961C75AD433FBC592DCA8226F111"",""assignmentId"":""6cd95198-c14d-433a-9d1e-142c4d784950"",""projectId"":""9076ac92-be42-43a2-9634-8b67c7fe93a7""}","https://test12345.live/?num_scrambled_semantic=8&num_scrambled_causal=4&num_scrambled_schematic=4&participantId=474F961C75AD433FBC592DCA8226F111&assignmentId=6cd95198-c14d-433a-9d1e-142c4d784950&projectId=9076ac92-be42-43a2-9634-8b67c7fe93a7","474F961C75AD433FBC592DCA8226F111-2025-05-22-19-28-44","","960","","images/semantic_sequence/redecorating_semantic/redecorating_semantic_5.png","0","",""
"","","","","","image-button-response","71","574117","0.0-12.0-1.0-2.4","474F961C75AD433FBC592DCA8226F111","474F961C75AD433FBC592DCA8226F111","6cd95198-c14d-433a-9d1e-142c4d784950","9076ac92-be42-43a2-9634-8b67c7fe93a7","{""num_scrambled_semantic"":""8"",""num_scrambled_causal"":""4"",""num_scrambled_schematic"":""4"",""participantId"":""474F961C75AD433FBC592DCA8226F111"",""assignmentId"":""6cd95198-c14d-433a-9d1e-142c4d784950"",""projectId"":""9076ac92-be42-43a2-9634-8b67c7fe93a7""}","https://test12345.live/?num_scrambled_semantic=8&num_scrambled_causal=4&num_scrambled_schematic=4&participantId=474F961C75AD433FBC592DCA8226F111&assignmentId=6cd95198-c14d-433a-9d1e-142c4d784950&projectId=9076ac92-be42-43a2-9634-8b67c7fe93a7","474F961C75AD433FBC592DCA8226F111-2025-05-22-19-28-44","","null","","[]","null","",""
"","","","","","image-button-response","72","578631","0.0-12.0-1.0-0.5","474F961C75AD433FBC592DCA8226F111","474F961C75AD433FBC592DCA8226F111","6cd95198-c14d-433a-9d1e-142c4d784950","9076ac92-be42-43a2-9634-8b67c7fe93a7","{""num_scrambled_semantic"":""8"",""num_scrambled_causal"":""4"",""num_scrambled_schematic"":""4"",""participantId"":""474F961C75AD433FBC592DCA8226F111"",""assignmentId"":""6cd95198-c14d-433a-9d1e-142c4d784950"",""projectId"":""9076ac92-be42-43a2-9634-8b67c7fe93a7""}","https://test12345.live/?num_scrambled_semantic=8&num_scrambled_causal=4&num_scrambled_schematic=4&participantId=474F961C75AD433FBC592DCA8226F111&assignmentId=6cd95198-c14d-433a-9d1e-142c4d784950&projectId=9076ac92-be42-43a2-9634-8b67c7fe93a7","474F961C75AD433FBC592DCA8226F111-2025-05-22-19-28-44","","null","","images/semantic_sequence/redecorating_semantic/redecorating_semantic_6.png","null","",""
"","","","","","image-button-response","73","579222","0.0-12.0-1.0-1.5","474F961C75AD433FBC592DCA8226F111","474F961C75AD433FBC592DCA8226F111","6cd95198-c14d-433a-9d1e-142c4d784950","9076ac92-be42-43a2-9634-8b67c7fe93a7","{""num_scrambled_semantic"":""8"",""num_scrambled_causal"":""4"",""num_scrambled_schematic"":""4"",""participantId"":""474F961C75AD433FBC592DCA8226F111"",""assignmentId"":""6cd95198-c14d-433a-9d1e-142c4d784950"",""projectId"":""9076ac92-be42-43a2-9634-8b67c7fe93a7""}","https://test12345.live/?num_scrambled_semantic=8&num_scrambled_causal=4&num_scrambled_schematic=4&participantId=474F961C75AD433FBC592DCA8226F111&assignmentId=6cd95198-c14d-433a-9d1e-142c4d784950&projectId=9076ac92-be42-43a2-9634-8b67c7fe93a7","474F961C75AD433FBC592DCA8226F111-2025-05-22-19-28-44","","590","","images/semantic_sequence/redecorating_semantic/redecorating_semantic_6.png","0","",""
"","","","","","image-button-response","74","581024","0.0-12.0-1.0-2.5","474F961C75AD433FBC592DCA8226F111","474F961C75AD433FBC592DCA8226F111","6cd95198-c14d-433a-9d1e-142c4d784950","9076ac92-be42-43a2-9634-8b67c7fe93a7","{""num_scrambled_semantic"":""8"",""num_scrambled_causal"":""4"",""num_scrambled_schematic"":""4"",""participantId"":""474F961C75AD433FBC592DCA8226F111"",""assignmentId"":""6cd95198-c14d-433a-9d1e-142c4d784950"",""projectId"":""9076ac92-be42-43a2-9634-8b67c7fe93a7""}","https://test12345.live/?num_scrambled_semantic=8&num_scrambled_causal=4&num_scrambled_schematic=4&participantId=474F961C75AD433FBC592DCA8226F111&assignmentId=6cd95198-c14d-433a-9d1e-142c4d784950&projectId=9076ac92-be42-43a2-9634-8b67c7fe93a7","474F961C75AD433FBC592DCA8226F111-2025-05-22-19-28-44","","null","","[]","null","",""
"","","","","","image-button-response","75","585526","0.0-12.0-1.0-0.6","474F961C75AD433FBC592DCA8226F111","474F961C75AD433FBC592DCA8226F111","6cd95198-c14d-433a-9d1e-142c4d784950","9076ac92-be42-43a2-9634-8b67c7fe93a7","{""num_scrambled_semantic"":""8"",""num_scrambled_causal"":""4"",""num_scrambled_schematic"":""4"",""participantId"":""474F961C75AD433FBC592DCA8226F111"",""assignmentId"":""6cd95198-c14d-433a-9d1e-142c4d784950"",""projectId"":""9076ac92-be42-43a2-9634-8b67c7fe93a7""}","https://test12345.live/?num_scrambled_semantic=8&num_scrambled_causal=4&num_scrambled_schematic=4&participantId=474F961C75AD433FBC592DCA8226F111&assignmentId=6cd95198-c14d-433a-9d1e-142c4d784950&projectId=9076ac92-be42-43a2-9634-8b67c7fe93a7","474F961C75AD433FBC592DCA8226F111-2025-05-22-19-28-44","","null","","images/semantic_sequence/redecorating_semantic/redecorating_semantic_7.png","null","",""
"","","","","","image-button-response","76","586525","0.0-12.0-1.0-1.6","474F961C75AD433FBC592DCA8226F111","474F961C75AD433FBC592DCA8226F111","6cd95198-c14d-433a-9d1e-142c4d784950","9076ac92-be42-43a2-9634-8b67c7fe93a7","{""num_scrambled_semantic"":""8"",""num_scrambled_causal"":""4"",""num_scrambled_schematic"":""4"",""participantId"":""474F961C75AD433FBC592DCA8226F111"",""assignmentId"":""6cd95198-c14d-433a-9d1e-142c4d784950"",""projectId"":""9076ac92-be42-43a2-9634-8b67c7fe93a7""}","https://test12345.live/?num_scrambled_semantic=8&num_scrambled_causal=4&num_scrambled_schematic=4&participantId=474F961C75AD433FBC592DCA8226F111&assignmentId=6cd95198-c14d-433a-9d1e-142c4d784950&projectId=9076ac92-be42-43a2-9634-8b67c7fe93a7","474F961C75AD433FBC592DCA8226F111-2025-05-22-19-28-44","","998","","images/semantic_sequence/redecorating_semantic/redecorating_semantic_7.png","0","",""
"","","","","","image-button-response","77","588336","0.0-12.0-1.0-2.6","474F961C75AD433FBC592DCA8226F111","474F961C75AD433FBC592DCA8226F111","6cd95198-c14d-433a-9d1e-142c4d784950","9076ac92-be42-43a2-9634-8b67c7fe93a7","{""num_scrambled_semantic"":""8"",""num_scrambled_causal"":""4"",""num_scrambled_schematic"":""4"",""participantId"":""474F961C75AD433FBC592DCA8226F111"",""assignmentId"":""6cd95198-c14d-433a-9d1e-142c4d784950"",""projectId"":""9076ac92-be42-43a2-9634-8b67c7fe93a7""}","https://test12345.live/?num_scrambled_semantic=8&num_scrambled_causal=4&num_scrambled_schematic=4&participantId=474F961C75AD433FBC592DCA8226F111&assignmentId=6cd95198-c14d-433a-9d1e-142c4d784950&projectId=9076ac92-be42-43a2-9634-8b67c7fe93a7","474F961C75AD433FBC592DCA8226F111-2025-05-22-19-28-44","","null","","[]","null","",""
"","","","","","image-button-response","78","592842","0.0-12.0-1.0-0.7","474F961C75AD433FBC592DCA8226F111","474F961C75AD433FBC592DCA8226F111","6cd95198-c14d-433a-9d1e-142c4d784950","9076ac92-be42-43a2-9634-8b67c7fe93a7","{""num_scrambled_semantic"":""8"",""num_scrambled_causal"":""4"",""num_scrambled_schematic"":""4"",""participantId"":""474F961C75AD433FBC592DCA8226F111"",""assignmentId"":""6cd95198-c14d-433a-9d1e-142c4d784950"",""projectId"":""9076ac92-be42-43a2-9634-8b67c7fe93a7""}","https://test12345.live/?num_scrambled_semantic=8&num_scrambled_causal=4&num_scrambled_schematic=4&participantId=474F961C75AD433FBC592DCA8226F111&assignmentId=6cd95198-c14d-433a-9d1e-142c4d784950&projectId=9076ac92-be42-43a2-9634-8b67c7fe93a7","474F961C75AD433FBC592DCA8226F111-2025-05-22-19-28-44","","null","","images/semantic_sequence/redecorating_semantic/redecorating_semantic_8.png","null","",""
"","","","","","image-button-response","79","594429","0.0-12.0-1.0-1.7","474F961C75AD433FBC592DCA8226F111","474F961C75AD433FBC592DCA8226F111","6cd95198-c14d-433a-9d1e-142c4d784950","9076ac92-be42-43a2-9634-8b67c7fe93a7","{""num_scrambled_semantic"":""8"",""num_scrambled_causal"":""4"",""num_scrambled_schematic"":""4"",""participantId"":""474F961C75AD433FBC592DCA8226F111"",""assignmentId"":""6cd95198-c14d-433a-9d1e-142c4d784950"",""projectId"":""9076ac92-be42-43a2-9634-8b67c7fe93a7""}","https://test12345.live/?num_scrambled_semantic=8&num_scrambled_causal=4&num_scrambled_schematic=4&participantId=474F961C75AD433FBC592DCA8226F111&assignmentId=6cd95198-c14d-433a-9d1e-142c4d784950&projectId=9076ac92-be42-43a2-9634-8b67c7fe93a7","474F961C75AD433FBC592DCA8226F111-2025-05-22-19-28-44","","1586","","images/semantic_sequence/redecorating_semantic/redecorating_semantic_8.png","0","",""
"","","","","","image-button-response","80","596233","0.0-12.0-1.0-2.7","474F961C75AD433FBC592DCA8226F111","474F961C75AD433FBC592DCA8226F111","6cd95198-c14d-433a-9d1e-142c4d784950","9076ac92-be42-43a2-9634-8b67c7fe93a7","{""num_scrambled_semantic"":""8"",""num_scrambled_causal"":""4"",""num_scrambled_schematic"":""4"",""participantId"":""474F961C75AD433FBC592DCA8226F111"",""assignmentId"":""6cd95198-c14d-433a-9d1e-142c4d784950"",""projectId"":""9076ac92-be42-43a2-9634-8b67c7fe93a7""}","https://test12345.live/?num_scrambled_semantic=8&num_scrambled_causal=4&num_scrambled_schematic=4&participantId=474F961C75AD433FBC592DCA8226F111&assignmentId=6cd95198-c14d-433a-9d1e-142c4d784950&projectId=9076ac92-be42-43a2-9634-8b67c7fe93a7","474F961C75AD433FBC592DCA8226F111-2025-05-22-19-28-44","","null","","[]","null","",""
"","","","","","image-button-response","81","600743","0.0-12.0-1.0-0.8","474F961C75AD433FBC592DCA8226F111","474F961C75AD433FBC592DCA8226F111","6cd95198-c14d-433a-9d1e-142c4d784950","9076ac92-be42-43a2-9634-8b67c7fe93a7","{""num_scrambled_semantic"":""8"",""num_scrambled_causal"":""4"",""num_scrambled_schematic"":""4"",""participantId"":""474F961C75AD433FBC592DCA8226F111"",""assignmentId"":""6cd95198-c14d-433a-9d1e-142c4d784950"",""projectId"":""9076ac92-be42-43a2-9634-8b67c7fe93a7""}","https://test12345.live/?num_scrambled_semantic=8&num_scrambled_causal=4&num_scrambled_schematic=4&participantId=474F961C75AD433FBC592DCA8226F111&assignmentId=6cd95198-c14d-433a-9d1e-142c4d784950&projectId=9076ac92-be42-43a2-9634-8b67c7fe93a7","474F961C75AD433FBC592DCA8226F111-2025-05-22-19-28-44","","null","","images/semantic_sequence/redecorating_semantic/redecorating_semantic_9.png","null","",""
"","","","","","image-button-response","82","601749","0.0-12.0-1.0-1.8","474F961C75AD433FBC592DCA8226F111","474F961C75AD433FBC592DCA8226F111","6cd95198-c14d-433a-9d1e-142c4d784950","9076ac92-be42-43a2-9634-8b67c7fe93a7","{""num_scrambled_semantic"":""8"",""num_scrambled_causal"":""4"",""num_scrambled_schematic"":""4"",""participantId"":""474F961C75AD433FBC592DCA8226F111"",""assignmentId"":""6cd95198-c14d-433a-9d1e-142c4d784950"",""projectId"":""9076ac92-be42-43a2-9634-8b67c7fe93a7""}","https://test12345.live/?num_scrambled_semantic=8&num_scrambled_causal=4&num_scrambled_schematic=4&participantId=474F961C75AD433FBC592DCA8226F111&assignmentId=6cd95198-c14d-433a-9d1e-142c4d784950&projectId=9076ac92-be42-43a2-9634-8b67c7fe93a7","474F961C75AD433FBC592DCA8226F111-2025-05-22-19-28-44","","1005","","images/semantic_sequence/redecorating_semantic/redecorating_semantic_9.png","0","",""
"","","","","","image-button-response","83","603558","0.0-12.0-1.0-2.8","474F961C75AD433FBC592DCA8226F111","474F961C75AD433FBC592DCA8226F111","6cd95198-c14d-433a-9d1e-142c4d784950","9076ac92-be42-43a2-9634-8b67c7fe93a7","{""num_scrambled_semantic"":""8"",""num_scrambled_causal"":""4"",""num_scrambled_schematic"":""4"",""participantId"":""474F961C75AD433FBC592DCA8226F111"",""assignmentId"":""6cd95198-c14d-433a-9d1e-142c4d784950"",""projectId"":""9076ac92-be42-43a2-9634-8b67c7fe93a7""}","https://test12345.live/?num_scrambled_semantic=8&num_scrambled_causal=4&num_scrambled_schematic=4&participantId=474F961C75AD433FBC592DCA8226F111&assignmentId=6cd95198-c14d-433a-9d1e-142c4d784950&projectId=9076ac92-be42-43a2-9634-8b67c7fe93a7","474F961C75AD433FBC592DCA8226F111-2025-05-22-19-28-44","","null","","[]","null","",""
"","","","","","image-button-response","84","608073","0.0-12.0-1.0-0.9","474F961C75AD433FBC592DCA8226F111","474F961C75AD433FBC592DCA8226F111","6cd95198-c14d-433a-9d1e-142c4d784950","9076ac92-be42-43a2-9634-8b67c7fe93a7","{""num_scrambled_semantic"":""8"",""num_scrambled_causal"":""4"",""num_scrambled_schematic"":""4"",""participantId"":""474F961C75AD433FBC592DCA8226F111"",""assignmentId"":""6cd95198-c14d-433a-9d1e-142c4d784950"",""projectId"":""9076ac92-be42-43a2-9634-8b67c7fe93a7""}","https://test12345.live/?num_scrambled_semantic=8&num_scrambled_causal=4&num_scrambled_schematic=4&participantId=474F961C75AD433FBC592DCA8226F111&assignmentId=6cd95198-c14d-433a-9d1e-142c4d784950&projectId=9076ac92-be42-43a2-9634-8b67c7fe93a7","474F961C75AD433FBC592DCA8226F111-2025-05-22-19-28-44","","null","","images/semantic_sequence/redecorating_semantic/redecorating_semantic_ten.png","null","",""
"","","","","","image-button-response","85","609213","0.0-12.0-1.0-1.9","474F961C75AD433FBC592DCA8226F111","474F961C75AD433FBC592DCA8226F111","6cd95198-c14d-433a-9d1e-142c4d784950","9076ac92-be42-43a2-9634-8b67c7fe93a7","{""num_scrambled_semantic"":""8"",""num_scrambled_causal"":""4"",""num_scrambled_schematic"":""4"",""participantId"":""474F961C75AD433FBC592DCA8226F111"",""assignmentId"":""6cd95198-c14d-433a-9d1e-142c4d784950"",""projectId"":""9076ac92-be42-43a2-9634-8b67c7fe93a7""}","https://test12345.live/?num_scrambled_semantic=8&num_scrambled_causal=4&num_scrambled_schematic=4&participantId=474F961C75AD433FBC592DCA8226F111&assignmentId=6cd95198-c14d-433a-9d1e-142c4d784950&projectId=9076ac92-be42-43a2-9634-8b67c7fe93a7","474F961C75AD433FBC592DCA8226F111-2025-05-22-19-28-44","","1139","","images/semantic_sequence/redecorating_semantic/redecorating_semantic_ten.png","0","",""
"","","","","","image-button-response","86","611022","0.0-12.0-1.0-2.9","474F961C75AD433FBC592DCA8226F111","474F961C75AD433FBC592DCA8226F111","6cd95198-c14d-433a-9d1e-142c4d784950","9076ac92-be42-43a2-9634-8b67c7fe93a7","{""num_scrambled_semantic"":""8"",""num_scrambled_causal"":""4"",""num_scrambled_schematic"":""4"",""participantId"":""474F961C75AD433FBC592DCA8226F111"",""assignmentId"":""6cd95198-c14d-433a-9d1e-142c4d784950"",""projectId"":""9076ac92-be42-43a2-9634-8b67c7fe93a7""}","https://test12345.live/?num_scrambled_semantic=8&num_scrambled_causal=4&num_scrambled_schematic=4&participantId=474F961C75AD433FBC592DCA8226F111&assignmentId=6cd95198-c14d-433a-9d1e-142c4d784950&projectId=9076ac92-be42-43a2-9634-8b67c7fe93a7","474F961C75AD433FBC592DCA8226F111-2025-05-22-19-28-44","","null","","[]","null","",""
"","","","","","html-audio-response","87","677229","0.0-13.0","474F961C75AD433FBC592DCA8226F111","474F961C75AD433FBC592DCA8226F111","6cd95198-c14d-433a-9d1e-142c4d784950","9076ac92-be42-43a2-9634-8b67c7fe93a7","{""num_scrambled_semantic"":""8"",""num_scrambled_causal"":""4"",""num_scrambled_schematic"":""4"",""participantId"":""474F961C75AD433FBC592DCA8226F111"",""assignmentId"":""6cd95198-c14d-433a-9d1e-142c4d784950"",""projectId"":""9076ac92-be42-43a2-9634-8b67c7fe93a7""}","https://test12345.live/?num_scrambled_semantic=8&num_scrambled_causal=4&num_scrambled_schematic=4&participantId=474F961C75AD433FBC592DCA8226F111&assignmentId=6cd95198-c14d-433a-9d1e-142c4d784950&projectId=9076ac92-be42-43a2-9634-8b67c7fe93a7","474F961C75AD433FBC592DCA8226F111-2025-05-22-19-28-44","","33454","","[""<span style=\""color: red; font-size: 24px\""> NOW RECORDING</span><p>Please say out loud all the images you saw, in the exact order you saw them. Try to recall as many images as you can, but remember: getting the order right is more important than the number of images you recall.</p>""]","","8","redecorating_semantic"
"","","","","","image-button-response","88","683238","0.0-14.0-0.0","474F961C75AD433FBC592DCA8226F111","474F961C75AD433FBC592DCA8226F111","6cd95198-c14d-433a-9d1e-142c4d784950","9076ac92-be42-43a2-9634-8b67c7fe93a7","{""num_scrambled_semantic"":""8"",""num_scrambled_causal"":""4"",""num_scrambled_schematic"":""4"",""participantId"":""474F961C75AD433FBC592DCA8226F111"",""assignmentId"":""6cd95198-c14d-433a-9d1e-142c4d784950"",""projectId"":""9076ac92-be42-43a2-9634-8b67c7fe93a7""}","https://test12345.live/?num_scrambled_semantic=8&num_scrambled_causal=4&num_scrambled_schematic=4&participantId=474F961C75AD433FBC592DCA8226F111&assignmentId=6cd95198-c14d-433a-9d1e-142c4d784950&projectId=9076ac92-be42-43a2-9634-8b67c7fe93a7","474F961C75AD433FBC592DCA8226F111-2025-05-22-19-28-44","","null","","images/schematic_sequence/supermarket_scheme/supermarket_scheme_0.png","null","",""
"","","","","","image-button-response","89","687750","0.0-14.0-1.0-0.0","474F961C75AD433FBC592DCA8226F111","474F961C75AD433FBC592DCA8226F111","6cd95198-c14d-433a-9d1e-142c4d784950","9076ac92-be42-43a2-9634-8b67c7fe93a7","{""num_scrambled_semantic"":""8"",""num_scrambled_causal"":""4"",""num_scrambled_schematic"":""4"",""participantId"":""474F961C75AD433FBC592DCA8226F111"",""assignmentId"":""6cd95198-c14d-433a-9d1e-142c4d784950"",""projectId"":""9076ac92-be42-43a2-9634-8b67c7fe93a7""}","https://test12345.live/?num_scrambled_semantic=8&num_scrambled_causal=4&num_scrambled_schematic=4&participantId=474F961C75AD433FBC592DCA8226F111&assignmentId=6cd95198-c14d-433a-9d1e-142c4d784950&projectId=9076ac92-be42-43a2-9634-8b67c7fe93a7","474F961C75AD433FBC592DCA8226F111-2025-05-22-19-28-44","","null","","images/schematic_sequence/supermarket_scheme/supermarket_scheme_3.png","null","",""
"","","","","","image-button-response","90","689301","0.0-14.0-1.0-1.0","474F961C75AD433FBC592DCA8226F111","474F961C75AD433FBC592DCA8226F111","6cd95198-c14d-433a-9d1e-142c4d784950","9076ac92-be42-43a2-9634-8b67c7fe93a7","{""num_scrambled_semantic"":""8"",""num_scrambled_causal"":""4"",""num_scrambled_schematic"":""4"",""participantId"":""474F961C75AD433FBC592DCA8226F111"",""assignmentId"":""6cd95198-c14d-433a-9d1e-142c4d784950"",""projectId"":""9076ac92-be42-43a2-9634-8b67c7fe93a7""}","https://test12345.live/?num_scrambled_semantic=8&num_scrambled_causal=4&num_scrambled_schematic=4&participantId=474F961C75AD433FBC592DCA8226F111&assignmentId=6cd95198-c14d-433a-9d1e-142c4d784950&projectId=9076ac92-be42-43a2-9634-8b67c7fe93a7","474F961C75AD433FBC592DCA8226F111-2025-05-22-19-28-44","","1550","","images/schematic_sequence/supermarket_scheme/supermarket_scheme_3.png","1","",""
"","","","","","image-button-response","91","691105","0.0-14.0-1.0-2.0","474F961C75AD433FBC592DCA8226F111","474F961C75AD433FBC592DCA8226F111","6cd95198-c14d-433a-9d1e-142c4d784950","9076ac92-be42-43a2-9634-8b67c7fe93a7","{""num_scrambled_semantic"":""8"",""num_scrambled_causal"":""4"",""num_scrambled_schematic"":""4"",""participantId"":""474F961C75AD433FBC592DCA8226F111"",""assignmentId"":""6cd95198-c14d-433a-9d1e-142c4d784950"",""projectId"":""9076ac92-be42-43a2-9634-8b67c7fe93a7""}","https://test12345.live/?num_scrambled_semantic=8&num_scrambled_causal=4&num_scrambled_schematic=4&participantId=474F961C75AD433FBC592DCA8226F111&assignmentId=6cd95198-c14d-433a-9d1e-142c4d784950&projectId=9076ac92-be42-43a2-9634-8b67c7fe93a7","474F961C75AD433FBC592DCA8226F111-2025-05-22-19-28-44","","null","","[]","null","",""
"","","","","","image-button-response","92","695614","0.0-14.0-1.0-0.1","474F961C75AD433FBC592DCA8226F111","474F961C75AD433FBC592DCA8226F111","6cd95198-c14d-433a-9d1e-142c4d784950","9076ac92-be42-43a2-9634-8b67c7fe93a7","{""num_scrambled_semantic"":""8"",""num_scrambled_causal"":""4"",""num_scrambled_schematic"":""4"",""participantId"":""474F961C75AD433FBC592DCA8226F111"",""assignmentId"":""6cd95198-c14d-433a-9d1e-142c4d784950"",""projectId"":""9076ac92-be42-43a2-9634-8b67c7fe93a7""}","https://test12345.live/?num_scrambled_semantic=8&num_scrambled_causal=4&num_scrambled_schematic=4&participantId=474F961C75AD433FBC592DCA8226F111&assignmentId=6cd95198-c14d-433a-9d1e-142c4d784950&projectId=9076ac92-be42-43a2-9634-8b67c7fe93a7","474F961C75AD433FBC592DCA8226F111-2025-05-22-19-28-44","","null","","images/schematic_sequence/supermarket_scheme/supermarket_scheme_8.png","null","",""
"","","","","","image-button-response","93","697069","0.0-14.0-1.0-1.1","474F961C75AD433FBC592DCA8226F111","474F961C75AD433FBC592DCA8226F111","6cd95198-c14d-433a-9d1e-142c4d784950","9076ac92-be42-43a2-9634-8b67c7fe93a7","{""num_scrambled_semantic"":""8"",""num_scrambled_causal"":""4"",""num_scrambled_schematic"":""4"",""participantId"":""474F961C75AD433FBC592DCA8226F111"",""assignmentId"":""6cd95198-c14d-433a-9d1e-142c4d784950"",""projectId"":""9076ac92-be42-43a2-9634-8b67c7fe93a7""}","https://test12345.live/?num_scrambled_semantic=8&num_scrambled_causal=4&num_scrambled_schematic=4&participantId=474F961C75AD433FBC592DCA8226F111&assignmentId=6cd95198-c14d-433a-9d1e-142c4d784950&projectId=9076ac92-be42-43a2-9634-8b67c7fe93a7","474F961C75AD433FBC592DCA8226F111-2025-05-22-19-28-44","","1454","","images/schematic_sequence/supermarket_scheme/supermarket_scheme_8.png","0","",""
"","","","","","image-button-response","94","698879","0.0-14.0-1.0-2.1","474F961C75AD433FBC592DCA8226F111","474F961C75AD433FBC592DCA8226F111","6cd95198-c14d-433a-9d1e-142c4d784950","9076ac92-be42-43a2-9634-8b67c7fe93a7","{""num_scrambled_semantic"":""8"",""num_scrambled_causal"":""4"",""num_scrambled_schematic"":""4"",""participantId"":""474F961C75AD433FBC592DCA8226F111"",""assignmentId"":""6cd95198-c14d-433a-9d1e-142c4d784950"",""projectId"":""9076ac92-be42-43a2-9634-8b67c7fe93a7""}","https://test12345.live/?num_scrambled_semantic=8&num_scrambled_causal=4&num_scrambled_schematic=4&participantId=474F961C75AD433FBC592DCA8226F111&assignmentId=6cd95198-c14d-433a-9d1e-142c4d784950&projectId=9076ac92-be42-43a2-9634-8b67c7fe93a7","474F961C75AD433FBC592DCA8226F111-2025-05-22-19-28-44","","null","","[]","null","",""
"","","","","","image-button-response","95","703385","0.0-14.0-1.0-0.2","474F961C75AD433FBC592DCA8226F111","474F961C75AD433FBC592DCA8226F111","6cd95198-c14d-433a-9d1e-142c4d784950","9076ac92-be42-43a2-9634-8b67c7fe93a7","{""num_scrambled_semantic"":""8"",""num_scrambled_causal"":""4"",""num_scrambled_schematic"":""4"",""participantId"":""474F961C75AD433FBC592DCA8226F111"",""assignmentId"":""6cd95198-c14d-433a-9d1e-142c4d784950"",""projectId"":""9076ac92-be42-43a2-9634-8b67c7fe93a7""}","https://test12345.live/?num_scrambled_semantic=8&num_scrambled_causal=4&num_scrambled_schematic=4&participantId=474F961C75AD433FBC592DCA8226F111&assignmentId=6cd95198-c14d-433a-9d1e-142c4d784950&projectId=9076ac92-be42-43a2-9634-8b67c7fe93a7","474F961C75AD433FBC592DCA8226F111-2025-05-22-19-28-44","","null","","images/schematic_sequence/supermarket_scheme/supermarket_scheme_7.png","null","",""
"","","","","","image-button-response","96","704709","0.0-14.0-1.0-1.2","474F961C75AD433FBC592DCA8226F111","474F961C75AD433FBC592DCA8226F111","6cd95198-c14d-433a-9d1e-142c4d784950","9076ac92-be42-43a2-9634-8b67c7fe93a7","{""num_scrambled_semantic"":""8"",""num_scrambled_causal"":""4"",""num_scrambled_schematic"":""4"",""participantId"":""474F961C75AD433FBC592DCA8226F111"",""assignmentId"":""6cd95198-c14d-433a-9d1e-142c4d784950"",""projectId"":""9076ac92-be42-43a2-9634-8b67c7fe93a7""}","https://test12345.live/?num_scrambled_semantic=8&num_scrambled_causal=4&num_scrambled_schematic=4&participantId=474F961C75AD433FBC592DCA8226F111&assignmentId=6cd95198-c14d-433a-9d1e-142c4d784950&projectId=9076ac92-be42-43a2-9634-8b67c7fe93a7","474F961C75AD433FBC592DCA8226F111-2025-05-22-19-28-44","","1323","","images/schematic_sequence/supermarket_scheme/supermarket_scheme_7.png","0","",""
"","","","","","image-button-response","97","706518","0.0-14.0-1.0-2.2","474F961C75AD433FBC592DCA8226F111","474F961C75AD433FBC592DCA8226F111","6cd95198-c14d-433a-9d1e-142c4d784950","9076ac92-be42-43a2-9634-8b67c7fe93a7","{""num_scrambled_semantic"":""8"",""num_scrambled_causal"":""4"",""num_scrambled_schematic"":""4"",""participantId"":""474F961C75AD433FBC592DCA8226F111"",""assignmentId"":""6cd95198-c14d-433a-9d1e-142c4d784950"",""projectId"":""9076ac92-be42-43a2-9634-8b67c7fe93a7""}","https://test12345.live/?num_scrambled_semantic=8&num_scrambled_causal=4&num_scrambled_schematic=4&participantId=474F961C75AD433FBC592DCA8226F111&assignmentId=6cd95198-c14d-433a-9d1e-142c4d784950&projectId=9076ac92-be42-43a2-9634-8b67c7fe93a7","474F961C75AD433FBC592DCA8226F111-2025-05-22-19-28-44","","null","","[]","null","",""
"","","","","","image-button-response","98","711032","0.0-14.0-1.0-0.3","474F961C75AD433FBC592DCA8226F111","474F961C75AD433FBC592DCA8226F111","6cd95198-c14d-433a-9d1e-142c4d784950","9076ac92-be42-43a2-9634-8b67c7fe93a7","{""num_scrambled_semantic"":""8"",""num_scrambled_causal"":""4"",""num_scrambled_schematic"":""4"",""participantId"":""474F961C75AD433FBC592DCA8226F111"",""assignmentId"":""6cd95198-c14d-433a-9d1e-142c4d784950"",""projectId"":""9076ac92-be42-43a2-9634-8b67c7fe93a7""}","https://test12345.live/?num_scrambled_semantic=8&num_scrambled_causal=4&num_scrambled_schematic=4&participantId=474F961C75AD433FBC592DCA8226F111&assignmentId=6cd95198-c14d-433a-9d1e-142c4d784950&projectId=9076ac92-be42-43a2-9634-8b67c7fe93a7","474F961C75AD433FBC592DCA8226F111-2025-05-22-19-28-44","","null","","images/schematic_sequence/supermarket_scheme/supermarket_scheme_4.png","null","",""
"","","","","","image-button-response","99","712005","0.0-14.0-1.0-1.3","474F961C75AD433FBC592DCA8226F111","474F961C75AD433FBC592DCA8226F111","6cd95198-c14d-433a-9d1e-142c4d784950","9076ac92-be42-43a2-9634-8b67c7fe93a7","{""num_scrambled_semantic"":""8"",""num_scrambled_causal"":""4"",""num_scrambled_schematic"":""4"",""participantId"":""474F961C75AD433FBC592DCA8226F111"",""assignmentId"":""6cd95198-c14d-433a-9d1e-142c4d784950"",""projectId"":""9076ac92-be42-43a2-9634-8b67c7fe93a7""}","https://test12345.live/?num_scrambled_semantic=8&num_scrambled_causal=4&num_scrambled_schematic=4&participantId=474F961C75AD433FBC592DCA8226F111&assignmentId=6cd95198-c14d-433a-9d1e-142c4d784950&projectId=9076ac92-be42-43a2-9634-8b67c7fe93a7","474F961C75AD433FBC592DCA8226F111-2025-05-22-19-28-44","","972","","images/schematic_sequence/supermarket_scheme/supermarket_scheme_4.png","0","",""
"","","","","","image-button-response","100","713819","0.0-14.0-1.0-2.3","474F961C75AD433FBC592DCA8226F111","474F961C75AD433FBC592DCA8226F111","6cd95198-c14d-433a-9d1e-142c4d784950","9076ac92-be42-43a2-9634-8b67c7fe93a7","{""num_scrambled_semantic"":""8"",""num_scrambled_causal"":""4"",""num_scrambled_schematic"":""4"",""participantId"":""474F961C75AD433FBC592DCA8226F111"",""assignmentId"":""6cd95198-c14d-433a-9d1e-142c4d784950"",""projectId"":""9076ac92-be42-43a2-9634-8b67c7fe93a7""}","https://test12345.live/?num_scrambled_semantic=8&num_scrambled_causal=4&num_scrambled_schematic=4&participantId=474F961C75AD433FBC592DCA8226F111&assignmentId=6cd95198-c14d-433a-9d1e-142c4d784950&projectId=9076ac92-be42-43a2-9634-8b67c7fe93a7","474F961C75AD433FBC592DCA8226F111-2025-05-22-19-28-44","","null","","[]","null","",""
"","","","","","image-button-response","101","718320","0.0-14.0-1.0-0.4","474F961C75AD433FBC592DCA8226F111","474F961C75AD433FBC592DCA8226F111","6cd95198-c14d-433a-9d1e-142c4d784950","9076ac92-be42-43a2-9634-8b67c7fe93a7","{""num_scrambled_semantic"":""8"",""num_scrambled_causal"":""4"",""num_scrambled_schematic"":""4"",""participantId"":""474F961C75AD433FBC592DCA8226F111"",""assignmentId"":""6cd95198-c14d-433a-9d1e-142c4d784950"",""projectId"":""9076ac92-be42-43a2-9634-8b67c7fe93a7""}","https://test12345.live/?num_scrambled_semantic=8&num_scrambled_causal=4&num_scrambled_schematic=4&participantId=474F961C75AD433FBC592DCA8226F111&assignmentId=6cd95198-c14d-433a-9d1e-142c4d784950&projectId=9076ac92-be42-43a2-9634-8b67c7fe93a7","474F961C75AD433FBC592DCA8226F111-2025-05-22-19-28-44","","null","","images/schematic_sequence/supermarket_scheme/supermarket_scheme_6.png","null","",""
"","","","","","image-button-response","102","719045","0.0-14.0-1.0-1.4","474F961C75AD433FBC592DCA8226F111","474F961C75AD433FBC592DCA8226F111","6cd95198-c14d-433a-9d1e-142c4d784950","9076ac92-be42-43a2-9634-8b67c7fe93a7","{""num_scrambled_semantic"":""8"",""num_scrambled_causal"":""4"",""num_scrambled_schematic"":""4"",""participantId"":""474F961C75AD433FBC592DCA8226F111"",""assignmentId"":""6cd95198-c14d-433a-9d1e-142c4d784950"",""projectId"":""9076ac92-be42-43a2-9634-8b67c7fe93a7""}","https://test12345.live/?num_scrambled_semantic=8&num_scrambled_causal=4&num_scrambled_schematic=4&participantId=474F961C75AD433FBC592DCA8226F111&assignmentId=6cd95198-c14d-433a-9d1e-142c4d784950&projectId=9076ac92-be42-43a2-9634-8b67c7fe93a7","474F961C75AD433FBC592DCA8226F111-2025-05-22-19-28-44","","724","","images/schematic_sequence/supermarket_scheme/supermarket_scheme_6.png","0","",""
"","","","","","image-button-response","103","720857","0.0-14.0-1.0-2.4","474F961C75AD433FBC592DCA8226F111","474F961C75AD433FBC592DCA8226F111","6cd95198-c14d-433a-9d1e-142c4d784950","9076ac92-be42-43a2-9634-8b67c7fe93a7","{""num_scrambled_semantic"":""8"",""num_scrambled_causal"":""4"",""num_scrambled_schematic"":""4"",""participantId"":""474F961C75AD433FBC592DCA8226F111"",""assignmentId"":""6cd95198-c14d-433a-9d1e-142c4d784950"",""projectId"":""9076ac92-be42-43a2-9634-8b67c7fe93a7""}","https://test12345.live/?num_scrambled_semantic=8&num_scrambled_causal=4&num_scrambled_schematic=4&participantId=474F961C75AD433FBC592DCA8226F111&assignmentId=6cd95198-c14d-433a-9d1e-142c4d784950&projectId=9076ac92-be42-43a2-9634-8b67c7fe93a7","474F961C75AD433FBC592DCA8226F111-2025-05-22-19-28-44","","null","","[]","null","",""
"","","","","","image-button-response","104","725368","0.0-14.0-1.0-0.5","474F961C75AD433FBC592DCA8226F111","474F961C75AD433FBC592DCA8226F111","6cd95198-c14d-433a-9d1e-142c4d784950","9076ac92-be42-43a2-9634-8b67c7fe93a7","{""num_scrambled_semantic"":""8"",""num_scrambled_causal"":""4"",""num_scrambled_schematic"":""4"",""participantId"":""474F961C75AD433FBC592DCA8226F111"",""assignmentId"":""6cd95198-c14d-433a-9d1e-142c4d784950"",""projectId"":""9076ac92-be42-43a2-9634-8b67c7fe93a7""}","https://test12345.live/?num_scrambled_semantic=8&num_scrambled_causal=4&num_scrambled_schematic=4&participantId=474F961C75AD433FBC592DCA8226F111&assignmentId=6cd95198-c14d-433a-9d1e-142c4d784950&projectId=9076ac92-be42-43a2-9634-8b67c7fe93a7","474F961C75AD433FBC592DCA8226F111-2025-05-22-19-28-44","","null","","images/schematic_sequence/supermarket_scheme/supermarket_scheme_9.png","null","",""
"","","","","","image-button-response","105","727317","0.0-14.0-1.0-1.5","474F961C75AD433FBC592DCA8226F111","474F961C75AD433FBC592DCA8226F111","6cd95198-c14d-433a-9d1e-142c4d784950","9076ac92-be42-43a2-9634-8b67c7fe93a7","{""num_scrambled_semantic"":""8"",""num_scrambled_causal"":""4"",""num_scrambled_schematic"":""4"",""participantId"":""474F961C75AD433FBC592DCA8226F111"",""assignmentId"":""6cd95198-c14d-433a-9d1e-142c4d784950"",""projectId"":""9076ac92-be42-43a2-9634-8b67c7fe93a7""}","https://test12345.live/?num_scrambled_semantic=8&num_scrambled_causal=4&num_scrambled_schematic=4&participantId=474F961C75AD433FBC592DCA8226F111&assignmentId=6cd95198-c14d-433a-9d1e-142c4d784950&projectId=9076ac92-be42-43a2-9634-8b67c7fe93a7","474F961C75AD433FBC592DCA8226F111-2025-05-22-19-28-44","","1947","","images/schematic_sequence/supermarket_scheme/supermarket_scheme_9.png","0","",""
"","","","","","image-button-response","106","729131","0.0-14.0-1.0-2.5","474F961C75AD433FBC592DCA8226F111","474F961C75AD433FBC592DCA8226F111","6cd95198-c14d-433a-9d1e-142c4d784950","9076ac92-be42-43a2-9634-8b67c7fe93a7","{""num_scrambled_semantic"":""8"",""num_scrambled_causal"":""4"",""num_scrambled_schematic"":""4"",""participantId"":""474F961C75AD433FBC592DCA8226F111"",""assignmentId"":""6cd95198-c14d-433a-9d1e-142c4d784950"",""projectId"":""9076ac92-be42-43a2-9634-8b67c7fe93a7""}","https://test12345.live/?num_scrambled_semantic=8&num_scrambled_causal=4&num_scrambled_schematic=4&participantId=474F961C75AD433FBC592DCA8226F111&assignmentId=6cd95198-c14d-433a-9d1e-142c4d784950&projectId=9076ac92-be42-43a2-9634-8b67c7fe93a7","474F961C75AD433FBC592DCA8226F111-2025-05-22-19-28-44","","null","","[]","null","",""
"","","","","","image-button-response","107","733633","0.0-14.0-1.0-0.6","474F961C75AD433FBC592DCA8226F111","474F961C75AD433FBC592DCA8226F111","6cd95198-c14d-433a-9d1e-142c4d784950","9076ac92-be42-43a2-9634-8b67c7fe93a7","{""num_scrambled_semantic"":""8"",""num_scrambled_causal"":""4"",""num_scrambled_schematic"":""4"",""participantId"":""474F961C75AD433FBC592DCA8226F111"",""assignmentId"":""6cd95198-c14d-433a-9d1e-142c4d784950"",""projectId"":""9076ac92-be42-43a2-9634-8b67c7fe93a7""}","https://test12345.live/?num_scrambled_semantic=8&num_scrambled_causal=4&num_scrambled_schematic=4&participantId=474F961C75AD433FBC592DCA8226F111&assignmentId=6cd95198-c14d-433a-9d1e-142c4d784950&projectId=9076ac92-be42-43a2-9634-8b67c7fe93a7","474F961C75AD433FBC592DCA8226F111-2025-05-22-19-28-44","","null","","images/schematic_sequence/supermarket_scheme/supermarket_scheme_5.png","null","",""
"","","","","","image-button-response","108","735213","0.0-14.0-1.0-1.6","474F961C75AD433FBC592DCA8226F111","474F961C75AD433FBC592DCA8226F111","6cd95198-c14d-433a-9d1e-142c4d784950","9076ac92-be42-43a2-9634-8b67c7fe93a7","{""num_scrambled_semantic"":""8"",""num_scrambled_causal"":""4"",""num_scrambled_schematic"":""4"",""participantId"":""474F961C75AD433FBC592DCA8226F111"",""assignmentId"":""6cd95198-c14d-433a-9d1e-142c4d784950"",""projectId"":""9076ac92-be42-43a2-9634-8b67c7fe93a7""}","https://test12345.live/?num_scrambled_semantic=8&num_scrambled_causal=4&num_scrambled_schematic=4&participantId=474F961C75AD433FBC592DCA8226F111&assignmentId=6cd95198-c14d-433a-9d1e-142c4d784950&projectId=9076ac92-be42-43a2-9634-8b67c7fe93a7","474F961C75AD433FBC592DCA8226F111-2025-05-22-19-28-44","","1578","","images/schematic_sequence/supermarket_scheme/supermarket_scheme_5.png","1","",""
"","","","","","image-button-response","109","737019","0.0-14.0-1.0-2.6","474F961C75AD433FBC592DCA8226F111","474F961C75AD433FBC592DCA8226F111","6cd95198-c14d-433a-9d1e-142c4d784950","9076ac92-be42-43a2-9634-8b67c7fe93a7","{""num_scrambled_semantic"":""8"",""num_scrambled_causal"":""4"",""num_scrambled_schematic"":""4"",""participantId"":""474F961C75AD433FBC592DCA8226F111"",""assignmentId"":""6cd95198-c14d-433a-9d1e-142c4d784950"",""projectId"":""9076ac92-be42-43a2-9634-8b67c7fe93a7""}","https://test12345.live/?num_scrambled_semantic=8&num_scrambled_causal=4&num_scrambled_schematic=4&participantId=474F961C75AD433FBC592DCA8226F111&assignmentId=6cd95198-c14d-433a-9d1e-142c4d784950&projectId=9076ac92-be42-43a2-9634-8b67c7fe93a7","474F961C75AD433FBC592DCA8226F111-2025-05-22-19-28-44","","null","","[]","null","",""
"","","","","","image-button-response","110","741527","0.0-14.0-1.0-0.7","474F961C75AD433FBC592DCA8226F111","474F961C75AD433FBC592DCA8226F111","6cd95198-c14d-433a-9d1e-142c4d784950","9076ac92-be42-43a2-9634-8b67c7fe93a7","{""num_scrambled_semantic"":""8"",""num_scrambled_causal"":""4"",""num_scrambled_schematic"":""4"",""participantId"":""474F961C75AD433FBC592DCA8226F111"",""assignmentId"":""6cd95198-c14d-433a-9d1e-142c4d784950"",""projectId"":""9076ac92-be42-43a2-9634-8b67c7fe93a7""}","https://test12345.live/?num_scrambled_semantic=8&num_scrambled_causal=4&num_scrambled_schematic=4&participantId=474F961C75AD433FBC592DCA8226F111&assignmentId=6cd95198-c14d-433a-9d1e-142c4d784950&projectId=9076ac92-be42-43a2-9634-8b67c7fe93a7","474F961C75AD433FBC592DCA8226F111-2025-05-22-19-28-44","","null","","images/schematic_sequence/supermarket_scheme/supermarket_scheme_ten.png","null","",""
"","","","","","image-button-response","111","744189","0.0-14.0-1.0-1.7","474F961C75AD433FBC592DCA8226F111","474F961C75AD433FBC592DCA8226F111","6cd95198-c14d-433a-9d1e-142c4d784950","9076ac92-be42-43a2-9634-8b67c7fe93a7","{""num_scrambled_semantic"":""8"",""num_scrambled_causal"":""4"",""num_scrambled_schematic"":""4"",""participantId"":""474F961C75AD433FBC592DCA8226F111"",""assignmentId"":""6cd95198-c14d-433a-9d1e-142c4d784950"",""projectId"":""9076ac92-be42-43a2-9634-8b67c7fe93a7""}","https://test12345.live/?num_scrambled_semantic=8&num_scrambled_causal=4&num_scrambled_schematic=4&participantId=474F961C75AD433FBC592DCA8226F111&assignmentId=6cd95198-c14d-433a-9d1e-142c4d784950&projectId=9076ac92-be42-43a2-9634-8b67c7fe93a7","474F961C75AD433FBC592DCA8226F111-2025-05-22-19-28-44","","2661","","images/schematic_sequence/supermarket_scheme/supermarket_scheme_ten.png","1","",""
"","","","","","image-button-response","112","745993","0.0-14.0-1.0-2.7","474F961C75AD433FBC592DCA8226F111","474F961C75AD433FBC592DCA8226F111","6cd95198-c14d-433a-9d1e-142c4d784950","9076ac92-be42-43a2-9634-8b67c7fe93a7","{""num_scrambled_semantic"":""8"",""num_scrambled_causal"":""4"",""num_scrambled_schematic"":""4"",""participantId"":""474F961C75AD433FBC592DCA8226F111"",""assignmentId"":""6cd95198-c14d-433a-9d1e-142c4d784950"",""projectId"":""9076ac92-be42-43a2-9634-8b67c7fe93a7""}","https://test12345.live/?num_scrambled_semantic=8&num_scrambled_causal=4&num_scrambled_schematic=4&participantId=474F961C75AD433FBC592DCA8226F111&assignmentId=6cd95198-c14d-433a-9d1e-142c4d784950&projectId=9076ac92-be42-43a2-9634-8b67c7fe93a7","474F961C75AD433FBC592DCA8226F111-2025-05-22-19-28-44","","null","","[]","null","",""
"","","","","","image-button-response","113","750496","0.0-14.0-1.0-0.8","474F961C75AD433FBC592DCA8226F111","474F961C75AD433FBC592DCA8226F111","6cd95198-c14d-433a-9d1e-142c4d784950","9076ac92-be42-43a2-9634-8b67c7fe93a7","{""num_scrambled_semantic"":""8"",""num_scrambled_causal"":""4"",""num_scrambled_schematic"":""4"",""participantId"":""474F961C75AD433FBC592DCA8226F111"",""assignmentId"":""6cd95198-c14d-433a-9d1e-142c4d784950"",""projectId"":""9076ac92-be42-43a2-9634-8b67c7fe93a7""}","https://test12345.live/?num_scrambled_semantic=8&num_scrambled_causal=4&num_scrambled_schematic=4&participantId=474F961C75AD433FBC592DCA8226F111&assignmentId=6cd95198-c14d-433a-9d1e-142c4d784950&projectId=9076ac92-be42-43a2-9634-8b67c7fe93a7","474F961C75AD433FBC592DCA8226F111-2025-05-22-19-28-44","","null","","images/schematic_sequence/supermarket_scheme/supermarket_scheme_2.png","null","",""
"","","","","","image-button-response","114","751325","0.0-14.0-1.0-1.8","474F961C75AD433FBC592DCA8226F111","474F961C75AD433FBC592DCA8226F111","6cd95198-c14d-433a-9d1e-142c4d784950","9076ac92-be42-43a2-9634-8b67c7fe93a7","{""num_scrambled_semantic"":""8"",""num_scrambled_causal"":""4"",""num_scrambled_schematic"":""4"",""participantId"":""474F961C75AD433FBC592DCA8226F111"",""assignmentId"":""6cd95198-c14d-433a-9d1e-142c4d784950"",""projectId"":""9076ac92-be42-43a2-9634-8b67c7fe93a7""}","https://test12345.live/?num_scrambled_semantic=8&num_scrambled_causal=4&num_scrambled_schematic=4&participantId=474F961C75AD433FBC592DCA8226F111&assignmentId=6cd95198-c14d-433a-9d1e-142c4d784950&projectId=9076ac92-be42-43a2-9634-8b67c7fe93a7","474F961C75AD433FBC592DCA8226F111-2025-05-22-19-28-44","","828","","images/schematic_sequence/supermarket_scheme/supermarket_scheme_2.png","1","",""
