"success","timeout","failed_images","failed_audio","failed_video","trial_type","trial_index","time_elapsed","internal_node_id","subject","subject_id","study_id","session_id","urlvar","current_url","audio_id","view_history","rt","device_id","stimulus","response","estimated_stimulus_onset","seq_name"
"true","false","[]","[]","[]","preload","0","8995","0.0-0.0","4783D8BA54B34EA79EC251B465CF5FA0","4783D8BA54B34EA79EC251B465CF5FA0","ac3e8da4-e79d-4dbd-919e-7e2c9a5b48a9","051c06f1-75cc-4548-856d-4923ddaba0dc","{""num_scrambled_semantic"":""8"",""num_scrambled_causal"":""4"",""num_scrambled_schematic"":""4"",""participantId"":""4783D8BA54B34EA79EC251B465CF5FA0"",""assignmentId"":""ac3e8da4-e79d-4dbd-919e-7e2c9a5b48a9"",""projectId"":""051c06f1-75cc-4548-856d-4923ddaba0dc""}","https://test12345.live/?num_scrambled_semantic=8&num_scrambled_causal=4&num_scrambled_schematic=4&participantId=4783D8BA54B34EA79EC251B465CF5FA0&assignmentId=ac3e8da4-e79d-4dbd-919e-7e2c9a5b48a9&projectId=051c06f1-75cc-4548-856d-4923ddaba0dc","4783D8BA54B34EA79EC251B465CF5FA0-2025-05-15-18-56-49","","","","","","",""
"","","","","","instructions","1","50376","0.0-1.0","4783D8BA54B34EA79EC251B465CF5FA0","4783D8BA54B34EA79EC251B465CF5FA0","ac3e8da4-e79d-4dbd-919e-7e2c9a5b48a9","051c06f1-75cc-4548-856d-4923ddaba0dc","{""num_scrambled_semantic"":""8"",""num_scrambled_causal"":""4"",""num_scrambled_schematic"":""4"",""participantId"":""4783D8BA54B34EA79EC251B465CF5FA0"",""assignmentId"":""ac3e8da4-e79d-4dbd-919e-7e2c9a5b48a9"",""projectId"":""051c06f1-75cc-4548-856d-4923ddaba0dc""}","https://test12345.live/?num_scrambled_semantic=8&num_scrambled_causal=4&num_scrambled_schematic=4&participantId=4783D8BA54B34EA79EC251B465CF5FA0&assignmentId=ac3e8da4-e79d-4dbd-919e-7e2c9a5b48a9&projectId=051c06f1-75cc-4548-856d-4923ddaba0dc","4783D8BA54B34EA79EC251B465CF5FA0-2025-05-15-18-56-49","[{""page_index"":0,""viewing_time"":41379}]","41379","","","","",""
"","","","","","instructions","2","54743","0.0-2.0","4783D8BA54B34EA79EC251B465CF5FA0","4783D8BA54B34EA79EC251B465CF5FA0","ac3e8da4-e79d-4dbd-919e-7e2c9a5b48a9","051c06f1-75cc-4548-856d-4923ddaba0dc","{""num_scrambled_semantic"":""8"",""num_scrambled_causal"":""4"",""num_scrambled_schematic"":""4"",""participantId"":""4783D8BA54B34EA79EC251B465CF5FA0"",""assignmentId"":""ac3e8da4-e79d-4dbd-919e-7e2c9a5b48a9"",""projectId"":""051c06f1-75cc-4548-856d-4923ddaba0dc""}","https://test12345.live/?num_scrambled_semantic=8&num_scrambled_causal=4&num_scrambled_schematic=4&participantId=4783D8BA54B34EA79EC251B465CF5FA0&assignmentId=ac3e8da4-e79d-4dbd-919e-7e2c9a5b48a9&projectId=051c06f1-75cc-4548-856d-4923ddaba0dc","4783D8BA54B34EA79EC251B465CF5FA0-2025-05-15-18-56-49","[{""page_index"":0,""viewing_time"":4366}]","4366","","","","",""
"true","","","","","fullscreen","3","57221","0.0-3.0","4783D8BA54B34EA79EC251B465CF5FA0","4783D8BA54B34EA79EC251B465CF5FA0","ac3e8da4-e79d-4dbd-919e-7e2c9a5b48a9","051c06f1-75cc-4548-856d-4923ddaba0dc","{""num_scrambled_semantic"":""8"",""num_scrambled_causal"":""4"",""num_scrambled_schematic"":""4"",""participantId"":""4783D8BA54B34EA79EC251B465CF5FA0"",""assignmentId"":""ac3e8da4-e79d-4dbd-919e-7e2c9a5b48a9"",""projectId"":""051c06f1-75cc-4548-856d-4923ddaba0dc""}","https://test12345.live/?num_scrambled_semantic=8&num_scrambled_causal=4&num_scrambled_schematic=4&participantId=4783D8BA54B34EA79EC251B465CF5FA0&assignmentId=ac3e8da4-e79d-4dbd-919e-7e2c9a5b48a9&projectId=051c06f1-75cc-4548-856d-4923ddaba0dc","4783D8BA54B34EA79EC251B465CF5FA0-2025-05-15-18-56-49","","1468","","","","",""
"","","","","","initialize-microphone","4","62986","0.0-4.0-0.0","4783D8BA54B34EA79EC251B465CF5FA0","4783D8BA54B34EA79EC251B465CF5FA0","ac3e8da4-e79d-4dbd-919e-7e2c9a5b48a9","051c06f1-75cc-4548-856d-4923ddaba0dc","{""num_scrambled_semantic"":""8"",""num_scrambled_causal"":""4"",""num_scrambled_schematic"":""4"",""participantId"":""4783D8BA54B34EA79EC251B465CF5FA0"",""assignmentId"":""ac3e8da4-e79d-4dbd-919e-7e2c9a5b48a9"",""projectId"":""051c06f1-75cc-4548-856d-4923ddaba0dc""}","https://test12345.live/?num_scrambled_semantic=8&num_scrambled_causal=4&num_scrambled_schematic=4&participantId=4783D8BA54B34EA79EC251B465CF5FA0&assignmentId=ac3e8da4-e79d-4dbd-919e-7e2c9a5b48a9&projectId=051c06f1-75cc-4548-856d-4923ddaba0dc","4783D8BA54B34EA79EC251B465CF5FA0-2025-05-15-18-56-49","","","DcHWIiYJ71/ioxjQupduNnhTjJbphNe1peJG4RAn3UA=","","","",""
"","","","","","html-audio-response","5","82608","0.0-4.0-1.0","4783D8BA54B34EA79EC251B465CF5FA0","4783D8BA54B34EA79EC251B465CF5FA0","ac3e8da4-e79d-4dbd-919e-7e2c9a5b48a9","051c06f1-75cc-4548-856d-4923ddaba0dc","{""num_scrambled_semantic"":""8"",""num_scrambled_causal"":""4"",""num_scrambled_schematic"":""4"",""participantId"":""4783D8BA54B34EA79EC251B465CF5FA0"",""assignmentId"":""ac3e8da4-e79d-4dbd-919e-7e2c9a5b48a9"",""projectId"":""051c06f1-75cc-4548-856d-4923ddaba0dc""}","https://test12345.live/?num_scrambled_semantic=8&num_scrambled_causal=4&num_scrambled_schematic=4&participantId=4783D8BA54B34EA79EC251B465CF5FA0&assignmentId=ac3e8da4-e79d-4dbd-919e-7e2c9a5b48a9&projectId=051c06f1-75cc-4548-856d-4923ddaba0dc","4783D8BA54B34EA79EC251B465CF5FA0-2025-05-15-18-56-49","","3670","","<span style=""color: red; font-size: 24px""> NOW RECORDING</span>
        <p>Please test Microphone</p>","","7",""
"","","","","","html-button-response","6","84439","0.0-4.0-2.0","4783D8BA54B34EA79EC251B465CF5FA0","4783D8BA54B34EA79EC251B465CF5FA0","ac3e8da4-e79d-4dbd-919e-7e2c9a5b48a9","051c06f1-75cc-4548-856d-4923ddaba0dc","{""num_scrambled_semantic"":""8"",""num_scrambled_causal"":""4"",""num_scrambled_schematic"":""4"",""participantId"":""4783D8BA54B34EA79EC251B465CF5FA0"",""assignmentId"":""ac3e8da4-e79d-4dbd-919e-7e2c9a5b48a9"",""projectId"":""051c06f1-75cc-4548-856d-4923ddaba0dc""}","https://test12345.live/?num_scrambled_semantic=8&num_scrambled_causal=4&num_scrambled_schematic=4&participantId=4783D8BA54B34EA79EC251B465CF5FA0&assignmentId=ac3e8da4-e79d-4dbd-919e-7e2c9a5b48a9&projectId=051c06f1-75cc-4548-856d-4923ddaba0dc","4783D8BA54B34EA79EC251B465CF5FA0-2025-05-15-18-56-49","","1829","","<p style=""font-size:48px; color:red;"">Is Microphone OK?</p>","1","",""
"","","","","","instructions","7","94100","0.0-5.0","4783D8BA54B34EA79EC251B465CF5FA0","4783D8BA54B34EA79EC251B465CF5FA0","ac3e8da4-e79d-4dbd-919e-7e2c9a5b48a9","051c06f1-75cc-4548-856d-4923ddaba0dc","{""num_scrambled_semantic"":""8"",""num_scrambled_causal"":""4"",""num_scrambled_schematic"":""4"",""participantId"":""4783D8BA54B34EA79EC251B465CF5FA0"",""assignmentId"":""ac3e8da4-e79d-4dbd-919e-7e2c9a5b48a9"",""projectId"":""051c06f1-75cc-4548-856d-4923ddaba0dc""}","https://test12345.live/?num_scrambled_semantic=8&num_scrambled_causal=4&num_scrambled_schematic=4&participantId=4783D8BA54B34EA79EC251B465CF5FA0&assignmentId=ac3e8da4-e79d-4dbd-919e-7e2c9a5b48a9&projectId=051c06f1-75cc-4548-856d-4923ddaba0dc","4783D8BA54B34EA79EC251B465CF5FA0-2025-05-15-18-56-49","[{""page_index"":0,""viewing_time"":5172},{""page_index"":1,""viewing_time"":4488}]","9660","","","","",""
"","","","","","image-button-response","8","100125","0.0-6.0-0.0","4783D8BA54B34EA79EC251B465CF5FA0","4783D8BA54B34EA79EC251B465CF5FA0","ac3e8da4-e79d-4dbd-919e-7e2c9a5b48a9","051c06f1-75cc-4548-856d-4923ddaba0dc","{""num_scrambled_semantic"":""8"",""num_scrambled_causal"":""4"",""num_scrambled_schematic"":""4"",""participantId"":""4783D8BA54B34EA79EC251B465CF5FA0"",""assignmentId"":""ac3e8da4-e79d-4dbd-919e-7e2c9a5b48a9"",""projectId"":""051c06f1-75cc-4548-856d-4923ddaba0dc""}","https://test12345.live/?num_scrambled_semantic=8&num_scrambled_causal=4&num_scrambled_schematic=4&participantId=4783D8BA54B34EA79EC251B465CF5FA0&assignmentId=ac3e8da4-e79d-4dbd-919e-7e2c9a5b48a9&projectId=051c06f1-75cc-4548-856d-4923ddaba0dc","4783D8BA54B34EA79EC251B465CF5FA0-2025-05-15-18-56-49","","null","","images/instructions/movie_0.png","null","",""
"","","","","","image-button-response","9","104650","0.0-6.0-1.0-0.0","4783D8BA54B34EA79EC251B465CF5FA0","4783D8BA54B34EA79EC251B465CF5FA0","ac3e8da4-e79d-4dbd-919e-7e2c9a5b48a9","051c06f1-75cc-4548-856d-4923ddaba0dc","{""num_scrambled_semantic"":""8"",""num_scrambled_causal"":""4"",""num_scrambled_schematic"":""4"",""participantId"":""4783D8BA54B34EA79EC251B465CF5FA0"",""assignmentId"":""ac3e8da4-e79d-4dbd-919e-7e2c9a5b48a9"",""projectId"":""051c06f1-75cc-4548-856d-4923ddaba0dc""}","https://test12345.live/?num_scrambled_semantic=8&num_scrambled_causal=4&num_scrambled_schematic=4&participantId=4783D8BA54B34EA79EC251B465CF5FA0&assignmentId=ac3e8da4-e79d-4dbd-919e-7e2c9a5b48a9&projectId=051c06f1-75cc-4548-856d-4923ddaba0dc","4783D8BA54B34EA79EC251B465CF5FA0-2025-05-15-18-56-49","","null","","images/instructions/movie_1.png","null","",""
"","","","","","image-button-response","10","108614","0.0-6.0-1.0-1.0","4783D8BA54B34EA79EC251B465CF5FA0","4783D8BA54B34EA79EC251B465CF5FA0","ac3e8da4-e79d-4dbd-919e-7e2c9a5b48a9","051c06f1-75cc-4548-856d-4923ddaba0dc","{""num_scrambled_semantic"":""8"",""num_scrambled_causal"":""4"",""num_scrambled_schematic"":""4"",""participantId"":""4783D8BA54B34EA79EC251B465CF5FA0"",""assignmentId"":""ac3e8da4-e79d-4dbd-919e-7e2c9a5b48a9"",""projectId"":""051c06f1-75cc-4548-856d-4923ddaba0dc""}","https://test12345.live/?num_scrambled_semantic=8&num_scrambled_causal=4&num_scrambled_schematic=4&participantId=4783D8BA54B34EA79EC251B465CF5FA0&assignmentId=ac3e8da4-e79d-4dbd-919e-7e2c9a5b48a9&projectId=051c06f1-75cc-4548-856d-4923ddaba0dc","4783D8BA54B34EA79EC251B465CF5FA0-2025-05-15-18-56-49","","3961","","images/instructions/movie_1.png","0","",""
"","","","","","image-button-response","11","110436","0.0-6.0-1.0-2.0","4783D8BA54B34EA79EC251B465CF5FA0","4783D8BA54B34EA79EC251B465CF5FA0","ac3e8da4-e79d-4dbd-919e-7e2c9a5b48a9","051c06f1-75cc-4548-856d-4923ddaba0dc","{""num_scrambled_semantic"":""8"",""num_scrambled_causal"":""4"",""num_scrambled_schematic"":""4"",""participantId"":""4783D8BA54B34EA79EC251B465CF5FA0"",""assignmentId"":""ac3e8da4-e79d-4dbd-919e-7e2c9a5b48a9"",""projectId"":""051c06f1-75cc-4548-856d-4923ddaba0dc""}","https://test12345.live/?num_scrambled_semantic=8&num_scrambled_causal=4&num_scrambled_schematic=4&participantId=4783D8BA54B34EA79EC251B465CF5FA0&assignmentId=ac3e8da4-e79d-4dbd-919e-7e2c9a5b48a9&projectId=051c06f1-75cc-4548-856d-4923ddaba0dc","4783D8BA54B34EA79EC251B465CF5FA0-2025-05-15-18-56-49","","null","","[]","null","",""
"","","","","","image-button-response","12","114957","0.0-6.0-1.0-0.1","4783D8BA54B34EA79EC251B465CF5FA0","4783D8BA54B34EA79EC251B465CF5FA0","ac3e8da4-e79d-4dbd-919e-7e2c9a5b48a9","051c06f1-75cc-4548-856d-4923ddaba0dc","{""num_scrambled_semantic"":""8"",""num_scrambled_causal"":""4"",""num_scrambled_schematic"":""4"",""participantId"":""4783D8BA54B34EA79EC251B465CF5FA0"",""assignmentId"":""ac3e8da4-e79d-4dbd-919e-7e2c9a5b48a9"",""projectId"":""051c06f1-75cc-4548-856d-4923ddaba0dc""}","https://test12345.live/?num_scrambled_semantic=8&num_scrambled_causal=4&num_scrambled_schematic=4&participantId=4783D8BA54B34EA79EC251B465CF5FA0&assignmentId=ac3e8da4-e79d-4dbd-919e-7e2c9a5b48a9&projectId=051c06f1-75cc-4548-856d-4923ddaba0dc","4783D8BA54B34EA79EC251B465CF5FA0-2025-05-15-18-56-49","","null","","images/instructions/movie_2.png","null","",""
"","","","","","image-button-response","13","115904","0.0-6.0-1.0-1.1","4783D8BA54B34EA79EC251B465CF5FA0","4783D8BA54B34EA79EC251B465CF5FA0","ac3e8da4-e79d-4dbd-919e-7e2c9a5b48a9","051c06f1-75cc-4548-856d-4923ddaba0dc","{""num_scrambled_semantic"":""8"",""num_scrambled_causal"":""4"",""num_scrambled_schematic"":""4"",""participantId"":""4783D8BA54B34EA79EC251B465CF5FA0"",""assignmentId"":""ac3e8da4-e79d-4dbd-919e-7e2c9a5b48a9"",""projectId"":""051c06f1-75cc-4548-856d-4923ddaba0dc""}","https://test12345.live/?num_scrambled_semantic=8&num_scrambled_causal=4&num_scrambled_schematic=4&participantId=4783D8BA54B34EA79EC251B465CF5FA0&assignmentId=ac3e8da4-e79d-4dbd-919e-7e2c9a5b48a9&projectId=051c06f1-75cc-4548-856d-4923ddaba0dc","4783D8BA54B34EA79EC251B465CF5FA0-2025-05-15-18-56-49","","946","","images/instructions/movie_2.png","1","",""
"","","","","","image-button-response","14","117912","0.0-6.0-1.0-2.1","4783D8BA54B34EA79EC251B465CF5FA0","4783D8BA54B34EA79EC251B465CF5FA0","ac3e8da4-e79d-4dbd-919e-7e2c9a5b48a9","051c06f1-75cc-4548-856d-4923ddaba0dc","{""num_scrambled_semantic"":""8"",""num_scrambled_causal"":""4"",""num_scrambled_schematic"":""4"",""participantId"":""4783D8BA54B34EA79EC251B465CF5FA0"",""assignmentId"":""ac3e8da4-e79d-4dbd-919e-7e2c9a5b48a9"",""projectId"":""051c06f1-75cc-4548-856d-4923ddaba0dc""}","https://test12345.live/?num_scrambled_semantic=8&num_scrambled_causal=4&num_scrambled_schematic=4&participantId=4783D8BA54B34EA79EC251B465CF5FA0&assignmentId=ac3e8da4-e79d-4dbd-919e-7e2c9a5b48a9&projectId=051c06f1-75cc-4548-856d-4923ddaba0dc","4783D8BA54B34EA79EC251B465CF5FA0-2025-05-15-18-56-49","","null","","[]","null","",""
"","","","","","image-button-response","15","122916","0.0-6.0-1.0-0.2","4783D8BA54B34EA79EC251B465CF5FA0","4783D8BA54B34EA79EC251B465CF5FA0","ac3e8da4-e79d-4dbd-919e-7e2c9a5b48a9","051c06f1-75cc-4548-856d-4923ddaba0dc","{""num_scrambled_semantic"":""8"",""num_scrambled_causal"":""4"",""num_scrambled_schematic"":""4"",""participantId"":""4783D8BA54B34EA79EC251B465CF5FA0"",""assignmentId"":""ac3e8da4-e79d-4dbd-919e-7e2c9a5b48a9"",""projectId"":""051c06f1-75cc-4548-856d-4923ddaba0dc""}","https://test12345.live/?num_scrambled_semantic=8&num_scrambled_causal=4&num_scrambled_schematic=4&participantId=4783D8BA54B34EA79EC251B465CF5FA0&assignmentId=ac3e8da4-e79d-4dbd-919e-7e2c9a5b48a9&projectId=051c06f1-75cc-4548-856d-4923ddaba0dc","4783D8BA54B34EA79EC251B465CF5FA0-2025-05-15-18-56-49","","null","","images/instructions/movie_3.png","null","",""
"","","","","","image-button-response","16","124121","0.0-6.0-1.0-1.2","4783D8BA54B34EA79EC251B465CF5FA0","4783D8BA54B34EA79EC251B465CF5FA0","ac3e8da4-e79d-4dbd-919e-7e2c9a5b48a9","051c06f1-75cc-4548-856d-4923ddaba0dc","{""num_scrambled_semantic"":""8"",""num_scrambled_causal"":""4"",""num_scrambled_schematic"":""4"",""participantId"":""4783D8BA54B34EA79EC251B465CF5FA0"",""assignmentId"":""ac3e8da4-e79d-4dbd-919e-7e2c9a5b48a9"",""projectId"":""051c06f1-75cc-4548-856d-4923ddaba0dc""}","https://test12345.live/?num_scrambled_semantic=8&num_scrambled_causal=4&num_scrambled_schematic=4&participantId=4783D8BA54B34EA79EC251B465CF5FA0&assignmentId=ac3e8da4-e79d-4dbd-919e-7e2c9a5b48a9&projectId=051c06f1-75cc-4548-856d-4923ddaba0dc","4783D8BA54B34EA79EC251B465CF5FA0-2025-05-15-18-56-49","","1204","","images/instructions/movie_3.png","0","",""
"","","","","","image-button-response","17","125924","0.0-6.0-1.0-2.2","4783D8BA54B34EA79EC251B465CF5FA0","4783D8BA54B34EA79EC251B465CF5FA0","ac3e8da4-e79d-4dbd-919e-7e2c9a5b48a9","051c06f1-75cc-4548-856d-4923ddaba0dc","{""num_scrambled_semantic"":""8"",""num_scrambled_causal"":""4"",""num_scrambled_schematic"":""4"",""participantId"":""4783D8BA54B34EA79EC251B465CF5FA0"",""assignmentId"":""ac3e8da4-e79d-4dbd-919e-7e2c9a5b48a9"",""projectId"":""051c06f1-75cc-4548-856d-4923ddaba0dc""}","https://test12345.live/?num_scrambled_semantic=8&num_scrambled_causal=4&num_scrambled_schematic=4&participantId=4783D8BA54B34EA79EC251B465CF5FA0&assignmentId=ac3e8da4-e79d-4dbd-919e-7e2c9a5b48a9&projectId=051c06f1-75cc-4548-856d-4923ddaba0dc","4783D8BA54B34EA79EC251B465CF5FA0-2025-05-15-18-56-49","","null","","[]","null","",""
"","","","","","image-button-response","18","130449","0.0-6.0-1.0-0.3","4783D8BA54B34EA79EC251B465CF5FA0","4783D8BA54B34EA79EC251B465CF5FA0","ac3e8da4-e79d-4dbd-919e-7e2c9a5b48a9","051c06f1-75cc-4548-856d-4923ddaba0dc","{""num_scrambled_semantic"":""8"",""num_scrambled_causal"":""4"",""num_scrambled_schematic"":""4"",""participantId"":""4783D8BA54B34EA79EC251B465CF5FA0"",""assignmentId"":""ac3e8da4-e79d-4dbd-919e-7e2c9a5b48a9"",""projectId"":""051c06f1-75cc-4548-856d-4923ddaba0dc""}","https://test12345.live/?num_scrambled_semantic=8&num_scrambled_causal=4&num_scrambled_schematic=4&participantId=4783D8BA54B34EA79EC251B465CF5FA0&assignmentId=ac3e8da4-e79d-4dbd-919e-7e2c9a5b48a9&projectId=051c06f1-75cc-4548-856d-4923ddaba0dc","4783D8BA54B34EA79EC251B465CF5FA0-2025-05-15-18-56-49","","null","","images/instructions/movie_4.png","null","",""
"","","","","","image-button-response","19","131023","0.0-6.0-1.0-1.3","4783D8BA54B34EA79EC251B465CF5FA0","4783D8BA54B34EA79EC251B465CF5FA0","ac3e8da4-e79d-4dbd-919e-7e2c9a5b48a9","051c06f1-75cc-4548-856d-4923ddaba0dc","{""num_scrambled_semantic"":""8"",""num_scrambled_causal"":""4"",""num_scrambled_schematic"":""4"",""participantId"":""4783D8BA54B34EA79EC251B465CF5FA0"",""assignmentId"":""ac3e8da4-e79d-4dbd-919e-7e2c9a5b48a9"",""projectId"":""051c06f1-75cc-4548-856d-4923ddaba0dc""}","https://test12345.live/?num_scrambled_semantic=8&num_scrambled_causal=4&num_scrambled_schematic=4&participantId=4783D8BA54B34EA79EC251B465CF5FA0&assignmentId=ac3e8da4-e79d-4dbd-919e-7e2c9a5b48a9&projectId=051c06f1-75cc-4548-856d-4923ddaba0dc","4783D8BA54B34EA79EC251B465CF5FA0-2025-05-15-18-56-49","","573","","images/instructions/movie_4.png","0","",""
"","","","","","image-button-response","20","133035","0.0-6.0-1.0-2.3","4783D8BA54B34EA79EC251B465CF5FA0","4783D8BA54B34EA79EC251B465CF5FA0","ac3e8da4-e79d-4dbd-919e-7e2c9a5b48a9","051c06f1-75cc-4548-856d-4923ddaba0dc","{""num_scrambled_semantic"":""8"",""num_scrambled_causal"":""4"",""num_scrambled_schematic"":""4"",""participantId"":""4783D8BA54B34EA79EC251B465CF5FA0"",""assignmentId"":""ac3e8da4-e79d-4dbd-919e-7e2c9a5b48a9"",""projectId"":""051c06f1-75cc-4548-856d-4923ddaba0dc""}","https://test12345.live/?num_scrambled_semantic=8&num_scrambled_causal=4&num_scrambled_schematic=4&participantId=4783D8BA54B34EA79EC251B465CF5FA0&assignmentId=ac3e8da4-e79d-4dbd-919e-7e2c9a5b48a9&projectId=051c06f1-75cc-4548-856d-4923ddaba0dc","4783D8BA54B34EA79EC251B465CF5FA0-2025-05-15-18-56-49","","null","","[]","null","",""
"","","","","","instructions","21","142736","0.0-7.0","4783D8BA54B34EA79EC251B465CF5FA0","4783D8BA54B34EA79EC251B465CF5FA0","ac3e8da4-e79d-4dbd-919e-7e2c9a5b48a9","051c06f1-75cc-4548-856d-4923ddaba0dc","{""num_scrambled_semantic"":""8"",""num_scrambled_causal"":""4"",""num_scrambled_schematic"":""4"",""participantId"":""4783D8BA54B34EA79EC251B465CF5FA0"",""assignmentId"":""ac3e8da4-e79d-4dbd-919e-7e2c9a5b48a9"",""projectId"":""051c06f1-75cc-4548-856d-4923ddaba0dc""}","https://test12345.live/?num_scrambled_semantic=8&num_scrambled_causal=4&num_scrambled_schematic=4&participantId=4783D8BA54B34EA79EC251B465CF5FA0&assignmentId=ac3e8da4-e79d-4dbd-919e-7e2c9a5b48a9&projectId=051c06f1-75cc-4548-856d-4923ddaba0dc","4783D8BA54B34EA79EC251B465CF5FA0-2025-05-15-18-56-49","[{""page_index"":0,""viewing_time"":8325},{""page_index"":1,""viewing_time"":1376}]","9701","","","","",""
"","","","","","html-audio-response","22","155632","0.0-8.0","4783D8BA54B34EA79EC251B465CF5FA0","4783D8BA54B34EA79EC251B465CF5FA0","ac3e8da4-e79d-4dbd-919e-7e2c9a5b48a9","051c06f1-75cc-4548-856d-4923ddaba0dc","{""num_scrambled_semantic"":""8"",""num_scrambled_causal"":""4"",""num_scrambled_schematic"":""4"",""participantId"":""4783D8BA54B34EA79EC251B465CF5FA0"",""assignmentId"":""ac3e8da4-e79d-4dbd-919e-7e2c9a5b48a9"",""projectId"":""051c06f1-75cc-4548-856d-4923ddaba0dc""}","https://test12345.live/?num_scrambled_semantic=8&num_scrambled_causal=4&num_scrambled_schematic=4&participantId=4783D8BA54B34EA79EC251B465CF5FA0&assignmentId=ac3e8da4-e79d-4dbd-919e-7e2c9a5b48a9&projectId=051c06f1-75cc-4548-856d-4923ddaba0dc","4783D8BA54B34EA79EC251B465CF5FA0-2025-05-15-18-56-49","","4117","","[""<span style=\""color: red; font-size: 24px\""> NOW RECORDING</span><p>Please say out loud all the images you saw, as many as you can remember. The images can be said in any order.</p>""]","","1",""
"","","","","","instructions","23","156856","0.0-9.0","4783D8BA54B34EA79EC251B465CF5FA0","4783D8BA54B34EA79EC251B465CF5FA0","ac3e8da4-e79d-4dbd-919e-7e2c9a5b48a9","051c06f1-75cc-4548-856d-4923ddaba0dc","{""num_scrambled_semantic"":""8"",""num_scrambled_causal"":""4"",""num_scrambled_schematic"":""4"",""participantId"":""4783D8BA54B34EA79EC251B465CF5FA0"",""assignmentId"":""ac3e8da4-e79d-4dbd-919e-7e2c9a5b48a9"",""projectId"":""051c06f1-75cc-4548-856d-4923ddaba0dc""}","https://test12345.live/?num_scrambled_semantic=8&num_scrambled_causal=4&num_scrambled_schematic=4&participantId=4783D8BA54B34EA79EC251B465CF5FA0&assignmentId=ac3e8da4-e79d-4dbd-919e-7e2c9a5b48a9&projectId=051c06f1-75cc-4548-856d-4923ddaba0dc","4783D8BA54B34EA79EC251B465CF5FA0-2025-05-15-18-56-49","[{""page_index"":0,""viewing_time"":1221}]","1221","","","","",""
"","","","","","image-button-response","24","162958","0.0-10.0-0.0","4783D8BA54B34EA79EC251B465CF5FA0","4783D8BA54B34EA79EC251B465CF5FA0","ac3e8da4-e79d-4dbd-919e-7e2c9a5b48a9","051c06f1-75cc-4548-856d-4923ddaba0dc","{""num_scrambled_semantic"":""8"",""num_scrambled_causal"":""4"",""num_scrambled_schematic"":""4"",""participantId"":""4783D8BA54B34EA79EC251B465CF5FA0"",""assignmentId"":""ac3e8da4-e79d-4dbd-919e-7e2c9a5b48a9"",""projectId"":""051c06f1-75cc-4548-856d-4923ddaba0dc""}","https://test12345.live/?num_scrambled_semantic=8&num_scrambled_causal=4&num_scrambled_schematic=4&participantId=4783D8BA54B34EA79EC251B465CF5FA0&assignmentId=ac3e8da4-e79d-4dbd-919e-7e2c9a5b48a9&projectId=051c06f1-75cc-4548-856d-4923ddaba0dc","4783D8BA54B34EA79EC251B465CF5FA0-2025-05-15-18-56-49","","null","","images/semantic_sequence/self_care_activities_semantic/self_care_activities_semantic_0.png","null","",""
"","","","","","image-button-response","25","167738","0.0-10.0-1.0-0.0","4783D8BA54B34EA79EC251B465CF5FA0","4783D8BA54B34EA79EC251B465CF5FA0","ac3e8da4-e79d-4dbd-919e-7e2c9a5b48a9","051c06f1-75cc-4548-856d-4923ddaba0dc","{""num_scrambled_semantic"":""8"",""num_scrambled_causal"":""4"",""num_scrambled_schematic"":""4"",""participantId"":""4783D8BA54B34EA79EC251B465CF5FA0"",""assignmentId"":""ac3e8da4-e79d-4dbd-919e-7e2c9a5b48a9"",""projectId"":""051c06f1-75cc-4548-856d-4923ddaba0dc""}","https://test12345.live/?num_scrambled_semantic=8&num_scrambled_causal=4&num_scrambled_schematic=4&participantId=4783D8BA54B34EA79EC251B465CF5FA0&assignmentId=ac3e8da4-e79d-4dbd-919e-7e2c9a5b48a9&projectId=051c06f1-75cc-4548-856d-4923ddaba0dc","4783D8BA54B34EA79EC251B465CF5FA0-2025-05-15-18-56-49","","null","","images/semantic_sequence/self_care_activities_semantic/self_care_activities_semantic_5.png","null","",""
"","","","","","image-button-response","26","168592","0.0-10.0-1.0-1.0","4783D8BA54B34EA79EC251B465CF5FA0","4783D8BA54B34EA79EC251B465CF5FA0","ac3e8da4-e79d-4dbd-919e-7e2c9a5b48a9","051c06f1-75cc-4548-856d-4923ddaba0dc","{""num_scrambled_semantic"":""8"",""num_scrambled_causal"":""4"",""num_scrambled_schematic"":""4"",""participantId"":""4783D8BA54B34EA79EC251B465CF5FA0"",""assignmentId"":""ac3e8da4-e79d-4dbd-919e-7e2c9a5b48a9"",""projectId"":""051c06f1-75cc-4548-856d-4923ddaba0dc""}","https://test12345.live/?num_scrambled_semantic=8&num_scrambled_causal=4&num_scrambled_schematic=4&participantId=4783D8BA54B34EA79EC251B465CF5FA0&assignmentId=ac3e8da4-e79d-4dbd-919e-7e2c9a5b48a9&projectId=051c06f1-75cc-4548-856d-4923ddaba0dc","4783D8BA54B34EA79EC251B465CF5FA0-2025-05-15-18-56-49","","853","","images/semantic_sequence/self_care_activities_semantic/self_care_activities_semantic_5.png","0","",""
"","","","","","image-button-response","27","170598","0.0-10.0-1.0-2.0","4783D8BA54B34EA79EC251B465CF5FA0","4783D8BA54B34EA79EC251B465CF5FA0","ac3e8da4-e79d-4dbd-919e-7e2c9a5b48a9","051c06f1-75cc-4548-856d-4923ddaba0dc","{""num_scrambled_semantic"":""8"",""num_scrambled_causal"":""4"",""num_scrambled_schematic"":""4"",""participantId"":""4783D8BA54B34EA79EC251B465CF5FA0"",""assignmentId"":""ac3e8da4-e79d-4dbd-919e-7e2c9a5b48a9"",""projectId"":""051c06f1-75cc-4548-856d-4923ddaba0dc""}","https://test12345.live/?num_scrambled_semantic=8&num_scrambled_causal=4&num_scrambled_schematic=4&participantId=4783D8BA54B34EA79EC251B465CF5FA0&assignmentId=ac3e8da4-e79d-4dbd-919e-7e2c9a5b48a9&projectId=051c06f1-75cc-4548-856d-4923ddaba0dc","4783D8BA54B34EA79EC251B465CF5FA0-2025-05-15-18-56-49","","null","","[]","null","",""
"","","","","","image-button-response","28","175522","0.0-10.0-1.0-0.1","4783D8BA54B34EA79EC251B465CF5FA0","4783D8BA54B34EA79EC251B465CF5FA0","ac3e8da4-e79d-4dbd-919e-7e2c9a5b48a9","051c06f1-75cc-4548-856d-4923ddaba0dc","{""num_scrambled_semantic"":""8"",""num_scrambled_causal"":""4"",""num_scrambled_schematic"":""4"",""participantId"":""4783D8BA54B34EA79EC251B465CF5FA0"",""assignmentId"":""ac3e8da4-e79d-4dbd-919e-7e2c9a5b48a9"",""projectId"":""051c06f1-75cc-4548-856d-4923ddaba0dc""}","https://test12345.live/?num_scrambled_semantic=8&num_scrambled_causal=4&num_scrambled_schematic=4&participantId=4783D8BA54B34EA79EC251B465CF5FA0&assignmentId=ac3e8da4-e79d-4dbd-919e-7e2c9a5b48a9&projectId=051c06f1-75cc-4548-856d-4923ddaba0dc","4783D8BA54B34EA79EC251B465CF5FA0-2025-05-15-18-56-49","","null","","images/semantic_sequence/self_care_activities_semantic/self_care_activities_semantic_3.png","null","",""
"","","","","","image-button-response","29","176390","0.0-10.0-1.0-1.1","4783D8BA54B34EA79EC251B465CF5FA0","4783D8BA54B34EA79EC251B465CF5FA0","ac3e8da4-e79d-4dbd-919e-7e2c9a5b48a9","051c06f1-75cc-4548-856d-4923ddaba0dc","{""num_scrambled_semantic"":""8"",""num_scrambled_causal"":""4"",""num_scrambled_schematic"":""4"",""participantId"":""4783D8BA54B34EA79EC251B465CF5FA0"",""assignmentId"":""ac3e8da4-e79d-4dbd-919e-7e2c9a5b48a9"",""projectId"":""051c06f1-75cc-4548-856d-4923ddaba0dc""}","https://test12345.live/?num_scrambled_semantic=8&num_scrambled_causal=4&num_scrambled_schematic=4&participantId=4783D8BA54B34EA79EC251B465CF5FA0&assignmentId=ac3e8da4-e79d-4dbd-919e-7e2c9a5b48a9&projectId=051c06f1-75cc-4548-856d-4923ddaba0dc","4783D8BA54B34EA79EC251B465CF5FA0-2025-05-15-18-56-49","","867","","images/semantic_sequence/self_care_activities_semantic/self_care_activities_semantic_3.png","0","",""
"","","","","","image-button-response","30","178393","0.0-10.0-1.0-2.1","4783D8BA54B34EA79EC251B465CF5FA0","4783D8BA54B34EA79EC251B465CF5FA0","ac3e8da4-e79d-4dbd-919e-7e2c9a5b48a9","051c06f1-75cc-4548-856d-4923ddaba0dc","{""num_scrambled_semantic"":""8"",""num_scrambled_causal"":""4"",""num_scrambled_schematic"":""4"",""participantId"":""4783D8BA54B34EA79EC251B465CF5FA0"",""assignmentId"":""ac3e8da4-e79d-4dbd-919e-7e2c9a5b48a9"",""projectId"":""051c06f1-75cc-4548-856d-4923ddaba0dc""}","https://test12345.live/?num_scrambled_semantic=8&num_scrambled_causal=4&num_scrambled_schematic=4&participantId=4783D8BA54B34EA79EC251B465CF5FA0&assignmentId=ac3e8da4-e79d-4dbd-919e-7e2c9a5b48a9&projectId=051c06f1-75cc-4548-856d-4923ddaba0dc","4783D8BA54B34EA79EC251B465CF5FA0-2025-05-15-18-56-49","","null","","[]","null","",""
"","","","","","image-button-response","31","182913","0.0-10.0-1.0-0.2","4783D8BA54B34EA79EC251B465CF5FA0","4783D8BA54B34EA79EC251B465CF5FA0","ac3e8da4-e79d-4dbd-919e-7e2c9a5b48a9","051c06f1-75cc-4548-856d-4923ddaba0dc","{""num_scrambled_semantic"":""8"",""num_scrambled_causal"":""4"",""num_scrambled_schematic"":""4"",""participantId"":""4783D8BA54B34EA79EC251B465CF5FA0"",""assignmentId"":""ac3e8da4-e79d-4dbd-919e-7e2c9a5b48a9"",""projectId"":""051c06f1-75cc-4548-856d-4923ddaba0dc""}","https://test12345.live/?num_scrambled_semantic=8&num_scrambled_causal=4&num_scrambled_schematic=4&participantId=4783D8BA54B34EA79EC251B465CF5FA0&assignmentId=ac3e8da4-e79d-4dbd-919e-7e2c9a5b48a9&projectId=051c06f1-75cc-4548-856d-4923ddaba0dc","4783D8BA54B34EA79EC251B465CF5FA0-2025-05-15-18-56-49","","null","","images/semantic_sequence/self_care_activities_semantic/self_care_activities_semantic_7.png","null","",""
"","","","","","image-button-response","32","183586","0.0-10.0-1.0-1.2","4783D8BA54B34EA79EC251B465CF5FA0","4783D8BA54B34EA79EC251B465CF5FA0","ac3e8da4-e79d-4dbd-919e-7e2c9a5b48a9","051c06f1-75cc-4548-856d-4923ddaba0dc","{""num_scrambled_semantic"":""8"",""num_scrambled_causal"":""4"",""num_scrambled_schematic"":""4"",""participantId"":""4783D8BA54B34EA79EC251B465CF5FA0"",""assignmentId"":""ac3e8da4-e79d-4dbd-919e-7e2c9a5b48a9"",""projectId"":""051c06f1-75cc-4548-856d-4923ddaba0dc""}","https://test12345.live/?num_scrambled_semantic=8&num_scrambled_causal=4&num_scrambled_schematic=4&participantId=4783D8BA54B34EA79EC251B465CF5FA0&assignmentId=ac3e8da4-e79d-4dbd-919e-7e2c9a5b48a9&projectId=051c06f1-75cc-4548-856d-4923ddaba0dc","4783D8BA54B34EA79EC251B465CF5FA0-2025-05-15-18-56-49","","672","","images/semantic_sequence/self_care_activities_semantic/self_care_activities_semantic_7.png","0","",""
"","","","","","image-button-response","33","185594","0.0-10.0-1.0-2.2","4783D8BA54B34EA79EC251B465CF5FA0","4783D8BA54B34EA79EC251B465CF5FA0","ac3e8da4-e79d-4dbd-919e-7e2c9a5b48a9","051c06f1-75cc-4548-856d-4923ddaba0dc","{""num_scrambled_semantic"":""8"",""num_scrambled_causal"":""4"",""num_scrambled_schematic"":""4"",""participantId"":""4783D8BA54B34EA79EC251B465CF5FA0"",""assignmentId"":""ac3e8da4-e79d-4dbd-919e-7e2c9a5b48a9"",""projectId"":""051c06f1-75cc-4548-856d-4923ddaba0dc""}","https://test12345.live/?num_scrambled_semantic=8&num_scrambled_causal=4&num_scrambled_schematic=4&participantId=4783D8BA54B34EA79EC251B465CF5FA0&assignmentId=ac3e8da4-e79d-4dbd-919e-7e2c9a5b48a9&projectId=051c06f1-75cc-4548-856d-4923ddaba0dc","4783D8BA54B34EA79EC251B465CF5FA0-2025-05-15-18-56-49","","null","","[]","null","",""
"","","","","","image-button-response","34","190114","0.0-10.0-1.0-0.3","4783D8BA54B34EA79EC251B465CF5FA0","4783D8BA54B34EA79EC251B465CF5FA0","ac3e8da4-e79d-4dbd-919e-7e2c9a5b48a9","051c06f1-75cc-4548-856d-4923ddaba0dc","{""num_scrambled_semantic"":""8"",""num_scrambled_causal"":""4"",""num_scrambled_schematic"":""4"",""participantId"":""4783D8BA54B34EA79EC251B465CF5FA0"",""assignmentId"":""ac3e8da4-e79d-4dbd-919e-7e2c9a5b48a9"",""projectId"":""051c06f1-75cc-4548-856d-4923ddaba0dc""}","https://test12345.live/?num_scrambled_semantic=8&num_scrambled_causal=4&num_scrambled_schematic=4&participantId=4783D8BA54B34EA79EC251B465CF5FA0&assignmentId=ac3e8da4-e79d-4dbd-919e-7e2c9a5b48a9&projectId=051c06f1-75cc-4548-856d-4923ddaba0dc","4783D8BA54B34EA79EC251B465CF5FA0-2025-05-15-18-56-49","","null","","images/semantic_sequence/self_care_activities_semantic/self_care_activities_semantic_2.png","null","",""
"","","","","","image-button-response","35","190866","0.0-10.0-1.0-1.3","4783D8BA54B34EA79EC251B465CF5FA0","4783D8BA54B34EA79EC251B465CF5FA0","ac3e8da4-e79d-4dbd-919e-7e2c9a5b48a9","051c06f1-75cc-4548-856d-4923ddaba0dc","{""num_scrambled_semantic"":""8"",""num_scrambled_causal"":""4"",""num_scrambled_schematic"":""4"",""participantId"":""4783D8BA54B34EA79EC251B465CF5FA0"",""assignmentId"":""ac3e8da4-e79d-4dbd-919e-7e2c9a5b48a9"",""projectId"":""051c06f1-75cc-4548-856d-4923ddaba0dc""}","https://test12345.live/?num_scrambled_semantic=8&num_scrambled_causal=4&num_scrambled_schematic=4&participantId=4783D8BA54B34EA79EC251B465CF5FA0&assignmentId=ac3e8da4-e79d-4dbd-919e-7e2c9a5b48a9&projectId=051c06f1-75cc-4548-856d-4923ddaba0dc","4783D8BA54B34EA79EC251B465CF5FA0-2025-05-15-18-56-49","","752","","images/semantic_sequence/self_care_activities_semantic/self_care_activities_semantic_2.png","0","",""
"","","","","","image-button-response","36","192874","0.0-10.0-1.0-2.3","4783D8BA54B34EA79EC251B465CF5FA0","4783D8BA54B34EA79EC251B465CF5FA0","ac3e8da4-e79d-4dbd-919e-7e2c9a5b48a9","051c06f1-75cc-4548-856d-4923ddaba0dc","{""num_scrambled_semantic"":""8"",""num_scrambled_causal"":""4"",""num_scrambled_schematic"":""4"",""participantId"":""4783D8BA54B34EA79EC251B465CF5FA0"",""assignmentId"":""ac3e8da4-e79d-4dbd-919e-7e2c9a5b48a9"",""projectId"":""051c06f1-75cc-4548-856d-4923ddaba0dc""}","https://test12345.live/?num_scrambled_semantic=8&num_scrambled_causal=4&num_scrambled_schematic=4&participantId=4783D8BA54B34EA79EC251B465CF5FA0&assignmentId=ac3e8da4-e79d-4dbd-919e-7e2c9a5b48a9&projectId=051c06f1-75cc-4548-856d-4923ddaba0dc","4783D8BA54B34EA79EC251B465CF5FA0-2025-05-15-18-56-49","","null","","[]","null","",""
"","","","","","image-button-response","37","197396","0.0-10.0-1.0-0.4","4783D8BA54B34EA79EC251B465CF5FA0","4783D8BA54B34EA79EC251B465CF5FA0","ac3e8da4-e79d-4dbd-919e-7e2c9a5b48a9","051c06f1-75cc-4548-856d-4923ddaba0dc","{""num_scrambled_semantic"":""8"",""num_scrambled_causal"":""4"",""num_scrambled_schematic"":""4"",""participantId"":""4783D8BA54B34EA79EC251B465CF5FA0"",""assignmentId"":""ac3e8da4-e79d-4dbd-919e-7e2c9a5b48a9"",""projectId"":""051c06f1-75cc-4548-856d-4923ddaba0dc""}","https://test12345.live/?num_scrambled_semantic=8&num_scrambled_causal=4&num_scrambled_schematic=4&participantId=4783D8BA54B34EA79EC251B465CF5FA0&assignmentId=ac3e8da4-e79d-4dbd-919e-7e2c9a5b48a9&projectId=051c06f1-75cc-4548-856d-4923ddaba0dc","4783D8BA54B34EA79EC251B465CF5FA0-2025-05-15-18-56-49","","null","","images/semantic_sequence/self_care_activities_semantic/self_care_activities_semantic_1.png","null","",""
"","","","","","image-button-response","38","198001","0.0-10.0-1.0-1.4","4783D8BA54B34EA79EC251B465CF5FA0","4783D8BA54B34EA79EC251B465CF5FA0","ac3e8da4-e79d-4dbd-919e-7e2c9a5b48a9","051c06f1-75cc-4548-856d-4923ddaba0dc","{""num_scrambled_semantic"":""8"",""num_scrambled_causal"":""4"",""num_scrambled_schematic"":""4"",""participantId"":""4783D8BA54B34EA79EC251B465CF5FA0"",""assignmentId"":""ac3e8da4-e79d-4dbd-919e-7e2c9a5b48a9"",""projectId"":""051c06f1-75cc-4548-856d-4923ddaba0dc""}","https://test12345.live/?num_scrambled_semantic=8&num_scrambled_causal=4&num_scrambled_schematic=4&participantId=4783D8BA54B34EA79EC251B465CF5FA0&assignmentId=ac3e8da4-e79d-4dbd-919e-7e2c9a5b48a9&projectId=051c06f1-75cc-4548-856d-4923ddaba0dc","4783D8BA54B34EA79EC251B465CF5FA0-2025-05-15-18-56-49","","604","","images/semantic_sequence/self_care_activities_semantic/self_care_activities_semantic_1.png","0","",""
"","","","","","image-button-response","39","200008","0.0-10.0-1.0-2.4","4783D8BA54B34EA79EC251B465CF5FA0","4783D8BA54B34EA79EC251B465CF5FA0","ac3e8da4-e79d-4dbd-919e-7e2c9a5b48a9","051c06f1-75cc-4548-856d-4923ddaba0dc","{""num_scrambled_semantic"":""8"",""num_scrambled_causal"":""4"",""num_scrambled_schematic"":""4"",""participantId"":""4783D8BA54B34EA79EC251B465CF5FA0"",""assignmentId"":""ac3e8da4-e79d-4dbd-919e-7e2c9a5b48a9"",""projectId"":""051c06f1-75cc-4548-856d-4923ddaba0dc""}","https://test12345.live/?num_scrambled_semantic=8&num_scrambled_causal=4&num_scrambled_schematic=4&participantId=4783D8BA54B34EA79EC251B465CF5FA0&assignmentId=ac3e8da4-e79d-4dbd-919e-7e2c9a5b48a9&projectId=051c06f1-75cc-4548-856d-4923ddaba0dc","4783D8BA54B34EA79EC251B465CF5FA0-2025-05-15-18-56-49","","null","","[]","null","",""
"","","","","","image-button-response","40","204530","0.0-10.0-1.0-0.5","4783D8BA54B34EA79EC251B465CF5FA0","4783D8BA54B34EA79EC251B465CF5FA0","ac3e8da4-e79d-4dbd-919e-7e2c9a5b48a9","051c06f1-75cc-4548-856d-4923ddaba0dc","{""num_scrambled_semantic"":""8"",""num_scrambled_causal"":""4"",""num_scrambled_schematic"":""4"",""participantId"":""4783D8BA54B34EA79EC251B465CF5FA0"",""assignmentId"":""ac3e8da4-e79d-4dbd-919e-7e2c9a5b48a9"",""projectId"":""051c06f1-75cc-4548-856d-4923ddaba0dc""}","https://test12345.live/?num_scrambled_semantic=8&num_scrambled_causal=4&num_scrambled_schematic=4&participantId=4783D8BA54B34EA79EC251B465CF5FA0&assignmentId=ac3e8da4-e79d-4dbd-919e-7e2c9a5b48a9&projectId=051c06f1-75cc-4548-856d-4923ddaba0dc","4783D8BA54B34EA79EC251B465CF5FA0-2025-05-15-18-56-49","","null","","images/semantic_sequence/self_care_activities_semantic/self_care_activities_semantic_6.png","null","",""
"","","","","","image-button-response","41","205076","0.0-10.0-1.0-1.5","4783D8BA54B34EA79EC251B465CF5FA0","4783D8BA54B34EA79EC251B465CF5FA0","ac3e8da4-e79d-4dbd-919e-7e2c9a5b48a9","051c06f1-75cc-4548-856d-4923ddaba0dc","{""num_scrambled_semantic"":""8"",""num_scrambled_causal"":""4"",""num_scrambled_schematic"":""4"",""participantId"":""4783D8BA54B34EA79EC251B465CF5FA0"",""assignmentId"":""ac3e8da4-e79d-4dbd-919e-7e2c9a5b48a9"",""projectId"":""051c06f1-75cc-4548-856d-4923ddaba0dc""}","https://test12345.live/?num_scrambled_semantic=8&num_scrambled_causal=4&num_scrambled_schematic=4&participantId=4783D8BA54B34EA79EC251B465CF5FA0&assignmentId=ac3e8da4-e79d-4dbd-919e-7e2c9a5b48a9&projectId=051c06f1-75cc-4548-856d-4923ddaba0dc","4783D8BA54B34EA79EC251B465CF5FA0-2025-05-15-18-56-49","","546","","images/semantic_sequence/self_care_activities_semantic/self_care_activities_semantic_6.png","1","",""
"","","","","","image-button-response","42","207084","0.0-10.0-1.0-2.5","4783D8BA54B34EA79EC251B465CF5FA0","4783D8BA54B34EA79EC251B465CF5FA0","ac3e8da4-e79d-4dbd-919e-7e2c9a5b48a9","051c06f1-75cc-4548-856d-4923ddaba0dc","{""num_scrambled_semantic"":""8"",""num_scrambled_causal"":""4"",""num_scrambled_schematic"":""4"",""participantId"":""4783D8BA54B34EA79EC251B465CF5FA0"",""assignmentId"":""ac3e8da4-e79d-4dbd-919e-7e2c9a5b48a9"",""projectId"":""051c06f1-75cc-4548-856d-4923ddaba0dc""}","https://test12345.live/?num_scrambled_semantic=8&num_scrambled_causal=4&num_scrambled_schematic=4&participantId=4783D8BA54B34EA79EC251B465CF5FA0&assignmentId=ac3e8da4-e79d-4dbd-919e-7e2c9a5b48a9&projectId=051c06f1-75cc-4548-856d-4923ddaba0dc","4783D8BA54B34EA79EC251B465CF5FA0-2025-05-15-18-56-49","","null","","[]","null","",""
"","","","","","image-button-response","43","211607","0.0-10.0-1.0-0.6","4783D8BA54B34EA79EC251B465CF5FA0","4783D8BA54B34EA79EC251B465CF5FA0","ac3e8da4-e79d-4dbd-919e-7e2c9a5b48a9","051c06f1-75cc-4548-856d-4923ddaba0dc","{""num_scrambled_semantic"":""8"",""num_scrambled_causal"":""4"",""num_scrambled_schematic"":""4"",""participantId"":""4783D8BA54B34EA79EC251B465CF5FA0"",""assignmentId"":""ac3e8da4-e79d-4dbd-919e-7e2c9a5b48a9"",""projectId"":""051c06f1-75cc-4548-856d-4923ddaba0dc""}","https://test12345.live/?num_scrambled_semantic=8&num_scrambled_causal=4&num_scrambled_schematic=4&participantId=4783D8BA54B34EA79EC251B465CF5FA0&assignmentId=ac3e8da4-e79d-4dbd-919e-7e2c9a5b48a9&projectId=051c06f1-75cc-4548-856d-4923ddaba0dc","4783D8BA54B34EA79EC251B465CF5FA0-2025-05-15-18-56-49","","null","","images/semantic_sequence/self_care_activities_semantic/self_care_activities_semantic_9.png","null","",""
"","","","","","image-button-response","44","213652","0.0-10.0-1.0-1.6","4783D8BA54B34EA79EC251B465CF5FA0","4783D8BA54B34EA79EC251B465CF5FA0","ac3e8da4-e79d-4dbd-919e-7e2c9a5b48a9","051c06f1-75cc-4548-856d-4923ddaba0dc","{""num_scrambled_semantic"":""8"",""num_scrambled_causal"":""4"",""num_scrambled_schematic"":""4"",""participantId"":""4783D8BA54B34EA79EC251B465CF5FA0"",""assignmentId"":""ac3e8da4-e79d-4dbd-919e-7e2c9a5b48a9"",""projectId"":""051c06f1-75cc-4548-856d-4923ddaba0dc""}","https://test12345.live/?num_scrambled_semantic=8&num_scrambled_causal=4&num_scrambled_schematic=4&participantId=4783D8BA54B34EA79EC251B465CF5FA0&assignmentId=ac3e8da4-e79d-4dbd-919e-7e2c9a5b48a9&projectId=051c06f1-75cc-4548-856d-4923ddaba0dc","4783D8BA54B34EA79EC251B465CF5FA0-2025-05-15-18-56-49","","2044","","images/semantic_sequence/self_care_activities_semantic/self_care_activities_semantic_9.png","0","",""
"","","","","","image-button-response","45","215650","0.0-10.0-1.0-2.6","4783D8BA54B34EA79EC251B465CF5FA0","4783D8BA54B34EA79EC251B465CF5FA0","ac3e8da4-e79d-4dbd-919e-7e2c9a5b48a9","051c06f1-75cc-4548-856d-4923ddaba0dc","{""num_scrambled_semantic"":""8"",""num_scrambled_causal"":""4"",""num_scrambled_schematic"":""4"",""participantId"":""4783D8BA54B34EA79EC251B465CF5FA0"",""assignmentId"":""ac3e8da4-e79d-4dbd-919e-7e2c9a5b48a9"",""projectId"":""051c06f1-75cc-4548-856d-4923ddaba0dc""}","https://test12345.live/?num_scrambled_semantic=8&num_scrambled_causal=4&num_scrambled_schematic=4&participantId=4783D8BA54B34EA79EC251B465CF5FA0&assignmentId=ac3e8da4-e79d-4dbd-919e-7e2c9a5b48a9&projectId=051c06f1-75cc-4548-856d-4923ddaba0dc","4783D8BA54B34EA79EC251B465CF5FA0-2025-05-15-18-56-49","","null","","[]","null","",""
"","","","","","image-button-response","46","220565","0.0-10.0-1.0-0.7","4783D8BA54B34EA79EC251B465CF5FA0","4783D8BA54B34EA79EC251B465CF5FA0","ac3e8da4-e79d-4dbd-919e-7e2c9a5b48a9","051c06f1-75cc-4548-856d-4923ddaba0dc","{""num_scrambled_semantic"":""8"",""num_scrambled_causal"":""4"",""num_scrambled_schematic"":""4"",""participantId"":""4783D8BA54B34EA79EC251B465CF5FA0"",""assignmentId"":""ac3e8da4-e79d-4dbd-919e-7e2c9a5b48a9"",""projectId"":""051c06f1-75cc-4548-856d-4923ddaba0dc""}","https://test12345.live/?num_scrambled_semantic=8&num_scrambled_causal=4&num_scrambled_schematic=4&participantId=4783D8BA54B34EA79EC251B465CF5FA0&assignmentId=ac3e8da4-e79d-4dbd-919e-7e2c9a5b48a9&projectId=051c06f1-75cc-4548-856d-4923ddaba0dc","4783D8BA54B34EA79EC251B465CF5FA0-2025-05-15-18-56-49","","null","","images/semantic_sequence/self_care_activities_semantic/self_care_activities_semantic_4.png","null","",""
"","","","","","image-button-response","47","221819","0.0-10.0-1.0-1.7","4783D8BA54B34EA79EC251B465CF5FA0","4783D8BA54B34EA79EC251B465CF5FA0","ac3e8da4-e79d-4dbd-919e-7e2c9a5b48a9","051c06f1-75cc-4548-856d-4923ddaba0dc","{""num_scrambled_semantic"":""8"",""num_scrambled_causal"":""4"",""num_scrambled_schematic"":""4"",""participantId"":""4783D8BA54B34EA79EC251B465CF5FA0"",""assignmentId"":""ac3e8da4-e79d-4dbd-919e-7e2c9a5b48a9"",""projectId"":""051c06f1-75cc-4548-856d-4923ddaba0dc""}","https://test12345.live/?num_scrambled_semantic=8&num_scrambled_causal=4&num_scrambled_schematic=4&participantId=4783D8BA54B34EA79EC251B465CF5FA0&assignmentId=ac3e8da4-e79d-4dbd-919e-7e2c9a5b48a9&projectId=051c06f1-75cc-4548-856d-4923ddaba0dc","4783D8BA54B34EA79EC251B465CF5FA0-2025-05-15-18-56-49","","1253","","images/semantic_sequence/self_care_activities_semantic/self_care_activities_semantic_4.png","0","",""
"","","","","","image-button-response","48","223693","0.0-10.0-1.0-2.7","4783D8BA54B34EA79EC251B465CF5FA0","4783D8BA54B34EA79EC251B465CF5FA0","ac3e8da4-e79d-4dbd-919e-7e2c9a5b48a9","051c06f1-75cc-4548-856d-4923ddaba0dc","{""num_scrambled_semantic"":""8"",""num_scrambled_causal"":""4"",""num_scrambled_schematic"":""4"",""participantId"":""4783D8BA54B34EA79EC251B465CF5FA0"",""assignmentId"":""ac3e8da4-e79d-4dbd-919e-7e2c9a5b48a9"",""projectId"":""051c06f1-75cc-4548-856d-4923ddaba0dc""}","https://test12345.live/?num_scrambled_semantic=8&num_scrambled_causal=4&num_scrambled_schematic=4&participantId=4783D8BA54B34EA79EC251B465CF5FA0&assignmentId=ac3e8da4-e79d-4dbd-919e-7e2c9a5b48a9&projectId=051c06f1-75cc-4548-856d-4923ddaba0dc","4783D8BA54B34EA79EC251B465CF5FA0-2025-05-15-18-56-49","","null","","[]","null","",""
"","","","","","image-button-response","49","228216","0.0-10.0-1.0-0.8","4783D8BA54B34EA79EC251B465CF5FA0","4783D8BA54B34EA79EC251B465CF5FA0","ac3e8da4-e79d-4dbd-919e-7e2c9a5b48a9","051c06f1-75cc-4548-856d-4923ddaba0dc","{""num_scrambled_semantic"":""8"",""num_scrambled_causal"":""4"",""num_scrambled_schematic"":""4"",""participantId"":""4783D8BA54B34EA79EC251B465CF5FA0"",""assignmentId"":""ac3e8da4-e79d-4dbd-919e-7e2c9a5b48a9"",""projectId"":""051c06f1-75cc-4548-856d-4923ddaba0dc""}","https://test12345.live/?num_scrambled_semantic=8&num_scrambled_causal=4&num_scrambled_schematic=4&participantId=4783D8BA54B34EA79EC251B465CF5FA0&assignmentId=ac3e8da4-e79d-4dbd-919e-7e2c9a5b48a9&projectId=051c06f1-75cc-4548-856d-4923ddaba0dc","4783D8BA54B34EA79EC251B465CF5FA0-2025-05-15-18-56-49","","null","","images/semantic_sequence/self_care_activities_semantic/self_care_activities_semantic_8.png","null","",""
"","","","","","image-button-response","50","228816","0.0-10.0-1.0-1.8","4783D8BA54B34EA79EC251B465CF5FA0","4783D8BA54B34EA79EC251B465CF5FA0","ac3e8da4-e79d-4dbd-919e-7e2c9a5b48a9","051c06f1-75cc-4548-856d-4923ddaba0dc","{""num_scrambled_semantic"":""8"",""num_scrambled_causal"":""4"",""num_scrambled_schematic"":""4"",""participantId"":""4783D8BA54B34EA79EC251B465CF5FA0"",""assignmentId"":""ac3e8da4-e79d-4dbd-919e-7e2c9a5b48a9"",""projectId"":""051c06f1-75cc-4548-856d-4923ddaba0dc""}","https://test12345.live/?num_scrambled_semantic=8&num_scrambled_causal=4&num_scrambled_schematic=4&participantId=4783D8BA54B34EA79EC251B465CF5FA0&assignmentId=ac3e8da4-e79d-4dbd-919e-7e2c9a5b48a9&projectId=051c06f1-75cc-4548-856d-4923ddaba0dc","4783D8BA54B34EA79EC251B465CF5FA0-2025-05-15-18-56-49","","599","","images/semantic_sequence/self_care_activities_semantic/self_care_activities_semantic_8.png","0","",""
"","","","","","image-button-response","51","230822","0.0-10.0-1.0-2.8","4783D8BA54B34EA79EC251B465CF5FA0","4783D8BA54B34EA79EC251B465CF5FA0","ac3e8da4-e79d-4dbd-919e-7e2c9a5b48a9","051c06f1-75cc-4548-856d-4923ddaba0dc","{""num_scrambled_semantic"":""8"",""num_scrambled_causal"":""4"",""num_scrambled_schematic"":""4"",""participantId"":""4783D8BA54B34EA79EC251B465CF5FA0"",""assignmentId"":""ac3e8da4-e79d-4dbd-919e-7e2c9a5b48a9"",""projectId"":""051c06f1-75cc-4548-856d-4923ddaba0dc""}","https://test12345.live/?num_scrambled_semantic=8&num_scrambled_causal=4&num_scrambled_schematic=4&participantId=4783D8BA54B34EA79EC251B465CF5FA0&assignmentId=ac3e8da4-e79d-4dbd-919e-7e2c9a5b48a9&projectId=051c06f1-75cc-4548-856d-4923ddaba0dc","4783D8BA54B34EA79EC251B465CF5FA0-2025-05-15-18-56-49","","null","","[]","null","",""
"","","","","","image-button-response","52","235745","0.0-10.0-1.0-0.9","4783D8BA54B34EA79EC251B465CF5FA0","4783D8BA54B34EA79EC251B465CF5FA0","ac3e8da4-e79d-4dbd-919e-7e2c9a5b48a9","051c06f1-75cc-4548-856d-4923ddaba0dc","{""num_scrambled_semantic"":""8"",""num_scrambled_causal"":""4"",""num_scrambled_schematic"":""4"",""participantId"":""4783D8BA54B34EA79EC251B465CF5FA0"",""assignmentId"":""ac3e8da4-e79d-4dbd-919e-7e2c9a5b48a9"",""projectId"":""051c06f1-75cc-4548-856d-4923ddaba0dc""}","https://test12345.live/?num_scrambled_semantic=8&num_scrambled_causal=4&num_scrambled_schematic=4&participantId=4783D8BA54B34EA79EC251B465CF5FA0&assignmentId=ac3e8da4-e79d-4dbd-919e-7e2c9a5b48a9&projectId=051c06f1-75cc-4548-856d-4923ddaba0dc","4783D8BA54B34EA79EC251B465CF5FA0-2025-05-15-18-56-49","","null","","images/semantic_sequence/self_care_activities_semantic/self_care_activities_semantic_ten.png","null","",""
"","","","","","image-button-response","53","237720","0.0-10.0-1.0-1.9","4783D8BA54B34EA79EC251B465CF5FA0","4783D8BA54B34EA79EC251B465CF5FA0","ac3e8da4-e79d-4dbd-919e-7e2c9a5b48a9","051c06f1-75cc-4548-856d-4923ddaba0dc","{""num_scrambled_semantic"":""8"",""num_scrambled_causal"":""4"",""num_scrambled_schematic"":""4"",""participantId"":""4783D8BA54B34EA79EC251B465CF5FA0"",""assignmentId"":""ac3e8da4-e79d-4dbd-919e-7e2c9a5b48a9"",""projectId"":""051c06f1-75cc-4548-856d-4923ddaba0dc""}","https://test12345.live/?num_scrambled_semantic=8&num_scrambled_causal=4&num_scrambled_schematic=4&participantId=4783D8BA54B34EA79EC251B465CF5FA0&assignmentId=ac3e8da4-e79d-4dbd-919e-7e2c9a5b48a9&projectId=051c06f1-75cc-4548-856d-4923ddaba0dc","4783D8BA54B34EA79EC251B465CF5FA0-2025-05-15-18-56-49","","1974","","images/semantic_sequence/self_care_activities_semantic/self_care_activities_semantic_ten.png","0","",""
"","","","","","image-button-response","54","239521","0.0-10.0-1.0-2.9","4783D8BA54B34EA79EC251B465CF5FA0","4783D8BA54B34EA79EC251B465CF5FA0","ac3e8da4-e79d-4dbd-919e-7e2c9a5b48a9","051c06f1-75cc-4548-856d-4923ddaba0dc","{""num_scrambled_semantic"":""8"",""num_scrambled_causal"":""4"",""num_scrambled_schematic"":""4"",""participantId"":""4783D8BA54B34EA79EC251B465CF5FA0"",""assignmentId"":""ac3e8da4-e79d-4dbd-919e-7e2c9a5b48a9"",""projectId"":""051c06f1-75cc-4548-856d-4923ddaba0dc""}","https://test12345.live/?num_scrambled_semantic=8&num_scrambled_causal=4&num_scrambled_schematic=4&participantId=4783D8BA54B34EA79EC251B465CF5FA0&assignmentId=ac3e8da4-e79d-4dbd-919e-7e2c9a5b48a9&projectId=051c06f1-75cc-4548-856d-4923ddaba0dc","4783D8BA54B34EA79EC251B465CF5FA0-2025-05-15-18-56-49","","null","","[]","null","",""
"","","","","","html-audio-response","55","247544","0.0-11.0","4783D8BA54B34EA79EC251B465CF5FA0","4783D8BA54B34EA79EC251B465CF5FA0","ac3e8da4-e79d-4dbd-919e-7e2c9a5b48a9","051c06f1-75cc-4548-856d-4923ddaba0dc","{""num_scrambled_semantic"":""8"",""num_scrambled_causal"":""4"",""num_scrambled_schematic"":""4"",""participantId"":""4783D8BA54B34EA79EC251B465CF5FA0"",""assignmentId"":""ac3e8da4-e79d-4dbd-919e-7e2c9a5b48a9"",""projectId"":""051c06f1-75cc-4548-856d-4923ddaba0dc""}","https://test12345.live/?num_scrambled_semantic=8&num_scrambled_causal=4&num_scrambled_schematic=4&participantId=4783D8BA54B34EA79EC251B465CF5FA0&assignmentId=ac3e8da4-e79d-4dbd-919e-7e2c9a5b48a9&projectId=051c06f1-75cc-4548-856d-4923ddaba0dc","4783D8BA54B34EA79EC251B465CF5FA0-2025-05-15-18-56-49","","5921","","[""<span style=\""color: red; font-size: 24px\""> NOW RECORDING</span><p>Please say out loud all the images you saw, as many as you can remember. The images can be said in any order.</p>""]","","7","self_care_activities_semantic"
"","","","","","image-button-response","56","253567","0.0-12.0-0.0","4783D8BA54B34EA79EC251B465CF5FA0","4783D8BA54B34EA79EC251B465CF5FA0","ac3e8da4-e79d-4dbd-919e-7e2c9a5b48a9","051c06f1-75cc-4548-856d-4923ddaba0dc","{""num_scrambled_semantic"":""8"",""num_scrambled_causal"":""4"",""num_scrambled_schematic"":""4"",""participantId"":""4783D8BA54B34EA79EC251B465CF5FA0"",""assignmentId"":""ac3e8da4-e79d-4dbd-919e-7e2c9a5b48a9"",""projectId"":""051c06f1-75cc-4548-856d-4923ddaba0dc""}","https://test12345.live/?num_scrambled_semantic=8&num_scrambled_causal=4&num_scrambled_schematic=4&participantId=4783D8BA54B34EA79EC251B465CF5FA0&assignmentId=ac3e8da4-e79d-4dbd-919e-7e2c9a5b48a9&projectId=051c06f1-75cc-4548-856d-4923ddaba0dc","4783D8BA54B34EA79EC251B465CF5FA0-2025-05-15-18-56-49","","null","","images/causal_sequence/dog_causal/dog_causal_0.png","null","",""
"","","","","","image-button-response","57","258272","0.0-12.0-1.0-0.0","4783D8BA54B34EA79EC251B465CF5FA0","4783D8BA54B34EA79EC251B465CF5FA0","ac3e8da4-e79d-4dbd-919e-7e2c9a5b48a9","051c06f1-75cc-4548-856d-4923ddaba0dc","{""num_scrambled_semantic"":""8"",""num_scrambled_causal"":""4"",""num_scrambled_schematic"":""4"",""participantId"":""4783D8BA54B34EA79EC251B465CF5FA0"",""assignmentId"":""ac3e8da4-e79d-4dbd-919e-7e2c9a5b48a9"",""projectId"":""051c06f1-75cc-4548-856d-4923ddaba0dc""}","https://test12345.live/?num_scrambled_semantic=8&num_scrambled_causal=4&num_scrambled_schematic=4&participantId=4783D8BA54B34EA79EC251B465CF5FA0&assignmentId=ac3e8da4-e79d-4dbd-919e-7e2c9a5b48a9&projectId=051c06f1-75cc-4548-856d-4923ddaba0dc","4783D8BA54B34EA79EC251B465CF5FA0-2025-05-15-18-56-49","","null","","images/causal_sequence/dog_causal/dog_causal_1.png","null","",""
"","","","","","image-button-response","58","259050","0.0-12.0-1.0-1.0","4783D8BA54B34EA79EC251B465CF5FA0","4783D8BA54B34EA79EC251B465CF5FA0","ac3e8da4-e79d-4dbd-919e-7e2c9a5b48a9","051c06f1-75cc-4548-856d-4923ddaba0dc","{""num_scrambled_semantic"":""8"",""num_scrambled_causal"":""4"",""num_scrambled_schematic"":""4"",""participantId"":""4783D8BA54B34EA79EC251B465CF5FA0"",""assignmentId"":""ac3e8da4-e79d-4dbd-919e-7e2c9a5b48a9"",""projectId"":""051c06f1-75cc-4548-856d-4923ddaba0dc""}","https://test12345.live/?num_scrambled_semantic=8&num_scrambled_causal=4&num_scrambled_schematic=4&participantId=4783D8BA54B34EA79EC251B465CF5FA0&assignmentId=ac3e8da4-e79d-4dbd-919e-7e2c9a5b48a9&projectId=051c06f1-75cc-4548-856d-4923ddaba0dc","4783D8BA54B34EA79EC251B465CF5FA0-2025-05-15-18-56-49","","777","","images/causal_sequence/dog_causal/dog_causal_1.png","0","",""
"","","","","","image-button-response","59","261055","0.0-12.0-1.0-2.0","4783D8BA54B34EA79EC251B465CF5FA0","4783D8BA54B34EA79EC251B465CF5FA0","ac3e8da4-e79d-4dbd-919e-7e2c9a5b48a9","051c06f1-75cc-4548-856d-4923ddaba0dc","{""num_scrambled_semantic"":""8"",""num_scrambled_causal"":""4"",""num_scrambled_schematic"":""4"",""participantId"":""4783D8BA54B34EA79EC251B465CF5FA0"",""assignmentId"":""ac3e8da4-e79d-4dbd-919e-7e2c9a5b48a9"",""projectId"":""051c06f1-75cc-4548-856d-4923ddaba0dc""}","https://test12345.live/?num_scrambled_semantic=8&num_scrambled_causal=4&num_scrambled_schematic=4&participantId=4783D8BA54B34EA79EC251B465CF5FA0&assignmentId=ac3e8da4-e79d-4dbd-919e-7e2c9a5b48a9&projectId=051c06f1-75cc-4548-856d-4923ddaba0dc","4783D8BA54B34EA79EC251B465CF5FA0-2025-05-15-18-56-49","","null","","[]","null","",""
"","","","","","image-button-response","60","265990","0.0-12.0-1.0-0.1","4783D8BA54B34EA79EC251B465CF5FA0","4783D8BA54B34EA79EC251B465CF5FA0","ac3e8da4-e79d-4dbd-919e-7e2c9a5b48a9","051c06f1-75cc-4548-856d-4923ddaba0dc","{""num_scrambled_semantic"":""8"",""num_scrambled_causal"":""4"",""num_scrambled_schematic"":""4"",""participantId"":""4783D8BA54B34EA79EC251B465CF5FA0"",""assignmentId"":""ac3e8da4-e79d-4dbd-919e-7e2c9a5b48a9"",""projectId"":""051c06f1-75cc-4548-856d-4923ddaba0dc""}","https://test12345.live/?num_scrambled_semantic=8&num_scrambled_causal=4&num_scrambled_schematic=4&participantId=4783D8BA54B34EA79EC251B465CF5FA0&assignmentId=ac3e8da4-e79d-4dbd-919e-7e2c9a5b48a9&projectId=051c06f1-75cc-4548-856d-4923ddaba0dc","4783D8BA54B34EA79EC251B465CF5FA0-2025-05-15-18-56-49","","null","","images/causal_sequence/dog_causal/dog_causal_2.png","null","",""
"","","","","","image-button-response","61","267048","0.0-12.0-1.0-1.1","4783D8BA54B34EA79EC251B465CF5FA0","4783D8BA54B34EA79EC251B465CF5FA0","ac3e8da4-e79d-4dbd-919e-7e2c9a5b48a9","051c06f1-75cc-4548-856d-4923ddaba0dc","{""num_scrambled_semantic"":""8"",""num_scrambled_causal"":""4"",""num_scrambled_schematic"":""4"",""participantId"":""4783D8BA54B34EA79EC251B465CF5FA0"",""assignmentId"":""ac3e8da4-e79d-4dbd-919e-7e2c9a5b48a9"",""projectId"":""051c06f1-75cc-4548-856d-4923ddaba0dc""}","https://test12345.live/?num_scrambled_semantic=8&num_scrambled_causal=4&num_scrambled_schematic=4&participantId=4783D8BA54B34EA79EC251B465CF5FA0&assignmentId=ac3e8da4-e79d-4dbd-919e-7e2c9a5b48a9&projectId=051c06f1-75cc-4548-856d-4923ddaba0dc","4783D8BA54B34EA79EC251B465CF5FA0-2025-05-15-18-56-49","","1057","","images/causal_sequence/dog_causal/dog_causal_2.png","0","",""
"","","","","","image-button-response","62","269024","0.0-12.0-1.0-2.1","4783D8BA54B34EA79EC251B465CF5FA0","4783D8BA54B34EA79EC251B465CF5FA0","ac3e8da4-e79d-4dbd-919e-7e2c9a5b48a9","051c06f1-75cc-4548-856d-4923ddaba0dc","{""num_scrambled_semantic"":""8"",""num_scrambled_causal"":""4"",""num_scrambled_schematic"":""4"",""participantId"":""4783D8BA54B34EA79EC251B465CF5FA0"",""assignmentId"":""ac3e8da4-e79d-4dbd-919e-7e2c9a5b48a9"",""projectId"":""051c06f1-75cc-4548-856d-4923ddaba0dc""}","https://test12345.live/?num_scrambled_semantic=8&num_scrambled_causal=4&num_scrambled_schematic=4&participantId=4783D8BA54B34EA79EC251B465CF5FA0&assignmentId=ac3e8da4-e79d-4dbd-919e-7e2c9a5b48a9&projectId=051c06f1-75cc-4548-856d-4923ddaba0dc","4783D8BA54B34EA79EC251B465CF5FA0-2025-05-15-18-56-49","","null","","[]","null","",""
"","","","","","image-button-response","63","273548","0.0-12.0-1.0-0.2","4783D8BA54B34EA79EC251B465CF5FA0","4783D8BA54B34EA79EC251B465CF5FA0","ac3e8da4-e79d-4dbd-919e-7e2c9a5b48a9","051c06f1-75cc-4548-856d-4923ddaba0dc","{""num_scrambled_semantic"":""8"",""num_scrambled_causal"":""4"",""num_scrambled_schematic"":""4"",""participantId"":""4783D8BA54B34EA79EC251B465CF5FA0"",""assignmentId"":""ac3e8da4-e79d-4dbd-919e-7e2c9a5b48a9"",""projectId"":""051c06f1-75cc-4548-856d-4923ddaba0dc""}","https://test12345.live/?num_scrambled_semantic=8&num_scrambled_causal=4&num_scrambled_schematic=4&participantId=4783D8BA54B34EA79EC251B465CF5FA0&assignmentId=ac3e8da4-e79d-4dbd-919e-7e2c9a5b48a9&projectId=051c06f1-75cc-4548-856d-4923ddaba0dc","4783D8BA54B34EA79EC251B465CF5FA0-2025-05-15-18-56-49","","null","","images/causal_sequence/dog_causal/dog_causal_3.png","null","",""
"","","","","","image-button-response","64","274219","0.0-12.0-1.0-1.2","4783D8BA54B34EA79EC251B465CF5FA0","4783D8BA54B34EA79EC251B465CF5FA0","ac3e8da4-e79d-4dbd-919e-7e2c9a5b48a9","051c06f1-75cc-4548-856d-4923ddaba0dc","{""num_scrambled_semantic"":""8"",""num_scrambled_causal"":""4"",""num_scrambled_schematic"":""4"",""participantId"":""4783D8BA54B34EA79EC251B465CF5FA0"",""assignmentId"":""ac3e8da4-e79d-4dbd-919e-7e2c9a5b48a9"",""projectId"":""051c06f1-75cc-4548-856d-4923ddaba0dc""}","https://test12345.live/?num_scrambled_semantic=8&num_scrambled_causal=4&num_scrambled_schematic=4&participantId=4783D8BA54B34EA79EC251B465CF5FA0&assignmentId=ac3e8da4-e79d-4dbd-919e-7e2c9a5b48a9&projectId=051c06f1-75cc-4548-856d-4923ddaba0dc","4783D8BA54B34EA79EC251B465CF5FA0-2025-05-15-18-56-49","","672","","images/causal_sequence/dog_causal/dog_causal_3.png","0","",""
"","","","","","image-button-response","65","276230","0.0-12.0-1.0-2.2","4783D8BA54B34EA79EC251B465CF5FA0","4783D8BA54B34EA79EC251B465CF5FA0","ac3e8da4-e79d-4dbd-919e-7e2c9a5b48a9","051c06f1-75cc-4548-856d-4923ddaba0dc","{""num_scrambled_semantic"":""8"",""num_scrambled_causal"":""4"",""num_scrambled_schematic"":""4"",""participantId"":""4783D8BA54B34EA79EC251B465CF5FA0"",""assignmentId"":""ac3e8da4-e79d-4dbd-919e-7e2c9a5b48a9"",""projectId"":""051c06f1-75cc-4548-856d-4923ddaba0dc""}","https://test12345.live/?num_scrambled_semantic=8&num_scrambled_causal=4&num_scrambled_schematic=4&participantId=4783D8BA54B34EA79EC251B465CF5FA0&assignmentId=ac3e8da4-e79d-4dbd-919e-7e2c9a5b48a9&projectId=051c06f1-75cc-4548-856d-4923ddaba0dc","4783D8BA54B34EA79EC251B465CF5FA0-2025-05-15-18-56-49","","null","","[]","null","",""
"","","","","","image-button-response","66","281136","0.0-12.0-1.0-0.3","4783D8BA54B34EA79EC251B465CF5FA0","4783D8BA54B34EA79EC251B465CF5FA0","ac3e8da4-e79d-4dbd-919e-7e2c9a5b48a9","051c06f1-75cc-4548-856d-4923ddaba0dc","{""num_scrambled_semantic"":""8"",""num_scrambled_causal"":""4"",""num_scrambled_schematic"":""4"",""participantId"":""4783D8BA54B34EA79EC251B465CF5FA0"",""assignmentId"":""ac3e8da4-e79d-4dbd-919e-7e2c9a5b48a9"",""projectId"":""051c06f1-75cc-4548-856d-4923ddaba0dc""}","https://test12345.live/?num_scrambled_semantic=8&num_scrambled_causal=4&num_scrambled_schematic=4&participantId=4783D8BA54B34EA79EC251B465CF5FA0&assignmentId=ac3e8da4-e79d-4dbd-919e-7e2c9a5b48a9&projectId=051c06f1-75cc-4548-856d-4923ddaba0dc","4783D8BA54B34EA79EC251B465CF5FA0-2025-05-15-18-56-49","","null","","images/causal_sequence/dog_causal/dog_causal_4.png","null","",""
"","","","","","image-button-response","67","281819","0.0-12.0-1.0-1.3","4783D8BA54B34EA79EC251B465CF5FA0","4783D8BA54B34EA79EC251B465CF5FA0","ac3e8da4-e79d-4dbd-919e-7e2c9a5b48a9","051c06f1-75cc-4548-856d-4923ddaba0dc","{""num_scrambled_semantic"":""8"",""num_scrambled_causal"":""4"",""num_scrambled_schematic"":""4"",""participantId"":""4783D8BA54B34EA79EC251B465CF5FA0"",""assignmentId"":""ac3e8da4-e79d-4dbd-919e-7e2c9a5b48a9"",""projectId"":""051c06f1-75cc-4548-856d-4923ddaba0dc""}","https://test12345.live/?num_scrambled_semantic=8&num_scrambled_causal=4&num_scrambled_schematic=4&participantId=4783D8BA54B34EA79EC251B465CF5FA0&assignmentId=ac3e8da4-e79d-4dbd-919e-7e2c9a5b48a9&projectId=051c06f1-75cc-4548-856d-4923ddaba0dc","4783D8BA54B34EA79EC251B465CF5FA0-2025-05-15-18-56-49","","682","","images/causal_sequence/dog_causal/dog_causal_4.png","0","",""
"","","","","","image-button-response","68","283829","0.0-12.0-1.0-2.3","4783D8BA54B34EA79EC251B465CF5FA0","4783D8BA54B34EA79EC251B465CF5FA0","ac3e8da4-e79d-4dbd-919e-7e2c9a5b48a9","051c06f1-75cc-4548-856d-4923ddaba0dc","{""num_scrambled_semantic"":""8"",""num_scrambled_causal"":""4"",""num_scrambled_schematic"":""4"",""participantId"":""4783D8BA54B34EA79EC251B465CF5FA0"",""assignmentId"":""ac3e8da4-e79d-4dbd-919e-7e2c9a5b48a9"",""projectId"":""051c06f1-75cc-4548-856d-4923ddaba0dc""}","https://test12345.live/?num_scrambled_semantic=8&num_scrambled_causal=4&num_scrambled_schematic=4&participantId=4783D8BA54B34EA79EC251B465CF5FA0&assignmentId=ac3e8da4-e79d-4dbd-919e-7e2c9a5b48a9&projectId=051c06f1-75cc-4548-856d-4923ddaba0dc","4783D8BA54B34EA79EC251B465CF5FA0-2025-05-15-18-56-49","","null","","[]","null","",""
"","","","","","image-button-response","69","288834","0.0-12.0-1.0-0.4","4783D8BA54B34EA79EC251B465CF5FA0","4783D8BA54B34EA79EC251B465CF5FA0","ac3e8da4-e79d-4dbd-919e-7e2c9a5b48a9","051c06f1-75cc-4548-856d-4923ddaba0dc","{""num_scrambled_semantic"":""8"",""num_scrambled_causal"":""4"",""num_scrambled_schematic"":""4"",""participantId"":""4783D8BA54B34EA79EC251B465CF5FA0"",""assignmentId"":""ac3e8da4-e79d-4dbd-919e-7e2c9a5b48a9"",""projectId"":""051c06f1-75cc-4548-856d-4923ddaba0dc""}","https://test12345.live/?num_scrambled_semantic=8&num_scrambled_causal=4&num_scrambled_schematic=4&participantId=4783D8BA54B34EA79EC251B465CF5FA0&assignmentId=ac3e8da4-e79d-4dbd-919e-7e2c9a5b48a9&projectId=051c06f1-75cc-4548-856d-4923ddaba0dc","4783D8BA54B34EA79EC251B465CF5FA0-2025-05-15-18-56-49","","null","","images/causal_sequence/dog_causal/dog_causal_5.png","null","",""
"","","","","","image-button-response","70","289598","0.0-12.0-1.0-1.4","4783D8BA54B34EA79EC251B465CF5FA0","4783D8BA54B34EA79EC251B465CF5FA0","ac3e8da4-e79d-4dbd-919e-7e2c9a5b48a9","051c06f1-75cc-4548-856d-4923ddaba0dc","{""num_scrambled_semantic"":""8"",""num_scrambled_causal"":""4"",""num_scrambled_schematic"":""4"",""participantId"":""4783D8BA54B34EA79EC251B465CF5FA0"",""assignmentId"":""ac3e8da4-e79d-4dbd-919e-7e2c9a5b48a9"",""projectId"":""051c06f1-75cc-4548-856d-4923ddaba0dc""}","https://test12345.live/?num_scrambled_semantic=8&num_scrambled_causal=4&num_scrambled_schematic=4&participantId=4783D8BA54B34EA79EC251B465CF5FA0&assignmentId=ac3e8da4-e79d-4dbd-919e-7e2c9a5b48a9&projectId=051c06f1-75cc-4548-856d-4923ddaba0dc","4783D8BA54B34EA79EC251B465CF5FA0-2025-05-15-18-56-49","","763","","images/causal_sequence/dog_causal/dog_causal_5.png","0","",""
"","","","","","image-button-response","71","291607","0.0-12.0-1.0-2.4","4783D8BA54B34EA79EC251B465CF5FA0","4783D8BA54B34EA79EC251B465CF5FA0","ac3e8da4-e79d-4dbd-919e-7e2c9a5b48a9","051c06f1-75cc-4548-856d-4923ddaba0dc","{""num_scrambled_semantic"":""8"",""num_scrambled_causal"":""4"",""num_scrambled_schematic"":""4"",""participantId"":""4783D8BA54B34EA79EC251B465CF5FA0"",""assignmentId"":""ac3e8da4-e79d-4dbd-919e-7e2c9a5b48a9"",""projectId"":""051c06f1-75cc-4548-856d-4923ddaba0dc""}","https://test12345.live/?num_scrambled_semantic=8&num_scrambled_causal=4&num_scrambled_schematic=4&participantId=4783D8BA54B34EA79EC251B465CF5FA0&assignmentId=ac3e8da4-e79d-4dbd-919e-7e2c9a5b48a9&projectId=051c06f1-75cc-4548-856d-4923ddaba0dc","4783D8BA54B34EA79EC251B465CF5FA0-2025-05-15-18-56-49","","null","","[]","null","",""
"","","","","","image-button-response","72","296136","0.0-12.0-1.0-0.5","4783D8BA54B34EA79EC251B465CF5FA0","4783D8BA54B34EA79EC251B465CF5FA0","ac3e8da4-e79d-4dbd-919e-7e2c9a5b48a9","051c06f1-75cc-4548-856d-4923ddaba0dc","{""num_scrambled_semantic"":""8"",""num_scrambled_causal"":""4"",""num_scrambled_schematic"":""4"",""participantId"":""4783D8BA54B34EA79EC251B465CF5FA0"",""assignmentId"":""ac3e8da4-e79d-4dbd-919e-7e2c9a5b48a9"",""projectId"":""051c06f1-75cc-4548-856d-4923ddaba0dc""}","https://test12345.live/?num_scrambled_semantic=8&num_scrambled_causal=4&num_scrambled_schematic=4&participantId=4783D8BA54B34EA79EC251B465CF5FA0&assignmentId=ac3e8da4-e79d-4dbd-919e-7e2c9a5b48a9&projectId=051c06f1-75cc-4548-856d-4923ddaba0dc","4783D8BA54B34EA79EC251B465CF5FA0-2025-05-15-18-56-49","","null","","images/causal_sequence/dog_causal/dog_causal_6.png","null","",""
"","","","","","image-button-response","73","296700","0.0-12.0-1.0-1.5","4783D8BA54B34EA79EC251B465CF5FA0","4783D8BA54B34EA79EC251B465CF5FA0","ac3e8da4-e79d-4dbd-919e-7e2c9a5b48a9","051c06f1-75cc-4548-856d-4923ddaba0dc","{""num_scrambled_semantic"":""8"",""num_scrambled_causal"":""4"",""num_scrambled_schematic"":""4"",""participantId"":""4783D8BA54B34EA79EC251B465CF5FA0"",""assignmentId"":""ac3e8da4-e79d-4dbd-919e-7e2c9a5b48a9"",""projectId"":""051c06f1-75cc-4548-856d-4923ddaba0dc""}","https://test12345.live/?num_scrambled_semantic=8&num_scrambled_causal=4&num_scrambled_schematic=4&participantId=4783D8BA54B34EA79EC251B465CF5FA0&assignmentId=ac3e8da4-e79d-4dbd-919e-7e2c9a5b48a9&projectId=051c06f1-75cc-4548-856d-4923ddaba0dc","4783D8BA54B34EA79EC251B465CF5FA0-2025-05-15-18-56-49","","563","","images/causal_sequence/dog_causal/dog_causal_6.png","0","",""
"","","","","","image-button-response","74","298709","0.0-12.0-1.0-2.5","4783D8BA54B34EA79EC251B465CF5FA0","4783D8BA54B34EA79EC251B465CF5FA0","ac3e8da4-e79d-4dbd-919e-7e2c9a5b48a9","051c06f1-75cc-4548-856d-4923ddaba0dc","{""num_scrambled_semantic"":""8"",""num_scrambled_causal"":""4"",""num_scrambled_schematic"":""4"",""participantId"":""4783D8BA54B34EA79EC251B465CF5FA0"",""assignmentId"":""ac3e8da4-e79d-4dbd-919e-7e2c9a5b48a9"",""projectId"":""051c06f1-75cc-4548-856d-4923ddaba0dc""}","https://test12345.live/?num_scrambled_semantic=8&num_scrambled_causal=4&num_scrambled_schematic=4&participantId=4783D8BA54B34EA79EC251B465CF5FA0&assignmentId=ac3e8da4-e79d-4dbd-919e-7e2c9a5b48a9&projectId=051c06f1-75cc-4548-856d-4923ddaba0dc","4783D8BA54B34EA79EC251B465CF5FA0-2025-05-15-18-56-49","","null","","[]","null","",""
"","","","","","image-button-response","75","303236","0.0-12.0-1.0-0.6","4783D8BA54B34EA79EC251B465CF5FA0","4783D8BA54B34EA79EC251B465CF5FA0","ac3e8da4-e79d-4dbd-919e-7e2c9a5b48a9","051c06f1-75cc-4548-856d-4923ddaba0dc","{""num_scrambled_semantic"":""8"",""num_scrambled_causal"":""4"",""num_scrambled_schematic"":""4"",""participantId"":""4783D8BA54B34EA79EC251B465CF5FA0"",""assignmentId"":""ac3e8da4-e79d-4dbd-919e-7e2c9a5b48a9"",""projectId"":""051c06f1-75cc-4548-856d-4923ddaba0dc""}","https://test12345.live/?num_scrambled_semantic=8&num_scrambled_causal=4&num_scrambled_schematic=4&participantId=4783D8BA54B34EA79EC251B465CF5FA0&assignmentId=ac3e8da4-e79d-4dbd-919e-7e2c9a5b48a9&projectId=051c06f1-75cc-4548-856d-4923ddaba0dc","4783D8BA54B34EA79EC251B465CF5FA0-2025-05-15-18-56-49","","null","","images/causal_sequence/dog_causal/dog_causal_7.png","null","",""
"","","","","","image-button-response","76","303862","0.0-12.0-1.0-1.6","4783D8BA54B34EA79EC251B465CF5FA0","4783D8BA54B34EA79EC251B465CF5FA0","ac3e8da4-e79d-4dbd-919e-7e2c9a5b48a9","051c06f1-75cc-4548-856d-4923ddaba0dc","{""num_scrambled_semantic"":""8"",""num_scrambled_causal"":""4"",""num_scrambled_schematic"":""4"",""participantId"":""4783D8BA54B34EA79EC251B465CF5FA0"",""assignmentId"":""ac3e8da4-e79d-4dbd-919e-7e2c9a5b48a9"",""projectId"":""051c06f1-75cc-4548-856d-4923ddaba0dc""}","https://test12345.live/?num_scrambled_semantic=8&num_scrambled_causal=4&num_scrambled_schematic=4&participantId=4783D8BA54B34EA79EC251B465CF5FA0&assignmentId=ac3e8da4-e79d-4dbd-919e-7e2c9a5b48a9&projectId=051c06f1-75cc-4548-856d-4923ddaba0dc","4783D8BA54B34EA79EC251B465CF5FA0-2025-05-15-18-56-49","","626","","images/causal_sequence/dog_causal/dog_causal_7.png","0","",""
"","","","","","image-button-response","77","305871","0.0-12.0-1.0-2.6","4783D8BA54B34EA79EC251B465CF5FA0","4783D8BA54B34EA79EC251B465CF5FA0","ac3e8da4-e79d-4dbd-919e-7e2c9a5b48a9","051c06f1-75cc-4548-856d-4923ddaba0dc","{""num_scrambled_semantic"":""8"",""num_scrambled_causal"":""4"",""num_scrambled_schematic"":""4"",""participantId"":""4783D8BA54B34EA79EC251B465CF5FA0"",""assignmentId"":""ac3e8da4-e79d-4dbd-919e-7e2c9a5b48a9"",""projectId"":""051c06f1-75cc-4548-856d-4923ddaba0dc""}","https://test12345.live/?num_scrambled_semantic=8&num_scrambled_causal=4&num_scrambled_schematic=4&participantId=4783D8BA54B34EA79EC251B465CF5FA0&assignmentId=ac3e8da4-e79d-4dbd-919e-7e2c9a5b48a9&projectId=051c06f1-75cc-4548-856d-4923ddaba0dc","4783D8BA54B34EA79EC251B465CF5FA0-2025-05-15-18-56-49","","null","","[]","null","",""
"","","","","","image-button-response","78","310399","0.0-12.0-1.0-0.7","4783D8BA54B34EA79EC251B465CF5FA0","4783D8BA54B34EA79EC251B465CF5FA0","ac3e8da4-e79d-4dbd-919e-7e2c9a5b48a9","051c06f1-75cc-4548-856d-4923ddaba0dc","{""num_scrambled_semantic"":""8"",""num_scrambled_causal"":""4"",""num_scrambled_schematic"":""4"",""participantId"":""4783D8BA54B34EA79EC251B465CF5FA0"",""assignmentId"":""ac3e8da4-e79d-4dbd-919e-7e2c9a5b48a9"",""projectId"":""051c06f1-75cc-4548-856d-4923ddaba0dc""}","https://test12345.live/?num_scrambled_semantic=8&num_scrambled_causal=4&num_scrambled_schematic=4&participantId=4783D8BA54B34EA79EC251B465CF5FA0&assignmentId=ac3e8da4-e79d-4dbd-919e-7e2c9a5b48a9&projectId=051c06f1-75cc-4548-856d-4923ddaba0dc","4783D8BA54B34EA79EC251B465CF5FA0-2025-05-15-18-56-49","","null","","images/causal_sequence/dog_causal/dog_causal_8.png","null","",""
"","","","","","image-button-response","79","310963","0.0-12.0-1.0-1.7","4783D8BA54B34EA79EC251B465CF5FA0","4783D8BA54B34EA79EC251B465CF5FA0","ac3e8da4-e79d-4dbd-919e-7e2c9a5b48a9","051c06f1-75cc-4548-856d-4923ddaba0dc","{""num_scrambled_semantic"":""8"",""num_scrambled_causal"":""4"",""num_scrambled_schematic"":""4"",""participantId"":""4783D8BA54B34EA79EC251B465CF5FA0"",""assignmentId"":""ac3e8da4-e79d-4dbd-919e-7e2c9a5b48a9"",""projectId"":""051c06f1-75cc-4548-856d-4923ddaba0dc""}","https://test12345.live/?num_scrambled_semantic=8&num_scrambled_causal=4&num_scrambled_schematic=4&participantId=4783D8BA54B34EA79EC251B465CF5FA0&assignmentId=ac3e8da4-e79d-4dbd-919e-7e2c9a5b48a9&projectId=051c06f1-75cc-4548-856d-4923ddaba0dc","4783D8BA54B34EA79EC251B465CF5FA0-2025-05-15-18-56-49","","564","","images/causal_sequence/dog_causal/dog_causal_8.png","0","",""
"","","","","","image-button-response","80","312967","0.0-12.0-1.0-2.7","4783D8BA54B34EA79EC251B465CF5FA0","4783D8BA54B34EA79EC251B465CF5FA0","ac3e8da4-e79d-4dbd-919e-7e2c9a5b48a9","051c06f1-75cc-4548-856d-4923ddaba0dc","{""num_scrambled_semantic"":""8"",""num_scrambled_causal"":""4"",""num_scrambled_schematic"":""4"",""participantId"":""4783D8BA54B34EA79EC251B465CF5FA0"",""assignmentId"":""ac3e8da4-e79d-4dbd-919e-7e2c9a5b48a9"",""projectId"":""051c06f1-75cc-4548-856d-4923ddaba0dc""}","https://test12345.live/?num_scrambled_semantic=8&num_scrambled_causal=4&num_scrambled_schematic=4&participantId=4783D8BA54B34EA79EC251B465CF5FA0&assignmentId=ac3e8da4-e79d-4dbd-919e-7e2c9a5b48a9&projectId=051c06f1-75cc-4548-856d-4923ddaba0dc","4783D8BA54B34EA79EC251B465CF5FA0-2025-05-15-18-56-49","","null","","[]","null","",""
"","","","","","image-button-response","81","317773","0.0-12.0-1.0-0.8","4783D8BA54B34EA79EC251B465CF5FA0","4783D8BA54B34EA79EC251B465CF5FA0","ac3e8da4-e79d-4dbd-919e-7e2c9a5b48a9","051c06f1-75cc-4548-856d-4923ddaba0dc","{""num_scrambled_semantic"":""8"",""num_scrambled_causal"":""4"",""num_scrambled_schematic"":""4"",""participantId"":""4783D8BA54B34EA79EC251B465CF5FA0"",""assignmentId"":""ac3e8da4-e79d-4dbd-919e-7e2c9a5b48a9"",""projectId"":""051c06f1-75cc-4548-856d-4923ddaba0dc""}","https://test12345.live/?num_scrambled_semantic=8&num_scrambled_causal=4&num_scrambled_schematic=4&participantId=4783D8BA54B34EA79EC251B465CF5FA0&assignmentId=ac3e8da4-e79d-4dbd-919e-7e2c9a5b48a9&projectId=051c06f1-75cc-4548-856d-4923ddaba0dc","4783D8BA54B34EA79EC251B465CF5FA0-2025-05-15-18-56-49","","null","","images/causal_sequence/dog_causal/dog_causal_9.png","null","",""
"","","","","","image-button-response","82","318278","0.0-12.0-1.0-1.8","4783D8BA54B34EA79EC251B465CF5FA0","4783D8BA54B34EA79EC251B465CF5FA0","ac3e8da4-e79d-4dbd-919e-7e2c9a5b48a9","051c06f1-75cc-4548-856d-4923ddaba0dc","{""num_scrambled_semantic"":""8"",""num_scrambled_causal"":""4"",""num_scrambled_schematic"":""4"",""participantId"":""4783D8BA54B34EA79EC251B465CF5FA0"",""assignmentId"":""ac3e8da4-e79d-4dbd-919e-7e2c9a5b48a9"",""projectId"":""051c06f1-75cc-4548-856d-4923ddaba0dc""}","https://test12345.live/?num_scrambled_semantic=8&num_scrambled_causal=4&num_scrambled_schematic=4&participantId=4783D8BA54B34EA79EC251B465CF5FA0&assignmentId=ac3e8da4-e79d-4dbd-919e-7e2c9a5b48a9&projectId=051c06f1-75cc-4548-856d-4923ddaba0dc","4783D8BA54B34EA79EC251B465CF5FA0-2025-05-15-18-56-49","","503","","images/causal_sequence/dog_causal/dog_causal_9.png","0","",""
"","","","","","image-button-response","83","320285","0.0-12.0-1.0-2.8","4783D8BA54B34EA79EC251B465CF5FA0","4783D8BA54B34EA79EC251B465CF5FA0","ac3e8da4-e79d-4dbd-919e-7e2c9a5b48a9","051c06f1-75cc-4548-856d-4923ddaba0dc","{""num_scrambled_semantic"":""8"",""num_scrambled_causal"":""4"",""num_scrambled_schematic"":""4"",""participantId"":""4783D8BA54B34EA79EC251B465CF5FA0"",""assignmentId"":""ac3e8da4-e79d-4dbd-919e-7e2c9a5b48a9"",""projectId"":""051c06f1-75cc-4548-856d-4923ddaba0dc""}","https://test12345.live/?num_scrambled_semantic=8&num_scrambled_causal=4&num_scrambled_schematic=4&participantId=4783D8BA54B34EA79EC251B465CF5FA0&assignmentId=ac3e8da4-e79d-4dbd-919e-7e2c9a5b48a9&projectId=051c06f1-75cc-4548-856d-4923ddaba0dc","4783D8BA54B34EA79EC251B465CF5FA0-2025-05-15-18-56-49","","null","","[]","null","",""
"","","","","","image-button-response","84","324814","0.0-12.0-1.0-0.9","4783D8BA54B34EA79EC251B465CF5FA0","4783D8BA54B34EA79EC251B465CF5FA0","ac3e8da4-e79d-4dbd-919e-7e2c9a5b48a9","051c06f1-75cc-4548-856d-4923ddaba0dc","{""num_scrambled_semantic"":""8"",""num_scrambled_causal"":""4"",""num_scrambled_schematic"":""4"",""participantId"":""4783D8BA54B34EA79EC251B465CF5FA0"",""assignmentId"":""ac3e8da4-e79d-4dbd-919e-7e2c9a5b48a9"",""projectId"":""051c06f1-75cc-4548-856d-4923ddaba0dc""}","https://test12345.live/?num_scrambled_semantic=8&num_scrambled_causal=4&num_scrambled_schematic=4&participantId=4783D8BA54B34EA79EC251B465CF5FA0&assignmentId=ac3e8da4-e79d-4dbd-919e-7e2c9a5b48a9&projectId=051c06f1-75cc-4548-856d-4923ddaba0dc","4783D8BA54B34EA79EC251B465CF5FA0-2025-05-15-18-56-49","","null","","images/causal_sequence/dog_causal/dog_causal_ten.png","null","",""
"","","","","","image-button-response","85","325465","0.0-12.0-1.0-1.9","4783D8BA54B34EA79EC251B465CF5FA0","4783D8BA54B34EA79EC251B465CF5FA0","ac3e8da4-e79d-4dbd-919e-7e2c9a5b48a9","051c06f1-75cc-4548-856d-4923ddaba0dc","{""num_scrambled_semantic"":""8"",""num_scrambled_causal"":""4"",""num_scrambled_schematic"":""4"",""participantId"":""4783D8BA54B34EA79EC251B465CF5FA0"",""assignmentId"":""ac3e8da4-e79d-4dbd-919e-7e2c9a5b48a9"",""projectId"":""051c06f1-75cc-4548-856d-4923ddaba0dc""}","https://test12345.live/?num_scrambled_semantic=8&num_scrambled_causal=4&num_scrambled_schematic=4&participantId=4783D8BA54B34EA79EC251B465CF5FA0&assignmentId=ac3e8da4-e79d-4dbd-919e-7e2c9a5b48a9&projectId=051c06f1-75cc-4548-856d-4923ddaba0dc","4783D8BA54B34EA79EC251B465CF5FA0-2025-05-15-18-56-49","","650","","images/causal_sequence/dog_causal/dog_causal_ten.png","0","",""
"","","","","","image-button-response","86","327468","0.0-12.0-1.0-2.9","4783D8BA54B34EA79EC251B465CF5FA0","4783D8BA54B34EA79EC251B465CF5FA0","ac3e8da4-e79d-4dbd-919e-7e2c9a5b48a9","051c06f1-75cc-4548-856d-4923ddaba0dc","{""num_scrambled_semantic"":""8"",""num_scrambled_causal"":""4"",""num_scrambled_schematic"":""4"",""participantId"":""4783D8BA54B34EA79EC251B465CF5FA0"",""assignmentId"":""ac3e8da4-e79d-4dbd-919e-7e2c9a5b48a9"",""projectId"":""051c06f1-75cc-4548-856d-4923ddaba0dc""}","https://test12345.live/?num_scrambled_semantic=8&num_scrambled_causal=4&num_scrambled_schematic=4&participantId=4783D8BA54B34EA79EC251B465CF5FA0&assignmentId=ac3e8da4-e79d-4dbd-919e-7e2c9a5b48a9&projectId=051c06f1-75cc-4548-856d-4923ddaba0dc","4783D8BA54B34EA79EC251B465CF5FA0-2025-05-15-18-56-49","","null","","[]","null","",""
"","","","","","html-audio-response","87","331436","0.0-13.0","4783D8BA54B34EA79EC251B465CF5FA0","4783D8BA54B34EA79EC251B465CF5FA0","ac3e8da4-e79d-4dbd-919e-7e2c9a5b48a9","051c06f1-75cc-4548-856d-4923ddaba0dc","{""num_scrambled_semantic"":""8"",""num_scrambled_causal"":""4"",""num_scrambled_schematic"":""4"",""participantId"":""4783D8BA54B34EA79EC251B465CF5FA0"",""assignmentId"":""ac3e8da4-e79d-4dbd-919e-7e2c9a5b48a9"",""projectId"":""051c06f1-75cc-4548-856d-4923ddaba0dc""}","https://test12345.live/?num_scrambled_semantic=8&num_scrambled_causal=4&num_scrambled_schematic=4&participantId=4783D8BA54B34EA79EC251B465CF5FA0&assignmentId=ac3e8da4-e79d-4dbd-919e-7e2c9a5b48a9&projectId=051c06f1-75cc-4548-856d-4923ddaba0dc","4783D8BA54B34EA79EC251B465CF5FA0-2025-05-15-18-56-49","","2724","","[""<span style=\""color: red; font-size: 24px\""> NOW RECORDING</span><p>Please say out loud all the images you saw, as many as you can remember. The images can be said in any order.</p>""]","","11","dog_causal"
"","","","","","image-button-response","88","337457","0.0-14.0-0.0","4783D8BA54B34EA79EC251B465CF5FA0","4783D8BA54B34EA79EC251B465CF5FA0","ac3e8da4-e79d-4dbd-919e-7e2c9a5b48a9","051c06f1-75cc-4548-856d-4923ddaba0dc","{""num_scrambled_semantic"":""8"",""num_scrambled_causal"":""4"",""num_scrambled_schematic"":""4"",""participantId"":""4783D8BA54B34EA79EC251B465CF5FA0"",""assignmentId"":""ac3e8da4-e79d-4dbd-919e-7e2c9a5b48a9"",""projectId"":""051c06f1-75cc-4548-856d-4923ddaba0dc""}","https://test12345.live/?num_scrambled_semantic=8&num_scrambled_causal=4&num_scrambled_schematic=4&participantId=4783D8BA54B34EA79EC251B465CF5FA0&assignmentId=ac3e8da4-e79d-4dbd-919e-7e2c9a5b48a9&projectId=051c06f1-75cc-4548-856d-4923ddaba0dc","4783D8BA54B34EA79EC251B465CF5FA0-2025-05-15-18-56-49","","null","","images/causal_sequence/package_causal/package_causal_0.png","null","",""
"","","","","","image-button-response","89","341985","0.0-14.0-1.0-0.0","4783D8BA54B34EA79EC251B465CF5FA0","4783D8BA54B34EA79EC251B465CF5FA0","ac3e8da4-e79d-4dbd-919e-7e2c9a5b48a9","051c06f1-75cc-4548-856d-4923ddaba0dc","{""num_scrambled_semantic"":""8"",""num_scrambled_causal"":""4"",""num_scrambled_schematic"":""4"",""participantId"":""4783D8BA54B34EA79EC251B465CF5FA0"",""assignmentId"":""ac3e8da4-e79d-4dbd-919e-7e2c9a5b48a9"",""projectId"":""051c06f1-75cc-4548-856d-4923ddaba0dc""}","https://test12345.live/?num_scrambled_semantic=8&num_scrambled_causal=4&num_scrambled_schematic=4&participantId=4783D8BA54B34EA79EC251B465CF5FA0&assignmentId=ac3e8da4-e79d-4dbd-919e-7e2c9a5b48a9&projectId=051c06f1-75cc-4548-856d-4923ddaba0dc","4783D8BA54B34EA79EC251B465CF5FA0-2025-05-15-18-56-49","","null","","images/causal_sequence/package_causal/package_causal_2.png","null","",""
"","","","","","image-button-response","90","342698","0.0-14.0-1.0-1.0","4783D8BA54B34EA79EC251B465CF5FA0","4783D8BA54B34EA79EC251B465CF5FA0","ac3e8da4-e79d-4dbd-919e-7e2c9a5b48a9","051c06f1-75cc-4548-856d-4923ddaba0dc","{""num_scrambled_semantic"":""8"",""num_scrambled_causal"":""4"",""num_scrambled_schematic"":""4"",""participantId"":""4783D8BA54B34EA79EC251B465CF5FA0"",""assignmentId"":""ac3e8da4-e79d-4dbd-919e-7e2c9a5b48a9"",""projectId"":""051c06f1-75cc-4548-856d-4923ddaba0dc""}","https://test12345.live/?num_scrambled_semantic=8&num_scrambled_causal=4&num_scrambled_schematic=4&participantId=4783D8BA54B34EA79EC251B465CF5FA0&assignmentId=ac3e8da4-e79d-4dbd-919e-7e2c9a5b48a9&projectId=051c06f1-75cc-4548-856d-4923ddaba0dc","4783D8BA54B34EA79EC251B465CF5FA0-2025-05-15-18-56-49","","712","","images/causal_sequence/package_causal/package_causal_2.png","0","",""
"","","","","","image-button-response","91","344708","0.0-14.0-1.0-2.0","4783D8BA54B34EA79EC251B465CF5FA0","4783D8BA54B34EA79EC251B465CF5FA0","ac3e8da4-e79d-4dbd-919e-7e2c9a5b48a9","051c06f1-75cc-4548-856d-4923ddaba0dc","{""num_scrambled_semantic"":""8"",""num_scrambled_causal"":""4"",""num_scrambled_schematic"":""4"",""participantId"":""4783D8BA54B34EA79EC251B465CF5FA0"",""assignmentId"":""ac3e8da4-e79d-4dbd-919e-7e2c9a5b48a9"",""projectId"":""051c06f1-75cc-4548-856d-4923ddaba0dc""}","https://test12345.live/?num_scrambled_semantic=8&num_scrambled_causal=4&num_scrambled_schematic=4&participantId=4783D8BA54B34EA79EC251B465CF5FA0&assignmentId=ac3e8da4-e79d-4dbd-919e-7e2c9a5b48a9&projectId=051c06f1-75cc-4548-856d-4923ddaba0dc","4783D8BA54B34EA79EC251B465CF5FA0-2025-05-15-18-56-49","","null","","[]","null","",""
"","","","","","image-button-response","92","349613","0.0-14.0-1.0-0.1","4783D8BA54B34EA79EC251B465CF5FA0","4783D8BA54B34EA79EC251B465CF5FA0","ac3e8da4-e79d-4dbd-919e-7e2c9a5b48a9","051c06f1-75cc-4548-856d-4923ddaba0dc","{""num_scrambled_semantic"":""8"",""num_scrambled_causal"":""4"",""num_scrambled_schematic"":""4"",""participantId"":""4783D8BA54B34EA79EC251B465CF5FA0"",""assignmentId"":""ac3e8da4-e79d-4dbd-919e-7e2c9a5b48a9"",""projectId"":""051c06f1-75cc-4548-856d-4923ddaba0dc""}","https://test12345.live/?num_scrambled_semantic=8&num_scrambled_causal=4&num_scrambled_schematic=4&participantId=4783D8BA54B34EA79EC251B465CF5FA0&assignmentId=ac3e8da4-e79d-4dbd-919e-7e2c9a5b48a9&projectId=051c06f1-75cc-4548-856d-4923ddaba0dc","4783D8BA54B34EA79EC251B465CF5FA0-2025-05-15-18-56-49","","null","","images/causal_sequence/package_causal/package_causal_6.png","null","",""
"","","","","","image-button-response","93","351043","0.0-14.0-1.0-1.1","4783D8BA54B34EA79EC251B465CF5FA0","4783D8BA54B34EA79EC251B465CF5FA0","ac3e8da4-e79d-4dbd-919e-7e2c9a5b48a9","051c06f1-75cc-4548-856d-4923ddaba0dc","{""num_scrambled_semantic"":""8"",""num_scrambled_causal"":""4"",""num_scrambled_schematic"":""4"",""participantId"":""4783D8BA54B34EA79EC251B465CF5FA0"",""assignmentId"":""ac3e8da4-e79d-4dbd-919e-7e2c9a5b48a9"",""projectId"":""051c06f1-75cc-4548-856d-4923ddaba0dc""}","https://test12345.live/?num_scrambled_semantic=8&num_scrambled_causal=4&num_scrambled_schematic=4&participantId=4783D8BA54B34EA79EC251B465CF5FA0&assignmentId=ac3e8da4-e79d-4dbd-919e-7e2c9a5b48a9&projectId=051c06f1-75cc-4548-856d-4923ddaba0dc","4783D8BA54B34EA79EC251B465CF5FA0-2025-05-15-18-56-49","","1429","","images/causal_sequence/package_causal/package_causal_6.png","0","",""
"","","","","","image-button-response","94","353050","0.0-14.0-1.0-2.1","4783D8BA54B34EA79EC251B465CF5FA0","4783D8BA54B34EA79EC251B465CF5FA0","ac3e8da4-e79d-4dbd-919e-7e2c9a5b48a9","051c06f1-75cc-4548-856d-4923ddaba0dc","{""num_scrambled_semantic"":""8"",""num_scrambled_causal"":""4"",""num_scrambled_schematic"":""4"",""participantId"":""4783D8BA54B34EA79EC251B465CF5FA0"",""assignmentId"":""ac3e8da4-e79d-4dbd-919e-7e2c9a5b48a9"",""projectId"":""051c06f1-75cc-4548-856d-4923ddaba0dc""}","https://test12345.live/?num_scrambled_semantic=8&num_scrambled_causal=4&num_scrambled_schematic=4&participantId=4783D8BA54B34EA79EC251B465CF5FA0&assignmentId=ac3e8da4-e79d-4dbd-919e-7e2c9a5b48a9&projectId=051c06f1-75cc-4548-856d-4923ddaba0dc","4783D8BA54B34EA79EC251B465CF5FA0-2025-05-15-18-56-49","","null","","[]","null","",""
"","","","","","image-button-response","95","357577","0.0-14.0-1.0-0.2","4783D8BA54B34EA79EC251B465CF5FA0","4783D8BA54B34EA79EC251B465CF5FA0","ac3e8da4-e79d-4dbd-919e-7e2c9a5b48a9","051c06f1-75cc-4548-856d-4923ddaba0dc","{""num_scrambled_semantic"":""8"",""num_scrambled_causal"":""4"",""num_scrambled_schematic"":""4"",""participantId"":""4783D8BA54B34EA79EC251B465CF5FA0"",""assignmentId"":""ac3e8da4-e79d-4dbd-919e-7e2c9a5b48a9"",""projectId"":""051c06f1-75cc-4548-856d-4923ddaba0dc""}","https://test12345.live/?num_scrambled_semantic=8&num_scrambled_causal=4&num_scrambled_schematic=4&participantId=4783D8BA54B34EA79EC251B465CF5FA0&assignmentId=ac3e8da4-e79d-4dbd-919e-7e2c9a5b48a9&projectId=051c06f1-75cc-4548-856d-4923ddaba0dc","4783D8BA54B34EA79EC251B465CF5FA0-2025-05-15-18-56-49","","null","","images/causal_sequence/package_causal/package_causal_ten.png","null","",""
"","","","","","image-button-response","96","358206","0.0-14.0-1.0-1.2","4783D8BA54B34EA79EC251B465CF5FA0","4783D8BA54B34EA79EC251B465CF5FA0","ac3e8da4-e79d-4dbd-919e-7e2c9a5b48a9","051c06f1-75cc-4548-856d-4923ddaba0dc","{""num_scrambled_semantic"":""8"",""num_scrambled_causal"":""4"",""num_scrambled_schematic"":""4"",""participantId"":""4783D8BA54B34EA79EC251B465CF5FA0"",""assignmentId"":""ac3e8da4-e79d-4dbd-919e-7e2c9a5b48a9"",""projectId"":""051c06f1-75cc-4548-856d-4923ddaba0dc""}","https://test12345.live/?num_scrambled_semantic=8&num_scrambled_causal=4&num_scrambled_schematic=4&participantId=4783D8BA54B34EA79EC251B465CF5FA0&assignmentId=ac3e8da4-e79d-4dbd-919e-7e2c9a5b48a9&projectId=051c06f1-75cc-4548-856d-4923ddaba0dc","4783D8BA54B34EA79EC251B465CF5FA0-2025-05-15-18-56-49","","628","","images/causal_sequence/package_causal/package_causal_ten.png","0","",""
"","","","","","image-button-response","97","360214","0.0-14.0-1.0-2.2","4783D8BA54B34EA79EC251B465CF5FA0","4783D8BA54B34EA79EC251B465CF5FA0","ac3e8da4-e79d-4dbd-919e-7e2c9a5b48a9","051c06f1-75cc-4548-856d-4923ddaba0dc","{""num_scrambled_semantic"":""8"",""num_scrambled_causal"":""4"",""num_scrambled_schematic"":""4"",""participantId"":""4783D8BA54B34EA79EC251B465CF5FA0"",""assignmentId"":""ac3e8da4-e79d-4dbd-919e-7e2c9a5b48a9"",""projectId"":""051c06f1-75cc-4548-856d-4923ddaba0dc""}","https://test12345.live/?num_scrambled_semantic=8&num_scrambled_causal=4&num_scrambled_schematic=4&participantId=4783D8BA54B34EA79EC251B465CF5FA0&assignmentId=ac3e8da4-e79d-4dbd-919e-7e2c9a5b48a9&projectId=051c06f1-75cc-4548-856d-4923ddaba0dc","4783D8BA54B34EA79EC251B465CF5FA0-2025-05-15-18-56-49","","null","","[]","null","",""
"","","","","","image-button-response","98","365119","0.0-14.0-1.0-0.3","4783D8BA54B34EA79EC251B465CF5FA0","4783D8BA54B34EA79EC251B465CF5FA0","ac3e8da4-e79d-4dbd-919e-7e2c9a5b48a9","051c06f1-75cc-4548-856d-4923ddaba0dc","{""num_scrambled_semantic"":""8"",""num_scrambled_causal"":""4"",""num_scrambled_schematic"":""4"",""participantId"":""4783D8BA54B34EA79EC251B465CF5FA0"",""assignmentId"":""ac3e8da4-e79d-4dbd-919e-7e2c9a5b48a9"",""projectId"":""051c06f1-75cc-4548-856d-4923ddaba0dc""}","https://test12345.live/?num_scrambled_semantic=8&num_scrambled_causal=4&num_scrambled_schematic=4&participantId=4783D8BA54B34EA79EC251B465CF5FA0&assignmentId=ac3e8da4-e79d-4dbd-919e-7e2c9a5b48a9&projectId=051c06f1-75cc-4548-856d-4923ddaba0dc","4783D8BA54B34EA79EC251B465CF5FA0-2025-05-15-18-56-49","","null","","images/causal_sequence/package_causal/package_causal_7.png","null","",""
"","","","","","image-button-response","99","365871","0.0-14.0-1.0-1.3","4783D8BA54B34EA79EC251B465CF5FA0","4783D8BA54B34EA79EC251B465CF5FA0","ac3e8da4-e79d-4dbd-919e-7e2c9a5b48a9","051c06f1-75cc-4548-856d-4923ddaba0dc","{""num_scrambled_semantic"":""8"",""num_scrambled_causal"":""4"",""num_scrambled_schematic"":""4"",""participantId"":""4783D8BA54B34EA79EC251B465CF5FA0"",""assignmentId"":""ac3e8da4-e79d-4dbd-919e-7e2c9a5b48a9"",""projectId"":""051c06f1-75cc-4548-856d-4923ddaba0dc""}","https://test12345.live/?num_scrambled_semantic=8&num_scrambled_causal=4&num_scrambled_schematic=4&participantId=4783D8BA54B34EA79EC251B465CF5FA0&assignmentId=ac3e8da4-e79d-4dbd-919e-7e2c9a5b48a9&projectId=051c06f1-75cc-4548-856d-4923ddaba0dc","4783D8BA54B34EA79EC251B465CF5FA0-2025-05-15-18-56-49","","752","","images/causal_sequence/package_causal/package_causal_7.png","0","",""
"","","","","","image-button-response","100","367882","0.0-14.0-1.0-2.3","4783D8BA54B34EA79EC251B465CF5FA0","4783D8BA54B34EA79EC251B465CF5FA0","ac3e8da4-e79d-4dbd-919e-7e2c9a5b48a9","051c06f1-75cc-4548-856d-4923ddaba0dc","{""num_scrambled_semantic"":""8"",""num_scrambled_causal"":""4"",""num_scrambled_schematic"":""4"",""participantId"":""4783D8BA54B34EA79EC251B465CF5FA0"",""assignmentId"":""ac3e8da4-e79d-4dbd-919e-7e2c9a5b48a9"",""projectId"":""051c06f1-75cc-4548-856d-4923ddaba0dc""}","https://test12345.live/?num_scrambled_semantic=8&num_scrambled_causal=4&num_scrambled_schematic=4&participantId=4783D8BA54B34EA79EC251B465CF5FA0&assignmentId=ac3e8da4-e79d-4dbd-919e-7e2c9a5b48a9&projectId=051c06f1-75cc-4548-856d-4923ddaba0dc","4783D8BA54B34EA79EC251B465CF5FA0-2025-05-15-18-56-49","","null","","[]","null","",""
"","","","","","image-button-response","101","372410","0.0-14.0-1.0-0.4","4783D8BA54B34EA79EC251B465CF5FA0","4783D8BA54B34EA79EC251B465CF5FA0","ac3e8da4-e79d-4dbd-919e-7e2c9a5b48a9","051c06f1-75cc-4548-856d-4923ddaba0dc","{""num_scrambled_semantic"":""8"",""num_scrambled_causal"":""4"",""num_scrambled_schematic"":""4"",""participantId"":""4783D8BA54B34EA79EC251B465CF5FA0"",""assignmentId"":""ac3e8da4-e79d-4dbd-919e-7e2c9a5b48a9"",""projectId"":""051c06f1-75cc-4548-856d-4923ddaba0dc""}","https://test12345.live/?num_scrambled_semantic=8&num_scrambled_causal=4&num_scrambled_schematic=4&participantId=4783D8BA54B34EA79EC251B465CF5FA0&assignmentId=ac3e8da4-e79d-4dbd-919e-7e2c9a5b48a9&projectId=051c06f1-75cc-4548-856d-4923ddaba0dc","4783D8BA54B34EA79EC251B465CF5FA0-2025-05-15-18-56-49","","null","","images/causal_sequence/package_causal/package_causal_5.png","null","",""
"","","","","","image-button-response","102","374502","0.0-14.0-1.0-1.4","4783D8BA54B34EA79EC251B465CF5FA0","4783D8BA54B34EA79EC251B465CF5FA0","ac3e8da4-e79d-4dbd-919e-7e2c9a5b48a9","051c06f1-75cc-4548-856d-4923ddaba0dc","{""num_scrambled_semantic"":""8"",""num_scrambled_causal"":""4"",""num_scrambled_schematic"":""4"",""participantId"":""4783D8BA54B34EA79EC251B465CF5FA0"",""assignmentId"":""ac3e8da4-e79d-4dbd-919e-7e2c9a5b48a9"",""projectId"":""051c06f1-75cc-4548-856d-4923ddaba0dc""}","https://test12345.live/?num_scrambled_semantic=8&num_scrambled_causal=4&num_scrambled_schematic=4&participantId=4783D8BA54B34EA79EC251B465CF5FA0&assignmentId=ac3e8da4-e79d-4dbd-919e-7e2c9a5b48a9&projectId=051c06f1-75cc-4548-856d-4923ddaba0dc","4783D8BA54B34EA79EC251B465CF5FA0-2025-05-15-18-56-49","","2090","","images/causal_sequence/package_causal/package_causal_5.png","0","",""
"","","","","","image-button-response","103","376506","0.0-14.0-1.0-2.4","4783D8BA54B34EA79EC251B465CF5FA0","4783D8BA54B34EA79EC251B465CF5FA0","ac3e8da4-e79d-4dbd-919e-7e2c9a5b48a9","051c06f1-75cc-4548-856d-4923ddaba0dc","{""num_scrambled_semantic"":""8"",""num_scrambled_causal"":""4"",""num_scrambled_schematic"":""4"",""participantId"":""4783D8BA54B34EA79EC251B465CF5FA0"",""assignmentId"":""ac3e8da4-e79d-4dbd-919e-7e2c9a5b48a9"",""projectId"":""051c06f1-75cc-4548-856d-4923ddaba0dc""}","https://test12345.live/?num_scrambled_semantic=8&num_scrambled_causal=4&num_scrambled_schematic=4&participantId=4783D8BA54B34EA79EC251B465CF5FA0&assignmentId=ac3e8da4-e79d-4dbd-919e-7e2c9a5b48a9&projectId=051c06f1-75cc-4548-856d-4923ddaba0dc","4783D8BA54B34EA79EC251B465CF5FA0-2025-05-15-18-56-49","","null","","[]","null","",""
"","","","","","image-button-response","104","381398","0.0-14.0-1.0-0.5","4783D8BA54B34EA79EC251B465CF5FA0","4783D8BA54B34EA79EC251B465CF5FA0","ac3e8da4-e79d-4dbd-919e-7e2c9a5b48a9","051c06f1-75cc-4548-856d-4923ddaba0dc","{""num_scrambled_semantic"":""8"",""num_scrambled_causal"":""4"",""num_scrambled_schematic"":""4"",""participantId"":""4783D8BA54B34EA79EC251B465CF5FA0"",""assignmentId"":""ac3e8da4-e79d-4dbd-919e-7e2c9a5b48a9"",""projectId"":""051c06f1-75cc-4548-856d-4923ddaba0dc""}","https://test12345.live/?num_scrambled_semantic=8&num_scrambled_causal=4&num_scrambled_schematic=4&participantId=4783D8BA54B34EA79EC251B465CF5FA0&assignmentId=ac3e8da4-e79d-4dbd-919e-7e2c9a5b48a9&projectId=051c06f1-75cc-4548-856d-4923ddaba0dc","4783D8BA54B34EA79EC251B465CF5FA0-2025-05-15-18-56-49","","null","","images/causal_sequence/package_causal/package_causal_3.png","null","",""
"","","","","","image-button-response","105","381933","0.0-14.0-1.0-1.5","4783D8BA54B34EA79EC251B465CF5FA0","4783D8BA54B34EA79EC251B465CF5FA0","ac3e8da4-e79d-4dbd-919e-7e2c9a5b48a9","051c06f1-75cc-4548-856d-4923ddaba0dc","{""num_scrambled_semantic"":""8"",""num_scrambled_causal"":""4"",""num_scrambled_schematic"":""4"",""participantId"":""4783D8BA54B34EA79EC251B465CF5FA0"",""assignmentId"":""ac3e8da4-e79d-4dbd-919e-7e2c9a5b48a9"",""projectId"":""051c06f1-75cc-4548-856d-4923ddaba0dc""}","https://test12345.live/?num_scrambled_semantic=8&num_scrambled_causal=4&num_scrambled_schematic=4&participantId=4783D8BA54B34EA79EC251B465CF5FA0&assignmentId=ac3e8da4-e79d-4dbd-919e-7e2c9a5b48a9&projectId=051c06f1-75cc-4548-856d-4923ddaba0dc","4783D8BA54B34EA79EC251B465CF5FA0-2025-05-15-18-56-49","","533","","images/causal_sequence/package_causal/package_causal_3.png","0","",""
"","","","","","image-button-response","106","383938","0.0-14.0-1.0-2.5","4783D8BA54B34EA79EC251B465CF5FA0","4783D8BA54B34EA79EC251B465CF5FA0","ac3e8da4-e79d-4dbd-919e-7e2c9a5b48a9","051c06f1-75cc-4548-856d-4923ddaba0dc","{""num_scrambled_semantic"":""8"",""num_scrambled_causal"":""4"",""num_scrambled_schematic"":""4"",""participantId"":""4783D8BA54B34EA79EC251B465CF5FA0"",""assignmentId"":""ac3e8da4-e79d-4dbd-919e-7e2c9a5b48a9"",""projectId"":""051c06f1-75cc-4548-856d-4923ddaba0dc""}","https://test12345.live/?num_scrambled_semantic=8&num_scrambled_causal=4&num_scrambled_schematic=4&participantId=4783D8BA54B34EA79EC251B465CF5FA0&assignmentId=ac3e8da4-e79d-4dbd-919e-7e2c9a5b48a9&projectId=051c06f1-75cc-4548-856d-4923ddaba0dc","4783D8BA54B34EA79EC251B465CF5FA0-2025-05-15-18-56-49","","null","","[]","null","",""
"","","","","","image-button-response","107","388463","0.0-14.0-1.0-0.6","4783D8BA54B34EA79EC251B465CF5FA0","4783D8BA54B34EA79EC251B465CF5FA0","ac3e8da4-e79d-4dbd-919e-7e2c9a5b48a9","051c06f1-75cc-4548-856d-4923ddaba0dc","{""num_scrambled_semantic"":""8"",""num_scrambled_causal"":""4"",""num_scrambled_schematic"":""4"",""participantId"":""4783D8BA54B34EA79EC251B465CF5FA0"",""assignmentId"":""ac3e8da4-e79d-4dbd-919e-7e2c9a5b48a9"",""projectId"":""051c06f1-75cc-4548-856d-4923ddaba0dc""}","https://test12345.live/?num_scrambled_semantic=8&num_scrambled_causal=4&num_scrambled_schematic=4&participantId=4783D8BA54B34EA79EC251B465CF5FA0&assignmentId=ac3e8da4-e79d-4dbd-919e-7e2c9a5b48a9&projectId=051c06f1-75cc-4548-856d-4923ddaba0dc","4783D8BA54B34EA79EC251B465CF5FA0-2025-05-15-18-56-49","","null","","images/causal_sequence/package_causal/package_causal_1.png","null","",""
"","","","","","image-button-response","108","388913","0.0-14.0-1.0-1.6","4783D8BA54B34EA79EC251B465CF5FA0","4783D8BA54B34EA79EC251B465CF5FA0","ac3e8da4-e79d-4dbd-919e-7e2c9a5b48a9","051c06f1-75cc-4548-856d-4923ddaba0dc","{""num_scrambled_semantic"":""8"",""num_scrambled_causal"":""4"",""num_scrambled_schematic"":""4"",""participantId"":""4783D8BA54B34EA79EC251B465CF5FA0"",""assignmentId"":""ac3e8da4-e79d-4dbd-919e-7e2c9a5b48a9"",""projectId"":""051c06f1-75cc-4548-856d-4923ddaba0dc""}","https://test12345.live/?num_scrambled_semantic=8&num_scrambled_causal=4&num_scrambled_schematic=4&participantId=4783D8BA54B34EA79EC251B465CF5FA0&assignmentId=ac3e8da4-e79d-4dbd-919e-7e2c9a5b48a9&projectId=051c06f1-75cc-4548-856d-4923ddaba0dc","4783D8BA54B34EA79EC251B465CF5FA0-2025-05-15-18-56-49","","449","","images/causal_sequence/package_causal/package_causal_1.png","0","",""
"","","","","","image-button-response","109","390919","0.0-14.0-1.0-2.6","4783D8BA54B34EA79EC251B465CF5FA0","4783D8BA54B34EA79EC251B465CF5FA0","ac3e8da4-e79d-4dbd-919e-7e2c9a5b48a9","051c06f1-75cc-4548-856d-4923ddaba0dc","{""num_scrambled_semantic"":""8"",""num_scrambled_causal"":""4"",""num_scrambled_schematic"":""4"",""participantId"":""4783D8BA54B34EA79EC251B465CF5FA0"",""assignmentId"":""ac3e8da4-e79d-4dbd-919e-7e2c9a5b48a9"",""projectId"":""051c06f1-75cc-4548-856d-4923ddaba0dc""}","https://test12345.live/?num_scrambled_semantic=8&num_scrambled_causal=4&num_scrambled_schematic=4&participantId=4783D8BA54B34EA79EC251B465CF5FA0&assignmentId=ac3e8da4-e79d-4dbd-919e-7e2c9a5b48a9&projectId=051c06f1-75cc-4548-856d-4923ddaba0dc","4783D8BA54B34EA79EC251B465CF5FA0-2025-05-15-18-56-49","","null","","[]","null","",""
"","","","","","image-button-response","110","395778","0.0-14.0-1.0-0.7","4783D8BA54B34EA79EC251B465CF5FA0","4783D8BA54B34EA79EC251B465CF5FA0","ac3e8da4-e79d-4dbd-919e-7e2c9a5b48a9","051c06f1-75cc-4548-856d-4923ddaba0dc","{""num_scrambled_semantic"":""8"",""num_scrambled_causal"":""4"",""num_scrambled_schematic"":""4"",""participantId"":""4783D8BA54B34EA79EC251B465CF5FA0"",""assignmentId"":""ac3e8da4-e79d-4dbd-919e-7e2c9a5b48a9"",""projectId"":""051c06f1-75cc-4548-856d-4923ddaba0dc""}","https://test12345.live/?num_scrambled_semantic=8&num_scrambled_causal=4&num_scrambled_schematic=4&participantId=4783D8BA54B34EA79EC251B465CF5FA0&assignmentId=ac3e8da4-e79d-4dbd-919e-7e2c9a5b48a9&projectId=051c06f1-75cc-4548-856d-4923ddaba0dc","4783D8BA54B34EA79EC251B465CF5FA0-2025-05-15-18-56-49","","null","","images/causal_sequence/package_causal/package_causal_8.png","null","",""
"","","","","","image-button-response","111","396461","0.0-14.0-1.0-1.7","4783D8BA54B34EA79EC251B465CF5FA0","4783D8BA54B34EA79EC251B465CF5FA0","ac3e8da4-e79d-4dbd-919e-7e2c9a5b48a9","051c06f1-75cc-4548-856d-4923ddaba0dc","{""num_scrambled_semantic"":""8"",""num_scrambled_causal"":""4"",""num_scrambled_schematic"":""4"",""participantId"":""4783D8BA54B34EA79EC251B465CF5FA0"",""assignmentId"":""ac3e8da4-e79d-4dbd-919e-7e2c9a5b48a9"",""projectId"":""051c06f1-75cc-4548-856d-4923ddaba0dc""}","https://test12345.live/?num_scrambled_semantic=8&num_scrambled_causal=4&num_scrambled_schematic=4&participantId=4783D8BA54B34EA79EC251B465CF5FA0&assignmentId=ac3e8da4-e79d-4dbd-919e-7e2c9a5b48a9&projectId=051c06f1-75cc-4548-856d-4923ddaba0dc","4783D8BA54B34EA79EC251B465CF5FA0-2025-05-15-18-56-49","","681","","images/causal_sequence/package_causal/package_causal_8.png","0","",""
"","","","","","image-button-response","112","398373","0.0-14.0-1.0-2.7","4783D8BA54B34EA79EC251B465CF5FA0","4783D8BA54B34EA79EC251B465CF5FA0","ac3e8da4-e79d-4dbd-919e-7e2c9a5b48a9","051c06f1-75cc-4548-856d-4923ddaba0dc","{""num_scrambled_semantic"":""8"",""num_scrambled_causal"":""4"",""num_scrambled_schematic"":""4"",""participantId"":""4783D8BA54B34EA79EC251B465CF5FA0"",""assignmentId"":""ac3e8da4-e79d-4dbd-919e-7e2c9a5b48a9"",""projectId"":""051c06f1-75cc-4548-856d-4923ddaba0dc""}","https://test12345.live/?num_scrambled_semantic=8&num_scrambled_causal=4&num_scrambled_schematic=4&participantId=4783D8BA54B34EA79EC251B465CF5FA0&assignmentId=ac3e8da4-e79d-4dbd-919e-7e2c9a5b48a9&projectId=051c06f1-75cc-4548-856d-4923ddaba0dc","4783D8BA54B34EA79EC251B465CF5FA0-2025-05-15-18-56-49","","null","","[]","null","",""
"","","","","","image-button-response","113","403354","0.0-14.0-1.0-0.8","4783D8BA54B34EA79EC251B465CF5FA0","4783D8BA54B34EA79EC251B465CF5FA0","ac3e8da4-e79d-4dbd-919e-7e2c9a5b48a9","051c06f1-75cc-4548-856d-4923ddaba0dc","{""num_scrambled_semantic"":""8"",""num_scrambled_causal"":""4"",""num_scrambled_schematic"":""4"",""participantId"":""4783D8BA54B34EA79EC251B465CF5FA0"",""assignmentId"":""ac3e8da4-e79d-4dbd-919e-7e2c9a5b48a9"",""projectId"":""051c06f1-75cc-4548-856d-4923ddaba0dc""}","https://test12345.live/?num_scrambled_semantic=8&num_scrambled_causal=4&num_scrambled_schematic=4&participantId=4783D8BA54B34EA79EC251B465CF5FA0&assignmentId=ac3e8da4-e79d-4dbd-919e-7e2c9a5b48a9&projectId=051c06f1-75cc-4548-856d-4923ddaba0dc","4783D8BA54B34EA79EC251B465CF5FA0-2025-05-15-18-56-49","","null","","images/causal_sequence/package_causal/package_causal_4.png","null","",""
"","","","","","image-button-response","114","404139","0.0-14.0-1.0-1.8","4783D8BA54B34EA79EC251B465CF5FA0","4783D8BA54B34EA79EC251B465CF5FA0","ac3e8da4-e79d-4dbd-919e-7e2c9a5b48a9","051c06f1-75cc-4548-856d-4923ddaba0dc","{""num_scrambled_semantic"":""8"",""num_scrambled_causal"":""4"",""num_scrambled_schematic"":""4"",""participantId"":""4783D8BA54B34EA79EC251B465CF5FA0"",""assignmentId"":""ac3e8da4-e79d-4dbd-919e-7e2c9a5b48a9"",""projectId"":""051c06f1-75cc-4548-856d-4923ddaba0dc""}","https://test12345.live/?num_scrambled_semantic=8&num_scrambled_causal=4&num_scrambled_schematic=4&participantId=4783D8BA54B34EA79EC251B465CF5FA0&assignmentId=ac3e8da4-e79d-4dbd-919e-7e2c9a5b48a9&projectId=051c06f1-75cc-4548-856d-4923ddaba0dc","4783D8BA54B34EA79EC251B465CF5FA0-2025-05-15-18-56-49","","784","","images/causal_sequence/package_causal/package_causal_4.png","0","",""
