"success","timeout","failed_images","failed_audio","failed_video","trial_type","trial_index","time_elapsed","internal_node_id","subject","subject_id","study_id","session_id","urlvar","current_url","audio_id","view_history","rt","device_id","stimulus","response","estimated_stimulus_onset","seq_name"
"true","false","[]","[]","[]","preload","0","22837","0.0-0.0","480FD71754F64F02888991DB1A7ABB5D","480FD71754F64F02888991DB1A7ABB5D","49bc02b4-54ba-42fe-a508-e5d31ca9b036","ba640c14-69c5-453e-80b2-29051492c0e0","{""num_scrambled_semantic"":""8"",""num_scrambled_causal"":""4"",""num_scrambled_schematic"":""4"",""participantId"":""480FD71754F64F02888991DB1A7ABB5D"",""assignmentId"":""49bc02b4-54ba-42fe-a508-e5d31ca9b036"",""projectId"":""ba640c14-69c5-453e-80b2-29051492c0e0""}","https://test12345.live/?num_scrambled_semantic=8&num_scrambled_causal=4&num_scrambled_schematic=4&participantId=480FD71754F64F02888991DB1A7ABB5D&assignmentId=49bc02b4-54ba-42fe-a508-e5d31ca9b036&projectId=ba640c14-69c5-453e-80b2-29051492c0e0","480FD71754F64F02888991DB1A7ABB5D-2025-05-14-20-40-06","","","","","","",""
"","","","","","instructions","1","76618","0.0-1.0","480FD71754F64F02888991DB1A7ABB5D","480FD71754F64F02888991DB1A7ABB5D","49bc02b4-54ba-42fe-a508-e5d31ca9b036","ba640c14-69c5-453e-80b2-29051492c0e0","{""num_scrambled_semantic"":""8"",""num_scrambled_causal"":""4"",""num_scrambled_schematic"":""4"",""participantId"":""480FD71754F64F02888991DB1A7ABB5D"",""assignmentId"":""49bc02b4-54ba-42fe-a508-e5d31ca9b036"",""projectId"":""ba640c14-69c5-453e-80b2-29051492c0e0""}","https://test12345.live/?num_scrambled_semantic=8&num_scrambled_causal=4&num_scrambled_schematic=4&participantId=480FD71754F64F02888991DB1A7ABB5D&assignmentId=49bc02b4-54ba-42fe-a508-e5d31ca9b036&projectId=ba640c14-69c5-453e-80b2-29051492c0e0","480FD71754F64F02888991DB1A7ABB5D-2025-05-14-20-40-06","[{""page_index"":0,""viewing_time"":53781}]","53781","","","","",""
"","","","","","instructions","2","80736","0.0-2.0","480FD71754F64F02888991DB1A7ABB5D","480FD71754F64F02888991DB1A7ABB5D","49bc02b4-54ba-42fe-a508-e5d31ca9b036","ba640c14-69c5-453e-80b2-29051492c0e0","{""num_scrambled_semantic"":""8"",""num_scrambled_causal"":""4"",""num_scrambled_schematic"":""4"",""participantId"":""480FD71754F64F02888991DB1A7ABB5D"",""assignmentId"":""49bc02b4-54ba-42fe-a508-e5d31ca9b036"",""projectId"":""ba640c14-69c5-453e-80b2-29051492c0e0""}","https://test12345.live/?num_scrambled_semantic=8&num_scrambled_causal=4&num_scrambled_schematic=4&participantId=480FD71754F64F02888991DB1A7ABB5D&assignmentId=49bc02b4-54ba-42fe-a508-e5d31ca9b036&projectId=ba640c14-69c5-453e-80b2-29051492c0e0","480FD71754F64F02888991DB1A7ABB5D-2025-05-14-20-40-06","[{""page_index"":0,""viewing_time"":4117}]","4117","","","","",""
"true","","","","","fullscreen","3","88078","0.0-3.0","480FD71754F64F02888991DB1A7ABB5D","480FD71754F64F02888991DB1A7ABB5D","49bc02b4-54ba-42fe-a508-e5d31ca9b036","ba640c14-69c5-453e-80b2-29051492c0e0","{""num_scrambled_semantic"":""8"",""num_scrambled_causal"":""4"",""num_scrambled_schematic"":""4"",""participantId"":""480FD71754F64F02888991DB1A7ABB5D"",""assignmentId"":""49bc02b4-54ba-42fe-a508-e5d31ca9b036"",""projectId"":""ba640c14-69c5-453e-80b2-29051492c0e0""}","https://test12345.live/?num_scrambled_semantic=8&num_scrambled_causal=4&num_scrambled_schematic=4&participantId=480FD71754F64F02888991DB1A7ABB5D&assignmentId=49bc02b4-54ba-42fe-a508-e5d31ca9b036&projectId=ba640c14-69c5-453e-80b2-29051492c0e0","480FD71754F64F02888991DB1A7ABB5D-2025-05-14-20-40-06","","6337","","","","",""
"","","","","","initialize-microphone","4","94233","0.0-4.0-0.0","480FD71754F64F02888991DB1A7ABB5D","480FD71754F64F02888991DB1A7ABB5D","49bc02b4-54ba-42fe-a508-e5d31ca9b036","ba640c14-69c5-453e-80b2-29051492c0e0","{""num_scrambled_semantic"":""8"",""num_scrambled_causal"":""4"",""num_scrambled_schematic"":""4"",""participantId"":""480FD71754F64F02888991DB1A7ABB5D"",""assignmentId"":""49bc02b4-54ba-42fe-a508-e5d31ca9b036"",""projectId"":""ba640c14-69c5-453e-80b2-29051492c0e0""}","https://test12345.live/?num_scrambled_semantic=8&num_scrambled_causal=4&num_scrambled_schematic=4&participantId=480FD71754F64F02888991DB1A7ABB5D&assignmentId=49bc02b4-54ba-42fe-a508-e5d31ca9b036&projectId=ba640c14-69c5-453e-80b2-29051492c0e0","480FD71754F64F02888991DB1A7ABB5D-2025-05-14-20-40-06","","","4e43892f1d4d3c613408f1a571cc1986a1676de389df8add84eaa895f8a35079","","","",""
"","","","","","html-audio-response","5","107488","0.0-4.0-1.0","480FD71754F64F02888991DB1A7ABB5D","480FD71754F64F02888991DB1A7ABB5D","49bc02b4-54ba-42fe-a508-e5d31ca9b036","ba640c14-69c5-453e-80b2-29051492c0e0","{""num_scrambled_semantic"":""8"",""num_scrambled_causal"":""4"",""num_scrambled_schematic"":""4"",""participantId"":""480FD71754F64F02888991DB1A7ABB5D"",""assignmentId"":""49bc02b4-54ba-42fe-a508-e5d31ca9b036"",""projectId"":""ba640c14-69c5-453e-80b2-29051492c0e0""}","https://test12345.live/?num_scrambled_semantic=8&num_scrambled_causal=4&num_scrambled_schematic=4&participantId=480FD71754F64F02888991DB1A7ABB5D&assignmentId=49bc02b4-54ba-42fe-a508-e5d31ca9b036&projectId=ba640c14-69c5-453e-80b2-29051492c0e0","480FD71754F64F02888991DB1A7ABB5D-2025-05-14-20-40-06","","2024","","<span style=""color: red; font-size: 24px""> NOW RECORDING</span>
        <p>Please test Microphone</p>","","10",""
"","","","","","html-button-response","6","109718","0.0-4.0-2.0","480FD71754F64F02888991DB1A7ABB5D","480FD71754F64F02888991DB1A7ABB5D","49bc02b4-54ba-42fe-a508-e5d31ca9b036","ba640c14-69c5-453e-80b2-29051492c0e0","{""num_scrambled_semantic"":""8"",""num_scrambled_causal"":""4"",""num_scrambled_schematic"":""4"",""participantId"":""480FD71754F64F02888991DB1A7ABB5D"",""assignmentId"":""49bc02b4-54ba-42fe-a508-e5d31ca9b036"",""projectId"":""ba640c14-69c5-453e-80b2-29051492c0e0""}","https://test12345.live/?num_scrambled_semantic=8&num_scrambled_causal=4&num_scrambled_schematic=4&participantId=480FD71754F64F02888991DB1A7ABB5D&assignmentId=49bc02b4-54ba-42fe-a508-e5d31ca9b036&projectId=ba640c14-69c5-453e-80b2-29051492c0e0","480FD71754F64F02888991DB1A7ABB5D-2025-05-14-20-40-06","","2229","","<p style=""font-size:48px; color:red;"">Is Microphone OK?</p>","1","",""
"","","","","","instructions","7","124347","0.0-5.0","480FD71754F64F02888991DB1A7ABB5D","480FD71754F64F02888991DB1A7ABB5D","49bc02b4-54ba-42fe-a508-e5d31ca9b036","ba640c14-69c5-453e-80b2-29051492c0e0","{""num_scrambled_semantic"":""8"",""num_scrambled_causal"":""4"",""num_scrambled_schematic"":""4"",""participantId"":""480FD71754F64F02888991DB1A7ABB5D"",""assignmentId"":""49bc02b4-54ba-42fe-a508-e5d31ca9b036"",""projectId"":""ba640c14-69c5-453e-80b2-29051492c0e0""}","https://test12345.live/?num_scrambled_semantic=8&num_scrambled_causal=4&num_scrambled_schematic=4&participantId=480FD71754F64F02888991DB1A7ABB5D&assignmentId=49bc02b4-54ba-42fe-a508-e5d31ca9b036&projectId=ba640c14-69c5-453e-80b2-29051492c0e0","480FD71754F64F02888991DB1A7ABB5D-2025-05-14-20-40-06","[{""page_index"":0,""viewing_time"":1832},{""page_index"":1,""viewing_time"":12796}]","14629","","","","",""
"","","","","","image-button-response","8","130350","0.0-6.0-0.0","480FD71754F64F02888991DB1A7ABB5D","480FD71754F64F02888991DB1A7ABB5D","49bc02b4-54ba-42fe-a508-e5d31ca9b036","ba640c14-69c5-453e-80b2-29051492c0e0","{""num_scrambled_semantic"":""8"",""num_scrambled_causal"":""4"",""num_scrambled_schematic"":""4"",""participantId"":""480FD71754F64F02888991DB1A7ABB5D"",""assignmentId"":""49bc02b4-54ba-42fe-a508-e5d31ca9b036"",""projectId"":""ba640c14-69c5-453e-80b2-29051492c0e0""}","https://test12345.live/?num_scrambled_semantic=8&num_scrambled_causal=4&num_scrambled_schematic=4&participantId=480FD71754F64F02888991DB1A7ABB5D&assignmentId=49bc02b4-54ba-42fe-a508-e5d31ca9b036&projectId=ba640c14-69c5-453e-80b2-29051492c0e0","480FD71754F64F02888991DB1A7ABB5D-2025-05-14-20-40-06","","null","","images/instructions/movie_0.png","null","",""
"","","","","","image-button-response","9","134864","0.0-6.0-1.0-0.0","480FD71754F64F02888991DB1A7ABB5D","480FD71754F64F02888991DB1A7ABB5D","49bc02b4-54ba-42fe-a508-e5d31ca9b036","ba640c14-69c5-453e-80b2-29051492c0e0","{""num_scrambled_semantic"":""8"",""num_scrambled_causal"":""4"",""num_scrambled_schematic"":""4"",""participantId"":""480FD71754F64F02888991DB1A7ABB5D"",""assignmentId"":""49bc02b4-54ba-42fe-a508-e5d31ca9b036"",""projectId"":""ba640c14-69c5-453e-80b2-29051492c0e0""}","https://test12345.live/?num_scrambled_semantic=8&num_scrambled_causal=4&num_scrambled_schematic=4&participantId=480FD71754F64F02888991DB1A7ABB5D&assignmentId=49bc02b4-54ba-42fe-a508-e5d31ca9b036&projectId=ba640c14-69c5-453e-80b2-29051492c0e0","480FD71754F64F02888991DB1A7ABB5D-2025-05-14-20-40-06","","null","","images/instructions/movie_1.png","null","",""
"","","","","","image-button-response","10","137981","0.0-6.0-1.0-1.0","480FD71754F64F02888991DB1A7ABB5D","480FD71754F64F02888991DB1A7ABB5D","49bc02b4-54ba-42fe-a508-e5d31ca9b036","ba640c14-69c5-453e-80b2-29051492c0e0","{""num_scrambled_semantic"":""8"",""num_scrambled_causal"":""4"",""num_scrambled_schematic"":""4"",""participantId"":""480FD71754F64F02888991DB1A7ABB5D"",""assignmentId"":""49bc02b4-54ba-42fe-a508-e5d31ca9b036"",""projectId"":""ba640c14-69c5-453e-80b2-29051492c0e0""}","https://test12345.live/?num_scrambled_semantic=8&num_scrambled_causal=4&num_scrambled_schematic=4&participantId=480FD71754F64F02888991DB1A7ABB5D&assignmentId=49bc02b4-54ba-42fe-a508-e5d31ca9b036&projectId=ba640c14-69c5-453e-80b2-29051492c0e0","480FD71754F64F02888991DB1A7ABB5D-2025-05-14-20-40-06","","3116","","images/instructions/movie_1.png","0","",""
"","","","","","image-button-response","11","139789","0.0-6.0-1.0-2.0","480FD71754F64F02888991DB1A7ABB5D","480FD71754F64F02888991DB1A7ABB5D","49bc02b4-54ba-42fe-a508-e5d31ca9b036","ba640c14-69c5-453e-80b2-29051492c0e0","{""num_scrambled_semantic"":""8"",""num_scrambled_causal"":""4"",""num_scrambled_schematic"":""4"",""participantId"":""480FD71754F64F02888991DB1A7ABB5D"",""assignmentId"":""49bc02b4-54ba-42fe-a508-e5d31ca9b036"",""projectId"":""ba640c14-69c5-453e-80b2-29051492c0e0""}","https://test12345.live/?num_scrambled_semantic=8&num_scrambled_causal=4&num_scrambled_schematic=4&participantId=480FD71754F64F02888991DB1A7ABB5D&assignmentId=49bc02b4-54ba-42fe-a508-e5d31ca9b036&projectId=ba640c14-69c5-453e-80b2-29051492c0e0","480FD71754F64F02888991DB1A7ABB5D-2025-05-14-20-40-06","","null","","[]","null","",""
"","","","","","image-button-response","12","144304","0.0-6.0-1.0-0.1","480FD71754F64F02888991DB1A7ABB5D","480FD71754F64F02888991DB1A7ABB5D","49bc02b4-54ba-42fe-a508-e5d31ca9b036","ba640c14-69c5-453e-80b2-29051492c0e0","{""num_scrambled_semantic"":""8"",""num_scrambled_causal"":""4"",""num_scrambled_schematic"":""4"",""participantId"":""480FD71754F64F02888991DB1A7ABB5D"",""assignmentId"":""49bc02b4-54ba-42fe-a508-e5d31ca9b036"",""projectId"":""ba640c14-69c5-453e-80b2-29051492c0e0""}","https://test12345.live/?num_scrambled_semantic=8&num_scrambled_causal=4&num_scrambled_schematic=4&participantId=480FD71754F64F02888991DB1A7ABB5D&assignmentId=49bc02b4-54ba-42fe-a508-e5d31ca9b036&projectId=ba640c14-69c5-453e-80b2-29051492c0e0","480FD71754F64F02888991DB1A7ABB5D-2025-05-14-20-40-06","","null","","images/instructions/movie_2.png","null","",""
"","","","","","image-button-response","13","146639","0.0-6.0-1.0-1.1","480FD71754F64F02888991DB1A7ABB5D","480FD71754F64F02888991DB1A7ABB5D","49bc02b4-54ba-42fe-a508-e5d31ca9b036","ba640c14-69c5-453e-80b2-29051492c0e0","{""num_scrambled_semantic"":""8"",""num_scrambled_causal"":""4"",""num_scrambled_schematic"":""4"",""participantId"":""480FD71754F64F02888991DB1A7ABB5D"",""assignmentId"":""49bc02b4-54ba-42fe-a508-e5d31ca9b036"",""projectId"":""ba640c14-69c5-453e-80b2-29051492c0e0""}","https://test12345.live/?num_scrambled_semantic=8&num_scrambled_causal=4&num_scrambled_schematic=4&participantId=480FD71754F64F02888991DB1A7ABB5D&assignmentId=49bc02b4-54ba-42fe-a508-e5d31ca9b036&projectId=ba640c14-69c5-453e-80b2-29051492c0e0","480FD71754F64F02888991DB1A7ABB5D-2025-05-14-20-40-06","","2333","","images/instructions/movie_2.png","0","",""
"","","","","","image-button-response","14","148449","0.0-6.0-1.0-2.1","480FD71754F64F02888991DB1A7ABB5D","480FD71754F64F02888991DB1A7ABB5D","49bc02b4-54ba-42fe-a508-e5d31ca9b036","ba640c14-69c5-453e-80b2-29051492c0e0","{""num_scrambled_semantic"":""8"",""num_scrambled_causal"":""4"",""num_scrambled_schematic"":""4"",""participantId"":""480FD71754F64F02888991DB1A7ABB5D"",""assignmentId"":""49bc02b4-54ba-42fe-a508-e5d31ca9b036"",""projectId"":""ba640c14-69c5-453e-80b2-29051492c0e0""}","https://test12345.live/?num_scrambled_semantic=8&num_scrambled_causal=4&num_scrambled_schematic=4&participantId=480FD71754F64F02888991DB1A7ABB5D&assignmentId=49bc02b4-54ba-42fe-a508-e5d31ca9b036&projectId=ba640c14-69c5-453e-80b2-29051492c0e0","480FD71754F64F02888991DB1A7ABB5D-2025-05-14-20-40-06","","null","","[]","null","",""
"","","","","","image-button-response","15","152955","0.0-6.0-1.0-0.2","480FD71754F64F02888991DB1A7ABB5D","480FD71754F64F02888991DB1A7ABB5D","49bc02b4-54ba-42fe-a508-e5d31ca9b036","ba640c14-69c5-453e-80b2-29051492c0e0","{""num_scrambled_semantic"":""8"",""num_scrambled_causal"":""4"",""num_scrambled_schematic"":""4"",""participantId"":""480FD71754F64F02888991DB1A7ABB5D"",""assignmentId"":""49bc02b4-54ba-42fe-a508-e5d31ca9b036"",""projectId"":""ba640c14-69c5-453e-80b2-29051492c0e0""}","https://test12345.live/?num_scrambled_semantic=8&num_scrambled_causal=4&num_scrambled_schematic=4&participantId=480FD71754F64F02888991DB1A7ABB5D&assignmentId=49bc02b4-54ba-42fe-a508-e5d31ca9b036&projectId=ba640c14-69c5-453e-80b2-29051492c0e0","480FD71754F64F02888991DB1A7ABB5D-2025-05-14-20-40-06","","null","","images/instructions/movie_3.png","null","",""
"","","","","","image-button-response","16","154217","0.0-6.0-1.0-1.2","480FD71754F64F02888991DB1A7ABB5D","480FD71754F64F02888991DB1A7ABB5D","49bc02b4-54ba-42fe-a508-e5d31ca9b036","ba640c14-69c5-453e-80b2-29051492c0e0","{""num_scrambled_semantic"":""8"",""num_scrambled_causal"":""4"",""num_scrambled_schematic"":""4"",""participantId"":""480FD71754F64F02888991DB1A7ABB5D"",""assignmentId"":""49bc02b4-54ba-42fe-a508-e5d31ca9b036"",""projectId"":""ba640c14-69c5-453e-80b2-29051492c0e0""}","https://test12345.live/?num_scrambled_semantic=8&num_scrambled_causal=4&num_scrambled_schematic=4&participantId=480FD71754F64F02888991DB1A7ABB5D&assignmentId=49bc02b4-54ba-42fe-a508-e5d31ca9b036&projectId=ba640c14-69c5-453e-80b2-29051492c0e0","480FD71754F64F02888991DB1A7ABB5D-2025-05-14-20-40-06","","1261","","images/instructions/movie_3.png","0","",""
"","","","","","image-button-response","17","156029","0.0-6.0-1.0-2.2","480FD71754F64F02888991DB1A7ABB5D","480FD71754F64F02888991DB1A7ABB5D","49bc02b4-54ba-42fe-a508-e5d31ca9b036","ba640c14-69c5-453e-80b2-29051492c0e0","{""num_scrambled_semantic"":""8"",""num_scrambled_causal"":""4"",""num_scrambled_schematic"":""4"",""participantId"":""480FD71754F64F02888991DB1A7ABB5D"",""assignmentId"":""49bc02b4-54ba-42fe-a508-e5d31ca9b036"",""projectId"":""ba640c14-69c5-453e-80b2-29051492c0e0""}","https://test12345.live/?num_scrambled_semantic=8&num_scrambled_causal=4&num_scrambled_schematic=4&participantId=480FD71754F64F02888991DB1A7ABB5D&assignmentId=49bc02b4-54ba-42fe-a508-e5d31ca9b036&projectId=ba640c14-69c5-453e-80b2-29051492c0e0","480FD71754F64F02888991DB1A7ABB5D-2025-05-14-20-40-06","","null","","[]","null","",""
"","","","","","image-button-response","18","160549","0.0-6.0-1.0-0.3","480FD71754F64F02888991DB1A7ABB5D","480FD71754F64F02888991DB1A7ABB5D","49bc02b4-54ba-42fe-a508-e5d31ca9b036","ba640c14-69c5-453e-80b2-29051492c0e0","{""num_scrambled_semantic"":""8"",""num_scrambled_causal"":""4"",""num_scrambled_schematic"":""4"",""participantId"":""480FD71754F64F02888991DB1A7ABB5D"",""assignmentId"":""49bc02b4-54ba-42fe-a508-e5d31ca9b036"",""projectId"":""ba640c14-69c5-453e-80b2-29051492c0e0""}","https://test12345.live/?num_scrambled_semantic=8&num_scrambled_causal=4&num_scrambled_schematic=4&participantId=480FD71754F64F02888991DB1A7ABB5D&assignmentId=49bc02b4-54ba-42fe-a508-e5d31ca9b036&projectId=ba640c14-69c5-453e-80b2-29051492c0e0","480FD71754F64F02888991DB1A7ABB5D-2025-05-14-20-40-06","","null","","images/instructions/movie_4.png","null","",""
"","","","","","image-button-response","19","162757","0.0-6.0-1.0-1.3","480FD71754F64F02888991DB1A7ABB5D","480FD71754F64F02888991DB1A7ABB5D","49bc02b4-54ba-42fe-a508-e5d31ca9b036","ba640c14-69c5-453e-80b2-29051492c0e0","{""num_scrambled_semantic"":""8"",""num_scrambled_causal"":""4"",""num_scrambled_schematic"":""4"",""participantId"":""480FD71754F64F02888991DB1A7ABB5D"",""assignmentId"":""49bc02b4-54ba-42fe-a508-e5d31ca9b036"",""projectId"":""ba640c14-69c5-453e-80b2-29051492c0e0""}","https://test12345.live/?num_scrambled_semantic=8&num_scrambled_causal=4&num_scrambled_schematic=4&participantId=480FD71754F64F02888991DB1A7ABB5D&assignmentId=49bc02b4-54ba-42fe-a508-e5d31ca9b036&projectId=ba640c14-69c5-453e-80b2-29051492c0e0","480FD71754F64F02888991DB1A7ABB5D-2025-05-14-20-40-06","","2207","","images/instructions/movie_4.png","0","",""
"","","","","","image-button-response","20","164564","0.0-6.0-1.0-2.3","480FD71754F64F02888991DB1A7ABB5D","480FD71754F64F02888991DB1A7ABB5D","49bc02b4-54ba-42fe-a508-e5d31ca9b036","ba640c14-69c5-453e-80b2-29051492c0e0","{""num_scrambled_semantic"":""8"",""num_scrambled_causal"":""4"",""num_scrambled_schematic"":""4"",""participantId"":""480FD71754F64F02888991DB1A7ABB5D"",""assignmentId"":""49bc02b4-54ba-42fe-a508-e5d31ca9b036"",""projectId"":""ba640c14-69c5-453e-80b2-29051492c0e0""}","https://test12345.live/?num_scrambled_semantic=8&num_scrambled_causal=4&num_scrambled_schematic=4&participantId=480FD71754F64F02888991DB1A7ABB5D&assignmentId=49bc02b4-54ba-42fe-a508-e5d31ca9b036&projectId=ba640c14-69c5-453e-80b2-29051492c0e0","480FD71754F64F02888991DB1A7ABB5D-2025-05-14-20-40-06","","null","","[]","null","",""
"","","","","","instructions","21","178876","0.0-7.0","480FD71754F64F02888991DB1A7ABB5D","480FD71754F64F02888991DB1A7ABB5D","49bc02b4-54ba-42fe-a508-e5d31ca9b036","ba640c14-69c5-453e-80b2-29051492c0e0","{""num_scrambled_semantic"":""8"",""num_scrambled_causal"":""4"",""num_scrambled_schematic"":""4"",""participantId"":""480FD71754F64F02888991DB1A7ABB5D"",""assignmentId"":""49bc02b4-54ba-42fe-a508-e5d31ca9b036"",""projectId"":""ba640c14-69c5-453e-80b2-29051492c0e0""}","https://test12345.live/?num_scrambled_semantic=8&num_scrambled_causal=4&num_scrambled_schematic=4&participantId=480FD71754F64F02888991DB1A7ABB5D&assignmentId=49bc02b4-54ba-42fe-a508-e5d31ca9b036&projectId=ba640c14-69c5-453e-80b2-29051492c0e0","480FD71754F64F02888991DB1A7ABB5D-2025-05-14-20-40-06","[{""page_index"":0,""viewing_time"":13051},{""page_index"":1,""viewing_time"":1261}]","14312","","","","",""
"","","","","","html-audio-response","22","218631","0.0-8.0","480FD71754F64F02888991DB1A7ABB5D","480FD71754F64F02888991DB1A7ABB5D","49bc02b4-54ba-42fe-a508-e5d31ca9b036","ba640c14-69c5-453e-80b2-29051492c0e0","{""num_scrambled_semantic"":""8"",""num_scrambled_causal"":""4"",""num_scrambled_schematic"":""4"",""participantId"":""480FD71754F64F02888991DB1A7ABB5D"",""assignmentId"":""49bc02b4-54ba-42fe-a508-e5d31ca9b036"",""projectId"":""ba640c14-69c5-453e-80b2-29051492c0e0""}","https://test12345.live/?num_scrambled_semantic=8&num_scrambled_causal=4&num_scrambled_schematic=4&participantId=480FD71754F64F02888991DB1A7ABB5D&assignmentId=49bc02b4-54ba-42fe-a508-e5d31ca9b036&projectId=ba640c14-69c5-453e-80b2-29051492c0e0","480FD71754F64F02888991DB1A7ABB5D-2025-05-14-20-40-06","","8027","","[""<span style=\""color: red; font-size: 24px\""> NOW RECORDING</span><p>Please say out loud all the images you saw, as many as you can remember. The images can be said in any order.</p>""]","","1",""
"","","","","","instructions","23","219703","0.0-9.0","480FD71754F64F02888991DB1A7ABB5D","480FD71754F64F02888991DB1A7ABB5D","49bc02b4-54ba-42fe-a508-e5d31ca9b036","ba640c14-69c5-453e-80b2-29051492c0e0","{""num_scrambled_semantic"":""8"",""num_scrambled_causal"":""4"",""num_scrambled_schematic"":""4"",""participantId"":""480FD71754F64F02888991DB1A7ABB5D"",""assignmentId"":""49bc02b4-54ba-42fe-a508-e5d31ca9b036"",""projectId"":""ba640c14-69c5-453e-80b2-29051492c0e0""}","https://test12345.live/?num_scrambled_semantic=8&num_scrambled_causal=4&num_scrambled_schematic=4&participantId=480FD71754F64F02888991DB1A7ABB5D&assignmentId=49bc02b4-54ba-42fe-a508-e5d31ca9b036&projectId=ba640c14-69c5-453e-80b2-29051492c0e0","480FD71754F64F02888991DB1A7ABB5D-2025-05-14-20-40-06","[{""page_index"":0,""viewing_time"":1068}]","1068","","","","",""
"","","","","","image-button-response","24","225719","0.0-10.0-0.0","480FD71754F64F02888991DB1A7ABB5D","480FD71754F64F02888991DB1A7ABB5D","49bc02b4-54ba-42fe-a508-e5d31ca9b036","ba640c14-69c5-453e-80b2-29051492c0e0","{""num_scrambled_semantic"":""8"",""num_scrambled_causal"":""4"",""num_scrambled_schematic"":""4"",""participantId"":""480FD71754F64F02888991DB1A7ABB5D"",""assignmentId"":""49bc02b4-54ba-42fe-a508-e5d31ca9b036"",""projectId"":""ba640c14-69c5-453e-80b2-29051492c0e0""}","https://test12345.live/?num_scrambled_semantic=8&num_scrambled_causal=4&num_scrambled_schematic=4&participantId=480FD71754F64F02888991DB1A7ABB5D&assignmentId=49bc02b4-54ba-42fe-a508-e5d31ca9b036&projectId=ba640c14-69c5-453e-80b2-29051492c0e0","480FD71754F64F02888991DB1A7ABB5D-2025-05-14-20-40-06","","null","","images/schematic_sequence/dinner_party_scheme/dinner_party_scheme_0.png","null","",""
"","","","","","image-button-response","25","230229","0.0-10.0-1.0-0.0","480FD71754F64F02888991DB1A7ABB5D","480FD71754F64F02888991DB1A7ABB5D","49bc02b4-54ba-42fe-a508-e5d31ca9b036","ba640c14-69c5-453e-80b2-29051492c0e0","{""num_scrambled_semantic"":""8"",""num_scrambled_causal"":""4"",""num_scrambled_schematic"":""4"",""participantId"":""480FD71754F64F02888991DB1A7ABB5D"",""assignmentId"":""49bc02b4-54ba-42fe-a508-e5d31ca9b036"",""projectId"":""ba640c14-69c5-453e-80b2-29051492c0e0""}","https://test12345.live/?num_scrambled_semantic=8&num_scrambled_causal=4&num_scrambled_schematic=4&participantId=480FD71754F64F02888991DB1A7ABB5D&assignmentId=49bc02b4-54ba-42fe-a508-e5d31ca9b036&projectId=ba640c14-69c5-453e-80b2-29051492c0e0","480FD71754F64F02888991DB1A7ABB5D-2025-05-14-20-40-06","","null","","images/schematic_sequence/dinner_party_scheme/dinner_party_scheme_2.png","null","",""
"","","","","","image-button-response","26","233909","0.0-10.0-1.0-1.0","480FD71754F64F02888991DB1A7ABB5D","480FD71754F64F02888991DB1A7ABB5D","49bc02b4-54ba-42fe-a508-e5d31ca9b036","ba640c14-69c5-453e-80b2-29051492c0e0","{""num_scrambled_semantic"":""8"",""num_scrambled_causal"":""4"",""num_scrambled_schematic"":""4"",""participantId"":""480FD71754F64F02888991DB1A7ABB5D"",""assignmentId"":""49bc02b4-54ba-42fe-a508-e5d31ca9b036"",""projectId"":""ba640c14-69c5-453e-80b2-29051492c0e0""}","https://test12345.live/?num_scrambled_semantic=8&num_scrambled_causal=4&num_scrambled_schematic=4&participantId=480FD71754F64F02888991DB1A7ABB5D&assignmentId=49bc02b4-54ba-42fe-a508-e5d31ca9b036&projectId=ba640c14-69c5-453e-80b2-29051492c0e0","480FD71754F64F02888991DB1A7ABB5D-2025-05-14-20-40-06","","3680","","images/schematic_sequence/dinner_party_scheme/dinner_party_scheme_2.png","0","",""
"","","","","","image-button-response","27","235724","0.0-10.0-1.0-2.0","480FD71754F64F02888991DB1A7ABB5D","480FD71754F64F02888991DB1A7ABB5D","49bc02b4-54ba-42fe-a508-e5d31ca9b036","ba640c14-69c5-453e-80b2-29051492c0e0","{""num_scrambled_semantic"":""8"",""num_scrambled_causal"":""4"",""num_scrambled_schematic"":""4"",""participantId"":""480FD71754F64F02888991DB1A7ABB5D"",""assignmentId"":""49bc02b4-54ba-42fe-a508-e5d31ca9b036"",""projectId"":""ba640c14-69c5-453e-80b2-29051492c0e0""}","https://test12345.live/?num_scrambled_semantic=8&num_scrambled_causal=4&num_scrambled_schematic=4&participantId=480FD71754F64F02888991DB1A7ABB5D&assignmentId=49bc02b4-54ba-42fe-a508-e5d31ca9b036&projectId=ba640c14-69c5-453e-80b2-29051492c0e0","480FD71754F64F02888991DB1A7ABB5D-2025-05-14-20-40-06","","null","","[]","null","",""
"","","","","","image-button-response","28","240226","0.0-10.0-1.0-0.1","480FD71754F64F02888991DB1A7ABB5D","480FD71754F64F02888991DB1A7ABB5D","49bc02b4-54ba-42fe-a508-e5d31ca9b036","ba640c14-69c5-453e-80b2-29051492c0e0","{""num_scrambled_semantic"":""8"",""num_scrambled_causal"":""4"",""num_scrambled_schematic"":""4"",""participantId"":""480FD71754F64F02888991DB1A7ABB5D"",""assignmentId"":""49bc02b4-54ba-42fe-a508-e5d31ca9b036"",""projectId"":""ba640c14-69c5-453e-80b2-29051492c0e0""}","https://test12345.live/?num_scrambled_semantic=8&num_scrambled_causal=4&num_scrambled_schematic=4&participantId=480FD71754F64F02888991DB1A7ABB5D&assignmentId=49bc02b4-54ba-42fe-a508-e5d31ca9b036&projectId=ba640c14-69c5-453e-80b2-29051492c0e0","480FD71754F64F02888991DB1A7ABB5D-2025-05-14-20-40-06","","null","","images/schematic_sequence/dinner_party_scheme/dinner_party_scheme_8.png","null","",""
"","","","","","image-button-response","29","241370","0.0-10.0-1.0-1.1","480FD71754F64F02888991DB1A7ABB5D","480FD71754F64F02888991DB1A7ABB5D","49bc02b4-54ba-42fe-a508-e5d31ca9b036","ba640c14-69c5-453e-80b2-29051492c0e0","{""num_scrambled_semantic"":""8"",""num_scrambled_causal"":""4"",""num_scrambled_schematic"":""4"",""participantId"":""480FD71754F64F02888991DB1A7ABB5D"",""assignmentId"":""49bc02b4-54ba-42fe-a508-e5d31ca9b036"",""projectId"":""ba640c14-69c5-453e-80b2-29051492c0e0""}","https://test12345.live/?num_scrambled_semantic=8&num_scrambled_causal=4&num_scrambled_schematic=4&participantId=480FD71754F64F02888991DB1A7ABB5D&assignmentId=49bc02b4-54ba-42fe-a508-e5d31ca9b036&projectId=ba640c14-69c5-453e-80b2-29051492c0e0","480FD71754F64F02888991DB1A7ABB5D-2025-05-14-20-40-06","","1143","","images/schematic_sequence/dinner_party_scheme/dinner_party_scheme_8.png","0","",""
"","","","","","image-button-response","30","243174","0.0-10.0-1.0-2.1","480FD71754F64F02888991DB1A7ABB5D","480FD71754F64F02888991DB1A7ABB5D","49bc02b4-54ba-42fe-a508-e5d31ca9b036","ba640c14-69c5-453e-80b2-29051492c0e0","{""num_scrambled_semantic"":""8"",""num_scrambled_causal"":""4"",""num_scrambled_schematic"":""4"",""participantId"":""480FD71754F64F02888991DB1A7ABB5D"",""assignmentId"":""49bc02b4-54ba-42fe-a508-e5d31ca9b036"",""projectId"":""ba640c14-69c5-453e-80b2-29051492c0e0""}","https://test12345.live/?num_scrambled_semantic=8&num_scrambled_causal=4&num_scrambled_schematic=4&participantId=480FD71754F64F02888991DB1A7ABB5D&assignmentId=49bc02b4-54ba-42fe-a508-e5d31ca9b036&projectId=ba640c14-69c5-453e-80b2-29051492c0e0","480FD71754F64F02888991DB1A7ABB5D-2025-05-14-20-40-06","","null","","[]","null","",""
"","","","","","image-button-response","31","247684","0.0-10.0-1.0-0.2","480FD71754F64F02888991DB1A7ABB5D","480FD71754F64F02888991DB1A7ABB5D","49bc02b4-54ba-42fe-a508-e5d31ca9b036","ba640c14-69c5-453e-80b2-29051492c0e0","{""num_scrambled_semantic"":""8"",""num_scrambled_causal"":""4"",""num_scrambled_schematic"":""4"",""participantId"":""480FD71754F64F02888991DB1A7ABB5D"",""assignmentId"":""49bc02b4-54ba-42fe-a508-e5d31ca9b036"",""projectId"":""ba640c14-69c5-453e-80b2-29051492c0e0""}","https://test12345.live/?num_scrambled_semantic=8&num_scrambled_causal=4&num_scrambled_schematic=4&participantId=480FD71754F64F02888991DB1A7ABB5D&assignmentId=49bc02b4-54ba-42fe-a508-e5d31ca9b036&projectId=ba640c14-69c5-453e-80b2-29051492c0e0","480FD71754F64F02888991DB1A7ABB5D-2025-05-14-20-40-06","","null","","images/schematic_sequence/dinner_party_scheme/dinner_party_scheme_9.png","null","",""
"","","","","","image-button-response","32","249206","0.0-10.0-1.0-1.2","480FD71754F64F02888991DB1A7ABB5D","480FD71754F64F02888991DB1A7ABB5D","49bc02b4-54ba-42fe-a508-e5d31ca9b036","ba640c14-69c5-453e-80b2-29051492c0e0","{""num_scrambled_semantic"":""8"",""num_scrambled_causal"":""4"",""num_scrambled_schematic"":""4"",""participantId"":""480FD71754F64F02888991DB1A7ABB5D"",""assignmentId"":""49bc02b4-54ba-42fe-a508-e5d31ca9b036"",""projectId"":""ba640c14-69c5-453e-80b2-29051492c0e0""}","https://test12345.live/?num_scrambled_semantic=8&num_scrambled_causal=4&num_scrambled_schematic=4&participantId=480FD71754F64F02888991DB1A7ABB5D&assignmentId=49bc02b4-54ba-42fe-a508-e5d31ca9b036&projectId=ba640c14-69c5-453e-80b2-29051492c0e0","480FD71754F64F02888991DB1A7ABB5D-2025-05-14-20-40-06","","1521","","images/schematic_sequence/dinner_party_scheme/dinner_party_scheme_9.png","0","",""
"","","","","","image-button-response","33","251019","0.0-10.0-1.0-2.2","480FD71754F64F02888991DB1A7ABB5D","480FD71754F64F02888991DB1A7ABB5D","49bc02b4-54ba-42fe-a508-e5d31ca9b036","ba640c14-69c5-453e-80b2-29051492c0e0","{""num_scrambled_semantic"":""8"",""num_scrambled_causal"":""4"",""num_scrambled_schematic"":""4"",""participantId"":""480FD71754F64F02888991DB1A7ABB5D"",""assignmentId"":""49bc02b4-54ba-42fe-a508-e5d31ca9b036"",""projectId"":""ba640c14-69c5-453e-80b2-29051492c0e0""}","https://test12345.live/?num_scrambled_semantic=8&num_scrambled_causal=4&num_scrambled_schematic=4&participantId=480FD71754F64F02888991DB1A7ABB5D&assignmentId=49bc02b4-54ba-42fe-a508-e5d31ca9b036&projectId=ba640c14-69c5-453e-80b2-29051492c0e0","480FD71754F64F02888991DB1A7ABB5D-2025-05-14-20-40-06","","null","","[]","null","",""
"","","","","","image-button-response","34","255539","0.0-10.0-1.0-0.3","480FD71754F64F02888991DB1A7ABB5D","480FD71754F64F02888991DB1A7ABB5D","49bc02b4-54ba-42fe-a508-e5d31ca9b036","ba640c14-69c5-453e-80b2-29051492c0e0","{""num_scrambled_semantic"":""8"",""num_scrambled_causal"":""4"",""num_scrambled_schematic"":""4"",""participantId"":""480FD71754F64F02888991DB1A7ABB5D"",""assignmentId"":""49bc02b4-54ba-42fe-a508-e5d31ca9b036"",""projectId"":""ba640c14-69c5-453e-80b2-29051492c0e0""}","https://test12345.live/?num_scrambled_semantic=8&num_scrambled_causal=4&num_scrambled_schematic=4&participantId=480FD71754F64F02888991DB1A7ABB5D&assignmentId=49bc02b4-54ba-42fe-a508-e5d31ca9b036&projectId=ba640c14-69c5-453e-80b2-29051492c0e0","480FD71754F64F02888991DB1A7ABB5D-2025-05-14-20-40-06","","null","","images/schematic_sequence/dinner_party_scheme/dinner_party_scheme_4.png","null","",""
"","","","","","image-button-response","35","256978","0.0-10.0-1.0-1.3","480FD71754F64F02888991DB1A7ABB5D","480FD71754F64F02888991DB1A7ABB5D","49bc02b4-54ba-42fe-a508-e5d31ca9b036","ba640c14-69c5-453e-80b2-29051492c0e0","{""num_scrambled_semantic"":""8"",""num_scrambled_causal"":""4"",""num_scrambled_schematic"":""4"",""participantId"":""480FD71754F64F02888991DB1A7ABB5D"",""assignmentId"":""49bc02b4-54ba-42fe-a508-e5d31ca9b036"",""projectId"":""ba640c14-69c5-453e-80b2-29051492c0e0""}","https://test12345.live/?num_scrambled_semantic=8&num_scrambled_causal=4&num_scrambled_schematic=4&participantId=480FD71754F64F02888991DB1A7ABB5D&assignmentId=49bc02b4-54ba-42fe-a508-e5d31ca9b036&projectId=ba640c14-69c5-453e-80b2-29051492c0e0","480FD71754F64F02888991DB1A7ABB5D-2025-05-14-20-40-06","","1437","","images/schematic_sequence/dinner_party_scheme/dinner_party_scheme_4.png","0","",""
"","","","","","image-button-response","36","258779","0.0-10.0-1.0-2.3","480FD71754F64F02888991DB1A7ABB5D","480FD71754F64F02888991DB1A7ABB5D","49bc02b4-54ba-42fe-a508-e5d31ca9b036","ba640c14-69c5-453e-80b2-29051492c0e0","{""num_scrambled_semantic"":""8"",""num_scrambled_causal"":""4"",""num_scrambled_schematic"":""4"",""participantId"":""480FD71754F64F02888991DB1A7ABB5D"",""assignmentId"":""49bc02b4-54ba-42fe-a508-e5d31ca9b036"",""projectId"":""ba640c14-69c5-453e-80b2-29051492c0e0""}","https://test12345.live/?num_scrambled_semantic=8&num_scrambled_causal=4&num_scrambled_schematic=4&participantId=480FD71754F64F02888991DB1A7ABB5D&assignmentId=49bc02b4-54ba-42fe-a508-e5d31ca9b036&projectId=ba640c14-69c5-453e-80b2-29051492c0e0","480FD71754F64F02888991DB1A7ABB5D-2025-05-14-20-40-06","","null","","[]","null","",""
"","","","","","image-button-response","37","263294","0.0-10.0-1.0-0.4","480FD71754F64F02888991DB1A7ABB5D","480FD71754F64F02888991DB1A7ABB5D","49bc02b4-54ba-42fe-a508-e5d31ca9b036","ba640c14-69c5-453e-80b2-29051492c0e0","{""num_scrambled_semantic"":""8"",""num_scrambled_causal"":""4"",""num_scrambled_schematic"":""4"",""participantId"":""480FD71754F64F02888991DB1A7ABB5D"",""assignmentId"":""49bc02b4-54ba-42fe-a508-e5d31ca9b036"",""projectId"":""ba640c14-69c5-453e-80b2-29051492c0e0""}","https://test12345.live/?num_scrambled_semantic=8&num_scrambled_causal=4&num_scrambled_schematic=4&participantId=480FD71754F64F02888991DB1A7ABB5D&assignmentId=49bc02b4-54ba-42fe-a508-e5d31ca9b036&projectId=ba640c14-69c5-453e-80b2-29051492c0e0","480FD71754F64F02888991DB1A7ABB5D-2025-05-14-20-40-06","","null","","images/schematic_sequence/dinner_party_scheme/dinner_party_scheme_1.png","null","",""
"","","","","","image-button-response","38","264661","0.0-10.0-1.0-1.4","480FD71754F64F02888991DB1A7ABB5D","480FD71754F64F02888991DB1A7ABB5D","49bc02b4-54ba-42fe-a508-e5d31ca9b036","ba640c14-69c5-453e-80b2-29051492c0e0","{""num_scrambled_semantic"":""8"",""num_scrambled_causal"":""4"",""num_scrambled_schematic"":""4"",""participantId"":""480FD71754F64F02888991DB1A7ABB5D"",""assignmentId"":""49bc02b4-54ba-42fe-a508-e5d31ca9b036"",""projectId"":""ba640c14-69c5-453e-80b2-29051492c0e0""}","https://test12345.live/?num_scrambled_semantic=8&num_scrambled_causal=4&num_scrambled_schematic=4&participantId=480FD71754F64F02888991DB1A7ABB5D&assignmentId=49bc02b4-54ba-42fe-a508-e5d31ca9b036&projectId=ba640c14-69c5-453e-80b2-29051492c0e0","480FD71754F64F02888991DB1A7ABB5D-2025-05-14-20-40-06","","1366","","images/schematic_sequence/dinner_party_scheme/dinner_party_scheme_1.png","0","",""
"","","","","","image-button-response","39","266469","0.0-10.0-1.0-2.4","480FD71754F64F02888991DB1A7ABB5D","480FD71754F64F02888991DB1A7ABB5D","49bc02b4-54ba-42fe-a508-e5d31ca9b036","ba640c14-69c5-453e-80b2-29051492c0e0","{""num_scrambled_semantic"":""8"",""num_scrambled_causal"":""4"",""num_scrambled_schematic"":""4"",""participantId"":""480FD71754F64F02888991DB1A7ABB5D"",""assignmentId"":""49bc02b4-54ba-42fe-a508-e5d31ca9b036"",""projectId"":""ba640c14-69c5-453e-80b2-29051492c0e0""}","https://test12345.live/?num_scrambled_semantic=8&num_scrambled_causal=4&num_scrambled_schematic=4&participantId=480FD71754F64F02888991DB1A7ABB5D&assignmentId=49bc02b4-54ba-42fe-a508-e5d31ca9b036&projectId=ba640c14-69c5-453e-80b2-29051492c0e0","480FD71754F64F02888991DB1A7ABB5D-2025-05-14-20-40-06","","null","","[]","null","",""
"","","","","","image-button-response","40","270989","0.0-10.0-1.0-0.5","480FD71754F64F02888991DB1A7ABB5D","480FD71754F64F02888991DB1A7ABB5D","49bc02b4-54ba-42fe-a508-e5d31ca9b036","ba640c14-69c5-453e-80b2-29051492c0e0","{""num_scrambled_semantic"":""8"",""num_scrambled_causal"":""4"",""num_scrambled_schematic"":""4"",""participantId"":""480FD71754F64F02888991DB1A7ABB5D"",""assignmentId"":""49bc02b4-54ba-42fe-a508-e5d31ca9b036"",""projectId"":""ba640c14-69c5-453e-80b2-29051492c0e0""}","https://test12345.live/?num_scrambled_semantic=8&num_scrambled_causal=4&num_scrambled_schematic=4&participantId=480FD71754F64F02888991DB1A7ABB5D&assignmentId=49bc02b4-54ba-42fe-a508-e5d31ca9b036&projectId=ba640c14-69c5-453e-80b2-29051492c0e0","480FD71754F64F02888991DB1A7ABB5D-2025-05-14-20-40-06","","null","","images/schematic_sequence/dinner_party_scheme/dinner_party_scheme_ten.png","null","",""
"","","","","","image-button-response","41","272199","0.0-10.0-1.0-1.5","480FD71754F64F02888991DB1A7ABB5D","480FD71754F64F02888991DB1A7ABB5D","49bc02b4-54ba-42fe-a508-e5d31ca9b036","ba640c14-69c5-453e-80b2-29051492c0e0","{""num_scrambled_semantic"":""8"",""num_scrambled_causal"":""4"",""num_scrambled_schematic"":""4"",""participantId"":""480FD71754F64F02888991DB1A7ABB5D"",""assignmentId"":""49bc02b4-54ba-42fe-a508-e5d31ca9b036"",""projectId"":""ba640c14-69c5-453e-80b2-29051492c0e0""}","https://test12345.live/?num_scrambled_semantic=8&num_scrambled_causal=4&num_scrambled_schematic=4&participantId=480FD71754F64F02888991DB1A7ABB5D&assignmentId=49bc02b4-54ba-42fe-a508-e5d31ca9b036&projectId=ba640c14-69c5-453e-80b2-29051492c0e0","480FD71754F64F02888991DB1A7ABB5D-2025-05-14-20-40-06","","1209","","images/schematic_sequence/dinner_party_scheme/dinner_party_scheme_ten.png","0","",""
"","","","","","image-button-response","42","274019","0.0-10.0-1.0-2.5","480FD71754F64F02888991DB1A7ABB5D","480FD71754F64F02888991DB1A7ABB5D","49bc02b4-54ba-42fe-a508-e5d31ca9b036","ba640c14-69c5-453e-80b2-29051492c0e0","{""num_scrambled_semantic"":""8"",""num_scrambled_causal"":""4"",""num_scrambled_schematic"":""4"",""participantId"":""480FD71754F64F02888991DB1A7ABB5D"",""assignmentId"":""49bc02b4-54ba-42fe-a508-e5d31ca9b036"",""projectId"":""ba640c14-69c5-453e-80b2-29051492c0e0""}","https://test12345.live/?num_scrambled_semantic=8&num_scrambled_causal=4&num_scrambled_schematic=4&participantId=480FD71754F64F02888991DB1A7ABB5D&assignmentId=49bc02b4-54ba-42fe-a508-e5d31ca9b036&projectId=ba640c14-69c5-453e-80b2-29051492c0e0","480FD71754F64F02888991DB1A7ABB5D-2025-05-14-20-40-06","","null","","[]","null","",""
"","","","","","image-button-response","43","278539","0.0-10.0-1.0-0.6","480FD71754F64F02888991DB1A7ABB5D","480FD71754F64F02888991DB1A7ABB5D","49bc02b4-54ba-42fe-a508-e5d31ca9b036","ba640c14-69c5-453e-80b2-29051492c0e0","{""num_scrambled_semantic"":""8"",""num_scrambled_causal"":""4"",""num_scrambled_schematic"":""4"",""participantId"":""480FD71754F64F02888991DB1A7ABB5D"",""assignmentId"":""49bc02b4-54ba-42fe-a508-e5d31ca9b036"",""projectId"":""ba640c14-69c5-453e-80b2-29051492c0e0""}","https://test12345.live/?num_scrambled_semantic=8&num_scrambled_causal=4&num_scrambled_schematic=4&participantId=480FD71754F64F02888991DB1A7ABB5D&assignmentId=49bc02b4-54ba-42fe-a508-e5d31ca9b036&projectId=ba640c14-69c5-453e-80b2-29051492c0e0","480FD71754F64F02888991DB1A7ABB5D-2025-05-14-20-40-06","","null","","images/schematic_sequence/dinner_party_scheme/dinner_party_scheme_6.png","null","",""
"","","","","","image-button-response","44","279757","0.0-10.0-1.0-1.6","480FD71754F64F02888991DB1A7ABB5D","480FD71754F64F02888991DB1A7ABB5D","49bc02b4-54ba-42fe-a508-e5d31ca9b036","ba640c14-69c5-453e-80b2-29051492c0e0","{""num_scrambled_semantic"":""8"",""num_scrambled_causal"":""4"",""num_scrambled_schematic"":""4"",""participantId"":""480FD71754F64F02888991DB1A7ABB5D"",""assignmentId"":""49bc02b4-54ba-42fe-a508-e5d31ca9b036"",""projectId"":""ba640c14-69c5-453e-80b2-29051492c0e0""}","https://test12345.live/?num_scrambled_semantic=8&num_scrambled_causal=4&num_scrambled_schematic=4&participantId=480FD71754F64F02888991DB1A7ABB5D&assignmentId=49bc02b4-54ba-42fe-a508-e5d31ca9b036&projectId=ba640c14-69c5-453e-80b2-29051492c0e0","480FD71754F64F02888991DB1A7ABB5D-2025-05-14-20-40-06","","1217","","images/schematic_sequence/dinner_party_scheme/dinner_party_scheme_6.png","0","",""
"","","","","","image-button-response","45","281569","0.0-10.0-1.0-2.6","480FD71754F64F02888991DB1A7ABB5D","480FD71754F64F02888991DB1A7ABB5D","49bc02b4-54ba-42fe-a508-e5d31ca9b036","ba640c14-69c5-453e-80b2-29051492c0e0","{""num_scrambled_semantic"":""8"",""num_scrambled_causal"":""4"",""num_scrambled_schematic"":""4"",""participantId"":""480FD71754F64F02888991DB1A7ABB5D"",""assignmentId"":""49bc02b4-54ba-42fe-a508-e5d31ca9b036"",""projectId"":""ba640c14-69c5-453e-80b2-29051492c0e0""}","https://test12345.live/?num_scrambled_semantic=8&num_scrambled_causal=4&num_scrambled_schematic=4&participantId=480FD71754F64F02888991DB1A7ABB5D&assignmentId=49bc02b4-54ba-42fe-a508-e5d31ca9b036&projectId=ba640c14-69c5-453e-80b2-29051492c0e0","480FD71754F64F02888991DB1A7ABB5D-2025-05-14-20-40-06","","null","","[]","null","",""
"","","","","","image-button-response","46","286079","0.0-10.0-1.0-0.7","480FD71754F64F02888991DB1A7ABB5D","480FD71754F64F02888991DB1A7ABB5D","49bc02b4-54ba-42fe-a508-e5d31ca9b036","ba640c14-69c5-453e-80b2-29051492c0e0","{""num_scrambled_semantic"":""8"",""num_scrambled_causal"":""4"",""num_scrambled_schematic"":""4"",""participantId"":""480FD71754F64F02888991DB1A7ABB5D"",""assignmentId"":""49bc02b4-54ba-42fe-a508-e5d31ca9b036"",""projectId"":""ba640c14-69c5-453e-80b2-29051492c0e0""}","https://test12345.live/?num_scrambled_semantic=8&num_scrambled_causal=4&num_scrambled_schematic=4&participantId=480FD71754F64F02888991DB1A7ABB5D&assignmentId=49bc02b4-54ba-42fe-a508-e5d31ca9b036&projectId=ba640c14-69c5-453e-80b2-29051492c0e0","480FD71754F64F02888991DB1A7ABB5D-2025-05-14-20-40-06","","null","","images/schematic_sequence/dinner_party_scheme/dinner_party_scheme_3.png","null","",""
"","","","","","image-button-response","47","286828","0.0-10.0-1.0-1.7","480FD71754F64F02888991DB1A7ABB5D","480FD71754F64F02888991DB1A7ABB5D","49bc02b4-54ba-42fe-a508-e5d31ca9b036","ba640c14-69c5-453e-80b2-29051492c0e0","{""num_scrambled_semantic"":""8"",""num_scrambled_causal"":""4"",""num_scrambled_schematic"":""4"",""participantId"":""480FD71754F64F02888991DB1A7ABB5D"",""assignmentId"":""49bc02b4-54ba-42fe-a508-e5d31ca9b036"",""projectId"":""ba640c14-69c5-453e-80b2-29051492c0e0""}","https://test12345.live/?num_scrambled_semantic=8&num_scrambled_causal=4&num_scrambled_schematic=4&participantId=480FD71754F64F02888991DB1A7ABB5D&assignmentId=49bc02b4-54ba-42fe-a508-e5d31ca9b036&projectId=ba640c14-69c5-453e-80b2-29051492c0e0","480FD71754F64F02888991DB1A7ABB5D-2025-05-14-20-40-06","","748","","images/schematic_sequence/dinner_party_scheme/dinner_party_scheme_3.png","0","",""
"","","","","","image-button-response","48","288638","0.0-10.0-1.0-2.7","480FD71754F64F02888991DB1A7ABB5D","480FD71754F64F02888991DB1A7ABB5D","49bc02b4-54ba-42fe-a508-e5d31ca9b036","ba640c14-69c5-453e-80b2-29051492c0e0","{""num_scrambled_semantic"":""8"",""num_scrambled_causal"":""4"",""num_scrambled_schematic"":""4"",""participantId"":""480FD71754F64F02888991DB1A7ABB5D"",""assignmentId"":""49bc02b4-54ba-42fe-a508-e5d31ca9b036"",""projectId"":""ba640c14-69c5-453e-80b2-29051492c0e0""}","https://test12345.live/?num_scrambled_semantic=8&num_scrambled_causal=4&num_scrambled_schematic=4&participantId=480FD71754F64F02888991DB1A7ABB5D&assignmentId=49bc02b4-54ba-42fe-a508-e5d31ca9b036&projectId=ba640c14-69c5-453e-80b2-29051492c0e0","480FD71754F64F02888991DB1A7ABB5D-2025-05-14-20-40-06","","null","","[]","null","",""
"","","","","","image-button-response","49","293154","0.0-10.0-1.0-0.8","480FD71754F64F02888991DB1A7ABB5D","480FD71754F64F02888991DB1A7ABB5D","49bc02b4-54ba-42fe-a508-e5d31ca9b036","ba640c14-69c5-453e-80b2-29051492c0e0","{""num_scrambled_semantic"":""8"",""num_scrambled_causal"":""4"",""num_scrambled_schematic"":""4"",""participantId"":""480FD71754F64F02888991DB1A7ABB5D"",""assignmentId"":""49bc02b4-54ba-42fe-a508-e5d31ca9b036"",""projectId"":""ba640c14-69c5-453e-80b2-29051492c0e0""}","https://test12345.live/?num_scrambled_semantic=8&num_scrambled_causal=4&num_scrambled_schematic=4&participantId=480FD71754F64F02888991DB1A7ABB5D&assignmentId=49bc02b4-54ba-42fe-a508-e5d31ca9b036&projectId=ba640c14-69c5-453e-80b2-29051492c0e0","480FD71754F64F02888991DB1A7ABB5D-2025-05-14-20-40-06","","null","","images/schematic_sequence/dinner_party_scheme/dinner_party_scheme_7.png","null","",""
"","","","","","image-button-response","50","293843","0.0-10.0-1.0-1.8","480FD71754F64F02888991DB1A7ABB5D","480FD71754F64F02888991DB1A7ABB5D","49bc02b4-54ba-42fe-a508-e5d31ca9b036","ba640c14-69c5-453e-80b2-29051492c0e0","{""num_scrambled_semantic"":""8"",""num_scrambled_causal"":""4"",""num_scrambled_schematic"":""4"",""participantId"":""480FD71754F64F02888991DB1A7ABB5D"",""assignmentId"":""49bc02b4-54ba-42fe-a508-e5d31ca9b036"",""projectId"":""ba640c14-69c5-453e-80b2-29051492c0e0""}","https://test12345.live/?num_scrambled_semantic=8&num_scrambled_causal=4&num_scrambled_schematic=4&participantId=480FD71754F64F02888991DB1A7ABB5D&assignmentId=49bc02b4-54ba-42fe-a508-e5d31ca9b036&projectId=ba640c14-69c5-453e-80b2-29051492c0e0","480FD71754F64F02888991DB1A7ABB5D-2025-05-14-20-40-06","","687","","images/schematic_sequence/dinner_party_scheme/dinner_party_scheme_7.png","0","",""
"","","","","","image-button-response","51","295649","0.0-10.0-1.0-2.8","480FD71754F64F02888991DB1A7ABB5D","480FD71754F64F02888991DB1A7ABB5D","49bc02b4-54ba-42fe-a508-e5d31ca9b036","ba640c14-69c5-453e-80b2-29051492c0e0","{""num_scrambled_semantic"":""8"",""num_scrambled_causal"":""4"",""num_scrambled_schematic"":""4"",""participantId"":""480FD71754F64F02888991DB1A7ABB5D"",""assignmentId"":""49bc02b4-54ba-42fe-a508-e5d31ca9b036"",""projectId"":""ba640c14-69c5-453e-80b2-29051492c0e0""}","https://test12345.live/?num_scrambled_semantic=8&num_scrambled_causal=4&num_scrambled_schematic=4&participantId=480FD71754F64F02888991DB1A7ABB5D&assignmentId=49bc02b4-54ba-42fe-a508-e5d31ca9b036&projectId=ba640c14-69c5-453e-80b2-29051492c0e0","480FD71754F64F02888991DB1A7ABB5D-2025-05-14-20-40-06","","null","","[]","null","",""
"","","","","","image-button-response","52","300169","0.0-10.0-1.0-0.9","480FD71754F64F02888991DB1A7ABB5D","480FD71754F64F02888991DB1A7ABB5D","49bc02b4-54ba-42fe-a508-e5d31ca9b036","ba640c14-69c5-453e-80b2-29051492c0e0","{""num_scrambled_semantic"":""8"",""num_scrambled_causal"":""4"",""num_scrambled_schematic"":""4"",""participantId"":""480FD71754F64F02888991DB1A7ABB5D"",""assignmentId"":""49bc02b4-54ba-42fe-a508-e5d31ca9b036"",""projectId"":""ba640c14-69c5-453e-80b2-29051492c0e0""}","https://test12345.live/?num_scrambled_semantic=8&num_scrambled_causal=4&num_scrambled_schematic=4&participantId=480FD71754F64F02888991DB1A7ABB5D&assignmentId=49bc02b4-54ba-42fe-a508-e5d31ca9b036&projectId=ba640c14-69c5-453e-80b2-29051492c0e0","480FD71754F64F02888991DB1A7ABB5D-2025-05-14-20-40-06","","null","","images/schematic_sequence/dinner_party_scheme/dinner_party_scheme_5.png","null","",""
"","","","","","image-button-response","53","301496","0.0-10.0-1.0-1.9","480FD71754F64F02888991DB1A7ABB5D","480FD71754F64F02888991DB1A7ABB5D","49bc02b4-54ba-42fe-a508-e5d31ca9b036","ba640c14-69c5-453e-80b2-29051492c0e0","{""num_scrambled_semantic"":""8"",""num_scrambled_causal"":""4"",""num_scrambled_schematic"":""4"",""participantId"":""480FD71754F64F02888991DB1A7ABB5D"",""assignmentId"":""49bc02b4-54ba-42fe-a508-e5d31ca9b036"",""projectId"":""ba640c14-69c5-453e-80b2-29051492c0e0""}","https://test12345.live/?num_scrambled_semantic=8&num_scrambled_causal=4&num_scrambled_schematic=4&participantId=480FD71754F64F02888991DB1A7ABB5D&assignmentId=49bc02b4-54ba-42fe-a508-e5d31ca9b036&projectId=ba640c14-69c5-453e-80b2-29051492c0e0","480FD71754F64F02888991DB1A7ABB5D-2025-05-14-20-40-06","","1326","","images/schematic_sequence/dinner_party_scheme/dinner_party_scheme_5.png","0","",""
"","","","","","image-button-response","54","303304","0.0-10.0-1.0-2.9","480FD71754F64F02888991DB1A7ABB5D","480FD71754F64F02888991DB1A7ABB5D","49bc02b4-54ba-42fe-a508-e5d31ca9b036","ba640c14-69c5-453e-80b2-29051492c0e0","{""num_scrambled_semantic"":""8"",""num_scrambled_causal"":""4"",""num_scrambled_schematic"":""4"",""participantId"":""480FD71754F64F02888991DB1A7ABB5D"",""assignmentId"":""49bc02b4-54ba-42fe-a508-e5d31ca9b036"",""projectId"":""ba640c14-69c5-453e-80b2-29051492c0e0""}","https://test12345.live/?num_scrambled_semantic=8&num_scrambled_causal=4&num_scrambled_schematic=4&participantId=480FD71754F64F02888991DB1A7ABB5D&assignmentId=49bc02b4-54ba-42fe-a508-e5d31ca9b036&projectId=ba640c14-69c5-453e-80b2-29051492c0e0","480FD71754F64F02888991DB1A7ABB5D-2025-05-14-20-40-06","","null","","[]","null","",""
"","","","","","html-audio-response","55","348274","0.0-11.0","480FD71754F64F02888991DB1A7ABB5D","480FD71754F64F02888991DB1A7ABB5D","49bc02b4-54ba-42fe-a508-e5d31ca9b036","ba640c14-69c5-453e-80b2-29051492c0e0","{""num_scrambled_semantic"":""8"",""num_scrambled_causal"":""4"",""num_scrambled_schematic"":""4"",""participantId"":""480FD71754F64F02888991DB1A7ABB5D"",""assignmentId"":""49bc02b4-54ba-42fe-a508-e5d31ca9b036"",""projectId"":""ba640c14-69c5-453e-80b2-29051492c0e0""}","https://test12345.live/?num_scrambled_semantic=8&num_scrambled_causal=4&num_scrambled_schematic=4&participantId=480FD71754F64F02888991DB1A7ABB5D&assignmentId=49bc02b4-54ba-42fe-a508-e5d31ca9b036&projectId=ba640c14-69c5-453e-80b2-29051492c0e0","480FD71754F64F02888991DB1A7ABB5D-2025-05-14-20-40-06","","36038","","[""<span style=\""color: red; font-size: 24px\""> NOW RECORDING</span><p>Please say out loud all the images you saw, as many as you can remember. The images can be said in any order.</p>""]","","1","dinner_party_scheme"
"","","","","","image-button-response","56","354299","0.0-12.0-0.0","480FD71754F64F02888991DB1A7ABB5D","480FD71754F64F02888991DB1A7ABB5D","49bc02b4-54ba-42fe-a508-e5d31ca9b036","ba640c14-69c5-453e-80b2-29051492c0e0","{""num_scrambled_semantic"":""8"",""num_scrambled_causal"":""4"",""num_scrambled_schematic"":""4"",""participantId"":""480FD71754F64F02888991DB1A7ABB5D"",""assignmentId"":""49bc02b4-54ba-42fe-a508-e5d31ca9b036"",""projectId"":""ba640c14-69c5-453e-80b2-29051492c0e0""}","https://test12345.live/?num_scrambled_semantic=8&num_scrambled_causal=4&num_scrambled_schematic=4&participantId=480FD71754F64F02888991DB1A7ABB5D&assignmentId=49bc02b4-54ba-42fe-a508-e5d31ca9b036&projectId=ba640c14-69c5-453e-80b2-29051492c0e0","480FD71754F64F02888991DB1A7ABB5D-2025-05-14-20-40-06","","null","","images/causal_sequence/museum_causal/museum_causal_0.png","null","",""
"","","","","","image-button-response","57","358814","0.0-12.0-1.0-0.0","480FD71754F64F02888991DB1A7ABB5D","480FD71754F64F02888991DB1A7ABB5D","49bc02b4-54ba-42fe-a508-e5d31ca9b036","ba640c14-69c5-453e-80b2-29051492c0e0","{""num_scrambled_semantic"":""8"",""num_scrambled_causal"":""4"",""num_scrambled_schematic"":""4"",""participantId"":""480FD71754F64F02888991DB1A7ABB5D"",""assignmentId"":""49bc02b4-54ba-42fe-a508-e5d31ca9b036"",""projectId"":""ba640c14-69c5-453e-80b2-29051492c0e0""}","https://test12345.live/?num_scrambled_semantic=8&num_scrambled_causal=4&num_scrambled_schematic=4&participantId=480FD71754F64F02888991DB1A7ABB5D&assignmentId=49bc02b4-54ba-42fe-a508-e5d31ca9b036&projectId=ba640c14-69c5-453e-80b2-29051492c0e0","480FD71754F64F02888991DB1A7ABB5D-2025-05-14-20-40-06","","null","","images/causal_sequence/museum_causal/museum_causal_8.png","null","",""
"","","","","","image-button-response","58","360577","0.0-12.0-1.0-1.0","480FD71754F64F02888991DB1A7ABB5D","480FD71754F64F02888991DB1A7ABB5D","49bc02b4-54ba-42fe-a508-e5d31ca9b036","ba640c14-69c5-453e-80b2-29051492c0e0","{""num_scrambled_semantic"":""8"",""num_scrambled_causal"":""4"",""num_scrambled_schematic"":""4"",""participantId"":""480FD71754F64F02888991DB1A7ABB5D"",""assignmentId"":""49bc02b4-54ba-42fe-a508-e5d31ca9b036"",""projectId"":""ba640c14-69c5-453e-80b2-29051492c0e0""}","https://test12345.live/?num_scrambled_semantic=8&num_scrambled_causal=4&num_scrambled_schematic=4&participantId=480FD71754F64F02888991DB1A7ABB5D&assignmentId=49bc02b4-54ba-42fe-a508-e5d31ca9b036&projectId=ba640c14-69c5-453e-80b2-29051492c0e0","480FD71754F64F02888991DB1A7ABB5D-2025-05-14-20-40-06","","1762","","images/causal_sequence/museum_causal/museum_causal_8.png","0","",""
"","","","","","image-button-response","59","362379","0.0-12.0-1.0-2.0","480FD71754F64F02888991DB1A7ABB5D","480FD71754F64F02888991DB1A7ABB5D","49bc02b4-54ba-42fe-a508-e5d31ca9b036","ba640c14-69c5-453e-80b2-29051492c0e0","{""num_scrambled_semantic"":""8"",""num_scrambled_causal"":""4"",""num_scrambled_schematic"":""4"",""participantId"":""480FD71754F64F02888991DB1A7ABB5D"",""assignmentId"":""49bc02b4-54ba-42fe-a508-e5d31ca9b036"",""projectId"":""ba640c14-69c5-453e-80b2-29051492c0e0""}","https://test12345.live/?num_scrambled_semantic=8&num_scrambled_causal=4&num_scrambled_schematic=4&participantId=480FD71754F64F02888991DB1A7ABB5D&assignmentId=49bc02b4-54ba-42fe-a508-e5d31ca9b036&projectId=ba640c14-69c5-453e-80b2-29051492c0e0","480FD71754F64F02888991DB1A7ABB5D-2025-05-14-20-40-06","","null","","[]","null","",""
"","","","","","image-button-response","60","366894","0.0-12.0-1.0-0.1","480FD71754F64F02888991DB1A7ABB5D","480FD71754F64F02888991DB1A7ABB5D","49bc02b4-54ba-42fe-a508-e5d31ca9b036","ba640c14-69c5-453e-80b2-29051492c0e0","{""num_scrambled_semantic"":""8"",""num_scrambled_causal"":""4"",""num_scrambled_schematic"":""4"",""participantId"":""480FD71754F64F02888991DB1A7ABB5D"",""assignmentId"":""49bc02b4-54ba-42fe-a508-e5d31ca9b036"",""projectId"":""ba640c14-69c5-453e-80b2-29051492c0e0""}","https://test12345.live/?num_scrambled_semantic=8&num_scrambled_causal=4&num_scrambled_schematic=4&participantId=480FD71754F64F02888991DB1A7ABB5D&assignmentId=49bc02b4-54ba-42fe-a508-e5d31ca9b036&projectId=ba640c14-69c5-453e-80b2-29051492c0e0","480FD71754F64F02888991DB1A7ABB5D-2025-05-14-20-40-06","","null","","images/causal_sequence/museum_causal/museum_causal_ten.png","null","",""
"","","","","","image-button-response","61","368121","0.0-12.0-1.0-1.1","480FD71754F64F02888991DB1A7ABB5D","480FD71754F64F02888991DB1A7ABB5D","49bc02b4-54ba-42fe-a508-e5d31ca9b036","ba640c14-69c5-453e-80b2-29051492c0e0","{""num_scrambled_semantic"":""8"",""num_scrambled_causal"":""4"",""num_scrambled_schematic"":""4"",""participantId"":""480FD71754F64F02888991DB1A7ABB5D"",""assignmentId"":""49bc02b4-54ba-42fe-a508-e5d31ca9b036"",""projectId"":""ba640c14-69c5-453e-80b2-29051492c0e0""}","https://test12345.live/?num_scrambled_semantic=8&num_scrambled_causal=4&num_scrambled_schematic=4&participantId=480FD71754F64F02888991DB1A7ABB5D&assignmentId=49bc02b4-54ba-42fe-a508-e5d31ca9b036&projectId=ba640c14-69c5-453e-80b2-29051492c0e0","480FD71754F64F02888991DB1A7ABB5D-2025-05-14-20-40-06","","1226","","images/causal_sequence/museum_causal/museum_causal_ten.png","0","",""
"","","","","","image-button-response","62","369939","0.0-12.0-1.0-2.1","480FD71754F64F02888991DB1A7ABB5D","480FD71754F64F02888991DB1A7ABB5D","49bc02b4-54ba-42fe-a508-e5d31ca9b036","ba640c14-69c5-453e-80b2-29051492c0e0","{""num_scrambled_semantic"":""8"",""num_scrambled_causal"":""4"",""num_scrambled_schematic"":""4"",""participantId"":""480FD71754F64F02888991DB1A7ABB5D"",""assignmentId"":""49bc02b4-54ba-42fe-a508-e5d31ca9b036"",""projectId"":""ba640c14-69c5-453e-80b2-29051492c0e0""}","https://test12345.live/?num_scrambled_semantic=8&num_scrambled_causal=4&num_scrambled_schematic=4&participantId=480FD71754F64F02888991DB1A7ABB5D&assignmentId=49bc02b4-54ba-42fe-a508-e5d31ca9b036&projectId=ba640c14-69c5-453e-80b2-29051492c0e0","480FD71754F64F02888991DB1A7ABB5D-2025-05-14-20-40-06","","null","","[]","null","",""
"","","","","","image-button-response","63","374449","0.0-12.0-1.0-0.2","480FD71754F64F02888991DB1A7ABB5D","480FD71754F64F02888991DB1A7ABB5D","49bc02b4-54ba-42fe-a508-e5d31ca9b036","ba640c14-69c5-453e-80b2-29051492c0e0","{""num_scrambled_semantic"":""8"",""num_scrambled_causal"":""4"",""num_scrambled_schematic"":""4"",""participantId"":""480FD71754F64F02888991DB1A7ABB5D"",""assignmentId"":""49bc02b4-54ba-42fe-a508-e5d31ca9b036"",""projectId"":""ba640c14-69c5-453e-80b2-29051492c0e0""}","https://test12345.live/?num_scrambled_semantic=8&num_scrambled_causal=4&num_scrambled_schematic=4&participantId=480FD71754F64F02888991DB1A7ABB5D&assignmentId=49bc02b4-54ba-42fe-a508-e5d31ca9b036&projectId=ba640c14-69c5-453e-80b2-29051492c0e0","480FD71754F64F02888991DB1A7ABB5D-2025-05-14-20-40-06","","null","","images/causal_sequence/museum_causal/museum_causal_5.png","null","",""
"","","","","","image-button-response","64","376521","0.0-12.0-1.0-1.2","480FD71754F64F02888991DB1A7ABB5D","480FD71754F64F02888991DB1A7ABB5D","49bc02b4-54ba-42fe-a508-e5d31ca9b036","ba640c14-69c5-453e-80b2-29051492c0e0","{""num_scrambled_semantic"":""8"",""num_scrambled_causal"":""4"",""num_scrambled_schematic"":""4"",""participantId"":""480FD71754F64F02888991DB1A7ABB5D"",""assignmentId"":""49bc02b4-54ba-42fe-a508-e5d31ca9b036"",""projectId"":""ba640c14-69c5-453e-80b2-29051492c0e0""}","https://test12345.live/?num_scrambled_semantic=8&num_scrambled_causal=4&num_scrambled_schematic=4&participantId=480FD71754F64F02888991DB1A7ABB5D&assignmentId=49bc02b4-54ba-42fe-a508-e5d31ca9b036&projectId=ba640c14-69c5-453e-80b2-29051492c0e0","480FD71754F64F02888991DB1A7ABB5D-2025-05-14-20-40-06","","2071","","images/causal_sequence/museum_causal/museum_causal_5.png","0","",""
"","","","","","image-button-response","65","378325","0.0-12.0-1.0-2.2","480FD71754F64F02888991DB1A7ABB5D","480FD71754F64F02888991DB1A7ABB5D","49bc02b4-54ba-42fe-a508-e5d31ca9b036","ba640c14-69c5-453e-80b2-29051492c0e0","{""num_scrambled_semantic"":""8"",""num_scrambled_causal"":""4"",""num_scrambled_schematic"":""4"",""participantId"":""480FD71754F64F02888991DB1A7ABB5D"",""assignmentId"":""49bc02b4-54ba-42fe-a508-e5d31ca9b036"",""projectId"":""ba640c14-69c5-453e-80b2-29051492c0e0""}","https://test12345.live/?num_scrambled_semantic=8&num_scrambled_causal=4&num_scrambled_schematic=4&participantId=480FD71754F64F02888991DB1A7ABB5D&assignmentId=49bc02b4-54ba-42fe-a508-e5d31ca9b036&projectId=ba640c14-69c5-453e-80b2-29051492c0e0","480FD71754F64F02888991DB1A7ABB5D-2025-05-14-20-40-06","","null","","[]","null","",""
"","","","","","image-button-response","66","382837","0.0-12.0-1.0-0.3","480FD71754F64F02888991DB1A7ABB5D","480FD71754F64F02888991DB1A7ABB5D","49bc02b4-54ba-42fe-a508-e5d31ca9b036","ba640c14-69c5-453e-80b2-29051492c0e0","{""num_scrambled_semantic"":""8"",""num_scrambled_causal"":""4"",""num_scrambled_schematic"":""4"",""participantId"":""480FD71754F64F02888991DB1A7ABB5D"",""assignmentId"":""49bc02b4-54ba-42fe-a508-e5d31ca9b036"",""projectId"":""ba640c14-69c5-453e-80b2-29051492c0e0""}","https://test12345.live/?num_scrambled_semantic=8&num_scrambled_causal=4&num_scrambled_schematic=4&participantId=480FD71754F64F02888991DB1A7ABB5D&assignmentId=49bc02b4-54ba-42fe-a508-e5d31ca9b036&projectId=ba640c14-69c5-453e-80b2-29051492c0e0","480FD71754F64F02888991DB1A7ABB5D-2025-05-14-20-40-06","","null","","images/causal_sequence/museum_causal/museum_causal_7.png","null","",""
"","","","","","image-button-response","67","385799","0.0-12.0-1.0-1.3","480FD71754F64F02888991DB1A7ABB5D","480FD71754F64F02888991DB1A7ABB5D","49bc02b4-54ba-42fe-a508-e5d31ca9b036","ba640c14-69c5-453e-80b2-29051492c0e0","{""num_scrambled_semantic"":""8"",""num_scrambled_causal"":""4"",""num_scrambled_schematic"":""4"",""participantId"":""480FD71754F64F02888991DB1A7ABB5D"",""assignmentId"":""49bc02b4-54ba-42fe-a508-e5d31ca9b036"",""projectId"":""ba640c14-69c5-453e-80b2-29051492c0e0""}","https://test12345.live/?num_scrambled_semantic=8&num_scrambled_causal=4&num_scrambled_schematic=4&participantId=480FD71754F64F02888991DB1A7ABB5D&assignmentId=49bc02b4-54ba-42fe-a508-e5d31ca9b036&projectId=ba640c14-69c5-453e-80b2-29051492c0e0","480FD71754F64F02888991DB1A7ABB5D-2025-05-14-20-40-06","","2962","","images/causal_sequence/museum_causal/museum_causal_7.png","1","",""
"","","","","","image-button-response","68","387609","0.0-12.0-1.0-2.3","480FD71754F64F02888991DB1A7ABB5D","480FD71754F64F02888991DB1A7ABB5D","49bc02b4-54ba-42fe-a508-e5d31ca9b036","ba640c14-69c5-453e-80b2-29051492c0e0","{""num_scrambled_semantic"":""8"",""num_scrambled_causal"":""4"",""num_scrambled_schematic"":""4"",""participantId"":""480FD71754F64F02888991DB1A7ABB5D"",""assignmentId"":""49bc02b4-54ba-42fe-a508-e5d31ca9b036"",""projectId"":""ba640c14-69c5-453e-80b2-29051492c0e0""}","https://test12345.live/?num_scrambled_semantic=8&num_scrambled_causal=4&num_scrambled_schematic=4&participantId=480FD71754F64F02888991DB1A7ABB5D&assignmentId=49bc02b4-54ba-42fe-a508-e5d31ca9b036&projectId=ba640c14-69c5-453e-80b2-29051492c0e0","480FD71754F64F02888991DB1A7ABB5D-2025-05-14-20-40-06","","null","","[]","null","",""
"","","","","","image-button-response","69","392110","0.0-12.0-1.0-0.4","480FD71754F64F02888991DB1A7ABB5D","480FD71754F64F02888991DB1A7ABB5D","49bc02b4-54ba-42fe-a508-e5d31ca9b036","ba640c14-69c5-453e-80b2-29051492c0e0","{""num_scrambled_semantic"":""8"",""num_scrambled_causal"":""4"",""num_scrambled_schematic"":""4"",""participantId"":""480FD71754F64F02888991DB1A7ABB5D"",""assignmentId"":""49bc02b4-54ba-42fe-a508-e5d31ca9b036"",""projectId"":""ba640c14-69c5-453e-80b2-29051492c0e0""}","https://test12345.live/?num_scrambled_semantic=8&num_scrambled_causal=4&num_scrambled_schematic=4&participantId=480FD71754F64F02888991DB1A7ABB5D&assignmentId=49bc02b4-54ba-42fe-a508-e5d31ca9b036&projectId=ba640c14-69c5-453e-80b2-29051492c0e0","480FD71754F64F02888991DB1A7ABB5D-2025-05-14-20-40-06","","null","","images/causal_sequence/museum_causal/museum_causal_4.png","null","",""
"","","","","","image-button-response","70","394403","0.0-12.0-1.0-1.4","480FD71754F64F02888991DB1A7ABB5D","480FD71754F64F02888991DB1A7ABB5D","49bc02b4-54ba-42fe-a508-e5d31ca9b036","ba640c14-69c5-453e-80b2-29051492c0e0","{""num_scrambled_semantic"":""8"",""num_scrambled_causal"":""4"",""num_scrambled_schematic"":""4"",""participantId"":""480FD71754F64F02888991DB1A7ABB5D"",""assignmentId"":""49bc02b4-54ba-42fe-a508-e5d31ca9b036"",""projectId"":""ba640c14-69c5-453e-80b2-29051492c0e0""}","https://test12345.live/?num_scrambled_semantic=8&num_scrambled_causal=4&num_scrambled_schematic=4&participantId=480FD71754F64F02888991DB1A7ABB5D&assignmentId=49bc02b4-54ba-42fe-a508-e5d31ca9b036&projectId=ba640c14-69c5-453e-80b2-29051492c0e0","480FD71754F64F02888991DB1A7ABB5D-2025-05-14-20-40-06","","2292","","images/causal_sequence/museum_causal/museum_causal_4.png","1","",""
"","","","","","image-button-response","71","396219","0.0-12.0-1.0-2.4","480FD71754F64F02888991DB1A7ABB5D","480FD71754F64F02888991DB1A7ABB5D","49bc02b4-54ba-42fe-a508-e5d31ca9b036","ba640c14-69c5-453e-80b2-29051492c0e0","{""num_scrambled_semantic"":""8"",""num_scrambled_causal"":""4"",""num_scrambled_schematic"":""4"",""participantId"":""480FD71754F64F02888991DB1A7ABB5D"",""assignmentId"":""49bc02b4-54ba-42fe-a508-e5d31ca9b036"",""projectId"":""ba640c14-69c5-453e-80b2-29051492c0e0""}","https://test12345.live/?num_scrambled_semantic=8&num_scrambled_causal=4&num_scrambled_schematic=4&participantId=480FD71754F64F02888991DB1A7ABB5D&assignmentId=49bc02b4-54ba-42fe-a508-e5d31ca9b036&projectId=ba640c14-69c5-453e-80b2-29051492c0e0","480FD71754F64F02888991DB1A7ABB5D-2025-05-14-20-40-06","","null","","[]","null","",""
"","","","","","image-button-response","72","400730","0.0-12.0-1.0-0.5","480FD71754F64F02888991DB1A7ABB5D","480FD71754F64F02888991DB1A7ABB5D","49bc02b4-54ba-42fe-a508-e5d31ca9b036","ba640c14-69c5-453e-80b2-29051492c0e0","{""num_scrambled_semantic"":""8"",""num_scrambled_causal"":""4"",""num_scrambled_schematic"":""4"",""participantId"":""480FD71754F64F02888991DB1A7ABB5D"",""assignmentId"":""49bc02b4-54ba-42fe-a508-e5d31ca9b036"",""projectId"":""ba640c14-69c5-453e-80b2-29051492c0e0""}","https://test12345.live/?num_scrambled_semantic=8&num_scrambled_causal=4&num_scrambled_schematic=4&participantId=480FD71754F64F02888991DB1A7ABB5D&assignmentId=49bc02b4-54ba-42fe-a508-e5d31ca9b036&projectId=ba640c14-69c5-453e-80b2-29051492c0e0","480FD71754F64F02888991DB1A7ABB5D-2025-05-14-20-40-06","","null","","images/causal_sequence/museum_causal/museum_causal_9.png","null","",""
"","","","","","image-button-response","73","402010","0.0-12.0-1.0-1.5","480FD71754F64F02888991DB1A7ABB5D","480FD71754F64F02888991DB1A7ABB5D","49bc02b4-54ba-42fe-a508-e5d31ca9b036","ba640c14-69c5-453e-80b2-29051492c0e0","{""num_scrambled_semantic"":""8"",""num_scrambled_causal"":""4"",""num_scrambled_schematic"":""4"",""participantId"":""480FD71754F64F02888991DB1A7ABB5D"",""assignmentId"":""49bc02b4-54ba-42fe-a508-e5d31ca9b036"",""projectId"":""ba640c14-69c5-453e-80b2-29051492c0e0""}","https://test12345.live/?num_scrambled_semantic=8&num_scrambled_causal=4&num_scrambled_schematic=4&participantId=480FD71754F64F02888991DB1A7ABB5D&assignmentId=49bc02b4-54ba-42fe-a508-e5d31ca9b036&projectId=ba640c14-69c5-453e-80b2-29051492c0e0","480FD71754F64F02888991DB1A7ABB5D-2025-05-14-20-40-06","","1279","","images/causal_sequence/museum_causal/museum_causal_9.png","1","",""
"","","","","","image-button-response","74","403829","0.0-12.0-1.0-2.5","480FD71754F64F02888991DB1A7ABB5D","480FD71754F64F02888991DB1A7ABB5D","49bc02b4-54ba-42fe-a508-e5d31ca9b036","ba640c14-69c5-453e-80b2-29051492c0e0","{""num_scrambled_semantic"":""8"",""num_scrambled_causal"":""4"",""num_scrambled_schematic"":""4"",""participantId"":""480FD71754F64F02888991DB1A7ABB5D"",""assignmentId"":""49bc02b4-54ba-42fe-a508-e5d31ca9b036"",""projectId"":""ba640c14-69c5-453e-80b2-29051492c0e0""}","https://test12345.live/?num_scrambled_semantic=8&num_scrambled_causal=4&num_scrambled_schematic=4&participantId=480FD71754F64F02888991DB1A7ABB5D&assignmentId=49bc02b4-54ba-42fe-a508-e5d31ca9b036&projectId=ba640c14-69c5-453e-80b2-29051492c0e0","480FD71754F64F02888991DB1A7ABB5D-2025-05-14-20-40-06","","null","","[]","null","",""
"","","","","","image-button-response","75","408334","0.0-12.0-1.0-0.6","480FD71754F64F02888991DB1A7ABB5D","480FD71754F64F02888991DB1A7ABB5D","49bc02b4-54ba-42fe-a508-e5d31ca9b036","ba640c14-69c5-453e-80b2-29051492c0e0","{""num_scrambled_semantic"":""8"",""num_scrambled_causal"":""4"",""num_scrambled_schematic"":""4"",""participantId"":""480FD71754F64F02888991DB1A7ABB5D"",""assignmentId"":""49bc02b4-54ba-42fe-a508-e5d31ca9b036"",""projectId"":""ba640c14-69c5-453e-80b2-29051492c0e0""}","https://test12345.live/?num_scrambled_semantic=8&num_scrambled_causal=4&num_scrambled_schematic=4&participantId=480FD71754F64F02888991DB1A7ABB5D&assignmentId=49bc02b4-54ba-42fe-a508-e5d31ca9b036&projectId=ba640c14-69c5-453e-80b2-29051492c0e0","480FD71754F64F02888991DB1A7ABB5D-2025-05-14-20-40-06","","null","","images/causal_sequence/museum_causal/museum_causal_3.png","null","",""
"","","","","","image-button-response","76","410320","0.0-12.0-1.0-1.6","480FD71754F64F02888991DB1A7ABB5D","480FD71754F64F02888991DB1A7ABB5D","49bc02b4-54ba-42fe-a508-e5d31ca9b036","ba640c14-69c5-453e-80b2-29051492c0e0","{""num_scrambled_semantic"":""8"",""num_scrambled_causal"":""4"",""num_scrambled_schematic"":""4"",""participantId"":""480FD71754F64F02888991DB1A7ABB5D"",""assignmentId"":""49bc02b4-54ba-42fe-a508-e5d31ca9b036"",""projectId"":""ba640c14-69c5-453e-80b2-29051492c0e0""}","https://test12345.live/?num_scrambled_semantic=8&num_scrambled_causal=4&num_scrambled_schematic=4&participantId=480FD71754F64F02888991DB1A7ABB5D&assignmentId=49bc02b4-54ba-42fe-a508-e5d31ca9b036&projectId=ba640c14-69c5-453e-80b2-29051492c0e0","480FD71754F64F02888991DB1A7ABB5D-2025-05-14-20-40-06","","1985","","images/causal_sequence/museum_causal/museum_causal_3.png","0","",""
"","","","","","image-button-response","77","412134","0.0-12.0-1.0-2.6","480FD71754F64F02888991DB1A7ABB5D","480FD71754F64F02888991DB1A7ABB5D","49bc02b4-54ba-42fe-a508-e5d31ca9b036","ba640c14-69c5-453e-80b2-29051492c0e0","{""num_scrambled_semantic"":""8"",""num_scrambled_causal"":""4"",""num_scrambled_schematic"":""4"",""participantId"":""480FD71754F64F02888991DB1A7ABB5D"",""assignmentId"":""49bc02b4-54ba-42fe-a508-e5d31ca9b036"",""projectId"":""ba640c14-69c5-453e-80b2-29051492c0e0""}","https://test12345.live/?num_scrambled_semantic=8&num_scrambled_causal=4&num_scrambled_schematic=4&participantId=480FD71754F64F02888991DB1A7ABB5D&assignmentId=49bc02b4-54ba-42fe-a508-e5d31ca9b036&projectId=ba640c14-69c5-453e-80b2-29051492c0e0","480FD71754F64F02888991DB1A7ABB5D-2025-05-14-20-40-06","","null","","[]","null","",""
"","","","","","image-button-response","78","416646","0.0-12.0-1.0-0.7","480FD71754F64F02888991DB1A7ABB5D","480FD71754F64F02888991DB1A7ABB5D","49bc02b4-54ba-42fe-a508-e5d31ca9b036","ba640c14-69c5-453e-80b2-29051492c0e0","{""num_scrambled_semantic"":""8"",""num_scrambled_causal"":""4"",""num_scrambled_schematic"":""4"",""participantId"":""480FD71754F64F02888991DB1A7ABB5D"",""assignmentId"":""49bc02b4-54ba-42fe-a508-e5d31ca9b036"",""projectId"":""ba640c14-69c5-453e-80b2-29051492c0e0""}","https://test12345.live/?num_scrambled_semantic=8&num_scrambled_causal=4&num_scrambled_schematic=4&participantId=480FD71754F64F02888991DB1A7ABB5D&assignmentId=49bc02b4-54ba-42fe-a508-e5d31ca9b036&projectId=ba640c14-69c5-453e-80b2-29051492c0e0","480FD71754F64F02888991DB1A7ABB5D-2025-05-14-20-40-06","","null","","images/causal_sequence/museum_causal/museum_causal_6.png","null","",""
"","","","","","image-button-response","79","417705","0.0-12.0-1.0-1.7","480FD71754F64F02888991DB1A7ABB5D","480FD71754F64F02888991DB1A7ABB5D","49bc02b4-54ba-42fe-a508-e5d31ca9b036","ba640c14-69c5-453e-80b2-29051492c0e0","{""num_scrambled_semantic"":""8"",""num_scrambled_causal"":""4"",""num_scrambled_schematic"":""4"",""participantId"":""480FD71754F64F02888991DB1A7ABB5D"",""assignmentId"":""49bc02b4-54ba-42fe-a508-e5d31ca9b036"",""projectId"":""ba640c14-69c5-453e-80b2-29051492c0e0""}","https://test12345.live/?num_scrambled_semantic=8&num_scrambled_causal=4&num_scrambled_schematic=4&participantId=480FD71754F64F02888991DB1A7ABB5D&assignmentId=49bc02b4-54ba-42fe-a508-e5d31ca9b036&projectId=ba640c14-69c5-453e-80b2-29051492c0e0","480FD71754F64F02888991DB1A7ABB5D-2025-05-14-20-40-06","","1058","","images/causal_sequence/museum_causal/museum_causal_6.png","0","",""
"","","","","","image-button-response","80","419509","0.0-12.0-1.0-2.7","480FD71754F64F02888991DB1A7ABB5D","480FD71754F64F02888991DB1A7ABB5D","49bc02b4-54ba-42fe-a508-e5d31ca9b036","ba640c14-69c5-453e-80b2-29051492c0e0","{""num_scrambled_semantic"":""8"",""num_scrambled_causal"":""4"",""num_scrambled_schematic"":""4"",""participantId"":""480FD71754F64F02888991DB1A7ABB5D"",""assignmentId"":""49bc02b4-54ba-42fe-a508-e5d31ca9b036"",""projectId"":""ba640c14-69c5-453e-80b2-29051492c0e0""}","https://test12345.live/?num_scrambled_semantic=8&num_scrambled_causal=4&num_scrambled_schematic=4&participantId=480FD71754F64F02888991DB1A7ABB5D&assignmentId=49bc02b4-54ba-42fe-a508-e5d31ca9b036&projectId=ba640c14-69c5-453e-80b2-29051492c0e0","480FD71754F64F02888991DB1A7ABB5D-2025-05-14-20-40-06","","null","","[]","null","",""
"","","","","","image-button-response","81","424016","0.0-12.0-1.0-0.8","480FD71754F64F02888991DB1A7ABB5D","480FD71754F64F02888991DB1A7ABB5D","49bc02b4-54ba-42fe-a508-e5d31ca9b036","ba640c14-69c5-453e-80b2-29051492c0e0","{""num_scrambled_semantic"":""8"",""num_scrambled_causal"":""4"",""num_scrambled_schematic"":""4"",""participantId"":""480FD71754F64F02888991DB1A7ABB5D"",""assignmentId"":""49bc02b4-54ba-42fe-a508-e5d31ca9b036"",""projectId"":""ba640c14-69c5-453e-80b2-29051492c0e0""}","https://test12345.live/?num_scrambled_semantic=8&num_scrambled_causal=4&num_scrambled_schematic=4&participantId=480FD71754F64F02888991DB1A7ABB5D&assignmentId=49bc02b4-54ba-42fe-a508-e5d31ca9b036&projectId=ba640c14-69c5-453e-80b2-29051492c0e0","480FD71754F64F02888991DB1A7ABB5D-2025-05-14-20-40-06","","null","","images/causal_sequence/museum_causal/museum_causal_2.png","null","",""
"","","","","","image-button-response","82","425004","0.0-12.0-1.0-1.8","480FD71754F64F02888991DB1A7ABB5D","480FD71754F64F02888991DB1A7ABB5D","49bc02b4-54ba-42fe-a508-e5d31ca9b036","ba640c14-69c5-453e-80b2-29051492c0e0","{""num_scrambled_semantic"":""8"",""num_scrambled_causal"":""4"",""num_scrambled_schematic"":""4"",""participantId"":""480FD71754F64F02888991DB1A7ABB5D"",""assignmentId"":""49bc02b4-54ba-42fe-a508-e5d31ca9b036"",""projectId"":""ba640c14-69c5-453e-80b2-29051492c0e0""}","https://test12345.live/?num_scrambled_semantic=8&num_scrambled_causal=4&num_scrambled_schematic=4&participantId=480FD71754F64F02888991DB1A7ABB5D&assignmentId=49bc02b4-54ba-42fe-a508-e5d31ca9b036&projectId=ba640c14-69c5-453e-80b2-29051492c0e0","480FD71754F64F02888991DB1A7ABB5D-2025-05-14-20-40-06","","988","","images/causal_sequence/museum_causal/museum_causal_2.png","0","",""
"","","","","","image-button-response","83","426809","0.0-12.0-1.0-2.8","480FD71754F64F02888991DB1A7ABB5D","480FD71754F64F02888991DB1A7ABB5D","49bc02b4-54ba-42fe-a508-e5d31ca9b036","ba640c14-69c5-453e-80b2-29051492c0e0","{""num_scrambled_semantic"":""8"",""num_scrambled_causal"":""4"",""num_scrambled_schematic"":""4"",""participantId"":""480FD71754F64F02888991DB1A7ABB5D"",""assignmentId"":""49bc02b4-54ba-42fe-a508-e5d31ca9b036"",""projectId"":""ba640c14-69c5-453e-80b2-29051492c0e0""}","https://test12345.live/?num_scrambled_semantic=8&num_scrambled_causal=4&num_scrambled_schematic=4&participantId=480FD71754F64F02888991DB1A7ABB5D&assignmentId=49bc02b4-54ba-42fe-a508-e5d31ca9b036&projectId=ba640c14-69c5-453e-80b2-29051492c0e0","480FD71754F64F02888991DB1A7ABB5D-2025-05-14-20-40-06","","null","","[]","null","",""
"","","","","","image-button-response","84","431319","0.0-12.0-1.0-0.9","480FD71754F64F02888991DB1A7ABB5D","480FD71754F64F02888991DB1A7ABB5D","49bc02b4-54ba-42fe-a508-e5d31ca9b036","ba640c14-69c5-453e-80b2-29051492c0e0","{""num_scrambled_semantic"":""8"",""num_scrambled_causal"":""4"",""num_scrambled_schematic"":""4"",""participantId"":""480FD71754F64F02888991DB1A7ABB5D"",""assignmentId"":""49bc02b4-54ba-42fe-a508-e5d31ca9b036"",""projectId"":""ba640c14-69c5-453e-80b2-29051492c0e0""}","https://test12345.live/?num_scrambled_semantic=8&num_scrambled_causal=4&num_scrambled_schematic=4&participantId=480FD71754F64F02888991DB1A7ABB5D&assignmentId=49bc02b4-54ba-42fe-a508-e5d31ca9b036&projectId=ba640c14-69c5-453e-80b2-29051492c0e0","480FD71754F64F02888991DB1A7ABB5D-2025-05-14-20-40-06","","null","","images/causal_sequence/museum_causal/museum_causal_1.png","null","",""
"","","","","","image-button-response","85","432633","0.0-12.0-1.0-1.9","480FD71754F64F02888991DB1A7ABB5D","480FD71754F64F02888991DB1A7ABB5D","49bc02b4-54ba-42fe-a508-e5d31ca9b036","ba640c14-69c5-453e-80b2-29051492c0e0","{""num_scrambled_semantic"":""8"",""num_scrambled_causal"":""4"",""num_scrambled_schematic"":""4"",""participantId"":""480FD71754F64F02888991DB1A7ABB5D"",""assignmentId"":""49bc02b4-54ba-42fe-a508-e5d31ca9b036"",""projectId"":""ba640c14-69c5-453e-80b2-29051492c0e0""}","https://test12345.live/?num_scrambled_semantic=8&num_scrambled_causal=4&num_scrambled_schematic=4&participantId=480FD71754F64F02888991DB1A7ABB5D&assignmentId=49bc02b4-54ba-42fe-a508-e5d31ca9b036&projectId=ba640c14-69c5-453e-80b2-29051492c0e0","480FD71754F64F02888991DB1A7ABB5D-2025-05-14-20-40-06","","1313","","images/causal_sequence/museum_causal/museum_causal_1.png","0","",""
"","","","","","image-button-response","86","434436","0.0-12.0-1.0-2.9","480FD71754F64F02888991DB1A7ABB5D","480FD71754F64F02888991DB1A7ABB5D","49bc02b4-54ba-42fe-a508-e5d31ca9b036","ba640c14-69c5-453e-80b2-29051492c0e0","{""num_scrambled_semantic"":""8"",""num_scrambled_causal"":""4"",""num_scrambled_schematic"":""4"",""participantId"":""480FD71754F64F02888991DB1A7ABB5D"",""assignmentId"":""49bc02b4-54ba-42fe-a508-e5d31ca9b036"",""projectId"":""ba640c14-69c5-453e-80b2-29051492c0e0""}","https://test12345.live/?num_scrambled_semantic=8&num_scrambled_causal=4&num_scrambled_schematic=4&participantId=480FD71754F64F02888991DB1A7ABB5D&assignmentId=49bc02b4-54ba-42fe-a508-e5d31ca9b036&projectId=ba640c14-69c5-453e-80b2-29051492c0e0","480FD71754F64F02888991DB1A7ABB5D-2025-05-14-20-40-06","","null","","[]","null","",""
"","","","","","html-audio-response","87","519364","0.0-13.0","480FD71754F64F02888991DB1A7ABB5D","480FD71754F64F02888991DB1A7ABB5D","49bc02b4-54ba-42fe-a508-e5d31ca9b036","ba640c14-69c5-453e-80b2-29051492c0e0","{""num_scrambled_semantic"":""8"",""num_scrambled_causal"":""4"",""num_scrambled_schematic"":""4"",""participantId"":""480FD71754F64F02888991DB1A7ABB5D"",""assignmentId"":""49bc02b4-54ba-42fe-a508-e5d31ca9b036"",""projectId"":""ba640c14-69c5-453e-80b2-29051492c0e0""}","https://test12345.live/?num_scrambled_semantic=8&num_scrambled_causal=4&num_scrambled_schematic=4&participantId=480FD71754F64F02888991DB1A7ABB5D&assignmentId=49bc02b4-54ba-42fe-a508-e5d31ca9b036&projectId=ba640c14-69c5-453e-80b2-29051492c0e0","480FD71754F64F02888991DB1A7ABB5D-2025-05-14-20-40-06","","34299","","[""<span style=\""color: red; font-size: 24px\""> NOW RECORDING</span><p>Please say out loud all the images you saw, as many as you can remember. The images can be said in any order.</p>""]","","5","museum_causal"
"","","","","","image-button-response","88","525382","0.0-14.0-0.0","480FD71754F64F02888991DB1A7ABB5D","480FD71754F64F02888991DB1A7ABB5D","49bc02b4-54ba-42fe-a508-e5d31ca9b036","ba640c14-69c5-453e-80b2-29051492c0e0","{""num_scrambled_semantic"":""8"",""num_scrambled_causal"":""4"",""num_scrambled_schematic"":""4"",""participantId"":""480FD71754F64F02888991DB1A7ABB5D"",""assignmentId"":""49bc02b4-54ba-42fe-a508-e5d31ca9b036"",""projectId"":""ba640c14-69c5-453e-80b2-29051492c0e0""}","https://test12345.live/?num_scrambled_semantic=8&num_scrambled_causal=4&num_scrambled_schematic=4&participantId=480FD71754F64F02888991DB1A7ABB5D&assignmentId=49bc02b4-54ba-42fe-a508-e5d31ca9b036&projectId=ba640c14-69c5-453e-80b2-29051492c0e0","480FD71754F64F02888991DB1A7ABB5D-2025-05-14-20-40-06","","null","","images/semantic_sequence/market_semantic/market_semantic_0.png","null","",""
"","","","","","image-button-response","89","529888","0.0-14.0-1.0-0.0","480FD71754F64F02888991DB1A7ABB5D","480FD71754F64F02888991DB1A7ABB5D","49bc02b4-54ba-42fe-a508-e5d31ca9b036","ba640c14-69c5-453e-80b2-29051492c0e0","{""num_scrambled_semantic"":""8"",""num_scrambled_causal"":""4"",""num_scrambled_schematic"":""4"",""participantId"":""480FD71754F64F02888991DB1A7ABB5D"",""assignmentId"":""49bc02b4-54ba-42fe-a508-e5d31ca9b036"",""projectId"":""ba640c14-69c5-453e-80b2-29051492c0e0""}","https://test12345.live/?num_scrambled_semantic=8&num_scrambled_causal=4&num_scrambled_schematic=4&participantId=480FD71754F64F02888991DB1A7ABB5D&assignmentId=49bc02b4-54ba-42fe-a508-e5d31ca9b036&projectId=ba640c14-69c5-453e-80b2-29051492c0e0","480FD71754F64F02888991DB1A7ABB5D-2025-05-14-20-40-06","","null","","images/semantic_sequence/market_semantic/market_semantic_9.png","null","",""
"","","","","","image-button-response","90","531643","0.0-14.0-1.0-1.0","480FD71754F64F02888991DB1A7ABB5D","480FD71754F64F02888991DB1A7ABB5D","49bc02b4-54ba-42fe-a508-e5d31ca9b036","ba640c14-69c5-453e-80b2-29051492c0e0","{""num_scrambled_semantic"":""8"",""num_scrambled_causal"":""4"",""num_scrambled_schematic"":""4"",""participantId"":""480FD71754F64F02888991DB1A7ABB5D"",""assignmentId"":""49bc02b4-54ba-42fe-a508-e5d31ca9b036"",""projectId"":""ba640c14-69c5-453e-80b2-29051492c0e0""}","https://test12345.live/?num_scrambled_semantic=8&num_scrambled_causal=4&num_scrambled_schematic=4&participantId=480FD71754F64F02888991DB1A7ABB5D&assignmentId=49bc02b4-54ba-42fe-a508-e5d31ca9b036&projectId=ba640c14-69c5-453e-80b2-29051492c0e0","480FD71754F64F02888991DB1A7ABB5D-2025-05-14-20-40-06","","1755","","images/semantic_sequence/market_semantic/market_semantic_9.png","0","",""
"","","","","","image-button-response","91","533463","0.0-14.0-1.0-2.0","480FD71754F64F02888991DB1A7ABB5D","480FD71754F64F02888991DB1A7ABB5D","49bc02b4-54ba-42fe-a508-e5d31ca9b036","ba640c14-69c5-453e-80b2-29051492c0e0","{""num_scrambled_semantic"":""8"",""num_scrambled_causal"":""4"",""num_scrambled_schematic"":""4"",""participantId"":""480FD71754F64F02888991DB1A7ABB5D"",""assignmentId"":""49bc02b4-54ba-42fe-a508-e5d31ca9b036"",""projectId"":""ba640c14-69c5-453e-80b2-29051492c0e0""}","https://test12345.live/?num_scrambled_semantic=8&num_scrambled_causal=4&num_scrambled_schematic=4&participantId=480FD71754F64F02888991DB1A7ABB5D&assignmentId=49bc02b4-54ba-42fe-a508-e5d31ca9b036&projectId=ba640c14-69c5-453e-80b2-29051492c0e0","480FD71754F64F02888991DB1A7ABB5D-2025-05-14-20-40-06","","null","","[]","null","",""
"","","","","","image-button-response","92","537969","0.0-14.0-1.0-0.1","480FD71754F64F02888991DB1A7ABB5D","480FD71754F64F02888991DB1A7ABB5D","49bc02b4-54ba-42fe-a508-e5d31ca9b036","ba640c14-69c5-453e-80b2-29051492c0e0","{""num_scrambled_semantic"":""8"",""num_scrambled_causal"":""4"",""num_scrambled_schematic"":""4"",""participantId"":""480FD71754F64F02888991DB1A7ABB5D"",""assignmentId"":""49bc02b4-54ba-42fe-a508-e5d31ca9b036"",""projectId"":""ba640c14-69c5-453e-80b2-29051492c0e0""}","https://test12345.live/?num_scrambled_semantic=8&num_scrambled_causal=4&num_scrambled_schematic=4&participantId=480FD71754F64F02888991DB1A7ABB5D&assignmentId=49bc02b4-54ba-42fe-a508-e5d31ca9b036&projectId=ba640c14-69c5-453e-80b2-29051492c0e0","480FD71754F64F02888991DB1A7ABB5D-2025-05-14-20-40-06","","null","","images/semantic_sequence/market_semantic/market_semantic_ten.png","null","",""
"","","","","","image-button-response","93","541989","0.0-14.0-1.0-1.1","480FD71754F64F02888991DB1A7ABB5D","480FD71754F64F02888991DB1A7ABB5D","49bc02b4-54ba-42fe-a508-e5d31ca9b036","ba640c14-69c5-453e-80b2-29051492c0e0","{""num_scrambled_semantic"":""8"",""num_scrambled_causal"":""4"",""num_scrambled_schematic"":""4"",""participantId"":""480FD71754F64F02888991DB1A7ABB5D"",""assignmentId"":""49bc02b4-54ba-42fe-a508-e5d31ca9b036"",""projectId"":""ba640c14-69c5-453e-80b2-29051492c0e0""}","https://test12345.live/?num_scrambled_semantic=8&num_scrambled_causal=4&num_scrambled_schematic=4&participantId=480FD71754F64F02888991DB1A7ABB5D&assignmentId=49bc02b4-54ba-42fe-a508-e5d31ca9b036&projectId=ba640c14-69c5-453e-80b2-29051492c0e0","480FD71754F64F02888991DB1A7ABB5D-2025-05-14-20-40-06","","null","","images/semantic_sequence/market_semantic/market_semantic_ten.png","null","",""
"","","","","","image-button-response","94","543809","0.0-14.0-1.0-2.1","480FD71754F64F02888991DB1A7ABB5D","480FD71754F64F02888991DB1A7ABB5D","49bc02b4-54ba-42fe-a508-e5d31ca9b036","ba640c14-69c5-453e-80b2-29051492c0e0","{""num_scrambled_semantic"":""8"",""num_scrambled_causal"":""4"",""num_scrambled_schematic"":""4"",""participantId"":""480FD71754F64F02888991DB1A7ABB5D"",""assignmentId"":""49bc02b4-54ba-42fe-a508-e5d31ca9b036"",""projectId"":""ba640c14-69c5-453e-80b2-29051492c0e0""}","https://test12345.live/?num_scrambled_semantic=8&num_scrambled_causal=4&num_scrambled_schematic=4&participantId=480FD71754F64F02888991DB1A7ABB5D&assignmentId=49bc02b4-54ba-42fe-a508-e5d31ca9b036&projectId=ba640c14-69c5-453e-80b2-29051492c0e0","480FD71754F64F02888991DB1A7ABB5D-2025-05-14-20-40-06","","null","","[]","null","",""
"","","","","","image-button-response","95","548314","0.0-14.0-1.0-0.2","480FD71754F64F02888991DB1A7ABB5D","480FD71754F64F02888991DB1A7ABB5D","49bc02b4-54ba-42fe-a508-e5d31ca9b036","ba640c14-69c5-453e-80b2-29051492c0e0","{""num_scrambled_semantic"":""8"",""num_scrambled_causal"":""4"",""num_scrambled_schematic"":""4"",""participantId"":""480FD71754F64F02888991DB1A7ABB5D"",""assignmentId"":""49bc02b4-54ba-42fe-a508-e5d31ca9b036"",""projectId"":""ba640c14-69c5-453e-80b2-29051492c0e0""}","https://test12345.live/?num_scrambled_semantic=8&num_scrambled_causal=4&num_scrambled_schematic=4&participantId=480FD71754F64F02888991DB1A7ABB5D&assignmentId=49bc02b4-54ba-42fe-a508-e5d31ca9b036&projectId=ba640c14-69c5-453e-80b2-29051492c0e0","480FD71754F64F02888991DB1A7ABB5D-2025-05-14-20-40-06","","null","","images/semantic_sequence/market_semantic/market_semantic_8.png","null","",""
"","","","","","image-button-response","96","550245","0.0-14.0-1.0-1.2","480FD71754F64F02888991DB1A7ABB5D","480FD71754F64F02888991DB1A7ABB5D","49bc02b4-54ba-42fe-a508-e5d31ca9b036","ba640c14-69c5-453e-80b2-29051492c0e0","{""num_scrambled_semantic"":""8"",""num_scrambled_causal"":""4"",""num_scrambled_schematic"":""4"",""participantId"":""480FD71754F64F02888991DB1A7ABB5D"",""assignmentId"":""49bc02b4-54ba-42fe-a508-e5d31ca9b036"",""projectId"":""ba640c14-69c5-453e-80b2-29051492c0e0""}","https://test12345.live/?num_scrambled_semantic=8&num_scrambled_causal=4&num_scrambled_schematic=4&participantId=480FD71754F64F02888991DB1A7ABB5D&assignmentId=49bc02b4-54ba-42fe-a508-e5d31ca9b036&projectId=ba640c14-69c5-453e-80b2-29051492c0e0","480FD71754F64F02888991DB1A7ABB5D-2025-05-14-20-40-06","","1930","","images/semantic_sequence/market_semantic/market_semantic_8.png","1","",""
"","","","","","image-button-response","97","552049","0.0-14.0-1.0-2.2","480FD71754F64F02888991DB1A7ABB5D","480FD71754F64F02888991DB1A7ABB5D","49bc02b4-54ba-42fe-a508-e5d31ca9b036","ba640c14-69c5-453e-80b2-29051492c0e0","{""num_scrambled_semantic"":""8"",""num_scrambled_causal"":""4"",""num_scrambled_schematic"":""4"",""participantId"":""480FD71754F64F02888991DB1A7ABB5D"",""assignmentId"":""49bc02b4-54ba-42fe-a508-e5d31ca9b036"",""projectId"":""ba640c14-69c5-453e-80b2-29051492c0e0""}","https://test12345.live/?num_scrambled_semantic=8&num_scrambled_causal=4&num_scrambled_schematic=4&participantId=480FD71754F64F02888991DB1A7ABB5D&assignmentId=49bc02b4-54ba-42fe-a508-e5d31ca9b036&projectId=ba640c14-69c5-453e-80b2-29051492c0e0","480FD71754F64F02888991DB1A7ABB5D-2025-05-14-20-40-06","","null","","[]","null","",""
"","","","","","image-button-response","98","556569","0.0-14.0-1.0-0.3","480FD71754F64F02888991DB1A7ABB5D","480FD71754F64F02888991DB1A7ABB5D","49bc02b4-54ba-42fe-a508-e5d31ca9b036","ba640c14-69c5-453e-80b2-29051492c0e0","{""num_scrambled_semantic"":""8"",""num_scrambled_causal"":""4"",""num_scrambled_schematic"":""4"",""participantId"":""480FD71754F64F02888991DB1A7ABB5D"",""assignmentId"":""49bc02b4-54ba-42fe-a508-e5d31ca9b036"",""projectId"":""ba640c14-69c5-453e-80b2-29051492c0e0""}","https://test12345.live/?num_scrambled_semantic=8&num_scrambled_causal=4&num_scrambled_schematic=4&participantId=480FD71754F64F02888991DB1A7ABB5D&assignmentId=49bc02b4-54ba-42fe-a508-e5d31ca9b036&projectId=ba640c14-69c5-453e-80b2-29051492c0e0","480FD71754F64F02888991DB1A7ABB5D-2025-05-14-20-40-06","","null","","images/semantic_sequence/market_semantic/market_semantic_1.png","null","",""
"","","","","","image-button-response","99","557489","0.0-14.0-1.0-1.3","480FD71754F64F02888991DB1A7ABB5D","480FD71754F64F02888991DB1A7ABB5D","49bc02b4-54ba-42fe-a508-e5d31ca9b036","ba640c14-69c5-453e-80b2-29051492c0e0","{""num_scrambled_semantic"":""8"",""num_scrambled_causal"":""4"",""num_scrambled_schematic"":""4"",""participantId"":""480FD71754F64F02888991DB1A7ABB5D"",""assignmentId"":""49bc02b4-54ba-42fe-a508-e5d31ca9b036"",""projectId"":""ba640c14-69c5-453e-80b2-29051492c0e0""}","https://test12345.live/?num_scrambled_semantic=8&num_scrambled_causal=4&num_scrambled_schematic=4&participantId=480FD71754F64F02888991DB1A7ABB5D&assignmentId=49bc02b4-54ba-42fe-a508-e5d31ca9b036&projectId=ba640c14-69c5-453e-80b2-29051492c0e0","480FD71754F64F02888991DB1A7ABB5D-2025-05-14-20-40-06","","919","","images/semantic_sequence/market_semantic/market_semantic_1.png","1","",""
"","","","","","image-button-response","100","559294","0.0-14.0-1.0-2.3","480FD71754F64F02888991DB1A7ABB5D","480FD71754F64F02888991DB1A7ABB5D","49bc02b4-54ba-42fe-a508-e5d31ca9b036","ba640c14-69c5-453e-80b2-29051492c0e0","{""num_scrambled_semantic"":""8"",""num_scrambled_causal"":""4"",""num_scrambled_schematic"":""4"",""participantId"":""480FD71754F64F02888991DB1A7ABB5D"",""assignmentId"":""49bc02b4-54ba-42fe-a508-e5d31ca9b036"",""projectId"":""ba640c14-69c5-453e-80b2-29051492c0e0""}","https://test12345.live/?num_scrambled_semantic=8&num_scrambled_causal=4&num_scrambled_schematic=4&participantId=480FD71754F64F02888991DB1A7ABB5D&assignmentId=49bc02b4-54ba-42fe-a508-e5d31ca9b036&projectId=ba640c14-69c5-453e-80b2-29051492c0e0","480FD71754F64F02888991DB1A7ABB5D-2025-05-14-20-40-06","","null","","[]","null","",""
"","","","","","image-button-response","101","563806","0.0-14.0-1.0-0.4","480FD71754F64F02888991DB1A7ABB5D","480FD71754F64F02888991DB1A7ABB5D","49bc02b4-54ba-42fe-a508-e5d31ca9b036","ba640c14-69c5-453e-80b2-29051492c0e0","{""num_scrambled_semantic"":""8"",""num_scrambled_causal"":""4"",""num_scrambled_schematic"":""4"",""participantId"":""480FD71754F64F02888991DB1A7ABB5D"",""assignmentId"":""49bc02b4-54ba-42fe-a508-e5d31ca9b036"",""projectId"":""ba640c14-69c5-453e-80b2-29051492c0e0""}","https://test12345.live/?num_scrambled_semantic=8&num_scrambled_causal=4&num_scrambled_schematic=4&participantId=480FD71754F64F02888991DB1A7ABB5D&assignmentId=49bc02b4-54ba-42fe-a508-e5d31ca9b036&projectId=ba640c14-69c5-453e-80b2-29051492c0e0","480FD71754F64F02888991DB1A7ABB5D-2025-05-14-20-40-06","","null","","images/semantic_sequence/market_semantic/market_semantic_3.png","null","",""
"","","","","","image-button-response","102","565201","0.0-14.0-1.0-1.4","480FD71754F64F02888991DB1A7ABB5D","480FD71754F64F02888991DB1A7ABB5D","49bc02b4-54ba-42fe-a508-e5d31ca9b036","ba640c14-69c5-453e-80b2-29051492c0e0","{""num_scrambled_semantic"":""8"",""num_scrambled_causal"":""4"",""num_scrambled_schematic"":""4"",""participantId"":""480FD71754F64F02888991DB1A7ABB5D"",""assignmentId"":""49bc02b4-54ba-42fe-a508-e5d31ca9b036"",""projectId"":""ba640c14-69c5-453e-80b2-29051492c0e0""}","https://test12345.live/?num_scrambled_semantic=8&num_scrambled_causal=4&num_scrambled_schematic=4&participantId=480FD71754F64F02888991DB1A7ABB5D&assignmentId=49bc02b4-54ba-42fe-a508-e5d31ca9b036&projectId=ba640c14-69c5-453e-80b2-29051492c0e0","480FD71754F64F02888991DB1A7ABB5D-2025-05-14-20-40-06","","1394","","images/semantic_sequence/market_semantic/market_semantic_3.png","1","",""
"","","","","","image-button-response","103","567004","0.0-14.0-1.0-2.4","480FD71754F64F02888991DB1A7ABB5D","480FD71754F64F02888991DB1A7ABB5D","49bc02b4-54ba-42fe-a508-e5d31ca9b036","ba640c14-69c5-453e-80b2-29051492c0e0","{""num_scrambled_semantic"":""8"",""num_scrambled_causal"":""4"",""num_scrambled_schematic"":""4"",""participantId"":""480FD71754F64F02888991DB1A7ABB5D"",""assignmentId"":""49bc02b4-54ba-42fe-a508-e5d31ca9b036"",""projectId"":""ba640c14-69c5-453e-80b2-29051492c0e0""}","https://test12345.live/?num_scrambled_semantic=8&num_scrambled_causal=4&num_scrambled_schematic=4&participantId=480FD71754F64F02888991DB1A7ABB5D&assignmentId=49bc02b4-54ba-42fe-a508-e5d31ca9b036&projectId=ba640c14-69c5-453e-80b2-29051492c0e0","480FD71754F64F02888991DB1A7ABB5D-2025-05-14-20-40-06","","null","","[]","null","",""
"","","","","","image-button-response","104","571514","0.0-14.0-1.0-0.5","480FD71754F64F02888991DB1A7ABB5D","480FD71754F64F02888991DB1A7ABB5D","49bc02b4-54ba-42fe-a508-e5d31ca9b036","ba640c14-69c5-453e-80b2-29051492c0e0","{""num_scrambled_semantic"":""8"",""num_scrambled_causal"":""4"",""num_scrambled_schematic"":""4"",""participantId"":""480FD71754F64F02888991DB1A7ABB5D"",""assignmentId"":""49bc02b4-54ba-42fe-a508-e5d31ca9b036"",""projectId"":""ba640c14-69c5-453e-80b2-29051492c0e0""}","https://test12345.live/?num_scrambled_semantic=8&num_scrambled_causal=4&num_scrambled_schematic=4&participantId=480FD71754F64F02888991DB1A7ABB5D&assignmentId=49bc02b4-54ba-42fe-a508-e5d31ca9b036&projectId=ba640c14-69c5-453e-80b2-29051492c0e0","480FD71754F64F02888991DB1A7ABB5D-2025-05-14-20-40-06","","null","","images/semantic_sequence/market_semantic/market_semantic_2.png","null","",""
"","","","","","image-button-response","105","573063","0.0-14.0-1.0-1.5","480FD71754F64F02888991DB1A7ABB5D","480FD71754F64F02888991DB1A7ABB5D","49bc02b4-54ba-42fe-a508-e5d31ca9b036","ba640c14-69c5-453e-80b2-29051492c0e0","{""num_scrambled_semantic"":""8"",""num_scrambled_causal"":""4"",""num_scrambled_schematic"":""4"",""participantId"":""480FD71754F64F02888991DB1A7ABB5D"",""assignmentId"":""49bc02b4-54ba-42fe-a508-e5d31ca9b036"",""projectId"":""ba640c14-69c5-453e-80b2-29051492c0e0""}","https://test12345.live/?num_scrambled_semantic=8&num_scrambled_causal=4&num_scrambled_schematic=4&participantId=480FD71754F64F02888991DB1A7ABB5D&assignmentId=49bc02b4-54ba-42fe-a508-e5d31ca9b036&projectId=ba640c14-69c5-453e-80b2-29051492c0e0","480FD71754F64F02888991DB1A7ABB5D-2025-05-14-20-40-06","","1548","","images/semantic_sequence/market_semantic/market_semantic_2.png","1","",""
"","","","","","image-button-response","106","574869","0.0-14.0-1.0-2.5","480FD71754F64F02888991DB1A7ABB5D","480FD71754F64F02888991DB1A7ABB5D","49bc02b4-54ba-42fe-a508-e5d31ca9b036","ba640c14-69c5-453e-80b2-29051492c0e0","{""num_scrambled_semantic"":""8"",""num_scrambled_causal"":""4"",""num_scrambled_schematic"":""4"",""participantId"":""480FD71754F64F02888991DB1A7ABB5D"",""assignmentId"":""49bc02b4-54ba-42fe-a508-e5d31ca9b036"",""projectId"":""ba640c14-69c5-453e-80b2-29051492c0e0""}","https://test12345.live/?num_scrambled_semantic=8&num_scrambled_causal=4&num_scrambled_schematic=4&participantId=480FD71754F64F02888991DB1A7ABB5D&assignmentId=49bc02b4-54ba-42fe-a508-e5d31ca9b036&projectId=ba640c14-69c5-453e-80b2-29051492c0e0","480FD71754F64F02888991DB1A7ABB5D-2025-05-14-20-40-06","","null","","[]","null","",""
"","","","","","image-button-response","107","579370","0.0-14.0-1.0-0.6","480FD71754F64F02888991DB1A7ABB5D","480FD71754F64F02888991DB1A7ABB5D","49bc02b4-54ba-42fe-a508-e5d31ca9b036","ba640c14-69c5-453e-80b2-29051492c0e0","{""num_scrambled_semantic"":""8"",""num_scrambled_causal"":""4"",""num_scrambled_schematic"":""4"",""participantId"":""480FD71754F64F02888991DB1A7ABB5D"",""assignmentId"":""49bc02b4-54ba-42fe-a508-e5d31ca9b036"",""projectId"":""ba640c14-69c5-453e-80b2-29051492c0e0""}","https://test12345.live/?num_scrambled_semantic=8&num_scrambled_causal=4&num_scrambled_schematic=4&participantId=480FD71754F64F02888991DB1A7ABB5D&assignmentId=49bc02b4-54ba-42fe-a508-e5d31ca9b036&projectId=ba640c14-69c5-453e-80b2-29051492c0e0","480FD71754F64F02888991DB1A7ABB5D-2025-05-14-20-40-06","","null","","images/semantic_sequence/market_semantic/market_semantic_6.png","null","",""
"","","","","","image-button-response","108","583206","0.0-14.0-1.0-1.6","480FD71754F64F02888991DB1A7ABB5D","480FD71754F64F02888991DB1A7ABB5D","49bc02b4-54ba-42fe-a508-e5d31ca9b036","ba640c14-69c5-453e-80b2-29051492c0e0","{""num_scrambled_semantic"":""8"",""num_scrambled_causal"":""4"",""num_scrambled_schematic"":""4"",""participantId"":""480FD71754F64F02888991DB1A7ABB5D"",""assignmentId"":""49bc02b4-54ba-42fe-a508-e5d31ca9b036"",""projectId"":""ba640c14-69c5-453e-80b2-29051492c0e0""}","https://test12345.live/?num_scrambled_semantic=8&num_scrambled_causal=4&num_scrambled_schematic=4&participantId=480FD71754F64F02888991DB1A7ABB5D&assignmentId=49bc02b4-54ba-42fe-a508-e5d31ca9b036&projectId=ba640c14-69c5-453e-80b2-29051492c0e0","480FD71754F64F02888991DB1A7ABB5D-2025-05-14-20-40-06","","3836","","images/semantic_sequence/market_semantic/market_semantic_6.png","0","",""
"","","","","","image-button-response","109","585010","0.0-14.0-1.0-2.6","480FD71754F64F02888991DB1A7ABB5D","480FD71754F64F02888991DB1A7ABB5D","49bc02b4-54ba-42fe-a508-e5d31ca9b036","ba640c14-69c5-453e-80b2-29051492c0e0","{""num_scrambled_semantic"":""8"",""num_scrambled_causal"":""4"",""num_scrambled_schematic"":""4"",""participantId"":""480FD71754F64F02888991DB1A7ABB5D"",""assignmentId"":""49bc02b4-54ba-42fe-a508-e5d31ca9b036"",""projectId"":""ba640c14-69c5-453e-80b2-29051492c0e0""}","https://test12345.live/?num_scrambled_semantic=8&num_scrambled_causal=4&num_scrambled_schematic=4&participantId=480FD71754F64F02888991DB1A7ABB5D&assignmentId=49bc02b4-54ba-42fe-a508-e5d31ca9b036&projectId=ba640c14-69c5-453e-80b2-29051492c0e0","480FD71754F64F02888991DB1A7ABB5D-2025-05-14-20-40-06","","null","","[]","null","",""
"","","","","","image-button-response","110","589529","0.0-14.0-1.0-0.7","480FD71754F64F02888991DB1A7ABB5D","480FD71754F64F02888991DB1A7ABB5D","49bc02b4-54ba-42fe-a508-e5d31ca9b036","ba640c14-69c5-453e-80b2-29051492c0e0","{""num_scrambled_semantic"":""8"",""num_scrambled_causal"":""4"",""num_scrambled_schematic"":""4"",""participantId"":""480FD71754F64F02888991DB1A7ABB5D"",""assignmentId"":""49bc02b4-54ba-42fe-a508-e5d31ca9b036"",""projectId"":""ba640c14-69c5-453e-80b2-29051492c0e0""}","https://test12345.live/?num_scrambled_semantic=8&num_scrambled_causal=4&num_scrambled_schematic=4&participantId=480FD71754F64F02888991DB1A7ABB5D&assignmentId=49bc02b4-54ba-42fe-a508-e5d31ca9b036&projectId=ba640c14-69c5-453e-80b2-29051492c0e0","480FD71754F64F02888991DB1A7ABB5D-2025-05-14-20-40-06","","null","","images/semantic_sequence/market_semantic/market_semantic_5.png","null","",""
"","","","","","image-button-response","111","590396","0.0-14.0-1.0-1.7","480FD71754F64F02888991DB1A7ABB5D","480FD71754F64F02888991DB1A7ABB5D","49bc02b4-54ba-42fe-a508-e5d31ca9b036","ba640c14-69c5-453e-80b2-29051492c0e0","{""num_scrambled_semantic"":""8"",""num_scrambled_causal"":""4"",""num_scrambled_schematic"":""4"",""participantId"":""480FD71754F64F02888991DB1A7ABB5D"",""assignmentId"":""49bc02b4-54ba-42fe-a508-e5d31ca9b036"",""projectId"":""ba640c14-69c5-453e-80b2-29051492c0e0""}","https://test12345.live/?num_scrambled_semantic=8&num_scrambled_causal=4&num_scrambled_schematic=4&participantId=480FD71754F64F02888991DB1A7ABB5D&assignmentId=49bc02b4-54ba-42fe-a508-e5d31ca9b036&projectId=ba640c14-69c5-453e-80b2-29051492c0e0","480FD71754F64F02888991DB1A7ABB5D-2025-05-14-20-40-06","","866","","images/semantic_sequence/market_semantic/market_semantic_5.png","1","",""
"","","","","","image-button-response","112","592213","0.0-14.0-1.0-2.7","480FD71754F64F02888991DB1A7ABB5D","480FD71754F64F02888991DB1A7ABB5D","49bc02b4-54ba-42fe-a508-e5d31ca9b036","ba640c14-69c5-453e-80b2-29051492c0e0","{""num_scrambled_semantic"":""8"",""num_scrambled_causal"":""4"",""num_scrambled_schematic"":""4"",""participantId"":""480FD71754F64F02888991DB1A7ABB5D"",""assignmentId"":""49bc02b4-54ba-42fe-a508-e5d31ca9b036"",""projectId"":""ba640c14-69c5-453e-80b2-29051492c0e0""}","https://test12345.live/?num_scrambled_semantic=8&num_scrambled_causal=4&num_scrambled_schematic=4&participantId=480FD71754F64F02888991DB1A7ABB5D&assignmentId=49bc02b4-54ba-42fe-a508-e5d31ca9b036&projectId=ba640c14-69c5-453e-80b2-29051492c0e0","480FD71754F64F02888991DB1A7ABB5D-2025-05-14-20-40-06","","null","","[]","null","",""
"","","","","","image-button-response","113","596715","0.0-14.0-1.0-0.8","480FD71754F64F02888991DB1A7ABB5D","480FD71754F64F02888991DB1A7ABB5D","49bc02b4-54ba-42fe-a508-e5d31ca9b036","ba640c14-69c5-453e-80b2-29051492c0e0","{""num_scrambled_semantic"":""8"",""num_scrambled_causal"":""4"",""num_scrambled_schematic"":""4"",""participantId"":""480FD71754F64F02888991DB1A7ABB5D"",""assignmentId"":""49bc02b4-54ba-42fe-a508-e5d31ca9b036"",""projectId"":""ba640c14-69c5-453e-80b2-29051492c0e0""}","https://test12345.live/?num_scrambled_semantic=8&num_scrambled_causal=4&num_scrambled_schematic=4&participantId=480FD71754F64F02888991DB1A7ABB5D&assignmentId=49bc02b4-54ba-42fe-a508-e5d31ca9b036&projectId=ba640c14-69c5-453e-80b2-29051492c0e0","480FD71754F64F02888991DB1A7ABB5D-2025-05-14-20-40-06","","null","","images/semantic_sequence/market_semantic/market_semantic_4.png","null","",""
"","","","","","image-button-response","114","598044","0.0-14.0-1.0-1.8","480FD71754F64F02888991DB1A7ABB5D","480FD71754F64F02888991DB1A7ABB5D","49bc02b4-54ba-42fe-a508-e5d31ca9b036","ba640c14-69c5-453e-80b2-29051492c0e0","{""num_scrambled_semantic"":""8"",""num_scrambled_causal"":""4"",""num_scrambled_schematic"":""4"",""participantId"":""480FD71754F64F02888991DB1A7ABB5D"",""assignmentId"":""49bc02b4-54ba-42fe-a508-e5d31ca9b036"",""projectId"":""ba640c14-69c5-453e-80b2-29051492c0e0""}","https://test12345.live/?num_scrambled_semantic=8&num_scrambled_causal=4&num_scrambled_schematic=4&participantId=480FD71754F64F02888991DB1A7ABB5D&assignmentId=49bc02b4-54ba-42fe-a508-e5d31ca9b036&projectId=ba640c14-69c5-453e-80b2-29051492c0e0","480FD71754F64F02888991DB1A7ABB5D-2025-05-14-20-40-06","","1328","","images/semantic_sequence/market_semantic/market_semantic_4.png","0","",""
