"success","timeout","failed_images","failed_audio","failed_video","trial_type","trial_index","time_elapsed","internal_node_id","subject","subject_id","study_id","session_id","urlvar","current_url","audio_id","view_history","rt","device_id","stimulus","response","estimated_stimulus_onset","seq_name"
"true","false","[]","[]","[]","preload","0","599","0.0-0.0","48F0AA60E84147D7B8B7821066D45C56","48F0AA60E84147D7B8B7821066D45C56","1fded03c-689f-4128-ac73-c02041ebdaca","5e631737-0fa4-44a6-b227-7ba1d7345015","{""num_scrambled_semantic"":""8"",""num_scrambled_causal"":""4"",""num_scrambled_schematic"":""4"",""participantId"":""48F0AA60E84147D7B8B7821066D45C56"",""assignmentId"":""1fded03c-689f-4128-ac73-c02041ebdaca"",""projectId"":""5e631737-0fa4-44a6-b227-7ba1d7345015""}","https://test12345.live/?num_scrambled_semantic=8&num_scrambled_causal=4&num_scrambled_schematic=4&participantId=48F0AA60E84147D7B8B7821066D45C56&assignmentId=1fded03c-689f-4128-ac73-c02041ebdaca&projectId=5e631737-0fa4-44a6-b227-7ba1d7345015","48F0AA60E84147D7B8B7821066D45C56-2025-05-27-19-09-41","","","","","","",""
"","","","","","instructions","1","12688","0.0-1.0","48F0AA60E84147D7B8B7821066D45C56","48F0AA60E84147D7B8B7821066D45C56","1fded03c-689f-4128-ac73-c02041ebdaca","5e631737-0fa4-44a6-b227-7ba1d7345015","{""num_scrambled_semantic"":""8"",""num_scrambled_causal"":""4"",""num_scrambled_schematic"":""4"",""participantId"":""48F0AA60E84147D7B8B7821066D45C56"",""assignmentId"":""1fded03c-689f-4128-ac73-c02041ebdaca"",""projectId"":""5e631737-0fa4-44a6-b227-7ba1d7345015""}","https://test12345.live/?num_scrambled_semantic=8&num_scrambled_causal=4&num_scrambled_schematic=4&participantId=48F0AA60E84147D7B8B7821066D45C56&assignmentId=1fded03c-689f-4128-ac73-c02041ebdaca&projectId=5e631737-0fa4-44a6-b227-7ba1d7345015","48F0AA60E84147D7B8B7821066D45C56-2025-05-27-19-09-41","[{""page_index"":0,""viewing_time"":12089}]","12089","","","","",""
"","","","","","instructions","2","19513","0.0-2.0","48F0AA60E84147D7B8B7821066D45C56","48F0AA60E84147D7B8B7821066D45C56","1fded03c-689f-4128-ac73-c02041ebdaca","5e631737-0fa4-44a6-b227-7ba1d7345015","{""num_scrambled_semantic"":""8"",""num_scrambled_causal"":""4"",""num_scrambled_schematic"":""4"",""participantId"":""48F0AA60E84147D7B8B7821066D45C56"",""assignmentId"":""1fded03c-689f-4128-ac73-c02041ebdaca"",""projectId"":""5e631737-0fa4-44a6-b227-7ba1d7345015""}","https://test12345.live/?num_scrambled_semantic=8&num_scrambled_causal=4&num_scrambled_schematic=4&participantId=48F0AA60E84147D7B8B7821066D45C56&assignmentId=1fded03c-689f-4128-ac73-c02041ebdaca&projectId=5e631737-0fa4-44a6-b227-7ba1d7345015","48F0AA60E84147D7B8B7821066D45C56-2025-05-27-19-09-41","[{""page_index"":0,""viewing_time"":6822}]","6822","","","","",""
"true","","","","","fullscreen","3","29594","0.0-3.0","48F0AA60E84147D7B8B7821066D45C56","48F0AA60E84147D7B8B7821066D45C56","1fded03c-689f-4128-ac73-c02041ebdaca","5e631737-0fa4-44a6-b227-7ba1d7345015","{""num_scrambled_semantic"":""8"",""num_scrambled_causal"":""4"",""num_scrambled_schematic"":""4"",""participantId"":""48F0AA60E84147D7B8B7821066D45C56"",""assignmentId"":""1fded03c-689f-4128-ac73-c02041ebdaca"",""projectId"":""5e631737-0fa4-44a6-b227-7ba1d7345015""}","https://test12345.live/?num_scrambled_semantic=8&num_scrambled_causal=4&num_scrambled_schematic=4&participantId=48F0AA60E84147D7B8B7821066D45C56&assignmentId=1fded03c-689f-4128-ac73-c02041ebdaca&projectId=5e631737-0fa4-44a6-b227-7ba1d7345015","48F0AA60E84147D7B8B7821066D45C56-2025-05-27-19-09-41","","9070","","","","",""
"","","","","","initialize-microphone","4","35202","0.0-4.0-0.0","48F0AA60E84147D7B8B7821066D45C56","48F0AA60E84147D7B8B7821066D45C56","1fded03c-689f-4128-ac73-c02041ebdaca","5e631737-0fa4-44a6-b227-7ba1d7345015","{""num_scrambled_semantic"":""8"",""num_scrambled_causal"":""4"",""num_scrambled_schematic"":""4"",""participantId"":""48F0AA60E84147D7B8B7821066D45C56"",""assignmentId"":""1fded03c-689f-4128-ac73-c02041ebdaca"",""projectId"":""5e631737-0fa4-44a6-b227-7ba1d7345015""}","https://test12345.live/?num_scrambled_semantic=8&num_scrambled_causal=4&num_scrambled_schematic=4&participantId=48F0AA60E84147D7B8B7821066D45C56&assignmentId=1fded03c-689f-4128-ac73-c02041ebdaca&projectId=5e631737-0fa4-44a6-b227-7ba1d7345015","48F0AA60E84147D7B8B7821066D45C56-2025-05-27-19-09-41","","","4027a703024119f62a49bc298eddca784de91f1fc67978ae5b61e6d9ca550602","","","",""
"","","","","","html-audio-response","5","61600","0.0-4.0-1.0","48F0AA60E84147D7B8B7821066D45C56","48F0AA60E84147D7B8B7821066D45C56","1fded03c-689f-4128-ac73-c02041ebdaca","5e631737-0fa4-44a6-b227-7ba1d7345015","{""num_scrambled_semantic"":""8"",""num_scrambled_causal"":""4"",""num_scrambled_schematic"":""4"",""participantId"":""48F0AA60E84147D7B8B7821066D45C56"",""assignmentId"":""1fded03c-689f-4128-ac73-c02041ebdaca"",""projectId"":""5e631737-0fa4-44a6-b227-7ba1d7345015""}","https://test12345.live/?num_scrambled_semantic=8&num_scrambled_causal=4&num_scrambled_schematic=4&participantId=48F0AA60E84147D7B8B7821066D45C56&assignmentId=1fded03c-689f-4128-ac73-c02041ebdaca&projectId=5e631737-0fa4-44a6-b227-7ba1d7345015","48F0AA60E84147D7B8B7821066D45C56-2025-05-27-19-09-41","","3821","","<span style=""color: red; font-size: 24px""> NOW RECORDING</span>
        <p>Please test Microphone</p>","","14",""
"","","","","","html-button-response","6","64552","0.0-4.0-2.0","48F0AA60E84147D7B8B7821066D45C56","48F0AA60E84147D7B8B7821066D45C56","1fded03c-689f-4128-ac73-c02041ebdaca","5e631737-0fa4-44a6-b227-7ba1d7345015","{""num_scrambled_semantic"":""8"",""num_scrambled_causal"":""4"",""num_scrambled_schematic"":""4"",""participantId"":""48F0AA60E84147D7B8B7821066D45C56"",""assignmentId"":""1fded03c-689f-4128-ac73-c02041ebdaca"",""projectId"":""5e631737-0fa4-44a6-b227-7ba1d7345015""}","https://test12345.live/?num_scrambled_semantic=8&num_scrambled_causal=4&num_scrambled_schematic=4&participantId=48F0AA60E84147D7B8B7821066D45C56&assignmentId=1fded03c-689f-4128-ac73-c02041ebdaca&projectId=5e631737-0fa4-44a6-b227-7ba1d7345015","48F0AA60E84147D7B8B7821066D45C56-2025-05-27-19-09-41","","2951","","<p style=""font-size:48px; color:red;"">Is Microphone OK?</p>","1","",""
"","","","","","instructions","7","75792","0.0-5.0","48F0AA60E84147D7B8B7821066D45C56","48F0AA60E84147D7B8B7821066D45C56","1fded03c-689f-4128-ac73-c02041ebdaca","5e631737-0fa4-44a6-b227-7ba1d7345015","{""num_scrambled_semantic"":""8"",""num_scrambled_causal"":""4"",""num_scrambled_schematic"":""4"",""participantId"":""48F0AA60E84147D7B8B7821066D45C56"",""assignmentId"":""1fded03c-689f-4128-ac73-c02041ebdaca"",""projectId"":""5e631737-0fa4-44a6-b227-7ba1d7345015""}","https://test12345.live/?num_scrambled_semantic=8&num_scrambled_causal=4&num_scrambled_schematic=4&participantId=48F0AA60E84147D7B8B7821066D45C56&assignmentId=1fded03c-689f-4128-ac73-c02041ebdaca&projectId=5e631737-0fa4-44a6-b227-7ba1d7345015","48F0AA60E84147D7B8B7821066D45C56-2025-05-27-19-09-41","[{""page_index"":0,""viewing_time"":7384},{""page_index"":1,""viewing_time"":3856}]","11239","","","","",""
"","","","","","image-button-response","8","81796","0.0-6.0-0.0","48F0AA60E84147D7B8B7821066D45C56","48F0AA60E84147D7B8B7821066D45C56","1fded03c-689f-4128-ac73-c02041ebdaca","5e631737-0fa4-44a6-b227-7ba1d7345015","{""num_scrambled_semantic"":""8"",""num_scrambled_causal"":""4"",""num_scrambled_schematic"":""4"",""participantId"":""48F0AA60E84147D7B8B7821066D45C56"",""assignmentId"":""1fded03c-689f-4128-ac73-c02041ebdaca"",""projectId"":""5e631737-0fa4-44a6-b227-7ba1d7345015""}","https://test12345.live/?num_scrambled_semantic=8&num_scrambled_causal=4&num_scrambled_schematic=4&participantId=48F0AA60E84147D7B8B7821066D45C56&assignmentId=1fded03c-689f-4128-ac73-c02041ebdaca&projectId=5e631737-0fa4-44a6-b227-7ba1d7345015","48F0AA60E84147D7B8B7821066D45C56-2025-05-27-19-09-41","","null","","images/instructions/movie_0.png","null","",""
"","","","","","image-button-response","9","86310","0.0-6.0-1.0-0.0","48F0AA60E84147D7B8B7821066D45C56","48F0AA60E84147D7B8B7821066D45C56","1fded03c-689f-4128-ac73-c02041ebdaca","5e631737-0fa4-44a6-b227-7ba1d7345015","{""num_scrambled_semantic"":""8"",""num_scrambled_causal"":""4"",""num_scrambled_schematic"":""4"",""participantId"":""48F0AA60E84147D7B8B7821066D45C56"",""assignmentId"":""1fded03c-689f-4128-ac73-c02041ebdaca"",""projectId"":""5e631737-0fa4-44a6-b227-7ba1d7345015""}","https://test12345.live/?num_scrambled_semantic=8&num_scrambled_causal=4&num_scrambled_schematic=4&participantId=48F0AA60E84147D7B8B7821066D45C56&assignmentId=1fded03c-689f-4128-ac73-c02041ebdaca&projectId=5e631737-0fa4-44a6-b227-7ba1d7345015","48F0AA60E84147D7B8B7821066D45C56-2025-05-27-19-09-41","","null","","images/instructions/movie_1.png","null","",""
"","","","","","image-button-response","10","88896","0.0-6.0-1.0-1.0","48F0AA60E84147D7B8B7821066D45C56","48F0AA60E84147D7B8B7821066D45C56","1fded03c-689f-4128-ac73-c02041ebdaca","5e631737-0fa4-44a6-b227-7ba1d7345015","{""num_scrambled_semantic"":""8"",""num_scrambled_causal"":""4"",""num_scrambled_schematic"":""4"",""participantId"":""48F0AA60E84147D7B8B7821066D45C56"",""assignmentId"":""1fded03c-689f-4128-ac73-c02041ebdaca"",""projectId"":""5e631737-0fa4-44a6-b227-7ba1d7345015""}","https://test12345.live/?num_scrambled_semantic=8&num_scrambled_causal=4&num_scrambled_schematic=4&participantId=48F0AA60E84147D7B8B7821066D45C56&assignmentId=1fded03c-689f-4128-ac73-c02041ebdaca&projectId=5e631737-0fa4-44a6-b227-7ba1d7345015","48F0AA60E84147D7B8B7821066D45C56-2025-05-27-19-09-41","","2584","","images/instructions/movie_1.png","0","",""
"","","","","","image-button-response","11","90700","0.0-6.0-1.0-2.0","48F0AA60E84147D7B8B7821066D45C56","48F0AA60E84147D7B8B7821066D45C56","1fded03c-689f-4128-ac73-c02041ebdaca","5e631737-0fa4-44a6-b227-7ba1d7345015","{""num_scrambled_semantic"":""8"",""num_scrambled_causal"":""4"",""num_scrambled_schematic"":""4"",""participantId"":""48F0AA60E84147D7B8B7821066D45C56"",""assignmentId"":""1fded03c-689f-4128-ac73-c02041ebdaca"",""projectId"":""5e631737-0fa4-44a6-b227-7ba1d7345015""}","https://test12345.live/?num_scrambled_semantic=8&num_scrambled_causal=4&num_scrambled_schematic=4&participantId=48F0AA60E84147D7B8B7821066D45C56&assignmentId=1fded03c-689f-4128-ac73-c02041ebdaca&projectId=5e631737-0fa4-44a6-b227-7ba1d7345015","48F0AA60E84147D7B8B7821066D45C56-2025-05-27-19-09-41","","null","","[]","null","",""
"","","","","","image-button-response","12","95216","0.0-6.0-1.0-0.1","48F0AA60E84147D7B8B7821066D45C56","48F0AA60E84147D7B8B7821066D45C56","1fded03c-689f-4128-ac73-c02041ebdaca","5e631737-0fa4-44a6-b227-7ba1d7345015","{""num_scrambled_semantic"":""8"",""num_scrambled_causal"":""4"",""num_scrambled_schematic"":""4"",""participantId"":""48F0AA60E84147D7B8B7821066D45C56"",""assignmentId"":""1fded03c-689f-4128-ac73-c02041ebdaca"",""projectId"":""5e631737-0fa4-44a6-b227-7ba1d7345015""}","https://test12345.live/?num_scrambled_semantic=8&num_scrambled_causal=4&num_scrambled_schematic=4&participantId=48F0AA60E84147D7B8B7821066D45C56&assignmentId=1fded03c-689f-4128-ac73-c02041ebdaca&projectId=5e631737-0fa4-44a6-b227-7ba1d7345015","48F0AA60E84147D7B8B7821066D45C56-2025-05-27-19-09-41","","null","","images/instructions/movie_2.png","null","",""
"","","","","","image-button-response","13","96624","0.0-6.0-1.0-1.1","48F0AA60E84147D7B8B7821066D45C56","48F0AA60E84147D7B8B7821066D45C56","1fded03c-689f-4128-ac73-c02041ebdaca","5e631737-0fa4-44a6-b227-7ba1d7345015","{""num_scrambled_semantic"":""8"",""num_scrambled_causal"":""4"",""num_scrambled_schematic"":""4"",""participantId"":""48F0AA60E84147D7B8B7821066D45C56"",""assignmentId"":""1fded03c-689f-4128-ac73-c02041ebdaca"",""projectId"":""5e631737-0fa4-44a6-b227-7ba1d7345015""}","https://test12345.live/?num_scrambled_semantic=8&num_scrambled_causal=4&num_scrambled_schematic=4&participantId=48F0AA60E84147D7B8B7821066D45C56&assignmentId=1fded03c-689f-4128-ac73-c02041ebdaca&projectId=5e631737-0fa4-44a6-b227-7ba1d7345015","48F0AA60E84147D7B8B7821066D45C56-2025-05-27-19-09-41","","1407","","images/instructions/movie_2.png","0","",""
"","","","","","image-button-response","14","98436","0.0-6.0-1.0-2.1","48F0AA60E84147D7B8B7821066D45C56","48F0AA60E84147D7B8B7821066D45C56","1fded03c-689f-4128-ac73-c02041ebdaca","5e631737-0fa4-44a6-b227-7ba1d7345015","{""num_scrambled_semantic"":""8"",""num_scrambled_causal"":""4"",""num_scrambled_schematic"":""4"",""participantId"":""48F0AA60E84147D7B8B7821066D45C56"",""assignmentId"":""1fded03c-689f-4128-ac73-c02041ebdaca"",""projectId"":""5e631737-0fa4-44a6-b227-7ba1d7345015""}","https://test12345.live/?num_scrambled_semantic=8&num_scrambled_causal=4&num_scrambled_schematic=4&participantId=48F0AA60E84147D7B8B7821066D45C56&assignmentId=1fded03c-689f-4128-ac73-c02041ebdaca&projectId=5e631737-0fa4-44a6-b227-7ba1d7345015","48F0AA60E84147D7B8B7821066D45C56-2025-05-27-19-09-41","","null","","[]","null","",""
"","","","","","image-button-response","15","102952","0.0-6.0-1.0-0.2","48F0AA60E84147D7B8B7821066D45C56","48F0AA60E84147D7B8B7821066D45C56","1fded03c-689f-4128-ac73-c02041ebdaca","5e631737-0fa4-44a6-b227-7ba1d7345015","{""num_scrambled_semantic"":""8"",""num_scrambled_causal"":""4"",""num_scrambled_schematic"":""4"",""participantId"":""48F0AA60E84147D7B8B7821066D45C56"",""assignmentId"":""1fded03c-689f-4128-ac73-c02041ebdaca"",""projectId"":""5e631737-0fa4-44a6-b227-7ba1d7345015""}","https://test12345.live/?num_scrambled_semantic=8&num_scrambled_causal=4&num_scrambled_schematic=4&participantId=48F0AA60E84147D7B8B7821066D45C56&assignmentId=1fded03c-689f-4128-ac73-c02041ebdaca&projectId=5e631737-0fa4-44a6-b227-7ba1d7345015","48F0AA60E84147D7B8B7821066D45C56-2025-05-27-19-09-41","","null","","images/instructions/movie_3.png","null","",""
"","","","","","image-button-response","16","104161","0.0-6.0-1.0-1.2","48F0AA60E84147D7B8B7821066D45C56","48F0AA60E84147D7B8B7821066D45C56","1fded03c-689f-4128-ac73-c02041ebdaca","5e631737-0fa4-44a6-b227-7ba1d7345015","{""num_scrambled_semantic"":""8"",""num_scrambled_causal"":""4"",""num_scrambled_schematic"":""4"",""participantId"":""48F0AA60E84147D7B8B7821066D45C56"",""assignmentId"":""1fded03c-689f-4128-ac73-c02041ebdaca"",""projectId"":""5e631737-0fa4-44a6-b227-7ba1d7345015""}","https://test12345.live/?num_scrambled_semantic=8&num_scrambled_causal=4&num_scrambled_schematic=4&participantId=48F0AA60E84147D7B8B7821066D45C56&assignmentId=1fded03c-689f-4128-ac73-c02041ebdaca&projectId=5e631737-0fa4-44a6-b227-7ba1d7345015","48F0AA60E84147D7B8B7821066D45C56-2025-05-27-19-09-41","","1207","","images/instructions/movie_3.png","0","",""
"","","","","","image-button-response","17","105976","0.0-6.0-1.0-2.2","48F0AA60E84147D7B8B7821066D45C56","48F0AA60E84147D7B8B7821066D45C56","1fded03c-689f-4128-ac73-c02041ebdaca","5e631737-0fa4-44a6-b227-7ba1d7345015","{""num_scrambled_semantic"":""8"",""num_scrambled_causal"":""4"",""num_scrambled_schematic"":""4"",""participantId"":""48F0AA60E84147D7B8B7821066D45C56"",""assignmentId"":""1fded03c-689f-4128-ac73-c02041ebdaca"",""projectId"":""5e631737-0fa4-44a6-b227-7ba1d7345015""}","https://test12345.live/?num_scrambled_semantic=8&num_scrambled_causal=4&num_scrambled_schematic=4&participantId=48F0AA60E84147D7B8B7821066D45C56&assignmentId=1fded03c-689f-4128-ac73-c02041ebdaca&projectId=5e631737-0fa4-44a6-b227-7ba1d7345015","48F0AA60E84147D7B8B7821066D45C56-2025-05-27-19-09-41","","null","","[]","null","",""
"","","","","","image-button-response","18","110482","0.0-6.0-1.0-0.3","48F0AA60E84147D7B8B7821066D45C56","48F0AA60E84147D7B8B7821066D45C56","1fded03c-689f-4128-ac73-c02041ebdaca","5e631737-0fa4-44a6-b227-7ba1d7345015","{""num_scrambled_semantic"":""8"",""num_scrambled_causal"":""4"",""num_scrambled_schematic"":""4"",""participantId"":""48F0AA60E84147D7B8B7821066D45C56"",""assignmentId"":""1fded03c-689f-4128-ac73-c02041ebdaca"",""projectId"":""5e631737-0fa4-44a6-b227-7ba1d7345015""}","https://test12345.live/?num_scrambled_semantic=8&num_scrambled_causal=4&num_scrambled_schematic=4&participantId=48F0AA60E84147D7B8B7821066D45C56&assignmentId=1fded03c-689f-4128-ac73-c02041ebdaca&projectId=5e631737-0fa4-44a6-b227-7ba1d7345015","48F0AA60E84147D7B8B7821066D45C56-2025-05-27-19-09-41","","null","","images/instructions/movie_4.png","null","",""
"","","","","","image-button-response","19","111016","0.0-6.0-1.0-1.3","48F0AA60E84147D7B8B7821066D45C56","48F0AA60E84147D7B8B7821066D45C56","1fded03c-689f-4128-ac73-c02041ebdaca","5e631737-0fa4-44a6-b227-7ba1d7345015","{""num_scrambled_semantic"":""8"",""num_scrambled_causal"":""4"",""num_scrambled_schematic"":""4"",""participantId"":""48F0AA60E84147D7B8B7821066D45C56"",""assignmentId"":""1fded03c-689f-4128-ac73-c02041ebdaca"",""projectId"":""5e631737-0fa4-44a6-b227-7ba1d7345015""}","https://test12345.live/?num_scrambled_semantic=8&num_scrambled_causal=4&num_scrambled_schematic=4&participantId=48F0AA60E84147D7B8B7821066D45C56&assignmentId=1fded03c-689f-4128-ac73-c02041ebdaca&projectId=5e631737-0fa4-44a6-b227-7ba1d7345015","48F0AA60E84147D7B8B7821066D45C56-2025-05-27-19-09-41","","533","","images/instructions/movie_4.png","0","",""
"","","","","","image-button-response","20","112826","0.0-6.0-1.0-2.3","48F0AA60E84147D7B8B7821066D45C56","48F0AA60E84147D7B8B7821066D45C56","1fded03c-689f-4128-ac73-c02041ebdaca","5e631737-0fa4-44a6-b227-7ba1d7345015","{""num_scrambled_semantic"":""8"",""num_scrambled_causal"":""4"",""num_scrambled_schematic"":""4"",""participantId"":""48F0AA60E84147D7B8B7821066D45C56"",""assignmentId"":""1fded03c-689f-4128-ac73-c02041ebdaca"",""projectId"":""5e631737-0fa4-44a6-b227-7ba1d7345015""}","https://test12345.live/?num_scrambled_semantic=8&num_scrambled_causal=4&num_scrambled_schematic=4&participantId=48F0AA60E84147D7B8B7821066D45C56&assignmentId=1fded03c-689f-4128-ac73-c02041ebdaca&projectId=5e631737-0fa4-44a6-b227-7ba1d7345015","48F0AA60E84147D7B8B7821066D45C56-2025-05-27-19-09-41","","null","","[]","null","",""
"","","","","","instructions","21","123008","0.0-7.0","48F0AA60E84147D7B8B7821066D45C56","48F0AA60E84147D7B8B7821066D45C56","1fded03c-689f-4128-ac73-c02041ebdaca","5e631737-0fa4-44a6-b227-7ba1d7345015","{""num_scrambled_semantic"":""8"",""num_scrambled_causal"":""4"",""num_scrambled_schematic"":""4"",""participantId"":""48F0AA60E84147D7B8B7821066D45C56"",""assignmentId"":""1fded03c-689f-4128-ac73-c02041ebdaca"",""projectId"":""5e631737-0fa4-44a6-b227-7ba1d7345015""}","https://test12345.live/?num_scrambled_semantic=8&num_scrambled_causal=4&num_scrambled_schematic=4&participantId=48F0AA60E84147D7B8B7821066D45C56&assignmentId=1fded03c-689f-4128-ac73-c02041ebdaca&projectId=5e631737-0fa4-44a6-b227-7ba1d7345015","48F0AA60E84147D7B8B7821066D45C56-2025-05-27-19-09-41","[{""page_index"":0,""viewing_time"":9341},{""page_index"":1,""viewing_time"":840}]","10182","","","","",""
"","","","","","html-audio-response","22","228632","0.0-8.0","48F0AA60E84147D7B8B7821066D45C56","48F0AA60E84147D7B8B7821066D45C56","1fded03c-689f-4128-ac73-c02041ebdaca","5e631737-0fa4-44a6-b227-7ba1d7345015","{""num_scrambled_semantic"":""8"",""num_scrambled_causal"":""4"",""num_scrambled_schematic"":""4"",""participantId"":""48F0AA60E84147D7B8B7821066D45C56"",""assignmentId"":""1fded03c-689f-4128-ac73-c02041ebdaca"",""projectId"":""5e631737-0fa4-44a6-b227-7ba1d7345015""}","https://test12345.live/?num_scrambled_semantic=8&num_scrambled_causal=4&num_scrambled_schematic=4&participantId=48F0AA60E84147D7B8B7821066D45C56&assignmentId=1fded03c-689f-4128-ac73-c02041ebdaca&projectId=5e631737-0fa4-44a6-b227-7ba1d7345015","48F0AA60E84147D7B8B7821066D45C56-2025-05-27-19-09-41","","9531","","[""<span style=\""color: red; font-size: 24px\""> NOW RECORDING</span><p>Please say out loud all the images you saw in the exact order you saw them. Try to recall as many images as you can, but remember: getting the order right is more important than the number of images you recall.</p>""]","","4",""
"","","","","","instructions","23","231360","0.0-9.0","48F0AA60E84147D7B8B7821066D45C56","48F0AA60E84147D7B8B7821066D45C56","1fded03c-689f-4128-ac73-c02041ebdaca","5e631737-0fa4-44a6-b227-7ba1d7345015","{""num_scrambled_semantic"":""8"",""num_scrambled_causal"":""4"",""num_scrambled_schematic"":""4"",""participantId"":""48F0AA60E84147D7B8B7821066D45C56"",""assignmentId"":""1fded03c-689f-4128-ac73-c02041ebdaca"",""projectId"":""5e631737-0fa4-44a6-b227-7ba1d7345015""}","https://test12345.live/?num_scrambled_semantic=8&num_scrambled_causal=4&num_scrambled_schematic=4&participantId=48F0AA60E84147D7B8B7821066D45C56&assignmentId=1fded03c-689f-4128-ac73-c02041ebdaca&projectId=5e631737-0fa4-44a6-b227-7ba1d7345015","48F0AA60E84147D7B8B7821066D45C56-2025-05-27-19-09-41","[{""page_index"":0,""viewing_time"":2725}]","2725","","","","",""
"","","","","","image-button-response","24","237375","0.0-10.0-0.0","48F0AA60E84147D7B8B7821066D45C56","48F0AA60E84147D7B8B7821066D45C56","1fded03c-689f-4128-ac73-c02041ebdaca","5e631737-0fa4-44a6-b227-7ba1d7345015","{""num_scrambled_semantic"":""8"",""num_scrambled_causal"":""4"",""num_scrambled_schematic"":""4"",""participantId"":""48F0AA60E84147D7B8B7821066D45C56"",""assignmentId"":""1fded03c-689f-4128-ac73-c02041ebdaca"",""projectId"":""5e631737-0fa4-44a6-b227-7ba1d7345015""}","https://test12345.live/?num_scrambled_semantic=8&num_scrambled_causal=4&num_scrambled_schematic=4&participantId=48F0AA60E84147D7B8B7821066D45C56&assignmentId=1fded03c-689f-4128-ac73-c02041ebdaca&projectId=5e631737-0fa4-44a6-b227-7ba1d7345015","48F0AA60E84147D7B8B7821066D45C56-2025-05-27-19-09-41","","null","","images/semantic_sequence/cat_care_semantic/cat_care_semantic_0.png","null","",""
"","","","","","image-button-response","25","241890","0.0-10.0-1.0-0.0","48F0AA60E84147D7B8B7821066D45C56","48F0AA60E84147D7B8B7821066D45C56","1fded03c-689f-4128-ac73-c02041ebdaca","5e631737-0fa4-44a6-b227-7ba1d7345015","{""num_scrambled_semantic"":""8"",""num_scrambled_causal"":""4"",""num_scrambled_schematic"":""4"",""participantId"":""48F0AA60E84147D7B8B7821066D45C56"",""assignmentId"":""1fded03c-689f-4128-ac73-c02041ebdaca"",""projectId"":""5e631737-0fa4-44a6-b227-7ba1d7345015""}","https://test12345.live/?num_scrambled_semantic=8&num_scrambled_causal=4&num_scrambled_schematic=4&participantId=48F0AA60E84147D7B8B7821066D45C56&assignmentId=1fded03c-689f-4128-ac73-c02041ebdaca&projectId=5e631737-0fa4-44a6-b227-7ba1d7345015","48F0AA60E84147D7B8B7821066D45C56-2025-05-27-19-09-41","","null","","images/semantic_sequence/cat_care_semantic/cat_care_semantic_2.png","null","",""
"","","","","","image-button-response","26","245896","0.0-10.0-1.0-1.0","48F0AA60E84147D7B8B7821066D45C56","48F0AA60E84147D7B8B7821066D45C56","1fded03c-689f-4128-ac73-c02041ebdaca","5e631737-0fa4-44a6-b227-7ba1d7345015","{""num_scrambled_semantic"":""8"",""num_scrambled_causal"":""4"",""num_scrambled_schematic"":""4"",""participantId"":""48F0AA60E84147D7B8B7821066D45C56"",""assignmentId"":""1fded03c-689f-4128-ac73-c02041ebdaca"",""projectId"":""5e631737-0fa4-44a6-b227-7ba1d7345015""}","https://test12345.live/?num_scrambled_semantic=8&num_scrambled_causal=4&num_scrambled_schematic=4&participantId=48F0AA60E84147D7B8B7821066D45C56&assignmentId=1fded03c-689f-4128-ac73-c02041ebdaca&projectId=5e631737-0fa4-44a6-b227-7ba1d7345015","48F0AA60E84147D7B8B7821066D45C56-2025-05-27-19-09-41","","null","","images/semantic_sequence/cat_care_semantic/cat_care_semantic_2.png","null","",""
"","","","","","image-button-response","27","247701","0.0-10.0-1.0-2.0","48F0AA60E84147D7B8B7821066D45C56","48F0AA60E84147D7B8B7821066D45C56","1fded03c-689f-4128-ac73-c02041ebdaca","5e631737-0fa4-44a6-b227-7ba1d7345015","{""num_scrambled_semantic"":""8"",""num_scrambled_causal"":""4"",""num_scrambled_schematic"":""4"",""participantId"":""48F0AA60E84147D7B8B7821066D45C56"",""assignmentId"":""1fded03c-689f-4128-ac73-c02041ebdaca"",""projectId"":""5e631737-0fa4-44a6-b227-7ba1d7345015""}","https://test12345.live/?num_scrambled_semantic=8&num_scrambled_causal=4&num_scrambled_schematic=4&participantId=48F0AA60E84147D7B8B7821066D45C56&assignmentId=1fded03c-689f-4128-ac73-c02041ebdaca&projectId=5e631737-0fa4-44a6-b227-7ba1d7345015","48F0AA60E84147D7B8B7821066D45C56-2025-05-27-19-09-41","","null","","[]","null","",""
"","","","","","image-button-response","28","252206","0.0-10.0-1.0-0.1","48F0AA60E84147D7B8B7821066D45C56","48F0AA60E84147D7B8B7821066D45C56","1fded03c-689f-4128-ac73-c02041ebdaca","5e631737-0fa4-44a6-b227-7ba1d7345015","{""num_scrambled_semantic"":""8"",""num_scrambled_causal"":""4"",""num_scrambled_schematic"":""4"",""participantId"":""48F0AA60E84147D7B8B7821066D45C56"",""assignmentId"":""1fded03c-689f-4128-ac73-c02041ebdaca"",""projectId"":""5e631737-0fa4-44a6-b227-7ba1d7345015""}","https://test12345.live/?num_scrambled_semantic=8&num_scrambled_causal=4&num_scrambled_schematic=4&participantId=48F0AA60E84147D7B8B7821066D45C56&assignmentId=1fded03c-689f-4128-ac73-c02041ebdaca&projectId=5e631737-0fa4-44a6-b227-7ba1d7345015","48F0AA60E84147D7B8B7821066D45C56-2025-05-27-19-09-41","","null","","images/semantic_sequence/cat_care_semantic/cat_care_semantic_4.png","null","",""
"","","","","","image-button-response","29","253529","0.0-10.0-1.0-1.1","48F0AA60E84147D7B8B7821066D45C56","48F0AA60E84147D7B8B7821066D45C56","1fded03c-689f-4128-ac73-c02041ebdaca","5e631737-0fa4-44a6-b227-7ba1d7345015","{""num_scrambled_semantic"":""8"",""num_scrambled_causal"":""4"",""num_scrambled_schematic"":""4"",""participantId"":""48F0AA60E84147D7B8B7821066D45C56"",""assignmentId"":""1fded03c-689f-4128-ac73-c02041ebdaca"",""projectId"":""5e631737-0fa4-44a6-b227-7ba1d7345015""}","https://test12345.live/?num_scrambled_semantic=8&num_scrambled_causal=4&num_scrambled_schematic=4&participantId=48F0AA60E84147D7B8B7821066D45C56&assignmentId=1fded03c-689f-4128-ac73-c02041ebdaca&projectId=5e631737-0fa4-44a6-b227-7ba1d7345015","48F0AA60E84147D7B8B7821066D45C56-2025-05-27-19-09-41","","1321","","images/semantic_sequence/cat_care_semantic/cat_care_semantic_4.png","0","",""
"","","","","","image-button-response","30","255343","0.0-10.0-1.0-2.1","48F0AA60E84147D7B8B7821066D45C56","48F0AA60E84147D7B8B7821066D45C56","1fded03c-689f-4128-ac73-c02041ebdaca","5e631737-0fa4-44a6-b227-7ba1d7345015","{""num_scrambled_semantic"":""8"",""num_scrambled_causal"":""4"",""num_scrambled_schematic"":""4"",""participantId"":""48F0AA60E84147D7B8B7821066D45C56"",""assignmentId"":""1fded03c-689f-4128-ac73-c02041ebdaca"",""projectId"":""5e631737-0fa4-44a6-b227-7ba1d7345015""}","https://test12345.live/?num_scrambled_semantic=8&num_scrambled_causal=4&num_scrambled_schematic=4&participantId=48F0AA60E84147D7B8B7821066D45C56&assignmentId=1fded03c-689f-4128-ac73-c02041ebdaca&projectId=5e631737-0fa4-44a6-b227-7ba1d7345015","48F0AA60E84147D7B8B7821066D45C56-2025-05-27-19-09-41","","null","","[]","null","",""
"","","","","","image-button-response","31","259858","0.0-10.0-1.0-0.2","48F0AA60E84147D7B8B7821066D45C56","48F0AA60E84147D7B8B7821066D45C56","1fded03c-689f-4128-ac73-c02041ebdaca","5e631737-0fa4-44a6-b227-7ba1d7345015","{""num_scrambled_semantic"":""8"",""num_scrambled_causal"":""4"",""num_scrambled_schematic"":""4"",""participantId"":""48F0AA60E84147D7B8B7821066D45C56"",""assignmentId"":""1fded03c-689f-4128-ac73-c02041ebdaca"",""projectId"":""5e631737-0fa4-44a6-b227-7ba1d7345015""}","https://test12345.live/?num_scrambled_semantic=8&num_scrambled_causal=4&num_scrambled_schematic=4&participantId=48F0AA60E84147D7B8B7821066D45C56&assignmentId=1fded03c-689f-4128-ac73-c02041ebdaca&projectId=5e631737-0fa4-44a6-b227-7ba1d7345015","48F0AA60E84147D7B8B7821066D45C56-2025-05-27-19-09-41","","null","","images/semantic_sequence/cat_care_semantic/cat_care_semantic_1.png","null","",""
"","","","","","image-button-response","32","260473","0.0-10.0-1.0-1.2","48F0AA60E84147D7B8B7821066D45C56","48F0AA60E84147D7B8B7821066D45C56","1fded03c-689f-4128-ac73-c02041ebdaca","5e631737-0fa4-44a6-b227-7ba1d7345015","{""num_scrambled_semantic"":""8"",""num_scrambled_causal"":""4"",""num_scrambled_schematic"":""4"",""participantId"":""48F0AA60E84147D7B8B7821066D45C56"",""assignmentId"":""1fded03c-689f-4128-ac73-c02041ebdaca"",""projectId"":""5e631737-0fa4-44a6-b227-7ba1d7345015""}","https://test12345.live/?num_scrambled_semantic=8&num_scrambled_causal=4&num_scrambled_schematic=4&participantId=48F0AA60E84147D7B8B7821066D45C56&assignmentId=1fded03c-689f-4128-ac73-c02041ebdaca&projectId=5e631737-0fa4-44a6-b227-7ba1d7345015","48F0AA60E84147D7B8B7821066D45C56-2025-05-27-19-09-41","","613","","images/semantic_sequence/cat_care_semantic/cat_care_semantic_1.png","0","",""
"","","","","","image-button-response","33","262278","0.0-10.0-1.0-2.2","48F0AA60E84147D7B8B7821066D45C56","48F0AA60E84147D7B8B7821066D45C56","1fded03c-689f-4128-ac73-c02041ebdaca","5e631737-0fa4-44a6-b227-7ba1d7345015","{""num_scrambled_semantic"":""8"",""num_scrambled_causal"":""4"",""num_scrambled_schematic"":""4"",""participantId"":""48F0AA60E84147D7B8B7821066D45C56"",""assignmentId"":""1fded03c-689f-4128-ac73-c02041ebdaca"",""projectId"":""5e631737-0fa4-44a6-b227-7ba1d7345015""}","https://test12345.live/?num_scrambled_semantic=8&num_scrambled_causal=4&num_scrambled_schematic=4&participantId=48F0AA60E84147D7B8B7821066D45C56&assignmentId=1fded03c-689f-4128-ac73-c02041ebdaca&projectId=5e631737-0fa4-44a6-b227-7ba1d7345015","48F0AA60E84147D7B8B7821066D45C56-2025-05-27-19-09-41","","null","","[]","null","",""
"","","","","","image-button-response","34","266795","0.0-10.0-1.0-0.3","48F0AA60E84147D7B8B7821066D45C56","48F0AA60E84147D7B8B7821066D45C56","1fded03c-689f-4128-ac73-c02041ebdaca","5e631737-0fa4-44a6-b227-7ba1d7345015","{""num_scrambled_semantic"":""8"",""num_scrambled_causal"":""4"",""num_scrambled_schematic"":""4"",""participantId"":""48F0AA60E84147D7B8B7821066D45C56"",""assignmentId"":""1fded03c-689f-4128-ac73-c02041ebdaca"",""projectId"":""5e631737-0fa4-44a6-b227-7ba1d7345015""}","https://test12345.live/?num_scrambled_semantic=8&num_scrambled_causal=4&num_scrambled_schematic=4&participantId=48F0AA60E84147D7B8B7821066D45C56&assignmentId=1fded03c-689f-4128-ac73-c02041ebdaca&projectId=5e631737-0fa4-44a6-b227-7ba1d7345015","48F0AA60E84147D7B8B7821066D45C56-2025-05-27-19-09-41","","null","","images/semantic_sequence/cat_care_semantic/cat_care_semantic_5.png","null","",""
"","","","","","image-button-response","35","268513","0.0-10.0-1.0-1.3","48F0AA60E84147D7B8B7821066D45C56","48F0AA60E84147D7B8B7821066D45C56","1fded03c-689f-4128-ac73-c02041ebdaca","5e631737-0fa4-44a6-b227-7ba1d7345015","{""num_scrambled_semantic"":""8"",""num_scrambled_causal"":""4"",""num_scrambled_schematic"":""4"",""participantId"":""48F0AA60E84147D7B8B7821066D45C56"",""assignmentId"":""1fded03c-689f-4128-ac73-c02041ebdaca"",""projectId"":""5e631737-0fa4-44a6-b227-7ba1d7345015""}","https://test12345.live/?num_scrambled_semantic=8&num_scrambled_causal=4&num_scrambled_schematic=4&participantId=48F0AA60E84147D7B8B7821066D45C56&assignmentId=1fded03c-689f-4128-ac73-c02041ebdaca&projectId=5e631737-0fa4-44a6-b227-7ba1d7345015","48F0AA60E84147D7B8B7821066D45C56-2025-05-27-19-09-41","","1716","","images/semantic_sequence/cat_care_semantic/cat_care_semantic_5.png","0","",""
"","","","","","image-button-response","36","270327","0.0-10.0-1.0-2.3","48F0AA60E84147D7B8B7821066D45C56","48F0AA60E84147D7B8B7821066D45C56","1fded03c-689f-4128-ac73-c02041ebdaca","5e631737-0fa4-44a6-b227-7ba1d7345015","{""num_scrambled_semantic"":""8"",""num_scrambled_causal"":""4"",""num_scrambled_schematic"":""4"",""participantId"":""48F0AA60E84147D7B8B7821066D45C56"",""assignmentId"":""1fded03c-689f-4128-ac73-c02041ebdaca"",""projectId"":""5e631737-0fa4-44a6-b227-7ba1d7345015""}","https://test12345.live/?num_scrambled_semantic=8&num_scrambled_causal=4&num_scrambled_schematic=4&participantId=48F0AA60E84147D7B8B7821066D45C56&assignmentId=1fded03c-689f-4128-ac73-c02041ebdaca&projectId=5e631737-0fa4-44a6-b227-7ba1d7345015","48F0AA60E84147D7B8B7821066D45C56-2025-05-27-19-09-41","","null","","[]","null","",""
"","","","","","image-button-response","37","274842","0.0-10.0-1.0-0.4","48F0AA60E84147D7B8B7821066D45C56","48F0AA60E84147D7B8B7821066D45C56","1fded03c-689f-4128-ac73-c02041ebdaca","5e631737-0fa4-44a6-b227-7ba1d7345015","{""num_scrambled_semantic"":""8"",""num_scrambled_causal"":""4"",""num_scrambled_schematic"":""4"",""participantId"":""48F0AA60E84147D7B8B7821066D45C56"",""assignmentId"":""1fded03c-689f-4128-ac73-c02041ebdaca"",""projectId"":""5e631737-0fa4-44a6-b227-7ba1d7345015""}","https://test12345.live/?num_scrambled_semantic=8&num_scrambled_causal=4&num_scrambled_schematic=4&participantId=48F0AA60E84147D7B8B7821066D45C56&assignmentId=1fded03c-689f-4128-ac73-c02041ebdaca&projectId=5e631737-0fa4-44a6-b227-7ba1d7345015","48F0AA60E84147D7B8B7821066D45C56-2025-05-27-19-09-41","","null","","images/semantic_sequence/cat_care_semantic/cat_care_semantic_9.png","null","",""
"","","","","","image-button-response","38","275849","0.0-10.0-1.0-1.4","48F0AA60E84147D7B8B7821066D45C56","48F0AA60E84147D7B8B7821066D45C56","1fded03c-689f-4128-ac73-c02041ebdaca","5e631737-0fa4-44a6-b227-7ba1d7345015","{""num_scrambled_semantic"":""8"",""num_scrambled_causal"":""4"",""num_scrambled_schematic"":""4"",""participantId"":""48F0AA60E84147D7B8B7821066D45C56"",""assignmentId"":""1fded03c-689f-4128-ac73-c02041ebdaca"",""projectId"":""5e631737-0fa4-44a6-b227-7ba1d7345015""}","https://test12345.live/?num_scrambled_semantic=8&num_scrambled_causal=4&num_scrambled_schematic=4&participantId=48F0AA60E84147D7B8B7821066D45C56&assignmentId=1fded03c-689f-4128-ac73-c02041ebdaca&projectId=5e631737-0fa4-44a6-b227-7ba1d7345015","48F0AA60E84147D7B8B7821066D45C56-2025-05-27-19-09-41","","1005","","images/semantic_sequence/cat_care_semantic/cat_care_semantic_9.png","0","",""
"","","","","","image-button-response","39","277655","0.0-10.0-1.0-2.4","48F0AA60E84147D7B8B7821066D45C56","48F0AA60E84147D7B8B7821066D45C56","1fded03c-689f-4128-ac73-c02041ebdaca","5e631737-0fa4-44a6-b227-7ba1d7345015","{""num_scrambled_semantic"":""8"",""num_scrambled_causal"":""4"",""num_scrambled_schematic"":""4"",""participantId"":""48F0AA60E84147D7B8B7821066D45C56"",""assignmentId"":""1fded03c-689f-4128-ac73-c02041ebdaca"",""projectId"":""5e631737-0fa4-44a6-b227-7ba1d7345015""}","https://test12345.live/?num_scrambled_semantic=8&num_scrambled_causal=4&num_scrambled_schematic=4&participantId=48F0AA60E84147D7B8B7821066D45C56&assignmentId=1fded03c-689f-4128-ac73-c02041ebdaca&projectId=5e631737-0fa4-44a6-b227-7ba1d7345015","48F0AA60E84147D7B8B7821066D45C56-2025-05-27-19-09-41","","null","","[]","null","",""
"","","","","","image-button-response","40","282171","0.0-10.0-1.0-0.5","48F0AA60E84147D7B8B7821066D45C56","48F0AA60E84147D7B8B7821066D45C56","1fded03c-689f-4128-ac73-c02041ebdaca","5e631737-0fa4-44a6-b227-7ba1d7345015","{""num_scrambled_semantic"":""8"",""num_scrambled_causal"":""4"",""num_scrambled_schematic"":""4"",""participantId"":""48F0AA60E84147D7B8B7821066D45C56"",""assignmentId"":""1fded03c-689f-4128-ac73-c02041ebdaca"",""projectId"":""5e631737-0fa4-44a6-b227-7ba1d7345015""}","https://test12345.live/?num_scrambled_semantic=8&num_scrambled_causal=4&num_scrambled_schematic=4&participantId=48F0AA60E84147D7B8B7821066D45C56&assignmentId=1fded03c-689f-4128-ac73-c02041ebdaca&projectId=5e631737-0fa4-44a6-b227-7ba1d7345015","48F0AA60E84147D7B8B7821066D45C56-2025-05-27-19-09-41","","null","","images/semantic_sequence/cat_care_semantic/cat_care_semantic_7.png","null","",""
"","","","","","image-button-response","41","283297","0.0-10.0-1.0-1.5","48F0AA60E84147D7B8B7821066D45C56","48F0AA60E84147D7B8B7821066D45C56","1fded03c-689f-4128-ac73-c02041ebdaca","5e631737-0fa4-44a6-b227-7ba1d7345015","{""num_scrambled_semantic"":""8"",""num_scrambled_causal"":""4"",""num_scrambled_schematic"":""4"",""participantId"":""48F0AA60E84147D7B8B7821066D45C56"",""assignmentId"":""1fded03c-689f-4128-ac73-c02041ebdaca"",""projectId"":""5e631737-0fa4-44a6-b227-7ba1d7345015""}","https://test12345.live/?num_scrambled_semantic=8&num_scrambled_causal=4&num_scrambled_schematic=4&participantId=48F0AA60E84147D7B8B7821066D45C56&assignmentId=1fded03c-689f-4128-ac73-c02041ebdaca&projectId=5e631737-0fa4-44a6-b227-7ba1d7345015","48F0AA60E84147D7B8B7821066D45C56-2025-05-27-19-09-41","","1124","","images/semantic_sequence/cat_care_semantic/cat_care_semantic_7.png","0","",""
"","","","","","image-button-response","42","285108","0.0-10.0-1.0-2.5","48F0AA60E84147D7B8B7821066D45C56","48F0AA60E84147D7B8B7821066D45C56","1fded03c-689f-4128-ac73-c02041ebdaca","5e631737-0fa4-44a6-b227-7ba1d7345015","{""num_scrambled_semantic"":""8"",""num_scrambled_causal"":""4"",""num_scrambled_schematic"":""4"",""participantId"":""48F0AA60E84147D7B8B7821066D45C56"",""assignmentId"":""1fded03c-689f-4128-ac73-c02041ebdaca"",""projectId"":""5e631737-0fa4-44a6-b227-7ba1d7345015""}","https://test12345.live/?num_scrambled_semantic=8&num_scrambled_causal=4&num_scrambled_schematic=4&participantId=48F0AA60E84147D7B8B7821066D45C56&assignmentId=1fded03c-689f-4128-ac73-c02041ebdaca&projectId=5e631737-0fa4-44a6-b227-7ba1d7345015","48F0AA60E84147D7B8B7821066D45C56-2025-05-27-19-09-41","","null","","[]","null","",""
"","","","","","image-button-response","43","289630","0.0-10.0-1.0-0.6","48F0AA60E84147D7B8B7821066D45C56","48F0AA60E84147D7B8B7821066D45C56","1fded03c-689f-4128-ac73-c02041ebdaca","5e631737-0fa4-44a6-b227-7ba1d7345015","{""num_scrambled_semantic"":""8"",""num_scrambled_causal"":""4"",""num_scrambled_schematic"":""4"",""participantId"":""48F0AA60E84147D7B8B7821066D45C56"",""assignmentId"":""1fded03c-689f-4128-ac73-c02041ebdaca"",""projectId"":""5e631737-0fa4-44a6-b227-7ba1d7345015""}","https://test12345.live/?num_scrambled_semantic=8&num_scrambled_causal=4&num_scrambled_schematic=4&participantId=48F0AA60E84147D7B8B7821066D45C56&assignmentId=1fded03c-689f-4128-ac73-c02041ebdaca&projectId=5e631737-0fa4-44a6-b227-7ba1d7345015","48F0AA60E84147D7B8B7821066D45C56-2025-05-27-19-09-41","","null","","images/semantic_sequence/cat_care_semantic/cat_care_semantic_8.png","null","",""
"","","","","","image-button-response","44","290329","0.0-10.0-1.0-1.6","48F0AA60E84147D7B8B7821066D45C56","48F0AA60E84147D7B8B7821066D45C56","1fded03c-689f-4128-ac73-c02041ebdaca","5e631737-0fa4-44a6-b227-7ba1d7345015","{""num_scrambled_semantic"":""8"",""num_scrambled_causal"":""4"",""num_scrambled_schematic"":""4"",""participantId"":""48F0AA60E84147D7B8B7821066D45C56"",""assignmentId"":""1fded03c-689f-4128-ac73-c02041ebdaca"",""projectId"":""5e631737-0fa4-44a6-b227-7ba1d7345015""}","https://test12345.live/?num_scrambled_semantic=8&num_scrambled_causal=4&num_scrambled_schematic=4&participantId=48F0AA60E84147D7B8B7821066D45C56&assignmentId=1fded03c-689f-4128-ac73-c02041ebdaca&projectId=5e631737-0fa4-44a6-b227-7ba1d7345015","48F0AA60E84147D7B8B7821066D45C56-2025-05-27-19-09-41","","697","","images/semantic_sequence/cat_care_semantic/cat_care_semantic_8.png","0","",""
"","","","","","image-button-response","45","292141","0.0-10.0-1.0-2.6","48F0AA60E84147D7B8B7821066D45C56","48F0AA60E84147D7B8B7821066D45C56","1fded03c-689f-4128-ac73-c02041ebdaca","5e631737-0fa4-44a6-b227-7ba1d7345015","{""num_scrambled_semantic"":""8"",""num_scrambled_causal"":""4"",""num_scrambled_schematic"":""4"",""participantId"":""48F0AA60E84147D7B8B7821066D45C56"",""assignmentId"":""1fded03c-689f-4128-ac73-c02041ebdaca"",""projectId"":""5e631737-0fa4-44a6-b227-7ba1d7345015""}","https://test12345.live/?num_scrambled_semantic=8&num_scrambled_causal=4&num_scrambled_schematic=4&participantId=48F0AA60E84147D7B8B7821066D45C56&assignmentId=1fded03c-689f-4128-ac73-c02041ebdaca&projectId=5e631737-0fa4-44a6-b227-7ba1d7345015","48F0AA60E84147D7B8B7821066D45C56-2025-05-27-19-09-41","","null","","[]","null","",""
"","","","","","image-button-response","46","296655","0.0-10.0-1.0-0.7","48F0AA60E84147D7B8B7821066D45C56","48F0AA60E84147D7B8B7821066D45C56","1fded03c-689f-4128-ac73-c02041ebdaca","5e631737-0fa4-44a6-b227-7ba1d7345015","{""num_scrambled_semantic"":""8"",""num_scrambled_causal"":""4"",""num_scrambled_schematic"":""4"",""participantId"":""48F0AA60E84147D7B8B7821066D45C56"",""assignmentId"":""1fded03c-689f-4128-ac73-c02041ebdaca"",""projectId"":""5e631737-0fa4-44a6-b227-7ba1d7345015""}","https://test12345.live/?num_scrambled_semantic=8&num_scrambled_causal=4&num_scrambled_schematic=4&participantId=48F0AA60E84147D7B8B7821066D45C56&assignmentId=1fded03c-689f-4128-ac73-c02041ebdaca&projectId=5e631737-0fa4-44a6-b227-7ba1d7345015","48F0AA60E84147D7B8B7821066D45C56-2025-05-27-19-09-41","","null","","images/semantic_sequence/cat_care_semantic/cat_care_semantic_6.png","null","",""
"","","","","","image-button-response","47","297305","0.0-10.0-1.0-1.7","48F0AA60E84147D7B8B7821066D45C56","48F0AA60E84147D7B8B7821066D45C56","1fded03c-689f-4128-ac73-c02041ebdaca","5e631737-0fa4-44a6-b227-7ba1d7345015","{""num_scrambled_semantic"":""8"",""num_scrambled_causal"":""4"",""num_scrambled_schematic"":""4"",""participantId"":""48F0AA60E84147D7B8B7821066D45C56"",""assignmentId"":""1fded03c-689f-4128-ac73-c02041ebdaca"",""projectId"":""5e631737-0fa4-44a6-b227-7ba1d7345015""}","https://test12345.live/?num_scrambled_semantic=8&num_scrambled_causal=4&num_scrambled_schematic=4&participantId=48F0AA60E84147D7B8B7821066D45C56&assignmentId=1fded03c-689f-4128-ac73-c02041ebdaca&projectId=5e631737-0fa4-44a6-b227-7ba1d7345015","48F0AA60E84147D7B8B7821066D45C56-2025-05-27-19-09-41","","648","","images/semantic_sequence/cat_care_semantic/cat_care_semantic_6.png","0","",""
"","","","","","image-button-response","48","299107","0.0-10.0-1.0-2.7","48F0AA60E84147D7B8B7821066D45C56","48F0AA60E84147D7B8B7821066D45C56","1fded03c-689f-4128-ac73-c02041ebdaca","5e631737-0fa4-44a6-b227-7ba1d7345015","{""num_scrambled_semantic"":""8"",""num_scrambled_causal"":""4"",""num_scrambled_schematic"":""4"",""participantId"":""48F0AA60E84147D7B8B7821066D45C56"",""assignmentId"":""1fded03c-689f-4128-ac73-c02041ebdaca"",""projectId"":""5e631737-0fa4-44a6-b227-7ba1d7345015""}","https://test12345.live/?num_scrambled_semantic=8&num_scrambled_causal=4&num_scrambled_schematic=4&participantId=48F0AA60E84147D7B8B7821066D45C56&assignmentId=1fded03c-689f-4128-ac73-c02041ebdaca&projectId=5e631737-0fa4-44a6-b227-7ba1d7345015","48F0AA60E84147D7B8B7821066D45C56-2025-05-27-19-09-41","","null","","[]","null","",""
"","","","","","image-button-response","49","303609","0.0-10.0-1.0-0.8","48F0AA60E84147D7B8B7821066D45C56","48F0AA60E84147D7B8B7821066D45C56","1fded03c-689f-4128-ac73-c02041ebdaca","5e631737-0fa4-44a6-b227-7ba1d7345015","{""num_scrambled_semantic"":""8"",""num_scrambled_causal"":""4"",""num_scrambled_schematic"":""4"",""participantId"":""48F0AA60E84147D7B8B7821066D45C56"",""assignmentId"":""1fded03c-689f-4128-ac73-c02041ebdaca"",""projectId"":""5e631737-0fa4-44a6-b227-7ba1d7345015""}","https://test12345.live/?num_scrambled_semantic=8&num_scrambled_causal=4&num_scrambled_schematic=4&participantId=48F0AA60E84147D7B8B7821066D45C56&assignmentId=1fded03c-689f-4128-ac73-c02041ebdaca&projectId=5e631737-0fa4-44a6-b227-7ba1d7345015","48F0AA60E84147D7B8B7821066D45C56-2025-05-27-19-09-41","","null","","images/semantic_sequence/cat_care_semantic/cat_care_semantic_3.png","null","",""
"","","","","","image-button-response","50","304312","0.0-10.0-1.0-1.8","48F0AA60E84147D7B8B7821066D45C56","48F0AA60E84147D7B8B7821066D45C56","1fded03c-689f-4128-ac73-c02041ebdaca","5e631737-0fa4-44a6-b227-7ba1d7345015","{""num_scrambled_semantic"":""8"",""num_scrambled_causal"":""4"",""num_scrambled_schematic"":""4"",""participantId"":""48F0AA60E84147D7B8B7821066D45C56"",""assignmentId"":""1fded03c-689f-4128-ac73-c02041ebdaca"",""projectId"":""5e631737-0fa4-44a6-b227-7ba1d7345015""}","https://test12345.live/?num_scrambled_semantic=8&num_scrambled_causal=4&num_scrambled_schematic=4&participantId=48F0AA60E84147D7B8B7821066D45C56&assignmentId=1fded03c-689f-4128-ac73-c02041ebdaca&projectId=5e631737-0fa4-44a6-b227-7ba1d7345015","48F0AA60E84147D7B8B7821066D45C56-2025-05-27-19-09-41","","702","","images/semantic_sequence/cat_care_semantic/cat_care_semantic_3.png","0","",""
"","","","","","image-button-response","51","306128","0.0-10.0-1.0-2.8","48F0AA60E84147D7B8B7821066D45C56","48F0AA60E84147D7B8B7821066D45C56","1fded03c-689f-4128-ac73-c02041ebdaca","5e631737-0fa4-44a6-b227-7ba1d7345015","{""num_scrambled_semantic"":""8"",""num_scrambled_causal"":""4"",""num_scrambled_schematic"":""4"",""participantId"":""48F0AA60E84147D7B8B7821066D45C56"",""assignmentId"":""1fded03c-689f-4128-ac73-c02041ebdaca"",""projectId"":""5e631737-0fa4-44a6-b227-7ba1d7345015""}","https://test12345.live/?num_scrambled_semantic=8&num_scrambled_causal=4&num_scrambled_schematic=4&participantId=48F0AA60E84147D7B8B7821066D45C56&assignmentId=1fded03c-689f-4128-ac73-c02041ebdaca&projectId=5e631737-0fa4-44a6-b227-7ba1d7345015","48F0AA60E84147D7B8B7821066D45C56-2025-05-27-19-09-41","","null","","[]","null","",""
"","","","","","image-button-response","52","310651","0.0-10.0-1.0-0.9","48F0AA60E84147D7B8B7821066D45C56","48F0AA60E84147D7B8B7821066D45C56","1fded03c-689f-4128-ac73-c02041ebdaca","5e631737-0fa4-44a6-b227-7ba1d7345015","{""num_scrambled_semantic"":""8"",""num_scrambled_causal"":""4"",""num_scrambled_schematic"":""4"",""participantId"":""48F0AA60E84147D7B8B7821066D45C56"",""assignmentId"":""1fded03c-689f-4128-ac73-c02041ebdaca"",""projectId"":""5e631737-0fa4-44a6-b227-7ba1d7345015""}","https://test12345.live/?num_scrambled_semantic=8&num_scrambled_causal=4&num_scrambled_schematic=4&participantId=48F0AA60E84147D7B8B7821066D45C56&assignmentId=1fded03c-689f-4128-ac73-c02041ebdaca&projectId=5e631737-0fa4-44a6-b227-7ba1d7345015","48F0AA60E84147D7B8B7821066D45C56-2025-05-27-19-09-41","","null","","images/semantic_sequence/cat_care_semantic/cat_care_semantic_ten.png","null","",""
"","","","","","image-button-response","53","311817","0.0-10.0-1.0-1.9","48F0AA60E84147D7B8B7821066D45C56","48F0AA60E84147D7B8B7821066D45C56","1fded03c-689f-4128-ac73-c02041ebdaca","5e631737-0fa4-44a6-b227-7ba1d7345015","{""num_scrambled_semantic"":""8"",""num_scrambled_causal"":""4"",""num_scrambled_schematic"":""4"",""participantId"":""48F0AA60E84147D7B8B7821066D45C56"",""assignmentId"":""1fded03c-689f-4128-ac73-c02041ebdaca"",""projectId"":""5e631737-0fa4-44a6-b227-7ba1d7345015""}","https://test12345.live/?num_scrambled_semantic=8&num_scrambled_causal=4&num_scrambled_schematic=4&participantId=48F0AA60E84147D7B8B7821066D45C56&assignmentId=1fded03c-689f-4128-ac73-c02041ebdaca&projectId=5e631737-0fa4-44a6-b227-7ba1d7345015","48F0AA60E84147D7B8B7821066D45C56-2025-05-27-19-09-41","","1164","","images/semantic_sequence/cat_care_semantic/cat_care_semantic_ten.png","1","",""
"","","","","","image-button-response","54","313624","0.0-10.0-1.0-2.9","48F0AA60E84147D7B8B7821066D45C56","48F0AA60E84147D7B8B7821066D45C56","1fded03c-689f-4128-ac73-c02041ebdaca","5e631737-0fa4-44a6-b227-7ba1d7345015","{""num_scrambled_semantic"":""8"",""num_scrambled_causal"":""4"",""num_scrambled_schematic"":""4"",""participantId"":""48F0AA60E84147D7B8B7821066D45C56"",""assignmentId"":""1fded03c-689f-4128-ac73-c02041ebdaca"",""projectId"":""5e631737-0fa4-44a6-b227-7ba1d7345015""}","https://test12345.live/?num_scrambled_semantic=8&num_scrambled_causal=4&num_scrambled_schematic=4&participantId=48F0AA60E84147D7B8B7821066D45C56&assignmentId=1fded03c-689f-4128-ac73-c02041ebdaca&projectId=5e631737-0fa4-44a6-b227-7ba1d7345015","48F0AA60E84147D7B8B7821066D45C56-2025-05-27-19-09-41","","null","","[]","null","",""
"","","","","","html-audio-response","55","369122","0.0-11.0","48F0AA60E84147D7B8B7821066D45C56","48F0AA60E84147D7B8B7821066D45C56","1fded03c-689f-4128-ac73-c02041ebdaca","5e631737-0fa4-44a6-b227-7ba1d7345015","{""num_scrambled_semantic"":""8"",""num_scrambled_causal"":""4"",""num_scrambled_schematic"":""4"",""participantId"":""48F0AA60E84147D7B8B7821066D45C56"",""assignmentId"":""1fded03c-689f-4128-ac73-c02041ebdaca"",""projectId"":""5e631737-0fa4-44a6-b227-7ba1d7345015""}","https://test12345.live/?num_scrambled_semantic=8&num_scrambled_causal=4&num_scrambled_schematic=4&participantId=48F0AA60E84147D7B8B7821066D45C56&assignmentId=1fded03c-689f-4128-ac73-c02041ebdaca&projectId=5e631737-0fa4-44a6-b227-7ba1d7345015","48F0AA60E84147D7B8B7821066D45C56-2025-05-27-19-09-41","","32862","","[""<span style=\""color: red; font-size: 24px\""> NOW RECORDING</span><p>Please say out loud all the images you saw, in the exact order you saw them. Try to recall as many images as you can, but remember: getting the order right is more important than the number of images you recall.</p>""]","","12","cat_care_semantic"
"","","","","","image-button-response","56","375139","0.0-12.0-0.0","48F0AA60E84147D7B8B7821066D45C56","48F0AA60E84147D7B8B7821066D45C56","1fded03c-689f-4128-ac73-c02041ebdaca","5e631737-0fa4-44a6-b227-7ba1d7345015","{""num_scrambled_semantic"":""8"",""num_scrambled_causal"":""4"",""num_scrambled_schematic"":""4"",""participantId"":""48F0AA60E84147D7B8B7821066D45C56"",""assignmentId"":""1fded03c-689f-4128-ac73-c02041ebdaca"",""projectId"":""5e631737-0fa4-44a6-b227-7ba1d7345015""}","https://test12345.live/?num_scrambled_semantic=8&num_scrambled_causal=4&num_scrambled_schematic=4&participantId=48F0AA60E84147D7B8B7821066D45C56&assignmentId=1fded03c-689f-4128-ac73-c02041ebdaca&projectId=5e631737-0fa4-44a6-b227-7ba1d7345015","48F0AA60E84147D7B8B7821066D45C56-2025-05-27-19-09-41","","null","","images/causal_sequence/saving_a_cat_causal/saving_a_cat_causal_0.png","null","",""
"","","","","","image-button-response","57","379640","0.0-12.0-1.0-0.0","48F0AA60E84147D7B8B7821066D45C56","48F0AA60E84147D7B8B7821066D45C56","1fded03c-689f-4128-ac73-c02041ebdaca","5e631737-0fa4-44a6-b227-7ba1d7345015","{""num_scrambled_semantic"":""8"",""num_scrambled_causal"":""4"",""num_scrambled_schematic"":""4"",""participantId"":""48F0AA60E84147D7B8B7821066D45C56"",""assignmentId"":""1fded03c-689f-4128-ac73-c02041ebdaca"",""projectId"":""5e631737-0fa4-44a6-b227-7ba1d7345015""}","https://test12345.live/?num_scrambled_semantic=8&num_scrambled_causal=4&num_scrambled_schematic=4&participantId=48F0AA60E84147D7B8B7821066D45C56&assignmentId=1fded03c-689f-4128-ac73-c02041ebdaca&projectId=5e631737-0fa4-44a6-b227-7ba1d7345015","48F0AA60E84147D7B8B7821066D45C56-2025-05-27-19-09-41","","null","","images/causal_sequence/saving_a_cat_causal/saving_a_cat_causal_1.png","null","",""
"","","","","","image-button-response","58","383654","0.0-12.0-1.0-1.0","48F0AA60E84147D7B8B7821066D45C56","48F0AA60E84147D7B8B7821066D45C56","1fded03c-689f-4128-ac73-c02041ebdaca","5e631737-0fa4-44a6-b227-7ba1d7345015","{""num_scrambled_semantic"":""8"",""num_scrambled_causal"":""4"",""num_scrambled_schematic"":""4"",""participantId"":""48F0AA60E84147D7B8B7821066D45C56"",""assignmentId"":""1fded03c-689f-4128-ac73-c02041ebdaca"",""projectId"":""5e631737-0fa4-44a6-b227-7ba1d7345015""}","https://test12345.live/?num_scrambled_semantic=8&num_scrambled_causal=4&num_scrambled_schematic=4&participantId=48F0AA60E84147D7B8B7821066D45C56&assignmentId=1fded03c-689f-4128-ac73-c02041ebdaca&projectId=5e631737-0fa4-44a6-b227-7ba1d7345015","48F0AA60E84147D7B8B7821066D45C56-2025-05-27-19-09-41","","null","","images/causal_sequence/saving_a_cat_causal/saving_a_cat_causal_1.png","null","",""
"","","","","","image-button-response","59","385460","0.0-12.0-1.0-2.0","48F0AA60E84147D7B8B7821066D45C56","48F0AA60E84147D7B8B7821066D45C56","1fded03c-689f-4128-ac73-c02041ebdaca","5e631737-0fa4-44a6-b227-7ba1d7345015","{""num_scrambled_semantic"":""8"",""num_scrambled_causal"":""4"",""num_scrambled_schematic"":""4"",""participantId"":""48F0AA60E84147D7B8B7821066D45C56"",""assignmentId"":""1fded03c-689f-4128-ac73-c02041ebdaca"",""projectId"":""5e631737-0fa4-44a6-b227-7ba1d7345015""}","https://test12345.live/?num_scrambled_semantic=8&num_scrambled_causal=4&num_scrambled_schematic=4&participantId=48F0AA60E84147D7B8B7821066D45C56&assignmentId=1fded03c-689f-4128-ac73-c02041ebdaca&projectId=5e631737-0fa4-44a6-b227-7ba1d7345015","48F0AA60E84147D7B8B7821066D45C56-2025-05-27-19-09-41","","null","","[]","null","",""
"","","","","","image-button-response","60","389970","0.0-12.0-1.0-0.1","48F0AA60E84147D7B8B7821066D45C56","48F0AA60E84147D7B8B7821066D45C56","1fded03c-689f-4128-ac73-c02041ebdaca","5e631737-0fa4-44a6-b227-7ba1d7345015","{""num_scrambled_semantic"":""8"",""num_scrambled_causal"":""4"",""num_scrambled_schematic"":""4"",""participantId"":""48F0AA60E84147D7B8B7821066D45C56"",""assignmentId"":""1fded03c-689f-4128-ac73-c02041ebdaca"",""projectId"":""5e631737-0fa4-44a6-b227-7ba1d7345015""}","https://test12345.live/?num_scrambled_semantic=8&num_scrambled_causal=4&num_scrambled_schematic=4&participantId=48F0AA60E84147D7B8B7821066D45C56&assignmentId=1fded03c-689f-4128-ac73-c02041ebdaca&projectId=5e631737-0fa4-44a6-b227-7ba1d7345015","48F0AA60E84147D7B8B7821066D45C56-2025-05-27-19-09-41","","null","","images/causal_sequence/saving_a_cat_causal/saving_a_cat_causal_2.png","null","",""
"","","","","","image-button-response","61","392361","0.0-12.0-1.0-1.1","48F0AA60E84147D7B8B7821066D45C56","48F0AA60E84147D7B8B7821066D45C56","1fded03c-689f-4128-ac73-c02041ebdaca","5e631737-0fa4-44a6-b227-7ba1d7345015","{""num_scrambled_semantic"":""8"",""num_scrambled_causal"":""4"",""num_scrambled_schematic"":""4"",""participantId"":""48F0AA60E84147D7B8B7821066D45C56"",""assignmentId"":""1fded03c-689f-4128-ac73-c02041ebdaca"",""projectId"":""5e631737-0fa4-44a6-b227-7ba1d7345015""}","https://test12345.live/?num_scrambled_semantic=8&num_scrambled_causal=4&num_scrambled_schematic=4&participantId=48F0AA60E84147D7B8B7821066D45C56&assignmentId=1fded03c-689f-4128-ac73-c02041ebdaca&projectId=5e631737-0fa4-44a6-b227-7ba1d7345015","48F0AA60E84147D7B8B7821066D45C56-2025-05-27-19-09-41","","2389","","images/causal_sequence/saving_a_cat_causal/saving_a_cat_causal_2.png","1","",""
"","","","","","image-button-response","62","394170","0.0-12.0-1.0-2.1","48F0AA60E84147D7B8B7821066D45C56","48F0AA60E84147D7B8B7821066D45C56","1fded03c-689f-4128-ac73-c02041ebdaca","5e631737-0fa4-44a6-b227-7ba1d7345015","{""num_scrambled_semantic"":""8"",""num_scrambled_causal"":""4"",""num_scrambled_schematic"":""4"",""participantId"":""48F0AA60E84147D7B8B7821066D45C56"",""assignmentId"":""1fded03c-689f-4128-ac73-c02041ebdaca"",""projectId"":""5e631737-0fa4-44a6-b227-7ba1d7345015""}","https://test12345.live/?num_scrambled_semantic=8&num_scrambled_causal=4&num_scrambled_schematic=4&participantId=48F0AA60E84147D7B8B7821066D45C56&assignmentId=1fded03c-689f-4128-ac73-c02041ebdaca&projectId=5e631737-0fa4-44a6-b227-7ba1d7345015","48F0AA60E84147D7B8B7821066D45C56-2025-05-27-19-09-41","","null","","[]","null","",""
"","","","","","image-button-response","63","398686","0.0-12.0-1.0-0.2","48F0AA60E84147D7B8B7821066D45C56","48F0AA60E84147D7B8B7821066D45C56","1fded03c-689f-4128-ac73-c02041ebdaca","5e631737-0fa4-44a6-b227-7ba1d7345015","{""num_scrambled_semantic"":""8"",""num_scrambled_causal"":""4"",""num_scrambled_schematic"":""4"",""participantId"":""48F0AA60E84147D7B8B7821066D45C56"",""assignmentId"":""1fded03c-689f-4128-ac73-c02041ebdaca"",""projectId"":""5e631737-0fa4-44a6-b227-7ba1d7345015""}","https://test12345.live/?num_scrambled_semantic=8&num_scrambled_causal=4&num_scrambled_schematic=4&participantId=48F0AA60E84147D7B8B7821066D45C56&assignmentId=1fded03c-689f-4128-ac73-c02041ebdaca&projectId=5e631737-0fa4-44a6-b227-7ba1d7345015","48F0AA60E84147D7B8B7821066D45C56-2025-05-27-19-09-41","","null","","images/causal_sequence/saving_a_cat_causal/saving_a_cat_causal_3.png","null","",""
"","","","","","image-button-response","64","402057","0.0-12.0-1.0-1.2","48F0AA60E84147D7B8B7821066D45C56","48F0AA60E84147D7B8B7821066D45C56","1fded03c-689f-4128-ac73-c02041ebdaca","5e631737-0fa4-44a6-b227-7ba1d7345015","{""num_scrambled_semantic"":""8"",""num_scrambled_causal"":""4"",""num_scrambled_schematic"":""4"",""participantId"":""48F0AA60E84147D7B8B7821066D45C56"",""assignmentId"":""1fded03c-689f-4128-ac73-c02041ebdaca"",""projectId"":""5e631737-0fa4-44a6-b227-7ba1d7345015""}","https://test12345.live/?num_scrambled_semantic=8&num_scrambled_causal=4&num_scrambled_schematic=4&participantId=48F0AA60E84147D7B8B7821066D45C56&assignmentId=1fded03c-689f-4128-ac73-c02041ebdaca&projectId=5e631737-0fa4-44a6-b227-7ba1d7345015","48F0AA60E84147D7B8B7821066D45C56-2025-05-27-19-09-41","","3369","","images/causal_sequence/saving_a_cat_causal/saving_a_cat_causal_3.png","1","",""
"","","","","","image-button-response","65","403858","0.0-12.0-1.0-2.2","48F0AA60E84147D7B8B7821066D45C56","48F0AA60E84147D7B8B7821066D45C56","1fded03c-689f-4128-ac73-c02041ebdaca","5e631737-0fa4-44a6-b227-7ba1d7345015","{""num_scrambled_semantic"":""8"",""num_scrambled_causal"":""4"",""num_scrambled_schematic"":""4"",""participantId"":""48F0AA60E84147D7B8B7821066D45C56"",""assignmentId"":""1fded03c-689f-4128-ac73-c02041ebdaca"",""projectId"":""5e631737-0fa4-44a6-b227-7ba1d7345015""}","https://test12345.live/?num_scrambled_semantic=8&num_scrambled_causal=4&num_scrambled_schematic=4&participantId=48F0AA60E84147D7B8B7821066D45C56&assignmentId=1fded03c-689f-4128-ac73-c02041ebdaca&projectId=5e631737-0fa4-44a6-b227-7ba1d7345015","48F0AA60E84147D7B8B7821066D45C56-2025-05-27-19-09-41","","null","","[]","null","",""
"","","","","","image-button-response","66","408360","0.0-12.0-1.0-0.3","48F0AA60E84147D7B8B7821066D45C56","48F0AA60E84147D7B8B7821066D45C56","1fded03c-689f-4128-ac73-c02041ebdaca","5e631737-0fa4-44a6-b227-7ba1d7345015","{""num_scrambled_semantic"":""8"",""num_scrambled_causal"":""4"",""num_scrambled_schematic"":""4"",""participantId"":""48F0AA60E84147D7B8B7821066D45C56"",""assignmentId"":""1fded03c-689f-4128-ac73-c02041ebdaca"",""projectId"":""5e631737-0fa4-44a6-b227-7ba1d7345015""}","https://test12345.live/?num_scrambled_semantic=8&num_scrambled_causal=4&num_scrambled_schematic=4&participantId=48F0AA60E84147D7B8B7821066D45C56&assignmentId=1fded03c-689f-4128-ac73-c02041ebdaca&projectId=5e631737-0fa4-44a6-b227-7ba1d7345015","48F0AA60E84147D7B8B7821066D45C56-2025-05-27-19-09-41","","null","","images/causal_sequence/saving_a_cat_causal/saving_a_cat_causal_4.png","null","",""
"","","","","","image-button-response","67","409553","0.0-12.0-1.0-1.3","48F0AA60E84147D7B8B7821066D45C56","48F0AA60E84147D7B8B7821066D45C56","1fded03c-689f-4128-ac73-c02041ebdaca","5e631737-0fa4-44a6-b227-7ba1d7345015","{""num_scrambled_semantic"":""8"",""num_scrambled_causal"":""4"",""num_scrambled_schematic"":""4"",""participantId"":""48F0AA60E84147D7B8B7821066D45C56"",""assignmentId"":""1fded03c-689f-4128-ac73-c02041ebdaca"",""projectId"":""5e631737-0fa4-44a6-b227-7ba1d7345015""}","https://test12345.live/?num_scrambled_semantic=8&num_scrambled_causal=4&num_scrambled_schematic=4&participantId=48F0AA60E84147D7B8B7821066D45C56&assignmentId=1fded03c-689f-4128-ac73-c02041ebdaca&projectId=5e631737-0fa4-44a6-b227-7ba1d7345015","48F0AA60E84147D7B8B7821066D45C56-2025-05-27-19-09-41","","1192","","images/causal_sequence/saving_a_cat_causal/saving_a_cat_causal_4.png","0","",""
"","","","","","image-button-response","68","411358","0.0-12.0-1.0-2.3","48F0AA60E84147D7B8B7821066D45C56","48F0AA60E84147D7B8B7821066D45C56","1fded03c-689f-4128-ac73-c02041ebdaca","5e631737-0fa4-44a6-b227-7ba1d7345015","{""num_scrambled_semantic"":""8"",""num_scrambled_causal"":""4"",""num_scrambled_schematic"":""4"",""participantId"":""48F0AA60E84147D7B8B7821066D45C56"",""assignmentId"":""1fded03c-689f-4128-ac73-c02041ebdaca"",""projectId"":""5e631737-0fa4-44a6-b227-7ba1d7345015""}","https://test12345.live/?num_scrambled_semantic=8&num_scrambled_causal=4&num_scrambled_schematic=4&participantId=48F0AA60E84147D7B8B7821066D45C56&assignmentId=1fded03c-689f-4128-ac73-c02041ebdaca&projectId=5e631737-0fa4-44a6-b227-7ba1d7345015","48F0AA60E84147D7B8B7821066D45C56-2025-05-27-19-09-41","","null","","[]","null","",""
"","","","","","image-button-response","69","415873","0.0-12.0-1.0-0.4","48F0AA60E84147D7B8B7821066D45C56","48F0AA60E84147D7B8B7821066D45C56","1fded03c-689f-4128-ac73-c02041ebdaca","5e631737-0fa4-44a6-b227-7ba1d7345015","{""num_scrambled_semantic"":""8"",""num_scrambled_causal"":""4"",""num_scrambled_schematic"":""4"",""participantId"":""48F0AA60E84147D7B8B7821066D45C56"",""assignmentId"":""1fded03c-689f-4128-ac73-c02041ebdaca"",""projectId"":""5e631737-0fa4-44a6-b227-7ba1d7345015""}","https://test12345.live/?num_scrambled_semantic=8&num_scrambled_causal=4&num_scrambled_schematic=4&participantId=48F0AA60E84147D7B8B7821066D45C56&assignmentId=1fded03c-689f-4128-ac73-c02041ebdaca&projectId=5e631737-0fa4-44a6-b227-7ba1d7345015","48F0AA60E84147D7B8B7821066D45C56-2025-05-27-19-09-41","","null","","images/causal_sequence/saving_a_cat_causal/saving_a_cat_causal_5.png","null","",""
"","","","","","image-button-response","70","418704","0.0-12.0-1.0-1.4","48F0AA60E84147D7B8B7821066D45C56","48F0AA60E84147D7B8B7821066D45C56","1fded03c-689f-4128-ac73-c02041ebdaca","5e631737-0fa4-44a6-b227-7ba1d7345015","{""num_scrambled_semantic"":""8"",""num_scrambled_causal"":""4"",""num_scrambled_schematic"":""4"",""participantId"":""48F0AA60E84147D7B8B7821066D45C56"",""assignmentId"":""1fded03c-689f-4128-ac73-c02041ebdaca"",""projectId"":""5e631737-0fa4-44a6-b227-7ba1d7345015""}","https://test12345.live/?num_scrambled_semantic=8&num_scrambled_causal=4&num_scrambled_schematic=4&participantId=48F0AA60E84147D7B8B7821066D45C56&assignmentId=1fded03c-689f-4128-ac73-c02041ebdaca&projectId=5e631737-0fa4-44a6-b227-7ba1d7345015","48F0AA60E84147D7B8B7821066D45C56-2025-05-27-19-09-41","","2830","","images/causal_sequence/saving_a_cat_causal/saving_a_cat_causal_5.png","0","",""
"","","","","","image-button-response","71","420520","0.0-12.0-1.0-2.4","48F0AA60E84147D7B8B7821066D45C56","48F0AA60E84147D7B8B7821066D45C56","1fded03c-689f-4128-ac73-c02041ebdaca","5e631737-0fa4-44a6-b227-7ba1d7345015","{""num_scrambled_semantic"":""8"",""num_scrambled_causal"":""4"",""num_scrambled_schematic"":""4"",""participantId"":""48F0AA60E84147D7B8B7821066D45C56"",""assignmentId"":""1fded03c-689f-4128-ac73-c02041ebdaca"",""projectId"":""5e631737-0fa4-44a6-b227-7ba1d7345015""}","https://test12345.live/?num_scrambled_semantic=8&num_scrambled_causal=4&num_scrambled_schematic=4&participantId=48F0AA60E84147D7B8B7821066D45C56&assignmentId=1fded03c-689f-4128-ac73-c02041ebdaca&projectId=5e631737-0fa4-44a6-b227-7ba1d7345015","48F0AA60E84147D7B8B7821066D45C56-2025-05-27-19-09-41","","null","","[]","null","",""
"","","","","","image-button-response","72","425030","0.0-12.0-1.0-0.5","48F0AA60E84147D7B8B7821066D45C56","48F0AA60E84147D7B8B7821066D45C56","1fded03c-689f-4128-ac73-c02041ebdaca","5e631737-0fa4-44a6-b227-7ba1d7345015","{""num_scrambled_semantic"":""8"",""num_scrambled_causal"":""4"",""num_scrambled_schematic"":""4"",""participantId"":""48F0AA60E84147D7B8B7821066D45C56"",""assignmentId"":""1fded03c-689f-4128-ac73-c02041ebdaca"",""projectId"":""5e631737-0fa4-44a6-b227-7ba1d7345015""}","https://test12345.live/?num_scrambled_semantic=8&num_scrambled_causal=4&num_scrambled_schematic=4&participantId=48F0AA60E84147D7B8B7821066D45C56&assignmentId=1fded03c-689f-4128-ac73-c02041ebdaca&projectId=5e631737-0fa4-44a6-b227-7ba1d7345015","48F0AA60E84147D7B8B7821066D45C56-2025-05-27-19-09-41","","null","","images/causal_sequence/saving_a_cat_causal/saving_a_cat_causal_6.png","null","",""
"","","","","","image-button-response","73","427035","0.0-12.0-1.0-1.5","48F0AA60E84147D7B8B7821066D45C56","48F0AA60E84147D7B8B7821066D45C56","1fded03c-689f-4128-ac73-c02041ebdaca","5e631737-0fa4-44a6-b227-7ba1d7345015","{""num_scrambled_semantic"":""8"",""num_scrambled_causal"":""4"",""num_scrambled_schematic"":""4"",""participantId"":""48F0AA60E84147D7B8B7821066D45C56"",""assignmentId"":""1fded03c-689f-4128-ac73-c02041ebdaca"",""projectId"":""5e631737-0fa4-44a6-b227-7ba1d7345015""}","https://test12345.live/?num_scrambled_semantic=8&num_scrambled_causal=4&num_scrambled_schematic=4&participantId=48F0AA60E84147D7B8B7821066D45C56&assignmentId=1fded03c-689f-4128-ac73-c02041ebdaca&projectId=5e631737-0fa4-44a6-b227-7ba1d7345015","48F0AA60E84147D7B8B7821066D45C56-2025-05-27-19-09-41","","2002","","images/causal_sequence/saving_a_cat_causal/saving_a_cat_causal_6.png","0","",""
"","","","","","image-button-response","74","428842","0.0-12.0-1.0-2.5","48F0AA60E84147D7B8B7821066D45C56","48F0AA60E84147D7B8B7821066D45C56","1fded03c-689f-4128-ac73-c02041ebdaca","5e631737-0fa4-44a6-b227-7ba1d7345015","{""num_scrambled_semantic"":""8"",""num_scrambled_causal"":""4"",""num_scrambled_schematic"":""4"",""participantId"":""48F0AA60E84147D7B8B7821066D45C56"",""assignmentId"":""1fded03c-689f-4128-ac73-c02041ebdaca"",""projectId"":""5e631737-0fa4-44a6-b227-7ba1d7345015""}","https://test12345.live/?num_scrambled_semantic=8&num_scrambled_causal=4&num_scrambled_schematic=4&participantId=48F0AA60E84147D7B8B7821066D45C56&assignmentId=1fded03c-689f-4128-ac73-c02041ebdaca&projectId=5e631737-0fa4-44a6-b227-7ba1d7345015","48F0AA60E84147D7B8B7821066D45C56-2025-05-27-19-09-41","","null","","[]","null","",""
"","","","","","image-button-response","75","433359","0.0-12.0-1.0-0.6","48F0AA60E84147D7B8B7821066D45C56","48F0AA60E84147D7B8B7821066D45C56","1fded03c-689f-4128-ac73-c02041ebdaca","5e631737-0fa4-44a6-b227-7ba1d7345015","{""num_scrambled_semantic"":""8"",""num_scrambled_causal"":""4"",""num_scrambled_schematic"":""4"",""participantId"":""48F0AA60E84147D7B8B7821066D45C56"",""assignmentId"":""1fded03c-689f-4128-ac73-c02041ebdaca"",""projectId"":""5e631737-0fa4-44a6-b227-7ba1d7345015""}","https://test12345.live/?num_scrambled_semantic=8&num_scrambled_causal=4&num_scrambled_schematic=4&participantId=48F0AA60E84147D7B8B7821066D45C56&assignmentId=1fded03c-689f-4128-ac73-c02041ebdaca&projectId=5e631737-0fa4-44a6-b227-7ba1d7345015","48F0AA60E84147D7B8B7821066D45C56-2025-05-27-19-09-41","","null","","images/causal_sequence/saving_a_cat_causal/saving_a_cat_causal_7.png","null","",""
"","","","","","image-button-response","76","434953","0.0-12.0-1.0-1.6","48F0AA60E84147D7B8B7821066D45C56","48F0AA60E84147D7B8B7821066D45C56","1fded03c-689f-4128-ac73-c02041ebdaca","5e631737-0fa4-44a6-b227-7ba1d7345015","{""num_scrambled_semantic"":""8"",""num_scrambled_causal"":""4"",""num_scrambled_schematic"":""4"",""participantId"":""48F0AA60E84147D7B8B7821066D45C56"",""assignmentId"":""1fded03c-689f-4128-ac73-c02041ebdaca"",""projectId"":""5e631737-0fa4-44a6-b227-7ba1d7345015""}","https://test12345.live/?num_scrambled_semantic=8&num_scrambled_causal=4&num_scrambled_schematic=4&participantId=48F0AA60E84147D7B8B7821066D45C56&assignmentId=1fded03c-689f-4128-ac73-c02041ebdaca&projectId=5e631737-0fa4-44a6-b227-7ba1d7345015","48F0AA60E84147D7B8B7821066D45C56-2025-05-27-19-09-41","","1593","","images/causal_sequence/saving_a_cat_causal/saving_a_cat_causal_7.png","0","",""
"","","","","","image-button-response","77","436765","0.0-12.0-1.0-2.6","48F0AA60E84147D7B8B7821066D45C56","48F0AA60E84147D7B8B7821066D45C56","1fded03c-689f-4128-ac73-c02041ebdaca","5e631737-0fa4-44a6-b227-7ba1d7345015","{""num_scrambled_semantic"":""8"",""num_scrambled_causal"":""4"",""num_scrambled_schematic"":""4"",""participantId"":""48F0AA60E84147D7B8B7821066D45C56"",""assignmentId"":""1fded03c-689f-4128-ac73-c02041ebdaca"",""projectId"":""5e631737-0fa4-44a6-b227-7ba1d7345015""}","https://test12345.live/?num_scrambled_semantic=8&num_scrambled_causal=4&num_scrambled_schematic=4&participantId=48F0AA60E84147D7B8B7821066D45C56&assignmentId=1fded03c-689f-4128-ac73-c02041ebdaca&projectId=5e631737-0fa4-44a6-b227-7ba1d7345015","48F0AA60E84147D7B8B7821066D45C56-2025-05-27-19-09-41","","null","","[]","null","",""
"","","","","","image-button-response","78","441269","0.0-12.0-1.0-0.7","48F0AA60E84147D7B8B7821066D45C56","48F0AA60E84147D7B8B7821066D45C56","1fded03c-689f-4128-ac73-c02041ebdaca","5e631737-0fa4-44a6-b227-7ba1d7345015","{""num_scrambled_semantic"":""8"",""num_scrambled_causal"":""4"",""num_scrambled_schematic"":""4"",""participantId"":""48F0AA60E84147D7B8B7821066D45C56"",""assignmentId"":""1fded03c-689f-4128-ac73-c02041ebdaca"",""projectId"":""5e631737-0fa4-44a6-b227-7ba1d7345015""}","https://test12345.live/?num_scrambled_semantic=8&num_scrambled_causal=4&num_scrambled_schematic=4&participantId=48F0AA60E84147D7B8B7821066D45C56&assignmentId=1fded03c-689f-4128-ac73-c02041ebdaca&projectId=5e631737-0fa4-44a6-b227-7ba1d7345015","48F0AA60E84147D7B8B7821066D45C56-2025-05-27-19-09-41","","null","","images/causal_sequence/saving_a_cat_causal/saving_a_cat_causal_8.png","null","",""
"","","","","","image-button-response","79","443225","0.0-12.0-1.0-1.7","48F0AA60E84147D7B8B7821066D45C56","48F0AA60E84147D7B8B7821066D45C56","1fded03c-689f-4128-ac73-c02041ebdaca","5e631737-0fa4-44a6-b227-7ba1d7345015","{""num_scrambled_semantic"":""8"",""num_scrambled_causal"":""4"",""num_scrambled_schematic"":""4"",""participantId"":""48F0AA60E84147D7B8B7821066D45C56"",""assignmentId"":""1fded03c-689f-4128-ac73-c02041ebdaca"",""projectId"":""5e631737-0fa4-44a6-b227-7ba1d7345015""}","https://test12345.live/?num_scrambled_semantic=8&num_scrambled_causal=4&num_scrambled_schematic=4&participantId=48F0AA60E84147D7B8B7821066D45C56&assignmentId=1fded03c-689f-4128-ac73-c02041ebdaca&projectId=5e631737-0fa4-44a6-b227-7ba1d7345015","48F0AA60E84147D7B8B7821066D45C56-2025-05-27-19-09-41","","1955","","images/causal_sequence/saving_a_cat_causal/saving_a_cat_causal_8.png","0","",""
"","","","","","image-button-response","80","445030","0.0-12.0-1.0-2.7","48F0AA60E84147D7B8B7821066D45C56","48F0AA60E84147D7B8B7821066D45C56","1fded03c-689f-4128-ac73-c02041ebdaca","5e631737-0fa4-44a6-b227-7ba1d7345015","{""num_scrambled_semantic"":""8"",""num_scrambled_causal"":""4"",""num_scrambled_schematic"":""4"",""participantId"":""48F0AA60E84147D7B8B7821066D45C56"",""assignmentId"":""1fded03c-689f-4128-ac73-c02041ebdaca"",""projectId"":""5e631737-0fa4-44a6-b227-7ba1d7345015""}","https://test12345.live/?num_scrambled_semantic=8&num_scrambled_causal=4&num_scrambled_schematic=4&participantId=48F0AA60E84147D7B8B7821066D45C56&assignmentId=1fded03c-689f-4128-ac73-c02041ebdaca&projectId=5e631737-0fa4-44a6-b227-7ba1d7345015","48F0AA60E84147D7B8B7821066D45C56-2025-05-27-19-09-41","","null","","[]","null","",""
"","","","","","image-button-response","81","449545","0.0-12.0-1.0-0.8","48F0AA60E84147D7B8B7821066D45C56","48F0AA60E84147D7B8B7821066D45C56","1fded03c-689f-4128-ac73-c02041ebdaca","5e631737-0fa4-44a6-b227-7ba1d7345015","{""num_scrambled_semantic"":""8"",""num_scrambled_causal"":""4"",""num_scrambled_schematic"":""4"",""participantId"":""48F0AA60E84147D7B8B7821066D45C56"",""assignmentId"":""1fded03c-689f-4128-ac73-c02041ebdaca"",""projectId"":""5e631737-0fa4-44a6-b227-7ba1d7345015""}","https://test12345.live/?num_scrambled_semantic=8&num_scrambled_causal=4&num_scrambled_schematic=4&participantId=48F0AA60E84147D7B8B7821066D45C56&assignmentId=1fded03c-689f-4128-ac73-c02041ebdaca&projectId=5e631737-0fa4-44a6-b227-7ba1d7345015","48F0AA60E84147D7B8B7821066D45C56-2025-05-27-19-09-41","","null","","images/causal_sequence/saving_a_cat_causal/saving_a_cat_causal_9.png","null","",""
"","","","","","image-button-response","82","451105","0.0-12.0-1.0-1.8","48F0AA60E84147D7B8B7821066D45C56","48F0AA60E84147D7B8B7821066D45C56","1fded03c-689f-4128-ac73-c02041ebdaca","5e631737-0fa4-44a6-b227-7ba1d7345015","{""num_scrambled_semantic"":""8"",""num_scrambled_causal"":""4"",""num_scrambled_schematic"":""4"",""participantId"":""48F0AA60E84147D7B8B7821066D45C56"",""assignmentId"":""1fded03c-689f-4128-ac73-c02041ebdaca"",""projectId"":""5e631737-0fa4-44a6-b227-7ba1d7345015""}","https://test12345.live/?num_scrambled_semantic=8&num_scrambled_causal=4&num_scrambled_schematic=4&participantId=48F0AA60E84147D7B8B7821066D45C56&assignmentId=1fded03c-689f-4128-ac73-c02041ebdaca&projectId=5e631737-0fa4-44a6-b227-7ba1d7345015","48F0AA60E84147D7B8B7821066D45C56-2025-05-27-19-09-41","","1558","","images/causal_sequence/saving_a_cat_causal/saving_a_cat_causal_9.png","0","",""
"","","","","","image-button-response","83","452920","0.0-12.0-1.0-2.8","48F0AA60E84147D7B8B7821066D45C56","48F0AA60E84147D7B8B7821066D45C56","1fded03c-689f-4128-ac73-c02041ebdaca","5e631737-0fa4-44a6-b227-7ba1d7345015","{""num_scrambled_semantic"":""8"",""num_scrambled_causal"":""4"",""num_scrambled_schematic"":""4"",""participantId"":""48F0AA60E84147D7B8B7821066D45C56"",""assignmentId"":""1fded03c-689f-4128-ac73-c02041ebdaca"",""projectId"":""5e631737-0fa4-44a6-b227-7ba1d7345015""}","https://test12345.live/?num_scrambled_semantic=8&num_scrambled_causal=4&num_scrambled_schematic=4&participantId=48F0AA60E84147D7B8B7821066D45C56&assignmentId=1fded03c-689f-4128-ac73-c02041ebdaca&projectId=5e631737-0fa4-44a6-b227-7ba1d7345015","48F0AA60E84147D7B8B7821066D45C56-2025-05-27-19-09-41","","null","","[]","null","",""
"","","","","","image-button-response","84","457437","0.0-12.0-1.0-0.9","48F0AA60E84147D7B8B7821066D45C56","48F0AA60E84147D7B8B7821066D45C56","1fded03c-689f-4128-ac73-c02041ebdaca","5e631737-0fa4-44a6-b227-7ba1d7345015","{""num_scrambled_semantic"":""8"",""num_scrambled_causal"":""4"",""num_scrambled_schematic"":""4"",""participantId"":""48F0AA60E84147D7B8B7821066D45C56"",""assignmentId"":""1fded03c-689f-4128-ac73-c02041ebdaca"",""projectId"":""5e631737-0fa4-44a6-b227-7ba1d7345015""}","https://test12345.live/?num_scrambled_semantic=8&num_scrambled_causal=4&num_scrambled_schematic=4&participantId=48F0AA60E84147D7B8B7821066D45C56&assignmentId=1fded03c-689f-4128-ac73-c02041ebdaca&projectId=5e631737-0fa4-44a6-b227-7ba1d7345015","48F0AA60E84147D7B8B7821066D45C56-2025-05-27-19-09-41","","null","","images/causal_sequence/saving_a_cat_causal/saving_a_cat_causal_ten.png","null","",""
"","","","","","image-button-response","85","458585","0.0-12.0-1.0-1.9","48F0AA60E84147D7B8B7821066D45C56","48F0AA60E84147D7B8B7821066D45C56","1fded03c-689f-4128-ac73-c02041ebdaca","5e631737-0fa4-44a6-b227-7ba1d7345015","{""num_scrambled_semantic"":""8"",""num_scrambled_causal"":""4"",""num_scrambled_schematic"":""4"",""participantId"":""48F0AA60E84147D7B8B7821066D45C56"",""assignmentId"":""1fded03c-689f-4128-ac73-c02041ebdaca"",""projectId"":""5e631737-0fa4-44a6-b227-7ba1d7345015""}","https://test12345.live/?num_scrambled_semantic=8&num_scrambled_causal=4&num_scrambled_schematic=4&participantId=48F0AA60E84147D7B8B7821066D45C56&assignmentId=1fded03c-689f-4128-ac73-c02041ebdaca&projectId=5e631737-0fa4-44a6-b227-7ba1d7345015","48F0AA60E84147D7B8B7821066D45C56-2025-05-27-19-09-41","","1147","","images/causal_sequence/saving_a_cat_causal/saving_a_cat_causal_ten.png","0","",""
"","","","","","image-button-response","86","460390","0.0-12.0-1.0-2.9","48F0AA60E84147D7B8B7821066D45C56","48F0AA60E84147D7B8B7821066D45C56","1fded03c-689f-4128-ac73-c02041ebdaca","5e631737-0fa4-44a6-b227-7ba1d7345015","{""num_scrambled_semantic"":""8"",""num_scrambled_causal"":""4"",""num_scrambled_schematic"":""4"",""participantId"":""48F0AA60E84147D7B8B7821066D45C56"",""assignmentId"":""1fded03c-689f-4128-ac73-c02041ebdaca"",""projectId"":""5e631737-0fa4-44a6-b227-7ba1d7345015""}","https://test12345.live/?num_scrambled_semantic=8&num_scrambled_causal=4&num_scrambled_schematic=4&participantId=48F0AA60E84147D7B8B7821066D45C56&assignmentId=1fded03c-689f-4128-ac73-c02041ebdaca&projectId=5e631737-0fa4-44a6-b227-7ba1d7345015","48F0AA60E84147D7B8B7821066D45C56-2025-05-27-19-09-41","","null","","[]","null","",""
"","","","","","html-audio-response","87","608522","0.0-13.0","48F0AA60E84147D7B8B7821066D45C56","48F0AA60E84147D7B8B7821066D45C56","1fded03c-689f-4128-ac73-c02041ebdaca","5e631737-0fa4-44a6-b227-7ba1d7345015","{""num_scrambled_semantic"":""8"",""num_scrambled_causal"":""4"",""num_scrambled_schematic"":""4"",""participantId"":""48F0AA60E84147D7B8B7821066D45C56"",""assignmentId"":""1fded03c-689f-4128-ac73-c02041ebdaca"",""projectId"":""5e631737-0fa4-44a6-b227-7ba1d7345015""}","https://test12345.live/?num_scrambled_semantic=8&num_scrambled_causal=4&num_scrambled_schematic=4&participantId=48F0AA60E84147D7B8B7821066D45C56&assignmentId=1fded03c-689f-4128-ac73-c02041ebdaca&projectId=5e631737-0fa4-44a6-b227-7ba1d7345015","48F0AA60E84147D7B8B7821066D45C56-2025-05-27-19-09-41","","31637","","[""<span style=\""color: red; font-size: 24px\""> NOW RECORDING</span><p>Please say out loud all the images you saw, in the exact order you saw them. Try to recall as many images as you can, but remember: getting the order right is more important than the number of images you recall.</p>""]","","7","saving_a_cat_causal"
"","","","","","image-button-response","88","614538","0.0-14.0-0.0","48F0AA60E84147D7B8B7821066D45C56","48F0AA60E84147D7B8B7821066D45C56","1fded03c-689f-4128-ac73-c02041ebdaca","5e631737-0fa4-44a6-b227-7ba1d7345015","{""num_scrambled_semantic"":""8"",""num_scrambled_causal"":""4"",""num_scrambled_schematic"":""4"",""participantId"":""48F0AA60E84147D7B8B7821066D45C56"",""assignmentId"":""1fded03c-689f-4128-ac73-c02041ebdaca"",""projectId"":""5e631737-0fa4-44a6-b227-7ba1d7345015""}","https://test12345.live/?num_scrambled_semantic=8&num_scrambled_causal=4&num_scrambled_schematic=4&participantId=48F0AA60E84147D7B8B7821066D45C56&assignmentId=1fded03c-689f-4128-ac73-c02041ebdaca&projectId=5e631737-0fa4-44a6-b227-7ba1d7345015","48F0AA60E84147D7B8B7821066D45C56-2025-05-27-19-09-41","","null","","images/schematic_sequence/interview_scheme/interview_scheme_0.png","null","",""
"","","","","","image-button-response","89","619047","0.0-14.0-1.0-0.0","48F0AA60E84147D7B8B7821066D45C56","48F0AA60E84147D7B8B7821066D45C56","1fded03c-689f-4128-ac73-c02041ebdaca","5e631737-0fa4-44a6-b227-7ba1d7345015","{""num_scrambled_semantic"":""8"",""num_scrambled_causal"":""4"",""num_scrambled_schematic"":""4"",""participantId"":""48F0AA60E84147D7B8B7821066D45C56"",""assignmentId"":""1fded03c-689f-4128-ac73-c02041ebdaca"",""projectId"":""5e631737-0fa4-44a6-b227-7ba1d7345015""}","https://test12345.live/?num_scrambled_semantic=8&num_scrambled_causal=4&num_scrambled_schematic=4&participantId=48F0AA60E84147D7B8B7821066D45C56&assignmentId=1fded03c-689f-4128-ac73-c02041ebdaca&projectId=5e631737-0fa4-44a6-b227-7ba1d7345015","48F0AA60E84147D7B8B7821066D45C56-2025-05-27-19-09-41","","null","","images/schematic_sequence/interview_scheme/interview_scheme_1.png","null","",""
"","","","","","image-button-response","90","621457","0.0-14.0-1.0-1.0","48F0AA60E84147D7B8B7821066D45C56","48F0AA60E84147D7B8B7821066D45C56","1fded03c-689f-4128-ac73-c02041ebdaca","5e631737-0fa4-44a6-b227-7ba1d7345015","{""num_scrambled_semantic"":""8"",""num_scrambled_causal"":""4"",""num_scrambled_schematic"":""4"",""participantId"":""48F0AA60E84147D7B8B7821066D45C56"",""assignmentId"":""1fded03c-689f-4128-ac73-c02041ebdaca"",""projectId"":""5e631737-0fa4-44a6-b227-7ba1d7345015""}","https://test12345.live/?num_scrambled_semantic=8&num_scrambled_causal=4&num_scrambled_schematic=4&participantId=48F0AA60E84147D7B8B7821066D45C56&assignmentId=1fded03c-689f-4128-ac73-c02041ebdaca&projectId=5e631737-0fa4-44a6-b227-7ba1d7345015","48F0AA60E84147D7B8B7821066D45C56-2025-05-27-19-09-41","","2410","","images/schematic_sequence/interview_scheme/interview_scheme_1.png","1","",""
"","","","","","image-button-response","91","623267","0.0-14.0-1.0-2.0","48F0AA60E84147D7B8B7821066D45C56","48F0AA60E84147D7B8B7821066D45C56","1fded03c-689f-4128-ac73-c02041ebdaca","5e631737-0fa4-44a6-b227-7ba1d7345015","{""num_scrambled_semantic"":""8"",""num_scrambled_causal"":""4"",""num_scrambled_schematic"":""4"",""participantId"":""48F0AA60E84147D7B8B7821066D45C56"",""assignmentId"":""1fded03c-689f-4128-ac73-c02041ebdaca"",""projectId"":""5e631737-0fa4-44a6-b227-7ba1d7345015""}","https://test12345.live/?num_scrambled_semantic=8&num_scrambled_causal=4&num_scrambled_schematic=4&participantId=48F0AA60E84147D7B8B7821066D45C56&assignmentId=1fded03c-689f-4128-ac73-c02041ebdaca&projectId=5e631737-0fa4-44a6-b227-7ba1d7345015","48F0AA60E84147D7B8B7821066D45C56-2025-05-27-19-09-41","","null","","[]","null","",""
"","","","","","image-button-response","92","627771","0.0-14.0-1.0-0.1","48F0AA60E84147D7B8B7821066D45C56","48F0AA60E84147D7B8B7821066D45C56","1fded03c-689f-4128-ac73-c02041ebdaca","5e631737-0fa4-44a6-b227-7ba1d7345015","{""num_scrambled_semantic"":""8"",""num_scrambled_causal"":""4"",""num_scrambled_schematic"":""4"",""participantId"":""48F0AA60E84147D7B8B7821066D45C56"",""assignmentId"":""1fded03c-689f-4128-ac73-c02041ebdaca"",""projectId"":""5e631737-0fa4-44a6-b227-7ba1d7345015""}","https://test12345.live/?num_scrambled_semantic=8&num_scrambled_causal=4&num_scrambled_schematic=4&participantId=48F0AA60E84147D7B8B7821066D45C56&assignmentId=1fded03c-689f-4128-ac73-c02041ebdaca&projectId=5e631737-0fa4-44a6-b227-7ba1d7345015","48F0AA60E84147D7B8B7821066D45C56-2025-05-27-19-09-41","","null","","images/schematic_sequence/interview_scheme/interview_scheme_2.png","null","",""
"","","","","","image-button-response","93","631265","0.0-14.0-1.0-1.1","48F0AA60E84147D7B8B7821066D45C56","48F0AA60E84147D7B8B7821066D45C56","1fded03c-689f-4128-ac73-c02041ebdaca","5e631737-0fa4-44a6-b227-7ba1d7345015","{""num_scrambled_semantic"":""8"",""num_scrambled_causal"":""4"",""num_scrambled_schematic"":""4"",""participantId"":""48F0AA60E84147D7B8B7821066D45C56"",""assignmentId"":""1fded03c-689f-4128-ac73-c02041ebdaca"",""projectId"":""5e631737-0fa4-44a6-b227-7ba1d7345015""}","https://test12345.live/?num_scrambled_semantic=8&num_scrambled_causal=4&num_scrambled_schematic=4&participantId=48F0AA60E84147D7B8B7821066D45C56&assignmentId=1fded03c-689f-4128-ac73-c02041ebdaca&projectId=5e631737-0fa4-44a6-b227-7ba1d7345015","48F0AA60E84147D7B8B7821066D45C56-2025-05-27-19-09-41","","3493","","images/schematic_sequence/interview_scheme/interview_scheme_2.png","0","",""
"","","","","","image-button-response","94","633079","0.0-14.0-1.0-2.1","48F0AA60E84147D7B8B7821066D45C56","48F0AA60E84147D7B8B7821066D45C56","1fded03c-689f-4128-ac73-c02041ebdaca","5e631737-0fa4-44a6-b227-7ba1d7345015","{""num_scrambled_semantic"":""8"",""num_scrambled_causal"":""4"",""num_scrambled_schematic"":""4"",""participantId"":""48F0AA60E84147D7B8B7821066D45C56"",""assignmentId"":""1fded03c-689f-4128-ac73-c02041ebdaca"",""projectId"":""5e631737-0fa4-44a6-b227-7ba1d7345015""}","https://test12345.live/?num_scrambled_semantic=8&num_scrambled_causal=4&num_scrambled_schematic=4&participantId=48F0AA60E84147D7B8B7821066D45C56&assignmentId=1fded03c-689f-4128-ac73-c02041ebdaca&projectId=5e631737-0fa4-44a6-b227-7ba1d7345015","48F0AA60E84147D7B8B7821066D45C56-2025-05-27-19-09-41","","null","","[]","null","",""
"","","","","","image-button-response","95","637595","0.0-14.0-1.0-0.2","48F0AA60E84147D7B8B7821066D45C56","48F0AA60E84147D7B8B7821066D45C56","1fded03c-689f-4128-ac73-c02041ebdaca","5e631737-0fa4-44a6-b227-7ba1d7345015","{""num_scrambled_semantic"":""8"",""num_scrambled_causal"":""4"",""num_scrambled_schematic"":""4"",""participantId"":""48F0AA60E84147D7B8B7821066D45C56"",""assignmentId"":""1fded03c-689f-4128-ac73-c02041ebdaca"",""projectId"":""5e631737-0fa4-44a6-b227-7ba1d7345015""}","https://test12345.live/?num_scrambled_semantic=8&num_scrambled_causal=4&num_scrambled_schematic=4&participantId=48F0AA60E84147D7B8B7821066D45C56&assignmentId=1fded03c-689f-4128-ac73-c02041ebdaca&projectId=5e631737-0fa4-44a6-b227-7ba1d7345015","48F0AA60E84147D7B8B7821066D45C56-2025-05-27-19-09-41","","null","","images/schematic_sequence/interview_scheme/interview_scheme_3.png","null","",""
"","","","","","image-button-response","96","639858","0.0-14.0-1.0-1.2","48F0AA60E84147D7B8B7821066D45C56","48F0AA60E84147D7B8B7821066D45C56","1fded03c-689f-4128-ac73-c02041ebdaca","5e631737-0fa4-44a6-b227-7ba1d7345015","{""num_scrambled_semantic"":""8"",""num_scrambled_causal"":""4"",""num_scrambled_schematic"":""4"",""participantId"":""48F0AA60E84147D7B8B7821066D45C56"",""assignmentId"":""1fded03c-689f-4128-ac73-c02041ebdaca"",""projectId"":""5e631737-0fa4-44a6-b227-7ba1d7345015""}","https://test12345.live/?num_scrambled_semantic=8&num_scrambled_causal=4&num_scrambled_schematic=4&participantId=48F0AA60E84147D7B8B7821066D45C56&assignmentId=1fded03c-689f-4128-ac73-c02041ebdaca&projectId=5e631737-0fa4-44a6-b227-7ba1d7345015","48F0AA60E84147D7B8B7821066D45C56-2025-05-27-19-09-41","","2261","","images/schematic_sequence/interview_scheme/interview_scheme_3.png","1","",""
"","","","","","image-button-response","97","641670","0.0-14.0-1.0-2.2","48F0AA60E84147D7B8B7821066D45C56","48F0AA60E84147D7B8B7821066D45C56","1fded03c-689f-4128-ac73-c02041ebdaca","5e631737-0fa4-44a6-b227-7ba1d7345015","{""num_scrambled_semantic"":""8"",""num_scrambled_causal"":""4"",""num_scrambled_schematic"":""4"",""participantId"":""48F0AA60E84147D7B8B7821066D45C56"",""assignmentId"":""1fded03c-689f-4128-ac73-c02041ebdaca"",""projectId"":""5e631737-0fa4-44a6-b227-7ba1d7345015""}","https://test12345.live/?num_scrambled_semantic=8&num_scrambled_causal=4&num_scrambled_schematic=4&participantId=48F0AA60E84147D7B8B7821066D45C56&assignmentId=1fded03c-689f-4128-ac73-c02041ebdaca&projectId=5e631737-0fa4-44a6-b227-7ba1d7345015","48F0AA60E84147D7B8B7821066D45C56-2025-05-27-19-09-41","","null","","[]","null","",""
"","","","","","image-button-response","98","646171","0.0-14.0-1.0-0.3","48F0AA60E84147D7B8B7821066D45C56","48F0AA60E84147D7B8B7821066D45C56","1fded03c-689f-4128-ac73-c02041ebdaca","5e631737-0fa4-44a6-b227-7ba1d7345015","{""num_scrambled_semantic"":""8"",""num_scrambled_causal"":""4"",""num_scrambled_schematic"":""4"",""participantId"":""48F0AA60E84147D7B8B7821066D45C56"",""assignmentId"":""1fded03c-689f-4128-ac73-c02041ebdaca"",""projectId"":""5e631737-0fa4-44a6-b227-7ba1d7345015""}","https://test12345.live/?num_scrambled_semantic=8&num_scrambled_causal=4&num_scrambled_schematic=4&participantId=48F0AA60E84147D7B8B7821066D45C56&assignmentId=1fded03c-689f-4128-ac73-c02041ebdaca&projectId=5e631737-0fa4-44a6-b227-7ba1d7345015","48F0AA60E84147D7B8B7821066D45C56-2025-05-27-19-09-41","","null","","images/schematic_sequence/interview_scheme/interview_scheme_4.png","null","",""
"","","","","","image-button-response","99","648258","0.0-14.0-1.0-1.3","48F0AA60E84147D7B8B7821066D45C56","48F0AA60E84147D7B8B7821066D45C56","1fded03c-689f-4128-ac73-c02041ebdaca","5e631737-0fa4-44a6-b227-7ba1d7345015","{""num_scrambled_semantic"":""8"",""num_scrambled_causal"":""4"",""num_scrambled_schematic"":""4"",""participantId"":""48F0AA60E84147D7B8B7821066D45C56"",""assignmentId"":""1fded03c-689f-4128-ac73-c02041ebdaca"",""projectId"":""5e631737-0fa4-44a6-b227-7ba1d7345015""}","https://test12345.live/?num_scrambled_semantic=8&num_scrambled_causal=4&num_scrambled_schematic=4&participantId=48F0AA60E84147D7B8B7821066D45C56&assignmentId=1fded03c-689f-4128-ac73-c02041ebdaca&projectId=5e631737-0fa4-44a6-b227-7ba1d7345015","48F0AA60E84147D7B8B7821066D45C56-2025-05-27-19-09-41","","2086","","images/schematic_sequence/interview_scheme/interview_scheme_4.png","1","",""
"","","","","","image-button-response","100","650063","0.0-14.0-1.0-2.3","48F0AA60E84147D7B8B7821066D45C56","48F0AA60E84147D7B8B7821066D45C56","1fded03c-689f-4128-ac73-c02041ebdaca","5e631737-0fa4-44a6-b227-7ba1d7345015","{""num_scrambled_semantic"":""8"",""num_scrambled_causal"":""4"",""num_scrambled_schematic"":""4"",""participantId"":""48F0AA60E84147D7B8B7821066D45C56"",""assignmentId"":""1fded03c-689f-4128-ac73-c02041ebdaca"",""projectId"":""5e631737-0fa4-44a6-b227-7ba1d7345015""}","https://test12345.live/?num_scrambled_semantic=8&num_scrambled_causal=4&num_scrambled_schematic=4&participantId=48F0AA60E84147D7B8B7821066D45C56&assignmentId=1fded03c-689f-4128-ac73-c02041ebdaca&projectId=5e631737-0fa4-44a6-b227-7ba1d7345015","48F0AA60E84147D7B8B7821066D45C56-2025-05-27-19-09-41","","null","","[]","null","",""
"","","","","","image-button-response","101","654578","0.0-14.0-1.0-0.4","48F0AA60E84147D7B8B7821066D45C56","48F0AA60E84147D7B8B7821066D45C56","1fded03c-689f-4128-ac73-c02041ebdaca","5e631737-0fa4-44a6-b227-7ba1d7345015","{""num_scrambled_semantic"":""8"",""num_scrambled_causal"":""4"",""num_scrambled_schematic"":""4"",""participantId"":""48F0AA60E84147D7B8B7821066D45C56"",""assignmentId"":""1fded03c-689f-4128-ac73-c02041ebdaca"",""projectId"":""5e631737-0fa4-44a6-b227-7ba1d7345015""}","https://test12345.live/?num_scrambled_semantic=8&num_scrambled_causal=4&num_scrambled_schematic=4&participantId=48F0AA60E84147D7B8B7821066D45C56&assignmentId=1fded03c-689f-4128-ac73-c02041ebdaca&projectId=5e631737-0fa4-44a6-b227-7ba1d7345015","48F0AA60E84147D7B8B7821066D45C56-2025-05-27-19-09-41","","null","","images/schematic_sequence/interview_scheme/interview_scheme_5.png","null","",""
"","","","","","image-button-response","102","657137","0.0-14.0-1.0-1.4","48F0AA60E84147D7B8B7821066D45C56","48F0AA60E84147D7B8B7821066D45C56","1fded03c-689f-4128-ac73-c02041ebdaca","5e631737-0fa4-44a6-b227-7ba1d7345015","{""num_scrambled_semantic"":""8"",""num_scrambled_causal"":""4"",""num_scrambled_schematic"":""4"",""participantId"":""48F0AA60E84147D7B8B7821066D45C56"",""assignmentId"":""1fded03c-689f-4128-ac73-c02041ebdaca"",""projectId"":""5e631737-0fa4-44a6-b227-7ba1d7345015""}","https://test12345.live/?num_scrambled_semantic=8&num_scrambled_causal=4&num_scrambled_schematic=4&participantId=48F0AA60E84147D7B8B7821066D45C56&assignmentId=1fded03c-689f-4128-ac73-c02041ebdaca&projectId=5e631737-0fa4-44a6-b227-7ba1d7345015","48F0AA60E84147D7B8B7821066D45C56-2025-05-27-19-09-41","","2559","","images/schematic_sequence/interview_scheme/interview_scheme_5.png","0","",""
"","","","","","image-button-response","103","658954","0.0-14.0-1.0-2.4","48F0AA60E84147D7B8B7821066D45C56","48F0AA60E84147D7B8B7821066D45C56","1fded03c-689f-4128-ac73-c02041ebdaca","5e631737-0fa4-44a6-b227-7ba1d7345015","{""num_scrambled_semantic"":""8"",""num_scrambled_causal"":""4"",""num_scrambled_schematic"":""4"",""participantId"":""48F0AA60E84147D7B8B7821066D45C56"",""assignmentId"":""1fded03c-689f-4128-ac73-c02041ebdaca"",""projectId"":""5e631737-0fa4-44a6-b227-7ba1d7345015""}","https://test12345.live/?num_scrambled_semantic=8&num_scrambled_causal=4&num_scrambled_schematic=4&participantId=48F0AA60E84147D7B8B7821066D45C56&assignmentId=1fded03c-689f-4128-ac73-c02041ebdaca&projectId=5e631737-0fa4-44a6-b227-7ba1d7345015","48F0AA60E84147D7B8B7821066D45C56-2025-05-27-19-09-41","","null","","[]","null","",""
"","","","","","image-button-response","104","663468","0.0-14.0-1.0-0.5","48F0AA60E84147D7B8B7821066D45C56","48F0AA60E84147D7B8B7821066D45C56","1fded03c-689f-4128-ac73-c02041ebdaca","5e631737-0fa4-44a6-b227-7ba1d7345015","{""num_scrambled_semantic"":""8"",""num_scrambled_causal"":""4"",""num_scrambled_schematic"":""4"",""participantId"":""48F0AA60E84147D7B8B7821066D45C56"",""assignmentId"":""1fded03c-689f-4128-ac73-c02041ebdaca"",""projectId"":""5e631737-0fa4-44a6-b227-7ba1d7345015""}","https://test12345.live/?num_scrambled_semantic=8&num_scrambled_causal=4&num_scrambled_schematic=4&participantId=48F0AA60E84147D7B8B7821066D45C56&assignmentId=1fded03c-689f-4128-ac73-c02041ebdaca&projectId=5e631737-0fa4-44a6-b227-7ba1d7345015","48F0AA60E84147D7B8B7821066D45C56-2025-05-27-19-09-41","","null","","images/schematic_sequence/interview_scheme/interview_scheme_6.png","null","",""
"","","","","","image-button-response","105","664945","0.0-14.0-1.0-1.5","48F0AA60E84147D7B8B7821066D45C56","48F0AA60E84147D7B8B7821066D45C56","1fded03c-689f-4128-ac73-c02041ebdaca","5e631737-0fa4-44a6-b227-7ba1d7345015","{""num_scrambled_semantic"":""8"",""num_scrambled_causal"":""4"",""num_scrambled_schematic"":""4"",""participantId"":""48F0AA60E84147D7B8B7821066D45C56"",""assignmentId"":""1fded03c-689f-4128-ac73-c02041ebdaca"",""projectId"":""5e631737-0fa4-44a6-b227-7ba1d7345015""}","https://test12345.live/?num_scrambled_semantic=8&num_scrambled_causal=4&num_scrambled_schematic=4&participantId=48F0AA60E84147D7B8B7821066D45C56&assignmentId=1fded03c-689f-4128-ac73-c02041ebdaca&projectId=5e631737-0fa4-44a6-b227-7ba1d7345015","48F0AA60E84147D7B8B7821066D45C56-2025-05-27-19-09-41","","1476","","images/schematic_sequence/interview_scheme/interview_scheme_6.png","0","",""
"","","","","","image-button-response","106","666749","0.0-14.0-1.0-2.5","48F0AA60E84147D7B8B7821066D45C56","48F0AA60E84147D7B8B7821066D45C56","1fded03c-689f-4128-ac73-c02041ebdaca","5e631737-0fa4-44a6-b227-7ba1d7345015","{""num_scrambled_semantic"":""8"",""num_scrambled_causal"":""4"",""num_scrambled_schematic"":""4"",""participantId"":""48F0AA60E84147D7B8B7821066D45C56"",""assignmentId"":""1fded03c-689f-4128-ac73-c02041ebdaca"",""projectId"":""5e631737-0fa4-44a6-b227-7ba1d7345015""}","https://test12345.live/?num_scrambled_semantic=8&num_scrambled_causal=4&num_scrambled_schematic=4&participantId=48F0AA60E84147D7B8B7821066D45C56&assignmentId=1fded03c-689f-4128-ac73-c02041ebdaca&projectId=5e631737-0fa4-44a6-b227-7ba1d7345015","48F0AA60E84147D7B8B7821066D45C56-2025-05-27-19-09-41","","null","","[]","null","",""
"","","","","","image-button-response","107","671264","0.0-14.0-1.0-0.6","48F0AA60E84147D7B8B7821066D45C56","48F0AA60E84147D7B8B7821066D45C56","1fded03c-689f-4128-ac73-c02041ebdaca","5e631737-0fa4-44a6-b227-7ba1d7345015","{""num_scrambled_semantic"":""8"",""num_scrambled_causal"":""4"",""num_scrambled_schematic"":""4"",""participantId"":""48F0AA60E84147D7B8B7821066D45C56"",""assignmentId"":""1fded03c-689f-4128-ac73-c02041ebdaca"",""projectId"":""5e631737-0fa4-44a6-b227-7ba1d7345015""}","https://test12345.live/?num_scrambled_semantic=8&num_scrambled_causal=4&num_scrambled_schematic=4&participantId=48F0AA60E84147D7B8B7821066D45C56&assignmentId=1fded03c-689f-4128-ac73-c02041ebdaca&projectId=5e631737-0fa4-44a6-b227-7ba1d7345015","48F0AA60E84147D7B8B7821066D45C56-2025-05-27-19-09-41","","null","","images/schematic_sequence/interview_scheme/interview_scheme_7.png","null","",""
"","","","","","image-button-response","108","673169","0.0-14.0-1.0-1.6","48F0AA60E84147D7B8B7821066D45C56","48F0AA60E84147D7B8B7821066D45C56","1fded03c-689f-4128-ac73-c02041ebdaca","5e631737-0fa4-44a6-b227-7ba1d7345015","{""num_scrambled_semantic"":""8"",""num_scrambled_causal"":""4"",""num_scrambled_schematic"":""4"",""participantId"":""48F0AA60E84147D7B8B7821066D45C56"",""assignmentId"":""1fded03c-689f-4128-ac73-c02041ebdaca"",""projectId"":""5e631737-0fa4-44a6-b227-7ba1d7345015""}","https://test12345.live/?num_scrambled_semantic=8&num_scrambled_causal=4&num_scrambled_schematic=4&participantId=48F0AA60E84147D7B8B7821066D45C56&assignmentId=1fded03c-689f-4128-ac73-c02041ebdaca&projectId=5e631737-0fa4-44a6-b227-7ba1d7345015","48F0AA60E84147D7B8B7821066D45C56-2025-05-27-19-09-41","","1904","","images/schematic_sequence/interview_scheme/interview_scheme_7.png","0","",""
"","","","","","image-button-response","109","674986","0.0-14.0-1.0-2.6","48F0AA60E84147D7B8B7821066D45C56","48F0AA60E84147D7B8B7821066D45C56","1fded03c-689f-4128-ac73-c02041ebdaca","5e631737-0fa4-44a6-b227-7ba1d7345015","{""num_scrambled_semantic"":""8"",""num_scrambled_causal"":""4"",""num_scrambled_schematic"":""4"",""participantId"":""48F0AA60E84147D7B8B7821066D45C56"",""assignmentId"":""1fded03c-689f-4128-ac73-c02041ebdaca"",""projectId"":""5e631737-0fa4-44a6-b227-7ba1d7345015""}","https://test12345.live/?num_scrambled_semantic=8&num_scrambled_causal=4&num_scrambled_schematic=4&participantId=48F0AA60E84147D7B8B7821066D45C56&assignmentId=1fded03c-689f-4128-ac73-c02041ebdaca&projectId=5e631737-0fa4-44a6-b227-7ba1d7345015","48F0AA60E84147D7B8B7821066D45C56-2025-05-27-19-09-41","","null","","[]","null","",""
"","","","","","image-button-response","110","679511","0.0-14.0-1.0-0.7","48F0AA60E84147D7B8B7821066D45C56","48F0AA60E84147D7B8B7821066D45C56","1fded03c-689f-4128-ac73-c02041ebdaca","5e631737-0fa4-44a6-b227-7ba1d7345015","{""num_scrambled_semantic"":""8"",""num_scrambled_causal"":""4"",""num_scrambled_schematic"":""4"",""participantId"":""48F0AA60E84147D7B8B7821066D45C56"",""assignmentId"":""1fded03c-689f-4128-ac73-c02041ebdaca"",""projectId"":""5e631737-0fa4-44a6-b227-7ba1d7345015""}","https://test12345.live/?num_scrambled_semantic=8&num_scrambled_causal=4&num_scrambled_schematic=4&participantId=48F0AA60E84147D7B8B7821066D45C56&assignmentId=1fded03c-689f-4128-ac73-c02041ebdaca&projectId=5e631737-0fa4-44a6-b227-7ba1d7345015","48F0AA60E84147D7B8B7821066D45C56-2025-05-27-19-09-41","","null","","images/schematic_sequence/interview_scheme/interview_scheme_8.png","null","",""
"","","","","","image-button-response","111","681177","0.0-14.0-1.0-1.7","48F0AA60E84147D7B8B7821066D45C56","48F0AA60E84147D7B8B7821066D45C56","1fded03c-689f-4128-ac73-c02041ebdaca","5e631737-0fa4-44a6-b227-7ba1d7345015","{""num_scrambled_semantic"":""8"",""num_scrambled_causal"":""4"",""num_scrambled_schematic"":""4"",""participantId"":""48F0AA60E84147D7B8B7821066D45C56"",""assignmentId"":""1fded03c-689f-4128-ac73-c02041ebdaca"",""projectId"":""5e631737-0fa4-44a6-b227-7ba1d7345015""}","https://test12345.live/?num_scrambled_semantic=8&num_scrambled_causal=4&num_scrambled_schematic=4&participantId=48F0AA60E84147D7B8B7821066D45C56&assignmentId=1fded03c-689f-4128-ac73-c02041ebdaca&projectId=5e631737-0fa4-44a6-b227-7ba1d7345015","48F0AA60E84147D7B8B7821066D45C56-2025-05-27-19-09-41","","1665","","images/schematic_sequence/interview_scheme/interview_scheme_8.png","0","",""
"","","","","","image-button-response","112","682991","0.0-14.0-1.0-2.7","48F0AA60E84147D7B8B7821066D45C56","48F0AA60E84147D7B8B7821066D45C56","1fded03c-689f-4128-ac73-c02041ebdaca","5e631737-0fa4-44a6-b227-7ba1d7345015","{""num_scrambled_semantic"":""8"",""num_scrambled_causal"":""4"",""num_scrambled_schematic"":""4"",""participantId"":""48F0AA60E84147D7B8B7821066D45C56"",""assignmentId"":""1fded03c-689f-4128-ac73-c02041ebdaca"",""projectId"":""5e631737-0fa4-44a6-b227-7ba1d7345015""}","https://test12345.live/?num_scrambled_semantic=8&num_scrambled_causal=4&num_scrambled_schematic=4&participantId=48F0AA60E84147D7B8B7821066D45C56&assignmentId=1fded03c-689f-4128-ac73-c02041ebdaca&projectId=5e631737-0fa4-44a6-b227-7ba1d7345015","48F0AA60E84147D7B8B7821066D45C56-2025-05-27-19-09-41","","null","","[]","null","",""
"","","","","","image-button-response","113","687500","0.0-14.0-1.0-0.8","48F0AA60E84147D7B8B7821066D45C56","48F0AA60E84147D7B8B7821066D45C56","1fded03c-689f-4128-ac73-c02041ebdaca","5e631737-0fa4-44a6-b227-7ba1d7345015","{""num_scrambled_semantic"":""8"",""num_scrambled_causal"":""4"",""num_scrambled_schematic"":""4"",""participantId"":""48F0AA60E84147D7B8B7821066D45C56"",""assignmentId"":""1fded03c-689f-4128-ac73-c02041ebdaca"",""projectId"":""5e631737-0fa4-44a6-b227-7ba1d7345015""}","https://test12345.live/?num_scrambled_semantic=8&num_scrambled_causal=4&num_scrambled_schematic=4&participantId=48F0AA60E84147D7B8B7821066D45C56&assignmentId=1fded03c-689f-4128-ac73-c02041ebdaca&projectId=5e631737-0fa4-44a6-b227-7ba1d7345015","48F0AA60E84147D7B8B7821066D45C56-2025-05-27-19-09-41","","null","","images/schematic_sequence/interview_scheme/interview_scheme_9.png","null","",""
"","","","","","image-button-response","114","690177","0.0-14.0-1.0-1.8","48F0AA60E84147D7B8B7821066D45C56","48F0AA60E84147D7B8B7821066D45C56","1fded03c-689f-4128-ac73-c02041ebdaca","5e631737-0fa4-44a6-b227-7ba1d7345015","{""num_scrambled_semantic"":""8"",""num_scrambled_causal"":""4"",""num_scrambled_schematic"":""4"",""participantId"":""48F0AA60E84147D7B8B7821066D45C56"",""assignmentId"":""1fded03c-689f-4128-ac73-c02041ebdaca"",""projectId"":""5e631737-0fa4-44a6-b227-7ba1d7345015""}","https://test12345.live/?num_scrambled_semantic=8&num_scrambled_causal=4&num_scrambled_schematic=4&participantId=48F0AA60E84147D7B8B7821066D45C56&assignmentId=1fded03c-689f-4128-ac73-c02041ebdaca&projectId=5e631737-0fa4-44a6-b227-7ba1d7345015","48F0AA60E84147D7B8B7821066D45C56-2025-05-27-19-09-41","","2676","","images/schematic_sequence/interview_scheme/interview_scheme_9.png","0","",""
