"success","timeout","failed_images","failed_audio","failed_video","trial_type","trial_index","time_elapsed","internal_node_id","subject","subject_id","study_id","session_id","urlvar","current_url","audio_id","view_history","rt","device_id","stimulus","response","estimated_stimulus_onset","seq_name"
"true","false","[]","[]","[]","preload","0","206562","0.0-0.0","49E1F7CBD56F4A70A8905D4966AF6BB8","49E1F7CBD56F4A70A8905D4966AF6BB8","0198be2d-6316-7d1f-ac30-e5193f0059fe","0198be1d-574a-752e-ae53-1d263a30e856","{""num_scrambled_semantic"":""8"",""num_scrambled_causal"":""4"",""num_scrambled_schematic"":""4"",""participantId"":""49E1F7CBD56F4A70A8905D4966AF6BB8"",""assignmentId"":""0198be2d-6316-7d1f-ac30-e5193f0059fe"",""projectId"":""0198be1d-574a-752e-ae53-1d263a30e856""}","https://test12345.live/?num_scrambled_semantic=8&num_scrambled_causal=4&num_scrambled_schematic=4&participantId=49E1F7CBD56F4A70A8905D4966AF6BB8&assignmentId=0198be2d-6316-7d1f-ac30-e5193f0059fe&projectId=0198be1d-574a-752e-ae53-1d263a30e856","49E1F7CBD56F4A70A8905D4966AF6BB8-2025-08-18-18-12-44","","","","","","",""
"","","","","","instructions","1","237684","0.0-1.0","49E1F7CBD56F4A70A8905D4966AF6BB8","49E1F7CBD56F4A70A8905D4966AF6BB8","0198be2d-6316-7d1f-ac30-e5193f0059fe","0198be1d-574a-752e-ae53-1d263a30e856","{""num_scrambled_semantic"":""8"",""num_scrambled_causal"":""4"",""num_scrambled_schematic"":""4"",""participantId"":""49E1F7CBD56F4A70A8905D4966AF6BB8"",""assignmentId"":""0198be2d-6316-7d1f-ac30-e5193f0059fe"",""projectId"":""0198be1d-574a-752e-ae53-1d263a30e856""}","https://test12345.live/?num_scrambled_semantic=8&num_scrambled_causal=4&num_scrambled_schematic=4&participantId=49E1F7CBD56F4A70A8905D4966AF6BB8&assignmentId=0198be2d-6316-7d1f-ac30-e5193f0059fe&projectId=0198be1d-574a-752e-ae53-1d263a30e856","49E1F7CBD56F4A70A8905D4966AF6BB8-2025-08-18-18-12-44","[{""page_index"":0,""viewing_time"":31117}]","31118","","","","",""
"","","","","","instructions","2","244326","0.0-2.0","49E1F7CBD56F4A70A8905D4966AF6BB8","49E1F7CBD56F4A70A8905D4966AF6BB8","0198be2d-6316-7d1f-ac30-e5193f0059fe","0198be1d-574a-752e-ae53-1d263a30e856","{""num_scrambled_semantic"":""8"",""num_scrambled_causal"":""4"",""num_scrambled_schematic"":""4"",""participantId"":""49E1F7CBD56F4A70A8905D4966AF6BB8"",""assignmentId"":""0198be2d-6316-7d1f-ac30-e5193f0059fe"",""projectId"":""0198be1d-574a-752e-ae53-1d263a30e856""}","https://test12345.live/?num_scrambled_semantic=8&num_scrambled_causal=4&num_scrambled_schematic=4&participantId=49E1F7CBD56F4A70A8905D4966AF6BB8&assignmentId=0198be2d-6316-7d1f-ac30-e5193f0059fe&projectId=0198be1d-574a-752e-ae53-1d263a30e856","49E1F7CBD56F4A70A8905D4966AF6BB8-2025-08-18-18-12-44","[{""page_index"":0,""viewing_time"":6640}]","6640","","","","",""
"true","","","","","fullscreen","3","254533","0.0-3.0","49E1F7CBD56F4A70A8905D4966AF6BB8","49E1F7CBD56F4A70A8905D4966AF6BB8","0198be2d-6316-7d1f-ac30-e5193f0059fe","0198be1d-574a-752e-ae53-1d263a30e856","{""num_scrambled_semantic"":""8"",""num_scrambled_causal"":""4"",""num_scrambled_schematic"":""4"",""participantId"":""49E1F7CBD56F4A70A8905D4966AF6BB8"",""assignmentId"":""0198be2d-6316-7d1f-ac30-e5193f0059fe"",""projectId"":""0198be1d-574a-752e-ae53-1d263a30e856""}","https://test12345.live/?num_scrambled_semantic=8&num_scrambled_causal=4&num_scrambled_schematic=4&participantId=49E1F7CBD56F4A70A8905D4966AF6BB8&assignmentId=0198be2d-6316-7d1f-ac30-e5193f0059fe&projectId=0198be1d-574a-752e-ae53-1d263a30e856","49E1F7CBD56F4A70A8905D4966AF6BB8-2025-08-18-18-12-44","","9195","","","","",""
"","","","","","initialize-microphone","4","368947","0.0-4.0-0.0","49E1F7CBD56F4A70A8905D4966AF6BB8","49E1F7CBD56F4A70A8905D4966AF6BB8","0198be2d-6316-7d1f-ac30-e5193f0059fe","0198be1d-574a-752e-ae53-1d263a30e856","{""num_scrambled_semantic"":""8"",""num_scrambled_causal"":""4"",""num_scrambled_schematic"":""4"",""participantId"":""49E1F7CBD56F4A70A8905D4966AF6BB8"",""assignmentId"":""0198be2d-6316-7d1f-ac30-e5193f0059fe"",""projectId"":""0198be1d-574a-752e-ae53-1d263a30e856""}","https://test12345.live/?num_scrambled_semantic=8&num_scrambled_causal=4&num_scrambled_schematic=4&participantId=49E1F7CBD56F4A70A8905D4966AF6BB8&assignmentId=0198be2d-6316-7d1f-ac30-e5193f0059fe&projectId=0198be1d-574a-752e-ae53-1d263a30e856","49E1F7CBD56F4A70A8905D4966AF6BB8-2025-08-18-18-12-44","","","06402f63500ddfcd0eede879410389d114be380c94e39852b6887b7728e66b16","","","",""
"","","","","","html-audio-response","5","401813","0.0-4.0-1.0","49E1F7CBD56F4A70A8905D4966AF6BB8","49E1F7CBD56F4A70A8905D4966AF6BB8","0198be2d-6316-7d1f-ac30-e5193f0059fe","0198be1d-574a-752e-ae53-1d263a30e856","{""num_scrambled_semantic"":""8"",""num_scrambled_causal"":""4"",""num_scrambled_schematic"":""4"",""participantId"":""49E1F7CBD56F4A70A8905D4966AF6BB8"",""assignmentId"":""0198be2d-6316-7d1f-ac30-e5193f0059fe"",""projectId"":""0198be1d-574a-752e-ae53-1d263a30e856""}","https://test12345.live/?num_scrambled_semantic=8&num_scrambled_causal=4&num_scrambled_schematic=4&participantId=49E1F7CBD56F4A70A8905D4966AF6BB8&assignmentId=0198be2d-6316-7d1f-ac30-e5193f0059fe&projectId=0198be1d-574a-752e-ae53-1d263a30e856","49E1F7CBD56F4A70A8905D4966AF6BB8-2025-08-18-18-12-44","","3983","","<span style=""color: red; font-size: 24px""> NOW RECORDING</span>
        <p>Please test Microphone</p>","","11",""
"","","","","","html-button-response","6","403582","0.0-4.0-2.0","49E1F7CBD56F4A70A8905D4966AF6BB8","49E1F7CBD56F4A70A8905D4966AF6BB8","0198be2d-6316-7d1f-ac30-e5193f0059fe","0198be1d-574a-752e-ae53-1d263a30e856","{""num_scrambled_semantic"":""8"",""num_scrambled_causal"":""4"",""num_scrambled_schematic"":""4"",""participantId"":""49E1F7CBD56F4A70A8905D4966AF6BB8"",""assignmentId"":""0198be2d-6316-7d1f-ac30-e5193f0059fe"",""projectId"":""0198be1d-574a-752e-ae53-1d263a30e856""}","https://test12345.live/?num_scrambled_semantic=8&num_scrambled_causal=4&num_scrambled_schematic=4&participantId=49E1F7CBD56F4A70A8905D4966AF6BB8&assignmentId=0198be2d-6316-7d1f-ac30-e5193f0059fe&projectId=0198be1d-574a-752e-ae53-1d263a30e856","49E1F7CBD56F4A70A8905D4966AF6BB8-2025-08-18-18-12-44","","1766","","<p style=""font-size:48px; color:red;"">Is Microphone OK?</p>","1","",""
"","","","","","instructions","7","531876","0.0-5.0","49E1F7CBD56F4A70A8905D4966AF6BB8","49E1F7CBD56F4A70A8905D4966AF6BB8","0198be2d-6316-7d1f-ac30-e5193f0059fe","0198be1d-574a-752e-ae53-1d263a30e856","{""num_scrambled_semantic"":""8"",""num_scrambled_causal"":""4"",""num_scrambled_schematic"":""4"",""participantId"":""49E1F7CBD56F4A70A8905D4966AF6BB8"",""assignmentId"":""0198be2d-6316-7d1f-ac30-e5193f0059fe"",""projectId"":""0198be1d-574a-752e-ae53-1d263a30e856""}","https://test12345.live/?num_scrambled_semantic=8&num_scrambled_causal=4&num_scrambled_schematic=4&participantId=49E1F7CBD56F4A70A8905D4966AF6BB8&assignmentId=0198be2d-6316-7d1f-ac30-e5193f0059fe&projectId=0198be1d-574a-752e-ae53-1d263a30e856","49E1F7CBD56F4A70A8905D4966AF6BB8-2025-08-18-18-12-44","[{""page_index"":0,""viewing_time"":8067},{""page_index"":1,""viewing_time"":120225}]","128292","","","","",""
"","","","","","image-button-response","8","537898","0.0-6.0-0.0","49E1F7CBD56F4A70A8905D4966AF6BB8","49E1F7CBD56F4A70A8905D4966AF6BB8","0198be2d-6316-7d1f-ac30-e5193f0059fe","0198be1d-574a-752e-ae53-1d263a30e856","{""num_scrambled_semantic"":""8"",""num_scrambled_causal"":""4"",""num_scrambled_schematic"":""4"",""participantId"":""49E1F7CBD56F4A70A8905D4966AF6BB8"",""assignmentId"":""0198be2d-6316-7d1f-ac30-e5193f0059fe"",""projectId"":""0198be1d-574a-752e-ae53-1d263a30e856""}","https://test12345.live/?num_scrambled_semantic=8&num_scrambled_causal=4&num_scrambled_schematic=4&participantId=49E1F7CBD56F4A70A8905D4966AF6BB8&assignmentId=0198be2d-6316-7d1f-ac30-e5193f0059fe&projectId=0198be1d-574a-752e-ae53-1d263a30e856","49E1F7CBD56F4A70A8905D4966AF6BB8-2025-08-18-18-12-44","","null","","images/instructions/movie_0.png","null","",""
"","","","","","image-button-response","9","542408","0.0-6.0-1.0-0.0","49E1F7CBD56F4A70A8905D4966AF6BB8","49E1F7CBD56F4A70A8905D4966AF6BB8","0198be2d-6316-7d1f-ac30-e5193f0059fe","0198be1d-574a-752e-ae53-1d263a30e856","{""num_scrambled_semantic"":""8"",""num_scrambled_causal"":""4"",""num_scrambled_schematic"":""4"",""participantId"":""49E1F7CBD56F4A70A8905D4966AF6BB8"",""assignmentId"":""0198be2d-6316-7d1f-ac30-e5193f0059fe"",""projectId"":""0198be1d-574a-752e-ae53-1d263a30e856""}","https://test12345.live/?num_scrambled_semantic=8&num_scrambled_causal=4&num_scrambled_schematic=4&participantId=49E1F7CBD56F4A70A8905D4966AF6BB8&assignmentId=0198be2d-6316-7d1f-ac30-e5193f0059fe&projectId=0198be1d-574a-752e-ae53-1d263a30e856","49E1F7CBD56F4A70A8905D4966AF6BB8-2025-08-18-18-12-44","","null","","images/instructions/movie_1.png","null","",""
"","","","","","image-button-response","10","546418","0.0-6.0-1.0-1.0","49E1F7CBD56F4A70A8905D4966AF6BB8","49E1F7CBD56F4A70A8905D4966AF6BB8","0198be2d-6316-7d1f-ac30-e5193f0059fe","0198be1d-574a-752e-ae53-1d263a30e856","{""num_scrambled_semantic"":""8"",""num_scrambled_causal"":""4"",""num_scrambled_schematic"":""4"",""participantId"":""49E1F7CBD56F4A70A8905D4966AF6BB8"",""assignmentId"":""0198be2d-6316-7d1f-ac30-e5193f0059fe"",""projectId"":""0198be1d-574a-752e-ae53-1d263a30e856""}","https://test12345.live/?num_scrambled_semantic=8&num_scrambled_causal=4&num_scrambled_schematic=4&participantId=49E1F7CBD56F4A70A8905D4966AF6BB8&assignmentId=0198be2d-6316-7d1f-ac30-e5193f0059fe&projectId=0198be1d-574a-752e-ae53-1d263a30e856","49E1F7CBD56F4A70A8905D4966AF6BB8-2025-08-18-18-12-44","","null","","images/instructions/movie_1.png","null","",""
"","","","","","image-button-response","11","557228","0.0-6.0-1.0-2.0","49E1F7CBD56F4A70A8905D4966AF6BB8","49E1F7CBD56F4A70A8905D4966AF6BB8","0198be2d-6316-7d1f-ac30-e5193f0059fe","0198be1d-574a-752e-ae53-1d263a30e856","{""num_scrambled_semantic"":""8"",""num_scrambled_causal"":""4"",""num_scrambled_schematic"":""4"",""participantId"":""49E1F7CBD56F4A70A8905D4966AF6BB8"",""assignmentId"":""0198be2d-6316-7d1f-ac30-e5193f0059fe"",""projectId"":""0198be1d-574a-752e-ae53-1d263a30e856""}","https://test12345.live/?num_scrambled_semantic=8&num_scrambled_causal=4&num_scrambled_schematic=4&participantId=49E1F7CBD56F4A70A8905D4966AF6BB8&assignmentId=0198be2d-6316-7d1f-ac30-e5193f0059fe&projectId=0198be1d-574a-752e-ae53-1d263a30e856","49E1F7CBD56F4A70A8905D4966AF6BB8-2025-08-18-18-12-44","","null","","[]","null","",""
"","","","","","image-button-response","12","561738","0.0-6.0-1.0-0.1","49E1F7CBD56F4A70A8905D4966AF6BB8","49E1F7CBD56F4A70A8905D4966AF6BB8","0198be2d-6316-7d1f-ac30-e5193f0059fe","0198be1d-574a-752e-ae53-1d263a30e856","{""num_scrambled_semantic"":""8"",""num_scrambled_causal"":""4"",""num_scrambled_schematic"":""4"",""participantId"":""49E1F7CBD56F4A70A8905D4966AF6BB8"",""assignmentId"":""0198be2d-6316-7d1f-ac30-e5193f0059fe"",""projectId"":""0198be1d-574a-752e-ae53-1d263a30e856""}","https://test12345.live/?num_scrambled_semantic=8&num_scrambled_causal=4&num_scrambled_schematic=4&participantId=49E1F7CBD56F4A70A8905D4966AF6BB8&assignmentId=0198be2d-6316-7d1f-ac30-e5193f0059fe&projectId=0198be1d-574a-752e-ae53-1d263a30e856","49E1F7CBD56F4A70A8905D4966AF6BB8-2025-08-18-18-12-44","","null","","images/instructions/movie_2.png","null","",""
"","","","","","image-button-response","13","564354","0.0-6.0-1.0-1.1","49E1F7CBD56F4A70A8905D4966AF6BB8","49E1F7CBD56F4A70A8905D4966AF6BB8","0198be2d-6316-7d1f-ac30-e5193f0059fe","0198be1d-574a-752e-ae53-1d263a30e856","{""num_scrambled_semantic"":""8"",""num_scrambled_causal"":""4"",""num_scrambled_schematic"":""4"",""participantId"":""49E1F7CBD56F4A70A8905D4966AF6BB8"",""assignmentId"":""0198be2d-6316-7d1f-ac30-e5193f0059fe"",""projectId"":""0198be1d-574a-752e-ae53-1d263a30e856""}","https://test12345.live/?num_scrambled_semantic=8&num_scrambled_causal=4&num_scrambled_schematic=4&participantId=49E1F7CBD56F4A70A8905D4966AF6BB8&assignmentId=0198be2d-6316-7d1f-ac30-e5193f0059fe&projectId=0198be1d-574a-752e-ae53-1d263a30e856","49E1F7CBD56F4A70A8905D4966AF6BB8-2025-08-18-18-12-44","","2613","","images/instructions/movie_2.png","0","",""
"","","","","","image-button-response","14","575169","0.0-6.0-1.0-2.1","49E1F7CBD56F4A70A8905D4966AF6BB8","49E1F7CBD56F4A70A8905D4966AF6BB8","0198be2d-6316-7d1f-ac30-e5193f0059fe","0198be1d-574a-752e-ae53-1d263a30e856","{""num_scrambled_semantic"":""8"",""num_scrambled_causal"":""4"",""num_scrambled_schematic"":""4"",""participantId"":""49E1F7CBD56F4A70A8905D4966AF6BB8"",""assignmentId"":""0198be2d-6316-7d1f-ac30-e5193f0059fe"",""projectId"":""0198be1d-574a-752e-ae53-1d263a30e856""}","https://test12345.live/?num_scrambled_semantic=8&num_scrambled_causal=4&num_scrambled_schematic=4&participantId=49E1F7CBD56F4A70A8905D4966AF6BB8&assignmentId=0198be2d-6316-7d1f-ac30-e5193f0059fe&projectId=0198be1d-574a-752e-ae53-1d263a30e856","49E1F7CBD56F4A70A8905D4966AF6BB8-2025-08-18-18-12-44","","null","","[]","null","",""
"","","","","","image-button-response","15","579688","0.0-6.0-1.0-0.2","49E1F7CBD56F4A70A8905D4966AF6BB8","49E1F7CBD56F4A70A8905D4966AF6BB8","0198be2d-6316-7d1f-ac30-e5193f0059fe","0198be1d-574a-752e-ae53-1d263a30e856","{""num_scrambled_semantic"":""8"",""num_scrambled_causal"":""4"",""num_scrambled_schematic"":""4"",""participantId"":""49E1F7CBD56F4A70A8905D4966AF6BB8"",""assignmentId"":""0198be2d-6316-7d1f-ac30-e5193f0059fe"",""projectId"":""0198be1d-574a-752e-ae53-1d263a30e856""}","https://test12345.live/?num_scrambled_semantic=8&num_scrambled_causal=4&num_scrambled_schematic=4&participantId=49E1F7CBD56F4A70A8905D4966AF6BB8&assignmentId=0198be2d-6316-7d1f-ac30-e5193f0059fe&projectId=0198be1d-574a-752e-ae53-1d263a30e856","49E1F7CBD56F4A70A8905D4966AF6BB8-2025-08-18-18-12-44","","null","","images/instructions/movie_3.png","null","",""
"","","","","","image-button-response","16","582388","0.0-6.0-1.0-1.2","49E1F7CBD56F4A70A8905D4966AF6BB8","49E1F7CBD56F4A70A8905D4966AF6BB8","0198be2d-6316-7d1f-ac30-e5193f0059fe","0198be1d-574a-752e-ae53-1d263a30e856","{""num_scrambled_semantic"":""8"",""num_scrambled_causal"":""4"",""num_scrambled_schematic"":""4"",""participantId"":""49E1F7CBD56F4A70A8905D4966AF6BB8"",""assignmentId"":""0198be2d-6316-7d1f-ac30-e5193f0059fe"",""projectId"":""0198be1d-574a-752e-ae53-1d263a30e856""}","https://test12345.live/?num_scrambled_semantic=8&num_scrambled_causal=4&num_scrambled_schematic=4&participantId=49E1F7CBD56F4A70A8905D4966AF6BB8&assignmentId=0198be2d-6316-7d1f-ac30-e5193f0059fe&projectId=0198be1d-574a-752e-ae53-1d263a30e856","49E1F7CBD56F4A70A8905D4966AF6BB8-2025-08-18-18-12-44","","2697","","images/instructions/movie_3.png","0","",""
"","","","","","image-button-response","17","593198","0.0-6.0-1.0-2.2","49E1F7CBD56F4A70A8905D4966AF6BB8","49E1F7CBD56F4A70A8905D4966AF6BB8","0198be2d-6316-7d1f-ac30-e5193f0059fe","0198be1d-574a-752e-ae53-1d263a30e856","{""num_scrambled_semantic"":""8"",""num_scrambled_causal"":""4"",""num_scrambled_schematic"":""4"",""participantId"":""49E1F7CBD56F4A70A8905D4966AF6BB8"",""assignmentId"":""0198be2d-6316-7d1f-ac30-e5193f0059fe"",""projectId"":""0198be1d-574a-752e-ae53-1d263a30e856""}","https://test12345.live/?num_scrambled_semantic=8&num_scrambled_causal=4&num_scrambled_schematic=4&participantId=49E1F7CBD56F4A70A8905D4966AF6BB8&assignmentId=0198be2d-6316-7d1f-ac30-e5193f0059fe&projectId=0198be1d-574a-752e-ae53-1d263a30e856","49E1F7CBD56F4A70A8905D4966AF6BB8-2025-08-18-18-12-44","","null","","[]","null","",""
"","","","","","image-button-response","18","597718","0.0-6.0-1.0-0.3","49E1F7CBD56F4A70A8905D4966AF6BB8","49E1F7CBD56F4A70A8905D4966AF6BB8","0198be2d-6316-7d1f-ac30-e5193f0059fe","0198be1d-574a-752e-ae53-1d263a30e856","{""num_scrambled_semantic"":""8"",""num_scrambled_causal"":""4"",""num_scrambled_schematic"":""4"",""participantId"":""49E1F7CBD56F4A70A8905D4966AF6BB8"",""assignmentId"":""0198be2d-6316-7d1f-ac30-e5193f0059fe"",""projectId"":""0198be1d-574a-752e-ae53-1d263a30e856""}","https://test12345.live/?num_scrambled_semantic=8&num_scrambled_causal=4&num_scrambled_schematic=4&participantId=49E1F7CBD56F4A70A8905D4966AF6BB8&assignmentId=0198be2d-6316-7d1f-ac30-e5193f0059fe&projectId=0198be1d-574a-752e-ae53-1d263a30e856","49E1F7CBD56F4A70A8905D4966AF6BB8-2025-08-18-18-12-44","","null","","images/instructions/movie_4.png","null","",""
"","","","","","image-button-response","19","600136","0.0-6.0-1.0-1.3","49E1F7CBD56F4A70A8905D4966AF6BB8","49E1F7CBD56F4A70A8905D4966AF6BB8","0198be2d-6316-7d1f-ac30-e5193f0059fe","0198be1d-574a-752e-ae53-1d263a30e856","{""num_scrambled_semantic"":""8"",""num_scrambled_causal"":""4"",""num_scrambled_schematic"":""4"",""participantId"":""49E1F7CBD56F4A70A8905D4966AF6BB8"",""assignmentId"":""0198be2d-6316-7d1f-ac30-e5193f0059fe"",""projectId"":""0198be1d-574a-752e-ae53-1d263a30e856""}","https://test12345.live/?num_scrambled_semantic=8&num_scrambled_causal=4&num_scrambled_schematic=4&participantId=49E1F7CBD56F4A70A8905D4966AF6BB8&assignmentId=0198be2d-6316-7d1f-ac30-e5193f0059fe&projectId=0198be1d-574a-752e-ae53-1d263a30e856","49E1F7CBD56F4A70A8905D4966AF6BB8-2025-08-18-18-12-44","","2415","","images/instructions/movie_4.png","0","",""
"","","","","","image-button-response","20","610958","0.0-6.0-1.0-2.3","49E1F7CBD56F4A70A8905D4966AF6BB8","49E1F7CBD56F4A70A8905D4966AF6BB8","0198be2d-6316-7d1f-ac30-e5193f0059fe","0198be1d-574a-752e-ae53-1d263a30e856","{""num_scrambled_semantic"":""8"",""num_scrambled_causal"":""4"",""num_scrambled_schematic"":""4"",""participantId"":""49E1F7CBD56F4A70A8905D4966AF6BB8"",""assignmentId"":""0198be2d-6316-7d1f-ac30-e5193f0059fe"",""projectId"":""0198be1d-574a-752e-ae53-1d263a30e856""}","https://test12345.live/?num_scrambled_semantic=8&num_scrambled_causal=4&num_scrambled_schematic=4&participantId=49E1F7CBD56F4A70A8905D4966AF6BB8&assignmentId=0198be2d-6316-7d1f-ac30-e5193f0059fe&projectId=0198be1d-574a-752e-ae53-1d263a30e856","49E1F7CBD56F4A70A8905D4966AF6BB8-2025-08-18-18-12-44","","null","","[]","null","",""
"","","","","","instructions","21","638485","0.0-7.0","49E1F7CBD56F4A70A8905D4966AF6BB8","49E1F7CBD56F4A70A8905D4966AF6BB8","0198be2d-6316-7d1f-ac30-e5193f0059fe","0198be1d-574a-752e-ae53-1d263a30e856","{""num_scrambled_semantic"":""8"",""num_scrambled_causal"":""4"",""num_scrambled_schematic"":""4"",""participantId"":""49E1F7CBD56F4A70A8905D4966AF6BB8"",""assignmentId"":""0198be2d-6316-7d1f-ac30-e5193f0059fe"",""projectId"":""0198be1d-574a-752e-ae53-1d263a30e856""}","https://test12345.live/?num_scrambled_semantic=8&num_scrambled_causal=4&num_scrambled_schematic=4&participantId=49E1F7CBD56F4A70A8905D4966AF6BB8&assignmentId=0198be2d-6316-7d1f-ac30-e5193f0059fe&projectId=0198be1d-574a-752e-ae53-1d263a30e856","49E1F7CBD56F4A70A8905D4966AF6BB8-2025-08-18-18-12-44","[{""page_index"":0,""viewing_time"":25523},{""page_index"":1,""viewing_time"":2001}]","27524","","","","",""
"","","","","","html-audio-response","22","732263","0.0-8.0","49E1F7CBD56F4A70A8905D4966AF6BB8","49E1F7CBD56F4A70A8905D4966AF6BB8","0198be2d-6316-7d1f-ac30-e5193f0059fe","0198be1d-574a-752e-ae53-1d263a30e856","{""num_scrambled_semantic"":""8"",""num_scrambled_causal"":""4"",""num_scrambled_schematic"":""4"",""participantId"":""49E1F7CBD56F4A70A8905D4966AF6BB8"",""assignmentId"":""0198be2d-6316-7d1f-ac30-e5193f0059fe"",""projectId"":""0198be1d-574a-752e-ae53-1d263a30e856""}","https://test12345.live/?num_scrambled_semantic=8&num_scrambled_causal=4&num_scrambled_schematic=4&participantId=49E1F7CBD56F4A70A8905D4966AF6BB8&assignmentId=0198be2d-6316-7d1f-ac30-e5193f0059fe&projectId=0198be1d-574a-752e-ae53-1d263a30e856","49E1F7CBD56F4A70A8905D4966AF6BB8-2025-08-18-18-12-44","","15111","","[""<span style=\""color: red; font-size: 24px\""> NOW RECORDING</span><p>Please say out loud all the images you saw in the exact order you saw them. Try to recall as many images as you can, but remember: getting the order right is more important than the number of images you recall.</p>""]","","18",""
"","","","","","instructions","23","734366","0.0-9.0","49E1F7CBD56F4A70A8905D4966AF6BB8","49E1F7CBD56F4A70A8905D4966AF6BB8","0198be2d-6316-7d1f-ac30-e5193f0059fe","0198be1d-574a-752e-ae53-1d263a30e856","{""num_scrambled_semantic"":""8"",""num_scrambled_causal"":""4"",""num_scrambled_schematic"":""4"",""participantId"":""49E1F7CBD56F4A70A8905D4966AF6BB8"",""assignmentId"":""0198be2d-6316-7d1f-ac30-e5193f0059fe"",""projectId"":""0198be1d-574a-752e-ae53-1d263a30e856""}","https://test12345.live/?num_scrambled_semantic=8&num_scrambled_causal=4&num_scrambled_schematic=4&participantId=49E1F7CBD56F4A70A8905D4966AF6BB8&assignmentId=0198be2d-6316-7d1f-ac30-e5193f0059fe&projectId=0198be1d-574a-752e-ae53-1d263a30e856","49E1F7CBD56F4A70A8905D4966AF6BB8-2025-08-18-18-12-44","[{""page_index"":0,""viewing_time"":2079}]","2079","","","","",""
"","","","","","image-button-response","24","740374","0.0-10.0-0.0","49E1F7CBD56F4A70A8905D4966AF6BB8","49E1F7CBD56F4A70A8905D4966AF6BB8","0198be2d-6316-7d1f-ac30-e5193f0059fe","0198be1d-574a-752e-ae53-1d263a30e856","{""num_scrambled_semantic"":""8"",""num_scrambled_causal"":""4"",""num_scrambled_schematic"":""4"",""participantId"":""49E1F7CBD56F4A70A8905D4966AF6BB8"",""assignmentId"":""0198be2d-6316-7d1f-ac30-e5193f0059fe"",""projectId"":""0198be1d-574a-752e-ae53-1d263a30e856""}","https://test12345.live/?num_scrambled_semantic=8&num_scrambled_causal=4&num_scrambled_schematic=4&participantId=49E1F7CBD56F4A70A8905D4966AF6BB8&assignmentId=0198be2d-6316-7d1f-ac30-e5193f0059fe&projectId=0198be1d-574a-752e-ae53-1d263a30e856","49E1F7CBD56F4A70A8905D4966AF6BB8-2025-08-18-18-12-44","","null","","images/causal_sequence/dog_causal/dog_causal_0.png","null","",""
"","","","","","image-button-response","25","744888","0.0-10.0-1.0-0.0","49E1F7CBD56F4A70A8905D4966AF6BB8","49E1F7CBD56F4A70A8905D4966AF6BB8","0198be2d-6316-7d1f-ac30-e5193f0059fe","0198be1d-574a-752e-ae53-1d263a30e856","{""num_scrambled_semantic"":""8"",""num_scrambled_causal"":""4"",""num_scrambled_schematic"":""4"",""participantId"":""49E1F7CBD56F4A70A8905D4966AF6BB8"",""assignmentId"":""0198be2d-6316-7d1f-ac30-e5193f0059fe"",""projectId"":""0198be1d-574a-752e-ae53-1d263a30e856""}","https://test12345.live/?num_scrambled_semantic=8&num_scrambled_causal=4&num_scrambled_schematic=4&participantId=49E1F7CBD56F4A70A8905D4966AF6BB8&assignmentId=0198be2d-6316-7d1f-ac30-e5193f0059fe&projectId=0198be1d-574a-752e-ae53-1d263a30e856","49E1F7CBD56F4A70A8905D4966AF6BB8-2025-08-18-18-12-44","","null","","images/causal_sequence/dog_causal/dog_causal_5.png","null","",""
"","","","","","image-button-response","26","747285","0.0-10.0-1.0-1.0","49E1F7CBD56F4A70A8905D4966AF6BB8","49E1F7CBD56F4A70A8905D4966AF6BB8","0198be2d-6316-7d1f-ac30-e5193f0059fe","0198be1d-574a-752e-ae53-1d263a30e856","{""num_scrambled_semantic"":""8"",""num_scrambled_causal"":""4"",""num_scrambled_schematic"":""4"",""participantId"":""49E1F7CBD56F4A70A8905D4966AF6BB8"",""assignmentId"":""0198be2d-6316-7d1f-ac30-e5193f0059fe"",""projectId"":""0198be1d-574a-752e-ae53-1d263a30e856""}","https://test12345.live/?num_scrambled_semantic=8&num_scrambled_causal=4&num_scrambled_schematic=4&participantId=49E1F7CBD56F4A70A8905D4966AF6BB8&assignmentId=0198be2d-6316-7d1f-ac30-e5193f0059fe&projectId=0198be1d-574a-752e-ae53-1d263a30e856","49E1F7CBD56F4A70A8905D4966AF6BB8-2025-08-18-18-12-44","","2394","","images/causal_sequence/dog_causal/dog_causal_5.png","0","",""
"","","","","","image-button-response","27","758098","0.0-10.0-1.0-2.0","49E1F7CBD56F4A70A8905D4966AF6BB8","49E1F7CBD56F4A70A8905D4966AF6BB8","0198be2d-6316-7d1f-ac30-e5193f0059fe","0198be1d-574a-752e-ae53-1d263a30e856","{""num_scrambled_semantic"":""8"",""num_scrambled_causal"":""4"",""num_scrambled_schematic"":""4"",""participantId"":""49E1F7CBD56F4A70A8905D4966AF6BB8"",""assignmentId"":""0198be2d-6316-7d1f-ac30-e5193f0059fe"",""projectId"":""0198be1d-574a-752e-ae53-1d263a30e856""}","https://test12345.live/?num_scrambled_semantic=8&num_scrambled_causal=4&num_scrambled_schematic=4&participantId=49E1F7CBD56F4A70A8905D4966AF6BB8&assignmentId=0198be2d-6316-7d1f-ac30-e5193f0059fe&projectId=0198be1d-574a-752e-ae53-1d263a30e856","49E1F7CBD56F4A70A8905D4966AF6BB8-2025-08-18-18-12-44","","null","","[]","null","",""
"","","","","","image-button-response","28","762618","0.0-10.0-1.0-0.1","49E1F7CBD56F4A70A8905D4966AF6BB8","49E1F7CBD56F4A70A8905D4966AF6BB8","0198be2d-6316-7d1f-ac30-e5193f0059fe","0198be1d-574a-752e-ae53-1d263a30e856","{""num_scrambled_semantic"":""8"",""num_scrambled_causal"":""4"",""num_scrambled_schematic"":""4"",""participantId"":""49E1F7CBD56F4A70A8905D4966AF6BB8"",""assignmentId"":""0198be2d-6316-7d1f-ac30-e5193f0059fe"",""projectId"":""0198be1d-574a-752e-ae53-1d263a30e856""}","https://test12345.live/?num_scrambled_semantic=8&num_scrambled_causal=4&num_scrambled_schematic=4&participantId=49E1F7CBD56F4A70A8905D4966AF6BB8&assignmentId=0198be2d-6316-7d1f-ac30-e5193f0059fe&projectId=0198be1d-574a-752e-ae53-1d263a30e856","49E1F7CBD56F4A70A8905D4966AF6BB8-2025-08-18-18-12-44","","null","","images/causal_sequence/dog_causal/dog_causal_2.png","null","",""
"","","","","","image-button-response","29","764695","0.0-10.0-1.0-1.1","49E1F7CBD56F4A70A8905D4966AF6BB8","49E1F7CBD56F4A70A8905D4966AF6BB8","0198be2d-6316-7d1f-ac30-e5193f0059fe","0198be1d-574a-752e-ae53-1d263a30e856","{""num_scrambled_semantic"":""8"",""num_scrambled_causal"":""4"",""num_scrambled_schematic"":""4"",""participantId"":""49E1F7CBD56F4A70A8905D4966AF6BB8"",""assignmentId"":""0198be2d-6316-7d1f-ac30-e5193f0059fe"",""projectId"":""0198be1d-574a-752e-ae53-1d263a30e856""}","https://test12345.live/?num_scrambled_semantic=8&num_scrambled_causal=4&num_scrambled_schematic=4&participantId=49E1F7CBD56F4A70A8905D4966AF6BB8&assignmentId=0198be2d-6316-7d1f-ac30-e5193f0059fe&projectId=0198be1d-574a-752e-ae53-1d263a30e856","49E1F7CBD56F4A70A8905D4966AF6BB8-2025-08-18-18-12-44","","2074","","images/causal_sequence/dog_causal/dog_causal_2.png","0","",""
"","","","","","image-button-response","30","775508","0.0-10.0-1.0-2.1","49E1F7CBD56F4A70A8905D4966AF6BB8","49E1F7CBD56F4A70A8905D4966AF6BB8","0198be2d-6316-7d1f-ac30-e5193f0059fe","0198be1d-574a-752e-ae53-1d263a30e856","{""num_scrambled_semantic"":""8"",""num_scrambled_causal"":""4"",""num_scrambled_schematic"":""4"",""participantId"":""49E1F7CBD56F4A70A8905D4966AF6BB8"",""assignmentId"":""0198be2d-6316-7d1f-ac30-e5193f0059fe"",""projectId"":""0198be1d-574a-752e-ae53-1d263a30e856""}","https://test12345.live/?num_scrambled_semantic=8&num_scrambled_causal=4&num_scrambled_schematic=4&participantId=49E1F7CBD56F4A70A8905D4966AF6BB8&assignmentId=0198be2d-6316-7d1f-ac30-e5193f0059fe&projectId=0198be1d-574a-752e-ae53-1d263a30e856","49E1F7CBD56F4A70A8905D4966AF6BB8-2025-08-18-18-12-44","","null","","[]","null","",""
"","","","","","image-button-response","31","780018","0.0-10.0-1.0-0.2","49E1F7CBD56F4A70A8905D4966AF6BB8","49E1F7CBD56F4A70A8905D4966AF6BB8","0198be2d-6316-7d1f-ac30-e5193f0059fe","0198be1d-574a-752e-ae53-1d263a30e856","{""num_scrambled_semantic"":""8"",""num_scrambled_causal"":""4"",""num_scrambled_schematic"":""4"",""participantId"":""49E1F7CBD56F4A70A8905D4966AF6BB8"",""assignmentId"":""0198be2d-6316-7d1f-ac30-e5193f0059fe"",""projectId"":""0198be1d-574a-752e-ae53-1d263a30e856""}","https://test12345.live/?num_scrambled_semantic=8&num_scrambled_causal=4&num_scrambled_schematic=4&participantId=49E1F7CBD56F4A70A8905D4966AF6BB8&assignmentId=0198be2d-6316-7d1f-ac30-e5193f0059fe&projectId=0198be1d-574a-752e-ae53-1d263a30e856","49E1F7CBD56F4A70A8905D4966AF6BB8-2025-08-18-18-12-44","","null","","images/causal_sequence/dog_causal/dog_causal_7.png","null","",""
"","","","","","image-button-response","32","781208","0.0-10.0-1.0-1.2","49E1F7CBD56F4A70A8905D4966AF6BB8","49E1F7CBD56F4A70A8905D4966AF6BB8","0198be2d-6316-7d1f-ac30-e5193f0059fe","0198be1d-574a-752e-ae53-1d263a30e856","{""num_scrambled_semantic"":""8"",""num_scrambled_causal"":""4"",""num_scrambled_schematic"":""4"",""participantId"":""49E1F7CBD56F4A70A8905D4966AF6BB8"",""assignmentId"":""0198be2d-6316-7d1f-ac30-e5193f0059fe"",""projectId"":""0198be1d-574a-752e-ae53-1d263a30e856""}","https://test12345.live/?num_scrambled_semantic=8&num_scrambled_causal=4&num_scrambled_schematic=4&participantId=49E1F7CBD56F4A70A8905D4966AF6BB8&assignmentId=0198be2d-6316-7d1f-ac30-e5193f0059fe&projectId=0198be1d-574a-752e-ae53-1d263a30e856","49E1F7CBD56F4A70A8905D4966AF6BB8-2025-08-18-18-12-44","","1187","","images/causal_sequence/dog_causal/dog_causal_7.png","0","",""
"","","","","","image-button-response","33","792018","0.0-10.0-1.0-2.2","49E1F7CBD56F4A70A8905D4966AF6BB8","49E1F7CBD56F4A70A8905D4966AF6BB8","0198be2d-6316-7d1f-ac30-e5193f0059fe","0198be1d-574a-752e-ae53-1d263a30e856","{""num_scrambled_semantic"":""8"",""num_scrambled_causal"":""4"",""num_scrambled_schematic"":""4"",""participantId"":""49E1F7CBD56F4A70A8905D4966AF6BB8"",""assignmentId"":""0198be2d-6316-7d1f-ac30-e5193f0059fe"",""projectId"":""0198be1d-574a-752e-ae53-1d263a30e856""}","https://test12345.live/?num_scrambled_semantic=8&num_scrambled_causal=4&num_scrambled_schematic=4&participantId=49E1F7CBD56F4A70A8905D4966AF6BB8&assignmentId=0198be2d-6316-7d1f-ac30-e5193f0059fe&projectId=0198be1d-574a-752e-ae53-1d263a30e856","49E1F7CBD56F4A70A8905D4966AF6BB8-2025-08-18-18-12-44","","null","","[]","null","",""
"","","","","","image-button-response","34","796528","0.0-10.0-1.0-0.3","49E1F7CBD56F4A70A8905D4966AF6BB8","49E1F7CBD56F4A70A8905D4966AF6BB8","0198be2d-6316-7d1f-ac30-e5193f0059fe","0198be1d-574a-752e-ae53-1d263a30e856","{""num_scrambled_semantic"":""8"",""num_scrambled_causal"":""4"",""num_scrambled_schematic"":""4"",""participantId"":""49E1F7CBD56F4A70A8905D4966AF6BB8"",""assignmentId"":""0198be2d-6316-7d1f-ac30-e5193f0059fe"",""projectId"":""0198be1d-574a-752e-ae53-1d263a30e856""}","https://test12345.live/?num_scrambled_semantic=8&num_scrambled_causal=4&num_scrambled_schematic=4&participantId=49E1F7CBD56F4A70A8905D4966AF6BB8&assignmentId=0198be2d-6316-7d1f-ac30-e5193f0059fe&projectId=0198be1d-574a-752e-ae53-1d263a30e856","49E1F7CBD56F4A70A8905D4966AF6BB8-2025-08-18-18-12-44","","null","","images/causal_sequence/dog_causal/dog_causal_9.png","null","",""
"","","","","","image-button-response","35","798839","0.0-10.0-1.0-1.3","49E1F7CBD56F4A70A8905D4966AF6BB8","49E1F7CBD56F4A70A8905D4966AF6BB8","0198be2d-6316-7d1f-ac30-e5193f0059fe","0198be1d-574a-752e-ae53-1d263a30e856","{""num_scrambled_semantic"":""8"",""num_scrambled_causal"":""4"",""num_scrambled_schematic"":""4"",""participantId"":""49E1F7CBD56F4A70A8905D4966AF6BB8"",""assignmentId"":""0198be2d-6316-7d1f-ac30-e5193f0059fe"",""projectId"":""0198be1d-574a-752e-ae53-1d263a30e856""}","https://test12345.live/?num_scrambled_semantic=8&num_scrambled_causal=4&num_scrambled_schematic=4&participantId=49E1F7CBD56F4A70A8905D4966AF6BB8&assignmentId=0198be2d-6316-7d1f-ac30-e5193f0059fe&projectId=0198be1d-574a-752e-ae53-1d263a30e856","49E1F7CBD56F4A70A8905D4966AF6BB8-2025-08-18-18-12-44","","2308","","images/causal_sequence/dog_causal/dog_causal_9.png","0","",""
"","","","","","image-button-response","36","809648","0.0-10.0-1.0-2.3","49E1F7CBD56F4A70A8905D4966AF6BB8","49E1F7CBD56F4A70A8905D4966AF6BB8","0198be2d-6316-7d1f-ac30-e5193f0059fe","0198be1d-574a-752e-ae53-1d263a30e856","{""num_scrambled_semantic"":""8"",""num_scrambled_causal"":""4"",""num_scrambled_schematic"":""4"",""participantId"":""49E1F7CBD56F4A70A8905D4966AF6BB8"",""assignmentId"":""0198be2d-6316-7d1f-ac30-e5193f0059fe"",""projectId"":""0198be1d-574a-752e-ae53-1d263a30e856""}","https://test12345.live/?num_scrambled_semantic=8&num_scrambled_causal=4&num_scrambled_schematic=4&participantId=49E1F7CBD56F4A70A8905D4966AF6BB8&assignmentId=0198be2d-6316-7d1f-ac30-e5193f0059fe&projectId=0198be1d-574a-752e-ae53-1d263a30e856","49E1F7CBD56F4A70A8905D4966AF6BB8-2025-08-18-18-12-44","","null","","[]","null","",""
"","","","","","image-button-response","37","814168","0.0-10.0-1.0-0.4","49E1F7CBD56F4A70A8905D4966AF6BB8","49E1F7CBD56F4A70A8905D4966AF6BB8","0198be2d-6316-7d1f-ac30-e5193f0059fe","0198be1d-574a-752e-ae53-1d263a30e856","{""num_scrambled_semantic"":""8"",""num_scrambled_causal"":""4"",""num_scrambled_schematic"":""4"",""participantId"":""49E1F7CBD56F4A70A8905D4966AF6BB8"",""assignmentId"":""0198be2d-6316-7d1f-ac30-e5193f0059fe"",""projectId"":""0198be1d-574a-752e-ae53-1d263a30e856""}","https://test12345.live/?num_scrambled_semantic=8&num_scrambled_causal=4&num_scrambled_schematic=4&participantId=49E1F7CBD56F4A70A8905D4966AF6BB8&assignmentId=0198be2d-6316-7d1f-ac30-e5193f0059fe&projectId=0198be1d-574a-752e-ae53-1d263a30e856","49E1F7CBD56F4A70A8905D4966AF6BB8-2025-08-18-18-12-44","","null","","images/causal_sequence/dog_causal/dog_causal_1.png","null","",""
"","","","","","image-button-response","38","818188","0.0-10.0-1.0-1.4","49E1F7CBD56F4A70A8905D4966AF6BB8","49E1F7CBD56F4A70A8905D4966AF6BB8","0198be2d-6316-7d1f-ac30-e5193f0059fe","0198be1d-574a-752e-ae53-1d263a30e856","{""num_scrambled_semantic"":""8"",""num_scrambled_causal"":""4"",""num_scrambled_schematic"":""4"",""participantId"":""49E1F7CBD56F4A70A8905D4966AF6BB8"",""assignmentId"":""0198be2d-6316-7d1f-ac30-e5193f0059fe"",""projectId"":""0198be1d-574a-752e-ae53-1d263a30e856""}","https://test12345.live/?num_scrambled_semantic=8&num_scrambled_causal=4&num_scrambled_schematic=4&participantId=49E1F7CBD56F4A70A8905D4966AF6BB8&assignmentId=0198be2d-6316-7d1f-ac30-e5193f0059fe&projectId=0198be1d-574a-752e-ae53-1d263a30e856","49E1F7CBD56F4A70A8905D4966AF6BB8-2025-08-18-18-12-44","","null","","images/causal_sequence/dog_causal/dog_causal_1.png","null","",""
"","","","","","image-button-response","39","828998","0.0-10.0-1.0-2.4","49E1F7CBD56F4A70A8905D4966AF6BB8","49E1F7CBD56F4A70A8905D4966AF6BB8","0198be2d-6316-7d1f-ac30-e5193f0059fe","0198be1d-574a-752e-ae53-1d263a30e856","{""num_scrambled_semantic"":""8"",""num_scrambled_causal"":""4"",""num_scrambled_schematic"":""4"",""participantId"":""49E1F7CBD56F4A70A8905D4966AF6BB8"",""assignmentId"":""0198be2d-6316-7d1f-ac30-e5193f0059fe"",""projectId"":""0198be1d-574a-752e-ae53-1d263a30e856""}","https://test12345.live/?num_scrambled_semantic=8&num_scrambled_causal=4&num_scrambled_schematic=4&participantId=49E1F7CBD56F4A70A8905D4966AF6BB8&assignmentId=0198be2d-6316-7d1f-ac30-e5193f0059fe&projectId=0198be1d-574a-752e-ae53-1d263a30e856","49E1F7CBD56F4A70A8905D4966AF6BB8-2025-08-18-18-12-44","","null","","[]","null","",""
"","","","","","image-button-response","40","833508","0.0-10.0-1.0-0.5","49E1F7CBD56F4A70A8905D4966AF6BB8","49E1F7CBD56F4A70A8905D4966AF6BB8","0198be2d-6316-7d1f-ac30-e5193f0059fe","0198be1d-574a-752e-ae53-1d263a30e856","{""num_scrambled_semantic"":""8"",""num_scrambled_causal"":""4"",""num_scrambled_schematic"":""4"",""participantId"":""49E1F7CBD56F4A70A8905D4966AF6BB8"",""assignmentId"":""0198be2d-6316-7d1f-ac30-e5193f0059fe"",""projectId"":""0198be1d-574a-752e-ae53-1d263a30e856""}","https://test12345.live/?num_scrambled_semantic=8&num_scrambled_causal=4&num_scrambled_schematic=4&participantId=49E1F7CBD56F4A70A8905D4966AF6BB8&assignmentId=0198be2d-6316-7d1f-ac30-e5193f0059fe&projectId=0198be1d-574a-752e-ae53-1d263a30e856","49E1F7CBD56F4A70A8905D4966AF6BB8-2025-08-18-18-12-44","","null","","images/causal_sequence/dog_causal/dog_causal_ten.png","null","",""
"","","","","","image-button-response","41","834907","0.0-10.0-1.0-1.5","49E1F7CBD56F4A70A8905D4966AF6BB8","49E1F7CBD56F4A70A8905D4966AF6BB8","0198be2d-6316-7d1f-ac30-e5193f0059fe","0198be1d-574a-752e-ae53-1d263a30e856","{""num_scrambled_semantic"":""8"",""num_scrambled_causal"":""4"",""num_scrambled_schematic"":""4"",""participantId"":""49E1F7CBD56F4A70A8905D4966AF6BB8"",""assignmentId"":""0198be2d-6316-7d1f-ac30-e5193f0059fe"",""projectId"":""0198be1d-574a-752e-ae53-1d263a30e856""}","https://test12345.live/?num_scrambled_semantic=8&num_scrambled_causal=4&num_scrambled_schematic=4&participantId=49E1F7CBD56F4A70A8905D4966AF6BB8&assignmentId=0198be2d-6316-7d1f-ac30-e5193f0059fe&projectId=0198be1d-574a-752e-ae53-1d263a30e856","49E1F7CBD56F4A70A8905D4966AF6BB8-2025-08-18-18-12-44","","1396","","images/causal_sequence/dog_causal/dog_causal_ten.png","0","",""
"","","","","","image-button-response","42","845729","0.0-10.0-1.0-2.5","49E1F7CBD56F4A70A8905D4966AF6BB8","49E1F7CBD56F4A70A8905D4966AF6BB8","0198be2d-6316-7d1f-ac30-e5193f0059fe","0198be1d-574a-752e-ae53-1d263a30e856","{""num_scrambled_semantic"":""8"",""num_scrambled_causal"":""4"",""num_scrambled_schematic"":""4"",""participantId"":""49E1F7CBD56F4A70A8905D4966AF6BB8"",""assignmentId"":""0198be2d-6316-7d1f-ac30-e5193f0059fe"",""projectId"":""0198be1d-574a-752e-ae53-1d263a30e856""}","https://test12345.live/?num_scrambled_semantic=8&num_scrambled_causal=4&num_scrambled_schematic=4&participantId=49E1F7CBD56F4A70A8905D4966AF6BB8&assignmentId=0198be2d-6316-7d1f-ac30-e5193f0059fe&projectId=0198be1d-574a-752e-ae53-1d263a30e856","49E1F7CBD56F4A70A8905D4966AF6BB8-2025-08-18-18-12-44","","null","","[]","null","",""
"","","","","","image-button-response","43","850238","0.0-10.0-1.0-0.6","49E1F7CBD56F4A70A8905D4966AF6BB8","49E1F7CBD56F4A70A8905D4966AF6BB8","0198be2d-6316-7d1f-ac30-e5193f0059fe","0198be1d-574a-752e-ae53-1d263a30e856","{""num_scrambled_semantic"":""8"",""num_scrambled_causal"":""4"",""num_scrambled_schematic"":""4"",""participantId"":""49E1F7CBD56F4A70A8905D4966AF6BB8"",""assignmentId"":""0198be2d-6316-7d1f-ac30-e5193f0059fe"",""projectId"":""0198be1d-574a-752e-ae53-1d263a30e856""}","https://test12345.live/?num_scrambled_semantic=8&num_scrambled_causal=4&num_scrambled_schematic=4&participantId=49E1F7CBD56F4A70A8905D4966AF6BB8&assignmentId=0198be2d-6316-7d1f-ac30-e5193f0059fe&projectId=0198be1d-574a-752e-ae53-1d263a30e856","49E1F7CBD56F4A70A8905D4966AF6BB8-2025-08-18-18-12-44","","null","","images/causal_sequence/dog_causal/dog_causal_6.png","null","",""
"","","","","","image-button-response","44","852175","0.0-10.0-1.0-1.6","49E1F7CBD56F4A70A8905D4966AF6BB8","49E1F7CBD56F4A70A8905D4966AF6BB8","0198be2d-6316-7d1f-ac30-e5193f0059fe","0198be1d-574a-752e-ae53-1d263a30e856","{""num_scrambled_semantic"":""8"",""num_scrambled_causal"":""4"",""num_scrambled_schematic"":""4"",""participantId"":""49E1F7CBD56F4A70A8905D4966AF6BB8"",""assignmentId"":""0198be2d-6316-7d1f-ac30-e5193f0059fe"",""projectId"":""0198be1d-574a-752e-ae53-1d263a30e856""}","https://test12345.live/?num_scrambled_semantic=8&num_scrambled_causal=4&num_scrambled_schematic=4&participantId=49E1F7CBD56F4A70A8905D4966AF6BB8&assignmentId=0198be2d-6316-7d1f-ac30-e5193f0059fe&projectId=0198be1d-574a-752e-ae53-1d263a30e856","49E1F7CBD56F4A70A8905D4966AF6BB8-2025-08-18-18-12-44","","1934","","images/causal_sequence/dog_causal/dog_causal_6.png","0","",""
"","","","","","image-button-response","45","862988","0.0-10.0-1.0-2.6","49E1F7CBD56F4A70A8905D4966AF6BB8","49E1F7CBD56F4A70A8905D4966AF6BB8","0198be2d-6316-7d1f-ac30-e5193f0059fe","0198be1d-574a-752e-ae53-1d263a30e856","{""num_scrambled_semantic"":""8"",""num_scrambled_causal"":""4"",""num_scrambled_schematic"":""4"",""participantId"":""49E1F7CBD56F4A70A8905D4966AF6BB8"",""assignmentId"":""0198be2d-6316-7d1f-ac30-e5193f0059fe"",""projectId"":""0198be1d-574a-752e-ae53-1d263a30e856""}","https://test12345.live/?num_scrambled_semantic=8&num_scrambled_causal=4&num_scrambled_schematic=4&participantId=49E1F7CBD56F4A70A8905D4966AF6BB8&assignmentId=0198be2d-6316-7d1f-ac30-e5193f0059fe&projectId=0198be1d-574a-752e-ae53-1d263a30e856","49E1F7CBD56F4A70A8905D4966AF6BB8-2025-08-18-18-12-44","","null","","[]","null","",""
"","","","","","image-button-response","46","867498","0.0-10.0-1.0-0.7","49E1F7CBD56F4A70A8905D4966AF6BB8","49E1F7CBD56F4A70A8905D4966AF6BB8","0198be2d-6316-7d1f-ac30-e5193f0059fe","0198be1d-574a-752e-ae53-1d263a30e856","{""num_scrambled_semantic"":""8"",""num_scrambled_causal"":""4"",""num_scrambled_schematic"":""4"",""participantId"":""49E1F7CBD56F4A70A8905D4966AF6BB8"",""assignmentId"":""0198be2d-6316-7d1f-ac30-e5193f0059fe"",""projectId"":""0198be1d-574a-752e-ae53-1d263a30e856""}","https://test12345.live/?num_scrambled_semantic=8&num_scrambled_causal=4&num_scrambled_schematic=4&participantId=49E1F7CBD56F4A70A8905D4966AF6BB8&assignmentId=0198be2d-6316-7d1f-ac30-e5193f0059fe&projectId=0198be1d-574a-752e-ae53-1d263a30e856","49E1F7CBD56F4A70A8905D4966AF6BB8-2025-08-18-18-12-44","","null","","images/causal_sequence/dog_causal/dog_causal_8.png","null","",""
"","","","","","image-button-response","47","868509","0.0-10.0-1.0-1.7","49E1F7CBD56F4A70A8905D4966AF6BB8","49E1F7CBD56F4A70A8905D4966AF6BB8","0198be2d-6316-7d1f-ac30-e5193f0059fe","0198be1d-574a-752e-ae53-1d263a30e856","{""num_scrambled_semantic"":""8"",""num_scrambled_causal"":""4"",""num_scrambled_schematic"":""4"",""participantId"":""49E1F7CBD56F4A70A8905D4966AF6BB8"",""assignmentId"":""0198be2d-6316-7d1f-ac30-e5193f0059fe"",""projectId"":""0198be1d-574a-752e-ae53-1d263a30e856""}","https://test12345.live/?num_scrambled_semantic=8&num_scrambled_causal=4&num_scrambled_schematic=4&participantId=49E1F7CBD56F4A70A8905D4966AF6BB8&assignmentId=0198be2d-6316-7d1f-ac30-e5193f0059fe&projectId=0198be1d-574a-752e-ae53-1d263a30e856","49E1F7CBD56F4A70A8905D4966AF6BB8-2025-08-18-18-12-44","","1008","","images/causal_sequence/dog_causal/dog_causal_8.png","0","",""
"","","","","","image-button-response","48","879318","0.0-10.0-1.0-2.7","49E1F7CBD56F4A70A8905D4966AF6BB8","49E1F7CBD56F4A70A8905D4966AF6BB8","0198be2d-6316-7d1f-ac30-e5193f0059fe","0198be1d-574a-752e-ae53-1d263a30e856","{""num_scrambled_semantic"":""8"",""num_scrambled_causal"":""4"",""num_scrambled_schematic"":""4"",""participantId"":""49E1F7CBD56F4A70A8905D4966AF6BB8"",""assignmentId"":""0198be2d-6316-7d1f-ac30-e5193f0059fe"",""projectId"":""0198be1d-574a-752e-ae53-1d263a30e856""}","https://test12345.live/?num_scrambled_semantic=8&num_scrambled_causal=4&num_scrambled_schematic=4&participantId=49E1F7CBD56F4A70A8905D4966AF6BB8&assignmentId=0198be2d-6316-7d1f-ac30-e5193f0059fe&projectId=0198be1d-574a-752e-ae53-1d263a30e856","49E1F7CBD56F4A70A8905D4966AF6BB8-2025-08-18-18-12-44","","null","","[]","null","",""
"","","","","","image-button-response","49","883828","0.0-10.0-1.0-0.8","49E1F7CBD56F4A70A8905D4966AF6BB8","49E1F7CBD56F4A70A8905D4966AF6BB8","0198be2d-6316-7d1f-ac30-e5193f0059fe","0198be1d-574a-752e-ae53-1d263a30e856","{""num_scrambled_semantic"":""8"",""num_scrambled_causal"":""4"",""num_scrambled_schematic"":""4"",""participantId"":""49E1F7CBD56F4A70A8905D4966AF6BB8"",""assignmentId"":""0198be2d-6316-7d1f-ac30-e5193f0059fe"",""projectId"":""0198be1d-574a-752e-ae53-1d263a30e856""}","https://test12345.live/?num_scrambled_semantic=8&num_scrambled_causal=4&num_scrambled_schematic=4&participantId=49E1F7CBD56F4A70A8905D4966AF6BB8&assignmentId=0198be2d-6316-7d1f-ac30-e5193f0059fe&projectId=0198be1d-574a-752e-ae53-1d263a30e856","49E1F7CBD56F4A70A8905D4966AF6BB8-2025-08-18-18-12-44","","null","","images/causal_sequence/dog_causal/dog_causal_4.png","null","",""
"","","","","","image-button-response","50","884847","0.0-10.0-1.0-1.8","49E1F7CBD56F4A70A8905D4966AF6BB8","49E1F7CBD56F4A70A8905D4966AF6BB8","0198be2d-6316-7d1f-ac30-e5193f0059fe","0198be1d-574a-752e-ae53-1d263a30e856","{""num_scrambled_semantic"":""8"",""num_scrambled_causal"":""4"",""num_scrambled_schematic"":""4"",""participantId"":""49E1F7CBD56F4A70A8905D4966AF6BB8"",""assignmentId"":""0198be2d-6316-7d1f-ac30-e5193f0059fe"",""projectId"":""0198be1d-574a-752e-ae53-1d263a30e856""}","https://test12345.live/?num_scrambled_semantic=8&num_scrambled_causal=4&num_scrambled_schematic=4&participantId=49E1F7CBD56F4A70A8905D4966AF6BB8&assignmentId=0198be2d-6316-7d1f-ac30-e5193f0059fe&projectId=0198be1d-574a-752e-ae53-1d263a30e856","49E1F7CBD56F4A70A8905D4966AF6BB8-2025-08-18-18-12-44","","1016","","images/causal_sequence/dog_causal/dog_causal_4.png","0","",""
"","","","","","image-button-response","51","895668","0.0-10.0-1.0-2.8","49E1F7CBD56F4A70A8905D4966AF6BB8","49E1F7CBD56F4A70A8905D4966AF6BB8","0198be2d-6316-7d1f-ac30-e5193f0059fe","0198be1d-574a-752e-ae53-1d263a30e856","{""num_scrambled_semantic"":""8"",""num_scrambled_causal"":""4"",""num_scrambled_schematic"":""4"",""participantId"":""49E1F7CBD56F4A70A8905D4966AF6BB8"",""assignmentId"":""0198be2d-6316-7d1f-ac30-e5193f0059fe"",""projectId"":""0198be1d-574a-752e-ae53-1d263a30e856""}","https://test12345.live/?num_scrambled_semantic=8&num_scrambled_causal=4&num_scrambled_schematic=4&participantId=49E1F7CBD56F4A70A8905D4966AF6BB8&assignmentId=0198be2d-6316-7d1f-ac30-e5193f0059fe&projectId=0198be1d-574a-752e-ae53-1d263a30e856","49E1F7CBD56F4A70A8905D4966AF6BB8-2025-08-18-18-12-44","","null","","[]","null","",""
"","","","","","image-button-response","52","900179","0.0-10.0-1.0-0.9","49E1F7CBD56F4A70A8905D4966AF6BB8","49E1F7CBD56F4A70A8905D4966AF6BB8","0198be2d-6316-7d1f-ac30-e5193f0059fe","0198be1d-574a-752e-ae53-1d263a30e856","{""num_scrambled_semantic"":""8"",""num_scrambled_causal"":""4"",""num_scrambled_schematic"":""4"",""participantId"":""49E1F7CBD56F4A70A8905D4966AF6BB8"",""assignmentId"":""0198be2d-6316-7d1f-ac30-e5193f0059fe"",""projectId"":""0198be1d-574a-752e-ae53-1d263a30e856""}","https://test12345.live/?num_scrambled_semantic=8&num_scrambled_causal=4&num_scrambled_schematic=4&participantId=49E1F7CBD56F4A70A8905D4966AF6BB8&assignmentId=0198be2d-6316-7d1f-ac30-e5193f0059fe&projectId=0198be1d-574a-752e-ae53-1d263a30e856","49E1F7CBD56F4A70A8905D4966AF6BB8-2025-08-18-18-12-44","","null","","images/causal_sequence/dog_causal/dog_causal_3.png","null","",""
"","","","","","image-button-response","53","901365","0.0-10.0-1.0-1.9","49E1F7CBD56F4A70A8905D4966AF6BB8","49E1F7CBD56F4A70A8905D4966AF6BB8","0198be2d-6316-7d1f-ac30-e5193f0059fe","0198be1d-574a-752e-ae53-1d263a30e856","{""num_scrambled_semantic"":""8"",""num_scrambled_causal"":""4"",""num_scrambled_schematic"":""4"",""participantId"":""49E1F7CBD56F4A70A8905D4966AF6BB8"",""assignmentId"":""0198be2d-6316-7d1f-ac30-e5193f0059fe"",""projectId"":""0198be1d-574a-752e-ae53-1d263a30e856""}","https://test12345.live/?num_scrambled_semantic=8&num_scrambled_causal=4&num_scrambled_schematic=4&participantId=49E1F7CBD56F4A70A8905D4966AF6BB8&assignmentId=0198be2d-6316-7d1f-ac30-e5193f0059fe&projectId=0198be1d-574a-752e-ae53-1d263a30e856","49E1F7CBD56F4A70A8905D4966AF6BB8-2025-08-18-18-12-44","","1184","","images/causal_sequence/dog_causal/dog_causal_3.png","0","",""
"","","","","","image-button-response","54","912168","0.0-10.0-1.0-2.9","49E1F7CBD56F4A70A8905D4966AF6BB8","49E1F7CBD56F4A70A8905D4966AF6BB8","0198be2d-6316-7d1f-ac30-e5193f0059fe","0198be1d-574a-752e-ae53-1d263a30e856","{""num_scrambled_semantic"":""8"",""num_scrambled_causal"":""4"",""num_scrambled_schematic"":""4"",""participantId"":""49E1F7CBD56F4A70A8905D4966AF6BB8"",""assignmentId"":""0198be2d-6316-7d1f-ac30-e5193f0059fe"",""projectId"":""0198be1d-574a-752e-ae53-1d263a30e856""}","https://test12345.live/?num_scrambled_semantic=8&num_scrambled_causal=4&num_scrambled_schematic=4&participantId=49E1F7CBD56F4A70A8905D4966AF6BB8&assignmentId=0198be2d-6316-7d1f-ac30-e5193f0059fe&projectId=0198be1d-574a-752e-ae53-1d263a30e856","49E1F7CBD56F4A70A8905D4966AF6BB8-2025-08-18-18-12-44","","null","","[]","null","",""
"","","","","","html-audio-response","55","1156160","0.0-11.0","49E1F7CBD56F4A70A8905D4966AF6BB8","49E1F7CBD56F4A70A8905D4966AF6BB8","0198be2d-6316-7d1f-ac30-e5193f0059fe","0198be1d-574a-752e-ae53-1d263a30e856","{""num_scrambled_semantic"":""8"",""num_scrambled_causal"":""4"",""num_scrambled_schematic"":""4"",""participantId"":""49E1F7CBD56F4A70A8905D4966AF6BB8"",""assignmentId"":""0198be2d-6316-7d1f-ac30-e5193f0059fe"",""projectId"":""0198be1d-574a-752e-ae53-1d263a30e856""}","https://test12345.live/?num_scrambled_semantic=8&num_scrambled_causal=4&num_scrambled_schematic=4&participantId=49E1F7CBD56F4A70A8905D4966AF6BB8&assignmentId=0198be2d-6316-7d1f-ac30-e5193f0059fe&projectId=0198be1d-574a-752e-ae53-1d263a30e856","49E1F7CBD56F4A70A8905D4966AF6BB8-2025-08-18-18-12-44","","46850","","[""<span style=\""color: red; font-size: 24px\""> NOW RECORDING</span><p>Please say out loud all the images you saw, in the exact order you saw them. Try to recall as many images as you can, but remember: getting the order right is more important than the number of images you recall.</p>""]","","5","dog_causal"
"","","","","","image-button-response","56","1162248","0.0-12.0-0.0","49E1F7CBD56F4A70A8905D4966AF6BB8","49E1F7CBD56F4A70A8905D4966AF6BB8","0198be2d-6316-7d1f-ac30-e5193f0059fe","0198be1d-574a-752e-ae53-1d263a30e856","{""num_scrambled_semantic"":""8"",""num_scrambled_causal"":""4"",""num_scrambled_schematic"":""4"",""participantId"":""49E1F7CBD56F4A70A8905D4966AF6BB8"",""assignmentId"":""0198be2d-6316-7d1f-ac30-e5193f0059fe"",""projectId"":""0198be1d-574a-752e-ae53-1d263a30e856""}","https://test12345.live/?num_scrambled_semantic=8&num_scrambled_causal=4&num_scrambled_schematic=4&participantId=49E1F7CBD56F4A70A8905D4966AF6BB8&assignmentId=0198be2d-6316-7d1f-ac30-e5193f0059fe&projectId=0198be1d-574a-752e-ae53-1d263a30e856","49E1F7CBD56F4A70A8905D4966AF6BB8-2025-08-18-18-12-44","","null","","images/semantic_sequence/physical_activity_semantic/physical_activity_semantic_0.png","null","",""
"","","","","","image-button-response","57","1166759","0.0-12.0-1.0-0.0","49E1F7CBD56F4A70A8905D4966AF6BB8","49E1F7CBD56F4A70A8905D4966AF6BB8","0198be2d-6316-7d1f-ac30-e5193f0059fe","0198be1d-574a-752e-ae53-1d263a30e856","{""num_scrambled_semantic"":""8"",""num_scrambled_causal"":""4"",""num_scrambled_schematic"":""4"",""participantId"":""49E1F7CBD56F4A70A8905D4966AF6BB8"",""assignmentId"":""0198be2d-6316-7d1f-ac30-e5193f0059fe"",""projectId"":""0198be1d-574a-752e-ae53-1d263a30e856""}","https://test12345.live/?num_scrambled_semantic=8&num_scrambled_causal=4&num_scrambled_schematic=4&participantId=49E1F7CBD56F4A70A8905D4966AF6BB8&assignmentId=0198be2d-6316-7d1f-ac30-e5193f0059fe&projectId=0198be1d-574a-752e-ae53-1d263a30e856","49E1F7CBD56F4A70A8905D4966AF6BB8-2025-08-18-18-12-44","","null","","images/semantic_sequence/physical_activity_semantic/physical_activity_semantic_1.png","null","",""
"","","","","","image-button-response","58","1167776","0.0-12.0-1.0-1.0","49E1F7CBD56F4A70A8905D4966AF6BB8","49E1F7CBD56F4A70A8905D4966AF6BB8","0198be2d-6316-7d1f-ac30-e5193f0059fe","0198be1d-574a-752e-ae53-1d263a30e856","{""num_scrambled_semantic"":""8"",""num_scrambled_causal"":""4"",""num_scrambled_schematic"":""4"",""participantId"":""49E1F7CBD56F4A70A8905D4966AF6BB8"",""assignmentId"":""0198be2d-6316-7d1f-ac30-e5193f0059fe"",""projectId"":""0198be1d-574a-752e-ae53-1d263a30e856""}","https://test12345.live/?num_scrambled_semantic=8&num_scrambled_causal=4&num_scrambled_schematic=4&participantId=49E1F7CBD56F4A70A8905D4966AF6BB8&assignmentId=0198be2d-6316-7d1f-ac30-e5193f0059fe&projectId=0198be1d-574a-752e-ae53-1d263a30e856","49E1F7CBD56F4A70A8905D4966AF6BB8-2025-08-18-18-12-44","","1014","","images/semantic_sequence/physical_activity_semantic/physical_activity_semantic_1.png","0","",""
"","","","","","image-button-response","59","1178598","0.0-12.0-1.0-2.0","49E1F7CBD56F4A70A8905D4966AF6BB8","49E1F7CBD56F4A70A8905D4966AF6BB8","0198be2d-6316-7d1f-ac30-e5193f0059fe","0198be1d-574a-752e-ae53-1d263a30e856","{""num_scrambled_semantic"":""8"",""num_scrambled_causal"":""4"",""num_scrambled_schematic"":""4"",""participantId"":""49E1F7CBD56F4A70A8905D4966AF6BB8"",""assignmentId"":""0198be2d-6316-7d1f-ac30-e5193f0059fe"",""projectId"":""0198be1d-574a-752e-ae53-1d263a30e856""}","https://test12345.live/?num_scrambled_semantic=8&num_scrambled_causal=4&num_scrambled_schematic=4&participantId=49E1F7CBD56F4A70A8905D4966AF6BB8&assignmentId=0198be2d-6316-7d1f-ac30-e5193f0059fe&projectId=0198be1d-574a-752e-ae53-1d263a30e856","49E1F7CBD56F4A70A8905D4966AF6BB8-2025-08-18-18-12-44","","null","","[]","null","",""
"","","","","","image-button-response","60","1183108","0.0-12.0-1.0-0.1","49E1F7CBD56F4A70A8905D4966AF6BB8","49E1F7CBD56F4A70A8905D4966AF6BB8","0198be2d-6316-7d1f-ac30-e5193f0059fe","0198be1d-574a-752e-ae53-1d263a30e856","{""num_scrambled_semantic"":""8"",""num_scrambled_causal"":""4"",""num_scrambled_schematic"":""4"",""participantId"":""49E1F7CBD56F4A70A8905D4966AF6BB8"",""assignmentId"":""0198be2d-6316-7d1f-ac30-e5193f0059fe"",""projectId"":""0198be1d-574a-752e-ae53-1d263a30e856""}","https://test12345.live/?num_scrambled_semantic=8&num_scrambled_causal=4&num_scrambled_schematic=4&participantId=49E1F7CBD56F4A70A8905D4966AF6BB8&assignmentId=0198be2d-6316-7d1f-ac30-e5193f0059fe&projectId=0198be1d-574a-752e-ae53-1d263a30e856","49E1F7CBD56F4A70A8905D4966AF6BB8-2025-08-18-18-12-44","","null","","images/semantic_sequence/physical_activity_semantic/physical_activity_semantic_ten.png","null","",""
"","","","","","image-button-response","61","1184557","0.0-12.0-1.0-1.1","49E1F7CBD56F4A70A8905D4966AF6BB8","49E1F7CBD56F4A70A8905D4966AF6BB8","0198be2d-6316-7d1f-ac30-e5193f0059fe","0198be1d-574a-752e-ae53-1d263a30e856","{""num_scrambled_semantic"":""8"",""num_scrambled_causal"":""4"",""num_scrambled_schematic"":""4"",""participantId"":""49E1F7CBD56F4A70A8905D4966AF6BB8"",""assignmentId"":""0198be2d-6316-7d1f-ac30-e5193f0059fe"",""projectId"":""0198be1d-574a-752e-ae53-1d263a30e856""}","https://test12345.live/?num_scrambled_semantic=8&num_scrambled_causal=4&num_scrambled_schematic=4&participantId=49E1F7CBD56F4A70A8905D4966AF6BB8&assignmentId=0198be2d-6316-7d1f-ac30-e5193f0059fe&projectId=0198be1d-574a-752e-ae53-1d263a30e856","49E1F7CBD56F4A70A8905D4966AF6BB8-2025-08-18-18-12-44","","1447","","images/semantic_sequence/physical_activity_semantic/physical_activity_semantic_ten.png","0","",""
"","","","","","image-button-response","62","1195368","0.0-12.0-1.0-2.1","49E1F7CBD56F4A70A8905D4966AF6BB8","49E1F7CBD56F4A70A8905D4966AF6BB8","0198be2d-6316-7d1f-ac30-e5193f0059fe","0198be1d-574a-752e-ae53-1d263a30e856","{""num_scrambled_semantic"":""8"",""num_scrambled_causal"":""4"",""num_scrambled_schematic"":""4"",""participantId"":""49E1F7CBD56F4A70A8905D4966AF6BB8"",""assignmentId"":""0198be2d-6316-7d1f-ac30-e5193f0059fe"",""projectId"":""0198be1d-574a-752e-ae53-1d263a30e856""}","https://test12345.live/?num_scrambled_semantic=8&num_scrambled_causal=4&num_scrambled_schematic=4&participantId=49E1F7CBD56F4A70A8905D4966AF6BB8&assignmentId=0198be2d-6316-7d1f-ac30-e5193f0059fe&projectId=0198be1d-574a-752e-ae53-1d263a30e856","49E1F7CBD56F4A70A8905D4966AF6BB8-2025-08-18-18-12-44","","null","","[]","null","",""
"","","","","","image-button-response","63","1199878","0.0-12.0-1.0-0.2","49E1F7CBD56F4A70A8905D4966AF6BB8","49E1F7CBD56F4A70A8905D4966AF6BB8","0198be2d-6316-7d1f-ac30-e5193f0059fe","0198be1d-574a-752e-ae53-1d263a30e856","{""num_scrambled_semantic"":""8"",""num_scrambled_causal"":""4"",""num_scrambled_schematic"":""4"",""participantId"":""49E1F7CBD56F4A70A8905D4966AF6BB8"",""assignmentId"":""0198be2d-6316-7d1f-ac30-e5193f0059fe"",""projectId"":""0198be1d-574a-752e-ae53-1d263a30e856""}","https://test12345.live/?num_scrambled_semantic=8&num_scrambled_causal=4&num_scrambled_schematic=4&participantId=49E1F7CBD56F4A70A8905D4966AF6BB8&assignmentId=0198be2d-6316-7d1f-ac30-e5193f0059fe&projectId=0198be1d-574a-752e-ae53-1d263a30e856","49E1F7CBD56F4A70A8905D4966AF6BB8-2025-08-18-18-12-44","","null","","images/semantic_sequence/physical_activity_semantic/physical_activity_semantic_9.png","null","",""
"","","","","","image-button-response","64","1200750","0.0-12.0-1.0-1.2","49E1F7CBD56F4A70A8905D4966AF6BB8","49E1F7CBD56F4A70A8905D4966AF6BB8","0198be2d-6316-7d1f-ac30-e5193f0059fe","0198be1d-574a-752e-ae53-1d263a30e856","{""num_scrambled_semantic"":""8"",""num_scrambled_causal"":""4"",""num_scrambled_schematic"":""4"",""participantId"":""49E1F7CBD56F4A70A8905D4966AF6BB8"",""assignmentId"":""0198be2d-6316-7d1f-ac30-e5193f0059fe"",""projectId"":""0198be1d-574a-752e-ae53-1d263a30e856""}","https://test12345.live/?num_scrambled_semantic=8&num_scrambled_causal=4&num_scrambled_schematic=4&participantId=49E1F7CBD56F4A70A8905D4966AF6BB8&assignmentId=0198be2d-6316-7d1f-ac30-e5193f0059fe&projectId=0198be1d-574a-752e-ae53-1d263a30e856","49E1F7CBD56F4A70A8905D4966AF6BB8-2025-08-18-18-12-44","","870","","images/semantic_sequence/physical_activity_semantic/physical_activity_semantic_9.png","0","",""
"","","","","","image-button-response","65","1211558","0.0-12.0-1.0-2.2","49E1F7CBD56F4A70A8905D4966AF6BB8","49E1F7CBD56F4A70A8905D4966AF6BB8","0198be2d-6316-7d1f-ac30-e5193f0059fe","0198be1d-574a-752e-ae53-1d263a30e856","{""num_scrambled_semantic"":""8"",""num_scrambled_causal"":""4"",""num_scrambled_schematic"":""4"",""participantId"":""49E1F7CBD56F4A70A8905D4966AF6BB8"",""assignmentId"":""0198be2d-6316-7d1f-ac30-e5193f0059fe"",""projectId"":""0198be1d-574a-752e-ae53-1d263a30e856""}","https://test12345.live/?num_scrambled_semantic=8&num_scrambled_causal=4&num_scrambled_schematic=4&participantId=49E1F7CBD56F4A70A8905D4966AF6BB8&assignmentId=0198be2d-6316-7d1f-ac30-e5193f0059fe&projectId=0198be1d-574a-752e-ae53-1d263a30e856","49E1F7CBD56F4A70A8905D4966AF6BB8-2025-08-18-18-12-44","","null","","[]","null","",""
"","","","","","image-button-response","66","1216068","0.0-12.0-1.0-0.3","49E1F7CBD56F4A70A8905D4966AF6BB8","49E1F7CBD56F4A70A8905D4966AF6BB8","0198be2d-6316-7d1f-ac30-e5193f0059fe","0198be1d-574a-752e-ae53-1d263a30e856","{""num_scrambled_semantic"":""8"",""num_scrambled_causal"":""4"",""num_scrambled_schematic"":""4"",""participantId"":""49E1F7CBD56F4A70A8905D4966AF6BB8"",""assignmentId"":""0198be2d-6316-7d1f-ac30-e5193f0059fe"",""projectId"":""0198be1d-574a-752e-ae53-1d263a30e856""}","https://test12345.live/?num_scrambled_semantic=8&num_scrambled_causal=4&num_scrambled_schematic=4&participantId=49E1F7CBD56F4A70A8905D4966AF6BB8&assignmentId=0198be2d-6316-7d1f-ac30-e5193f0059fe&projectId=0198be1d-574a-752e-ae53-1d263a30e856","49E1F7CBD56F4A70A8905D4966AF6BB8-2025-08-18-18-12-44","","null","","images/semantic_sequence/physical_activity_semantic/physical_activity_semantic_5.png","null","",""
"","","","","","image-button-response","67","1216974","0.0-12.0-1.0-1.3","49E1F7CBD56F4A70A8905D4966AF6BB8","49E1F7CBD56F4A70A8905D4966AF6BB8","0198be2d-6316-7d1f-ac30-e5193f0059fe","0198be1d-574a-752e-ae53-1d263a30e856","{""num_scrambled_semantic"":""8"",""num_scrambled_causal"":""4"",""num_scrambled_schematic"":""4"",""participantId"":""49E1F7CBD56F4A70A8905D4966AF6BB8"",""assignmentId"":""0198be2d-6316-7d1f-ac30-e5193f0059fe"",""projectId"":""0198be1d-574a-752e-ae53-1d263a30e856""}","https://test12345.live/?num_scrambled_semantic=8&num_scrambled_causal=4&num_scrambled_schematic=4&participantId=49E1F7CBD56F4A70A8905D4966AF6BB8&assignmentId=0198be2d-6316-7d1f-ac30-e5193f0059fe&projectId=0198be1d-574a-752e-ae53-1d263a30e856","49E1F7CBD56F4A70A8905D4966AF6BB8-2025-08-18-18-12-44","","904","","images/semantic_sequence/physical_activity_semantic/physical_activity_semantic_5.png","0","",""
"","","","","","image-button-response","68","1227788","0.0-12.0-1.0-2.3","49E1F7CBD56F4A70A8905D4966AF6BB8","49E1F7CBD56F4A70A8905D4966AF6BB8","0198be2d-6316-7d1f-ac30-e5193f0059fe","0198be1d-574a-752e-ae53-1d263a30e856","{""num_scrambled_semantic"":""8"",""num_scrambled_causal"":""4"",""num_scrambled_schematic"":""4"",""participantId"":""49E1F7CBD56F4A70A8905D4966AF6BB8"",""assignmentId"":""0198be2d-6316-7d1f-ac30-e5193f0059fe"",""projectId"":""0198be1d-574a-752e-ae53-1d263a30e856""}","https://test12345.live/?num_scrambled_semantic=8&num_scrambled_causal=4&num_scrambled_schematic=4&participantId=49E1F7CBD56F4A70A8905D4966AF6BB8&assignmentId=0198be2d-6316-7d1f-ac30-e5193f0059fe&projectId=0198be1d-574a-752e-ae53-1d263a30e856","49E1F7CBD56F4A70A8905D4966AF6BB8-2025-08-18-18-12-44","","null","","[]","null","",""
"","","","","","image-button-response","69","1232308","0.0-12.0-1.0-0.4","49E1F7CBD56F4A70A8905D4966AF6BB8","49E1F7CBD56F4A70A8905D4966AF6BB8","0198be2d-6316-7d1f-ac30-e5193f0059fe","0198be1d-574a-752e-ae53-1d263a30e856","{""num_scrambled_semantic"":""8"",""num_scrambled_causal"":""4"",""num_scrambled_schematic"":""4"",""participantId"":""49E1F7CBD56F4A70A8905D4966AF6BB8"",""assignmentId"":""0198be2d-6316-7d1f-ac30-e5193f0059fe"",""projectId"":""0198be1d-574a-752e-ae53-1d263a30e856""}","https://test12345.live/?num_scrambled_semantic=8&num_scrambled_causal=4&num_scrambled_schematic=4&participantId=49E1F7CBD56F4A70A8905D4966AF6BB8&assignmentId=0198be2d-6316-7d1f-ac30-e5193f0059fe&projectId=0198be1d-574a-752e-ae53-1d263a30e856","49E1F7CBD56F4A70A8905D4966AF6BB8-2025-08-18-18-12-44","","null","","images/semantic_sequence/physical_activity_semantic/physical_activity_semantic_8.png","null","",""
"","","","","","image-button-response","70","1233887","0.0-12.0-1.0-1.4","49E1F7CBD56F4A70A8905D4966AF6BB8","49E1F7CBD56F4A70A8905D4966AF6BB8","0198be2d-6316-7d1f-ac30-e5193f0059fe","0198be1d-574a-752e-ae53-1d263a30e856","{""num_scrambled_semantic"":""8"",""num_scrambled_causal"":""4"",""num_scrambled_schematic"":""4"",""participantId"":""49E1F7CBD56F4A70A8905D4966AF6BB8"",""assignmentId"":""0198be2d-6316-7d1f-ac30-e5193f0059fe"",""projectId"":""0198be1d-574a-752e-ae53-1d263a30e856""}","https://test12345.live/?num_scrambled_semantic=8&num_scrambled_causal=4&num_scrambled_schematic=4&participantId=49E1F7CBD56F4A70A8905D4966AF6BB8&assignmentId=0198be2d-6316-7d1f-ac30-e5193f0059fe&projectId=0198be1d-574a-752e-ae53-1d263a30e856","49E1F7CBD56F4A70A8905D4966AF6BB8-2025-08-18-18-12-44","","1577","","images/semantic_sequence/physical_activity_semantic/physical_activity_semantic_8.png","0","",""
"","","","","","image-button-response","71","1244698","0.0-12.0-1.0-2.4","49E1F7CBD56F4A70A8905D4966AF6BB8","49E1F7CBD56F4A70A8905D4966AF6BB8","0198be2d-6316-7d1f-ac30-e5193f0059fe","0198be1d-574a-752e-ae53-1d263a30e856","{""num_scrambled_semantic"":""8"",""num_scrambled_causal"":""4"",""num_scrambled_schematic"":""4"",""participantId"":""49E1F7CBD56F4A70A8905D4966AF6BB8"",""assignmentId"":""0198be2d-6316-7d1f-ac30-e5193f0059fe"",""projectId"":""0198be1d-574a-752e-ae53-1d263a30e856""}","https://test12345.live/?num_scrambled_semantic=8&num_scrambled_causal=4&num_scrambled_schematic=4&participantId=49E1F7CBD56F4A70A8905D4966AF6BB8&assignmentId=0198be2d-6316-7d1f-ac30-e5193f0059fe&projectId=0198be1d-574a-752e-ae53-1d263a30e856","49E1F7CBD56F4A70A8905D4966AF6BB8-2025-08-18-18-12-44","","null","","[]","null","",""
"","","","","","image-button-response","72","1249208","0.0-12.0-1.0-0.5","49E1F7CBD56F4A70A8905D4966AF6BB8","49E1F7CBD56F4A70A8905D4966AF6BB8","0198be2d-6316-7d1f-ac30-e5193f0059fe","0198be1d-574a-752e-ae53-1d263a30e856","{""num_scrambled_semantic"":""8"",""num_scrambled_causal"":""4"",""num_scrambled_schematic"":""4"",""participantId"":""49E1F7CBD56F4A70A8905D4966AF6BB8"",""assignmentId"":""0198be2d-6316-7d1f-ac30-e5193f0059fe"",""projectId"":""0198be1d-574a-752e-ae53-1d263a30e856""}","https://test12345.live/?num_scrambled_semantic=8&num_scrambled_causal=4&num_scrambled_schematic=4&participantId=49E1F7CBD56F4A70A8905D4966AF6BB8&assignmentId=0198be2d-6316-7d1f-ac30-e5193f0059fe&projectId=0198be1d-574a-752e-ae53-1d263a30e856","49E1F7CBD56F4A70A8905D4966AF6BB8-2025-08-18-18-12-44","","null","","images/semantic_sequence/physical_activity_semantic/physical_activity_semantic_7.png","null","",""
"","","","","","image-button-response","73","1250144","0.0-12.0-1.0-1.5","49E1F7CBD56F4A70A8905D4966AF6BB8","49E1F7CBD56F4A70A8905D4966AF6BB8","0198be2d-6316-7d1f-ac30-e5193f0059fe","0198be1d-574a-752e-ae53-1d263a30e856","{""num_scrambled_semantic"":""8"",""num_scrambled_causal"":""4"",""num_scrambled_schematic"":""4"",""participantId"":""49E1F7CBD56F4A70A8905D4966AF6BB8"",""assignmentId"":""0198be2d-6316-7d1f-ac30-e5193f0059fe"",""projectId"":""0198be1d-574a-752e-ae53-1d263a30e856""}","https://test12345.live/?num_scrambled_semantic=8&num_scrambled_causal=4&num_scrambled_schematic=4&participantId=49E1F7CBD56F4A70A8905D4966AF6BB8&assignmentId=0198be2d-6316-7d1f-ac30-e5193f0059fe&projectId=0198be1d-574a-752e-ae53-1d263a30e856","49E1F7CBD56F4A70A8905D4966AF6BB8-2025-08-18-18-12-44","","934","","images/semantic_sequence/physical_activity_semantic/physical_activity_semantic_7.png","0","",""
"","","","","","image-button-response","74","1260948","0.0-12.0-1.0-2.5","49E1F7CBD56F4A70A8905D4966AF6BB8","49E1F7CBD56F4A70A8905D4966AF6BB8","0198be2d-6316-7d1f-ac30-e5193f0059fe","0198be1d-574a-752e-ae53-1d263a30e856","{""num_scrambled_semantic"":""8"",""num_scrambled_causal"":""4"",""num_scrambled_schematic"":""4"",""participantId"":""49E1F7CBD56F4A70A8905D4966AF6BB8"",""assignmentId"":""0198be2d-6316-7d1f-ac30-e5193f0059fe"",""projectId"":""0198be1d-574a-752e-ae53-1d263a30e856""}","https://test12345.live/?num_scrambled_semantic=8&num_scrambled_causal=4&num_scrambled_schematic=4&participantId=49E1F7CBD56F4A70A8905D4966AF6BB8&assignmentId=0198be2d-6316-7d1f-ac30-e5193f0059fe&projectId=0198be1d-574a-752e-ae53-1d263a30e856","49E1F7CBD56F4A70A8905D4966AF6BB8-2025-08-18-18-12-44","","null","","[]","null","",""
"","","","","","image-button-response","75","1265468","0.0-12.0-1.0-0.6","49E1F7CBD56F4A70A8905D4966AF6BB8","49E1F7CBD56F4A70A8905D4966AF6BB8","0198be2d-6316-7d1f-ac30-e5193f0059fe","0198be1d-574a-752e-ae53-1d263a30e856","{""num_scrambled_semantic"":""8"",""num_scrambled_causal"":""4"",""num_scrambled_schematic"":""4"",""participantId"":""49E1F7CBD56F4A70A8905D4966AF6BB8"",""assignmentId"":""0198be2d-6316-7d1f-ac30-e5193f0059fe"",""projectId"":""0198be1d-574a-752e-ae53-1d263a30e856""}","https://test12345.live/?num_scrambled_semantic=8&num_scrambled_causal=4&num_scrambled_schematic=4&participantId=49E1F7CBD56F4A70A8905D4966AF6BB8&assignmentId=0198be2d-6316-7d1f-ac30-e5193f0059fe&projectId=0198be1d-574a-752e-ae53-1d263a30e856","49E1F7CBD56F4A70A8905D4966AF6BB8-2025-08-18-18-12-44","","null","","images/semantic_sequence/physical_activity_semantic/physical_activity_semantic_2.png","null","",""
"","","","","","image-button-response","76","1266457","0.0-12.0-1.0-1.6","49E1F7CBD56F4A70A8905D4966AF6BB8","49E1F7CBD56F4A70A8905D4966AF6BB8","0198be2d-6316-7d1f-ac30-e5193f0059fe","0198be1d-574a-752e-ae53-1d263a30e856","{""num_scrambled_semantic"":""8"",""num_scrambled_causal"":""4"",""num_scrambled_schematic"":""4"",""participantId"":""49E1F7CBD56F4A70A8905D4966AF6BB8"",""assignmentId"":""0198be2d-6316-7d1f-ac30-e5193f0059fe"",""projectId"":""0198be1d-574a-752e-ae53-1d263a30e856""}","https://test12345.live/?num_scrambled_semantic=8&num_scrambled_causal=4&num_scrambled_schematic=4&participantId=49E1F7CBD56F4A70A8905D4966AF6BB8&assignmentId=0198be2d-6316-7d1f-ac30-e5193f0059fe&projectId=0198be1d-574a-752e-ae53-1d263a30e856","49E1F7CBD56F4A70A8905D4966AF6BB8-2025-08-18-18-12-44","","986","","images/semantic_sequence/physical_activity_semantic/physical_activity_semantic_2.png","0","",""
"","","","","","image-button-response","77","1277268","0.0-12.0-1.0-2.6","49E1F7CBD56F4A70A8905D4966AF6BB8","49E1F7CBD56F4A70A8905D4966AF6BB8","0198be2d-6316-7d1f-ac30-e5193f0059fe","0198be1d-574a-752e-ae53-1d263a30e856","{""num_scrambled_semantic"":""8"",""num_scrambled_causal"":""4"",""num_scrambled_schematic"":""4"",""participantId"":""49E1F7CBD56F4A70A8905D4966AF6BB8"",""assignmentId"":""0198be2d-6316-7d1f-ac30-e5193f0059fe"",""projectId"":""0198be1d-574a-752e-ae53-1d263a30e856""}","https://test12345.live/?num_scrambled_semantic=8&num_scrambled_causal=4&num_scrambled_schematic=4&participantId=49E1F7CBD56F4A70A8905D4966AF6BB8&assignmentId=0198be2d-6316-7d1f-ac30-e5193f0059fe&projectId=0198be1d-574a-752e-ae53-1d263a30e856","49E1F7CBD56F4A70A8905D4966AF6BB8-2025-08-18-18-12-44","","null","","[]","null","",""
"","","","","","image-button-response","78","1281788","0.0-12.0-1.0-0.7","49E1F7CBD56F4A70A8905D4966AF6BB8","49E1F7CBD56F4A70A8905D4966AF6BB8","0198be2d-6316-7d1f-ac30-e5193f0059fe","0198be1d-574a-752e-ae53-1d263a30e856","{""num_scrambled_semantic"":""8"",""num_scrambled_causal"":""4"",""num_scrambled_schematic"":""4"",""participantId"":""49E1F7CBD56F4A70A8905D4966AF6BB8"",""assignmentId"":""0198be2d-6316-7d1f-ac30-e5193f0059fe"",""projectId"":""0198be1d-574a-752e-ae53-1d263a30e856""}","https://test12345.live/?num_scrambled_semantic=8&num_scrambled_causal=4&num_scrambled_schematic=4&participantId=49E1F7CBD56F4A70A8905D4966AF6BB8&assignmentId=0198be2d-6316-7d1f-ac30-e5193f0059fe&projectId=0198be1d-574a-752e-ae53-1d263a30e856","49E1F7CBD56F4A70A8905D4966AF6BB8-2025-08-18-18-12-44","","null","","images/semantic_sequence/physical_activity_semantic/physical_activity_semantic_6.png","null","",""
"","","","","","image-button-response","79","1282618","0.0-12.0-1.0-1.7","49E1F7CBD56F4A70A8905D4966AF6BB8","49E1F7CBD56F4A70A8905D4966AF6BB8","0198be2d-6316-7d1f-ac30-e5193f0059fe","0198be1d-574a-752e-ae53-1d263a30e856","{""num_scrambled_semantic"":""8"",""num_scrambled_causal"":""4"",""num_scrambled_schematic"":""4"",""participantId"":""49E1F7CBD56F4A70A8905D4966AF6BB8"",""assignmentId"":""0198be2d-6316-7d1f-ac30-e5193f0059fe"",""projectId"":""0198be1d-574a-752e-ae53-1d263a30e856""}","https://test12345.live/?num_scrambled_semantic=8&num_scrambled_causal=4&num_scrambled_schematic=4&participantId=49E1F7CBD56F4A70A8905D4966AF6BB8&assignmentId=0198be2d-6316-7d1f-ac30-e5193f0059fe&projectId=0198be1d-574a-752e-ae53-1d263a30e856","49E1F7CBD56F4A70A8905D4966AF6BB8-2025-08-18-18-12-44","","828","","images/semantic_sequence/physical_activity_semantic/physical_activity_semantic_6.png","0","",""
"","","","","","image-button-response","80","1293428","0.0-12.0-1.0-2.7","49E1F7CBD56F4A70A8905D4966AF6BB8","49E1F7CBD56F4A70A8905D4966AF6BB8","0198be2d-6316-7d1f-ac30-e5193f0059fe","0198be1d-574a-752e-ae53-1d263a30e856","{""num_scrambled_semantic"":""8"",""num_scrambled_causal"":""4"",""num_scrambled_schematic"":""4"",""participantId"":""49E1F7CBD56F4A70A8905D4966AF6BB8"",""assignmentId"":""0198be2d-6316-7d1f-ac30-e5193f0059fe"",""projectId"":""0198be1d-574a-752e-ae53-1d263a30e856""}","https://test12345.live/?num_scrambled_semantic=8&num_scrambled_causal=4&num_scrambled_schematic=4&participantId=49E1F7CBD56F4A70A8905D4966AF6BB8&assignmentId=0198be2d-6316-7d1f-ac30-e5193f0059fe&projectId=0198be1d-574a-752e-ae53-1d263a30e856","49E1F7CBD56F4A70A8905D4966AF6BB8-2025-08-18-18-12-44","","null","","[]","null","",""
"","","","","","image-button-response","81","1297933","0.0-12.0-1.0-0.8","49E1F7CBD56F4A70A8905D4966AF6BB8","49E1F7CBD56F4A70A8905D4966AF6BB8","0198be2d-6316-7d1f-ac30-e5193f0059fe","0198be1d-574a-752e-ae53-1d263a30e856","{""num_scrambled_semantic"":""8"",""num_scrambled_causal"":""4"",""num_scrambled_schematic"":""4"",""participantId"":""49E1F7CBD56F4A70A8905D4966AF6BB8"",""assignmentId"":""0198be2d-6316-7d1f-ac30-e5193f0059fe"",""projectId"":""0198be1d-574a-752e-ae53-1d263a30e856""}","https://test12345.live/?num_scrambled_semantic=8&num_scrambled_causal=4&num_scrambled_schematic=4&participantId=49E1F7CBD56F4A70A8905D4966AF6BB8&assignmentId=0198be2d-6316-7d1f-ac30-e5193f0059fe&projectId=0198be1d-574a-752e-ae53-1d263a30e856","49E1F7CBD56F4A70A8905D4966AF6BB8-2025-08-18-18-12-44","","null","","images/semantic_sequence/physical_activity_semantic/physical_activity_semantic_4.png","null","",""
"","","","","","image-button-response","82","1300438","0.0-12.0-1.0-1.8","49E1F7CBD56F4A70A8905D4966AF6BB8","49E1F7CBD56F4A70A8905D4966AF6BB8","0198be2d-6316-7d1f-ac30-e5193f0059fe","0198be1d-574a-752e-ae53-1d263a30e856","{""num_scrambled_semantic"":""8"",""num_scrambled_causal"":""4"",""num_scrambled_schematic"":""4"",""participantId"":""49E1F7CBD56F4A70A8905D4966AF6BB8"",""assignmentId"":""0198be2d-6316-7d1f-ac30-e5193f0059fe"",""projectId"":""0198be1d-574a-752e-ae53-1d263a30e856""}","https://test12345.live/?num_scrambled_semantic=8&num_scrambled_causal=4&num_scrambled_schematic=4&participantId=49E1F7CBD56F4A70A8905D4966AF6BB8&assignmentId=0198be2d-6316-7d1f-ac30-e5193f0059fe&projectId=0198be1d-574a-752e-ae53-1d263a30e856","49E1F7CBD56F4A70A8905D4966AF6BB8-2025-08-18-18-12-44","","2502","","images/semantic_sequence/physical_activity_semantic/physical_activity_semantic_4.png","0","",""
"","","","","","image-button-response","83","1311258","0.0-12.0-1.0-2.8","49E1F7CBD56F4A70A8905D4966AF6BB8","49E1F7CBD56F4A70A8905D4966AF6BB8","0198be2d-6316-7d1f-ac30-e5193f0059fe","0198be1d-574a-752e-ae53-1d263a30e856","{""num_scrambled_semantic"":""8"",""num_scrambled_causal"":""4"",""num_scrambled_schematic"":""4"",""participantId"":""49E1F7CBD56F4A70A8905D4966AF6BB8"",""assignmentId"":""0198be2d-6316-7d1f-ac30-e5193f0059fe"",""projectId"":""0198be1d-574a-752e-ae53-1d263a30e856""}","https://test12345.live/?num_scrambled_semantic=8&num_scrambled_causal=4&num_scrambled_schematic=4&participantId=49E1F7CBD56F4A70A8905D4966AF6BB8&assignmentId=0198be2d-6316-7d1f-ac30-e5193f0059fe&projectId=0198be1d-574a-752e-ae53-1d263a30e856","49E1F7CBD56F4A70A8905D4966AF6BB8-2025-08-18-18-12-44","","null","","[]","null","",""
"","","","","","image-button-response","84","1315768","0.0-12.0-1.0-0.9","49E1F7CBD56F4A70A8905D4966AF6BB8","49E1F7CBD56F4A70A8905D4966AF6BB8","0198be2d-6316-7d1f-ac30-e5193f0059fe","0198be1d-574a-752e-ae53-1d263a30e856","{""num_scrambled_semantic"":""8"",""num_scrambled_causal"":""4"",""num_scrambled_schematic"":""4"",""participantId"":""49E1F7CBD56F4A70A8905D4966AF6BB8"",""assignmentId"":""0198be2d-6316-7d1f-ac30-e5193f0059fe"",""projectId"":""0198be1d-574a-752e-ae53-1d263a30e856""}","https://test12345.live/?num_scrambled_semantic=8&num_scrambled_causal=4&num_scrambled_schematic=4&participantId=49E1F7CBD56F4A70A8905D4966AF6BB8&assignmentId=0198be2d-6316-7d1f-ac30-e5193f0059fe&projectId=0198be1d-574a-752e-ae53-1d263a30e856","49E1F7CBD56F4A70A8905D4966AF6BB8-2025-08-18-18-12-44","","null","","images/semantic_sequence/physical_activity_semantic/physical_activity_semantic_3.png","null","",""
"","","","","","image-button-response","85","1317256","0.0-12.0-1.0-1.9","49E1F7CBD56F4A70A8905D4966AF6BB8","49E1F7CBD56F4A70A8905D4966AF6BB8","0198be2d-6316-7d1f-ac30-e5193f0059fe","0198be1d-574a-752e-ae53-1d263a30e856","{""num_scrambled_semantic"":""8"",""num_scrambled_causal"":""4"",""num_scrambled_schematic"":""4"",""participantId"":""49E1F7CBD56F4A70A8905D4966AF6BB8"",""assignmentId"":""0198be2d-6316-7d1f-ac30-e5193f0059fe"",""projectId"":""0198be1d-574a-752e-ae53-1d263a30e856""}","https://test12345.live/?num_scrambled_semantic=8&num_scrambled_causal=4&num_scrambled_schematic=4&participantId=49E1F7CBD56F4A70A8905D4966AF6BB8&assignmentId=0198be2d-6316-7d1f-ac30-e5193f0059fe&projectId=0198be1d-574a-752e-ae53-1d263a30e856","49E1F7CBD56F4A70A8905D4966AF6BB8-2025-08-18-18-12-44","","1484","","images/semantic_sequence/physical_activity_semantic/physical_activity_semantic_3.png","0","",""
"","","","","","image-button-response","86","1328068","0.0-12.0-1.0-2.9","49E1F7CBD56F4A70A8905D4966AF6BB8","49E1F7CBD56F4A70A8905D4966AF6BB8","0198be2d-6316-7d1f-ac30-e5193f0059fe","0198be1d-574a-752e-ae53-1d263a30e856","{""num_scrambled_semantic"":""8"",""num_scrambled_causal"":""4"",""num_scrambled_schematic"":""4"",""participantId"":""49E1F7CBD56F4A70A8905D4966AF6BB8"",""assignmentId"":""0198be2d-6316-7d1f-ac30-e5193f0059fe"",""projectId"":""0198be1d-574a-752e-ae53-1d263a30e856""}","https://test12345.live/?num_scrambled_semantic=8&num_scrambled_causal=4&num_scrambled_schematic=4&participantId=49E1F7CBD56F4A70A8905D4966AF6BB8&assignmentId=0198be2d-6316-7d1f-ac30-e5193f0059fe&projectId=0198be1d-574a-752e-ae53-1d263a30e856","49E1F7CBD56F4A70A8905D4966AF6BB8-2025-08-18-18-12-44","","null","","[]","null","",""
"","","","","","html-audio-response","87","1368910","0.0-13.0","49E1F7CBD56F4A70A8905D4966AF6BB8","49E1F7CBD56F4A70A8905D4966AF6BB8","0198be2d-6316-7d1f-ac30-e5193f0059fe","0198be1d-574a-752e-ae53-1d263a30e856","{""num_scrambled_semantic"":""8"",""num_scrambled_causal"":""4"",""num_scrambled_schematic"":""4"",""participantId"":""49E1F7CBD56F4A70A8905D4966AF6BB8"",""assignmentId"":""0198be2d-6316-7d1f-ac30-e5193f0059fe"",""projectId"":""0198be1d-574a-752e-ae53-1d263a30e856""}","https://test12345.live/?num_scrambled_semantic=8&num_scrambled_causal=4&num_scrambled_schematic=4&participantId=49E1F7CBD56F4A70A8905D4966AF6BB8&assignmentId=0198be2d-6316-7d1f-ac30-e5193f0059fe&projectId=0198be1d-574a-752e-ae53-1d263a30e856","49E1F7CBD56F4A70A8905D4966AF6BB8-2025-08-18-18-12-44","","22868","","[""<span style=\""color: red; font-size: 24px\""> NOW RECORDING</span><p>Please say out loud all the images you saw, in the exact order you saw them. Try to recall as many images as you can, but remember: getting the order right is more important than the number of images you recall.</p>""]","","41","physical_activity_semantic"
"","","","","","image-button-response","88","1374948","0.0-14.0-0.0","49E1F7CBD56F4A70A8905D4966AF6BB8","49E1F7CBD56F4A70A8905D4966AF6BB8","0198be2d-6316-7d1f-ac30-e5193f0059fe","0198be1d-574a-752e-ae53-1d263a30e856","{""num_scrambled_semantic"":""8"",""num_scrambled_causal"":""4"",""num_scrambled_schematic"":""4"",""participantId"":""49E1F7CBD56F4A70A8905D4966AF6BB8"",""assignmentId"":""0198be2d-6316-7d1f-ac30-e5193f0059fe"",""projectId"":""0198be1d-574a-752e-ae53-1d263a30e856""}","https://test12345.live/?num_scrambled_semantic=8&num_scrambled_causal=4&num_scrambled_schematic=4&participantId=49E1F7CBD56F4A70A8905D4966AF6BB8&assignmentId=0198be2d-6316-7d1f-ac30-e5193f0059fe&projectId=0198be1d-574a-752e-ae53-1d263a30e856","49E1F7CBD56F4A70A8905D4966AF6BB8-2025-08-18-18-12-44","","null","","images/semantic_sequence/redecorating_semantic/redecorating_semantic_0.png","null","",""
"","","","","","image-button-response","89","1379461","0.0-14.0-1.0-0.0","49E1F7CBD56F4A70A8905D4966AF6BB8","49E1F7CBD56F4A70A8905D4966AF6BB8","0198be2d-6316-7d1f-ac30-e5193f0059fe","0198be1d-574a-752e-ae53-1d263a30e856","{""num_scrambled_semantic"":""8"",""num_scrambled_causal"":""4"",""num_scrambled_schematic"":""4"",""participantId"":""49E1F7CBD56F4A70A8905D4966AF6BB8"",""assignmentId"":""0198be2d-6316-7d1f-ac30-e5193f0059fe"",""projectId"":""0198be1d-574a-752e-ae53-1d263a30e856""}","https://test12345.live/?num_scrambled_semantic=8&num_scrambled_causal=4&num_scrambled_schematic=4&participantId=49E1F7CBD56F4A70A8905D4966AF6BB8&assignmentId=0198be2d-6316-7d1f-ac30-e5193f0059fe&projectId=0198be1d-574a-752e-ae53-1d263a30e856","49E1F7CBD56F4A70A8905D4966AF6BB8-2025-08-18-18-12-44","","null","","images/semantic_sequence/redecorating_semantic/redecorating_semantic_3.png","null","",""
"","","","","","image-button-response","90","1383468","0.0-14.0-1.0-1.0","49E1F7CBD56F4A70A8905D4966AF6BB8","49E1F7CBD56F4A70A8905D4966AF6BB8","0198be2d-6316-7d1f-ac30-e5193f0059fe","0198be1d-574a-752e-ae53-1d263a30e856","{""num_scrambled_semantic"":""8"",""num_scrambled_causal"":""4"",""num_scrambled_schematic"":""4"",""participantId"":""49E1F7CBD56F4A70A8905D4966AF6BB8"",""assignmentId"":""0198be2d-6316-7d1f-ac30-e5193f0059fe"",""projectId"":""0198be1d-574a-752e-ae53-1d263a30e856""}","https://test12345.live/?num_scrambled_semantic=8&num_scrambled_causal=4&num_scrambled_schematic=4&participantId=49E1F7CBD56F4A70A8905D4966AF6BB8&assignmentId=0198be2d-6316-7d1f-ac30-e5193f0059fe&projectId=0198be1d-574a-752e-ae53-1d263a30e856","49E1F7CBD56F4A70A8905D4966AF6BB8-2025-08-18-18-12-44","","null","","images/semantic_sequence/redecorating_semantic/redecorating_semantic_3.png","null","",""
"","","","","","image-button-response","91","1394288","0.0-14.0-1.0-2.0","49E1F7CBD56F4A70A8905D4966AF6BB8","49E1F7CBD56F4A70A8905D4966AF6BB8","0198be2d-6316-7d1f-ac30-e5193f0059fe","0198be1d-574a-752e-ae53-1d263a30e856","{""num_scrambled_semantic"":""8"",""num_scrambled_causal"":""4"",""num_scrambled_schematic"":""4"",""participantId"":""49E1F7CBD56F4A70A8905D4966AF6BB8"",""assignmentId"":""0198be2d-6316-7d1f-ac30-e5193f0059fe"",""projectId"":""0198be1d-574a-752e-ae53-1d263a30e856""}","https://test12345.live/?num_scrambled_semantic=8&num_scrambled_causal=4&num_scrambled_schematic=4&participantId=49E1F7CBD56F4A70A8905D4966AF6BB8&assignmentId=0198be2d-6316-7d1f-ac30-e5193f0059fe&projectId=0198be1d-574a-752e-ae53-1d263a30e856","49E1F7CBD56F4A70A8905D4966AF6BB8-2025-08-18-18-12-44","","null","","[]","null","",""
"","","","","","image-button-response","92","1398808","0.0-14.0-1.0-0.1","49E1F7CBD56F4A70A8905D4966AF6BB8","49E1F7CBD56F4A70A8905D4966AF6BB8","0198be2d-6316-7d1f-ac30-e5193f0059fe","0198be1d-574a-752e-ae53-1d263a30e856","{""num_scrambled_semantic"":""8"",""num_scrambled_causal"":""4"",""num_scrambled_schematic"":""4"",""participantId"":""49E1F7CBD56F4A70A8905D4966AF6BB8"",""assignmentId"":""0198be2d-6316-7d1f-ac30-e5193f0059fe"",""projectId"":""0198be1d-574a-752e-ae53-1d263a30e856""}","https://test12345.live/?num_scrambled_semantic=8&num_scrambled_causal=4&num_scrambled_schematic=4&participantId=49E1F7CBD56F4A70A8905D4966AF6BB8&assignmentId=0198be2d-6316-7d1f-ac30-e5193f0059fe&projectId=0198be1d-574a-752e-ae53-1d263a30e856","49E1F7CBD56F4A70A8905D4966AF6BB8-2025-08-18-18-12-44","","null","","images/semantic_sequence/redecorating_semantic/redecorating_semantic_2.png","null","",""
"","","","","","image-button-response","93","1401778","0.0-14.0-1.0-1.1","49E1F7CBD56F4A70A8905D4966AF6BB8","49E1F7CBD56F4A70A8905D4966AF6BB8","0198be2d-6316-7d1f-ac30-e5193f0059fe","0198be1d-574a-752e-ae53-1d263a30e856","{""num_scrambled_semantic"":""8"",""num_scrambled_causal"":""4"",""num_scrambled_schematic"":""4"",""participantId"":""49E1F7CBD56F4A70A8905D4966AF6BB8"",""assignmentId"":""0198be2d-6316-7d1f-ac30-e5193f0059fe"",""projectId"":""0198be1d-574a-752e-ae53-1d263a30e856""}","https://test12345.live/?num_scrambled_semantic=8&num_scrambled_causal=4&num_scrambled_schematic=4&participantId=49E1F7CBD56F4A70A8905D4966AF6BB8&assignmentId=0198be2d-6316-7d1f-ac30-e5193f0059fe&projectId=0198be1d-574a-752e-ae53-1d263a30e856","49E1F7CBD56F4A70A8905D4966AF6BB8-2025-08-18-18-12-44","","2968","","images/semantic_sequence/redecorating_semantic/redecorating_semantic_2.png","0","",""
"","","","","","image-button-response","94","1412588","0.0-14.0-1.0-2.1","49E1F7CBD56F4A70A8905D4966AF6BB8","49E1F7CBD56F4A70A8905D4966AF6BB8","0198be2d-6316-7d1f-ac30-e5193f0059fe","0198be1d-574a-752e-ae53-1d263a30e856","{""num_scrambled_semantic"":""8"",""num_scrambled_causal"":""4"",""num_scrambled_schematic"":""4"",""participantId"":""49E1F7CBD56F4A70A8905D4966AF6BB8"",""assignmentId"":""0198be2d-6316-7d1f-ac30-e5193f0059fe"",""projectId"":""0198be1d-574a-752e-ae53-1d263a30e856""}","https://test12345.live/?num_scrambled_semantic=8&num_scrambled_causal=4&num_scrambled_schematic=4&participantId=49E1F7CBD56F4A70A8905D4966AF6BB8&assignmentId=0198be2d-6316-7d1f-ac30-e5193f0059fe&projectId=0198be1d-574a-752e-ae53-1d263a30e856","49E1F7CBD56F4A70A8905D4966AF6BB8-2025-08-18-18-12-44","","null","","[]","null","",""
"","","","","","image-button-response","95","1417107","0.0-14.0-1.0-0.2","49E1F7CBD56F4A70A8905D4966AF6BB8","49E1F7CBD56F4A70A8905D4966AF6BB8","0198be2d-6316-7d1f-ac30-e5193f0059fe","0198be1d-574a-752e-ae53-1d263a30e856","{""num_scrambled_semantic"":""8"",""num_scrambled_causal"":""4"",""num_scrambled_schematic"":""4"",""participantId"":""49E1F7CBD56F4A70A8905D4966AF6BB8"",""assignmentId"":""0198be2d-6316-7d1f-ac30-e5193f0059fe"",""projectId"":""0198be1d-574a-752e-ae53-1d263a30e856""}","https://test12345.live/?num_scrambled_semantic=8&num_scrambled_causal=4&num_scrambled_schematic=4&participantId=49E1F7CBD56F4A70A8905D4966AF6BB8&assignmentId=0198be2d-6316-7d1f-ac30-e5193f0059fe&projectId=0198be1d-574a-752e-ae53-1d263a30e856","49E1F7CBD56F4A70A8905D4966AF6BB8-2025-08-18-18-12-44","","null","","images/semantic_sequence/redecorating_semantic/redecorating_semantic_8.png","null","",""
"","","","","","image-button-response","96","1418753","0.0-14.0-1.0-1.2","49E1F7CBD56F4A70A8905D4966AF6BB8","49E1F7CBD56F4A70A8905D4966AF6BB8","0198be2d-6316-7d1f-ac30-e5193f0059fe","0198be1d-574a-752e-ae53-1d263a30e856","{""num_scrambled_semantic"":""8"",""num_scrambled_causal"":""4"",""num_scrambled_schematic"":""4"",""participantId"":""49E1F7CBD56F4A70A8905D4966AF6BB8"",""assignmentId"":""0198be2d-6316-7d1f-ac30-e5193f0059fe"",""projectId"":""0198be1d-574a-752e-ae53-1d263a30e856""}","https://test12345.live/?num_scrambled_semantic=8&num_scrambled_causal=4&num_scrambled_schematic=4&participantId=49E1F7CBD56F4A70A8905D4966AF6BB8&assignmentId=0198be2d-6316-7d1f-ac30-e5193f0059fe&projectId=0198be1d-574a-752e-ae53-1d263a30e856","49E1F7CBD56F4A70A8905D4966AF6BB8-2025-08-18-18-12-44","","1642","","images/semantic_sequence/redecorating_semantic/redecorating_semantic_8.png","0","",""
"","","","","","image-button-response","97","1429568","0.0-14.0-1.0-2.2","49E1F7CBD56F4A70A8905D4966AF6BB8","49E1F7CBD56F4A70A8905D4966AF6BB8","0198be2d-6316-7d1f-ac30-e5193f0059fe","0198be1d-574a-752e-ae53-1d263a30e856","{""num_scrambled_semantic"":""8"",""num_scrambled_causal"":""4"",""num_scrambled_schematic"":""4"",""participantId"":""49E1F7CBD56F4A70A8905D4966AF6BB8"",""assignmentId"":""0198be2d-6316-7d1f-ac30-e5193f0059fe"",""projectId"":""0198be1d-574a-752e-ae53-1d263a30e856""}","https://test12345.live/?num_scrambled_semantic=8&num_scrambled_causal=4&num_scrambled_schematic=4&participantId=49E1F7CBD56F4A70A8905D4966AF6BB8&assignmentId=0198be2d-6316-7d1f-ac30-e5193f0059fe&projectId=0198be1d-574a-752e-ae53-1d263a30e856","49E1F7CBD56F4A70A8905D4966AF6BB8-2025-08-18-18-12-44","","null","","[]","null","",""
"","","","","","image-button-response","98","1434078","0.0-14.0-1.0-0.3","49E1F7CBD56F4A70A8905D4966AF6BB8","49E1F7CBD56F4A70A8905D4966AF6BB8","0198be2d-6316-7d1f-ac30-e5193f0059fe","0198be1d-574a-752e-ae53-1d263a30e856","{""num_scrambled_semantic"":""8"",""num_scrambled_causal"":""4"",""num_scrambled_schematic"":""4"",""participantId"":""49E1F7CBD56F4A70A8905D4966AF6BB8"",""assignmentId"":""0198be2d-6316-7d1f-ac30-e5193f0059fe"",""projectId"":""0198be1d-574a-752e-ae53-1d263a30e856""}","https://test12345.live/?num_scrambled_semantic=8&num_scrambled_causal=4&num_scrambled_schematic=4&participantId=49E1F7CBD56F4A70A8905D4966AF6BB8&assignmentId=0198be2d-6316-7d1f-ac30-e5193f0059fe&projectId=0198be1d-574a-752e-ae53-1d263a30e856","49E1F7CBD56F4A70A8905D4966AF6BB8-2025-08-18-18-12-44","","null","","images/semantic_sequence/redecorating_semantic/redecorating_semantic_1.png","null","",""
"","","","","","image-button-response","99","1436651","0.0-14.0-1.0-1.3","49E1F7CBD56F4A70A8905D4966AF6BB8","49E1F7CBD56F4A70A8905D4966AF6BB8","0198be2d-6316-7d1f-ac30-e5193f0059fe","0198be1d-574a-752e-ae53-1d263a30e856","{""num_scrambled_semantic"":""8"",""num_scrambled_causal"":""4"",""num_scrambled_schematic"":""4"",""participantId"":""49E1F7CBD56F4A70A8905D4966AF6BB8"",""assignmentId"":""0198be2d-6316-7d1f-ac30-e5193f0059fe"",""projectId"":""0198be1d-574a-752e-ae53-1d263a30e856""}","https://test12345.live/?num_scrambled_semantic=8&num_scrambled_causal=4&num_scrambled_schematic=4&participantId=49E1F7CBD56F4A70A8905D4966AF6BB8&assignmentId=0198be2d-6316-7d1f-ac30-e5193f0059fe&projectId=0198be1d-574a-752e-ae53-1d263a30e856","49E1F7CBD56F4A70A8905D4966AF6BB8-2025-08-18-18-12-44","","2570","","images/semantic_sequence/redecorating_semantic/redecorating_semantic_1.png","0","",""
"","","","","","image-button-response","100","1447468","0.0-14.0-1.0-2.3","49E1F7CBD56F4A70A8905D4966AF6BB8","49E1F7CBD56F4A70A8905D4966AF6BB8","0198be2d-6316-7d1f-ac30-e5193f0059fe","0198be1d-574a-752e-ae53-1d263a30e856","{""num_scrambled_semantic"":""8"",""num_scrambled_causal"":""4"",""num_scrambled_schematic"":""4"",""participantId"":""49E1F7CBD56F4A70A8905D4966AF6BB8"",""assignmentId"":""0198be2d-6316-7d1f-ac30-e5193f0059fe"",""projectId"":""0198be1d-574a-752e-ae53-1d263a30e856""}","https://test12345.live/?num_scrambled_semantic=8&num_scrambled_causal=4&num_scrambled_schematic=4&participantId=49E1F7CBD56F4A70A8905D4966AF6BB8&assignmentId=0198be2d-6316-7d1f-ac30-e5193f0059fe&projectId=0198be1d-574a-752e-ae53-1d263a30e856","49E1F7CBD56F4A70A8905D4966AF6BB8-2025-08-18-18-12-44","","null","","[]","null","",""
"","","","","","image-button-response","101","1451989","0.0-14.0-1.0-0.4","49E1F7CBD56F4A70A8905D4966AF6BB8","49E1F7CBD56F4A70A8905D4966AF6BB8","0198be2d-6316-7d1f-ac30-e5193f0059fe","0198be1d-574a-752e-ae53-1d263a30e856","{""num_scrambled_semantic"":""8"",""num_scrambled_causal"":""4"",""num_scrambled_schematic"":""4"",""participantId"":""49E1F7CBD56F4A70A8905D4966AF6BB8"",""assignmentId"":""0198be2d-6316-7d1f-ac30-e5193f0059fe"",""projectId"":""0198be1d-574a-752e-ae53-1d263a30e856""}","https://test12345.live/?num_scrambled_semantic=8&num_scrambled_causal=4&num_scrambled_schematic=4&participantId=49E1F7CBD56F4A70A8905D4966AF6BB8&assignmentId=0198be2d-6316-7d1f-ac30-e5193f0059fe&projectId=0198be1d-574a-752e-ae53-1d263a30e856","49E1F7CBD56F4A70A8905D4966AF6BB8-2025-08-18-18-12-44","","null","","images/semantic_sequence/redecorating_semantic/redecorating_semantic_ten.png","null","",""
"","","","","","image-button-response","102","1456000","0.0-14.0-1.0-1.4","49E1F7CBD56F4A70A8905D4966AF6BB8","49E1F7CBD56F4A70A8905D4966AF6BB8","0198be2d-6316-7d1f-ac30-e5193f0059fe","0198be1d-574a-752e-ae53-1d263a30e856","{""num_scrambled_semantic"":""8"",""num_scrambled_causal"":""4"",""num_scrambled_schematic"":""4"",""participantId"":""49E1F7CBD56F4A70A8905D4966AF6BB8"",""assignmentId"":""0198be2d-6316-7d1f-ac30-e5193f0059fe"",""projectId"":""0198be1d-574a-752e-ae53-1d263a30e856""}","https://test12345.live/?num_scrambled_semantic=8&num_scrambled_causal=4&num_scrambled_schematic=4&participantId=49E1F7CBD56F4A70A8905D4966AF6BB8&assignmentId=0198be2d-6316-7d1f-ac30-e5193f0059fe&projectId=0198be1d-574a-752e-ae53-1d263a30e856","49E1F7CBD56F4A70A8905D4966AF6BB8-2025-08-18-18-12-44","","null","","images/semantic_sequence/redecorating_semantic/redecorating_semantic_ten.png","null","",""
"","","","","","image-button-response","103","1466818","0.0-14.0-1.0-2.4","49E1F7CBD56F4A70A8905D4966AF6BB8","49E1F7CBD56F4A70A8905D4966AF6BB8","0198be2d-6316-7d1f-ac30-e5193f0059fe","0198be1d-574a-752e-ae53-1d263a30e856","{""num_scrambled_semantic"":""8"",""num_scrambled_causal"":""4"",""num_scrambled_schematic"":""4"",""participantId"":""49E1F7CBD56F4A70A8905D4966AF6BB8"",""assignmentId"":""0198be2d-6316-7d1f-ac30-e5193f0059fe"",""projectId"":""0198be1d-574a-752e-ae53-1d263a30e856""}","https://test12345.live/?num_scrambled_semantic=8&num_scrambled_causal=4&num_scrambled_schematic=4&participantId=49E1F7CBD56F4A70A8905D4966AF6BB8&assignmentId=0198be2d-6316-7d1f-ac30-e5193f0059fe&projectId=0198be1d-574a-752e-ae53-1d263a30e856","49E1F7CBD56F4A70A8905D4966AF6BB8-2025-08-18-18-12-44","","null","","[]","null","",""
"","","","","","image-button-response","104","1471338","0.0-14.0-1.0-0.5","49E1F7CBD56F4A70A8905D4966AF6BB8","49E1F7CBD56F4A70A8905D4966AF6BB8","0198be2d-6316-7d1f-ac30-e5193f0059fe","0198be1d-574a-752e-ae53-1d263a30e856","{""num_scrambled_semantic"":""8"",""num_scrambled_causal"":""4"",""num_scrambled_schematic"":""4"",""participantId"":""49E1F7CBD56F4A70A8905D4966AF6BB8"",""assignmentId"":""0198be2d-6316-7d1f-ac30-e5193f0059fe"",""projectId"":""0198be1d-574a-752e-ae53-1d263a30e856""}","https://test12345.live/?num_scrambled_semantic=8&num_scrambled_causal=4&num_scrambled_schematic=4&participantId=49E1F7CBD56F4A70A8905D4966AF6BB8&assignmentId=0198be2d-6316-7d1f-ac30-e5193f0059fe&projectId=0198be1d-574a-752e-ae53-1d263a30e856","49E1F7CBD56F4A70A8905D4966AF6BB8-2025-08-18-18-12-44","","null","","images/semantic_sequence/redecorating_semantic/redecorating_semantic_4.png","null","",""
"","","","","","image-button-response","105","1475358","0.0-14.0-1.0-1.5","49E1F7CBD56F4A70A8905D4966AF6BB8","49E1F7CBD56F4A70A8905D4966AF6BB8","0198be2d-6316-7d1f-ac30-e5193f0059fe","0198be1d-574a-752e-ae53-1d263a30e856","{""num_scrambled_semantic"":""8"",""num_scrambled_causal"":""4"",""num_scrambled_schematic"":""4"",""participantId"":""49E1F7CBD56F4A70A8905D4966AF6BB8"",""assignmentId"":""0198be2d-6316-7d1f-ac30-e5193f0059fe"",""projectId"":""0198be1d-574a-752e-ae53-1d263a30e856""}","https://test12345.live/?num_scrambled_semantic=8&num_scrambled_causal=4&num_scrambled_schematic=4&participantId=49E1F7CBD56F4A70A8905D4966AF6BB8&assignmentId=0198be2d-6316-7d1f-ac30-e5193f0059fe&projectId=0198be1d-574a-752e-ae53-1d263a30e856","49E1F7CBD56F4A70A8905D4966AF6BB8-2025-08-18-18-12-44","","null","","images/semantic_sequence/redecorating_semantic/redecorating_semantic_4.png","null","",""
"","","","","","image-button-response","106","1486168","0.0-14.0-1.0-2.5","49E1F7CBD56F4A70A8905D4966AF6BB8","49E1F7CBD56F4A70A8905D4966AF6BB8","0198be2d-6316-7d1f-ac30-e5193f0059fe","0198be1d-574a-752e-ae53-1d263a30e856","{""num_scrambled_semantic"":""8"",""num_scrambled_causal"":""4"",""num_scrambled_schematic"":""4"",""participantId"":""49E1F7CBD56F4A70A8905D4966AF6BB8"",""assignmentId"":""0198be2d-6316-7d1f-ac30-e5193f0059fe"",""projectId"":""0198be1d-574a-752e-ae53-1d263a30e856""}","https://test12345.live/?num_scrambled_semantic=8&num_scrambled_causal=4&num_scrambled_schematic=4&participantId=49E1F7CBD56F4A70A8905D4966AF6BB8&assignmentId=0198be2d-6316-7d1f-ac30-e5193f0059fe&projectId=0198be1d-574a-752e-ae53-1d263a30e856","49E1F7CBD56F4A70A8905D4966AF6BB8-2025-08-18-18-12-44","","null","","[]","null","",""
"","","","","","image-button-response","107","1490688","0.0-14.0-1.0-0.6","49E1F7CBD56F4A70A8905D4966AF6BB8","49E1F7CBD56F4A70A8905D4966AF6BB8","0198be2d-6316-7d1f-ac30-e5193f0059fe","0198be1d-574a-752e-ae53-1d263a30e856","{""num_scrambled_semantic"":""8"",""num_scrambled_causal"":""4"",""num_scrambled_schematic"":""4"",""participantId"":""49E1F7CBD56F4A70A8905D4966AF6BB8"",""assignmentId"":""0198be2d-6316-7d1f-ac30-e5193f0059fe"",""projectId"":""0198be1d-574a-752e-ae53-1d263a30e856""}","https://test12345.live/?num_scrambled_semantic=8&num_scrambled_causal=4&num_scrambled_schematic=4&participantId=49E1F7CBD56F4A70A8905D4966AF6BB8&assignmentId=0198be2d-6316-7d1f-ac30-e5193f0059fe&projectId=0198be1d-574a-752e-ae53-1d263a30e856","49E1F7CBD56F4A70A8905D4966AF6BB8-2025-08-18-18-12-44","","null","","images/semantic_sequence/redecorating_semantic/redecorating_semantic_5.png","null","",""
"","","","","","image-button-response","108","1491892","0.0-14.0-1.0-1.6","49E1F7CBD56F4A70A8905D4966AF6BB8","49E1F7CBD56F4A70A8905D4966AF6BB8","0198be2d-6316-7d1f-ac30-e5193f0059fe","0198be1d-574a-752e-ae53-1d263a30e856","{""num_scrambled_semantic"":""8"",""num_scrambled_causal"":""4"",""num_scrambled_schematic"":""4"",""participantId"":""49E1F7CBD56F4A70A8905D4966AF6BB8"",""assignmentId"":""0198be2d-6316-7d1f-ac30-e5193f0059fe"",""projectId"":""0198be1d-574a-752e-ae53-1d263a30e856""}","https://test12345.live/?num_scrambled_semantic=8&num_scrambled_causal=4&num_scrambled_schematic=4&participantId=49E1F7CBD56F4A70A8905D4966AF6BB8&assignmentId=0198be2d-6316-7d1f-ac30-e5193f0059fe&projectId=0198be1d-574a-752e-ae53-1d263a30e856","49E1F7CBD56F4A70A8905D4966AF6BB8-2025-08-18-18-12-44","","1201","","images/semantic_sequence/redecorating_semantic/redecorating_semantic_5.png","0","",""
"","","","","","image-button-response","109","1502708","0.0-14.0-1.0-2.6","49E1F7CBD56F4A70A8905D4966AF6BB8","49E1F7CBD56F4A70A8905D4966AF6BB8","0198be2d-6316-7d1f-ac30-e5193f0059fe","0198be1d-574a-752e-ae53-1d263a30e856","{""num_scrambled_semantic"":""8"",""num_scrambled_causal"":""4"",""num_scrambled_schematic"":""4"",""participantId"":""49E1F7CBD56F4A70A8905D4966AF6BB8"",""assignmentId"":""0198be2d-6316-7d1f-ac30-e5193f0059fe"",""projectId"":""0198be1d-574a-752e-ae53-1d263a30e856""}","https://test12345.live/?num_scrambled_semantic=8&num_scrambled_causal=4&num_scrambled_schematic=4&participantId=49E1F7CBD56F4A70A8905D4966AF6BB8&assignmentId=0198be2d-6316-7d1f-ac30-e5193f0059fe&projectId=0198be1d-574a-752e-ae53-1d263a30e856","49E1F7CBD56F4A70A8905D4966AF6BB8-2025-08-18-18-12-44","","null","","[]","null","",""
"","","","","","image-button-response","110","1507218","0.0-14.0-1.0-0.7","49E1F7CBD56F4A70A8905D4966AF6BB8","49E1F7CBD56F4A70A8905D4966AF6BB8","0198be2d-6316-7d1f-ac30-e5193f0059fe","0198be1d-574a-752e-ae53-1d263a30e856","{""num_scrambled_semantic"":""8"",""num_scrambled_causal"":""4"",""num_scrambled_schematic"":""4"",""participantId"":""49E1F7CBD56F4A70A8905D4966AF6BB8"",""assignmentId"":""0198be2d-6316-7d1f-ac30-e5193f0059fe"",""projectId"":""0198be1d-574a-752e-ae53-1d263a30e856""}","https://test12345.live/?num_scrambled_semantic=8&num_scrambled_causal=4&num_scrambled_schematic=4&participantId=49E1F7CBD56F4A70A8905D4966AF6BB8&assignmentId=0198be2d-6316-7d1f-ac30-e5193f0059fe&projectId=0198be1d-574a-752e-ae53-1d263a30e856","49E1F7CBD56F4A70A8905D4966AF6BB8-2025-08-18-18-12-44","","null","","images/semantic_sequence/redecorating_semantic/redecorating_semantic_9.png","null","",""
"","","","","","image-button-response","111","1510971","0.0-14.0-1.0-1.7","49E1F7CBD56F4A70A8905D4966AF6BB8","49E1F7CBD56F4A70A8905D4966AF6BB8","0198be2d-6316-7d1f-ac30-e5193f0059fe","0198be1d-574a-752e-ae53-1d263a30e856","{""num_scrambled_semantic"":""8"",""num_scrambled_causal"":""4"",""num_scrambled_schematic"":""4"",""participantId"":""49E1F7CBD56F4A70A8905D4966AF6BB8"",""assignmentId"":""0198be2d-6316-7d1f-ac30-e5193f0059fe"",""projectId"":""0198be1d-574a-752e-ae53-1d263a30e856""}","https://test12345.live/?num_scrambled_semantic=8&num_scrambled_causal=4&num_scrambled_schematic=4&participantId=49E1F7CBD56F4A70A8905D4966AF6BB8&assignmentId=0198be2d-6316-7d1f-ac30-e5193f0059fe&projectId=0198be1d-574a-752e-ae53-1d263a30e856","49E1F7CBD56F4A70A8905D4966AF6BB8-2025-08-18-18-12-44","","3749","","images/semantic_sequence/redecorating_semantic/redecorating_semantic_9.png","0","",""
"","","","","","image-button-response","112","1521787","0.0-14.0-1.0-2.7","49E1F7CBD56F4A70A8905D4966AF6BB8","49E1F7CBD56F4A70A8905D4966AF6BB8","0198be2d-6316-7d1f-ac30-e5193f0059fe","0198be1d-574a-752e-ae53-1d263a30e856","{""num_scrambled_semantic"":""8"",""num_scrambled_causal"":""4"",""num_scrambled_schematic"":""4"",""participantId"":""49E1F7CBD56F4A70A8905D4966AF6BB8"",""assignmentId"":""0198be2d-6316-7d1f-ac30-e5193f0059fe"",""projectId"":""0198be1d-574a-752e-ae53-1d263a30e856""}","https://test12345.live/?num_scrambled_semantic=8&num_scrambled_causal=4&num_scrambled_schematic=4&participantId=49E1F7CBD56F4A70A8905D4966AF6BB8&assignmentId=0198be2d-6316-7d1f-ac30-e5193f0059fe&projectId=0198be1d-574a-752e-ae53-1d263a30e856","49E1F7CBD56F4A70A8905D4966AF6BB8-2025-08-18-18-12-44","","null","","[]","null","",""
"","","","","","image-button-response","113","1526298","0.0-14.0-1.0-0.8","49E1F7CBD56F4A70A8905D4966AF6BB8","49E1F7CBD56F4A70A8905D4966AF6BB8","0198be2d-6316-7d1f-ac30-e5193f0059fe","0198be1d-574a-752e-ae53-1d263a30e856","{""num_scrambled_semantic"":""8"",""num_scrambled_causal"":""4"",""num_scrambled_schematic"":""4"",""participantId"":""49E1F7CBD56F4A70A8905D4966AF6BB8"",""assignmentId"":""0198be2d-6316-7d1f-ac30-e5193f0059fe"",""projectId"":""0198be1d-574a-752e-ae53-1d263a30e856""}","https://test12345.live/?num_scrambled_semantic=8&num_scrambled_causal=4&num_scrambled_schematic=4&participantId=49E1F7CBD56F4A70A8905D4966AF6BB8&assignmentId=0198be2d-6316-7d1f-ac30-e5193f0059fe&projectId=0198be1d-574a-752e-ae53-1d263a30e856","49E1F7CBD56F4A70A8905D4966AF6BB8-2025-08-18-18-12-44","","null","","images/semantic_sequence/redecorating_semantic/redecorating_semantic_7.png","null","",""
