"success","timeout","failed_images","failed_audio","failed_video","trial_type","trial_index","time_elapsed","internal_node_id","subject","subject_id","study_id","session_id","urlvar","current_url","audio_id","view_history","rt","device_id","stimulus","response","estimated_stimulus_onset","seq_name"
"true","false","[]","[]","[]","preload","0","7355","0.0-0.0","4AB0A44753C54C48B0C3F735CD088259","4AB0A44753C54C48B0C3F735CD088259","0198b98c-eb2d-7536-9496-e47ff960b15c","0198b979-1f5e-7105-8b5f-48f920534529","{""num_scrambled_semantic"":""8"",""num_scrambled_causal"":""4"",""num_scrambled_schematic"":""4"",""participantId"":""4AB0A44753C54C48B0C3F735CD088259"",""assignmentId"":""0198b98c-eb2d-7536-9496-e47ff960b15c"",""projectId"":""0198b979-1f5e-7105-8b5f-48f920534529""}","https://test12345.live/?num_scrambled_semantic=8&num_scrambled_causal=4&num_scrambled_schematic=4&participantId=4AB0A44753C54C48B0C3F735CD088259&assignmentId=0198b98c-eb2d-7536-9496-e47ff960b15c&projectId=0198b979-1f5e-7105-8b5f-48f920534529","4AB0A44753C54C48B0C3F735CD088259-2025-08-17-20-23-12","","","","","","",""
"","","","","","instructions","1","19239","0.0-1.0","4AB0A44753C54C48B0C3F735CD088259","4AB0A44753C54C48B0C3F735CD088259","0198b98c-eb2d-7536-9496-e47ff960b15c","0198b979-1f5e-7105-8b5f-48f920534529","{""num_scrambled_semantic"":""8"",""num_scrambled_causal"":""4"",""num_scrambled_schematic"":""4"",""participantId"":""4AB0A44753C54C48B0C3F735CD088259"",""assignmentId"":""0198b98c-eb2d-7536-9496-e47ff960b15c"",""projectId"":""0198b979-1f5e-7105-8b5f-48f920534529""}","https://test12345.live/?num_scrambled_semantic=8&num_scrambled_causal=4&num_scrambled_schematic=4&participantId=4AB0A44753C54C48B0C3F735CD088259&assignmentId=0198b98c-eb2d-7536-9496-e47ff960b15c&projectId=0198b979-1f5e-7105-8b5f-48f920534529","4AB0A44753C54C48B0C3F735CD088259-2025-08-17-20-23-12","[{""page_index"":0,""viewing_time"":11883}]","11883","","","","",""
"","","","","","instructions","2","24004","0.0-2.0","4AB0A44753C54C48B0C3F735CD088259","4AB0A44753C54C48B0C3F735CD088259","0198b98c-eb2d-7536-9496-e47ff960b15c","0198b979-1f5e-7105-8b5f-48f920534529","{""num_scrambled_semantic"":""8"",""num_scrambled_causal"":""4"",""num_scrambled_schematic"":""4"",""participantId"":""4AB0A44753C54C48B0C3F735CD088259"",""assignmentId"":""0198b98c-eb2d-7536-9496-e47ff960b15c"",""projectId"":""0198b979-1f5e-7105-8b5f-48f920534529""}","https://test12345.live/?num_scrambled_semantic=8&num_scrambled_causal=4&num_scrambled_schematic=4&participantId=4AB0A44753C54C48B0C3F735CD088259&assignmentId=0198b98c-eb2d-7536-9496-e47ff960b15c&projectId=0198b979-1f5e-7105-8b5f-48f920534529","4AB0A44753C54C48B0C3F735CD088259-2025-08-17-20-23-12","[{""page_index"":0,""viewing_time"":4765}]","4765","","","","",""
"true","","","","","fullscreen","3","26423","0.0-3.0","4AB0A44753C54C48B0C3F735CD088259","4AB0A44753C54C48B0C3F735CD088259","0198b98c-eb2d-7536-9496-e47ff960b15c","0198b979-1f5e-7105-8b5f-48f920534529","{""num_scrambled_semantic"":""8"",""num_scrambled_causal"":""4"",""num_scrambled_schematic"":""4"",""participantId"":""4AB0A44753C54C48B0C3F735CD088259"",""assignmentId"":""0198b98c-eb2d-7536-9496-e47ff960b15c"",""projectId"":""0198b979-1f5e-7105-8b5f-48f920534529""}","https://test12345.live/?num_scrambled_semantic=8&num_scrambled_causal=4&num_scrambled_schematic=4&participantId=4AB0A44753C54C48B0C3F735CD088259&assignmentId=0198b98c-eb2d-7536-9496-e47ff960b15c&projectId=0198b979-1f5e-7105-8b5f-48f920534529","4AB0A44753C54C48B0C3F735CD088259-2025-08-17-20-23-12","","1415","","","","",""
"","","","","","initialize-microphone","4","37511","0.0-4.0-0.0","4AB0A44753C54C48B0C3F735CD088259","4AB0A44753C54C48B0C3F735CD088259","0198b98c-eb2d-7536-9496-e47ff960b15c","0198b979-1f5e-7105-8b5f-48f920534529","{""num_scrambled_semantic"":""8"",""num_scrambled_causal"":""4"",""num_scrambled_schematic"":""4"",""participantId"":""4AB0A44753C54C48B0C3F735CD088259"",""assignmentId"":""0198b98c-eb2d-7536-9496-e47ff960b15c"",""projectId"":""0198b979-1f5e-7105-8b5f-48f920534529""}","https://test12345.live/?num_scrambled_semantic=8&num_scrambled_causal=4&num_scrambled_schematic=4&participantId=4AB0A44753C54C48B0C3F735CD088259&assignmentId=0198b98c-eb2d-7536-9496-e47ff960b15c&projectId=0198b979-1f5e-7105-8b5f-48f920534529","4AB0A44753C54C48B0C3F735CD088259-2025-08-17-20-23-12","","","eb8ed87b70d31cac05d11dc7f4f3b6de3628e381d52363941578a1a62a971ebe","","","",""
"","","","","","html-audio-response","5","44554","0.0-4.0-1.0","4AB0A44753C54C48B0C3F735CD088259","4AB0A44753C54C48B0C3F735CD088259","0198b98c-eb2d-7536-9496-e47ff960b15c","0198b979-1f5e-7105-8b5f-48f920534529","{""num_scrambled_semantic"":""8"",""num_scrambled_causal"":""4"",""num_scrambled_schematic"":""4"",""participantId"":""4AB0A44753C54C48B0C3F735CD088259"",""assignmentId"":""0198b98c-eb2d-7536-9496-e47ff960b15c"",""projectId"":""0198b979-1f5e-7105-8b5f-48f920534529""}","https://test12345.live/?num_scrambled_semantic=8&num_scrambled_causal=4&num_scrambled_schematic=4&participantId=4AB0A44753C54C48B0C3F735CD088259&assignmentId=0198b98c-eb2d-7536-9496-e47ff960b15c&projectId=0198b979-1f5e-7105-8b5f-48f920534529","4AB0A44753C54C48B0C3F735CD088259-2025-08-17-20-23-12","","2482","","<span style=""color: red; font-size: 24px""> NOW RECORDING</span>
        <p>Please test Microphone</p>","","1",""
"","","","","","html-button-response","6","45905","0.0-4.0-2.0","4AB0A44753C54C48B0C3F735CD088259","4AB0A44753C54C48B0C3F735CD088259","0198b98c-eb2d-7536-9496-e47ff960b15c","0198b979-1f5e-7105-8b5f-48f920534529","{""num_scrambled_semantic"":""8"",""num_scrambled_causal"":""4"",""num_scrambled_schematic"":""4"",""participantId"":""4AB0A44753C54C48B0C3F735CD088259"",""assignmentId"":""0198b98c-eb2d-7536-9496-e47ff960b15c"",""projectId"":""0198b979-1f5e-7105-8b5f-48f920534529""}","https://test12345.live/?num_scrambled_semantic=8&num_scrambled_causal=4&num_scrambled_schematic=4&participantId=4AB0A44753C54C48B0C3F735CD088259&assignmentId=0198b98c-eb2d-7536-9496-e47ff960b15c&projectId=0198b979-1f5e-7105-8b5f-48f920534529","4AB0A44753C54C48B0C3F735CD088259-2025-08-17-20-23-12","","1348","","<p style=""font-size:48px; color:red;"">Is Microphone OK?</p>","1","",""
"","","","","","instructions","7","51407","0.0-5.0","4AB0A44753C54C48B0C3F735CD088259","4AB0A44753C54C48B0C3F735CD088259","0198b98c-eb2d-7536-9496-e47ff960b15c","0198b979-1f5e-7105-8b5f-48f920534529","{""num_scrambled_semantic"":""8"",""num_scrambled_causal"":""4"",""num_scrambled_schematic"":""4"",""participantId"":""4AB0A44753C54C48B0C3F735CD088259"",""assignmentId"":""0198b98c-eb2d-7536-9496-e47ff960b15c"",""projectId"":""0198b979-1f5e-7105-8b5f-48f920534529""}","https://test12345.live/?num_scrambled_semantic=8&num_scrambled_causal=4&num_scrambled_schematic=4&participantId=4AB0A44753C54C48B0C3F735CD088259&assignmentId=0198b98c-eb2d-7536-9496-e47ff960b15c&projectId=0198b979-1f5e-7105-8b5f-48f920534529","4AB0A44753C54C48B0C3F735CD088259-2025-08-17-20-23-12","[{""page_index"":0,""viewing_time"":3051},{""page_index"":1,""viewing_time"":2450}]","5501","","","","",""
"","","","","","image-button-response","8","57410","0.0-6.0-0.0","4AB0A44753C54C48B0C3F735CD088259","4AB0A44753C54C48B0C3F735CD088259","0198b98c-eb2d-7536-9496-e47ff960b15c","0198b979-1f5e-7105-8b5f-48f920534529","{""num_scrambled_semantic"":""8"",""num_scrambled_causal"":""4"",""num_scrambled_schematic"":""4"",""participantId"":""4AB0A44753C54C48B0C3F735CD088259"",""assignmentId"":""0198b98c-eb2d-7536-9496-e47ff960b15c"",""projectId"":""0198b979-1f5e-7105-8b5f-48f920534529""}","https://test12345.live/?num_scrambled_semantic=8&num_scrambled_causal=4&num_scrambled_schematic=4&participantId=4AB0A44753C54C48B0C3F735CD088259&assignmentId=0198b98c-eb2d-7536-9496-e47ff960b15c&projectId=0198b979-1f5e-7105-8b5f-48f920534529","4AB0A44753C54C48B0C3F735CD088259-2025-08-17-20-23-12","","null","","images/instructions/movie_0.png","null","",""
"","","","","","image-button-response","9","61914","0.0-6.0-1.0-0.0","4AB0A44753C54C48B0C3F735CD088259","4AB0A44753C54C48B0C3F735CD088259","0198b98c-eb2d-7536-9496-e47ff960b15c","0198b979-1f5e-7105-8b5f-48f920534529","{""num_scrambled_semantic"":""8"",""num_scrambled_causal"":""4"",""num_scrambled_schematic"":""4"",""participantId"":""4AB0A44753C54C48B0C3F735CD088259"",""assignmentId"":""0198b98c-eb2d-7536-9496-e47ff960b15c"",""projectId"":""0198b979-1f5e-7105-8b5f-48f920534529""}","https://test12345.live/?num_scrambled_semantic=8&num_scrambled_causal=4&num_scrambled_schematic=4&participantId=4AB0A44753C54C48B0C3F735CD088259&assignmentId=0198b98c-eb2d-7536-9496-e47ff960b15c&projectId=0198b979-1f5e-7105-8b5f-48f920534529","4AB0A44753C54C48B0C3F735CD088259-2025-08-17-20-23-12","","null","","images/instructions/movie_1.png","null","",""
"","","","","","image-button-response","10","63821","0.0-6.0-1.0-1.0","4AB0A44753C54C48B0C3F735CD088259","4AB0A44753C54C48B0C3F735CD088259","0198b98c-eb2d-7536-9496-e47ff960b15c","0198b979-1f5e-7105-8b5f-48f920534529","{""num_scrambled_semantic"":""8"",""num_scrambled_causal"":""4"",""num_scrambled_schematic"":""4"",""participantId"":""4AB0A44753C54C48B0C3F735CD088259"",""assignmentId"":""0198b98c-eb2d-7536-9496-e47ff960b15c"",""projectId"":""0198b979-1f5e-7105-8b5f-48f920534529""}","https://test12345.live/?num_scrambled_semantic=8&num_scrambled_causal=4&num_scrambled_schematic=4&participantId=4AB0A44753C54C48B0C3F735CD088259&assignmentId=0198b98c-eb2d-7536-9496-e47ff960b15c&projectId=0198b979-1f5e-7105-8b5f-48f920534529","4AB0A44753C54C48B0C3F735CD088259-2025-08-17-20-23-12","","1904","","images/instructions/movie_1.png","0","",""
"","","","","","image-button-response","11","69223","0.0-6.0-1.0-2.0","4AB0A44753C54C48B0C3F735CD088259","4AB0A44753C54C48B0C3F735CD088259","0198b98c-eb2d-7536-9496-e47ff960b15c","0198b979-1f5e-7105-8b5f-48f920534529","{""num_scrambled_semantic"":""8"",""num_scrambled_causal"":""4"",""num_scrambled_schematic"":""4"",""participantId"":""4AB0A44753C54C48B0C3F735CD088259"",""assignmentId"":""0198b98c-eb2d-7536-9496-e47ff960b15c"",""projectId"":""0198b979-1f5e-7105-8b5f-48f920534529""}","https://test12345.live/?num_scrambled_semantic=8&num_scrambled_causal=4&num_scrambled_schematic=4&participantId=4AB0A44753C54C48B0C3F735CD088259&assignmentId=0198b98c-eb2d-7536-9496-e47ff960b15c&projectId=0198b979-1f5e-7105-8b5f-48f920534529","4AB0A44753C54C48B0C3F735CD088259-2025-08-17-20-23-12","","null","","[]","null","",""
"","","","","","image-button-response","12","73729","0.0-6.0-1.0-0.1","4AB0A44753C54C48B0C3F735CD088259","4AB0A44753C54C48B0C3F735CD088259","0198b98c-eb2d-7536-9496-e47ff960b15c","0198b979-1f5e-7105-8b5f-48f920534529","{""num_scrambled_semantic"":""8"",""num_scrambled_causal"":""4"",""num_scrambled_schematic"":""4"",""participantId"":""4AB0A44753C54C48B0C3F735CD088259"",""assignmentId"":""0198b98c-eb2d-7536-9496-e47ff960b15c"",""projectId"":""0198b979-1f5e-7105-8b5f-48f920534529""}","https://test12345.live/?num_scrambled_semantic=8&num_scrambled_causal=4&num_scrambled_schematic=4&participantId=4AB0A44753C54C48B0C3F735CD088259&assignmentId=0198b98c-eb2d-7536-9496-e47ff960b15c&projectId=0198b979-1f5e-7105-8b5f-48f920534529","4AB0A44753C54C48B0C3F735CD088259-2025-08-17-20-23-12","","null","","images/instructions/movie_2.png","null","",""
"","","","","","image-button-response","13","75803","0.0-6.0-1.0-1.1","4AB0A44753C54C48B0C3F735CD088259","4AB0A44753C54C48B0C3F735CD088259","0198b98c-eb2d-7536-9496-e47ff960b15c","0198b979-1f5e-7105-8b5f-48f920534529","{""num_scrambled_semantic"":""8"",""num_scrambled_causal"":""4"",""num_scrambled_schematic"":""4"",""participantId"":""4AB0A44753C54C48B0C3F735CD088259"",""assignmentId"":""0198b98c-eb2d-7536-9496-e47ff960b15c"",""projectId"":""0198b979-1f5e-7105-8b5f-48f920534529""}","https://test12345.live/?num_scrambled_semantic=8&num_scrambled_causal=4&num_scrambled_schematic=4&participantId=4AB0A44753C54C48B0C3F735CD088259&assignmentId=0198b98c-eb2d-7536-9496-e47ff960b15c&projectId=0198b979-1f5e-7105-8b5f-48f920534529","4AB0A44753C54C48B0C3F735CD088259-2025-08-17-20-23-12","","2072","","images/instructions/movie_2.png","1","",""
"","","","","","image-button-response","14","81205","0.0-6.0-1.0-2.1","4AB0A44753C54C48B0C3F735CD088259","4AB0A44753C54C48B0C3F735CD088259","0198b98c-eb2d-7536-9496-e47ff960b15c","0198b979-1f5e-7105-8b5f-48f920534529","{""num_scrambled_semantic"":""8"",""num_scrambled_causal"":""4"",""num_scrambled_schematic"":""4"",""participantId"":""4AB0A44753C54C48B0C3F735CD088259"",""assignmentId"":""0198b98c-eb2d-7536-9496-e47ff960b15c"",""projectId"":""0198b979-1f5e-7105-8b5f-48f920534529""}","https://test12345.live/?num_scrambled_semantic=8&num_scrambled_causal=4&num_scrambled_schematic=4&participantId=4AB0A44753C54C48B0C3F735CD088259&assignmentId=0198b98c-eb2d-7536-9496-e47ff960b15c&projectId=0198b979-1f5e-7105-8b5f-48f920534529","4AB0A44753C54C48B0C3F735CD088259-2025-08-17-20-23-12","","null","","[]","null","",""
"","","","","","image-button-response","15","85709","0.0-6.0-1.0-0.2","4AB0A44753C54C48B0C3F735CD088259","4AB0A44753C54C48B0C3F735CD088259","0198b98c-eb2d-7536-9496-e47ff960b15c","0198b979-1f5e-7105-8b5f-48f920534529","{""num_scrambled_semantic"":""8"",""num_scrambled_causal"":""4"",""num_scrambled_schematic"":""4"",""participantId"":""4AB0A44753C54C48B0C3F735CD088259"",""assignmentId"":""0198b98c-eb2d-7536-9496-e47ff960b15c"",""projectId"":""0198b979-1f5e-7105-8b5f-48f920534529""}","https://test12345.live/?num_scrambled_semantic=8&num_scrambled_causal=4&num_scrambled_schematic=4&participantId=4AB0A44753C54C48B0C3F735CD088259&assignmentId=0198b98c-eb2d-7536-9496-e47ff960b15c&projectId=0198b979-1f5e-7105-8b5f-48f920534529","4AB0A44753C54C48B0C3F735CD088259-2025-08-17-20-23-12","","null","","images/instructions/movie_3.png","null","",""
"","","","","","image-button-response","16","87138","0.0-6.0-1.0-1.2","4AB0A44753C54C48B0C3F735CD088259","4AB0A44753C54C48B0C3F735CD088259","0198b98c-eb2d-7536-9496-e47ff960b15c","0198b979-1f5e-7105-8b5f-48f920534529","{""num_scrambled_semantic"":""8"",""num_scrambled_causal"":""4"",""num_scrambled_schematic"":""4"",""participantId"":""4AB0A44753C54C48B0C3F735CD088259"",""assignmentId"":""0198b98c-eb2d-7536-9496-e47ff960b15c"",""projectId"":""0198b979-1f5e-7105-8b5f-48f920534529""}","https://test12345.live/?num_scrambled_semantic=8&num_scrambled_causal=4&num_scrambled_schematic=4&participantId=4AB0A44753C54C48B0C3F735CD088259&assignmentId=0198b98c-eb2d-7536-9496-e47ff960b15c&projectId=0198b979-1f5e-7105-8b5f-48f920534529","4AB0A44753C54C48B0C3F735CD088259-2025-08-17-20-23-12","","1426","","images/instructions/movie_3.png","0","",""
"","","","","","image-button-response","17","92543","0.0-6.0-1.0-2.2","4AB0A44753C54C48B0C3F735CD088259","4AB0A44753C54C48B0C3F735CD088259","0198b98c-eb2d-7536-9496-e47ff960b15c","0198b979-1f5e-7105-8b5f-48f920534529","{""num_scrambled_semantic"":""8"",""num_scrambled_causal"":""4"",""num_scrambled_schematic"":""4"",""participantId"":""4AB0A44753C54C48B0C3F735CD088259"",""assignmentId"":""0198b98c-eb2d-7536-9496-e47ff960b15c"",""projectId"":""0198b979-1f5e-7105-8b5f-48f920534529""}","https://test12345.live/?num_scrambled_semantic=8&num_scrambled_causal=4&num_scrambled_schematic=4&participantId=4AB0A44753C54C48B0C3F735CD088259&assignmentId=0198b98c-eb2d-7536-9496-e47ff960b15c&projectId=0198b979-1f5e-7105-8b5f-48f920534529","4AB0A44753C54C48B0C3F735CD088259-2025-08-17-20-23-12","","null","","[]","null","",""
"","","","","","image-button-response","18","97049","0.0-6.0-1.0-0.3","4AB0A44753C54C48B0C3F735CD088259","4AB0A44753C54C48B0C3F735CD088259","0198b98c-eb2d-7536-9496-e47ff960b15c","0198b979-1f5e-7105-8b5f-48f920534529","{""num_scrambled_semantic"":""8"",""num_scrambled_causal"":""4"",""num_scrambled_schematic"":""4"",""participantId"":""4AB0A44753C54C48B0C3F735CD088259"",""assignmentId"":""0198b98c-eb2d-7536-9496-e47ff960b15c"",""projectId"":""0198b979-1f5e-7105-8b5f-48f920534529""}","https://test12345.live/?num_scrambled_semantic=8&num_scrambled_causal=4&num_scrambled_schematic=4&participantId=4AB0A44753C54C48B0C3F735CD088259&assignmentId=0198b98c-eb2d-7536-9496-e47ff960b15c&projectId=0198b979-1f5e-7105-8b5f-48f920534529","4AB0A44753C54C48B0C3F735CD088259-2025-08-17-20-23-12","","null","","images/instructions/movie_4.png","null","",""
"","","","","","image-button-response","19","97687","0.0-6.0-1.0-1.3","4AB0A44753C54C48B0C3F735CD088259","4AB0A44753C54C48B0C3F735CD088259","0198b98c-eb2d-7536-9496-e47ff960b15c","0198b979-1f5e-7105-8b5f-48f920534529","{""num_scrambled_semantic"":""8"",""num_scrambled_causal"":""4"",""num_scrambled_schematic"":""4"",""participantId"":""4AB0A44753C54C48B0C3F735CD088259"",""assignmentId"":""0198b98c-eb2d-7536-9496-e47ff960b15c"",""projectId"":""0198b979-1f5e-7105-8b5f-48f920534529""}","https://test12345.live/?num_scrambled_semantic=8&num_scrambled_causal=4&num_scrambled_schematic=4&participantId=4AB0A44753C54C48B0C3F735CD088259&assignmentId=0198b98c-eb2d-7536-9496-e47ff960b15c&projectId=0198b979-1f5e-7105-8b5f-48f920534529","4AB0A44753C54C48B0C3F735CD088259-2025-08-17-20-23-12","","636","","images/instructions/movie_4.png","0","",""
"","","","","","image-button-response","20","103092","0.0-6.0-1.0-2.3","4AB0A44753C54C48B0C3F735CD088259","4AB0A44753C54C48B0C3F735CD088259","0198b98c-eb2d-7536-9496-e47ff960b15c","0198b979-1f5e-7105-8b5f-48f920534529","{""num_scrambled_semantic"":""8"",""num_scrambled_causal"":""4"",""num_scrambled_schematic"":""4"",""participantId"":""4AB0A44753C54C48B0C3F735CD088259"",""assignmentId"":""0198b98c-eb2d-7536-9496-e47ff960b15c"",""projectId"":""0198b979-1f5e-7105-8b5f-48f920534529""}","https://test12345.live/?num_scrambled_semantic=8&num_scrambled_causal=4&num_scrambled_schematic=4&participantId=4AB0A44753C54C48B0C3F735CD088259&assignmentId=0198b98c-eb2d-7536-9496-e47ff960b15c&projectId=0198b979-1f5e-7105-8b5f-48f920534529","4AB0A44753C54C48B0C3F735CD088259-2025-08-17-20-23-12","","null","","[]","null","",""
"","","","","","instructions","21","111602","0.0-7.0","4AB0A44753C54C48B0C3F735CD088259","4AB0A44753C54C48B0C3F735CD088259","0198b98c-eb2d-7536-9496-e47ff960b15c","0198b979-1f5e-7105-8b5f-48f920534529","{""num_scrambled_semantic"":""8"",""num_scrambled_causal"":""4"",""num_scrambled_schematic"":""4"",""participantId"":""4AB0A44753C54C48B0C3F735CD088259"",""assignmentId"":""0198b98c-eb2d-7536-9496-e47ff960b15c"",""projectId"":""0198b979-1f5e-7105-8b5f-48f920534529""}","https://test12345.live/?num_scrambled_semantic=8&num_scrambled_causal=4&num_scrambled_schematic=4&participantId=4AB0A44753C54C48B0C3F735CD088259&assignmentId=0198b98c-eb2d-7536-9496-e47ff960b15c&projectId=0198b979-1f5e-7105-8b5f-48f920534529","4AB0A44753C54C48B0C3F735CD088259-2025-08-17-20-23-12","[{""page_index"":0,""viewing_time"":7376},{""page_index"":1,""viewing_time"":1133}]","8510","","","","",""
"","","","","","html-audio-response","22","167402","0.0-8.0","4AB0A44753C54C48B0C3F735CD088259","4AB0A44753C54C48B0C3F735CD088259","0198b98c-eb2d-7536-9496-e47ff960b15c","0198b979-1f5e-7105-8b5f-48f920534529","{""num_scrambled_semantic"":""8"",""num_scrambled_causal"":""4"",""num_scrambled_schematic"":""4"",""participantId"":""4AB0A44753C54C48B0C3F735CD088259"",""assignmentId"":""0198b98c-eb2d-7536-9496-e47ff960b15c"",""projectId"":""0198b979-1f5e-7105-8b5f-48f920534529""}","https://test12345.live/?num_scrambled_semantic=8&num_scrambled_causal=4&num_scrambled_schematic=4&participantId=4AB0A44753C54C48B0C3F735CD088259&assignmentId=0198b98c-eb2d-7536-9496-e47ff960b15c&projectId=0198b979-1f5e-7105-8b5f-48f920534529","4AB0A44753C54C48B0C3F735CD088259-2025-08-17-20-23-12","","22139","","[""<span style=\""color: red; font-size: 24px\""> NOW RECORDING</span><p>Please say out loud all the images you saw, as many as you can remember. The images can be said in any order.</p>""]","","2",""
"","","","","","instructions","23","168569","0.0-9.0","4AB0A44753C54C48B0C3F735CD088259","4AB0A44753C54C48B0C3F735CD088259","0198b98c-eb2d-7536-9496-e47ff960b15c","0198b979-1f5e-7105-8b5f-48f920534529","{""num_scrambled_semantic"":""8"",""num_scrambled_causal"":""4"",""num_scrambled_schematic"":""4"",""participantId"":""4AB0A44753C54C48B0C3F735CD088259"",""assignmentId"":""0198b98c-eb2d-7536-9496-e47ff960b15c"",""projectId"":""0198b979-1f5e-7105-8b5f-48f920534529""}","https://test12345.live/?num_scrambled_semantic=8&num_scrambled_causal=4&num_scrambled_schematic=4&participantId=4AB0A44753C54C48B0C3F735CD088259&assignmentId=0198b98c-eb2d-7536-9496-e47ff960b15c&projectId=0198b979-1f5e-7105-8b5f-48f920534529","4AB0A44753C54C48B0C3F735CD088259-2025-08-17-20-23-12","[{""page_index"":0,""viewing_time"":1162}]","1162","","","","",""
"","","","","","image-button-response","24","174570","0.0-10.0-0.0","4AB0A44753C54C48B0C3F735CD088259","4AB0A44753C54C48B0C3F735CD088259","0198b98c-eb2d-7536-9496-e47ff960b15c","0198b979-1f5e-7105-8b5f-48f920534529","{""num_scrambled_semantic"":""8"",""num_scrambled_causal"":""4"",""num_scrambled_schematic"":""4"",""participantId"":""4AB0A44753C54C48B0C3F735CD088259"",""assignmentId"":""0198b98c-eb2d-7536-9496-e47ff960b15c"",""projectId"":""0198b979-1f5e-7105-8b5f-48f920534529""}","https://test12345.live/?num_scrambled_semantic=8&num_scrambled_causal=4&num_scrambled_schematic=4&participantId=4AB0A44753C54C48B0C3F735CD088259&assignmentId=0198b98c-eb2d-7536-9496-e47ff960b15c&projectId=0198b979-1f5e-7105-8b5f-48f920534529","4AB0A44753C54C48B0C3F735CD088259-2025-08-17-20-23-12","","null","","images/causal_sequence/museum_causal/museum_causal_0.png","null","",""
"","","","","","image-button-response","25","179074","0.0-10.0-1.0-0.0","4AB0A44753C54C48B0C3F735CD088259","4AB0A44753C54C48B0C3F735CD088259","0198b98c-eb2d-7536-9496-e47ff960b15c","0198b979-1f5e-7105-8b5f-48f920534529","{""num_scrambled_semantic"":""8"",""num_scrambled_causal"":""4"",""num_scrambled_schematic"":""4"",""participantId"":""4AB0A44753C54C48B0C3F735CD088259"",""assignmentId"":""0198b98c-eb2d-7536-9496-e47ff960b15c"",""projectId"":""0198b979-1f5e-7105-8b5f-48f920534529""}","https://test12345.live/?num_scrambled_semantic=8&num_scrambled_causal=4&num_scrambled_schematic=4&participantId=4AB0A44753C54C48B0C3F735CD088259&assignmentId=0198b98c-eb2d-7536-9496-e47ff960b15c&projectId=0198b979-1f5e-7105-8b5f-48f920534529","4AB0A44753C54C48B0C3F735CD088259-2025-08-17-20-23-12","","null","","images/causal_sequence/museum_causal/museum_causal_9.png","null","",""
"","","","","","image-button-response","26","182035","0.0-10.0-1.0-1.0","4AB0A44753C54C48B0C3F735CD088259","4AB0A44753C54C48B0C3F735CD088259","0198b98c-eb2d-7536-9496-e47ff960b15c","0198b979-1f5e-7105-8b5f-48f920534529","{""num_scrambled_semantic"":""8"",""num_scrambled_causal"":""4"",""num_scrambled_schematic"":""4"",""participantId"":""4AB0A44753C54C48B0C3F735CD088259"",""assignmentId"":""0198b98c-eb2d-7536-9496-e47ff960b15c"",""projectId"":""0198b979-1f5e-7105-8b5f-48f920534529""}","https://test12345.live/?num_scrambled_semantic=8&num_scrambled_causal=4&num_scrambled_schematic=4&participantId=4AB0A44753C54C48B0C3F735CD088259&assignmentId=0198b98c-eb2d-7536-9496-e47ff960b15c&projectId=0198b979-1f5e-7105-8b5f-48f920534529","4AB0A44753C54C48B0C3F735CD088259-2025-08-17-20-23-12","","2959","","images/causal_sequence/museum_causal/museum_causal_9.png","1","",""
"","","","","","image-button-response","27","187438","0.0-10.0-1.0-2.0","4AB0A44753C54C48B0C3F735CD088259","4AB0A44753C54C48B0C3F735CD088259","0198b98c-eb2d-7536-9496-e47ff960b15c","0198b979-1f5e-7105-8b5f-48f920534529","{""num_scrambled_semantic"":""8"",""num_scrambled_causal"":""4"",""num_scrambled_schematic"":""4"",""participantId"":""4AB0A44753C54C48B0C3F735CD088259"",""assignmentId"":""0198b98c-eb2d-7536-9496-e47ff960b15c"",""projectId"":""0198b979-1f5e-7105-8b5f-48f920534529""}","https://test12345.live/?num_scrambled_semantic=8&num_scrambled_causal=4&num_scrambled_schematic=4&participantId=4AB0A44753C54C48B0C3F735CD088259&assignmentId=0198b98c-eb2d-7536-9496-e47ff960b15c&projectId=0198b979-1f5e-7105-8b5f-48f920534529","4AB0A44753C54C48B0C3F735CD088259-2025-08-17-20-23-12","","null","","[]","null","",""
"","","","","","image-button-response","28","191945","0.0-10.0-1.0-0.1","4AB0A44753C54C48B0C3F735CD088259","4AB0A44753C54C48B0C3F735CD088259","0198b98c-eb2d-7536-9496-e47ff960b15c","0198b979-1f5e-7105-8b5f-48f920534529","{""num_scrambled_semantic"":""8"",""num_scrambled_causal"":""4"",""num_scrambled_schematic"":""4"",""participantId"":""4AB0A44753C54C48B0C3F735CD088259"",""assignmentId"":""0198b98c-eb2d-7536-9496-e47ff960b15c"",""projectId"":""0198b979-1f5e-7105-8b5f-48f920534529""}","https://test12345.live/?num_scrambled_semantic=8&num_scrambled_causal=4&num_scrambled_schematic=4&participantId=4AB0A44753C54C48B0C3F735CD088259&assignmentId=0198b98c-eb2d-7536-9496-e47ff960b15c&projectId=0198b979-1f5e-7105-8b5f-48f920534529","4AB0A44753C54C48B0C3F735CD088259-2025-08-17-20-23-12","","null","","images/causal_sequence/museum_causal/museum_causal_1.png","null","",""
"","","","","","image-button-response","29","194202","0.0-10.0-1.0-1.1","4AB0A44753C54C48B0C3F735CD088259","4AB0A44753C54C48B0C3F735CD088259","0198b98c-eb2d-7536-9496-e47ff960b15c","0198b979-1f5e-7105-8b5f-48f920534529","{""num_scrambled_semantic"":""8"",""num_scrambled_causal"":""4"",""num_scrambled_schematic"":""4"",""participantId"":""4AB0A44753C54C48B0C3F735CD088259"",""assignmentId"":""0198b98c-eb2d-7536-9496-e47ff960b15c"",""projectId"":""0198b979-1f5e-7105-8b5f-48f920534529""}","https://test12345.live/?num_scrambled_semantic=8&num_scrambled_causal=4&num_scrambled_schematic=4&participantId=4AB0A44753C54C48B0C3F735CD088259&assignmentId=0198b98c-eb2d-7536-9496-e47ff960b15c&projectId=0198b979-1f5e-7105-8b5f-48f920534529","4AB0A44753C54C48B0C3F735CD088259-2025-08-17-20-23-12","","2255","","images/causal_sequence/museum_causal/museum_causal_1.png","0","",""
"","","","","","image-button-response","30","199607","0.0-10.0-1.0-2.1","4AB0A44753C54C48B0C3F735CD088259","4AB0A44753C54C48B0C3F735CD088259","0198b98c-eb2d-7536-9496-e47ff960b15c","0198b979-1f5e-7105-8b5f-48f920534529","{""num_scrambled_semantic"":""8"",""num_scrambled_causal"":""4"",""num_scrambled_schematic"":""4"",""participantId"":""4AB0A44753C54C48B0C3F735CD088259"",""assignmentId"":""0198b98c-eb2d-7536-9496-e47ff960b15c"",""projectId"":""0198b979-1f5e-7105-8b5f-48f920534529""}","https://test12345.live/?num_scrambled_semantic=8&num_scrambled_causal=4&num_scrambled_schematic=4&participantId=4AB0A44753C54C48B0C3F735CD088259&assignmentId=0198b98c-eb2d-7536-9496-e47ff960b15c&projectId=0198b979-1f5e-7105-8b5f-48f920534529","4AB0A44753C54C48B0C3F735CD088259-2025-08-17-20-23-12","","null","","[]","null","",""
"","","","","","image-button-response","31","204111","0.0-10.0-1.0-0.2","4AB0A44753C54C48B0C3F735CD088259","4AB0A44753C54C48B0C3F735CD088259","0198b98c-eb2d-7536-9496-e47ff960b15c","0198b979-1f5e-7105-8b5f-48f920534529","{""num_scrambled_semantic"":""8"",""num_scrambled_causal"":""4"",""num_scrambled_schematic"":""4"",""participantId"":""4AB0A44753C54C48B0C3F735CD088259"",""assignmentId"":""0198b98c-eb2d-7536-9496-e47ff960b15c"",""projectId"":""0198b979-1f5e-7105-8b5f-48f920534529""}","https://test12345.live/?num_scrambled_semantic=8&num_scrambled_causal=4&num_scrambled_schematic=4&participantId=4AB0A44753C54C48B0C3F735CD088259&assignmentId=0198b98c-eb2d-7536-9496-e47ff960b15c&projectId=0198b979-1f5e-7105-8b5f-48f920534529","4AB0A44753C54C48B0C3F735CD088259-2025-08-17-20-23-12","","null","","images/causal_sequence/museum_causal/museum_causal_ten.png","null","",""
"","","","","","image-button-response","32","205435","0.0-10.0-1.0-1.2","4AB0A44753C54C48B0C3F735CD088259","4AB0A44753C54C48B0C3F735CD088259","0198b98c-eb2d-7536-9496-e47ff960b15c","0198b979-1f5e-7105-8b5f-48f920534529","{""num_scrambled_semantic"":""8"",""num_scrambled_causal"":""4"",""num_scrambled_schematic"":""4"",""participantId"":""4AB0A44753C54C48B0C3F735CD088259"",""assignmentId"":""0198b98c-eb2d-7536-9496-e47ff960b15c"",""projectId"":""0198b979-1f5e-7105-8b5f-48f920534529""}","https://test12345.live/?num_scrambled_semantic=8&num_scrambled_causal=4&num_scrambled_schematic=4&participantId=4AB0A44753C54C48B0C3F735CD088259&assignmentId=0198b98c-eb2d-7536-9496-e47ff960b15c&projectId=0198b979-1f5e-7105-8b5f-48f920534529","4AB0A44753C54C48B0C3F735CD088259-2025-08-17-20-23-12","","1323","","images/causal_sequence/museum_causal/museum_causal_ten.png","0","",""
"","","","","","image-button-response","33","210842","0.0-10.0-1.0-2.2","4AB0A44753C54C48B0C3F735CD088259","4AB0A44753C54C48B0C3F735CD088259","0198b98c-eb2d-7536-9496-e47ff960b15c","0198b979-1f5e-7105-8b5f-48f920534529","{""num_scrambled_semantic"":""8"",""num_scrambled_causal"":""4"",""num_scrambled_schematic"":""4"",""participantId"":""4AB0A44753C54C48B0C3F735CD088259"",""assignmentId"":""0198b98c-eb2d-7536-9496-e47ff960b15c"",""projectId"":""0198b979-1f5e-7105-8b5f-48f920534529""}","https://test12345.live/?num_scrambled_semantic=8&num_scrambled_causal=4&num_scrambled_schematic=4&participantId=4AB0A44753C54C48B0C3F735CD088259&assignmentId=0198b98c-eb2d-7536-9496-e47ff960b15c&projectId=0198b979-1f5e-7105-8b5f-48f920534529","4AB0A44753C54C48B0C3F735CD088259-2025-08-17-20-23-12","","null","","[]","null","",""
"","","","","","image-button-response","34","215348","0.0-10.0-1.0-0.3","4AB0A44753C54C48B0C3F735CD088259","4AB0A44753C54C48B0C3F735CD088259","0198b98c-eb2d-7536-9496-e47ff960b15c","0198b979-1f5e-7105-8b5f-48f920534529","{""num_scrambled_semantic"":""8"",""num_scrambled_causal"":""4"",""num_scrambled_schematic"":""4"",""participantId"":""4AB0A44753C54C48B0C3F735CD088259"",""assignmentId"":""0198b98c-eb2d-7536-9496-e47ff960b15c"",""projectId"":""0198b979-1f5e-7105-8b5f-48f920534529""}","https://test12345.live/?num_scrambled_semantic=8&num_scrambled_causal=4&num_scrambled_schematic=4&participantId=4AB0A44753C54C48B0C3F735CD088259&assignmentId=0198b98c-eb2d-7536-9496-e47ff960b15c&projectId=0198b979-1f5e-7105-8b5f-48f920534529","4AB0A44753C54C48B0C3F735CD088259-2025-08-17-20-23-12","","null","","images/causal_sequence/museum_causal/museum_causal_2.png","null","",""
"","","","","","image-button-response","35","218686","0.0-10.0-1.0-1.3","4AB0A44753C54C48B0C3F735CD088259","4AB0A44753C54C48B0C3F735CD088259","0198b98c-eb2d-7536-9496-e47ff960b15c","0198b979-1f5e-7105-8b5f-48f920534529","{""num_scrambled_semantic"":""8"",""num_scrambled_causal"":""4"",""num_scrambled_schematic"":""4"",""participantId"":""4AB0A44753C54C48B0C3F735CD088259"",""assignmentId"":""0198b98c-eb2d-7536-9496-e47ff960b15c"",""projectId"":""0198b979-1f5e-7105-8b5f-48f920534529""}","https://test12345.live/?num_scrambled_semantic=8&num_scrambled_causal=4&num_scrambled_schematic=4&participantId=4AB0A44753C54C48B0C3F735CD088259&assignmentId=0198b98c-eb2d-7536-9496-e47ff960b15c&projectId=0198b979-1f5e-7105-8b5f-48f920534529","4AB0A44753C54C48B0C3F735CD088259-2025-08-17-20-23-12","","3337","","images/causal_sequence/museum_causal/museum_causal_2.png","1","",""
"","","","","","image-button-response","36","224090","0.0-10.0-1.0-2.3","4AB0A44753C54C48B0C3F735CD088259","4AB0A44753C54C48B0C3F735CD088259","0198b98c-eb2d-7536-9496-e47ff960b15c","0198b979-1f5e-7105-8b5f-48f920534529","{""num_scrambled_semantic"":""8"",""num_scrambled_causal"":""4"",""num_scrambled_schematic"":""4"",""participantId"":""4AB0A44753C54C48B0C3F735CD088259"",""assignmentId"":""0198b98c-eb2d-7536-9496-e47ff960b15c"",""projectId"":""0198b979-1f5e-7105-8b5f-48f920534529""}","https://test12345.live/?num_scrambled_semantic=8&num_scrambled_causal=4&num_scrambled_schematic=4&participantId=4AB0A44753C54C48B0C3F735CD088259&assignmentId=0198b98c-eb2d-7536-9496-e47ff960b15c&projectId=0198b979-1f5e-7105-8b5f-48f920534529","4AB0A44753C54C48B0C3F735CD088259-2025-08-17-20-23-12","","null","","[]","null","",""
"","","","","","image-button-response","37","228595","0.0-10.0-1.0-0.4","4AB0A44753C54C48B0C3F735CD088259","4AB0A44753C54C48B0C3F735CD088259","0198b98c-eb2d-7536-9496-e47ff960b15c","0198b979-1f5e-7105-8b5f-48f920534529","{""num_scrambled_semantic"":""8"",""num_scrambled_causal"":""4"",""num_scrambled_schematic"":""4"",""participantId"":""4AB0A44753C54C48B0C3F735CD088259"",""assignmentId"":""0198b98c-eb2d-7536-9496-e47ff960b15c"",""projectId"":""0198b979-1f5e-7105-8b5f-48f920534529""}","https://test12345.live/?num_scrambled_semantic=8&num_scrambled_causal=4&num_scrambled_schematic=4&participantId=4AB0A44753C54C48B0C3F735CD088259&assignmentId=0198b98c-eb2d-7536-9496-e47ff960b15c&projectId=0198b979-1f5e-7105-8b5f-48f920534529","4AB0A44753C54C48B0C3F735CD088259-2025-08-17-20-23-12","","null","","images/causal_sequence/museum_causal/museum_causal_3.png","null","",""
"","","","","","image-button-response","38","231218","0.0-10.0-1.0-1.4","4AB0A44753C54C48B0C3F735CD088259","4AB0A44753C54C48B0C3F735CD088259","0198b98c-eb2d-7536-9496-e47ff960b15c","0198b979-1f5e-7105-8b5f-48f920534529","{""num_scrambled_semantic"":""8"",""num_scrambled_causal"":""4"",""num_scrambled_schematic"":""4"",""participantId"":""4AB0A44753C54C48B0C3F735CD088259"",""assignmentId"":""0198b98c-eb2d-7536-9496-e47ff960b15c"",""projectId"":""0198b979-1f5e-7105-8b5f-48f920534529""}","https://test12345.live/?num_scrambled_semantic=8&num_scrambled_causal=4&num_scrambled_schematic=4&participantId=4AB0A44753C54C48B0C3F735CD088259&assignmentId=0198b98c-eb2d-7536-9496-e47ff960b15c&projectId=0198b979-1f5e-7105-8b5f-48f920534529","4AB0A44753C54C48B0C3F735CD088259-2025-08-17-20-23-12","","2621","","images/causal_sequence/museum_causal/museum_causal_3.png","0","",""
"","","","","","image-button-response","39","236621","0.0-10.0-1.0-2.4","4AB0A44753C54C48B0C3F735CD088259","4AB0A44753C54C48B0C3F735CD088259","0198b98c-eb2d-7536-9496-e47ff960b15c","0198b979-1f5e-7105-8b5f-48f920534529","{""num_scrambled_semantic"":""8"",""num_scrambled_causal"":""4"",""num_scrambled_schematic"":""4"",""participantId"":""4AB0A44753C54C48B0C3F735CD088259"",""assignmentId"":""0198b98c-eb2d-7536-9496-e47ff960b15c"",""projectId"":""0198b979-1f5e-7105-8b5f-48f920534529""}","https://test12345.live/?num_scrambled_semantic=8&num_scrambled_causal=4&num_scrambled_schematic=4&participantId=4AB0A44753C54C48B0C3F735CD088259&assignmentId=0198b98c-eb2d-7536-9496-e47ff960b15c&projectId=0198b979-1f5e-7105-8b5f-48f920534529","4AB0A44753C54C48B0C3F735CD088259-2025-08-17-20-23-12","","null","","[]","null","",""
"","","","","","image-button-response","40","241126","0.0-10.0-1.0-0.5","4AB0A44753C54C48B0C3F735CD088259","4AB0A44753C54C48B0C3F735CD088259","0198b98c-eb2d-7536-9496-e47ff960b15c","0198b979-1f5e-7105-8b5f-48f920534529","{""num_scrambled_semantic"":""8"",""num_scrambled_causal"":""4"",""num_scrambled_schematic"":""4"",""participantId"":""4AB0A44753C54C48B0C3F735CD088259"",""assignmentId"":""0198b98c-eb2d-7536-9496-e47ff960b15c"",""projectId"":""0198b979-1f5e-7105-8b5f-48f920534529""}","https://test12345.live/?num_scrambled_semantic=8&num_scrambled_causal=4&num_scrambled_schematic=4&participantId=4AB0A44753C54C48B0C3F735CD088259&assignmentId=0198b98c-eb2d-7536-9496-e47ff960b15c&projectId=0198b979-1f5e-7105-8b5f-48f920534529","4AB0A44753C54C48B0C3F735CD088259-2025-08-17-20-23-12","","null","","images/causal_sequence/museum_causal/museum_causal_5.png","null","",""
"","","","","","image-button-response","41","242385","0.0-10.0-1.0-1.5","4AB0A44753C54C48B0C3F735CD088259","4AB0A44753C54C48B0C3F735CD088259","0198b98c-eb2d-7536-9496-e47ff960b15c","0198b979-1f5e-7105-8b5f-48f920534529","{""num_scrambled_semantic"":""8"",""num_scrambled_causal"":""4"",""num_scrambled_schematic"":""4"",""participantId"":""4AB0A44753C54C48B0C3F735CD088259"",""assignmentId"":""0198b98c-eb2d-7536-9496-e47ff960b15c"",""projectId"":""0198b979-1f5e-7105-8b5f-48f920534529""}","https://test12345.live/?num_scrambled_semantic=8&num_scrambled_causal=4&num_scrambled_schematic=4&participantId=4AB0A44753C54C48B0C3F735CD088259&assignmentId=0198b98c-eb2d-7536-9496-e47ff960b15c&projectId=0198b979-1f5e-7105-8b5f-48f920534529","4AB0A44753C54C48B0C3F735CD088259-2025-08-17-20-23-12","","1256","","images/causal_sequence/museum_causal/museum_causal_5.png","0","",""
"","","","","","image-button-response","42","247790","0.0-10.0-1.0-2.5","4AB0A44753C54C48B0C3F735CD088259","4AB0A44753C54C48B0C3F735CD088259","0198b98c-eb2d-7536-9496-e47ff960b15c","0198b979-1f5e-7105-8b5f-48f920534529","{""num_scrambled_semantic"":""8"",""num_scrambled_causal"":""4"",""num_scrambled_schematic"":""4"",""participantId"":""4AB0A44753C54C48B0C3F735CD088259"",""assignmentId"":""0198b98c-eb2d-7536-9496-e47ff960b15c"",""projectId"":""0198b979-1f5e-7105-8b5f-48f920534529""}","https://test12345.live/?num_scrambled_semantic=8&num_scrambled_causal=4&num_scrambled_schematic=4&participantId=4AB0A44753C54C48B0C3F735CD088259&assignmentId=0198b98c-eb2d-7536-9496-e47ff960b15c&projectId=0198b979-1f5e-7105-8b5f-48f920534529","4AB0A44753C54C48B0C3F735CD088259-2025-08-17-20-23-12","","null","","[]","null","",""
"","","","","","image-button-response","43","252296","0.0-10.0-1.0-0.6","4AB0A44753C54C48B0C3F735CD088259","4AB0A44753C54C48B0C3F735CD088259","0198b98c-eb2d-7536-9496-e47ff960b15c","0198b979-1f5e-7105-8b5f-48f920534529","{""num_scrambled_semantic"":""8"",""num_scrambled_causal"":""4"",""num_scrambled_schematic"":""4"",""participantId"":""4AB0A44753C54C48B0C3F735CD088259"",""assignmentId"":""0198b98c-eb2d-7536-9496-e47ff960b15c"",""projectId"":""0198b979-1f5e-7105-8b5f-48f920534529""}","https://test12345.live/?num_scrambled_semantic=8&num_scrambled_causal=4&num_scrambled_schematic=4&participantId=4AB0A44753C54C48B0C3F735CD088259&assignmentId=0198b98c-eb2d-7536-9496-e47ff960b15c&projectId=0198b979-1f5e-7105-8b5f-48f920534529","4AB0A44753C54C48B0C3F735CD088259-2025-08-17-20-23-12","","null","","images/causal_sequence/museum_causal/museum_causal_4.png","null","",""
"","","","","","image-button-response","44","254068","0.0-10.0-1.0-1.6","4AB0A44753C54C48B0C3F735CD088259","4AB0A44753C54C48B0C3F735CD088259","0198b98c-eb2d-7536-9496-e47ff960b15c","0198b979-1f5e-7105-8b5f-48f920534529","{""num_scrambled_semantic"":""8"",""num_scrambled_causal"":""4"",""num_scrambled_schematic"":""4"",""participantId"":""4AB0A44753C54C48B0C3F735CD088259"",""assignmentId"":""0198b98c-eb2d-7536-9496-e47ff960b15c"",""projectId"":""0198b979-1f5e-7105-8b5f-48f920534529""}","https://test12345.live/?num_scrambled_semantic=8&num_scrambled_causal=4&num_scrambled_schematic=4&participantId=4AB0A44753C54C48B0C3F735CD088259&assignmentId=0198b98c-eb2d-7536-9496-e47ff960b15c&projectId=0198b979-1f5e-7105-8b5f-48f920534529","4AB0A44753C54C48B0C3F735CD088259-2025-08-17-20-23-12","","1769","","images/causal_sequence/museum_causal/museum_causal_4.png","1","",""
"","","","","","image-button-response","45","259470","0.0-10.0-1.0-2.6","4AB0A44753C54C48B0C3F735CD088259","4AB0A44753C54C48B0C3F735CD088259","0198b98c-eb2d-7536-9496-e47ff960b15c","0198b979-1f5e-7105-8b5f-48f920534529","{""num_scrambled_semantic"":""8"",""num_scrambled_causal"":""4"",""num_scrambled_schematic"":""4"",""participantId"":""4AB0A44753C54C48B0C3F735CD088259"",""assignmentId"":""0198b98c-eb2d-7536-9496-e47ff960b15c"",""projectId"":""0198b979-1f5e-7105-8b5f-48f920534529""}","https://test12345.live/?num_scrambled_semantic=8&num_scrambled_causal=4&num_scrambled_schematic=4&participantId=4AB0A44753C54C48B0C3F735CD088259&assignmentId=0198b98c-eb2d-7536-9496-e47ff960b15c&projectId=0198b979-1f5e-7105-8b5f-48f920534529","4AB0A44753C54C48B0C3F735CD088259-2025-08-17-20-23-12","","null","","[]","null","",""
"","","","","","image-button-response","46","263975","0.0-10.0-1.0-0.7","4AB0A44753C54C48B0C3F735CD088259","4AB0A44753C54C48B0C3F735CD088259","0198b98c-eb2d-7536-9496-e47ff960b15c","0198b979-1f5e-7105-8b5f-48f920534529","{""num_scrambled_semantic"":""8"",""num_scrambled_causal"":""4"",""num_scrambled_schematic"":""4"",""participantId"":""4AB0A44753C54C48B0C3F735CD088259"",""assignmentId"":""0198b98c-eb2d-7536-9496-e47ff960b15c"",""projectId"":""0198b979-1f5e-7105-8b5f-48f920534529""}","https://test12345.live/?num_scrambled_semantic=8&num_scrambled_causal=4&num_scrambled_schematic=4&participantId=4AB0A44753C54C48B0C3F735CD088259&assignmentId=0198b98c-eb2d-7536-9496-e47ff960b15c&projectId=0198b979-1f5e-7105-8b5f-48f920534529","4AB0A44753C54C48B0C3F735CD088259-2025-08-17-20-23-12","","null","","images/causal_sequence/museum_causal/museum_causal_7.png","null","",""
"","","","","","image-button-response","47","265284","0.0-10.0-1.0-1.7","4AB0A44753C54C48B0C3F735CD088259","4AB0A44753C54C48B0C3F735CD088259","0198b98c-eb2d-7536-9496-e47ff960b15c","0198b979-1f5e-7105-8b5f-48f920534529","{""num_scrambled_semantic"":""8"",""num_scrambled_causal"":""4"",""num_scrambled_schematic"":""4"",""participantId"":""4AB0A44753C54C48B0C3F735CD088259"",""assignmentId"":""0198b98c-eb2d-7536-9496-e47ff960b15c"",""projectId"":""0198b979-1f5e-7105-8b5f-48f920534529""}","https://test12345.live/?num_scrambled_semantic=8&num_scrambled_causal=4&num_scrambled_schematic=4&participantId=4AB0A44753C54C48B0C3F735CD088259&assignmentId=0198b98c-eb2d-7536-9496-e47ff960b15c&projectId=0198b979-1f5e-7105-8b5f-48f920534529","4AB0A44753C54C48B0C3F735CD088259-2025-08-17-20-23-12","","1307","","images/causal_sequence/museum_causal/museum_causal_7.png","1","",""
"","","","","","image-button-response","48","270686","0.0-10.0-1.0-2.7","4AB0A44753C54C48B0C3F735CD088259","4AB0A44753C54C48B0C3F735CD088259","0198b98c-eb2d-7536-9496-e47ff960b15c","0198b979-1f5e-7105-8b5f-48f920534529","{""num_scrambled_semantic"":""8"",""num_scrambled_causal"":""4"",""num_scrambled_schematic"":""4"",""participantId"":""4AB0A44753C54C48B0C3F735CD088259"",""assignmentId"":""0198b98c-eb2d-7536-9496-e47ff960b15c"",""projectId"":""0198b979-1f5e-7105-8b5f-48f920534529""}","https://test12345.live/?num_scrambled_semantic=8&num_scrambled_causal=4&num_scrambled_schematic=4&participantId=4AB0A44753C54C48B0C3F735CD088259&assignmentId=0198b98c-eb2d-7536-9496-e47ff960b15c&projectId=0198b979-1f5e-7105-8b5f-48f920534529","4AB0A44753C54C48B0C3F735CD088259-2025-08-17-20-23-12","","null","","[]","null","",""
"","","","","","image-button-response","49","275187","0.0-10.0-1.0-0.8","4AB0A44753C54C48B0C3F735CD088259","4AB0A44753C54C48B0C3F735CD088259","0198b98c-eb2d-7536-9496-e47ff960b15c","0198b979-1f5e-7105-8b5f-48f920534529","{""num_scrambled_semantic"":""8"",""num_scrambled_causal"":""4"",""num_scrambled_schematic"":""4"",""participantId"":""4AB0A44753C54C48B0C3F735CD088259"",""assignmentId"":""0198b98c-eb2d-7536-9496-e47ff960b15c"",""projectId"":""0198b979-1f5e-7105-8b5f-48f920534529""}","https://test12345.live/?num_scrambled_semantic=8&num_scrambled_causal=4&num_scrambled_schematic=4&participantId=4AB0A44753C54C48B0C3F735CD088259&assignmentId=0198b98c-eb2d-7536-9496-e47ff960b15c&projectId=0198b979-1f5e-7105-8b5f-48f920534529","4AB0A44753C54C48B0C3F735CD088259-2025-08-17-20-23-12","","null","","images/causal_sequence/museum_causal/museum_causal_6.png","null","",""
"","","","","","image-button-response","50","276485","0.0-10.0-1.0-1.8","4AB0A44753C54C48B0C3F735CD088259","4AB0A44753C54C48B0C3F735CD088259","0198b98c-eb2d-7536-9496-e47ff960b15c","0198b979-1f5e-7105-8b5f-48f920534529","{""num_scrambled_semantic"":""8"",""num_scrambled_causal"":""4"",""num_scrambled_schematic"":""4"",""participantId"":""4AB0A44753C54C48B0C3F735CD088259"",""assignmentId"":""0198b98c-eb2d-7536-9496-e47ff960b15c"",""projectId"":""0198b979-1f5e-7105-8b5f-48f920534529""}","https://test12345.live/?num_scrambled_semantic=8&num_scrambled_causal=4&num_scrambled_schematic=4&participantId=4AB0A44753C54C48B0C3F735CD088259&assignmentId=0198b98c-eb2d-7536-9496-e47ff960b15c&projectId=0198b979-1f5e-7105-8b5f-48f920534529","4AB0A44753C54C48B0C3F735CD088259-2025-08-17-20-23-12","","1296","","images/causal_sequence/museum_causal/museum_causal_6.png","0","",""
"","","","","","image-button-response","51","281891","0.0-10.0-1.0-2.8","4AB0A44753C54C48B0C3F735CD088259","4AB0A44753C54C48B0C3F735CD088259","0198b98c-eb2d-7536-9496-e47ff960b15c","0198b979-1f5e-7105-8b5f-48f920534529","{""num_scrambled_semantic"":""8"",""num_scrambled_causal"":""4"",""num_scrambled_schematic"":""4"",""participantId"":""4AB0A44753C54C48B0C3F735CD088259"",""assignmentId"":""0198b98c-eb2d-7536-9496-e47ff960b15c"",""projectId"":""0198b979-1f5e-7105-8b5f-48f920534529""}","https://test12345.live/?num_scrambled_semantic=8&num_scrambled_causal=4&num_scrambled_schematic=4&participantId=4AB0A44753C54C48B0C3F735CD088259&assignmentId=0198b98c-eb2d-7536-9496-e47ff960b15c&projectId=0198b979-1f5e-7105-8b5f-48f920534529","4AB0A44753C54C48B0C3F735CD088259-2025-08-17-20-23-12","","null","","[]","null","",""
"","","","","","image-button-response","52","286398","0.0-10.0-1.0-0.9","4AB0A44753C54C48B0C3F735CD088259","4AB0A44753C54C48B0C3F735CD088259","0198b98c-eb2d-7536-9496-e47ff960b15c","0198b979-1f5e-7105-8b5f-48f920534529","{""num_scrambled_semantic"":""8"",""num_scrambled_causal"":""4"",""num_scrambled_schematic"":""4"",""participantId"":""4AB0A44753C54C48B0C3F735CD088259"",""assignmentId"":""0198b98c-eb2d-7536-9496-e47ff960b15c"",""projectId"":""0198b979-1f5e-7105-8b5f-48f920534529""}","https://test12345.live/?num_scrambled_semantic=8&num_scrambled_causal=4&num_scrambled_schematic=4&participantId=4AB0A44753C54C48B0C3F735CD088259&assignmentId=0198b98c-eb2d-7536-9496-e47ff960b15c&projectId=0198b979-1f5e-7105-8b5f-48f920534529","4AB0A44753C54C48B0C3F735CD088259-2025-08-17-20-23-12","","null","","images/causal_sequence/museum_causal/museum_causal_8.png","null","",""
"","","","","","image-button-response","53","287772","0.0-10.0-1.0-1.9","4AB0A44753C54C48B0C3F735CD088259","4AB0A44753C54C48B0C3F735CD088259","0198b98c-eb2d-7536-9496-e47ff960b15c","0198b979-1f5e-7105-8b5f-48f920534529","{""num_scrambled_semantic"":""8"",""num_scrambled_causal"":""4"",""num_scrambled_schematic"":""4"",""participantId"":""4AB0A44753C54C48B0C3F735CD088259"",""assignmentId"":""0198b98c-eb2d-7536-9496-e47ff960b15c"",""projectId"":""0198b979-1f5e-7105-8b5f-48f920534529""}","https://test12345.live/?num_scrambled_semantic=8&num_scrambled_causal=4&num_scrambled_schematic=4&participantId=4AB0A44753C54C48B0C3F735CD088259&assignmentId=0198b98c-eb2d-7536-9496-e47ff960b15c&projectId=0198b979-1f5e-7105-8b5f-48f920534529","4AB0A44753C54C48B0C3F735CD088259-2025-08-17-20-23-12","","1370","","images/causal_sequence/museum_causal/museum_causal_8.png","0","",""
"","","","","","image-button-response","54","293181","0.0-10.0-1.0-2.9","4AB0A44753C54C48B0C3F735CD088259","4AB0A44753C54C48B0C3F735CD088259","0198b98c-eb2d-7536-9496-e47ff960b15c","0198b979-1f5e-7105-8b5f-48f920534529","{""num_scrambled_semantic"":""8"",""num_scrambled_causal"":""4"",""num_scrambled_schematic"":""4"",""participantId"":""4AB0A44753C54C48B0C3F735CD088259"",""assignmentId"":""0198b98c-eb2d-7536-9496-e47ff960b15c"",""projectId"":""0198b979-1f5e-7105-8b5f-48f920534529""}","https://test12345.live/?num_scrambled_semantic=8&num_scrambled_causal=4&num_scrambled_schematic=4&participantId=4AB0A44753C54C48B0C3F735CD088259&assignmentId=0198b98c-eb2d-7536-9496-e47ff960b15c&projectId=0198b979-1f5e-7105-8b5f-48f920534529","4AB0A44753C54C48B0C3F735CD088259-2025-08-17-20-23-12","","null","","[]","null","",""
"","","","","","html-audio-response","55","333187","0.0-11.0","4AB0A44753C54C48B0C3F735CD088259","4AB0A44753C54C48B0C3F735CD088259","0198b98c-eb2d-7536-9496-e47ff960b15c","0198b979-1f5e-7105-8b5f-48f920534529","{""num_scrambled_semantic"":""8"",""num_scrambled_causal"":""4"",""num_scrambled_schematic"":""4"",""participantId"":""4AB0A44753C54C48B0C3F735CD088259"",""assignmentId"":""0198b98c-eb2d-7536-9496-e47ff960b15c"",""projectId"":""0198b979-1f5e-7105-8b5f-48f920534529""}","https://test12345.live/?num_scrambled_semantic=8&num_scrambled_causal=4&num_scrambled_schematic=4&participantId=4AB0A44753C54C48B0C3F735CD088259&assignmentId=0198b98c-eb2d-7536-9496-e47ff960b15c&projectId=0198b979-1f5e-7105-8b5f-48f920534529","4AB0A44753C54C48B0C3F735CD088259-2025-08-17-20-23-12","","31387","","[""<span style=\""color: red; font-size: 24px\""> NOW RECORDING</span><p>Please say out loud all the images you saw, as many as you can remember. The images can be said in any order.</p>""]","","2","museum_causal"
"","","","","","image-button-response","56","339196","0.0-12.0-0.0","4AB0A44753C54C48B0C3F735CD088259","4AB0A44753C54C48B0C3F735CD088259","0198b98c-eb2d-7536-9496-e47ff960b15c","0198b979-1f5e-7105-8b5f-48f920534529","{""num_scrambled_semantic"":""8"",""num_scrambled_causal"":""4"",""num_scrambled_schematic"":""4"",""participantId"":""4AB0A44753C54C48B0C3F735CD088259"",""assignmentId"":""0198b98c-eb2d-7536-9496-e47ff960b15c"",""projectId"":""0198b979-1f5e-7105-8b5f-48f920534529""}","https://test12345.live/?num_scrambled_semantic=8&num_scrambled_causal=4&num_scrambled_schematic=4&participantId=4AB0A44753C54C48B0C3F735CD088259&assignmentId=0198b98c-eb2d-7536-9496-e47ff960b15c&projectId=0198b979-1f5e-7105-8b5f-48f920534529","4AB0A44753C54C48B0C3F735CD088259-2025-08-17-20-23-12","","null","","images/semantic_sequence/using_technology_semantic/using_technology_semantic_0.png","null","",""
"","","","","","image-button-response","57","343702","0.0-12.0-1.0-0.0","4AB0A44753C54C48B0C3F735CD088259","4AB0A44753C54C48B0C3F735CD088259","0198b98c-eb2d-7536-9496-e47ff960b15c","0198b979-1f5e-7105-8b5f-48f920534529","{""num_scrambled_semantic"":""8"",""num_scrambled_causal"":""4"",""num_scrambled_schematic"":""4"",""participantId"":""4AB0A44753C54C48B0C3F735CD088259"",""assignmentId"":""0198b98c-eb2d-7536-9496-e47ff960b15c"",""projectId"":""0198b979-1f5e-7105-8b5f-48f920534529""}","https://test12345.live/?num_scrambled_semantic=8&num_scrambled_causal=4&num_scrambled_schematic=4&participantId=4AB0A44753C54C48B0C3F735CD088259&assignmentId=0198b98c-eb2d-7536-9496-e47ff960b15c&projectId=0198b979-1f5e-7105-8b5f-48f920534529","4AB0A44753C54C48B0C3F735CD088259-2025-08-17-20-23-12","","null","","images/semantic_sequence/using_technology_semantic/using_technology_semantic_3.png","null","",""
"","","","","","image-button-response","58","346220","0.0-12.0-1.0-1.0","4AB0A44753C54C48B0C3F735CD088259","4AB0A44753C54C48B0C3F735CD088259","0198b98c-eb2d-7536-9496-e47ff960b15c","0198b979-1f5e-7105-8b5f-48f920534529","{""num_scrambled_semantic"":""8"",""num_scrambled_causal"":""4"",""num_scrambled_schematic"":""4"",""participantId"":""4AB0A44753C54C48B0C3F735CD088259"",""assignmentId"":""0198b98c-eb2d-7536-9496-e47ff960b15c"",""projectId"":""0198b979-1f5e-7105-8b5f-48f920534529""}","https://test12345.live/?num_scrambled_semantic=8&num_scrambled_causal=4&num_scrambled_schematic=4&participantId=4AB0A44753C54C48B0C3F735CD088259&assignmentId=0198b98c-eb2d-7536-9496-e47ff960b15c&projectId=0198b979-1f5e-7105-8b5f-48f920534529","4AB0A44753C54C48B0C3F735CD088259-2025-08-17-20-23-12","","2516","","images/semantic_sequence/using_technology_semantic/using_technology_semantic_3.png","0","",""
"","","","","","image-button-response","59","351626","0.0-12.0-1.0-2.0","4AB0A44753C54C48B0C3F735CD088259","4AB0A44753C54C48B0C3F735CD088259","0198b98c-eb2d-7536-9496-e47ff960b15c","0198b979-1f5e-7105-8b5f-48f920534529","{""num_scrambled_semantic"":""8"",""num_scrambled_causal"":""4"",""num_scrambled_schematic"":""4"",""participantId"":""4AB0A44753C54C48B0C3F735CD088259"",""assignmentId"":""0198b98c-eb2d-7536-9496-e47ff960b15c"",""projectId"":""0198b979-1f5e-7105-8b5f-48f920534529""}","https://test12345.live/?num_scrambled_semantic=8&num_scrambled_causal=4&num_scrambled_schematic=4&participantId=4AB0A44753C54C48B0C3F735CD088259&assignmentId=0198b98c-eb2d-7536-9496-e47ff960b15c&projectId=0198b979-1f5e-7105-8b5f-48f920534529","4AB0A44753C54C48B0C3F735CD088259-2025-08-17-20-23-12","","null","","[]","null","",""
"","","","","","image-button-response","60","356131","0.0-12.0-1.0-0.1","4AB0A44753C54C48B0C3F735CD088259","4AB0A44753C54C48B0C3F735CD088259","0198b98c-eb2d-7536-9496-e47ff960b15c","0198b979-1f5e-7105-8b5f-48f920534529","{""num_scrambled_semantic"":""8"",""num_scrambled_causal"":""4"",""num_scrambled_schematic"":""4"",""participantId"":""4AB0A44753C54C48B0C3F735CD088259"",""assignmentId"":""0198b98c-eb2d-7536-9496-e47ff960b15c"",""projectId"":""0198b979-1f5e-7105-8b5f-48f920534529""}","https://test12345.live/?num_scrambled_semantic=8&num_scrambled_causal=4&num_scrambled_schematic=4&participantId=4AB0A44753C54C48B0C3F735CD088259&assignmentId=0198b98c-eb2d-7536-9496-e47ff960b15c&projectId=0198b979-1f5e-7105-8b5f-48f920534529","4AB0A44753C54C48B0C3F735CD088259-2025-08-17-20-23-12","","null","","images/semantic_sequence/using_technology_semantic/using_technology_semantic_1.png","null","",""
"","","","","","image-button-response","61","357254","0.0-12.0-1.0-1.1","4AB0A44753C54C48B0C3F735CD088259","4AB0A44753C54C48B0C3F735CD088259","0198b98c-eb2d-7536-9496-e47ff960b15c","0198b979-1f5e-7105-8b5f-48f920534529","{""num_scrambled_semantic"":""8"",""num_scrambled_causal"":""4"",""num_scrambled_schematic"":""4"",""participantId"":""4AB0A44753C54C48B0C3F735CD088259"",""assignmentId"":""0198b98c-eb2d-7536-9496-e47ff960b15c"",""projectId"":""0198b979-1f5e-7105-8b5f-48f920534529""}","https://test12345.live/?num_scrambled_semantic=8&num_scrambled_causal=4&num_scrambled_schematic=4&participantId=4AB0A44753C54C48B0C3F735CD088259&assignmentId=0198b98c-eb2d-7536-9496-e47ff960b15c&projectId=0198b979-1f5e-7105-8b5f-48f920534529","4AB0A44753C54C48B0C3F735CD088259-2025-08-17-20-23-12","","1120","","images/semantic_sequence/using_technology_semantic/using_technology_semantic_1.png","0","",""
"","","","","","image-button-response","62","362656","0.0-12.0-1.0-2.1","4AB0A44753C54C48B0C3F735CD088259","4AB0A44753C54C48B0C3F735CD088259","0198b98c-eb2d-7536-9496-e47ff960b15c","0198b979-1f5e-7105-8b5f-48f920534529","{""num_scrambled_semantic"":""8"",""num_scrambled_causal"":""4"",""num_scrambled_schematic"":""4"",""participantId"":""4AB0A44753C54C48B0C3F735CD088259"",""assignmentId"":""0198b98c-eb2d-7536-9496-e47ff960b15c"",""projectId"":""0198b979-1f5e-7105-8b5f-48f920534529""}","https://test12345.live/?num_scrambled_semantic=8&num_scrambled_causal=4&num_scrambled_schematic=4&participantId=4AB0A44753C54C48B0C3F735CD088259&assignmentId=0198b98c-eb2d-7536-9496-e47ff960b15c&projectId=0198b979-1f5e-7105-8b5f-48f920534529","4AB0A44753C54C48B0C3F735CD088259-2025-08-17-20-23-12","","null","","[]","null","",""
"","","","","","image-button-response","63","367162","0.0-12.0-1.0-0.2","4AB0A44753C54C48B0C3F735CD088259","4AB0A44753C54C48B0C3F735CD088259","0198b98c-eb2d-7536-9496-e47ff960b15c","0198b979-1f5e-7105-8b5f-48f920534529","{""num_scrambled_semantic"":""8"",""num_scrambled_causal"":""4"",""num_scrambled_schematic"":""4"",""participantId"":""4AB0A44753C54C48B0C3F735CD088259"",""assignmentId"":""0198b98c-eb2d-7536-9496-e47ff960b15c"",""projectId"":""0198b979-1f5e-7105-8b5f-48f920534529""}","https://test12345.live/?num_scrambled_semantic=8&num_scrambled_causal=4&num_scrambled_schematic=4&participantId=4AB0A44753C54C48B0C3F735CD088259&assignmentId=0198b98c-eb2d-7536-9496-e47ff960b15c&projectId=0198b979-1f5e-7105-8b5f-48f920534529","4AB0A44753C54C48B0C3F735CD088259-2025-08-17-20-23-12","","null","","images/semantic_sequence/using_technology_semantic/using_technology_semantic_ten.png","null","",""
"","","","","","image-button-response","64","369204","0.0-12.0-1.0-1.2","4AB0A44753C54C48B0C3F735CD088259","4AB0A44753C54C48B0C3F735CD088259","0198b98c-eb2d-7536-9496-e47ff960b15c","0198b979-1f5e-7105-8b5f-48f920534529","{""num_scrambled_semantic"":""8"",""num_scrambled_causal"":""4"",""num_scrambled_schematic"":""4"",""participantId"":""4AB0A44753C54C48B0C3F735CD088259"",""assignmentId"":""0198b98c-eb2d-7536-9496-e47ff960b15c"",""projectId"":""0198b979-1f5e-7105-8b5f-48f920534529""}","https://test12345.live/?num_scrambled_semantic=8&num_scrambled_causal=4&num_scrambled_schematic=4&participantId=4AB0A44753C54C48B0C3F735CD088259&assignmentId=0198b98c-eb2d-7536-9496-e47ff960b15c&projectId=0198b979-1f5e-7105-8b5f-48f920534529","4AB0A44753C54C48B0C3F735CD088259-2025-08-17-20-23-12","","2040","","images/semantic_sequence/using_technology_semantic/using_technology_semantic_ten.png","0","",""
"","","","","","image-button-response","65","374611","0.0-12.0-1.0-2.2","4AB0A44753C54C48B0C3F735CD088259","4AB0A44753C54C48B0C3F735CD088259","0198b98c-eb2d-7536-9496-e47ff960b15c","0198b979-1f5e-7105-8b5f-48f920534529","{""num_scrambled_semantic"":""8"",""num_scrambled_causal"":""4"",""num_scrambled_schematic"":""4"",""participantId"":""4AB0A44753C54C48B0C3F735CD088259"",""assignmentId"":""0198b98c-eb2d-7536-9496-e47ff960b15c"",""projectId"":""0198b979-1f5e-7105-8b5f-48f920534529""}","https://test12345.live/?num_scrambled_semantic=8&num_scrambled_causal=4&num_scrambled_schematic=4&participantId=4AB0A44753C54C48B0C3F735CD088259&assignmentId=0198b98c-eb2d-7536-9496-e47ff960b15c&projectId=0198b979-1f5e-7105-8b5f-48f920534529","4AB0A44753C54C48B0C3F735CD088259-2025-08-17-20-23-12","","null","","[]","null","",""
"","","","","","image-button-response","66","379118","0.0-12.0-1.0-0.3","4AB0A44753C54C48B0C3F735CD088259","4AB0A44753C54C48B0C3F735CD088259","0198b98c-eb2d-7536-9496-e47ff960b15c","0198b979-1f5e-7105-8b5f-48f920534529","{""num_scrambled_semantic"":""8"",""num_scrambled_causal"":""4"",""num_scrambled_schematic"":""4"",""participantId"":""4AB0A44753C54C48B0C3F735CD088259"",""assignmentId"":""0198b98c-eb2d-7536-9496-e47ff960b15c"",""projectId"":""0198b979-1f5e-7105-8b5f-48f920534529""}","https://test12345.live/?num_scrambled_semantic=8&num_scrambled_causal=4&num_scrambled_schematic=4&participantId=4AB0A44753C54C48B0C3F735CD088259&assignmentId=0198b98c-eb2d-7536-9496-e47ff960b15c&projectId=0198b979-1f5e-7105-8b5f-48f920534529","4AB0A44753C54C48B0C3F735CD088259-2025-08-17-20-23-12","","null","","images/semantic_sequence/using_technology_semantic/using_technology_semantic_4.png","null","",""
"","","","","","image-button-response","67","380604","0.0-12.0-1.0-1.3","4AB0A44753C54C48B0C3F735CD088259","4AB0A44753C54C48B0C3F735CD088259","0198b98c-eb2d-7536-9496-e47ff960b15c","0198b979-1f5e-7105-8b5f-48f920534529","{""num_scrambled_semantic"":""8"",""num_scrambled_causal"":""4"",""num_scrambled_schematic"":""4"",""participantId"":""4AB0A44753C54C48B0C3F735CD088259"",""assignmentId"":""0198b98c-eb2d-7536-9496-e47ff960b15c"",""projectId"":""0198b979-1f5e-7105-8b5f-48f920534529""}","https://test12345.live/?num_scrambled_semantic=8&num_scrambled_causal=4&num_scrambled_schematic=4&participantId=4AB0A44753C54C48B0C3F735CD088259&assignmentId=0198b98c-eb2d-7536-9496-e47ff960b15c&projectId=0198b979-1f5e-7105-8b5f-48f920534529","4AB0A44753C54C48B0C3F735CD088259-2025-08-17-20-23-12","","1484","","images/semantic_sequence/using_technology_semantic/using_technology_semantic_4.png","0","",""
"","","","","","image-button-response","68","386010","0.0-12.0-1.0-2.3","4AB0A44753C54C48B0C3F735CD088259","4AB0A44753C54C48B0C3F735CD088259","0198b98c-eb2d-7536-9496-e47ff960b15c","0198b979-1f5e-7105-8b5f-48f920534529","{""num_scrambled_semantic"":""8"",""num_scrambled_causal"":""4"",""num_scrambled_schematic"":""4"",""participantId"":""4AB0A44753C54C48B0C3F735CD088259"",""assignmentId"":""0198b98c-eb2d-7536-9496-e47ff960b15c"",""projectId"":""0198b979-1f5e-7105-8b5f-48f920534529""}","https://test12345.live/?num_scrambled_semantic=8&num_scrambled_causal=4&num_scrambled_schematic=4&participantId=4AB0A44753C54C48B0C3F735CD088259&assignmentId=0198b98c-eb2d-7536-9496-e47ff960b15c&projectId=0198b979-1f5e-7105-8b5f-48f920534529","4AB0A44753C54C48B0C3F735CD088259-2025-08-17-20-23-12","","null","","[]","null","",""
"","","","","","image-button-response","69","390512","0.0-12.0-1.0-0.4","4AB0A44753C54C48B0C3F735CD088259","4AB0A44753C54C48B0C3F735CD088259","0198b98c-eb2d-7536-9496-e47ff960b15c","0198b979-1f5e-7105-8b5f-48f920534529","{""num_scrambled_semantic"":""8"",""num_scrambled_causal"":""4"",""num_scrambled_schematic"":""4"",""participantId"":""4AB0A44753C54C48B0C3F735CD088259"",""assignmentId"":""0198b98c-eb2d-7536-9496-e47ff960b15c"",""projectId"":""0198b979-1f5e-7105-8b5f-48f920534529""}","https://test12345.live/?num_scrambled_semantic=8&num_scrambled_causal=4&num_scrambled_schematic=4&participantId=4AB0A44753C54C48B0C3F735CD088259&assignmentId=0198b98c-eb2d-7536-9496-e47ff960b15c&projectId=0198b979-1f5e-7105-8b5f-48f920534529","4AB0A44753C54C48B0C3F735CD088259-2025-08-17-20-23-12","","null","","images/semantic_sequence/using_technology_semantic/using_technology_semantic_6.png","null","",""
"","","","","","image-button-response","70","391721","0.0-12.0-1.0-1.4","4AB0A44753C54C48B0C3F735CD088259","4AB0A44753C54C48B0C3F735CD088259","0198b98c-eb2d-7536-9496-e47ff960b15c","0198b979-1f5e-7105-8b5f-48f920534529","{""num_scrambled_semantic"":""8"",""num_scrambled_causal"":""4"",""num_scrambled_schematic"":""4"",""participantId"":""4AB0A44753C54C48B0C3F735CD088259"",""assignmentId"":""0198b98c-eb2d-7536-9496-e47ff960b15c"",""projectId"":""0198b979-1f5e-7105-8b5f-48f920534529""}","https://test12345.live/?num_scrambled_semantic=8&num_scrambled_causal=4&num_scrambled_schematic=4&participantId=4AB0A44753C54C48B0C3F735CD088259&assignmentId=0198b98c-eb2d-7536-9496-e47ff960b15c&projectId=0198b979-1f5e-7105-8b5f-48f920534529","4AB0A44753C54C48B0C3F735CD088259-2025-08-17-20-23-12","","1207","","images/semantic_sequence/using_technology_semantic/using_technology_semantic_6.png","0","",""
"","","","","","image-button-response","71","397128","0.0-12.0-1.0-2.4","4AB0A44753C54C48B0C3F735CD088259","4AB0A44753C54C48B0C3F735CD088259","0198b98c-eb2d-7536-9496-e47ff960b15c","0198b979-1f5e-7105-8b5f-48f920534529","{""num_scrambled_semantic"":""8"",""num_scrambled_causal"":""4"",""num_scrambled_schematic"":""4"",""participantId"":""4AB0A44753C54C48B0C3F735CD088259"",""assignmentId"":""0198b98c-eb2d-7536-9496-e47ff960b15c"",""projectId"":""0198b979-1f5e-7105-8b5f-48f920534529""}","https://test12345.live/?num_scrambled_semantic=8&num_scrambled_causal=4&num_scrambled_schematic=4&participantId=4AB0A44753C54C48B0C3F735CD088259&assignmentId=0198b98c-eb2d-7536-9496-e47ff960b15c&projectId=0198b979-1f5e-7105-8b5f-48f920534529","4AB0A44753C54C48B0C3F735CD088259-2025-08-17-20-23-12","","null","","[]","null","",""
"","","","","","image-button-response","72","401634","0.0-12.0-1.0-0.5","4AB0A44753C54C48B0C3F735CD088259","4AB0A44753C54C48B0C3F735CD088259","0198b98c-eb2d-7536-9496-e47ff960b15c","0198b979-1f5e-7105-8b5f-48f920534529","{""num_scrambled_semantic"":""8"",""num_scrambled_causal"":""4"",""num_scrambled_schematic"":""4"",""participantId"":""4AB0A44753C54C48B0C3F735CD088259"",""assignmentId"":""0198b98c-eb2d-7536-9496-e47ff960b15c"",""projectId"":""0198b979-1f5e-7105-8b5f-48f920534529""}","https://test12345.live/?num_scrambled_semantic=8&num_scrambled_causal=4&num_scrambled_schematic=4&participantId=4AB0A44753C54C48B0C3F735CD088259&assignmentId=0198b98c-eb2d-7536-9496-e47ff960b15c&projectId=0198b979-1f5e-7105-8b5f-48f920534529","4AB0A44753C54C48B0C3F735CD088259-2025-08-17-20-23-12","","null","","images/semantic_sequence/using_technology_semantic/using_technology_semantic_5.png","null","",""
"","","","","","image-button-response","73","402321","0.0-12.0-1.0-1.5","4AB0A44753C54C48B0C3F735CD088259","4AB0A44753C54C48B0C3F735CD088259","0198b98c-eb2d-7536-9496-e47ff960b15c","0198b979-1f5e-7105-8b5f-48f920534529","{""num_scrambled_semantic"":""8"",""num_scrambled_causal"":""4"",""num_scrambled_schematic"":""4"",""participantId"":""4AB0A44753C54C48B0C3F735CD088259"",""assignmentId"":""0198b98c-eb2d-7536-9496-e47ff960b15c"",""projectId"":""0198b979-1f5e-7105-8b5f-48f920534529""}","https://test12345.live/?num_scrambled_semantic=8&num_scrambled_causal=4&num_scrambled_schematic=4&participantId=4AB0A44753C54C48B0C3F735CD088259&assignmentId=0198b98c-eb2d-7536-9496-e47ff960b15c&projectId=0198b979-1f5e-7105-8b5f-48f920534529","4AB0A44753C54C48B0C3F735CD088259-2025-08-17-20-23-12","","684","","images/semantic_sequence/using_technology_semantic/using_technology_semantic_5.png","0","",""
"","","","","","image-button-response","74","407726","0.0-12.0-1.0-2.5","4AB0A44753C54C48B0C3F735CD088259","4AB0A44753C54C48B0C3F735CD088259","0198b98c-eb2d-7536-9496-e47ff960b15c","0198b979-1f5e-7105-8b5f-48f920534529","{""num_scrambled_semantic"":""8"",""num_scrambled_causal"":""4"",""num_scrambled_schematic"":""4"",""participantId"":""4AB0A44753C54C48B0C3F735CD088259"",""assignmentId"":""0198b98c-eb2d-7536-9496-e47ff960b15c"",""projectId"":""0198b979-1f5e-7105-8b5f-48f920534529""}","https://test12345.live/?num_scrambled_semantic=8&num_scrambled_causal=4&num_scrambled_schematic=4&participantId=4AB0A44753C54C48B0C3F735CD088259&assignmentId=0198b98c-eb2d-7536-9496-e47ff960b15c&projectId=0198b979-1f5e-7105-8b5f-48f920534529","4AB0A44753C54C48B0C3F735CD088259-2025-08-17-20-23-12","","null","","[]","null","",""
"","","","","","image-button-response","75","412233","0.0-12.0-1.0-0.6","4AB0A44753C54C48B0C3F735CD088259","4AB0A44753C54C48B0C3F735CD088259","0198b98c-eb2d-7536-9496-e47ff960b15c","0198b979-1f5e-7105-8b5f-48f920534529","{""num_scrambled_semantic"":""8"",""num_scrambled_causal"":""4"",""num_scrambled_schematic"":""4"",""participantId"":""4AB0A44753C54C48B0C3F735CD088259"",""assignmentId"":""0198b98c-eb2d-7536-9496-e47ff960b15c"",""projectId"":""0198b979-1f5e-7105-8b5f-48f920534529""}","https://test12345.live/?num_scrambled_semantic=8&num_scrambled_causal=4&num_scrambled_schematic=4&participantId=4AB0A44753C54C48B0C3F735CD088259&assignmentId=0198b98c-eb2d-7536-9496-e47ff960b15c&projectId=0198b979-1f5e-7105-8b5f-48f920534529","4AB0A44753C54C48B0C3F735CD088259-2025-08-17-20-23-12","","null","","images/semantic_sequence/using_technology_semantic/using_technology_semantic_9.png","null","",""
"","","","","","image-button-response","76","413387","0.0-12.0-1.0-1.6","4AB0A44753C54C48B0C3F735CD088259","4AB0A44753C54C48B0C3F735CD088259","0198b98c-eb2d-7536-9496-e47ff960b15c","0198b979-1f5e-7105-8b5f-48f920534529","{""num_scrambled_semantic"":""8"",""num_scrambled_causal"":""4"",""num_scrambled_schematic"":""4"",""participantId"":""4AB0A44753C54C48B0C3F735CD088259"",""assignmentId"":""0198b98c-eb2d-7536-9496-e47ff960b15c"",""projectId"":""0198b979-1f5e-7105-8b5f-48f920534529""}","https://test12345.live/?num_scrambled_semantic=8&num_scrambled_causal=4&num_scrambled_schematic=4&participantId=4AB0A44753C54C48B0C3F735CD088259&assignmentId=0198b98c-eb2d-7536-9496-e47ff960b15c&projectId=0198b979-1f5e-7105-8b5f-48f920534529","4AB0A44753C54C48B0C3F735CD088259-2025-08-17-20-23-12","","1152","","images/semantic_sequence/using_technology_semantic/using_technology_semantic_9.png","0","",""
"","","","","","image-button-response","77","418790","0.0-12.0-1.0-2.6","4AB0A44753C54C48B0C3F735CD088259","4AB0A44753C54C48B0C3F735CD088259","0198b98c-eb2d-7536-9496-e47ff960b15c","0198b979-1f5e-7105-8b5f-48f920534529","{""num_scrambled_semantic"":""8"",""num_scrambled_causal"":""4"",""num_scrambled_schematic"":""4"",""participantId"":""4AB0A44753C54C48B0C3F735CD088259"",""assignmentId"":""0198b98c-eb2d-7536-9496-e47ff960b15c"",""projectId"":""0198b979-1f5e-7105-8b5f-48f920534529""}","https://test12345.live/?num_scrambled_semantic=8&num_scrambled_causal=4&num_scrambled_schematic=4&participantId=4AB0A44753C54C48B0C3F735CD088259&assignmentId=0198b98c-eb2d-7536-9496-e47ff960b15c&projectId=0198b979-1f5e-7105-8b5f-48f920534529","4AB0A44753C54C48B0C3F735CD088259-2025-08-17-20-23-12","","null","","[]","null","",""
"","","","","","image-button-response","78","423295","0.0-12.0-1.0-0.7","4AB0A44753C54C48B0C3F735CD088259","4AB0A44753C54C48B0C3F735CD088259","0198b98c-eb2d-7536-9496-e47ff960b15c","0198b979-1f5e-7105-8b5f-48f920534529","{""num_scrambled_semantic"":""8"",""num_scrambled_causal"":""4"",""num_scrambled_schematic"":""4"",""participantId"":""4AB0A44753C54C48B0C3F735CD088259"",""assignmentId"":""0198b98c-eb2d-7536-9496-e47ff960b15c"",""projectId"":""0198b979-1f5e-7105-8b5f-48f920534529""}","https://test12345.live/?num_scrambled_semantic=8&num_scrambled_causal=4&num_scrambled_schematic=4&participantId=4AB0A44753C54C48B0C3F735CD088259&assignmentId=0198b98c-eb2d-7536-9496-e47ff960b15c&projectId=0198b979-1f5e-7105-8b5f-48f920534529","4AB0A44753C54C48B0C3F735CD088259-2025-08-17-20-23-12","","null","","images/semantic_sequence/using_technology_semantic/using_technology_semantic_7.png","null","",""
"","","","","","image-button-response","79","424520","0.0-12.0-1.0-1.7","4AB0A44753C54C48B0C3F735CD088259","4AB0A44753C54C48B0C3F735CD088259","0198b98c-eb2d-7536-9496-e47ff960b15c","0198b979-1f5e-7105-8b5f-48f920534529","{""num_scrambled_semantic"":""8"",""num_scrambled_causal"":""4"",""num_scrambled_schematic"":""4"",""participantId"":""4AB0A44753C54C48B0C3F735CD088259"",""assignmentId"":""0198b98c-eb2d-7536-9496-e47ff960b15c"",""projectId"":""0198b979-1f5e-7105-8b5f-48f920534529""}","https://test12345.live/?num_scrambled_semantic=8&num_scrambled_causal=4&num_scrambled_schematic=4&participantId=4AB0A44753C54C48B0C3F735CD088259&assignmentId=0198b98c-eb2d-7536-9496-e47ff960b15c&projectId=0198b979-1f5e-7105-8b5f-48f920534529","4AB0A44753C54C48B0C3F735CD088259-2025-08-17-20-23-12","","1222","","images/semantic_sequence/using_technology_semantic/using_technology_semantic_7.png","0","",""
"","","","","","image-button-response","80","429925","0.0-12.0-1.0-2.7","4AB0A44753C54C48B0C3F735CD088259","4AB0A44753C54C48B0C3F735CD088259","0198b98c-eb2d-7536-9496-e47ff960b15c","0198b979-1f5e-7105-8b5f-48f920534529","{""num_scrambled_semantic"":""8"",""num_scrambled_causal"":""4"",""num_scrambled_schematic"":""4"",""participantId"":""4AB0A44753C54C48B0C3F735CD088259"",""assignmentId"":""0198b98c-eb2d-7536-9496-e47ff960b15c"",""projectId"":""0198b979-1f5e-7105-8b5f-48f920534529""}","https://test12345.live/?num_scrambled_semantic=8&num_scrambled_causal=4&num_scrambled_schematic=4&participantId=4AB0A44753C54C48B0C3F735CD088259&assignmentId=0198b98c-eb2d-7536-9496-e47ff960b15c&projectId=0198b979-1f5e-7105-8b5f-48f920534529","4AB0A44753C54C48B0C3F735CD088259-2025-08-17-20-23-12","","null","","[]","null","",""
"","","","","","image-button-response","81","434432","0.0-12.0-1.0-0.8","4AB0A44753C54C48B0C3F735CD088259","4AB0A44753C54C48B0C3F735CD088259","0198b98c-eb2d-7536-9496-e47ff960b15c","0198b979-1f5e-7105-8b5f-48f920534529","{""num_scrambled_semantic"":""8"",""num_scrambled_causal"":""4"",""num_scrambled_schematic"":""4"",""participantId"":""4AB0A44753C54C48B0C3F735CD088259"",""assignmentId"":""0198b98c-eb2d-7536-9496-e47ff960b15c"",""projectId"":""0198b979-1f5e-7105-8b5f-48f920534529""}","https://test12345.live/?num_scrambled_semantic=8&num_scrambled_causal=4&num_scrambled_schematic=4&participantId=4AB0A44753C54C48B0C3F735CD088259&assignmentId=0198b98c-eb2d-7536-9496-e47ff960b15c&projectId=0198b979-1f5e-7105-8b5f-48f920534529","4AB0A44753C54C48B0C3F735CD088259-2025-08-17-20-23-12","","null","","images/semantic_sequence/using_technology_semantic/using_technology_semantic_8.png","null","",""
"","","","","","image-button-response","82","435821","0.0-12.0-1.0-1.8","4AB0A44753C54C48B0C3F735CD088259","4AB0A44753C54C48B0C3F735CD088259","0198b98c-eb2d-7536-9496-e47ff960b15c","0198b979-1f5e-7105-8b5f-48f920534529","{""num_scrambled_semantic"":""8"",""num_scrambled_causal"":""4"",""num_scrambled_schematic"":""4"",""participantId"":""4AB0A44753C54C48B0C3F735CD088259"",""assignmentId"":""0198b98c-eb2d-7536-9496-e47ff960b15c"",""projectId"":""0198b979-1f5e-7105-8b5f-48f920534529""}","https://test12345.live/?num_scrambled_semantic=8&num_scrambled_causal=4&num_scrambled_schematic=4&participantId=4AB0A44753C54C48B0C3F735CD088259&assignmentId=0198b98c-eb2d-7536-9496-e47ff960b15c&projectId=0198b979-1f5e-7105-8b5f-48f920534529","4AB0A44753C54C48B0C3F735CD088259-2025-08-17-20-23-12","","1386","","images/semantic_sequence/using_technology_semantic/using_technology_semantic_8.png","0","",""
"","","","","","image-button-response","83","441226","0.0-12.0-1.0-2.8","4AB0A44753C54C48B0C3F735CD088259","4AB0A44753C54C48B0C3F735CD088259","0198b98c-eb2d-7536-9496-e47ff960b15c","0198b979-1f5e-7105-8b5f-48f920534529","{""num_scrambled_semantic"":""8"",""num_scrambled_causal"":""4"",""num_scrambled_schematic"":""4"",""participantId"":""4AB0A44753C54C48B0C3F735CD088259"",""assignmentId"":""0198b98c-eb2d-7536-9496-e47ff960b15c"",""projectId"":""0198b979-1f5e-7105-8b5f-48f920534529""}","https://test12345.live/?num_scrambled_semantic=8&num_scrambled_causal=4&num_scrambled_schematic=4&participantId=4AB0A44753C54C48B0C3F735CD088259&assignmentId=0198b98c-eb2d-7536-9496-e47ff960b15c&projectId=0198b979-1f5e-7105-8b5f-48f920534529","4AB0A44753C54C48B0C3F735CD088259-2025-08-17-20-23-12","","null","","[]","null","",""
"","","","","","image-button-response","84","445732","0.0-12.0-1.0-0.9","4AB0A44753C54C48B0C3F735CD088259","4AB0A44753C54C48B0C3F735CD088259","0198b98c-eb2d-7536-9496-e47ff960b15c","0198b979-1f5e-7105-8b5f-48f920534529","{""num_scrambled_semantic"":""8"",""num_scrambled_causal"":""4"",""num_scrambled_schematic"":""4"",""participantId"":""4AB0A44753C54C48B0C3F735CD088259"",""assignmentId"":""0198b98c-eb2d-7536-9496-e47ff960b15c"",""projectId"":""0198b979-1f5e-7105-8b5f-48f920534529""}","https://test12345.live/?num_scrambled_semantic=8&num_scrambled_causal=4&num_scrambled_schematic=4&participantId=4AB0A44753C54C48B0C3F735CD088259&assignmentId=0198b98c-eb2d-7536-9496-e47ff960b15c&projectId=0198b979-1f5e-7105-8b5f-48f920534529","4AB0A44753C54C48B0C3F735CD088259-2025-08-17-20-23-12","","null","","images/semantic_sequence/using_technology_semantic/using_technology_semantic_2.png","null","",""
"","","","","","image-button-response","85","447704","0.0-12.0-1.0-1.9","4AB0A44753C54C48B0C3F735CD088259","4AB0A44753C54C48B0C3F735CD088259","0198b98c-eb2d-7536-9496-e47ff960b15c","0198b979-1f5e-7105-8b5f-48f920534529","{""num_scrambled_semantic"":""8"",""num_scrambled_causal"":""4"",""num_scrambled_schematic"":""4"",""participantId"":""4AB0A44753C54C48B0C3F735CD088259"",""assignmentId"":""0198b98c-eb2d-7536-9496-e47ff960b15c"",""projectId"":""0198b979-1f5e-7105-8b5f-48f920534529""}","https://test12345.live/?num_scrambled_semantic=8&num_scrambled_causal=4&num_scrambled_schematic=4&participantId=4AB0A44753C54C48B0C3F735CD088259&assignmentId=0198b98c-eb2d-7536-9496-e47ff960b15c&projectId=0198b979-1f5e-7105-8b5f-48f920534529","4AB0A44753C54C48B0C3F735CD088259-2025-08-17-20-23-12","","1970","","images/semantic_sequence/using_technology_semantic/using_technology_semantic_2.png","0","",""
"","","","","","image-button-response","86","453111","0.0-12.0-1.0-2.9","4AB0A44753C54C48B0C3F735CD088259","4AB0A44753C54C48B0C3F735CD088259","0198b98c-eb2d-7536-9496-e47ff960b15c","0198b979-1f5e-7105-8b5f-48f920534529","{""num_scrambled_semantic"":""8"",""num_scrambled_causal"":""4"",""num_scrambled_schematic"":""4"",""participantId"":""4AB0A44753C54C48B0C3F735CD088259"",""assignmentId"":""0198b98c-eb2d-7536-9496-e47ff960b15c"",""projectId"":""0198b979-1f5e-7105-8b5f-48f920534529""}","https://test12345.live/?num_scrambled_semantic=8&num_scrambled_causal=4&num_scrambled_schematic=4&participantId=4AB0A44753C54C48B0C3F735CD088259&assignmentId=0198b98c-eb2d-7536-9496-e47ff960b15c&projectId=0198b979-1f5e-7105-8b5f-48f920534529","4AB0A44753C54C48B0C3F735CD088259-2025-08-17-20-23-12","","null","","[]","null","",""
"","","","","","html-audio-response","87","486953","0.0-13.0","4AB0A44753C54C48B0C3F735CD088259","4AB0A44753C54C48B0C3F735CD088259","0198b98c-eb2d-7536-9496-e47ff960b15c","0198b979-1f5e-7105-8b5f-48f920534529","{""num_scrambled_semantic"":""8"",""num_scrambled_causal"":""4"",""num_scrambled_schematic"":""4"",""participantId"":""4AB0A44753C54C48B0C3F735CD088259"",""assignmentId"":""0198b98c-eb2d-7536-9496-e47ff960b15c"",""projectId"":""0198b979-1f5e-7105-8b5f-48f920534529""}","https://test12345.live/?num_scrambled_semantic=8&num_scrambled_causal=4&num_scrambled_schematic=4&participantId=4AB0A44753C54C48B0C3F735CD088259&assignmentId=0198b98c-eb2d-7536-9496-e47ff960b15c&projectId=0198b979-1f5e-7105-8b5f-48f920534529","4AB0A44753C54C48B0C3F735CD088259-2025-08-17-20-23-12","","28051","","[""<span style=\""color: red; font-size: 24px\""> NOW RECORDING</span><p>Please say out loud all the images you saw, as many as you can remember. The images can be said in any order.</p>""]","","2","using_technology_semantic"
"","","","","","image-button-response","88","492960","0.0-14.0-0.0","4AB0A44753C54C48B0C3F735CD088259","4AB0A44753C54C48B0C3F735CD088259","0198b98c-eb2d-7536-9496-e47ff960b15c","0198b979-1f5e-7105-8b5f-48f920534529","{""num_scrambled_semantic"":""8"",""num_scrambled_causal"":""4"",""num_scrambled_schematic"":""4"",""participantId"":""4AB0A44753C54C48B0C3F735CD088259"",""assignmentId"":""0198b98c-eb2d-7536-9496-e47ff960b15c"",""projectId"":""0198b979-1f5e-7105-8b5f-48f920534529""}","https://test12345.live/?num_scrambled_semantic=8&num_scrambled_causal=4&num_scrambled_schematic=4&participantId=4AB0A44753C54C48B0C3F735CD088259&assignmentId=0198b98c-eb2d-7536-9496-e47ff960b15c&projectId=0198b979-1f5e-7105-8b5f-48f920534529","4AB0A44753C54C48B0C3F735CD088259-2025-08-17-20-23-12","","null","","images/causal_sequence/dog_causal/dog_causal_0.png","null","",""
"","","","","","image-button-response","89","497465","0.0-14.0-1.0-0.0","4AB0A44753C54C48B0C3F735CD088259","4AB0A44753C54C48B0C3F735CD088259","0198b98c-eb2d-7536-9496-e47ff960b15c","0198b979-1f5e-7105-8b5f-48f920534529","{""num_scrambled_semantic"":""8"",""num_scrambled_causal"":""4"",""num_scrambled_schematic"":""4"",""participantId"":""4AB0A44753C54C48B0C3F735CD088259"",""assignmentId"":""0198b98c-eb2d-7536-9496-e47ff960b15c"",""projectId"":""0198b979-1f5e-7105-8b5f-48f920534529""}","https://test12345.live/?num_scrambled_semantic=8&num_scrambled_causal=4&num_scrambled_schematic=4&participantId=4AB0A44753C54C48B0C3F735CD088259&assignmentId=0198b98c-eb2d-7536-9496-e47ff960b15c&projectId=0198b979-1f5e-7105-8b5f-48f920534529","4AB0A44753C54C48B0C3F735CD088259-2025-08-17-20-23-12","","null","","images/causal_sequence/dog_causal/dog_causal_1.png","null","",""
"","","","","","image-button-response","90","500720","0.0-14.0-1.0-1.0","4AB0A44753C54C48B0C3F735CD088259","4AB0A44753C54C48B0C3F735CD088259","0198b98c-eb2d-7536-9496-e47ff960b15c","0198b979-1f5e-7105-8b5f-48f920534529","{""num_scrambled_semantic"":""8"",""num_scrambled_causal"":""4"",""num_scrambled_schematic"":""4"",""participantId"":""4AB0A44753C54C48B0C3F735CD088259"",""assignmentId"":""0198b98c-eb2d-7536-9496-e47ff960b15c"",""projectId"":""0198b979-1f5e-7105-8b5f-48f920534529""}","https://test12345.live/?num_scrambled_semantic=8&num_scrambled_causal=4&num_scrambled_schematic=4&participantId=4AB0A44753C54C48B0C3F735CD088259&assignmentId=0198b98c-eb2d-7536-9496-e47ff960b15c&projectId=0198b979-1f5e-7105-8b5f-48f920534529","4AB0A44753C54C48B0C3F735CD088259-2025-08-17-20-23-12","","3252","","images/causal_sequence/dog_causal/dog_causal_1.png","0","",""
"","","","","","image-button-response","91","506126","0.0-14.0-1.0-2.0","4AB0A44753C54C48B0C3F735CD088259","4AB0A44753C54C48B0C3F735CD088259","0198b98c-eb2d-7536-9496-e47ff960b15c","0198b979-1f5e-7105-8b5f-48f920534529","{""num_scrambled_semantic"":""8"",""num_scrambled_causal"":""4"",""num_scrambled_schematic"":""4"",""participantId"":""4AB0A44753C54C48B0C3F735CD088259"",""assignmentId"":""0198b98c-eb2d-7536-9496-e47ff960b15c"",""projectId"":""0198b979-1f5e-7105-8b5f-48f920534529""}","https://test12345.live/?num_scrambled_semantic=8&num_scrambled_causal=4&num_scrambled_schematic=4&participantId=4AB0A44753C54C48B0C3F735CD088259&assignmentId=0198b98c-eb2d-7536-9496-e47ff960b15c&projectId=0198b979-1f5e-7105-8b5f-48f920534529","4AB0A44753C54C48B0C3F735CD088259-2025-08-17-20-23-12","","null","","[]","null","",""
"","","","","","image-button-response","92","510631","0.0-14.0-1.0-0.1","4AB0A44753C54C48B0C3F735CD088259","4AB0A44753C54C48B0C3F735CD088259","0198b98c-eb2d-7536-9496-e47ff960b15c","0198b979-1f5e-7105-8b5f-48f920534529","{""num_scrambled_semantic"":""8"",""num_scrambled_causal"":""4"",""num_scrambled_schematic"":""4"",""participantId"":""4AB0A44753C54C48B0C3F735CD088259"",""assignmentId"":""0198b98c-eb2d-7536-9496-e47ff960b15c"",""projectId"":""0198b979-1f5e-7105-8b5f-48f920534529""}","https://test12345.live/?num_scrambled_semantic=8&num_scrambled_causal=4&num_scrambled_schematic=4&participantId=4AB0A44753C54C48B0C3F735CD088259&assignmentId=0198b98c-eb2d-7536-9496-e47ff960b15c&projectId=0198b979-1f5e-7105-8b5f-48f920534529","4AB0A44753C54C48B0C3F735CD088259-2025-08-17-20-23-12","","null","","images/causal_sequence/dog_causal/dog_causal_2.png","null","",""
"","","","","","image-button-response","93","511170","0.0-14.0-1.0-1.1","4AB0A44753C54C48B0C3F735CD088259","4AB0A44753C54C48B0C3F735CD088259","0198b98c-eb2d-7536-9496-e47ff960b15c","0198b979-1f5e-7105-8b5f-48f920534529","{""num_scrambled_semantic"":""8"",""num_scrambled_causal"":""4"",""num_scrambled_schematic"":""4"",""participantId"":""4AB0A44753C54C48B0C3F735CD088259"",""assignmentId"":""0198b98c-eb2d-7536-9496-e47ff960b15c"",""projectId"":""0198b979-1f5e-7105-8b5f-48f920534529""}","https://test12345.live/?num_scrambled_semantic=8&num_scrambled_causal=4&num_scrambled_schematic=4&participantId=4AB0A44753C54C48B0C3F735CD088259&assignmentId=0198b98c-eb2d-7536-9496-e47ff960b15c&projectId=0198b979-1f5e-7105-8b5f-48f920534529","4AB0A44753C54C48B0C3F735CD088259-2025-08-17-20-23-12","","537","","images/causal_sequence/dog_causal/dog_causal_2.png","0","",""
"","","","","","image-button-response","94","516575","0.0-14.0-1.0-2.1","4AB0A44753C54C48B0C3F735CD088259","4AB0A44753C54C48B0C3F735CD088259","0198b98c-eb2d-7536-9496-e47ff960b15c","0198b979-1f5e-7105-8b5f-48f920534529","{""num_scrambled_semantic"":""8"",""num_scrambled_causal"":""4"",""num_scrambled_schematic"":""4"",""participantId"":""4AB0A44753C54C48B0C3F735CD088259"",""assignmentId"":""0198b98c-eb2d-7536-9496-e47ff960b15c"",""projectId"":""0198b979-1f5e-7105-8b5f-48f920534529""}","https://test12345.live/?num_scrambled_semantic=8&num_scrambled_causal=4&num_scrambled_schematic=4&participantId=4AB0A44753C54C48B0C3F735CD088259&assignmentId=0198b98c-eb2d-7536-9496-e47ff960b15c&projectId=0198b979-1f5e-7105-8b5f-48f920534529","4AB0A44753C54C48B0C3F735CD088259-2025-08-17-20-23-12","","null","","[]","null","",""
"","","","","","image-button-response","95","521082","0.0-14.0-1.0-0.2","4AB0A44753C54C48B0C3F735CD088259","4AB0A44753C54C48B0C3F735CD088259","0198b98c-eb2d-7536-9496-e47ff960b15c","0198b979-1f5e-7105-8b5f-48f920534529","{""num_scrambled_semantic"":""8"",""num_scrambled_causal"":""4"",""num_scrambled_schematic"":""4"",""participantId"":""4AB0A44753C54C48B0C3F735CD088259"",""assignmentId"":""0198b98c-eb2d-7536-9496-e47ff960b15c"",""projectId"":""0198b979-1f5e-7105-8b5f-48f920534529""}","https://test12345.live/?num_scrambled_semantic=8&num_scrambled_causal=4&num_scrambled_schematic=4&participantId=4AB0A44753C54C48B0C3F735CD088259&assignmentId=0198b98c-eb2d-7536-9496-e47ff960b15c&projectId=0198b979-1f5e-7105-8b5f-48f920534529","4AB0A44753C54C48B0C3F735CD088259-2025-08-17-20-23-12","","null","","images/causal_sequence/dog_causal/dog_causal_3.png","null","",""
"","","","","","image-button-response","96","522054","0.0-14.0-1.0-1.2","4AB0A44753C54C48B0C3F735CD088259","4AB0A44753C54C48B0C3F735CD088259","0198b98c-eb2d-7536-9496-e47ff960b15c","0198b979-1f5e-7105-8b5f-48f920534529","{""num_scrambled_semantic"":""8"",""num_scrambled_causal"":""4"",""num_scrambled_schematic"":""4"",""participantId"":""4AB0A44753C54C48B0C3F735CD088259"",""assignmentId"":""0198b98c-eb2d-7536-9496-e47ff960b15c"",""projectId"":""0198b979-1f5e-7105-8b5f-48f920534529""}","https://test12345.live/?num_scrambled_semantic=8&num_scrambled_causal=4&num_scrambled_schematic=4&participantId=4AB0A44753C54C48B0C3F735CD088259&assignmentId=0198b98c-eb2d-7536-9496-e47ff960b15c&projectId=0198b979-1f5e-7105-8b5f-48f920534529","4AB0A44753C54C48B0C3F735CD088259-2025-08-17-20-23-12","","970","","images/causal_sequence/dog_causal/dog_causal_3.png","0","",""
"","","","","","image-button-response","97","527459","0.0-14.0-1.0-2.2","4AB0A44753C54C48B0C3F735CD088259","4AB0A44753C54C48B0C3F735CD088259","0198b98c-eb2d-7536-9496-e47ff960b15c","0198b979-1f5e-7105-8b5f-48f920534529","{""num_scrambled_semantic"":""8"",""num_scrambled_causal"":""4"",""num_scrambled_schematic"":""4"",""participantId"":""4AB0A44753C54C48B0C3F735CD088259"",""assignmentId"":""0198b98c-eb2d-7536-9496-e47ff960b15c"",""projectId"":""0198b979-1f5e-7105-8b5f-48f920534529""}","https://test12345.live/?num_scrambled_semantic=8&num_scrambled_causal=4&num_scrambled_schematic=4&participantId=4AB0A44753C54C48B0C3F735CD088259&assignmentId=0198b98c-eb2d-7536-9496-e47ff960b15c&projectId=0198b979-1f5e-7105-8b5f-48f920534529","4AB0A44753C54C48B0C3F735CD088259-2025-08-17-20-23-12","","null","","[]","null","",""
"","","","","","image-button-response","98","531961","0.0-14.0-1.0-0.3","4AB0A44753C54C48B0C3F735CD088259","4AB0A44753C54C48B0C3F735CD088259","0198b98c-eb2d-7536-9496-e47ff960b15c","0198b979-1f5e-7105-8b5f-48f920534529","{""num_scrambled_semantic"":""8"",""num_scrambled_causal"":""4"",""num_scrambled_schematic"":""4"",""participantId"":""4AB0A44753C54C48B0C3F735CD088259"",""assignmentId"":""0198b98c-eb2d-7536-9496-e47ff960b15c"",""projectId"":""0198b979-1f5e-7105-8b5f-48f920534529""}","https://test12345.live/?num_scrambled_semantic=8&num_scrambled_causal=4&num_scrambled_schematic=4&participantId=4AB0A44753C54C48B0C3F735CD088259&assignmentId=0198b98c-eb2d-7536-9496-e47ff960b15c&projectId=0198b979-1f5e-7105-8b5f-48f920534529","4AB0A44753C54C48B0C3F735CD088259-2025-08-17-20-23-12","","null","","images/causal_sequence/dog_causal/dog_causal_4.png","null","",""
"","","","","","image-button-response","99","533002","0.0-14.0-1.0-1.3","4AB0A44753C54C48B0C3F735CD088259","4AB0A44753C54C48B0C3F735CD088259","0198b98c-eb2d-7536-9496-e47ff960b15c","0198b979-1f5e-7105-8b5f-48f920534529","{""num_scrambled_semantic"":""8"",""num_scrambled_causal"":""4"",""num_scrambled_schematic"":""4"",""participantId"":""4AB0A44753C54C48B0C3F735CD088259"",""assignmentId"":""0198b98c-eb2d-7536-9496-e47ff960b15c"",""projectId"":""0198b979-1f5e-7105-8b5f-48f920534529""}","https://test12345.live/?num_scrambled_semantic=8&num_scrambled_causal=4&num_scrambled_schematic=4&participantId=4AB0A44753C54C48B0C3F735CD088259&assignmentId=0198b98c-eb2d-7536-9496-e47ff960b15c&projectId=0198b979-1f5e-7105-8b5f-48f920534529","4AB0A44753C54C48B0C3F735CD088259-2025-08-17-20-23-12","","1040","","images/causal_sequence/dog_causal/dog_causal_4.png","0","",""
"","","","","","image-button-response","100","538404","0.0-14.0-1.0-2.3","4AB0A44753C54C48B0C3F735CD088259","4AB0A44753C54C48B0C3F735CD088259","0198b98c-eb2d-7536-9496-e47ff960b15c","0198b979-1f5e-7105-8b5f-48f920534529","{""num_scrambled_semantic"":""8"",""num_scrambled_causal"":""4"",""num_scrambled_schematic"":""4"",""participantId"":""4AB0A44753C54C48B0C3F735CD088259"",""assignmentId"":""0198b98c-eb2d-7536-9496-e47ff960b15c"",""projectId"":""0198b979-1f5e-7105-8b5f-48f920534529""}","https://test12345.live/?num_scrambled_semantic=8&num_scrambled_causal=4&num_scrambled_schematic=4&participantId=4AB0A44753C54C48B0C3F735CD088259&assignmentId=0198b98c-eb2d-7536-9496-e47ff960b15c&projectId=0198b979-1f5e-7105-8b5f-48f920534529","4AB0A44753C54C48B0C3F735CD088259-2025-08-17-20-23-12","","null","","[]","null","",""
"","","","","","image-button-response","101","542911","0.0-14.0-1.0-0.4","4AB0A44753C54C48B0C3F735CD088259","4AB0A44753C54C48B0C3F735CD088259","0198b98c-eb2d-7536-9496-e47ff960b15c","0198b979-1f5e-7105-8b5f-48f920534529","{""num_scrambled_semantic"":""8"",""num_scrambled_causal"":""4"",""num_scrambled_schematic"":""4"",""participantId"":""4AB0A44753C54C48B0C3F735CD088259"",""assignmentId"":""0198b98c-eb2d-7536-9496-e47ff960b15c"",""projectId"":""0198b979-1f5e-7105-8b5f-48f920534529""}","https://test12345.live/?num_scrambled_semantic=8&num_scrambled_causal=4&num_scrambled_schematic=4&participantId=4AB0A44753C54C48B0C3F735CD088259&assignmentId=0198b98c-eb2d-7536-9496-e47ff960b15c&projectId=0198b979-1f5e-7105-8b5f-48f920534529","4AB0A44753C54C48B0C3F735CD088259-2025-08-17-20-23-12","","null","","images/causal_sequence/dog_causal/dog_causal_5.png","null","",""
"","","","","","image-button-response","102","544252","0.0-14.0-1.0-1.4","4AB0A44753C54C48B0C3F735CD088259","4AB0A44753C54C48B0C3F735CD088259","0198b98c-eb2d-7536-9496-e47ff960b15c","0198b979-1f5e-7105-8b5f-48f920534529","{""num_scrambled_semantic"":""8"",""num_scrambled_causal"":""4"",""num_scrambled_schematic"":""4"",""participantId"":""4AB0A44753C54C48B0C3F735CD088259"",""assignmentId"":""0198b98c-eb2d-7536-9496-e47ff960b15c"",""projectId"":""0198b979-1f5e-7105-8b5f-48f920534529""}","https://test12345.live/?num_scrambled_semantic=8&num_scrambled_causal=4&num_scrambled_schematic=4&participantId=4AB0A44753C54C48B0C3F735CD088259&assignmentId=0198b98c-eb2d-7536-9496-e47ff960b15c&projectId=0198b979-1f5e-7105-8b5f-48f920534529","4AB0A44753C54C48B0C3F735CD088259-2025-08-17-20-23-12","","1339","","images/causal_sequence/dog_causal/dog_causal_5.png","0","",""
"","","","","","image-button-response","103","549656","0.0-14.0-1.0-2.4","4AB0A44753C54C48B0C3F735CD088259","4AB0A44753C54C48B0C3F735CD088259","0198b98c-eb2d-7536-9496-e47ff960b15c","0198b979-1f5e-7105-8b5f-48f920534529","{""num_scrambled_semantic"":""8"",""num_scrambled_causal"":""4"",""num_scrambled_schematic"":""4"",""participantId"":""4AB0A44753C54C48B0C3F735CD088259"",""assignmentId"":""0198b98c-eb2d-7536-9496-e47ff960b15c"",""projectId"":""0198b979-1f5e-7105-8b5f-48f920534529""}","https://test12345.live/?num_scrambled_semantic=8&num_scrambled_causal=4&num_scrambled_schematic=4&participantId=4AB0A44753C54C48B0C3F735CD088259&assignmentId=0198b98c-eb2d-7536-9496-e47ff960b15c&projectId=0198b979-1f5e-7105-8b5f-48f920534529","4AB0A44753C54C48B0C3F735CD088259-2025-08-17-20-23-12","","null","","[]","null","",""
"","","","","","image-button-response","104","554158","0.0-14.0-1.0-0.5","4AB0A44753C54C48B0C3F735CD088259","4AB0A44753C54C48B0C3F735CD088259","0198b98c-eb2d-7536-9496-e47ff960b15c","0198b979-1f5e-7105-8b5f-48f920534529","{""num_scrambled_semantic"":""8"",""num_scrambled_causal"":""4"",""num_scrambled_schematic"":""4"",""participantId"":""4AB0A44753C54C48B0C3F735CD088259"",""assignmentId"":""0198b98c-eb2d-7536-9496-e47ff960b15c"",""projectId"":""0198b979-1f5e-7105-8b5f-48f920534529""}","https://test12345.live/?num_scrambled_semantic=8&num_scrambled_causal=4&num_scrambled_schematic=4&participantId=4AB0A44753C54C48B0C3F735CD088259&assignmentId=0198b98c-eb2d-7536-9496-e47ff960b15c&projectId=0198b979-1f5e-7105-8b5f-48f920534529","4AB0A44753C54C48B0C3F735CD088259-2025-08-17-20-23-12","","null","","images/causal_sequence/dog_causal/dog_causal_6.png","null","",""
"","","","","","image-button-response","105","555003","0.0-14.0-1.0-1.5","4AB0A44753C54C48B0C3F735CD088259","4AB0A44753C54C48B0C3F735CD088259","0198b98c-eb2d-7536-9496-e47ff960b15c","0198b979-1f5e-7105-8b5f-48f920534529","{""num_scrambled_semantic"":""8"",""num_scrambled_causal"":""4"",""num_scrambled_schematic"":""4"",""participantId"":""4AB0A44753C54C48B0C3F735CD088259"",""assignmentId"":""0198b98c-eb2d-7536-9496-e47ff960b15c"",""projectId"":""0198b979-1f5e-7105-8b5f-48f920534529""}","https://test12345.live/?num_scrambled_semantic=8&num_scrambled_causal=4&num_scrambled_schematic=4&participantId=4AB0A44753C54C48B0C3F735CD088259&assignmentId=0198b98c-eb2d-7536-9496-e47ff960b15c&projectId=0198b979-1f5e-7105-8b5f-48f920534529","4AB0A44753C54C48B0C3F735CD088259-2025-08-17-20-23-12","","842","","images/causal_sequence/dog_causal/dog_causal_6.png","0","",""
"","","","","","image-button-response","106","560408","0.0-14.0-1.0-2.5","4AB0A44753C54C48B0C3F735CD088259","4AB0A44753C54C48B0C3F735CD088259","0198b98c-eb2d-7536-9496-e47ff960b15c","0198b979-1f5e-7105-8b5f-48f920534529","{""num_scrambled_semantic"":""8"",""num_scrambled_causal"":""4"",""num_scrambled_schematic"":""4"",""participantId"":""4AB0A44753C54C48B0C3F735CD088259"",""assignmentId"":""0198b98c-eb2d-7536-9496-e47ff960b15c"",""projectId"":""0198b979-1f5e-7105-8b5f-48f920534529""}","https://test12345.live/?num_scrambled_semantic=8&num_scrambled_causal=4&num_scrambled_schematic=4&participantId=4AB0A44753C54C48B0C3F735CD088259&assignmentId=0198b98c-eb2d-7536-9496-e47ff960b15c&projectId=0198b979-1f5e-7105-8b5f-48f920534529","4AB0A44753C54C48B0C3F735CD088259-2025-08-17-20-23-12","","null","","[]","null","",""
"","","","","","image-button-response","107","564910","0.0-14.0-1.0-0.6","4AB0A44753C54C48B0C3F735CD088259","4AB0A44753C54C48B0C3F735CD088259","0198b98c-eb2d-7536-9496-e47ff960b15c","0198b979-1f5e-7105-8b5f-48f920534529","{""num_scrambled_semantic"":""8"",""num_scrambled_causal"":""4"",""num_scrambled_schematic"":""4"",""participantId"":""4AB0A44753C54C48B0C3F735CD088259"",""assignmentId"":""0198b98c-eb2d-7536-9496-e47ff960b15c"",""projectId"":""0198b979-1f5e-7105-8b5f-48f920534529""}","https://test12345.live/?num_scrambled_semantic=8&num_scrambled_causal=4&num_scrambled_schematic=4&participantId=4AB0A44753C54C48B0C3F735CD088259&assignmentId=0198b98c-eb2d-7536-9496-e47ff960b15c&projectId=0198b979-1f5e-7105-8b5f-48f920534529","4AB0A44753C54C48B0C3F735CD088259-2025-08-17-20-23-12","","null","","images/causal_sequence/dog_causal/dog_causal_7.png","null","",""
"","","","","","image-button-response","108","565787","0.0-14.0-1.0-1.6","4AB0A44753C54C48B0C3F735CD088259","4AB0A44753C54C48B0C3F735CD088259","0198b98c-eb2d-7536-9496-e47ff960b15c","0198b979-1f5e-7105-8b5f-48f920534529","{""num_scrambled_semantic"":""8"",""num_scrambled_causal"":""4"",""num_scrambled_schematic"":""4"",""participantId"":""4AB0A44753C54C48B0C3F735CD088259"",""assignmentId"":""0198b98c-eb2d-7536-9496-e47ff960b15c"",""projectId"":""0198b979-1f5e-7105-8b5f-48f920534529""}","https://test12345.live/?num_scrambled_semantic=8&num_scrambled_causal=4&num_scrambled_schematic=4&participantId=4AB0A44753C54C48B0C3F735CD088259&assignmentId=0198b98c-eb2d-7536-9496-e47ff960b15c&projectId=0198b979-1f5e-7105-8b5f-48f920534529","4AB0A44753C54C48B0C3F735CD088259-2025-08-17-20-23-12","","875","","images/causal_sequence/dog_causal/dog_causal_7.png","0","",""
"","","","","","image-button-response","109","571193","0.0-14.0-1.0-2.6","4AB0A44753C54C48B0C3F735CD088259","4AB0A44753C54C48B0C3F735CD088259","0198b98c-eb2d-7536-9496-e47ff960b15c","0198b979-1f5e-7105-8b5f-48f920534529","{""num_scrambled_semantic"":""8"",""num_scrambled_causal"":""4"",""num_scrambled_schematic"":""4"",""participantId"":""4AB0A44753C54C48B0C3F735CD088259"",""assignmentId"":""0198b98c-eb2d-7536-9496-e47ff960b15c"",""projectId"":""0198b979-1f5e-7105-8b5f-48f920534529""}","https://test12345.live/?num_scrambled_semantic=8&num_scrambled_causal=4&num_scrambled_schematic=4&participantId=4AB0A44753C54C48B0C3F735CD088259&assignmentId=0198b98c-eb2d-7536-9496-e47ff960b15c&projectId=0198b979-1f5e-7105-8b5f-48f920534529","4AB0A44753C54C48B0C3F735CD088259-2025-08-17-20-23-12","","null","","[]","null","",""
"","","","","","image-button-response","110","575698","0.0-14.0-1.0-0.7","4AB0A44753C54C48B0C3F735CD088259","4AB0A44753C54C48B0C3F735CD088259","0198b98c-eb2d-7536-9496-e47ff960b15c","0198b979-1f5e-7105-8b5f-48f920534529","{""num_scrambled_semantic"":""8"",""num_scrambled_causal"":""4"",""num_scrambled_schematic"":""4"",""participantId"":""4AB0A44753C54C48B0C3F735CD088259"",""assignmentId"":""0198b98c-eb2d-7536-9496-e47ff960b15c"",""projectId"":""0198b979-1f5e-7105-8b5f-48f920534529""}","https://test12345.live/?num_scrambled_semantic=8&num_scrambled_causal=4&num_scrambled_schematic=4&participantId=4AB0A44753C54C48B0C3F735CD088259&assignmentId=0198b98c-eb2d-7536-9496-e47ff960b15c&projectId=0198b979-1f5e-7105-8b5f-48f920534529","4AB0A44753C54C48B0C3F735CD088259-2025-08-17-20-23-12","","null","","images/causal_sequence/dog_causal/dog_causal_8.png","null","",""
"","","","","","image-button-response","111","576540","0.0-14.0-1.0-1.7","4AB0A44753C54C48B0C3F735CD088259","4AB0A44753C54C48B0C3F735CD088259","0198b98c-eb2d-7536-9496-e47ff960b15c","0198b979-1f5e-7105-8b5f-48f920534529","{""num_scrambled_semantic"":""8"",""num_scrambled_causal"":""4"",""num_scrambled_schematic"":""4"",""participantId"":""4AB0A44753C54C48B0C3F735CD088259"",""assignmentId"":""0198b98c-eb2d-7536-9496-e47ff960b15c"",""projectId"":""0198b979-1f5e-7105-8b5f-48f920534529""}","https://test12345.live/?num_scrambled_semantic=8&num_scrambled_causal=4&num_scrambled_schematic=4&participantId=4AB0A44753C54C48B0C3F735CD088259&assignmentId=0198b98c-eb2d-7536-9496-e47ff960b15c&projectId=0198b979-1f5e-7105-8b5f-48f920534529","4AB0A44753C54C48B0C3F735CD088259-2025-08-17-20-23-12","","839","","images/causal_sequence/dog_causal/dog_causal_8.png","0","",""
"","","","","","image-button-response","112","581944","0.0-14.0-1.0-2.7","4AB0A44753C54C48B0C3F735CD088259","4AB0A44753C54C48B0C3F735CD088259","0198b98c-eb2d-7536-9496-e47ff960b15c","0198b979-1f5e-7105-8b5f-48f920534529","{""num_scrambled_semantic"":""8"",""num_scrambled_causal"":""4"",""num_scrambled_schematic"":""4"",""participantId"":""4AB0A44753C54C48B0C3F735CD088259"",""assignmentId"":""0198b98c-eb2d-7536-9496-e47ff960b15c"",""projectId"":""0198b979-1f5e-7105-8b5f-48f920534529""}","https://test12345.live/?num_scrambled_semantic=8&num_scrambled_causal=4&num_scrambled_schematic=4&participantId=4AB0A44753C54C48B0C3F735CD088259&assignmentId=0198b98c-eb2d-7536-9496-e47ff960b15c&projectId=0198b979-1f5e-7105-8b5f-48f920534529","4AB0A44753C54C48B0C3F735CD088259-2025-08-17-20-23-12","","null","","[]","null","",""
"","","","","","image-button-response","113","586451","0.0-14.0-1.0-0.8","4AB0A44753C54C48B0C3F735CD088259","4AB0A44753C54C48B0C3F735CD088259","0198b98c-eb2d-7536-9496-e47ff960b15c","0198b979-1f5e-7105-8b5f-48f920534529","{""num_scrambled_semantic"":""8"",""num_scrambled_causal"":""4"",""num_scrambled_schematic"":""4"",""participantId"":""4AB0A44753C54C48B0C3F735CD088259"",""assignmentId"":""0198b98c-eb2d-7536-9496-e47ff960b15c"",""projectId"":""0198b979-1f5e-7105-8b5f-48f920534529""}","https://test12345.live/?num_scrambled_semantic=8&num_scrambled_causal=4&num_scrambled_schematic=4&participantId=4AB0A44753C54C48B0C3F735CD088259&assignmentId=0198b98c-eb2d-7536-9496-e47ff960b15c&projectId=0198b979-1f5e-7105-8b5f-48f920534529","4AB0A44753C54C48B0C3F735CD088259-2025-08-17-20-23-12","","null","","images/causal_sequence/dog_causal/dog_causal_9.png","null","",""
"","","","","","image-button-response","114","587203","0.0-14.0-1.0-1.8","4AB0A44753C54C48B0C3F735CD088259","4AB0A44753C54C48B0C3F735CD088259","0198b98c-eb2d-7536-9496-e47ff960b15c","0198b979-1f5e-7105-8b5f-48f920534529","{""num_scrambled_semantic"":""8"",""num_scrambled_causal"":""4"",""num_scrambled_schematic"":""4"",""participantId"":""4AB0A44753C54C48B0C3F735CD088259"",""assignmentId"":""0198b98c-eb2d-7536-9496-e47ff960b15c"",""projectId"":""0198b979-1f5e-7105-8b5f-48f920534529""}","https://test12345.live/?num_scrambled_semantic=8&num_scrambled_causal=4&num_scrambled_schematic=4&participantId=4AB0A44753C54C48B0C3F735CD088259&assignmentId=0198b98c-eb2d-7536-9496-e47ff960b15c&projectId=0198b979-1f5e-7105-8b5f-48f920534529","4AB0A44753C54C48B0C3F735CD088259-2025-08-17-20-23-12","","750","","images/causal_sequence/dog_causal/dog_causal_9.png","0","",""
