"success","timeout","failed_images","failed_audio","failed_video","trial_type","trial_index","time_elapsed","internal_node_id","subject","subject_id","study_id","session_id","urlvar","current_url","audio_id","view_history","rt","device_id","stimulus","response","estimated_stimulus_onset","seq_name"
"true","false","[]","[]","[]","preload","0","29988","0.0-0.0","4C96271A73E647C3B81D31378C99597B","4C96271A73E647C3B81D31378C99597B","af07cbef-2ee5-4b74-bd12-aae646c7bf69","9076ac92-be42-43a2-9634-8b67c7fe93a7","{""num_scrambled_semantic"":""8"",""num_scrambled_causal"":""4"",""num_scrambled_schematic"":""4"",""participantId"":""4C96271A73E647C3B81D31378C99597B"",""assignmentId"":""af07cbef-2ee5-4b74-bd12-aae646c7bf69"",""projectId"":""9076ac92-be42-43a2-9634-8b67c7fe93a7""}","https://test12345.live/?num_scrambled_semantic=8&num_scrambled_causal=4&num_scrambled_schematic=4&participantId=4C96271A73E647C3B81D31378C99597B&assignmentId=af07cbef-2ee5-4b74-bd12-aae646c7bf69&projectId=9076ac92-be42-43a2-9634-8b67c7fe93a7","4C96271A73E647C3B81D31378C99597B-2025-05-22-19-11-29","","","","","","",""
"","","","","","instructions","1","36492","0.0-1.0","4C96271A73E647C3B81D31378C99597B","4C96271A73E647C3B81D31378C99597B","af07cbef-2ee5-4b74-bd12-aae646c7bf69","9076ac92-be42-43a2-9634-8b67c7fe93a7","{""num_scrambled_semantic"":""8"",""num_scrambled_causal"":""4"",""num_scrambled_schematic"":""4"",""participantId"":""4C96271A73E647C3B81D31378C99597B"",""assignmentId"":""af07cbef-2ee5-4b74-bd12-aae646c7bf69"",""projectId"":""9076ac92-be42-43a2-9634-8b67c7fe93a7""}","https://test12345.live/?num_scrambled_semantic=8&num_scrambled_causal=4&num_scrambled_schematic=4&participantId=4C96271A73E647C3B81D31378C99597B&assignmentId=af07cbef-2ee5-4b74-bd12-aae646c7bf69&projectId=9076ac92-be42-43a2-9634-8b67c7fe93a7","4C96271A73E647C3B81D31378C99597B-2025-05-22-19-11-29","[{""page_index"":0,""viewing_time"":6504}]","6504","","","","",""
"","","","","","instructions","2","39924","0.0-2.0","4C96271A73E647C3B81D31378C99597B","4C96271A73E647C3B81D31378C99597B","af07cbef-2ee5-4b74-bd12-aae646c7bf69","9076ac92-be42-43a2-9634-8b67c7fe93a7","{""num_scrambled_semantic"":""8"",""num_scrambled_causal"":""4"",""num_scrambled_schematic"":""4"",""participantId"":""4C96271A73E647C3B81D31378C99597B"",""assignmentId"":""af07cbef-2ee5-4b74-bd12-aae646c7bf69"",""projectId"":""9076ac92-be42-43a2-9634-8b67c7fe93a7""}","https://test12345.live/?num_scrambled_semantic=8&num_scrambled_causal=4&num_scrambled_schematic=4&participantId=4C96271A73E647C3B81D31378C99597B&assignmentId=af07cbef-2ee5-4b74-bd12-aae646c7bf69&projectId=9076ac92-be42-43a2-9634-8b67c7fe93a7","4C96271A73E647C3B81D31378C99597B-2025-05-22-19-11-29","[{""page_index"":0,""viewing_time"":3430}]","3431","","","","",""
"true","","","","","fullscreen","3","42803","0.0-3.0","4C96271A73E647C3B81D31378C99597B","4C96271A73E647C3B81D31378C99597B","af07cbef-2ee5-4b74-bd12-aae646c7bf69","9076ac92-be42-43a2-9634-8b67c7fe93a7","{""num_scrambled_semantic"":""8"",""num_scrambled_causal"":""4"",""num_scrambled_schematic"":""4"",""participantId"":""4C96271A73E647C3B81D31378C99597B"",""assignmentId"":""af07cbef-2ee5-4b74-bd12-aae646c7bf69"",""projectId"":""9076ac92-be42-43a2-9634-8b67c7fe93a7""}","https://test12345.live/?num_scrambled_semantic=8&num_scrambled_causal=4&num_scrambled_schematic=4&participantId=4C96271A73E647C3B81D31378C99597B&assignmentId=af07cbef-2ee5-4b74-bd12-aae646c7bf69&projectId=9076ac92-be42-43a2-9634-8b67c7fe93a7","4C96271A73E647C3B81D31378C99597B-2025-05-22-19-11-29","","1871","","","","",""
"","","","","","initialize-microphone","4","46242","0.0-4.0-0.0","4C96271A73E647C3B81D31378C99597B","4C96271A73E647C3B81D31378C99597B","af07cbef-2ee5-4b74-bd12-aae646c7bf69","9076ac92-be42-43a2-9634-8b67c7fe93a7","{""num_scrambled_semantic"":""8"",""num_scrambled_causal"":""4"",""num_scrambled_schematic"":""4"",""participantId"":""4C96271A73E647C3B81D31378C99597B"",""assignmentId"":""af07cbef-2ee5-4b74-bd12-aae646c7bf69"",""projectId"":""9076ac92-be42-43a2-9634-8b67c7fe93a7""}","https://test12345.live/?num_scrambled_semantic=8&num_scrambled_causal=4&num_scrambled_schematic=4&participantId=4C96271A73E647C3B81D31378C99597B&assignmentId=af07cbef-2ee5-4b74-bd12-aae646c7bf69&projectId=9076ac92-be42-43a2-9634-8b67c7fe93a7","4C96271A73E647C3B81D31378C99597B-2025-05-22-19-11-29","","","498407f6ff4317b71512697dcc2e49b69aa059e6fdca40d08cefd7ccaeb75c63","","","",""
"","","","","","html-audio-response","5","57332","0.0-4.0-1.0","4C96271A73E647C3B81D31378C99597B","4C96271A73E647C3B81D31378C99597B","af07cbef-2ee5-4b74-bd12-aae646c7bf69","9076ac92-be42-43a2-9634-8b67c7fe93a7","{""num_scrambled_semantic"":""8"",""num_scrambled_causal"":""4"",""num_scrambled_schematic"":""4"",""participantId"":""4C96271A73E647C3B81D31378C99597B"",""assignmentId"":""af07cbef-2ee5-4b74-bd12-aae646c7bf69"",""projectId"":""9076ac92-be42-43a2-9634-8b67c7fe93a7""}","https://test12345.live/?num_scrambled_semantic=8&num_scrambled_causal=4&num_scrambled_schematic=4&participantId=4C96271A73E647C3B81D31378C99597B&assignmentId=af07cbef-2ee5-4b74-bd12-aae646c7bf69&projectId=9076ac92-be42-43a2-9634-8b67c7fe93a7","4C96271A73E647C3B81D31378C99597B-2025-05-22-19-11-29","","2956","","<span style=""color: red; font-size: 24px""> NOW RECORDING</span>
        <p>Please test Microphone</p>","","15",""
"","","","","","html-button-response","6","58925","0.0-4.0-2.0","4C96271A73E647C3B81D31378C99597B","4C96271A73E647C3B81D31378C99597B","af07cbef-2ee5-4b74-bd12-aae646c7bf69","9076ac92-be42-43a2-9634-8b67c7fe93a7","{""num_scrambled_semantic"":""8"",""num_scrambled_causal"":""4"",""num_scrambled_schematic"":""4"",""participantId"":""4C96271A73E647C3B81D31378C99597B"",""assignmentId"":""af07cbef-2ee5-4b74-bd12-aae646c7bf69"",""projectId"":""9076ac92-be42-43a2-9634-8b67c7fe93a7""}","https://test12345.live/?num_scrambled_semantic=8&num_scrambled_causal=4&num_scrambled_schematic=4&participantId=4C96271A73E647C3B81D31378C99597B&assignmentId=af07cbef-2ee5-4b74-bd12-aae646c7bf69&projectId=9076ac92-be42-43a2-9634-8b67c7fe93a7","4C96271A73E647C3B81D31378C99597B-2025-05-22-19-11-29","","1591","","<p style=""font-size:48px; color:red;"">Is Microphone OK?</p>","1","",""
"","","","","","instructions","7","66292","0.0-5.0","4C96271A73E647C3B81D31378C99597B","4C96271A73E647C3B81D31378C99597B","af07cbef-2ee5-4b74-bd12-aae646c7bf69","9076ac92-be42-43a2-9634-8b67c7fe93a7","{""num_scrambled_semantic"":""8"",""num_scrambled_causal"":""4"",""num_scrambled_schematic"":""4"",""participantId"":""4C96271A73E647C3B81D31378C99597B"",""assignmentId"":""af07cbef-2ee5-4b74-bd12-aae646c7bf69"",""projectId"":""9076ac92-be42-43a2-9634-8b67c7fe93a7""}","https://test12345.live/?num_scrambled_semantic=8&num_scrambled_causal=4&num_scrambled_schematic=4&participantId=4C96271A73E647C3B81D31378C99597B&assignmentId=af07cbef-2ee5-4b74-bd12-aae646c7bf69&projectId=9076ac92-be42-43a2-9634-8b67c7fe93a7","4C96271A73E647C3B81D31378C99597B-2025-05-22-19-11-29","[{""page_index"":0,""viewing_time"":2831},{""page_index"":1,""viewing_time"":4535}]","7366","","","","",""
"","","","","","image-button-response","8","72300","0.0-6.0-0.0","4C96271A73E647C3B81D31378C99597B","4C96271A73E647C3B81D31378C99597B","af07cbef-2ee5-4b74-bd12-aae646c7bf69","9076ac92-be42-43a2-9634-8b67c7fe93a7","{""num_scrambled_semantic"":""8"",""num_scrambled_causal"":""4"",""num_scrambled_schematic"":""4"",""participantId"":""4C96271A73E647C3B81D31378C99597B"",""assignmentId"":""af07cbef-2ee5-4b74-bd12-aae646c7bf69"",""projectId"":""9076ac92-be42-43a2-9634-8b67c7fe93a7""}","https://test12345.live/?num_scrambled_semantic=8&num_scrambled_causal=4&num_scrambled_schematic=4&participantId=4C96271A73E647C3B81D31378C99597B&assignmentId=af07cbef-2ee5-4b74-bd12-aae646c7bf69&projectId=9076ac92-be42-43a2-9634-8b67c7fe93a7","4C96271A73E647C3B81D31378C99597B-2025-05-22-19-11-29","","null","","images/instructions/movie_0.png","null","",""
"","","","","","image-button-response","9","76815","0.0-6.0-1.0-0.0","4C96271A73E647C3B81D31378C99597B","4C96271A73E647C3B81D31378C99597B","af07cbef-2ee5-4b74-bd12-aae646c7bf69","9076ac92-be42-43a2-9634-8b67c7fe93a7","{""num_scrambled_semantic"":""8"",""num_scrambled_causal"":""4"",""num_scrambled_schematic"":""4"",""participantId"":""4C96271A73E647C3B81D31378C99597B"",""assignmentId"":""af07cbef-2ee5-4b74-bd12-aae646c7bf69"",""projectId"":""9076ac92-be42-43a2-9634-8b67c7fe93a7""}","https://test12345.live/?num_scrambled_semantic=8&num_scrambled_causal=4&num_scrambled_schematic=4&participantId=4C96271A73E647C3B81D31378C99597B&assignmentId=af07cbef-2ee5-4b74-bd12-aae646c7bf69&projectId=9076ac92-be42-43a2-9634-8b67c7fe93a7","4C96271A73E647C3B81D31378C99597B-2025-05-22-19-11-29","","null","","images/instructions/movie_1.png","null","",""
"","","","","","image-button-response","10","80818","0.0-6.0-1.0-1.0","4C96271A73E647C3B81D31378C99597B","4C96271A73E647C3B81D31378C99597B","af07cbef-2ee5-4b74-bd12-aae646c7bf69","9076ac92-be42-43a2-9634-8b67c7fe93a7","{""num_scrambled_semantic"":""8"",""num_scrambled_causal"":""4"",""num_scrambled_schematic"":""4"",""participantId"":""4C96271A73E647C3B81D31378C99597B"",""assignmentId"":""af07cbef-2ee5-4b74-bd12-aae646c7bf69"",""projectId"":""9076ac92-be42-43a2-9634-8b67c7fe93a7""}","https://test12345.live/?num_scrambled_semantic=8&num_scrambled_causal=4&num_scrambled_schematic=4&participantId=4C96271A73E647C3B81D31378C99597B&assignmentId=af07cbef-2ee5-4b74-bd12-aae646c7bf69&projectId=9076ac92-be42-43a2-9634-8b67c7fe93a7","4C96271A73E647C3B81D31378C99597B-2025-05-22-19-11-29","","null","","images/instructions/movie_1.png","null","",""
"","","","","","image-button-response","11","82621","0.0-6.0-1.0-2.0","4C96271A73E647C3B81D31378C99597B","4C96271A73E647C3B81D31378C99597B","af07cbef-2ee5-4b74-bd12-aae646c7bf69","9076ac92-be42-43a2-9634-8b67c7fe93a7","{""num_scrambled_semantic"":""8"",""num_scrambled_causal"":""4"",""num_scrambled_schematic"":""4"",""participantId"":""4C96271A73E647C3B81D31378C99597B"",""assignmentId"":""af07cbef-2ee5-4b74-bd12-aae646c7bf69"",""projectId"":""9076ac92-be42-43a2-9634-8b67c7fe93a7""}","https://test12345.live/?num_scrambled_semantic=8&num_scrambled_causal=4&num_scrambled_schematic=4&participantId=4C96271A73E647C3B81D31378C99597B&assignmentId=af07cbef-2ee5-4b74-bd12-aae646c7bf69&projectId=9076ac92-be42-43a2-9634-8b67c7fe93a7","4C96271A73E647C3B81D31378C99597B-2025-05-22-19-11-29","","null","","[]","null","",""
"","","","","","image-button-response","12","87133","0.0-6.0-1.0-0.1","4C96271A73E647C3B81D31378C99597B","4C96271A73E647C3B81D31378C99597B","af07cbef-2ee5-4b74-bd12-aae646c7bf69","9076ac92-be42-43a2-9634-8b67c7fe93a7","{""num_scrambled_semantic"":""8"",""num_scrambled_causal"":""4"",""num_scrambled_schematic"":""4"",""participantId"":""4C96271A73E647C3B81D31378C99597B"",""assignmentId"":""af07cbef-2ee5-4b74-bd12-aae646c7bf69"",""projectId"":""9076ac92-be42-43a2-9634-8b67c7fe93a7""}","https://test12345.live/?num_scrambled_semantic=8&num_scrambled_causal=4&num_scrambled_schematic=4&participantId=4C96271A73E647C3B81D31378C99597B&assignmentId=af07cbef-2ee5-4b74-bd12-aae646c7bf69&projectId=9076ac92-be42-43a2-9634-8b67c7fe93a7","4C96271A73E647C3B81D31378C99597B-2025-05-22-19-11-29","","null","","images/instructions/movie_2.png","null","",""
"","","","","","image-button-response","13","88213","0.0-6.0-1.0-1.1","4C96271A73E647C3B81D31378C99597B","4C96271A73E647C3B81D31378C99597B","af07cbef-2ee5-4b74-bd12-aae646c7bf69","9076ac92-be42-43a2-9634-8b67c7fe93a7","{""num_scrambled_semantic"":""8"",""num_scrambled_causal"":""4"",""num_scrambled_schematic"":""4"",""participantId"":""4C96271A73E647C3B81D31378C99597B"",""assignmentId"":""af07cbef-2ee5-4b74-bd12-aae646c7bf69"",""projectId"":""9076ac92-be42-43a2-9634-8b67c7fe93a7""}","https://test12345.live/?num_scrambled_semantic=8&num_scrambled_causal=4&num_scrambled_schematic=4&participantId=4C96271A73E647C3B81D31378C99597B&assignmentId=af07cbef-2ee5-4b74-bd12-aae646c7bf69&projectId=9076ac92-be42-43a2-9634-8b67c7fe93a7","4C96271A73E647C3B81D31378C99597B-2025-05-22-19-11-29","","1079","","images/instructions/movie_2.png","1","",""
"","","","","","image-button-response","14","90017","0.0-6.0-1.0-2.1","4C96271A73E647C3B81D31378C99597B","4C96271A73E647C3B81D31378C99597B","af07cbef-2ee5-4b74-bd12-aae646c7bf69","9076ac92-be42-43a2-9634-8b67c7fe93a7","{""num_scrambled_semantic"":""8"",""num_scrambled_causal"":""4"",""num_scrambled_schematic"":""4"",""participantId"":""4C96271A73E647C3B81D31378C99597B"",""assignmentId"":""af07cbef-2ee5-4b74-bd12-aae646c7bf69"",""projectId"":""9076ac92-be42-43a2-9634-8b67c7fe93a7""}","https://test12345.live/?num_scrambled_semantic=8&num_scrambled_causal=4&num_scrambled_schematic=4&participantId=4C96271A73E647C3B81D31378C99597B&assignmentId=af07cbef-2ee5-4b74-bd12-aae646c7bf69&projectId=9076ac92-be42-43a2-9634-8b67c7fe93a7","4C96271A73E647C3B81D31378C99597B-2025-05-22-19-11-29","","null","","[]","null","",""
"","","","","","image-button-response","15","94521","0.0-6.0-1.0-0.2","4C96271A73E647C3B81D31378C99597B","4C96271A73E647C3B81D31378C99597B","af07cbef-2ee5-4b74-bd12-aae646c7bf69","9076ac92-be42-43a2-9634-8b67c7fe93a7","{""num_scrambled_semantic"":""8"",""num_scrambled_causal"":""4"",""num_scrambled_schematic"":""4"",""participantId"":""4C96271A73E647C3B81D31378C99597B"",""assignmentId"":""af07cbef-2ee5-4b74-bd12-aae646c7bf69"",""projectId"":""9076ac92-be42-43a2-9634-8b67c7fe93a7""}","https://test12345.live/?num_scrambled_semantic=8&num_scrambled_causal=4&num_scrambled_schematic=4&participantId=4C96271A73E647C3B81D31378C99597B&assignmentId=af07cbef-2ee5-4b74-bd12-aae646c7bf69&projectId=9076ac92-be42-43a2-9634-8b67c7fe93a7","4C96271A73E647C3B81D31378C99597B-2025-05-22-19-11-29","","null","","images/instructions/movie_3.png","null","",""
"","","","","","image-button-response","16","95429","0.0-6.0-1.0-1.2","4C96271A73E647C3B81D31378C99597B","4C96271A73E647C3B81D31378C99597B","af07cbef-2ee5-4b74-bd12-aae646c7bf69","9076ac92-be42-43a2-9634-8b67c7fe93a7","{""num_scrambled_semantic"":""8"",""num_scrambled_causal"":""4"",""num_scrambled_schematic"":""4"",""participantId"":""4C96271A73E647C3B81D31378C99597B"",""assignmentId"":""af07cbef-2ee5-4b74-bd12-aae646c7bf69"",""projectId"":""9076ac92-be42-43a2-9634-8b67c7fe93a7""}","https://test12345.live/?num_scrambled_semantic=8&num_scrambled_causal=4&num_scrambled_schematic=4&participantId=4C96271A73E647C3B81D31378C99597B&assignmentId=af07cbef-2ee5-4b74-bd12-aae646c7bf69&projectId=9076ac92-be42-43a2-9634-8b67c7fe93a7","4C96271A73E647C3B81D31378C99597B-2025-05-22-19-11-29","","906","","images/instructions/movie_3.png","0","",""
"","","","","","image-button-response","17","97230","0.0-6.0-1.0-2.2","4C96271A73E647C3B81D31378C99597B","4C96271A73E647C3B81D31378C99597B","af07cbef-2ee5-4b74-bd12-aae646c7bf69","9076ac92-be42-43a2-9634-8b67c7fe93a7","{""num_scrambled_semantic"":""8"",""num_scrambled_causal"":""4"",""num_scrambled_schematic"":""4"",""participantId"":""4C96271A73E647C3B81D31378C99597B"",""assignmentId"":""af07cbef-2ee5-4b74-bd12-aae646c7bf69"",""projectId"":""9076ac92-be42-43a2-9634-8b67c7fe93a7""}","https://test12345.live/?num_scrambled_semantic=8&num_scrambled_causal=4&num_scrambled_schematic=4&participantId=4C96271A73E647C3B81D31378C99597B&assignmentId=af07cbef-2ee5-4b74-bd12-aae646c7bf69&projectId=9076ac92-be42-43a2-9634-8b67c7fe93a7","4C96271A73E647C3B81D31378C99597B-2025-05-22-19-11-29","","null","","[]","null","",""
"","","","","","image-button-response","18","101739","0.0-6.0-1.0-0.3","4C96271A73E647C3B81D31378C99597B","4C96271A73E647C3B81D31378C99597B","af07cbef-2ee5-4b74-bd12-aae646c7bf69","9076ac92-be42-43a2-9634-8b67c7fe93a7","{""num_scrambled_semantic"":""8"",""num_scrambled_causal"":""4"",""num_scrambled_schematic"":""4"",""participantId"":""4C96271A73E647C3B81D31378C99597B"",""assignmentId"":""af07cbef-2ee5-4b74-bd12-aae646c7bf69"",""projectId"":""9076ac92-be42-43a2-9634-8b67c7fe93a7""}","https://test12345.live/?num_scrambled_semantic=8&num_scrambled_causal=4&num_scrambled_schematic=4&participantId=4C96271A73E647C3B81D31378C99597B&assignmentId=af07cbef-2ee5-4b74-bd12-aae646c7bf69&projectId=9076ac92-be42-43a2-9634-8b67c7fe93a7","4C96271A73E647C3B81D31378C99597B-2025-05-22-19-11-29","","null","","images/instructions/movie_4.png","null","",""
"","","","","","image-button-response","19","102436","0.0-6.0-1.0-1.3","4C96271A73E647C3B81D31378C99597B","4C96271A73E647C3B81D31378C99597B","af07cbef-2ee5-4b74-bd12-aae646c7bf69","9076ac92-be42-43a2-9634-8b67c7fe93a7","{""num_scrambled_semantic"":""8"",""num_scrambled_causal"":""4"",""num_scrambled_schematic"":""4"",""participantId"":""4C96271A73E647C3B81D31378C99597B"",""assignmentId"":""af07cbef-2ee5-4b74-bd12-aae646c7bf69"",""projectId"":""9076ac92-be42-43a2-9634-8b67c7fe93a7""}","https://test12345.live/?num_scrambled_semantic=8&num_scrambled_causal=4&num_scrambled_schematic=4&participantId=4C96271A73E647C3B81D31378C99597B&assignmentId=af07cbef-2ee5-4b74-bd12-aae646c7bf69&projectId=9076ac92-be42-43a2-9634-8b67c7fe93a7","4C96271A73E647C3B81D31378C99597B-2025-05-22-19-11-29","","694","","images/instructions/movie_4.png","0","",""
"","","","","","image-button-response","20","104247","0.0-6.0-1.0-2.3","4C96271A73E647C3B81D31378C99597B","4C96271A73E647C3B81D31378C99597B","af07cbef-2ee5-4b74-bd12-aae646c7bf69","9076ac92-be42-43a2-9634-8b67c7fe93a7","{""num_scrambled_semantic"":""8"",""num_scrambled_causal"":""4"",""num_scrambled_schematic"":""4"",""participantId"":""4C96271A73E647C3B81D31378C99597B"",""assignmentId"":""af07cbef-2ee5-4b74-bd12-aae646c7bf69"",""projectId"":""9076ac92-be42-43a2-9634-8b67c7fe93a7""}","https://test12345.live/?num_scrambled_semantic=8&num_scrambled_causal=4&num_scrambled_schematic=4&participantId=4C96271A73E647C3B81D31378C99597B&assignmentId=af07cbef-2ee5-4b74-bd12-aae646c7bf69&projectId=9076ac92-be42-43a2-9634-8b67c7fe93a7","4C96271A73E647C3B81D31378C99597B-2025-05-22-19-11-29","","null","","[]","null","",""
"","","","","","instructions","21","109629","0.0-7.0","4C96271A73E647C3B81D31378C99597B","4C96271A73E647C3B81D31378C99597B","af07cbef-2ee5-4b74-bd12-aae646c7bf69","9076ac92-be42-43a2-9634-8b67c7fe93a7","{""num_scrambled_semantic"":""8"",""num_scrambled_causal"":""4"",""num_scrambled_schematic"":""4"",""participantId"":""4C96271A73E647C3B81D31378C99597B"",""assignmentId"":""af07cbef-2ee5-4b74-bd12-aae646c7bf69"",""projectId"":""9076ac92-be42-43a2-9634-8b67c7fe93a7""}","https://test12345.live/?num_scrambled_semantic=8&num_scrambled_causal=4&num_scrambled_schematic=4&participantId=4C96271A73E647C3B81D31378C99597B&assignmentId=af07cbef-2ee5-4b74-bd12-aae646c7bf69&projectId=9076ac92-be42-43a2-9634-8b67c7fe93a7","4C96271A73E647C3B81D31378C99597B-2025-05-22-19-11-29","[{""page_index"":0,""viewing_time"":4116},{""page_index"":1,""viewing_time"":1265}]","5381","","","","",""
"","","","","","html-audio-response","22","134475","0.0-8.0","4C96271A73E647C3B81D31378C99597B","4C96271A73E647C3B81D31378C99597B","af07cbef-2ee5-4b74-bd12-aae646c7bf69","9076ac92-be42-43a2-9634-8b67c7fe93a7","{""num_scrambled_semantic"":""8"",""num_scrambled_causal"":""4"",""num_scrambled_schematic"":""4"",""participantId"":""4C96271A73E647C3B81D31378C99597B"",""assignmentId"":""af07cbef-2ee5-4b74-bd12-aae646c7bf69"",""projectId"":""9076ac92-be42-43a2-9634-8b67c7fe93a7""}","https://test12345.live/?num_scrambled_semantic=8&num_scrambled_causal=4&num_scrambled_schematic=4&participantId=4C96271A73E647C3B81D31378C99597B&assignmentId=af07cbef-2ee5-4b74-bd12-aae646c7bf69&projectId=9076ac92-be42-43a2-9634-8b67c7fe93a7","4C96271A73E647C3B81D31378C99597B-2025-05-22-19-11-29","","15613","","[""<span style=\""color: red; font-size: 24px\""> NOW RECORDING</span><p>Please say out loud all the images you saw in the exact order you saw them. Try to recall as many images as you can, but remember: getting the order right is more important than the number of images you recall.</p>""]","","5",""
"","","","","","instructions","23","135732","0.0-9.0","4C96271A73E647C3B81D31378C99597B","4C96271A73E647C3B81D31378C99597B","af07cbef-2ee5-4b74-bd12-aae646c7bf69","9076ac92-be42-43a2-9634-8b67c7fe93a7","{""num_scrambled_semantic"":""8"",""num_scrambled_causal"":""4"",""num_scrambled_schematic"":""4"",""participantId"":""4C96271A73E647C3B81D31378C99597B"",""assignmentId"":""af07cbef-2ee5-4b74-bd12-aae646c7bf69"",""projectId"":""9076ac92-be42-43a2-9634-8b67c7fe93a7""}","https://test12345.live/?num_scrambled_semantic=8&num_scrambled_causal=4&num_scrambled_schematic=4&participantId=4C96271A73E647C3B81D31378C99597B&assignmentId=af07cbef-2ee5-4b74-bd12-aae646c7bf69&projectId=9076ac92-be42-43a2-9634-8b67c7fe93a7","4C96271A73E647C3B81D31378C99597B-2025-05-22-19-11-29","[{""page_index"":0,""viewing_time"":1248}]","1248","","","","",""
"","","","","","image-button-response","24","141735","0.0-10.0-0.0","4C96271A73E647C3B81D31378C99597B","4C96271A73E647C3B81D31378C99597B","af07cbef-2ee5-4b74-bd12-aae646c7bf69","9076ac92-be42-43a2-9634-8b67c7fe93a7","{""num_scrambled_semantic"":""8"",""num_scrambled_causal"":""4"",""num_scrambled_schematic"":""4"",""participantId"":""4C96271A73E647C3B81D31378C99597B"",""assignmentId"":""af07cbef-2ee5-4b74-bd12-aae646c7bf69"",""projectId"":""9076ac92-be42-43a2-9634-8b67c7fe93a7""}","https://test12345.live/?num_scrambled_semantic=8&num_scrambled_causal=4&num_scrambled_schematic=4&participantId=4C96271A73E647C3B81D31378C99597B&assignmentId=af07cbef-2ee5-4b74-bd12-aae646c7bf69&projectId=9076ac92-be42-43a2-9634-8b67c7fe93a7","4C96271A73E647C3B81D31378C99597B-2025-05-22-19-11-29","","null","","images/semantic_sequence/redecorating_semantic/redecorating_semantic_0.png","null","",""
"","","","","","image-button-response","25","146239","0.0-10.0-1.0-0.0","4C96271A73E647C3B81D31378C99597B","4C96271A73E647C3B81D31378C99597B","af07cbef-2ee5-4b74-bd12-aae646c7bf69","9076ac92-be42-43a2-9634-8b67c7fe93a7","{""num_scrambled_semantic"":""8"",""num_scrambled_causal"":""4"",""num_scrambled_schematic"":""4"",""participantId"":""4C96271A73E647C3B81D31378C99597B"",""assignmentId"":""af07cbef-2ee5-4b74-bd12-aae646c7bf69"",""projectId"":""9076ac92-be42-43a2-9634-8b67c7fe93a7""}","https://test12345.live/?num_scrambled_semantic=8&num_scrambled_causal=4&num_scrambled_schematic=4&participantId=4C96271A73E647C3B81D31378C99597B&assignmentId=af07cbef-2ee5-4b74-bd12-aae646c7bf69&projectId=9076ac92-be42-43a2-9634-8b67c7fe93a7","4C96271A73E647C3B81D31378C99597B-2025-05-22-19-11-29","","null","","images/semantic_sequence/redecorating_semantic/redecorating_semantic_7.png","null","",""
"","","","","","image-button-response","26","147509","0.0-10.0-1.0-1.0","4C96271A73E647C3B81D31378C99597B","4C96271A73E647C3B81D31378C99597B","af07cbef-2ee5-4b74-bd12-aae646c7bf69","9076ac92-be42-43a2-9634-8b67c7fe93a7","{""num_scrambled_semantic"":""8"",""num_scrambled_causal"":""4"",""num_scrambled_schematic"":""4"",""participantId"":""4C96271A73E647C3B81D31378C99597B"",""assignmentId"":""af07cbef-2ee5-4b74-bd12-aae646c7bf69"",""projectId"":""9076ac92-be42-43a2-9634-8b67c7fe93a7""}","https://test12345.live/?num_scrambled_semantic=8&num_scrambled_causal=4&num_scrambled_schematic=4&participantId=4C96271A73E647C3B81D31378C99597B&assignmentId=af07cbef-2ee5-4b74-bd12-aae646c7bf69&projectId=9076ac92-be42-43a2-9634-8b67c7fe93a7","4C96271A73E647C3B81D31378C99597B-2025-05-22-19-11-29","","1268","","images/semantic_sequence/redecorating_semantic/redecorating_semantic_7.png","0","",""
"","","","","","image-button-response","27","149320","0.0-10.0-1.0-2.0","4C96271A73E647C3B81D31378C99597B","4C96271A73E647C3B81D31378C99597B","af07cbef-2ee5-4b74-bd12-aae646c7bf69","9076ac92-be42-43a2-9634-8b67c7fe93a7","{""num_scrambled_semantic"":""8"",""num_scrambled_causal"":""4"",""num_scrambled_schematic"":""4"",""participantId"":""4C96271A73E647C3B81D31378C99597B"",""assignmentId"":""af07cbef-2ee5-4b74-bd12-aae646c7bf69"",""projectId"":""9076ac92-be42-43a2-9634-8b67c7fe93a7""}","https://test12345.live/?num_scrambled_semantic=8&num_scrambled_causal=4&num_scrambled_schematic=4&participantId=4C96271A73E647C3B81D31378C99597B&assignmentId=af07cbef-2ee5-4b74-bd12-aae646c7bf69&projectId=9076ac92-be42-43a2-9634-8b67c7fe93a7","4C96271A73E647C3B81D31378C99597B-2025-05-22-19-11-29","","null","","[]","null","",""
"","","","","","image-button-response","28","153825","0.0-10.0-1.0-0.1","4C96271A73E647C3B81D31378C99597B","4C96271A73E647C3B81D31378C99597B","af07cbef-2ee5-4b74-bd12-aae646c7bf69","9076ac92-be42-43a2-9634-8b67c7fe93a7","{""num_scrambled_semantic"":""8"",""num_scrambled_causal"":""4"",""num_scrambled_schematic"":""4"",""participantId"":""4C96271A73E647C3B81D31378C99597B"",""assignmentId"":""af07cbef-2ee5-4b74-bd12-aae646c7bf69"",""projectId"":""9076ac92-be42-43a2-9634-8b67c7fe93a7""}","https://test12345.live/?num_scrambled_semantic=8&num_scrambled_causal=4&num_scrambled_schematic=4&participantId=4C96271A73E647C3B81D31378C99597B&assignmentId=af07cbef-2ee5-4b74-bd12-aae646c7bf69&projectId=9076ac92-be42-43a2-9634-8b67c7fe93a7","4C96271A73E647C3B81D31378C99597B-2025-05-22-19-11-29","","null","","images/semantic_sequence/redecorating_semantic/redecorating_semantic_5.png","null","",""
"","","","","","image-button-response","29","154981","0.0-10.0-1.0-1.1","4C96271A73E647C3B81D31378C99597B","4C96271A73E647C3B81D31378C99597B","af07cbef-2ee5-4b74-bd12-aae646c7bf69","9076ac92-be42-43a2-9634-8b67c7fe93a7","{""num_scrambled_semantic"":""8"",""num_scrambled_causal"":""4"",""num_scrambled_schematic"":""4"",""participantId"":""4C96271A73E647C3B81D31378C99597B"",""assignmentId"":""af07cbef-2ee5-4b74-bd12-aae646c7bf69"",""projectId"":""9076ac92-be42-43a2-9634-8b67c7fe93a7""}","https://test12345.live/?num_scrambled_semantic=8&num_scrambled_causal=4&num_scrambled_schematic=4&participantId=4C96271A73E647C3B81D31378C99597B&assignmentId=af07cbef-2ee5-4b74-bd12-aae646c7bf69&projectId=9076ac92-be42-43a2-9634-8b67c7fe93a7","4C96271A73E647C3B81D31378C99597B-2025-05-22-19-11-29","","1155","","images/semantic_sequence/redecorating_semantic/redecorating_semantic_5.png","0","",""
"","","","","","image-button-response","30","156798","0.0-10.0-1.0-2.1","4C96271A73E647C3B81D31378C99597B","4C96271A73E647C3B81D31378C99597B","af07cbef-2ee5-4b74-bd12-aae646c7bf69","9076ac92-be42-43a2-9634-8b67c7fe93a7","{""num_scrambled_semantic"":""8"",""num_scrambled_causal"":""4"",""num_scrambled_schematic"":""4"",""participantId"":""4C96271A73E647C3B81D31378C99597B"",""assignmentId"":""af07cbef-2ee5-4b74-bd12-aae646c7bf69"",""projectId"":""9076ac92-be42-43a2-9634-8b67c7fe93a7""}","https://test12345.live/?num_scrambled_semantic=8&num_scrambled_causal=4&num_scrambled_schematic=4&participantId=4C96271A73E647C3B81D31378C99597B&assignmentId=af07cbef-2ee5-4b74-bd12-aae646c7bf69&projectId=9076ac92-be42-43a2-9634-8b67c7fe93a7","4C96271A73E647C3B81D31378C99597B-2025-05-22-19-11-29","","null","","[]","null","",""
"","","","","","image-button-response","31","161310","0.0-10.0-1.0-0.2","4C96271A73E647C3B81D31378C99597B","4C96271A73E647C3B81D31378C99597B","af07cbef-2ee5-4b74-bd12-aae646c7bf69","9076ac92-be42-43a2-9634-8b67c7fe93a7","{""num_scrambled_semantic"":""8"",""num_scrambled_causal"":""4"",""num_scrambled_schematic"":""4"",""participantId"":""4C96271A73E647C3B81D31378C99597B"",""assignmentId"":""af07cbef-2ee5-4b74-bd12-aae646c7bf69"",""projectId"":""9076ac92-be42-43a2-9634-8b67c7fe93a7""}","https://test12345.live/?num_scrambled_semantic=8&num_scrambled_causal=4&num_scrambled_schematic=4&participantId=4C96271A73E647C3B81D31378C99597B&assignmentId=af07cbef-2ee5-4b74-bd12-aae646c7bf69&projectId=9076ac92-be42-43a2-9634-8b67c7fe93a7","4C96271A73E647C3B81D31378C99597B-2025-05-22-19-11-29","","null","","images/semantic_sequence/redecorating_semantic/redecorating_semantic_8.png","null","",""
"","","","","","image-button-response","32","161949","0.0-10.0-1.0-1.2","4C96271A73E647C3B81D31378C99597B","4C96271A73E647C3B81D31378C99597B","af07cbef-2ee5-4b74-bd12-aae646c7bf69","9076ac92-be42-43a2-9634-8b67c7fe93a7","{""num_scrambled_semantic"":""8"",""num_scrambled_causal"":""4"",""num_scrambled_schematic"":""4"",""participantId"":""4C96271A73E647C3B81D31378C99597B"",""assignmentId"":""af07cbef-2ee5-4b74-bd12-aae646c7bf69"",""projectId"":""9076ac92-be42-43a2-9634-8b67c7fe93a7""}","https://test12345.live/?num_scrambled_semantic=8&num_scrambled_causal=4&num_scrambled_schematic=4&participantId=4C96271A73E647C3B81D31378C99597B&assignmentId=af07cbef-2ee5-4b74-bd12-aae646c7bf69&projectId=9076ac92-be42-43a2-9634-8b67c7fe93a7","4C96271A73E647C3B81D31378C99597B-2025-05-22-19-11-29","","637","","images/semantic_sequence/redecorating_semantic/redecorating_semantic_8.png","0","",""
"","","","","","image-button-response","33","163750","0.0-10.0-1.0-2.2","4C96271A73E647C3B81D31378C99597B","4C96271A73E647C3B81D31378C99597B","af07cbef-2ee5-4b74-bd12-aae646c7bf69","9076ac92-be42-43a2-9634-8b67c7fe93a7","{""num_scrambled_semantic"":""8"",""num_scrambled_causal"":""4"",""num_scrambled_schematic"":""4"",""participantId"":""4C96271A73E647C3B81D31378C99597B"",""assignmentId"":""af07cbef-2ee5-4b74-bd12-aae646c7bf69"",""projectId"":""9076ac92-be42-43a2-9634-8b67c7fe93a7""}","https://test12345.live/?num_scrambled_semantic=8&num_scrambled_causal=4&num_scrambled_schematic=4&participantId=4C96271A73E647C3B81D31378C99597B&assignmentId=af07cbef-2ee5-4b74-bd12-aae646c7bf69&projectId=9076ac92-be42-43a2-9634-8b67c7fe93a7","4C96271A73E647C3B81D31378C99597B-2025-05-22-19-11-29","","null","","[]","null","",""
"","","","","","image-button-response","34","168253","0.0-10.0-1.0-0.3","4C96271A73E647C3B81D31378C99597B","4C96271A73E647C3B81D31378C99597B","af07cbef-2ee5-4b74-bd12-aae646c7bf69","9076ac92-be42-43a2-9634-8b67c7fe93a7","{""num_scrambled_semantic"":""8"",""num_scrambled_causal"":""4"",""num_scrambled_schematic"":""4"",""participantId"":""4C96271A73E647C3B81D31378C99597B"",""assignmentId"":""af07cbef-2ee5-4b74-bd12-aae646c7bf69"",""projectId"":""9076ac92-be42-43a2-9634-8b67c7fe93a7""}","https://test12345.live/?num_scrambled_semantic=8&num_scrambled_causal=4&num_scrambled_schematic=4&participantId=4C96271A73E647C3B81D31378C99597B&assignmentId=af07cbef-2ee5-4b74-bd12-aae646c7bf69&projectId=9076ac92-be42-43a2-9634-8b67c7fe93a7","4C96271A73E647C3B81D31378C99597B-2025-05-22-19-11-29","","null","","images/semantic_sequence/redecorating_semantic/redecorating_semantic_3.png","null","",""
"","","","","","image-button-response","35","168980","0.0-10.0-1.0-1.3","4C96271A73E647C3B81D31378C99597B","4C96271A73E647C3B81D31378C99597B","af07cbef-2ee5-4b74-bd12-aae646c7bf69","9076ac92-be42-43a2-9634-8b67c7fe93a7","{""num_scrambled_semantic"":""8"",""num_scrambled_causal"":""4"",""num_scrambled_schematic"":""4"",""participantId"":""4C96271A73E647C3B81D31378C99597B"",""assignmentId"":""af07cbef-2ee5-4b74-bd12-aae646c7bf69"",""projectId"":""9076ac92-be42-43a2-9634-8b67c7fe93a7""}","https://test12345.live/?num_scrambled_semantic=8&num_scrambled_causal=4&num_scrambled_schematic=4&participantId=4C96271A73E647C3B81D31378C99597B&assignmentId=af07cbef-2ee5-4b74-bd12-aae646c7bf69&projectId=9076ac92-be42-43a2-9634-8b67c7fe93a7","4C96271A73E647C3B81D31378C99597B-2025-05-22-19-11-29","","726","","images/semantic_sequence/redecorating_semantic/redecorating_semantic_3.png","0","",""
"","","","","","image-button-response","36","170786","0.0-10.0-1.0-2.3","4C96271A73E647C3B81D31378C99597B","4C96271A73E647C3B81D31378C99597B","af07cbef-2ee5-4b74-bd12-aae646c7bf69","9076ac92-be42-43a2-9634-8b67c7fe93a7","{""num_scrambled_semantic"":""8"",""num_scrambled_causal"":""4"",""num_scrambled_schematic"":""4"",""participantId"":""4C96271A73E647C3B81D31378C99597B"",""assignmentId"":""af07cbef-2ee5-4b74-bd12-aae646c7bf69"",""projectId"":""9076ac92-be42-43a2-9634-8b67c7fe93a7""}","https://test12345.live/?num_scrambled_semantic=8&num_scrambled_causal=4&num_scrambled_schematic=4&participantId=4C96271A73E647C3B81D31378C99597B&assignmentId=af07cbef-2ee5-4b74-bd12-aae646c7bf69&projectId=9076ac92-be42-43a2-9634-8b67c7fe93a7","4C96271A73E647C3B81D31378C99597B-2025-05-22-19-11-29","","null","","[]","null","",""
"","","","","","image-button-response","37","175296","0.0-10.0-1.0-0.4","4C96271A73E647C3B81D31378C99597B","4C96271A73E647C3B81D31378C99597B","af07cbef-2ee5-4b74-bd12-aae646c7bf69","9076ac92-be42-43a2-9634-8b67c7fe93a7","{""num_scrambled_semantic"":""8"",""num_scrambled_causal"":""4"",""num_scrambled_schematic"":""4"",""participantId"":""4C96271A73E647C3B81D31378C99597B"",""assignmentId"":""af07cbef-2ee5-4b74-bd12-aae646c7bf69"",""projectId"":""9076ac92-be42-43a2-9634-8b67c7fe93a7""}","https://test12345.live/?num_scrambled_semantic=8&num_scrambled_causal=4&num_scrambled_schematic=4&participantId=4C96271A73E647C3B81D31378C99597B&assignmentId=af07cbef-2ee5-4b74-bd12-aae646c7bf69&projectId=9076ac92-be42-43a2-9634-8b67c7fe93a7","4C96271A73E647C3B81D31378C99597B-2025-05-22-19-11-29","","null","","images/semantic_sequence/redecorating_semantic/redecorating_semantic_ten.png","null","",""
"","","","","","image-button-response","38","176012","0.0-10.0-1.0-1.4","4C96271A73E647C3B81D31378C99597B","4C96271A73E647C3B81D31378C99597B","af07cbef-2ee5-4b74-bd12-aae646c7bf69","9076ac92-be42-43a2-9634-8b67c7fe93a7","{""num_scrambled_semantic"":""8"",""num_scrambled_causal"":""4"",""num_scrambled_schematic"":""4"",""participantId"":""4C96271A73E647C3B81D31378C99597B"",""assignmentId"":""af07cbef-2ee5-4b74-bd12-aae646c7bf69"",""projectId"":""9076ac92-be42-43a2-9634-8b67c7fe93a7""}","https://test12345.live/?num_scrambled_semantic=8&num_scrambled_causal=4&num_scrambled_schematic=4&participantId=4C96271A73E647C3B81D31378C99597B&assignmentId=af07cbef-2ee5-4b74-bd12-aae646c7bf69&projectId=9076ac92-be42-43a2-9634-8b67c7fe93a7","4C96271A73E647C3B81D31378C99597B-2025-05-22-19-11-29","","714","","images/semantic_sequence/redecorating_semantic/redecorating_semantic_ten.png","0","",""
"","","","","","image-button-response","39","177822","0.0-10.0-1.0-2.4","4C96271A73E647C3B81D31378C99597B","4C96271A73E647C3B81D31378C99597B","af07cbef-2ee5-4b74-bd12-aae646c7bf69","9076ac92-be42-43a2-9634-8b67c7fe93a7","{""num_scrambled_semantic"":""8"",""num_scrambled_causal"":""4"",""num_scrambled_schematic"":""4"",""participantId"":""4C96271A73E647C3B81D31378C99597B"",""assignmentId"":""af07cbef-2ee5-4b74-bd12-aae646c7bf69"",""projectId"":""9076ac92-be42-43a2-9634-8b67c7fe93a7""}","https://test12345.live/?num_scrambled_semantic=8&num_scrambled_causal=4&num_scrambled_schematic=4&participantId=4C96271A73E647C3B81D31378C99597B&assignmentId=af07cbef-2ee5-4b74-bd12-aae646c7bf69&projectId=9076ac92-be42-43a2-9634-8b67c7fe93a7","4C96271A73E647C3B81D31378C99597B-2025-05-22-19-11-29","","null","","[]","null","",""
"","","","","","image-button-response","40","182333","0.0-10.0-1.0-0.5","4C96271A73E647C3B81D31378C99597B","4C96271A73E647C3B81D31378C99597B","af07cbef-2ee5-4b74-bd12-aae646c7bf69","9076ac92-be42-43a2-9634-8b67c7fe93a7","{""num_scrambled_semantic"":""8"",""num_scrambled_causal"":""4"",""num_scrambled_schematic"":""4"",""participantId"":""4C96271A73E647C3B81D31378C99597B"",""assignmentId"":""af07cbef-2ee5-4b74-bd12-aae646c7bf69"",""projectId"":""9076ac92-be42-43a2-9634-8b67c7fe93a7""}","https://test12345.live/?num_scrambled_semantic=8&num_scrambled_causal=4&num_scrambled_schematic=4&participantId=4C96271A73E647C3B81D31378C99597B&assignmentId=af07cbef-2ee5-4b74-bd12-aae646c7bf69&projectId=9076ac92-be42-43a2-9634-8b67c7fe93a7","4C96271A73E647C3B81D31378C99597B-2025-05-22-19-11-29","","null","","images/semantic_sequence/redecorating_semantic/redecorating_semantic_9.png","null","",""
"","","","","","image-button-response","41","183266","0.0-10.0-1.0-1.5","4C96271A73E647C3B81D31378C99597B","4C96271A73E647C3B81D31378C99597B","af07cbef-2ee5-4b74-bd12-aae646c7bf69","9076ac92-be42-43a2-9634-8b67c7fe93a7","{""num_scrambled_semantic"":""8"",""num_scrambled_causal"":""4"",""num_scrambled_schematic"":""4"",""participantId"":""4C96271A73E647C3B81D31378C99597B"",""assignmentId"":""af07cbef-2ee5-4b74-bd12-aae646c7bf69"",""projectId"":""9076ac92-be42-43a2-9634-8b67c7fe93a7""}","https://test12345.live/?num_scrambled_semantic=8&num_scrambled_causal=4&num_scrambled_schematic=4&participantId=4C96271A73E647C3B81D31378C99597B&assignmentId=af07cbef-2ee5-4b74-bd12-aae646c7bf69&projectId=9076ac92-be42-43a2-9634-8b67c7fe93a7","4C96271A73E647C3B81D31378C99597B-2025-05-22-19-11-29","","931","","images/semantic_sequence/redecorating_semantic/redecorating_semantic_9.png","0","",""
"","","","","","image-button-response","42","185070","0.0-10.0-1.0-2.5","4C96271A73E647C3B81D31378C99597B","4C96271A73E647C3B81D31378C99597B","af07cbef-2ee5-4b74-bd12-aae646c7bf69","9076ac92-be42-43a2-9634-8b67c7fe93a7","{""num_scrambled_semantic"":""8"",""num_scrambled_causal"":""4"",""num_scrambled_schematic"":""4"",""participantId"":""4C96271A73E647C3B81D31378C99597B"",""assignmentId"":""af07cbef-2ee5-4b74-bd12-aae646c7bf69"",""projectId"":""9076ac92-be42-43a2-9634-8b67c7fe93a7""}","https://test12345.live/?num_scrambled_semantic=8&num_scrambled_causal=4&num_scrambled_schematic=4&participantId=4C96271A73E647C3B81D31378C99597B&assignmentId=af07cbef-2ee5-4b74-bd12-aae646c7bf69&projectId=9076ac92-be42-43a2-9634-8b67c7fe93a7","4C96271A73E647C3B81D31378C99597B-2025-05-22-19-11-29","","null","","[]","null","",""
"","","","","","image-button-response","43","189575","0.0-10.0-1.0-0.6","4C96271A73E647C3B81D31378C99597B","4C96271A73E647C3B81D31378C99597B","af07cbef-2ee5-4b74-bd12-aae646c7bf69","9076ac92-be42-43a2-9634-8b67c7fe93a7","{""num_scrambled_semantic"":""8"",""num_scrambled_causal"":""4"",""num_scrambled_schematic"":""4"",""participantId"":""4C96271A73E647C3B81D31378C99597B"",""assignmentId"":""af07cbef-2ee5-4b74-bd12-aae646c7bf69"",""projectId"":""9076ac92-be42-43a2-9634-8b67c7fe93a7""}","https://test12345.live/?num_scrambled_semantic=8&num_scrambled_causal=4&num_scrambled_schematic=4&participantId=4C96271A73E647C3B81D31378C99597B&assignmentId=af07cbef-2ee5-4b74-bd12-aae646c7bf69&projectId=9076ac92-be42-43a2-9634-8b67c7fe93a7","4C96271A73E647C3B81D31378C99597B-2025-05-22-19-11-29","","null","","images/semantic_sequence/redecorating_semantic/redecorating_semantic_6.png","null","",""
"","","","","","image-button-response","44","190275","0.0-10.0-1.0-1.6","4C96271A73E647C3B81D31378C99597B","4C96271A73E647C3B81D31378C99597B","af07cbef-2ee5-4b74-bd12-aae646c7bf69","9076ac92-be42-43a2-9634-8b67c7fe93a7","{""num_scrambled_semantic"":""8"",""num_scrambled_causal"":""4"",""num_scrambled_schematic"":""4"",""participantId"":""4C96271A73E647C3B81D31378C99597B"",""assignmentId"":""af07cbef-2ee5-4b74-bd12-aae646c7bf69"",""projectId"":""9076ac92-be42-43a2-9634-8b67c7fe93a7""}","https://test12345.live/?num_scrambled_semantic=8&num_scrambled_causal=4&num_scrambled_schematic=4&participantId=4C96271A73E647C3B81D31378C99597B&assignmentId=af07cbef-2ee5-4b74-bd12-aae646c7bf69&projectId=9076ac92-be42-43a2-9634-8b67c7fe93a7","4C96271A73E647C3B81D31378C99597B-2025-05-22-19-11-29","","699","","images/semantic_sequence/redecorating_semantic/redecorating_semantic_6.png","0","",""
"","","","","","image-button-response","45","192083","0.0-10.0-1.0-2.6","4C96271A73E647C3B81D31378C99597B","4C96271A73E647C3B81D31378C99597B","af07cbef-2ee5-4b74-bd12-aae646c7bf69","9076ac92-be42-43a2-9634-8b67c7fe93a7","{""num_scrambled_semantic"":""8"",""num_scrambled_causal"":""4"",""num_scrambled_schematic"":""4"",""participantId"":""4C96271A73E647C3B81D31378C99597B"",""assignmentId"":""af07cbef-2ee5-4b74-bd12-aae646c7bf69"",""projectId"":""9076ac92-be42-43a2-9634-8b67c7fe93a7""}","https://test12345.live/?num_scrambled_semantic=8&num_scrambled_causal=4&num_scrambled_schematic=4&participantId=4C96271A73E647C3B81D31378C99597B&assignmentId=af07cbef-2ee5-4b74-bd12-aae646c7bf69&projectId=9076ac92-be42-43a2-9634-8b67c7fe93a7","4C96271A73E647C3B81D31378C99597B-2025-05-22-19-11-29","","null","","[]","null","",""
"","","","","","image-button-response","46","196593","0.0-10.0-1.0-0.7","4C96271A73E647C3B81D31378C99597B","4C96271A73E647C3B81D31378C99597B","af07cbef-2ee5-4b74-bd12-aae646c7bf69","9076ac92-be42-43a2-9634-8b67c7fe93a7","{""num_scrambled_semantic"":""8"",""num_scrambled_causal"":""4"",""num_scrambled_schematic"":""4"",""participantId"":""4C96271A73E647C3B81D31378C99597B"",""assignmentId"":""af07cbef-2ee5-4b74-bd12-aae646c7bf69"",""projectId"":""9076ac92-be42-43a2-9634-8b67c7fe93a7""}","https://test12345.live/?num_scrambled_semantic=8&num_scrambled_causal=4&num_scrambled_schematic=4&participantId=4C96271A73E647C3B81D31378C99597B&assignmentId=af07cbef-2ee5-4b74-bd12-aae646c7bf69&projectId=9076ac92-be42-43a2-9634-8b67c7fe93a7","4C96271A73E647C3B81D31378C99597B-2025-05-22-19-11-29","","null","","images/semantic_sequence/redecorating_semantic/redecorating_semantic_1.png","null","",""
"","","","","","image-button-response","47","197323","0.0-10.0-1.0-1.7","4C96271A73E647C3B81D31378C99597B","4C96271A73E647C3B81D31378C99597B","af07cbef-2ee5-4b74-bd12-aae646c7bf69","9076ac92-be42-43a2-9634-8b67c7fe93a7","{""num_scrambled_semantic"":""8"",""num_scrambled_causal"":""4"",""num_scrambled_schematic"":""4"",""participantId"":""4C96271A73E647C3B81D31378C99597B"",""assignmentId"":""af07cbef-2ee5-4b74-bd12-aae646c7bf69"",""projectId"":""9076ac92-be42-43a2-9634-8b67c7fe93a7""}","https://test12345.live/?num_scrambled_semantic=8&num_scrambled_causal=4&num_scrambled_schematic=4&participantId=4C96271A73E647C3B81D31378C99597B&assignmentId=af07cbef-2ee5-4b74-bd12-aae646c7bf69&projectId=9076ac92-be42-43a2-9634-8b67c7fe93a7","4C96271A73E647C3B81D31378C99597B-2025-05-22-19-11-29","","729","","images/semantic_sequence/redecorating_semantic/redecorating_semantic_1.png","0","",""
"","","","","","image-button-response","48","199128","0.0-10.0-1.0-2.7","4C96271A73E647C3B81D31378C99597B","4C96271A73E647C3B81D31378C99597B","af07cbef-2ee5-4b74-bd12-aae646c7bf69","9076ac92-be42-43a2-9634-8b67c7fe93a7","{""num_scrambled_semantic"":""8"",""num_scrambled_causal"":""4"",""num_scrambled_schematic"":""4"",""participantId"":""4C96271A73E647C3B81D31378C99597B"",""assignmentId"":""af07cbef-2ee5-4b74-bd12-aae646c7bf69"",""projectId"":""9076ac92-be42-43a2-9634-8b67c7fe93a7""}","https://test12345.live/?num_scrambled_semantic=8&num_scrambled_causal=4&num_scrambled_schematic=4&participantId=4C96271A73E647C3B81D31378C99597B&assignmentId=af07cbef-2ee5-4b74-bd12-aae646c7bf69&projectId=9076ac92-be42-43a2-9634-8b67c7fe93a7","4C96271A73E647C3B81D31378C99597B-2025-05-22-19-11-29","","null","","[]","null","",""
"","","","","","image-button-response","49","203634","0.0-10.0-1.0-0.8","4C96271A73E647C3B81D31378C99597B","4C96271A73E647C3B81D31378C99597B","af07cbef-2ee5-4b74-bd12-aae646c7bf69","9076ac92-be42-43a2-9634-8b67c7fe93a7","{""num_scrambled_semantic"":""8"",""num_scrambled_causal"":""4"",""num_scrambled_schematic"":""4"",""participantId"":""4C96271A73E647C3B81D31378C99597B"",""assignmentId"":""af07cbef-2ee5-4b74-bd12-aae646c7bf69"",""projectId"":""9076ac92-be42-43a2-9634-8b67c7fe93a7""}","https://test12345.live/?num_scrambled_semantic=8&num_scrambled_causal=4&num_scrambled_schematic=4&participantId=4C96271A73E647C3B81D31378C99597B&assignmentId=af07cbef-2ee5-4b74-bd12-aae646c7bf69&projectId=9076ac92-be42-43a2-9634-8b67c7fe93a7","4C96271A73E647C3B81D31378C99597B-2025-05-22-19-11-29","","null","","images/semantic_sequence/redecorating_semantic/redecorating_semantic_4.png","null","",""
"","","","","","image-button-response","50","204355","0.0-10.0-1.0-1.8","4C96271A73E647C3B81D31378C99597B","4C96271A73E647C3B81D31378C99597B","af07cbef-2ee5-4b74-bd12-aae646c7bf69","9076ac92-be42-43a2-9634-8b67c7fe93a7","{""num_scrambled_semantic"":""8"",""num_scrambled_causal"":""4"",""num_scrambled_schematic"":""4"",""participantId"":""4C96271A73E647C3B81D31378C99597B"",""assignmentId"":""af07cbef-2ee5-4b74-bd12-aae646c7bf69"",""projectId"":""9076ac92-be42-43a2-9634-8b67c7fe93a7""}","https://test12345.live/?num_scrambled_semantic=8&num_scrambled_causal=4&num_scrambled_schematic=4&participantId=4C96271A73E647C3B81D31378C99597B&assignmentId=af07cbef-2ee5-4b74-bd12-aae646c7bf69&projectId=9076ac92-be42-43a2-9634-8b67c7fe93a7","4C96271A73E647C3B81D31378C99597B-2025-05-22-19-11-29","","720","","images/semantic_sequence/redecorating_semantic/redecorating_semantic_4.png","0","",""
"","","","","","image-button-response","51","206162","0.0-10.0-1.0-2.8","4C96271A73E647C3B81D31378C99597B","4C96271A73E647C3B81D31378C99597B","af07cbef-2ee5-4b74-bd12-aae646c7bf69","9076ac92-be42-43a2-9634-8b67c7fe93a7","{""num_scrambled_semantic"":""8"",""num_scrambled_causal"":""4"",""num_scrambled_schematic"":""4"",""participantId"":""4C96271A73E647C3B81D31378C99597B"",""assignmentId"":""af07cbef-2ee5-4b74-bd12-aae646c7bf69"",""projectId"":""9076ac92-be42-43a2-9634-8b67c7fe93a7""}","https://test12345.live/?num_scrambled_semantic=8&num_scrambled_causal=4&num_scrambled_schematic=4&participantId=4C96271A73E647C3B81D31378C99597B&assignmentId=af07cbef-2ee5-4b74-bd12-aae646c7bf69&projectId=9076ac92-be42-43a2-9634-8b67c7fe93a7","4C96271A73E647C3B81D31378C99597B-2025-05-22-19-11-29","","null","","[]","null","",""
"","","","","","image-button-response","52","210671","0.0-10.0-1.0-0.9","4C96271A73E647C3B81D31378C99597B","4C96271A73E647C3B81D31378C99597B","af07cbef-2ee5-4b74-bd12-aae646c7bf69","9076ac92-be42-43a2-9634-8b67c7fe93a7","{""num_scrambled_semantic"":""8"",""num_scrambled_causal"":""4"",""num_scrambled_schematic"":""4"",""participantId"":""4C96271A73E647C3B81D31378C99597B"",""assignmentId"":""af07cbef-2ee5-4b74-bd12-aae646c7bf69"",""projectId"":""9076ac92-be42-43a2-9634-8b67c7fe93a7""}","https://test12345.live/?num_scrambled_semantic=8&num_scrambled_causal=4&num_scrambled_schematic=4&participantId=4C96271A73E647C3B81D31378C99597B&assignmentId=af07cbef-2ee5-4b74-bd12-aae646c7bf69&projectId=9076ac92-be42-43a2-9634-8b67c7fe93a7","4C96271A73E647C3B81D31378C99597B-2025-05-22-19-11-29","","null","","images/semantic_sequence/redecorating_semantic/redecorating_semantic_2.png","null","",""
"","","","","","image-button-response","53","211484","0.0-10.0-1.0-1.9","4C96271A73E647C3B81D31378C99597B","4C96271A73E647C3B81D31378C99597B","af07cbef-2ee5-4b74-bd12-aae646c7bf69","9076ac92-be42-43a2-9634-8b67c7fe93a7","{""num_scrambled_semantic"":""8"",""num_scrambled_causal"":""4"",""num_scrambled_schematic"":""4"",""participantId"":""4C96271A73E647C3B81D31378C99597B"",""assignmentId"":""af07cbef-2ee5-4b74-bd12-aae646c7bf69"",""projectId"":""9076ac92-be42-43a2-9634-8b67c7fe93a7""}","https://test12345.live/?num_scrambled_semantic=8&num_scrambled_causal=4&num_scrambled_schematic=4&participantId=4C96271A73E647C3B81D31378C99597B&assignmentId=af07cbef-2ee5-4b74-bd12-aae646c7bf69&projectId=9076ac92-be42-43a2-9634-8b67c7fe93a7","4C96271A73E647C3B81D31378C99597B-2025-05-22-19-11-29","","812","","images/semantic_sequence/redecorating_semantic/redecorating_semantic_2.png","0","",""
"","","","","","image-button-response","54","213293","0.0-10.0-1.0-2.9","4C96271A73E647C3B81D31378C99597B","4C96271A73E647C3B81D31378C99597B","af07cbef-2ee5-4b74-bd12-aae646c7bf69","9076ac92-be42-43a2-9634-8b67c7fe93a7","{""num_scrambled_semantic"":""8"",""num_scrambled_causal"":""4"",""num_scrambled_schematic"":""4"",""participantId"":""4C96271A73E647C3B81D31378C99597B"",""assignmentId"":""af07cbef-2ee5-4b74-bd12-aae646c7bf69"",""projectId"":""9076ac92-be42-43a2-9634-8b67c7fe93a7""}","https://test12345.live/?num_scrambled_semantic=8&num_scrambled_causal=4&num_scrambled_schematic=4&participantId=4C96271A73E647C3B81D31378C99597B&assignmentId=af07cbef-2ee5-4b74-bd12-aae646c7bf69&projectId=9076ac92-be42-43a2-9634-8b67c7fe93a7","4C96271A73E647C3B81D31378C99597B-2025-05-22-19-11-29","","null","","[]","null","",""
"","","","","","html-audio-response","55","232812","0.0-11.0","4C96271A73E647C3B81D31378C99597B","4C96271A73E647C3B81D31378C99597B","af07cbef-2ee5-4b74-bd12-aae646c7bf69","9076ac92-be42-43a2-9634-8b67c7fe93a7","{""num_scrambled_semantic"":""8"",""num_scrambled_causal"":""4"",""num_scrambled_schematic"":""4"",""participantId"":""4C96271A73E647C3B81D31378C99597B"",""assignmentId"":""af07cbef-2ee5-4b74-bd12-aae646c7bf69"",""projectId"":""9076ac92-be42-43a2-9634-8b67c7fe93a7""}","https://test12345.live/?num_scrambled_semantic=8&num_scrambled_causal=4&num_scrambled_schematic=4&participantId=4C96271A73E647C3B81D31378C99597B&assignmentId=af07cbef-2ee5-4b74-bd12-aae646c7bf69&projectId=9076ac92-be42-43a2-9634-8b67c7fe93a7","4C96271A73E647C3B81D31378C99597B-2025-05-22-19-11-29","","14229","","[""<span style=\""color: red; font-size: 24px\""> NOW RECORDING</span><p>Please say out loud all the images you saw, in the exact order you saw them. Try to recall as many images as you can, but remember: getting the order right is more important than the number of images you recall.</p>""]","","2","redecorating_semantic"
"","","","","","image-button-response","56","238830","0.0-12.0-0.0","4C96271A73E647C3B81D31378C99597B","4C96271A73E647C3B81D31378C99597B","af07cbef-2ee5-4b74-bd12-aae646c7bf69","9076ac92-be42-43a2-9634-8b67c7fe93a7","{""num_scrambled_semantic"":""8"",""num_scrambled_causal"":""4"",""num_scrambled_schematic"":""4"",""participantId"":""4C96271A73E647C3B81D31378C99597B"",""assignmentId"":""af07cbef-2ee5-4b74-bd12-aae646c7bf69"",""projectId"":""9076ac92-be42-43a2-9634-8b67c7fe93a7""}","https://test12345.live/?num_scrambled_semantic=8&num_scrambled_causal=4&num_scrambled_schematic=4&participantId=4C96271A73E647C3B81D31378C99597B&assignmentId=af07cbef-2ee5-4b74-bd12-aae646c7bf69&projectId=9076ac92-be42-43a2-9634-8b67c7fe93a7","4C96271A73E647C3B81D31378C99597B-2025-05-22-19-11-29","","null","","images/schematic_sequence/dinner_party_scheme/dinner_party_scheme_0.png","null","",""
"","","","","","image-button-response","57","243336","0.0-12.0-1.0-0.0","4C96271A73E647C3B81D31378C99597B","4C96271A73E647C3B81D31378C99597B","af07cbef-2ee5-4b74-bd12-aae646c7bf69","9076ac92-be42-43a2-9634-8b67c7fe93a7","{""num_scrambled_semantic"":""8"",""num_scrambled_causal"":""4"",""num_scrambled_schematic"":""4"",""participantId"":""4C96271A73E647C3B81D31378C99597B"",""assignmentId"":""af07cbef-2ee5-4b74-bd12-aae646c7bf69"",""projectId"":""9076ac92-be42-43a2-9634-8b67c7fe93a7""}","https://test12345.live/?num_scrambled_semantic=8&num_scrambled_causal=4&num_scrambled_schematic=4&participantId=4C96271A73E647C3B81D31378C99597B&assignmentId=af07cbef-2ee5-4b74-bd12-aae646c7bf69&projectId=9076ac92-be42-43a2-9634-8b67c7fe93a7","4C96271A73E647C3B81D31378C99597B-2025-05-22-19-11-29","","null","","images/schematic_sequence/dinner_party_scheme/dinner_party_scheme_8.png","null","",""
"","","","","","image-button-response","58","244029","0.0-12.0-1.0-1.0","4C96271A73E647C3B81D31378C99597B","4C96271A73E647C3B81D31378C99597B","af07cbef-2ee5-4b74-bd12-aae646c7bf69","9076ac92-be42-43a2-9634-8b67c7fe93a7","{""num_scrambled_semantic"":""8"",""num_scrambled_causal"":""4"",""num_scrambled_schematic"":""4"",""participantId"":""4C96271A73E647C3B81D31378C99597B"",""assignmentId"":""af07cbef-2ee5-4b74-bd12-aae646c7bf69"",""projectId"":""9076ac92-be42-43a2-9634-8b67c7fe93a7""}","https://test12345.live/?num_scrambled_semantic=8&num_scrambled_causal=4&num_scrambled_schematic=4&participantId=4C96271A73E647C3B81D31378C99597B&assignmentId=af07cbef-2ee5-4b74-bd12-aae646c7bf69&projectId=9076ac92-be42-43a2-9634-8b67c7fe93a7","4C96271A73E647C3B81D31378C99597B-2025-05-22-19-11-29","","692","","images/schematic_sequence/dinner_party_scheme/dinner_party_scheme_8.png","0","",""
"","","","","","image-button-response","59","245834","0.0-12.0-1.0-2.0","4C96271A73E647C3B81D31378C99597B","4C96271A73E647C3B81D31378C99597B","af07cbef-2ee5-4b74-bd12-aae646c7bf69","9076ac92-be42-43a2-9634-8b67c7fe93a7","{""num_scrambled_semantic"":""8"",""num_scrambled_causal"":""4"",""num_scrambled_schematic"":""4"",""participantId"":""4C96271A73E647C3B81D31378C99597B"",""assignmentId"":""af07cbef-2ee5-4b74-bd12-aae646c7bf69"",""projectId"":""9076ac92-be42-43a2-9634-8b67c7fe93a7""}","https://test12345.live/?num_scrambled_semantic=8&num_scrambled_causal=4&num_scrambled_schematic=4&participantId=4C96271A73E647C3B81D31378C99597B&assignmentId=af07cbef-2ee5-4b74-bd12-aae646c7bf69&projectId=9076ac92-be42-43a2-9634-8b67c7fe93a7","4C96271A73E647C3B81D31378C99597B-2025-05-22-19-11-29","","null","","[]","null","",""
"","","","","","image-button-response","60","250344","0.0-12.0-1.0-0.1","4C96271A73E647C3B81D31378C99597B","4C96271A73E647C3B81D31378C99597B","af07cbef-2ee5-4b74-bd12-aae646c7bf69","9076ac92-be42-43a2-9634-8b67c7fe93a7","{""num_scrambled_semantic"":""8"",""num_scrambled_causal"":""4"",""num_scrambled_schematic"":""4"",""participantId"":""4C96271A73E647C3B81D31378C99597B"",""assignmentId"":""af07cbef-2ee5-4b74-bd12-aae646c7bf69"",""projectId"":""9076ac92-be42-43a2-9634-8b67c7fe93a7""}","https://test12345.live/?num_scrambled_semantic=8&num_scrambled_causal=4&num_scrambled_schematic=4&participantId=4C96271A73E647C3B81D31378C99597B&assignmentId=af07cbef-2ee5-4b74-bd12-aae646c7bf69&projectId=9076ac92-be42-43a2-9634-8b67c7fe93a7","4C96271A73E647C3B81D31378C99597B-2025-05-22-19-11-29","","null","","images/schematic_sequence/dinner_party_scheme/dinner_party_scheme_7.png","null","",""
"","","","","","image-button-response","61","251029","0.0-12.0-1.0-1.1","4C96271A73E647C3B81D31378C99597B","4C96271A73E647C3B81D31378C99597B","af07cbef-2ee5-4b74-bd12-aae646c7bf69","9076ac92-be42-43a2-9634-8b67c7fe93a7","{""num_scrambled_semantic"":""8"",""num_scrambled_causal"":""4"",""num_scrambled_schematic"":""4"",""participantId"":""4C96271A73E647C3B81D31378C99597B"",""assignmentId"":""af07cbef-2ee5-4b74-bd12-aae646c7bf69"",""projectId"":""9076ac92-be42-43a2-9634-8b67c7fe93a7""}","https://test12345.live/?num_scrambled_semantic=8&num_scrambled_causal=4&num_scrambled_schematic=4&participantId=4C96271A73E647C3B81D31378C99597B&assignmentId=af07cbef-2ee5-4b74-bd12-aae646c7bf69&projectId=9076ac92-be42-43a2-9634-8b67c7fe93a7","4C96271A73E647C3B81D31378C99597B-2025-05-22-19-11-29","","683","","images/schematic_sequence/dinner_party_scheme/dinner_party_scheme_7.png","0","",""
"","","","","","image-button-response","62","252844","0.0-12.0-1.0-2.1","4C96271A73E647C3B81D31378C99597B","4C96271A73E647C3B81D31378C99597B","af07cbef-2ee5-4b74-bd12-aae646c7bf69","9076ac92-be42-43a2-9634-8b67c7fe93a7","{""num_scrambled_semantic"":""8"",""num_scrambled_causal"":""4"",""num_scrambled_schematic"":""4"",""participantId"":""4C96271A73E647C3B81D31378C99597B"",""assignmentId"":""af07cbef-2ee5-4b74-bd12-aae646c7bf69"",""projectId"":""9076ac92-be42-43a2-9634-8b67c7fe93a7""}","https://test12345.live/?num_scrambled_semantic=8&num_scrambled_causal=4&num_scrambled_schematic=4&participantId=4C96271A73E647C3B81D31378C99597B&assignmentId=af07cbef-2ee5-4b74-bd12-aae646c7bf69&projectId=9076ac92-be42-43a2-9634-8b67c7fe93a7","4C96271A73E647C3B81D31378C99597B-2025-05-22-19-11-29","","null","","[]","null","",""
"","","","","","image-button-response","63","257352","0.0-12.0-1.0-0.2","4C96271A73E647C3B81D31378C99597B","4C96271A73E647C3B81D31378C99597B","af07cbef-2ee5-4b74-bd12-aae646c7bf69","9076ac92-be42-43a2-9634-8b67c7fe93a7","{""num_scrambled_semantic"":""8"",""num_scrambled_causal"":""4"",""num_scrambled_schematic"":""4"",""participantId"":""4C96271A73E647C3B81D31378C99597B"",""assignmentId"":""af07cbef-2ee5-4b74-bd12-aae646c7bf69"",""projectId"":""9076ac92-be42-43a2-9634-8b67c7fe93a7""}","https://test12345.live/?num_scrambled_semantic=8&num_scrambled_causal=4&num_scrambled_schematic=4&participantId=4C96271A73E647C3B81D31378C99597B&assignmentId=af07cbef-2ee5-4b74-bd12-aae646c7bf69&projectId=9076ac92-be42-43a2-9634-8b67c7fe93a7","4C96271A73E647C3B81D31378C99597B-2025-05-22-19-11-29","","null","","images/schematic_sequence/dinner_party_scheme/dinner_party_scheme_3.png","null","",""
"","","","","","image-button-response","64","258413","0.0-12.0-1.0-1.2","4C96271A73E647C3B81D31378C99597B","4C96271A73E647C3B81D31378C99597B","af07cbef-2ee5-4b74-bd12-aae646c7bf69","9076ac92-be42-43a2-9634-8b67c7fe93a7","{""num_scrambled_semantic"":""8"",""num_scrambled_causal"":""4"",""num_scrambled_schematic"":""4"",""participantId"":""4C96271A73E647C3B81D31378C99597B"",""assignmentId"":""af07cbef-2ee5-4b74-bd12-aae646c7bf69"",""projectId"":""9076ac92-be42-43a2-9634-8b67c7fe93a7""}","https://test12345.live/?num_scrambled_semantic=8&num_scrambled_causal=4&num_scrambled_schematic=4&participantId=4C96271A73E647C3B81D31378C99597B&assignmentId=af07cbef-2ee5-4b74-bd12-aae646c7bf69&projectId=9076ac92-be42-43a2-9634-8b67c7fe93a7","4C96271A73E647C3B81D31378C99597B-2025-05-22-19-11-29","","1059","","images/schematic_sequence/dinner_party_scheme/dinner_party_scheme_3.png","0","",""
"","","","","","image-button-response","65","260225","0.0-12.0-1.0-2.2","4C96271A73E647C3B81D31378C99597B","4C96271A73E647C3B81D31378C99597B","af07cbef-2ee5-4b74-bd12-aae646c7bf69","9076ac92-be42-43a2-9634-8b67c7fe93a7","{""num_scrambled_semantic"":""8"",""num_scrambled_causal"":""4"",""num_scrambled_schematic"":""4"",""participantId"":""4C96271A73E647C3B81D31378C99597B"",""assignmentId"":""af07cbef-2ee5-4b74-bd12-aae646c7bf69"",""projectId"":""9076ac92-be42-43a2-9634-8b67c7fe93a7""}","https://test12345.live/?num_scrambled_semantic=8&num_scrambled_causal=4&num_scrambled_schematic=4&participantId=4C96271A73E647C3B81D31378C99597B&assignmentId=af07cbef-2ee5-4b74-bd12-aae646c7bf69&projectId=9076ac92-be42-43a2-9634-8b67c7fe93a7","4C96271A73E647C3B81D31378C99597B-2025-05-22-19-11-29","","null","","[]","null","",""
"","","","","","image-button-response","66","264737","0.0-12.0-1.0-0.3","4C96271A73E647C3B81D31378C99597B","4C96271A73E647C3B81D31378C99597B","af07cbef-2ee5-4b74-bd12-aae646c7bf69","9076ac92-be42-43a2-9634-8b67c7fe93a7","{""num_scrambled_semantic"":""8"",""num_scrambled_causal"":""4"",""num_scrambled_schematic"":""4"",""participantId"":""4C96271A73E647C3B81D31378C99597B"",""assignmentId"":""af07cbef-2ee5-4b74-bd12-aae646c7bf69"",""projectId"":""9076ac92-be42-43a2-9634-8b67c7fe93a7""}","https://test12345.live/?num_scrambled_semantic=8&num_scrambled_causal=4&num_scrambled_schematic=4&participantId=4C96271A73E647C3B81D31378C99597B&assignmentId=af07cbef-2ee5-4b74-bd12-aae646c7bf69&projectId=9076ac92-be42-43a2-9634-8b67c7fe93a7","4C96271A73E647C3B81D31378C99597B-2025-05-22-19-11-29","","null","","images/schematic_sequence/dinner_party_scheme/dinner_party_scheme_9.png","null","",""
"","","","","","image-button-response","67","265531","0.0-12.0-1.0-1.3","4C96271A73E647C3B81D31378C99597B","4C96271A73E647C3B81D31378C99597B","af07cbef-2ee5-4b74-bd12-aae646c7bf69","9076ac92-be42-43a2-9634-8b67c7fe93a7","{""num_scrambled_semantic"":""8"",""num_scrambled_causal"":""4"",""num_scrambled_schematic"":""4"",""participantId"":""4C96271A73E647C3B81D31378C99597B"",""assignmentId"":""af07cbef-2ee5-4b74-bd12-aae646c7bf69"",""projectId"":""9076ac92-be42-43a2-9634-8b67c7fe93a7""}","https://test12345.live/?num_scrambled_semantic=8&num_scrambled_causal=4&num_scrambled_schematic=4&participantId=4C96271A73E647C3B81D31378C99597B&assignmentId=af07cbef-2ee5-4b74-bd12-aae646c7bf69&projectId=9076ac92-be42-43a2-9634-8b67c7fe93a7","4C96271A73E647C3B81D31378C99597B-2025-05-22-19-11-29","","793","","images/schematic_sequence/dinner_party_scheme/dinner_party_scheme_9.png","0","",""
"","","","","","image-button-response","68","267335","0.0-12.0-1.0-2.3","4C96271A73E647C3B81D31378C99597B","4C96271A73E647C3B81D31378C99597B","af07cbef-2ee5-4b74-bd12-aae646c7bf69","9076ac92-be42-43a2-9634-8b67c7fe93a7","{""num_scrambled_semantic"":""8"",""num_scrambled_causal"":""4"",""num_scrambled_schematic"":""4"",""participantId"":""4C96271A73E647C3B81D31378C99597B"",""assignmentId"":""af07cbef-2ee5-4b74-bd12-aae646c7bf69"",""projectId"":""9076ac92-be42-43a2-9634-8b67c7fe93a7""}","https://test12345.live/?num_scrambled_semantic=8&num_scrambled_causal=4&num_scrambled_schematic=4&participantId=4C96271A73E647C3B81D31378C99597B&assignmentId=af07cbef-2ee5-4b74-bd12-aae646c7bf69&projectId=9076ac92-be42-43a2-9634-8b67c7fe93a7","4C96271A73E647C3B81D31378C99597B-2025-05-22-19-11-29","","null","","[]","null","",""
"","","","","","image-button-response","69","271854","0.0-12.0-1.0-0.4","4C96271A73E647C3B81D31378C99597B","4C96271A73E647C3B81D31378C99597B","af07cbef-2ee5-4b74-bd12-aae646c7bf69","9076ac92-be42-43a2-9634-8b67c7fe93a7","{""num_scrambled_semantic"":""8"",""num_scrambled_causal"":""4"",""num_scrambled_schematic"":""4"",""participantId"":""4C96271A73E647C3B81D31378C99597B"",""assignmentId"":""af07cbef-2ee5-4b74-bd12-aae646c7bf69"",""projectId"":""9076ac92-be42-43a2-9634-8b67c7fe93a7""}","https://test12345.live/?num_scrambled_semantic=8&num_scrambled_causal=4&num_scrambled_schematic=4&participantId=4C96271A73E647C3B81D31378C99597B&assignmentId=af07cbef-2ee5-4b74-bd12-aae646c7bf69&projectId=9076ac92-be42-43a2-9634-8b67c7fe93a7","4C96271A73E647C3B81D31378C99597B-2025-05-22-19-11-29","","null","","images/schematic_sequence/dinner_party_scheme/dinner_party_scheme_4.png","null","",""
"","","","","","image-button-response","70","272833","0.0-12.0-1.0-1.4","4C96271A73E647C3B81D31378C99597B","4C96271A73E647C3B81D31378C99597B","af07cbef-2ee5-4b74-bd12-aae646c7bf69","9076ac92-be42-43a2-9634-8b67c7fe93a7","{""num_scrambled_semantic"":""8"",""num_scrambled_causal"":""4"",""num_scrambled_schematic"":""4"",""participantId"":""4C96271A73E647C3B81D31378C99597B"",""assignmentId"":""af07cbef-2ee5-4b74-bd12-aae646c7bf69"",""projectId"":""9076ac92-be42-43a2-9634-8b67c7fe93a7""}","https://test12345.live/?num_scrambled_semantic=8&num_scrambled_causal=4&num_scrambled_schematic=4&participantId=4C96271A73E647C3B81D31378C99597B&assignmentId=af07cbef-2ee5-4b74-bd12-aae646c7bf69&projectId=9076ac92-be42-43a2-9634-8b67c7fe93a7","4C96271A73E647C3B81D31378C99597B-2025-05-22-19-11-29","","978","","images/schematic_sequence/dinner_party_scheme/dinner_party_scheme_4.png","0","",""
"","","","","","image-button-response","71","274878","0.0-12.0-1.0-2.4","4C96271A73E647C3B81D31378C99597B","4C96271A73E647C3B81D31378C99597B","af07cbef-2ee5-4b74-bd12-aae646c7bf69","9076ac92-be42-43a2-9634-8b67c7fe93a7","{""num_scrambled_semantic"":""8"",""num_scrambled_causal"":""4"",""num_scrambled_schematic"":""4"",""participantId"":""4C96271A73E647C3B81D31378C99597B"",""assignmentId"":""af07cbef-2ee5-4b74-bd12-aae646c7bf69"",""projectId"":""9076ac92-be42-43a2-9634-8b67c7fe93a7""}","https://test12345.live/?num_scrambled_semantic=8&num_scrambled_causal=4&num_scrambled_schematic=4&participantId=4C96271A73E647C3B81D31378C99597B&assignmentId=af07cbef-2ee5-4b74-bd12-aae646c7bf69&projectId=9076ac92-be42-43a2-9634-8b67c7fe93a7","4C96271A73E647C3B81D31378C99597B-2025-05-22-19-11-29","","null","","[]","null","",""
"","","","","","image-button-response","72","279394","0.0-12.0-1.0-0.5","4C96271A73E647C3B81D31378C99597B","4C96271A73E647C3B81D31378C99597B","af07cbef-2ee5-4b74-bd12-aae646c7bf69","9076ac92-be42-43a2-9634-8b67c7fe93a7","{""num_scrambled_semantic"":""8"",""num_scrambled_causal"":""4"",""num_scrambled_schematic"":""4"",""participantId"":""4C96271A73E647C3B81D31378C99597B"",""assignmentId"":""af07cbef-2ee5-4b74-bd12-aae646c7bf69"",""projectId"":""9076ac92-be42-43a2-9634-8b67c7fe93a7""}","https://test12345.live/?num_scrambled_semantic=8&num_scrambled_causal=4&num_scrambled_schematic=4&participantId=4C96271A73E647C3B81D31378C99597B&assignmentId=af07cbef-2ee5-4b74-bd12-aae646c7bf69&projectId=9076ac92-be42-43a2-9634-8b67c7fe93a7","4C96271A73E647C3B81D31378C99597B-2025-05-22-19-11-29","","null","","images/schematic_sequence/dinner_party_scheme/dinner_party_scheme_2.png","null","",""
"","","","","","image-button-response","73","280167","0.0-12.0-1.0-1.5","4C96271A73E647C3B81D31378C99597B","4C96271A73E647C3B81D31378C99597B","af07cbef-2ee5-4b74-bd12-aae646c7bf69","9076ac92-be42-43a2-9634-8b67c7fe93a7","{""num_scrambled_semantic"":""8"",""num_scrambled_causal"":""4"",""num_scrambled_schematic"":""4"",""participantId"":""4C96271A73E647C3B81D31378C99597B"",""assignmentId"":""af07cbef-2ee5-4b74-bd12-aae646c7bf69"",""projectId"":""9076ac92-be42-43a2-9634-8b67c7fe93a7""}","https://test12345.live/?num_scrambled_semantic=8&num_scrambled_causal=4&num_scrambled_schematic=4&participantId=4C96271A73E647C3B81D31378C99597B&assignmentId=af07cbef-2ee5-4b74-bd12-aae646c7bf69&projectId=9076ac92-be42-43a2-9634-8b67c7fe93a7","4C96271A73E647C3B81D31378C99597B-2025-05-22-19-11-29","","771","","images/schematic_sequence/dinner_party_scheme/dinner_party_scheme_2.png","0","",""
"","","","","","image-button-response","74","281976","0.0-12.0-1.0-2.5","4C96271A73E647C3B81D31378C99597B","4C96271A73E647C3B81D31378C99597B","af07cbef-2ee5-4b74-bd12-aae646c7bf69","9076ac92-be42-43a2-9634-8b67c7fe93a7","{""num_scrambled_semantic"":""8"",""num_scrambled_causal"":""4"",""num_scrambled_schematic"":""4"",""participantId"":""4C96271A73E647C3B81D31378C99597B"",""assignmentId"":""af07cbef-2ee5-4b74-bd12-aae646c7bf69"",""projectId"":""9076ac92-be42-43a2-9634-8b67c7fe93a7""}","https://test12345.live/?num_scrambled_semantic=8&num_scrambled_causal=4&num_scrambled_schematic=4&participantId=4C96271A73E647C3B81D31378C99597B&assignmentId=af07cbef-2ee5-4b74-bd12-aae646c7bf69&projectId=9076ac92-be42-43a2-9634-8b67c7fe93a7","4C96271A73E647C3B81D31378C99597B-2025-05-22-19-11-29","","null","","[]","null","",""
"","","","","","image-button-response","75","286487","0.0-12.0-1.0-0.6","4C96271A73E647C3B81D31378C99597B","4C96271A73E647C3B81D31378C99597B","af07cbef-2ee5-4b74-bd12-aae646c7bf69","9076ac92-be42-43a2-9634-8b67c7fe93a7","{""num_scrambled_semantic"":""8"",""num_scrambled_causal"":""4"",""num_scrambled_schematic"":""4"",""participantId"":""4C96271A73E647C3B81D31378C99597B"",""assignmentId"":""af07cbef-2ee5-4b74-bd12-aae646c7bf69"",""projectId"":""9076ac92-be42-43a2-9634-8b67c7fe93a7""}","https://test12345.live/?num_scrambled_semantic=8&num_scrambled_causal=4&num_scrambled_schematic=4&participantId=4C96271A73E647C3B81D31378C99597B&assignmentId=af07cbef-2ee5-4b74-bd12-aae646c7bf69&projectId=9076ac92-be42-43a2-9634-8b67c7fe93a7","4C96271A73E647C3B81D31378C99597B-2025-05-22-19-11-29","","null","","images/schematic_sequence/dinner_party_scheme/dinner_party_scheme_6.png","null","",""
"","","","","","image-button-response","76","287430","0.0-12.0-1.0-1.6","4C96271A73E647C3B81D31378C99597B","4C96271A73E647C3B81D31378C99597B","af07cbef-2ee5-4b74-bd12-aae646c7bf69","9076ac92-be42-43a2-9634-8b67c7fe93a7","{""num_scrambled_semantic"":""8"",""num_scrambled_causal"":""4"",""num_scrambled_schematic"":""4"",""participantId"":""4C96271A73E647C3B81D31378C99597B"",""assignmentId"":""af07cbef-2ee5-4b74-bd12-aae646c7bf69"",""projectId"":""9076ac92-be42-43a2-9634-8b67c7fe93a7""}","https://test12345.live/?num_scrambled_semantic=8&num_scrambled_causal=4&num_scrambled_schematic=4&participantId=4C96271A73E647C3B81D31378C99597B&assignmentId=af07cbef-2ee5-4b74-bd12-aae646c7bf69&projectId=9076ac92-be42-43a2-9634-8b67c7fe93a7","4C96271A73E647C3B81D31378C99597B-2025-05-22-19-11-29","","941","","images/schematic_sequence/dinner_party_scheme/dinner_party_scheme_6.png","0","",""
"","","","","","image-button-response","77","289235","0.0-12.0-1.0-2.6","4C96271A73E647C3B81D31378C99597B","4C96271A73E647C3B81D31378C99597B","af07cbef-2ee5-4b74-bd12-aae646c7bf69","9076ac92-be42-43a2-9634-8b67c7fe93a7","{""num_scrambled_semantic"":""8"",""num_scrambled_causal"":""4"",""num_scrambled_schematic"":""4"",""participantId"":""4C96271A73E647C3B81D31378C99597B"",""assignmentId"":""af07cbef-2ee5-4b74-bd12-aae646c7bf69"",""projectId"":""9076ac92-be42-43a2-9634-8b67c7fe93a7""}","https://test12345.live/?num_scrambled_semantic=8&num_scrambled_causal=4&num_scrambled_schematic=4&participantId=4C96271A73E647C3B81D31378C99597B&assignmentId=af07cbef-2ee5-4b74-bd12-aae646c7bf69&projectId=9076ac92-be42-43a2-9634-8b67c7fe93a7","4C96271A73E647C3B81D31378C99597B-2025-05-22-19-11-29","","null","","[]","null","",""
"","","","","","image-button-response","78","293741","0.0-12.0-1.0-0.7","4C96271A73E647C3B81D31378C99597B","4C96271A73E647C3B81D31378C99597B","af07cbef-2ee5-4b74-bd12-aae646c7bf69","9076ac92-be42-43a2-9634-8b67c7fe93a7","{""num_scrambled_semantic"":""8"",""num_scrambled_causal"":""4"",""num_scrambled_schematic"":""4"",""participantId"":""4C96271A73E647C3B81D31378C99597B"",""assignmentId"":""af07cbef-2ee5-4b74-bd12-aae646c7bf69"",""projectId"":""9076ac92-be42-43a2-9634-8b67c7fe93a7""}","https://test12345.live/?num_scrambled_semantic=8&num_scrambled_causal=4&num_scrambled_schematic=4&participantId=4C96271A73E647C3B81D31378C99597B&assignmentId=af07cbef-2ee5-4b74-bd12-aae646c7bf69&projectId=9076ac92-be42-43a2-9634-8b67c7fe93a7","4C96271A73E647C3B81D31378C99597B-2025-05-22-19-11-29","","null","","images/schematic_sequence/dinner_party_scheme/dinner_party_scheme_ten.png","null","",""
"","","","","","image-button-response","79","294371","0.0-12.0-1.0-1.7","4C96271A73E647C3B81D31378C99597B","4C96271A73E647C3B81D31378C99597B","af07cbef-2ee5-4b74-bd12-aae646c7bf69","9076ac92-be42-43a2-9634-8b67c7fe93a7","{""num_scrambled_semantic"":""8"",""num_scrambled_causal"":""4"",""num_scrambled_schematic"":""4"",""participantId"":""4C96271A73E647C3B81D31378C99597B"",""assignmentId"":""af07cbef-2ee5-4b74-bd12-aae646c7bf69"",""projectId"":""9076ac92-be42-43a2-9634-8b67c7fe93a7""}","https://test12345.live/?num_scrambled_semantic=8&num_scrambled_causal=4&num_scrambled_schematic=4&participantId=4C96271A73E647C3B81D31378C99597B&assignmentId=af07cbef-2ee5-4b74-bd12-aae646c7bf69&projectId=9076ac92-be42-43a2-9634-8b67c7fe93a7","4C96271A73E647C3B81D31378C99597B-2025-05-22-19-11-29","","628","","images/schematic_sequence/dinner_party_scheme/dinner_party_scheme_ten.png","0","",""
"","","","","","image-button-response","80","296179","0.0-12.0-1.0-2.7","4C96271A73E647C3B81D31378C99597B","4C96271A73E647C3B81D31378C99597B","af07cbef-2ee5-4b74-bd12-aae646c7bf69","9076ac92-be42-43a2-9634-8b67c7fe93a7","{""num_scrambled_semantic"":""8"",""num_scrambled_causal"":""4"",""num_scrambled_schematic"":""4"",""participantId"":""4C96271A73E647C3B81D31378C99597B"",""assignmentId"":""af07cbef-2ee5-4b74-bd12-aae646c7bf69"",""projectId"":""9076ac92-be42-43a2-9634-8b67c7fe93a7""}","https://test12345.live/?num_scrambled_semantic=8&num_scrambled_causal=4&num_scrambled_schematic=4&participantId=4C96271A73E647C3B81D31378C99597B&assignmentId=af07cbef-2ee5-4b74-bd12-aae646c7bf69&projectId=9076ac92-be42-43a2-9634-8b67c7fe93a7","4C96271A73E647C3B81D31378C99597B-2025-05-22-19-11-29","","null","","[]","null","",""
"","","","","","image-button-response","81","300689","0.0-12.0-1.0-0.8","4C96271A73E647C3B81D31378C99597B","4C96271A73E647C3B81D31378C99597B","af07cbef-2ee5-4b74-bd12-aae646c7bf69","9076ac92-be42-43a2-9634-8b67c7fe93a7","{""num_scrambled_semantic"":""8"",""num_scrambled_causal"":""4"",""num_scrambled_schematic"":""4"",""participantId"":""4C96271A73E647C3B81D31378C99597B"",""assignmentId"":""af07cbef-2ee5-4b74-bd12-aae646c7bf69"",""projectId"":""9076ac92-be42-43a2-9634-8b67c7fe93a7""}","https://test12345.live/?num_scrambled_semantic=8&num_scrambled_causal=4&num_scrambled_schematic=4&participantId=4C96271A73E647C3B81D31378C99597B&assignmentId=af07cbef-2ee5-4b74-bd12-aae646c7bf69&projectId=9076ac92-be42-43a2-9634-8b67c7fe93a7","4C96271A73E647C3B81D31378C99597B-2025-05-22-19-11-29","","null","","images/schematic_sequence/dinner_party_scheme/dinner_party_scheme_5.png","null","",""
"","","","","","image-button-response","82","301213","0.0-12.0-1.0-1.8","4C96271A73E647C3B81D31378C99597B","4C96271A73E647C3B81D31378C99597B","af07cbef-2ee5-4b74-bd12-aae646c7bf69","9076ac92-be42-43a2-9634-8b67c7fe93a7","{""num_scrambled_semantic"":""8"",""num_scrambled_causal"":""4"",""num_scrambled_schematic"":""4"",""participantId"":""4C96271A73E647C3B81D31378C99597B"",""assignmentId"":""af07cbef-2ee5-4b74-bd12-aae646c7bf69"",""projectId"":""9076ac92-be42-43a2-9634-8b67c7fe93a7""}","https://test12345.live/?num_scrambled_semantic=8&num_scrambled_causal=4&num_scrambled_schematic=4&participantId=4C96271A73E647C3B81D31378C99597B&assignmentId=af07cbef-2ee5-4b74-bd12-aae646c7bf69&projectId=9076ac92-be42-43a2-9634-8b67c7fe93a7","4C96271A73E647C3B81D31378C99597B-2025-05-22-19-11-29","","515","","images/schematic_sequence/dinner_party_scheme/dinner_party_scheme_5.png","0","",""
"","","","","","image-button-response","83","303704","0.0-12.0-1.0-2.8","4C96271A73E647C3B81D31378C99597B","4C96271A73E647C3B81D31378C99597B","af07cbef-2ee5-4b74-bd12-aae646c7bf69","9076ac92-be42-43a2-9634-8b67c7fe93a7","{""num_scrambled_semantic"":""8"",""num_scrambled_causal"":""4"",""num_scrambled_schematic"":""4"",""participantId"":""4C96271A73E647C3B81D31378C99597B"",""assignmentId"":""af07cbef-2ee5-4b74-bd12-aae646c7bf69"",""projectId"":""9076ac92-be42-43a2-9634-8b67c7fe93a7""}","https://test12345.live/?num_scrambled_semantic=8&num_scrambled_causal=4&num_scrambled_schematic=4&participantId=4C96271A73E647C3B81D31378C99597B&assignmentId=af07cbef-2ee5-4b74-bd12-aae646c7bf69&projectId=9076ac92-be42-43a2-9634-8b67c7fe93a7","4C96271A73E647C3B81D31378C99597B-2025-05-22-19-11-29","","null","","[]","null","",""
"","","","","","image-button-response","84","308222","0.0-12.0-1.0-0.9","4C96271A73E647C3B81D31378C99597B","4C96271A73E647C3B81D31378C99597B","af07cbef-2ee5-4b74-bd12-aae646c7bf69","9076ac92-be42-43a2-9634-8b67c7fe93a7","{""num_scrambled_semantic"":""8"",""num_scrambled_causal"":""4"",""num_scrambled_schematic"":""4"",""participantId"":""4C96271A73E647C3B81D31378C99597B"",""assignmentId"":""af07cbef-2ee5-4b74-bd12-aae646c7bf69"",""projectId"":""9076ac92-be42-43a2-9634-8b67c7fe93a7""}","https://test12345.live/?num_scrambled_semantic=8&num_scrambled_causal=4&num_scrambled_schematic=4&participantId=4C96271A73E647C3B81D31378C99597B&assignmentId=af07cbef-2ee5-4b74-bd12-aae646c7bf69&projectId=9076ac92-be42-43a2-9634-8b67c7fe93a7","4C96271A73E647C3B81D31378C99597B-2025-05-22-19-11-29","","null","","images/schematic_sequence/dinner_party_scheme/dinner_party_scheme_1.png","null","",""
"","","","","","image-button-response","85","309515","0.0-12.0-1.0-1.9","4C96271A73E647C3B81D31378C99597B","4C96271A73E647C3B81D31378C99597B","af07cbef-2ee5-4b74-bd12-aae646c7bf69","9076ac92-be42-43a2-9634-8b67c7fe93a7","{""num_scrambled_semantic"":""8"",""num_scrambled_causal"":""4"",""num_scrambled_schematic"":""4"",""participantId"":""4C96271A73E647C3B81D31378C99597B"",""assignmentId"":""af07cbef-2ee5-4b74-bd12-aae646c7bf69"",""projectId"":""9076ac92-be42-43a2-9634-8b67c7fe93a7""}","https://test12345.live/?num_scrambled_semantic=8&num_scrambled_causal=4&num_scrambled_schematic=4&participantId=4C96271A73E647C3B81D31378C99597B&assignmentId=af07cbef-2ee5-4b74-bd12-aae646c7bf69&projectId=9076ac92-be42-43a2-9634-8b67c7fe93a7","4C96271A73E647C3B81D31378C99597B-2025-05-22-19-11-29","","1291","","images/schematic_sequence/dinner_party_scheme/dinner_party_scheme_1.png","0","",""
"","","","","","image-button-response","86","311332","0.0-12.0-1.0-2.9","4C96271A73E647C3B81D31378C99597B","4C96271A73E647C3B81D31378C99597B","af07cbef-2ee5-4b74-bd12-aae646c7bf69","9076ac92-be42-43a2-9634-8b67c7fe93a7","{""num_scrambled_semantic"":""8"",""num_scrambled_causal"":""4"",""num_scrambled_schematic"":""4"",""participantId"":""4C96271A73E647C3B81D31378C99597B"",""assignmentId"":""af07cbef-2ee5-4b74-bd12-aae646c7bf69"",""projectId"":""9076ac92-be42-43a2-9634-8b67c7fe93a7""}","https://test12345.live/?num_scrambled_semantic=8&num_scrambled_causal=4&num_scrambled_schematic=4&participantId=4C96271A73E647C3B81D31378C99597B&assignmentId=af07cbef-2ee5-4b74-bd12-aae646c7bf69&projectId=9076ac92-be42-43a2-9634-8b67c7fe93a7","4C96271A73E647C3B81D31378C99597B-2025-05-22-19-11-29","","null","","[]","null","",""
"","","","","","html-audio-response","87","340206","0.0-13.0","4C96271A73E647C3B81D31378C99597B","4C96271A73E647C3B81D31378C99597B","af07cbef-2ee5-4b74-bd12-aae646c7bf69","9076ac92-be42-43a2-9634-8b67c7fe93a7","{""num_scrambled_semantic"":""8"",""num_scrambled_causal"":""4"",""num_scrambled_schematic"":""4"",""participantId"":""4C96271A73E647C3B81D31378C99597B"",""assignmentId"":""af07cbef-2ee5-4b74-bd12-aae646c7bf69"",""projectId"":""9076ac92-be42-43a2-9634-8b67c7fe93a7""}","https://test12345.live/?num_scrambled_semantic=8&num_scrambled_causal=4&num_scrambled_schematic=4&participantId=4C96271A73E647C3B81D31378C99597B&assignmentId=af07cbef-2ee5-4b74-bd12-aae646c7bf69&projectId=9076ac92-be42-43a2-9634-8b67c7fe93a7","4C96271A73E647C3B81D31378C99597B-2025-05-22-19-11-29","","14037","","[""<span style=\""color: red; font-size: 24px\""> NOW RECORDING</span><p>Please say out loud all the images you saw, in the exact order you saw them. Try to recall as many images as you can, but remember: getting the order right is more important than the number of images you recall.</p>""]","","1","dinner_party_scheme"
"","","","","","image-button-response","88","346217","0.0-14.0-0.0","4C96271A73E647C3B81D31378C99597B","4C96271A73E647C3B81D31378C99597B","af07cbef-2ee5-4b74-bd12-aae646c7bf69","9076ac92-be42-43a2-9634-8b67c7fe93a7","{""num_scrambled_semantic"":""8"",""num_scrambled_causal"":""4"",""num_scrambled_schematic"":""4"",""participantId"":""4C96271A73E647C3B81D31378C99597B"",""assignmentId"":""af07cbef-2ee5-4b74-bd12-aae646c7bf69"",""projectId"":""9076ac92-be42-43a2-9634-8b67c7fe93a7""}","https://test12345.live/?num_scrambled_semantic=8&num_scrambled_causal=4&num_scrambled_schematic=4&participantId=4C96271A73E647C3B81D31378C99597B&assignmentId=af07cbef-2ee5-4b74-bd12-aae646c7bf69&projectId=9076ac92-be42-43a2-9634-8b67c7fe93a7","4C96271A73E647C3B81D31378C99597B-2025-05-22-19-11-29","","null","","images/semantic_sequence/market_semantic/market_semantic_0.png","null","",""
"","","","","","image-button-response","89","350722","0.0-14.0-1.0-0.0","4C96271A73E647C3B81D31378C99597B","4C96271A73E647C3B81D31378C99597B","af07cbef-2ee5-4b74-bd12-aae646c7bf69","9076ac92-be42-43a2-9634-8b67c7fe93a7","{""num_scrambled_semantic"":""8"",""num_scrambled_causal"":""4"",""num_scrambled_schematic"":""4"",""participantId"":""4C96271A73E647C3B81D31378C99597B"",""assignmentId"":""af07cbef-2ee5-4b74-bd12-aae646c7bf69"",""projectId"":""9076ac92-be42-43a2-9634-8b67c7fe93a7""}","https://test12345.live/?num_scrambled_semantic=8&num_scrambled_causal=4&num_scrambled_schematic=4&participantId=4C96271A73E647C3B81D31378C99597B&assignmentId=af07cbef-2ee5-4b74-bd12-aae646c7bf69&projectId=9076ac92-be42-43a2-9634-8b67c7fe93a7","4C96271A73E647C3B81D31378C99597B-2025-05-22-19-11-29","","null","","images/semantic_sequence/market_semantic/market_semantic_1.png","null","",""
"","","","","","image-button-response","90","352269","0.0-14.0-1.0-1.0","4C96271A73E647C3B81D31378C99597B","4C96271A73E647C3B81D31378C99597B","af07cbef-2ee5-4b74-bd12-aae646c7bf69","9076ac92-be42-43a2-9634-8b67c7fe93a7","{""num_scrambled_semantic"":""8"",""num_scrambled_causal"":""4"",""num_scrambled_schematic"":""4"",""participantId"":""4C96271A73E647C3B81D31378C99597B"",""assignmentId"":""af07cbef-2ee5-4b74-bd12-aae646c7bf69"",""projectId"":""9076ac92-be42-43a2-9634-8b67c7fe93a7""}","https://test12345.live/?num_scrambled_semantic=8&num_scrambled_causal=4&num_scrambled_schematic=4&participantId=4C96271A73E647C3B81D31378C99597B&assignmentId=af07cbef-2ee5-4b74-bd12-aae646c7bf69&projectId=9076ac92-be42-43a2-9634-8b67c7fe93a7","4C96271A73E647C3B81D31378C99597B-2025-05-22-19-11-29","","1545","","images/semantic_sequence/market_semantic/market_semantic_1.png","1","",""
"","","","","","image-button-response","91","354084","0.0-14.0-1.0-2.0","4C96271A73E647C3B81D31378C99597B","4C96271A73E647C3B81D31378C99597B","af07cbef-2ee5-4b74-bd12-aae646c7bf69","9076ac92-be42-43a2-9634-8b67c7fe93a7","{""num_scrambled_semantic"":""8"",""num_scrambled_causal"":""4"",""num_scrambled_schematic"":""4"",""participantId"":""4C96271A73E647C3B81D31378C99597B"",""assignmentId"":""af07cbef-2ee5-4b74-bd12-aae646c7bf69"",""projectId"":""9076ac92-be42-43a2-9634-8b67c7fe93a7""}","https://test12345.live/?num_scrambled_semantic=8&num_scrambled_causal=4&num_scrambled_schematic=4&participantId=4C96271A73E647C3B81D31378C99597B&assignmentId=af07cbef-2ee5-4b74-bd12-aae646c7bf69&projectId=9076ac92-be42-43a2-9634-8b67c7fe93a7","4C96271A73E647C3B81D31378C99597B-2025-05-22-19-11-29","","null","","[]","null","",""
"","","","","","image-button-response","92","358595","0.0-14.0-1.0-0.1","4C96271A73E647C3B81D31378C99597B","4C96271A73E647C3B81D31378C99597B","af07cbef-2ee5-4b74-bd12-aae646c7bf69","9076ac92-be42-43a2-9634-8b67c7fe93a7","{""num_scrambled_semantic"":""8"",""num_scrambled_causal"":""4"",""num_scrambled_schematic"":""4"",""participantId"":""4C96271A73E647C3B81D31378C99597B"",""assignmentId"":""af07cbef-2ee5-4b74-bd12-aae646c7bf69"",""projectId"":""9076ac92-be42-43a2-9634-8b67c7fe93a7""}","https://test12345.live/?num_scrambled_semantic=8&num_scrambled_causal=4&num_scrambled_schematic=4&participantId=4C96271A73E647C3B81D31378C99597B&assignmentId=af07cbef-2ee5-4b74-bd12-aae646c7bf69&projectId=9076ac92-be42-43a2-9634-8b67c7fe93a7","4C96271A73E647C3B81D31378C99597B-2025-05-22-19-11-29","","null","","images/semantic_sequence/market_semantic/market_semantic_2.png","null","",""
"","","","","","image-button-response","93","359395","0.0-14.0-1.0-1.1","4C96271A73E647C3B81D31378C99597B","4C96271A73E647C3B81D31378C99597B","af07cbef-2ee5-4b74-bd12-aae646c7bf69","9076ac92-be42-43a2-9634-8b67c7fe93a7","{""num_scrambled_semantic"":""8"",""num_scrambled_causal"":""4"",""num_scrambled_schematic"":""4"",""participantId"":""4C96271A73E647C3B81D31378C99597B"",""assignmentId"":""af07cbef-2ee5-4b74-bd12-aae646c7bf69"",""projectId"":""9076ac92-be42-43a2-9634-8b67c7fe93a7""}","https://test12345.live/?num_scrambled_semantic=8&num_scrambled_causal=4&num_scrambled_schematic=4&participantId=4C96271A73E647C3B81D31378C99597B&assignmentId=af07cbef-2ee5-4b74-bd12-aae646c7bf69&projectId=9076ac92-be42-43a2-9634-8b67c7fe93a7","4C96271A73E647C3B81D31378C99597B-2025-05-22-19-11-29","","799","","images/semantic_sequence/market_semantic/market_semantic_2.png","1","",""
"","","","","","image-button-response","94","361203","0.0-14.0-1.0-2.1","4C96271A73E647C3B81D31378C99597B","4C96271A73E647C3B81D31378C99597B","af07cbef-2ee5-4b74-bd12-aae646c7bf69","9076ac92-be42-43a2-9634-8b67c7fe93a7","{""num_scrambled_semantic"":""8"",""num_scrambled_causal"":""4"",""num_scrambled_schematic"":""4"",""participantId"":""4C96271A73E647C3B81D31378C99597B"",""assignmentId"":""af07cbef-2ee5-4b74-bd12-aae646c7bf69"",""projectId"":""9076ac92-be42-43a2-9634-8b67c7fe93a7""}","https://test12345.live/?num_scrambled_semantic=8&num_scrambled_causal=4&num_scrambled_schematic=4&participantId=4C96271A73E647C3B81D31378C99597B&assignmentId=af07cbef-2ee5-4b74-bd12-aae646c7bf69&projectId=9076ac92-be42-43a2-9634-8b67c7fe93a7","4C96271A73E647C3B81D31378C99597B-2025-05-22-19-11-29","","null","","[]","null","",""
"","","","","","image-button-response","95","365706","0.0-14.0-1.0-0.2","4C96271A73E647C3B81D31378C99597B","4C96271A73E647C3B81D31378C99597B","af07cbef-2ee5-4b74-bd12-aae646c7bf69","9076ac92-be42-43a2-9634-8b67c7fe93a7","{""num_scrambled_semantic"":""8"",""num_scrambled_causal"":""4"",""num_scrambled_schematic"":""4"",""participantId"":""4C96271A73E647C3B81D31378C99597B"",""assignmentId"":""af07cbef-2ee5-4b74-bd12-aae646c7bf69"",""projectId"":""9076ac92-be42-43a2-9634-8b67c7fe93a7""}","https://test12345.live/?num_scrambled_semantic=8&num_scrambled_causal=4&num_scrambled_schematic=4&participantId=4C96271A73E647C3B81D31378C99597B&assignmentId=af07cbef-2ee5-4b74-bd12-aae646c7bf69&projectId=9076ac92-be42-43a2-9634-8b67c7fe93a7","4C96271A73E647C3B81D31378C99597B-2025-05-22-19-11-29","","null","","images/semantic_sequence/market_semantic/market_semantic_3.png","null","",""
"","","","","","image-button-response","96","367075","0.0-14.0-1.0-1.2","4C96271A73E647C3B81D31378C99597B","4C96271A73E647C3B81D31378C99597B","af07cbef-2ee5-4b74-bd12-aae646c7bf69","9076ac92-be42-43a2-9634-8b67c7fe93a7","{""num_scrambled_semantic"":""8"",""num_scrambled_causal"":""4"",""num_scrambled_schematic"":""4"",""participantId"":""4C96271A73E647C3B81D31378C99597B"",""assignmentId"":""af07cbef-2ee5-4b74-bd12-aae646c7bf69"",""projectId"":""9076ac92-be42-43a2-9634-8b67c7fe93a7""}","https://test12345.live/?num_scrambled_semantic=8&num_scrambled_causal=4&num_scrambled_schematic=4&participantId=4C96271A73E647C3B81D31378C99597B&assignmentId=af07cbef-2ee5-4b74-bd12-aae646c7bf69&projectId=9076ac92-be42-43a2-9634-8b67c7fe93a7","4C96271A73E647C3B81D31378C99597B-2025-05-22-19-11-29","","1367","","images/semantic_sequence/market_semantic/market_semantic_3.png","1","",""
"","","","","","image-button-response","97","368880","0.0-14.0-1.0-2.2","4C96271A73E647C3B81D31378C99597B","4C96271A73E647C3B81D31378C99597B","af07cbef-2ee5-4b74-bd12-aae646c7bf69","9076ac92-be42-43a2-9634-8b67c7fe93a7","{""num_scrambled_semantic"":""8"",""num_scrambled_causal"":""4"",""num_scrambled_schematic"":""4"",""participantId"":""4C96271A73E647C3B81D31378C99597B"",""assignmentId"":""af07cbef-2ee5-4b74-bd12-aae646c7bf69"",""projectId"":""9076ac92-be42-43a2-9634-8b67c7fe93a7""}","https://test12345.live/?num_scrambled_semantic=8&num_scrambled_causal=4&num_scrambled_schematic=4&participantId=4C96271A73E647C3B81D31378C99597B&assignmentId=af07cbef-2ee5-4b74-bd12-aae646c7bf69&projectId=9076ac92-be42-43a2-9634-8b67c7fe93a7","4C96271A73E647C3B81D31378C99597B-2025-05-22-19-11-29","","null","","[]","null","",""
"","","","","","image-button-response","98","373381","0.0-14.0-1.0-0.3","4C96271A73E647C3B81D31378C99597B","4C96271A73E647C3B81D31378C99597B","af07cbef-2ee5-4b74-bd12-aae646c7bf69","9076ac92-be42-43a2-9634-8b67c7fe93a7","{""num_scrambled_semantic"":""8"",""num_scrambled_causal"":""4"",""num_scrambled_schematic"":""4"",""participantId"":""4C96271A73E647C3B81D31378C99597B"",""assignmentId"":""af07cbef-2ee5-4b74-bd12-aae646c7bf69"",""projectId"":""9076ac92-be42-43a2-9634-8b67c7fe93a7""}","https://test12345.live/?num_scrambled_semantic=8&num_scrambled_causal=4&num_scrambled_schematic=4&participantId=4C96271A73E647C3B81D31378C99597B&assignmentId=af07cbef-2ee5-4b74-bd12-aae646c7bf69&projectId=9076ac92-be42-43a2-9634-8b67c7fe93a7","4C96271A73E647C3B81D31378C99597B-2025-05-22-19-11-29","","null","","images/semantic_sequence/market_semantic/market_semantic_4.png","null","",""
"","","","","","image-button-response","99","373931","0.0-14.0-1.0-1.3","4C96271A73E647C3B81D31378C99597B","4C96271A73E647C3B81D31378C99597B","af07cbef-2ee5-4b74-bd12-aae646c7bf69","9076ac92-be42-43a2-9634-8b67c7fe93a7","{""num_scrambled_semantic"":""8"",""num_scrambled_causal"":""4"",""num_scrambled_schematic"":""4"",""participantId"":""4C96271A73E647C3B81D31378C99597B"",""assignmentId"":""af07cbef-2ee5-4b74-bd12-aae646c7bf69"",""projectId"":""9076ac92-be42-43a2-9634-8b67c7fe93a7""}","https://test12345.live/?num_scrambled_semantic=8&num_scrambled_causal=4&num_scrambled_schematic=4&participantId=4C96271A73E647C3B81D31378C99597B&assignmentId=af07cbef-2ee5-4b74-bd12-aae646c7bf69&projectId=9076ac92-be42-43a2-9634-8b67c7fe93a7","4C96271A73E647C3B81D31378C99597B-2025-05-22-19-11-29","","549","","images/semantic_sequence/market_semantic/market_semantic_4.png","0","",""
"","","","","","image-button-response","100","375737","0.0-14.0-1.0-2.3","4C96271A73E647C3B81D31378C99597B","4C96271A73E647C3B81D31378C99597B","af07cbef-2ee5-4b74-bd12-aae646c7bf69","9076ac92-be42-43a2-9634-8b67c7fe93a7","{""num_scrambled_semantic"":""8"",""num_scrambled_causal"":""4"",""num_scrambled_schematic"":""4"",""participantId"":""4C96271A73E647C3B81D31378C99597B"",""assignmentId"":""af07cbef-2ee5-4b74-bd12-aae646c7bf69"",""projectId"":""9076ac92-be42-43a2-9634-8b67c7fe93a7""}","https://test12345.live/?num_scrambled_semantic=8&num_scrambled_causal=4&num_scrambled_schematic=4&participantId=4C96271A73E647C3B81D31378C99597B&assignmentId=af07cbef-2ee5-4b74-bd12-aae646c7bf69&projectId=9076ac92-be42-43a2-9634-8b67c7fe93a7","4C96271A73E647C3B81D31378C99597B-2025-05-22-19-11-29","","null","","[]","null","",""
"","","","","","image-button-response","101","380244","0.0-14.0-1.0-0.4","4C96271A73E647C3B81D31378C99597B","4C96271A73E647C3B81D31378C99597B","af07cbef-2ee5-4b74-bd12-aae646c7bf69","9076ac92-be42-43a2-9634-8b67c7fe93a7","{""num_scrambled_semantic"":""8"",""num_scrambled_causal"":""4"",""num_scrambled_schematic"":""4"",""participantId"":""4C96271A73E647C3B81D31378C99597B"",""assignmentId"":""af07cbef-2ee5-4b74-bd12-aae646c7bf69"",""projectId"":""9076ac92-be42-43a2-9634-8b67c7fe93a7""}","https://test12345.live/?num_scrambled_semantic=8&num_scrambled_causal=4&num_scrambled_schematic=4&participantId=4C96271A73E647C3B81D31378C99597B&assignmentId=af07cbef-2ee5-4b74-bd12-aae646c7bf69&projectId=9076ac92-be42-43a2-9634-8b67c7fe93a7","4C96271A73E647C3B81D31378C99597B-2025-05-22-19-11-29","","null","","images/semantic_sequence/market_semantic/market_semantic_5.png","null","",""
"","","","","","image-button-response","102","380900","0.0-14.0-1.0-1.4","4C96271A73E647C3B81D31378C99597B","4C96271A73E647C3B81D31378C99597B","af07cbef-2ee5-4b74-bd12-aae646c7bf69","9076ac92-be42-43a2-9634-8b67c7fe93a7","{""num_scrambled_semantic"":""8"",""num_scrambled_causal"":""4"",""num_scrambled_schematic"":""4"",""participantId"":""4C96271A73E647C3B81D31378C99597B"",""assignmentId"":""af07cbef-2ee5-4b74-bd12-aae646c7bf69"",""projectId"":""9076ac92-be42-43a2-9634-8b67c7fe93a7""}","https://test12345.live/?num_scrambled_semantic=8&num_scrambled_causal=4&num_scrambled_schematic=4&participantId=4C96271A73E647C3B81D31378C99597B&assignmentId=af07cbef-2ee5-4b74-bd12-aae646c7bf69&projectId=9076ac92-be42-43a2-9634-8b67c7fe93a7","4C96271A73E647C3B81D31378C99597B-2025-05-22-19-11-29","","655","","images/semantic_sequence/market_semantic/market_semantic_5.png","1","",""
"","","","","","image-button-response","103","382706","0.0-14.0-1.0-2.4","4C96271A73E647C3B81D31378C99597B","4C96271A73E647C3B81D31378C99597B","af07cbef-2ee5-4b74-bd12-aae646c7bf69","9076ac92-be42-43a2-9634-8b67c7fe93a7","{""num_scrambled_semantic"":""8"",""num_scrambled_causal"":""4"",""num_scrambled_schematic"":""4"",""participantId"":""4C96271A73E647C3B81D31378C99597B"",""assignmentId"":""af07cbef-2ee5-4b74-bd12-aae646c7bf69"",""projectId"":""9076ac92-be42-43a2-9634-8b67c7fe93a7""}","https://test12345.live/?num_scrambled_semantic=8&num_scrambled_causal=4&num_scrambled_schematic=4&participantId=4C96271A73E647C3B81D31378C99597B&assignmentId=af07cbef-2ee5-4b74-bd12-aae646c7bf69&projectId=9076ac92-be42-43a2-9634-8b67c7fe93a7","4C96271A73E647C3B81D31378C99597B-2025-05-22-19-11-29","","null","","[]","null","",""
"","","","","","image-button-response","104","387213","0.0-14.0-1.0-0.5","4C96271A73E647C3B81D31378C99597B","4C96271A73E647C3B81D31378C99597B","af07cbef-2ee5-4b74-bd12-aae646c7bf69","9076ac92-be42-43a2-9634-8b67c7fe93a7","{""num_scrambled_semantic"":""8"",""num_scrambled_causal"":""4"",""num_scrambled_schematic"":""4"",""participantId"":""4C96271A73E647C3B81D31378C99597B"",""assignmentId"":""af07cbef-2ee5-4b74-bd12-aae646c7bf69"",""projectId"":""9076ac92-be42-43a2-9634-8b67c7fe93a7""}","https://test12345.live/?num_scrambled_semantic=8&num_scrambled_causal=4&num_scrambled_schematic=4&participantId=4C96271A73E647C3B81D31378C99597B&assignmentId=af07cbef-2ee5-4b74-bd12-aae646c7bf69&projectId=9076ac92-be42-43a2-9634-8b67c7fe93a7","4C96271A73E647C3B81D31378C99597B-2025-05-22-19-11-29","","null","","images/semantic_sequence/market_semantic/market_semantic_6.png","null","",""
"","","","","","image-button-response","105","387683","0.0-14.0-1.0-1.5","4C96271A73E647C3B81D31378C99597B","4C96271A73E647C3B81D31378C99597B","af07cbef-2ee5-4b74-bd12-aae646c7bf69","9076ac92-be42-43a2-9634-8b67c7fe93a7","{""num_scrambled_semantic"":""8"",""num_scrambled_causal"":""4"",""num_scrambled_schematic"":""4"",""participantId"":""4C96271A73E647C3B81D31378C99597B"",""assignmentId"":""af07cbef-2ee5-4b74-bd12-aae646c7bf69"",""projectId"":""9076ac92-be42-43a2-9634-8b67c7fe93a7""}","https://test12345.live/?num_scrambled_semantic=8&num_scrambled_causal=4&num_scrambled_schematic=4&participantId=4C96271A73E647C3B81D31378C99597B&assignmentId=af07cbef-2ee5-4b74-bd12-aae646c7bf69&projectId=9076ac92-be42-43a2-9634-8b67c7fe93a7","4C96271A73E647C3B81D31378C99597B-2025-05-22-19-11-29","","468","","images/semantic_sequence/market_semantic/market_semantic_6.png","1","",""
"","","","","","image-button-response","106","389489","0.0-14.0-1.0-2.5","4C96271A73E647C3B81D31378C99597B","4C96271A73E647C3B81D31378C99597B","af07cbef-2ee5-4b74-bd12-aae646c7bf69","9076ac92-be42-43a2-9634-8b67c7fe93a7","{""num_scrambled_semantic"":""8"",""num_scrambled_causal"":""4"",""num_scrambled_schematic"":""4"",""participantId"":""4C96271A73E647C3B81D31378C99597B"",""assignmentId"":""af07cbef-2ee5-4b74-bd12-aae646c7bf69"",""projectId"":""9076ac92-be42-43a2-9634-8b67c7fe93a7""}","https://test12345.live/?num_scrambled_semantic=8&num_scrambled_causal=4&num_scrambled_schematic=4&participantId=4C96271A73E647C3B81D31378C99597B&assignmentId=af07cbef-2ee5-4b74-bd12-aae646c7bf69&projectId=9076ac92-be42-43a2-9634-8b67c7fe93a7","4C96271A73E647C3B81D31378C99597B-2025-05-22-19-11-29","","null","","[]","null","",""
"","","","","","image-button-response","107","394003","0.0-14.0-1.0-0.6","4C96271A73E647C3B81D31378C99597B","4C96271A73E647C3B81D31378C99597B","af07cbef-2ee5-4b74-bd12-aae646c7bf69","9076ac92-be42-43a2-9634-8b67c7fe93a7","{""num_scrambled_semantic"":""8"",""num_scrambled_causal"":""4"",""num_scrambled_schematic"":""4"",""participantId"":""4C96271A73E647C3B81D31378C99597B"",""assignmentId"":""af07cbef-2ee5-4b74-bd12-aae646c7bf69"",""projectId"":""9076ac92-be42-43a2-9634-8b67c7fe93a7""}","https://test12345.live/?num_scrambled_semantic=8&num_scrambled_causal=4&num_scrambled_schematic=4&participantId=4C96271A73E647C3B81D31378C99597B&assignmentId=af07cbef-2ee5-4b74-bd12-aae646c7bf69&projectId=9076ac92-be42-43a2-9634-8b67c7fe93a7","4C96271A73E647C3B81D31378C99597B-2025-05-22-19-11-29","","null","","images/semantic_sequence/market_semantic/market_semantic_7.png","null","",""
"","","","","","image-button-response","108","394547","0.0-14.0-1.0-1.6","4C96271A73E647C3B81D31378C99597B","4C96271A73E647C3B81D31378C99597B","af07cbef-2ee5-4b74-bd12-aae646c7bf69","9076ac92-be42-43a2-9634-8b67c7fe93a7","{""num_scrambled_semantic"":""8"",""num_scrambled_causal"":""4"",""num_scrambled_schematic"":""4"",""participantId"":""4C96271A73E647C3B81D31378C99597B"",""assignmentId"":""af07cbef-2ee5-4b74-bd12-aae646c7bf69"",""projectId"":""9076ac92-be42-43a2-9634-8b67c7fe93a7""}","https://test12345.live/?num_scrambled_semantic=8&num_scrambled_causal=4&num_scrambled_schematic=4&participantId=4C96271A73E647C3B81D31378C99597B&assignmentId=af07cbef-2ee5-4b74-bd12-aae646c7bf69&projectId=9076ac92-be42-43a2-9634-8b67c7fe93a7","4C96271A73E647C3B81D31378C99597B-2025-05-22-19-11-29","","542","","images/semantic_sequence/market_semantic/market_semantic_7.png","0","",""
"","","","","","image-button-response","109","396362","0.0-14.0-1.0-2.6","4C96271A73E647C3B81D31378C99597B","4C96271A73E647C3B81D31378C99597B","af07cbef-2ee5-4b74-bd12-aae646c7bf69","9076ac92-be42-43a2-9634-8b67c7fe93a7","{""num_scrambled_semantic"":""8"",""num_scrambled_causal"":""4"",""num_scrambled_schematic"":""4"",""participantId"":""4C96271A73E647C3B81D31378C99597B"",""assignmentId"":""af07cbef-2ee5-4b74-bd12-aae646c7bf69"",""projectId"":""9076ac92-be42-43a2-9634-8b67c7fe93a7""}","https://test12345.live/?num_scrambled_semantic=8&num_scrambled_causal=4&num_scrambled_schematic=4&participantId=4C96271A73E647C3B81D31378C99597B&assignmentId=af07cbef-2ee5-4b74-bd12-aae646c7bf69&projectId=9076ac92-be42-43a2-9634-8b67c7fe93a7","4C96271A73E647C3B81D31378C99597B-2025-05-22-19-11-29","","null","","[]","null","",""
"","","","","","image-button-response","110","400872","0.0-14.0-1.0-0.7","4C96271A73E647C3B81D31378C99597B","4C96271A73E647C3B81D31378C99597B","af07cbef-2ee5-4b74-bd12-aae646c7bf69","9076ac92-be42-43a2-9634-8b67c7fe93a7","{""num_scrambled_semantic"":""8"",""num_scrambled_causal"":""4"",""num_scrambled_schematic"":""4"",""participantId"":""4C96271A73E647C3B81D31378C99597B"",""assignmentId"":""af07cbef-2ee5-4b74-bd12-aae646c7bf69"",""projectId"":""9076ac92-be42-43a2-9634-8b67c7fe93a7""}","https://test12345.live/?num_scrambled_semantic=8&num_scrambled_causal=4&num_scrambled_schematic=4&participantId=4C96271A73E647C3B81D31378C99597B&assignmentId=af07cbef-2ee5-4b74-bd12-aae646c7bf69&projectId=9076ac92-be42-43a2-9634-8b67c7fe93a7","4C96271A73E647C3B81D31378C99597B-2025-05-22-19-11-29","","null","","images/semantic_sequence/market_semantic/market_semantic_8.png","null","",""
"","","","","","image-button-response","111","401803","0.0-14.0-1.0-1.7","4C96271A73E647C3B81D31378C99597B","4C96271A73E647C3B81D31378C99597B","af07cbef-2ee5-4b74-bd12-aae646c7bf69","9076ac92-be42-43a2-9634-8b67c7fe93a7","{""num_scrambled_semantic"":""8"",""num_scrambled_causal"":""4"",""num_scrambled_schematic"":""4"",""participantId"":""4C96271A73E647C3B81D31378C99597B"",""assignmentId"":""af07cbef-2ee5-4b74-bd12-aae646c7bf69"",""projectId"":""9076ac92-be42-43a2-9634-8b67c7fe93a7""}","https://test12345.live/?num_scrambled_semantic=8&num_scrambled_causal=4&num_scrambled_schematic=4&participantId=4C96271A73E647C3B81D31378C99597B&assignmentId=af07cbef-2ee5-4b74-bd12-aae646c7bf69&projectId=9076ac92-be42-43a2-9634-8b67c7fe93a7","4C96271A73E647C3B81D31378C99597B-2025-05-22-19-11-29","","930","","images/semantic_sequence/market_semantic/market_semantic_8.png","1","",""
"","","","","","image-button-response","112","403614","0.0-14.0-1.0-2.7","4C96271A73E647C3B81D31378C99597B","4C96271A73E647C3B81D31378C99597B","af07cbef-2ee5-4b74-bd12-aae646c7bf69","9076ac92-be42-43a2-9634-8b67c7fe93a7","{""num_scrambled_semantic"":""8"",""num_scrambled_causal"":""4"",""num_scrambled_schematic"":""4"",""participantId"":""4C96271A73E647C3B81D31378C99597B"",""assignmentId"":""af07cbef-2ee5-4b74-bd12-aae646c7bf69"",""projectId"":""9076ac92-be42-43a2-9634-8b67c7fe93a7""}","https://test12345.live/?num_scrambled_semantic=8&num_scrambled_causal=4&num_scrambled_schematic=4&participantId=4C96271A73E647C3B81D31378C99597B&assignmentId=af07cbef-2ee5-4b74-bd12-aae646c7bf69&projectId=9076ac92-be42-43a2-9634-8b67c7fe93a7","4C96271A73E647C3B81D31378C99597B-2025-05-22-19-11-29","","null","","[]","null","",""
"","","","","","image-button-response","113","408122","0.0-14.0-1.0-0.8","4C96271A73E647C3B81D31378C99597B","4C96271A73E647C3B81D31378C99597B","af07cbef-2ee5-4b74-bd12-aae646c7bf69","9076ac92-be42-43a2-9634-8b67c7fe93a7","{""num_scrambled_semantic"":""8"",""num_scrambled_causal"":""4"",""num_scrambled_schematic"":""4"",""participantId"":""4C96271A73E647C3B81D31378C99597B"",""assignmentId"":""af07cbef-2ee5-4b74-bd12-aae646c7bf69"",""projectId"":""9076ac92-be42-43a2-9634-8b67c7fe93a7""}","https://test12345.live/?num_scrambled_semantic=8&num_scrambled_causal=4&num_scrambled_schematic=4&participantId=4C96271A73E647C3B81D31378C99597B&assignmentId=af07cbef-2ee5-4b74-bd12-aae646c7bf69&projectId=9076ac92-be42-43a2-9634-8b67c7fe93a7","4C96271A73E647C3B81D31378C99597B-2025-05-22-19-11-29","","null","","images/semantic_sequence/market_semantic/market_semantic_9.png","null","",""
