"success","timeout","failed_images","failed_audio","failed_video","trial_type","trial_index","time_elapsed","internal_node_id","subject","subject_id","study_id","session_id","urlvar","current_url","audio_id","view_history","rt","device_id","stimulus","response","estimated_stimulus_onset","seq_name"
"true","false","[]","[]","[]","preload","0","22","0.0-0.0","4DD24DDF64DB4E9FB276B8D9F50480E9","4DD24DDF64DB4E9FB276B8D9F50480E9","571e6ef4-3023-4421-a528-76e29ef3229c","03d12dc6-79b3-42a5-88c2-9b18a9e5f1ee","{""num_scrambled_semantic"":""8"",""num_scrambled_causal"":""4"",""num_scrambled_schematic"":""4"",""participantId"":""4DD24DDF64DB4E9FB276B8D9F50480E9"",""assignmentId"":""571e6ef4-3023-4421-a528-76e29ef3229c"",""projectId"":""03d12dc6-79b3-42a5-88c2-9b18a9e5f1ee""}","https://test12345.live/?num_scrambled_semantic=8&num_scrambled_causal=4&num_scrambled_schematic=4&participantId=4DD24DDF64DB4E9FB276B8D9F50480E9&assignmentId=571e6ef4-3023-4421-a528-76e29ef3229c&projectId=03d12dc6-79b3-42a5-88c2-9b18a9e5f1ee","4DD24DDF64DB4E9FB276B8D9F50480E9-2025-05-15-15-35-29","","","","","","",""
"","","","","","instructions","1","7723","0.0-1.0","4DD24DDF64DB4E9FB276B8D9F50480E9","4DD24DDF64DB4E9FB276B8D9F50480E9","571e6ef4-3023-4421-a528-76e29ef3229c","03d12dc6-79b3-42a5-88c2-9b18a9e5f1ee","{""num_scrambled_semantic"":""8"",""num_scrambled_causal"":""4"",""num_scrambled_schematic"":""4"",""participantId"":""4DD24DDF64DB4E9FB276B8D9F50480E9"",""assignmentId"":""571e6ef4-3023-4421-a528-76e29ef3229c"",""projectId"":""03d12dc6-79b3-42a5-88c2-9b18a9e5f1ee""}","https://test12345.live/?num_scrambled_semantic=8&num_scrambled_causal=4&num_scrambled_schematic=4&participantId=4DD24DDF64DB4E9FB276B8D9F50480E9&assignmentId=571e6ef4-3023-4421-a528-76e29ef3229c&projectId=03d12dc6-79b3-42a5-88c2-9b18a9e5f1ee","4DD24DDF64DB4E9FB276B8D9F50480E9-2025-05-15-15-35-29","[{""page_index"":0,""viewing_time"":7699}]","7699","","","","",""
"","","","","","instructions","2","10927","0.0-2.0","4DD24DDF64DB4E9FB276B8D9F50480E9","4DD24DDF64DB4E9FB276B8D9F50480E9","571e6ef4-3023-4421-a528-76e29ef3229c","03d12dc6-79b3-42a5-88c2-9b18a9e5f1ee","{""num_scrambled_semantic"":""8"",""num_scrambled_causal"":""4"",""num_scrambled_schematic"":""4"",""participantId"":""4DD24DDF64DB4E9FB276B8D9F50480E9"",""assignmentId"":""571e6ef4-3023-4421-a528-76e29ef3229c"",""projectId"":""03d12dc6-79b3-42a5-88c2-9b18a9e5f1ee""}","https://test12345.live/?num_scrambled_semantic=8&num_scrambled_causal=4&num_scrambled_schematic=4&participantId=4DD24DDF64DB4E9FB276B8D9F50480E9&assignmentId=571e6ef4-3023-4421-a528-76e29ef3229c&projectId=03d12dc6-79b3-42a5-88c2-9b18a9e5f1ee","4DD24DDF64DB4E9FB276B8D9F50480E9-2025-05-15-15-35-29","[{""page_index"":0,""viewing_time"":3200}]","3200","","","","",""
"true","","","","","fullscreen","3","13303","0.0-3.0","4DD24DDF64DB4E9FB276B8D9F50480E9","4DD24DDF64DB4E9FB276B8D9F50480E9","571e6ef4-3023-4421-a528-76e29ef3229c","03d12dc6-79b3-42a5-88c2-9b18a9e5f1ee","{""num_scrambled_semantic"":""8"",""num_scrambled_causal"":""4"",""num_scrambled_schematic"":""4"",""participantId"":""4DD24DDF64DB4E9FB276B8D9F50480E9"",""assignmentId"":""571e6ef4-3023-4421-a528-76e29ef3229c"",""projectId"":""03d12dc6-79b3-42a5-88c2-9b18a9e5f1ee""}","https://test12345.live/?num_scrambled_semantic=8&num_scrambled_causal=4&num_scrambled_schematic=4&participantId=4DD24DDF64DB4E9FB276B8D9F50480E9&assignmentId=571e6ef4-3023-4421-a528-76e29ef3229c&projectId=03d12dc6-79b3-42a5-88c2-9b18a9e5f1ee","4DD24DDF64DB4E9FB276B8D9F50480E9-2025-05-15-15-35-29","","1307","","","","",""
"","","","","","initialize-microphone","4","21649","0.0-4.0-0.0","4DD24DDF64DB4E9FB276B8D9F50480E9","4DD24DDF64DB4E9FB276B8D9F50480E9","571e6ef4-3023-4421-a528-76e29ef3229c","03d12dc6-79b3-42a5-88c2-9b18a9e5f1ee","{""num_scrambled_semantic"":""8"",""num_scrambled_causal"":""4"",""num_scrambled_schematic"":""4"",""participantId"":""4DD24DDF64DB4E9FB276B8D9F50480E9"",""assignmentId"":""571e6ef4-3023-4421-a528-76e29ef3229c"",""projectId"":""03d12dc6-79b3-42a5-88c2-9b18a9e5f1ee""}","https://test12345.live/?num_scrambled_semantic=8&num_scrambled_causal=4&num_scrambled_schematic=4&participantId=4DD24DDF64DB4E9FB276B8D9F50480E9&assignmentId=571e6ef4-3023-4421-a528-76e29ef3229c&projectId=03d12dc6-79b3-42a5-88c2-9b18a9e5f1ee","4DD24DDF64DB4E9FB276B8D9F50480E9-2025-05-15-15-35-29","","","IPZh4HN8TkjeIGtv5lF2O0yZGeUpT0EFvcsN5yRHV9U=","","","",""
"","","","","","html-audio-response","5","28781","0.0-4.0-1.0","4DD24DDF64DB4E9FB276B8D9F50480E9","4DD24DDF64DB4E9FB276B8D9F50480E9","571e6ef4-3023-4421-a528-76e29ef3229c","03d12dc6-79b3-42a5-88c2-9b18a9e5f1ee","{""num_scrambled_semantic"":""8"",""num_scrambled_causal"":""4"",""num_scrambled_schematic"":""4"",""participantId"":""4DD24DDF64DB4E9FB276B8D9F50480E9"",""assignmentId"":""571e6ef4-3023-4421-a528-76e29ef3229c"",""projectId"":""03d12dc6-79b3-42a5-88c2-9b18a9e5f1ee""}","https://test12345.live/?num_scrambled_semantic=8&num_scrambled_causal=4&num_scrambled_schematic=4&participantId=4DD24DDF64DB4E9FB276B8D9F50480E9&assignmentId=571e6ef4-3023-4421-a528-76e29ef3229c&projectId=03d12dc6-79b3-42a5-88c2-9b18a9e5f1ee","4DD24DDF64DB4E9FB276B8D9F50480E9-2025-05-15-15-35-29","","1038","","<span style=""color: red; font-size: 24px""> NOW RECORDING</span>
        <p>Please test Microphone</p>","","16",""
"","","","","","html-button-response","6","30802","0.0-4.0-2.0","4DD24DDF64DB4E9FB276B8D9F50480E9","4DD24DDF64DB4E9FB276B8D9F50480E9","571e6ef4-3023-4421-a528-76e29ef3229c","03d12dc6-79b3-42a5-88c2-9b18a9e5f1ee","{""num_scrambled_semantic"":""8"",""num_scrambled_causal"":""4"",""num_scrambled_schematic"":""4"",""participantId"":""4DD24DDF64DB4E9FB276B8D9F50480E9"",""assignmentId"":""571e6ef4-3023-4421-a528-76e29ef3229c"",""projectId"":""03d12dc6-79b3-42a5-88c2-9b18a9e5f1ee""}","https://test12345.live/?num_scrambled_semantic=8&num_scrambled_causal=4&num_scrambled_schematic=4&participantId=4DD24DDF64DB4E9FB276B8D9F50480E9&assignmentId=571e6ef4-3023-4421-a528-76e29ef3229c&projectId=03d12dc6-79b3-42a5-88c2-9b18a9e5f1ee","4DD24DDF64DB4E9FB276B8D9F50480E9-2025-05-15-15-35-29","","2018","","<p style=""font-size:48px; color:red;"">Is Microphone OK?</p>","1","",""
"","","","","","instructions","7","41903","0.0-5.0","4DD24DDF64DB4E9FB276B8D9F50480E9","4DD24DDF64DB4E9FB276B8D9F50480E9","571e6ef4-3023-4421-a528-76e29ef3229c","03d12dc6-79b3-42a5-88c2-9b18a9e5f1ee","{""num_scrambled_semantic"":""8"",""num_scrambled_causal"":""4"",""num_scrambled_schematic"":""4"",""participantId"":""4DD24DDF64DB4E9FB276B8D9F50480E9"",""assignmentId"":""571e6ef4-3023-4421-a528-76e29ef3229c"",""projectId"":""03d12dc6-79b3-42a5-88c2-9b18a9e5f1ee""}","https://test12345.live/?num_scrambled_semantic=8&num_scrambled_causal=4&num_scrambled_schematic=4&participantId=4DD24DDF64DB4E9FB276B8D9F50480E9&assignmentId=571e6ef4-3023-4421-a528-76e29ef3229c&projectId=03d12dc6-79b3-42a5-88c2-9b18a9e5f1ee","4DD24DDF64DB4E9FB276B8D9F50480E9-2025-05-15-15-35-29","[{""page_index"":0,""viewing_time"":4857},{""page_index"":1,""viewing_time"":6242}]","11099","","","","",""
"","","","","","image-button-response","8","47937","0.0-6.0-0.0","4DD24DDF64DB4E9FB276B8D9F50480E9","4DD24DDF64DB4E9FB276B8D9F50480E9","571e6ef4-3023-4421-a528-76e29ef3229c","03d12dc6-79b3-42a5-88c2-9b18a9e5f1ee","{""num_scrambled_semantic"":""8"",""num_scrambled_causal"":""4"",""num_scrambled_schematic"":""4"",""participantId"":""4DD24DDF64DB4E9FB276B8D9F50480E9"",""assignmentId"":""571e6ef4-3023-4421-a528-76e29ef3229c"",""projectId"":""03d12dc6-79b3-42a5-88c2-9b18a9e5f1ee""}","https://test12345.live/?num_scrambled_semantic=8&num_scrambled_causal=4&num_scrambled_schematic=4&participantId=4DD24DDF64DB4E9FB276B8D9F50480E9&assignmentId=571e6ef4-3023-4421-a528-76e29ef3229c&projectId=03d12dc6-79b3-42a5-88c2-9b18a9e5f1ee","4DD24DDF64DB4E9FB276B8D9F50480E9-2025-05-15-15-35-29","","null","","images/instructions/movie_0.png","null","",""
"","","","","","image-button-response","9","52490","0.0-6.0-1.0-0.0","4DD24DDF64DB4E9FB276B8D9F50480E9","4DD24DDF64DB4E9FB276B8D9F50480E9","571e6ef4-3023-4421-a528-76e29ef3229c","03d12dc6-79b3-42a5-88c2-9b18a9e5f1ee","{""num_scrambled_semantic"":""8"",""num_scrambled_causal"":""4"",""num_scrambled_schematic"":""4"",""participantId"":""4DD24DDF64DB4E9FB276B8D9F50480E9"",""assignmentId"":""571e6ef4-3023-4421-a528-76e29ef3229c"",""projectId"":""03d12dc6-79b3-42a5-88c2-9b18a9e5f1ee""}","https://test12345.live/?num_scrambled_semantic=8&num_scrambled_causal=4&num_scrambled_schematic=4&participantId=4DD24DDF64DB4E9FB276B8D9F50480E9&assignmentId=571e6ef4-3023-4421-a528-76e29ef3229c&projectId=03d12dc6-79b3-42a5-88c2-9b18a9e5f1ee","4DD24DDF64DB4E9FB276B8D9F50480E9-2025-05-15-15-35-29","","null","","images/instructions/movie_1.png","null","",""
"","","","","","image-button-response","10","54667","0.0-6.0-1.0-1.0","4DD24DDF64DB4E9FB276B8D9F50480E9","4DD24DDF64DB4E9FB276B8D9F50480E9","571e6ef4-3023-4421-a528-76e29ef3229c","03d12dc6-79b3-42a5-88c2-9b18a9e5f1ee","{""num_scrambled_semantic"":""8"",""num_scrambled_causal"":""4"",""num_scrambled_schematic"":""4"",""participantId"":""4DD24DDF64DB4E9FB276B8D9F50480E9"",""assignmentId"":""571e6ef4-3023-4421-a528-76e29ef3229c"",""projectId"":""03d12dc6-79b3-42a5-88c2-9b18a9e5f1ee""}","https://test12345.live/?num_scrambled_semantic=8&num_scrambled_causal=4&num_scrambled_schematic=4&participantId=4DD24DDF64DB4E9FB276B8D9F50480E9&assignmentId=571e6ef4-3023-4421-a528-76e29ef3229c&projectId=03d12dc6-79b3-42a5-88c2-9b18a9e5f1ee","4DD24DDF64DB4E9FB276B8D9F50480E9-2025-05-15-15-35-29","","2174","","images/instructions/movie_1.png","0","",""
"","","","","","image-button-response","11","56550","0.0-6.0-1.0-2.0","4DD24DDF64DB4E9FB276B8D9F50480E9","4DD24DDF64DB4E9FB276B8D9F50480E9","571e6ef4-3023-4421-a528-76e29ef3229c","03d12dc6-79b3-42a5-88c2-9b18a9e5f1ee","{""num_scrambled_semantic"":""8"",""num_scrambled_causal"":""4"",""num_scrambled_schematic"":""4"",""participantId"":""4DD24DDF64DB4E9FB276B8D9F50480E9"",""assignmentId"":""571e6ef4-3023-4421-a528-76e29ef3229c"",""projectId"":""03d12dc6-79b3-42a5-88c2-9b18a9e5f1ee""}","https://test12345.live/?num_scrambled_semantic=8&num_scrambled_causal=4&num_scrambled_schematic=4&participantId=4DD24DDF64DB4E9FB276B8D9F50480E9&assignmentId=571e6ef4-3023-4421-a528-76e29ef3229c&projectId=03d12dc6-79b3-42a5-88c2-9b18a9e5f1ee","4DD24DDF64DB4E9FB276B8D9F50480E9-2025-05-15-15-35-29","","null","","[]","null","",""
"","","","","","image-button-response","12","61089","0.0-6.0-1.0-0.1","4DD24DDF64DB4E9FB276B8D9F50480E9","4DD24DDF64DB4E9FB276B8D9F50480E9","571e6ef4-3023-4421-a528-76e29ef3229c","03d12dc6-79b3-42a5-88c2-9b18a9e5f1ee","{""num_scrambled_semantic"":""8"",""num_scrambled_causal"":""4"",""num_scrambled_schematic"":""4"",""participantId"":""4DD24DDF64DB4E9FB276B8D9F50480E9"",""assignmentId"":""571e6ef4-3023-4421-a528-76e29ef3229c"",""projectId"":""03d12dc6-79b3-42a5-88c2-9b18a9e5f1ee""}","https://test12345.live/?num_scrambled_semantic=8&num_scrambled_causal=4&num_scrambled_schematic=4&participantId=4DD24DDF64DB4E9FB276B8D9F50480E9&assignmentId=571e6ef4-3023-4421-a528-76e29ef3229c&projectId=03d12dc6-79b3-42a5-88c2-9b18a9e5f1ee","4DD24DDF64DB4E9FB276B8D9F50480E9-2025-05-15-15-35-29","","null","","images/instructions/movie_2.png","null","",""
"","","","","","image-button-response","13","62912","0.0-6.0-1.0-1.1","4DD24DDF64DB4E9FB276B8D9F50480E9","4DD24DDF64DB4E9FB276B8D9F50480E9","571e6ef4-3023-4421-a528-76e29ef3229c","03d12dc6-79b3-42a5-88c2-9b18a9e5f1ee","{""num_scrambled_semantic"":""8"",""num_scrambled_causal"":""4"",""num_scrambled_schematic"":""4"",""participantId"":""4DD24DDF64DB4E9FB276B8D9F50480E9"",""assignmentId"":""571e6ef4-3023-4421-a528-76e29ef3229c"",""projectId"":""03d12dc6-79b3-42a5-88c2-9b18a9e5f1ee""}","https://test12345.live/?num_scrambled_semantic=8&num_scrambled_causal=4&num_scrambled_schematic=4&participantId=4DD24DDF64DB4E9FB276B8D9F50480E9&assignmentId=571e6ef4-3023-4421-a528-76e29ef3229c&projectId=03d12dc6-79b3-42a5-88c2-9b18a9e5f1ee","4DD24DDF64DB4E9FB276B8D9F50480E9-2025-05-15-15-35-29","","1821","","images/instructions/movie_2.png","1","",""
"","","","","","image-button-response","14","64934","0.0-6.0-1.0-2.1","4DD24DDF64DB4E9FB276B8D9F50480E9","4DD24DDF64DB4E9FB276B8D9F50480E9","571e6ef4-3023-4421-a528-76e29ef3229c","03d12dc6-79b3-42a5-88c2-9b18a9e5f1ee","{""num_scrambled_semantic"":""8"",""num_scrambled_causal"":""4"",""num_scrambled_schematic"":""4"",""participantId"":""4DD24DDF64DB4E9FB276B8D9F50480E9"",""assignmentId"":""571e6ef4-3023-4421-a528-76e29ef3229c"",""projectId"":""03d12dc6-79b3-42a5-88c2-9b18a9e5f1ee""}","https://test12345.live/?num_scrambled_semantic=8&num_scrambled_causal=4&num_scrambled_schematic=4&participantId=4DD24DDF64DB4E9FB276B8D9F50480E9&assignmentId=571e6ef4-3023-4421-a528-76e29ef3229c&projectId=03d12dc6-79b3-42a5-88c2-9b18a9e5f1ee","4DD24DDF64DB4E9FB276B8D9F50480E9-2025-05-15-15-35-29","","null","","[]","null","",""
"","","","","","image-button-response","15","69469","0.0-6.0-1.0-0.2","4DD24DDF64DB4E9FB276B8D9F50480E9","4DD24DDF64DB4E9FB276B8D9F50480E9","571e6ef4-3023-4421-a528-76e29ef3229c","03d12dc6-79b3-42a5-88c2-9b18a9e5f1ee","{""num_scrambled_semantic"":""8"",""num_scrambled_causal"":""4"",""num_scrambled_schematic"":""4"",""participantId"":""4DD24DDF64DB4E9FB276B8D9F50480E9"",""assignmentId"":""571e6ef4-3023-4421-a528-76e29ef3229c"",""projectId"":""03d12dc6-79b3-42a5-88c2-9b18a9e5f1ee""}","https://test12345.live/?num_scrambled_semantic=8&num_scrambled_causal=4&num_scrambled_schematic=4&participantId=4DD24DDF64DB4E9FB276B8D9F50480E9&assignmentId=571e6ef4-3023-4421-a528-76e29ef3229c&projectId=03d12dc6-79b3-42a5-88c2-9b18a9e5f1ee","4DD24DDF64DB4E9FB276B8D9F50480E9-2025-05-15-15-35-29","","null","","images/instructions/movie_3.png","null","",""
"","","","","","image-button-response","16","70923","0.0-6.0-1.0-1.2","4DD24DDF64DB4E9FB276B8D9F50480E9","4DD24DDF64DB4E9FB276B8D9F50480E9","571e6ef4-3023-4421-a528-76e29ef3229c","03d12dc6-79b3-42a5-88c2-9b18a9e5f1ee","{""num_scrambled_semantic"":""8"",""num_scrambled_causal"":""4"",""num_scrambled_schematic"":""4"",""participantId"":""4DD24DDF64DB4E9FB276B8D9F50480E9"",""assignmentId"":""571e6ef4-3023-4421-a528-76e29ef3229c"",""projectId"":""03d12dc6-79b3-42a5-88c2-9b18a9e5f1ee""}","https://test12345.live/?num_scrambled_semantic=8&num_scrambled_causal=4&num_scrambled_schematic=4&participantId=4DD24DDF64DB4E9FB276B8D9F50480E9&assignmentId=571e6ef4-3023-4421-a528-76e29ef3229c&projectId=03d12dc6-79b3-42a5-88c2-9b18a9e5f1ee","4DD24DDF64DB4E9FB276B8D9F50480E9-2025-05-15-15-35-29","","1449","","images/instructions/movie_3.png","0","",""
"","","","","","image-button-response","17","72953","0.0-6.0-1.0-2.2","4DD24DDF64DB4E9FB276B8D9F50480E9","4DD24DDF64DB4E9FB276B8D9F50480E9","571e6ef4-3023-4421-a528-76e29ef3229c","03d12dc6-79b3-42a5-88c2-9b18a9e5f1ee","{""num_scrambled_semantic"":""8"",""num_scrambled_causal"":""4"",""num_scrambled_schematic"":""4"",""participantId"":""4DD24DDF64DB4E9FB276B8D9F50480E9"",""assignmentId"":""571e6ef4-3023-4421-a528-76e29ef3229c"",""projectId"":""03d12dc6-79b3-42a5-88c2-9b18a9e5f1ee""}","https://test12345.live/?num_scrambled_semantic=8&num_scrambled_causal=4&num_scrambled_schematic=4&participantId=4DD24DDF64DB4E9FB276B8D9F50480E9&assignmentId=571e6ef4-3023-4421-a528-76e29ef3229c&projectId=03d12dc6-79b3-42a5-88c2-9b18a9e5f1ee","4DD24DDF64DB4E9FB276B8D9F50480E9-2025-05-15-15-35-29","","null","","[]","null","",""
"","","","","","image-button-response","18","77494","0.0-6.0-1.0-0.3","4DD24DDF64DB4E9FB276B8D9F50480E9","4DD24DDF64DB4E9FB276B8D9F50480E9","571e6ef4-3023-4421-a528-76e29ef3229c","03d12dc6-79b3-42a5-88c2-9b18a9e5f1ee","{""num_scrambled_semantic"":""8"",""num_scrambled_causal"":""4"",""num_scrambled_schematic"":""4"",""participantId"":""4DD24DDF64DB4E9FB276B8D9F50480E9"",""assignmentId"":""571e6ef4-3023-4421-a528-76e29ef3229c"",""projectId"":""03d12dc6-79b3-42a5-88c2-9b18a9e5f1ee""}","https://test12345.live/?num_scrambled_semantic=8&num_scrambled_causal=4&num_scrambled_schematic=4&participantId=4DD24DDF64DB4E9FB276B8D9F50480E9&assignmentId=571e6ef4-3023-4421-a528-76e29ef3229c&projectId=03d12dc6-79b3-42a5-88c2-9b18a9e5f1ee","4DD24DDF64DB4E9FB276B8D9F50480E9-2025-05-15-15-35-29","","null","","images/instructions/movie_4.png","null","",""
"","","","","","image-button-response","19","79082","0.0-6.0-1.0-1.3","4DD24DDF64DB4E9FB276B8D9F50480E9","4DD24DDF64DB4E9FB276B8D9F50480E9","571e6ef4-3023-4421-a528-76e29ef3229c","03d12dc6-79b3-42a5-88c2-9b18a9e5f1ee","{""num_scrambled_semantic"":""8"",""num_scrambled_causal"":""4"",""num_scrambled_schematic"":""4"",""participantId"":""4DD24DDF64DB4E9FB276B8D9F50480E9"",""assignmentId"":""571e6ef4-3023-4421-a528-76e29ef3229c"",""projectId"":""03d12dc6-79b3-42a5-88c2-9b18a9e5f1ee""}","https://test12345.live/?num_scrambled_semantic=8&num_scrambled_causal=4&num_scrambled_schematic=4&participantId=4DD24DDF64DB4E9FB276B8D9F50480E9&assignmentId=571e6ef4-3023-4421-a528-76e29ef3229c&projectId=03d12dc6-79b3-42a5-88c2-9b18a9e5f1ee","4DD24DDF64DB4E9FB276B8D9F50480E9-2025-05-15-15-35-29","","1585","","images/instructions/movie_4.png","0","",""
"","","","","","image-button-response","20","81098","0.0-6.0-1.0-2.3","4DD24DDF64DB4E9FB276B8D9F50480E9","4DD24DDF64DB4E9FB276B8D9F50480E9","571e6ef4-3023-4421-a528-76e29ef3229c","03d12dc6-79b3-42a5-88c2-9b18a9e5f1ee","{""num_scrambled_semantic"":""8"",""num_scrambled_causal"":""4"",""num_scrambled_schematic"":""4"",""participantId"":""4DD24DDF64DB4E9FB276B8D9F50480E9"",""assignmentId"":""571e6ef4-3023-4421-a528-76e29ef3229c"",""projectId"":""03d12dc6-79b3-42a5-88c2-9b18a9e5f1ee""}","https://test12345.live/?num_scrambled_semantic=8&num_scrambled_causal=4&num_scrambled_schematic=4&participantId=4DD24DDF64DB4E9FB276B8D9F50480E9&assignmentId=571e6ef4-3023-4421-a528-76e29ef3229c&projectId=03d12dc6-79b3-42a5-88c2-9b18a9e5f1ee","4DD24DDF64DB4E9FB276B8D9F50480E9-2025-05-15-15-35-29","","null","","[]","null","",""
"","","","","","instructions","21","90144","0.0-7.0","4DD24DDF64DB4E9FB276B8D9F50480E9","4DD24DDF64DB4E9FB276B8D9F50480E9","571e6ef4-3023-4421-a528-76e29ef3229c","03d12dc6-79b3-42a5-88c2-9b18a9e5f1ee","{""num_scrambled_semantic"":""8"",""num_scrambled_causal"":""4"",""num_scrambled_schematic"":""4"",""participantId"":""4DD24DDF64DB4E9FB276B8D9F50480E9"",""assignmentId"":""571e6ef4-3023-4421-a528-76e29ef3229c"",""projectId"":""03d12dc6-79b3-42a5-88c2-9b18a9e5f1ee""}","https://test12345.live/?num_scrambled_semantic=8&num_scrambled_causal=4&num_scrambled_schematic=4&participantId=4DD24DDF64DB4E9FB276B8D9F50480E9&assignmentId=571e6ef4-3023-4421-a528-76e29ef3229c&projectId=03d12dc6-79b3-42a5-88c2-9b18a9e5f1ee","4DD24DDF64DB4E9FB276B8D9F50480E9-2025-05-15-15-35-29","[{""page_index"":0,""viewing_time"":7809},{""page_index"":1,""viewing_time"":1237}]","9046","","","","",""
"","","","","","html-audio-response","22","129521","0.0-8.0","4DD24DDF64DB4E9FB276B8D9F50480E9","4DD24DDF64DB4E9FB276B8D9F50480E9","571e6ef4-3023-4421-a528-76e29ef3229c","03d12dc6-79b3-42a5-88c2-9b18a9e5f1ee","{""num_scrambled_semantic"":""8"",""num_scrambled_causal"":""4"",""num_scrambled_schematic"":""4"",""participantId"":""4DD24DDF64DB4E9FB276B8D9F50480E9"",""assignmentId"":""571e6ef4-3023-4421-a528-76e29ef3229c"",""projectId"":""03d12dc6-79b3-42a5-88c2-9b18a9e5f1ee""}","https://test12345.live/?num_scrambled_semantic=8&num_scrambled_causal=4&num_scrambled_schematic=4&participantId=4DD24DDF64DB4E9FB276B8D9F50480E9&assignmentId=571e6ef4-3023-4421-a528-76e29ef3229c&projectId=03d12dc6-79b3-42a5-88c2-9b18a9e5f1ee","4DD24DDF64DB4E9FB276B8D9F50480E9-2025-05-15-15-35-29","","19139","","[""<span style=\""color: red; font-size: 24px\""> NOW RECORDING</span><p>Please say out loud all the images you saw, as many as you can remember. The images can be said in any order.</p>""]","","3",""
"","","","","","instructions","23","130519","0.0-9.0","4DD24DDF64DB4E9FB276B8D9F50480E9","4DD24DDF64DB4E9FB276B8D9F50480E9","571e6ef4-3023-4421-a528-76e29ef3229c","03d12dc6-79b3-42a5-88c2-9b18a9e5f1ee","{""num_scrambled_semantic"":""8"",""num_scrambled_causal"":""4"",""num_scrambled_schematic"":""4"",""participantId"":""4DD24DDF64DB4E9FB276B8D9F50480E9"",""assignmentId"":""571e6ef4-3023-4421-a528-76e29ef3229c"",""projectId"":""03d12dc6-79b3-42a5-88c2-9b18a9e5f1ee""}","https://test12345.live/?num_scrambled_semantic=8&num_scrambled_causal=4&num_scrambled_schematic=4&participantId=4DD24DDF64DB4E9FB276B8D9F50480E9&assignmentId=571e6ef4-3023-4421-a528-76e29ef3229c&projectId=03d12dc6-79b3-42a5-88c2-9b18a9e5f1ee","4DD24DDF64DB4E9FB276B8D9F50480E9-2025-05-15-15-35-29","[{""page_index"":0,""viewing_time"":992}]","992","","","","",""
"","","","","","image-button-response","24","136851","0.0-10.0-0.0","4DD24DDF64DB4E9FB276B8D9F50480E9","4DD24DDF64DB4E9FB276B8D9F50480E9","571e6ef4-3023-4421-a528-76e29ef3229c","03d12dc6-79b3-42a5-88c2-9b18a9e5f1ee","{""num_scrambled_semantic"":""8"",""num_scrambled_causal"":""4"",""num_scrambled_schematic"":""4"",""participantId"":""4DD24DDF64DB4E9FB276B8D9F50480E9"",""assignmentId"":""571e6ef4-3023-4421-a528-76e29ef3229c"",""projectId"":""03d12dc6-79b3-42a5-88c2-9b18a9e5f1ee""}","https://test12345.live/?num_scrambled_semantic=8&num_scrambled_causal=4&num_scrambled_schematic=4&participantId=4DD24DDF64DB4E9FB276B8D9F50480E9&assignmentId=571e6ef4-3023-4421-a528-76e29ef3229c&projectId=03d12dc6-79b3-42a5-88c2-9b18a9e5f1ee","4DD24DDF64DB4E9FB276B8D9F50480E9-2025-05-15-15-35-29","","null","","images/causal_sequence/the_performance_causal/the_performance_causal_0.png","null","",""
"","","","","","image-button-response","25","141387","0.0-10.0-1.0-0.0","4DD24DDF64DB4E9FB276B8D9F50480E9","4DD24DDF64DB4E9FB276B8D9F50480E9","571e6ef4-3023-4421-a528-76e29ef3229c","03d12dc6-79b3-42a5-88c2-9b18a9e5f1ee","{""num_scrambled_semantic"":""8"",""num_scrambled_causal"":""4"",""num_scrambled_schematic"":""4"",""participantId"":""4DD24DDF64DB4E9FB276B8D9F50480E9"",""assignmentId"":""571e6ef4-3023-4421-a528-76e29ef3229c"",""projectId"":""03d12dc6-79b3-42a5-88c2-9b18a9e5f1ee""}","https://test12345.live/?num_scrambled_semantic=8&num_scrambled_causal=4&num_scrambled_schematic=4&participantId=4DD24DDF64DB4E9FB276B8D9F50480E9&assignmentId=571e6ef4-3023-4421-a528-76e29ef3229c&projectId=03d12dc6-79b3-42a5-88c2-9b18a9e5f1ee","4DD24DDF64DB4E9FB276B8D9F50480E9-2025-05-15-15-35-29","","null","","images/causal_sequence/the_performance_causal/the_performance_causal_6.png","null","",""
"","","","","","image-button-response","26","143006","0.0-10.0-1.0-1.0","4DD24DDF64DB4E9FB276B8D9F50480E9","4DD24DDF64DB4E9FB276B8D9F50480E9","571e6ef4-3023-4421-a528-76e29ef3229c","03d12dc6-79b3-42a5-88c2-9b18a9e5f1ee","{""num_scrambled_semantic"":""8"",""num_scrambled_causal"":""4"",""num_scrambled_schematic"":""4"",""participantId"":""4DD24DDF64DB4E9FB276B8D9F50480E9"",""assignmentId"":""571e6ef4-3023-4421-a528-76e29ef3229c"",""projectId"":""03d12dc6-79b3-42a5-88c2-9b18a9e5f1ee""}","https://test12345.live/?num_scrambled_semantic=8&num_scrambled_causal=4&num_scrambled_schematic=4&participantId=4DD24DDF64DB4E9FB276B8D9F50480E9&assignmentId=571e6ef4-3023-4421-a528-76e29ef3229c&projectId=03d12dc6-79b3-42a5-88c2-9b18a9e5f1ee","4DD24DDF64DB4E9FB276B8D9F50480E9-2025-05-15-15-35-29","","1615","","images/causal_sequence/the_performance_causal/the_performance_causal_6.png","0","",""
"","","","","","image-button-response","27","145021","0.0-10.0-1.0-2.0","4DD24DDF64DB4E9FB276B8D9F50480E9","4DD24DDF64DB4E9FB276B8D9F50480E9","571e6ef4-3023-4421-a528-76e29ef3229c","03d12dc6-79b3-42a5-88c2-9b18a9e5f1ee","{""num_scrambled_semantic"":""8"",""num_scrambled_causal"":""4"",""num_scrambled_schematic"":""4"",""participantId"":""4DD24DDF64DB4E9FB276B8D9F50480E9"",""assignmentId"":""571e6ef4-3023-4421-a528-76e29ef3229c"",""projectId"":""03d12dc6-79b3-42a5-88c2-9b18a9e5f1ee""}","https://test12345.live/?num_scrambled_semantic=8&num_scrambled_causal=4&num_scrambled_schematic=4&participantId=4DD24DDF64DB4E9FB276B8D9F50480E9&assignmentId=571e6ef4-3023-4421-a528-76e29ef3229c&projectId=03d12dc6-79b3-42a5-88c2-9b18a9e5f1ee","4DD24DDF64DB4E9FB276B8D9F50480E9-2025-05-15-15-35-29","","null","","[]","null","",""
"","","","","","image-button-response","28","149777","0.0-10.0-1.0-0.1","4DD24DDF64DB4E9FB276B8D9F50480E9","4DD24DDF64DB4E9FB276B8D9F50480E9","571e6ef4-3023-4421-a528-76e29ef3229c","03d12dc6-79b3-42a5-88c2-9b18a9e5f1ee","{""num_scrambled_semantic"":""8"",""num_scrambled_causal"":""4"",""num_scrambled_schematic"":""4"",""participantId"":""4DD24DDF64DB4E9FB276B8D9F50480E9"",""assignmentId"":""571e6ef4-3023-4421-a528-76e29ef3229c"",""projectId"":""03d12dc6-79b3-42a5-88c2-9b18a9e5f1ee""}","https://test12345.live/?num_scrambled_semantic=8&num_scrambled_causal=4&num_scrambled_schematic=4&participantId=4DD24DDF64DB4E9FB276B8D9F50480E9&assignmentId=571e6ef4-3023-4421-a528-76e29ef3229c&projectId=03d12dc6-79b3-42a5-88c2-9b18a9e5f1ee","4DD24DDF64DB4E9FB276B8D9F50480E9-2025-05-15-15-35-29","","null","","images/causal_sequence/the_performance_causal/the_performance_causal_4.png","null","",""
"","","","","","image-button-response","29","152137","0.0-10.0-1.0-1.1","4DD24DDF64DB4E9FB276B8D9F50480E9","4DD24DDF64DB4E9FB276B8D9F50480E9","571e6ef4-3023-4421-a528-76e29ef3229c","03d12dc6-79b3-42a5-88c2-9b18a9e5f1ee","{""num_scrambled_semantic"":""8"",""num_scrambled_causal"":""4"",""num_scrambled_schematic"":""4"",""participantId"":""4DD24DDF64DB4E9FB276B8D9F50480E9"",""assignmentId"":""571e6ef4-3023-4421-a528-76e29ef3229c"",""projectId"":""03d12dc6-79b3-42a5-88c2-9b18a9e5f1ee""}","https://test12345.live/?num_scrambled_semantic=8&num_scrambled_causal=4&num_scrambled_schematic=4&participantId=4DD24DDF64DB4E9FB276B8D9F50480E9&assignmentId=571e6ef4-3023-4421-a528-76e29ef3229c&projectId=03d12dc6-79b3-42a5-88c2-9b18a9e5f1ee","4DD24DDF64DB4E9FB276B8D9F50480E9-2025-05-15-15-35-29","","2356","","images/causal_sequence/the_performance_causal/the_performance_causal_4.png","0","",""
"","","","","","image-button-response","30","153945","0.0-10.0-1.0-2.1","4DD24DDF64DB4E9FB276B8D9F50480E9","4DD24DDF64DB4E9FB276B8D9F50480E9","571e6ef4-3023-4421-a528-76e29ef3229c","03d12dc6-79b3-42a5-88c2-9b18a9e5f1ee","{""num_scrambled_semantic"":""8"",""num_scrambled_causal"":""4"",""num_scrambled_schematic"":""4"",""participantId"":""4DD24DDF64DB4E9FB276B8D9F50480E9"",""assignmentId"":""571e6ef4-3023-4421-a528-76e29ef3229c"",""projectId"":""03d12dc6-79b3-42a5-88c2-9b18a9e5f1ee""}","https://test12345.live/?num_scrambled_semantic=8&num_scrambled_causal=4&num_scrambled_schematic=4&participantId=4DD24DDF64DB4E9FB276B8D9F50480E9&assignmentId=571e6ef4-3023-4421-a528-76e29ef3229c&projectId=03d12dc6-79b3-42a5-88c2-9b18a9e5f1ee","4DD24DDF64DB4E9FB276B8D9F50480E9-2025-05-15-15-35-29","","null","","[]","null","",""
"","","","","","image-button-response","31","158482","0.0-10.0-1.0-0.2","4DD24DDF64DB4E9FB276B8D9F50480E9","4DD24DDF64DB4E9FB276B8D9F50480E9","571e6ef4-3023-4421-a528-76e29ef3229c","03d12dc6-79b3-42a5-88c2-9b18a9e5f1ee","{""num_scrambled_semantic"":""8"",""num_scrambled_causal"":""4"",""num_scrambled_schematic"":""4"",""participantId"":""4DD24DDF64DB4E9FB276B8D9F50480E9"",""assignmentId"":""571e6ef4-3023-4421-a528-76e29ef3229c"",""projectId"":""03d12dc6-79b3-42a5-88c2-9b18a9e5f1ee""}","https://test12345.live/?num_scrambled_semantic=8&num_scrambled_causal=4&num_scrambled_schematic=4&participantId=4DD24DDF64DB4E9FB276B8D9F50480E9&assignmentId=571e6ef4-3023-4421-a528-76e29ef3229c&projectId=03d12dc6-79b3-42a5-88c2-9b18a9e5f1ee","4DD24DDF64DB4E9FB276B8D9F50480E9-2025-05-15-15-35-29","","null","","images/causal_sequence/the_performance_causal/the_performance_causal_7.png","null","",""
"","","","","","image-button-response","32","160236","0.0-10.0-1.0-1.2","4DD24DDF64DB4E9FB276B8D9F50480E9","4DD24DDF64DB4E9FB276B8D9F50480E9","571e6ef4-3023-4421-a528-76e29ef3229c","03d12dc6-79b3-42a5-88c2-9b18a9e5f1ee","{""num_scrambled_semantic"":""8"",""num_scrambled_causal"":""4"",""num_scrambled_schematic"":""4"",""participantId"":""4DD24DDF64DB4E9FB276B8D9F50480E9"",""assignmentId"":""571e6ef4-3023-4421-a528-76e29ef3229c"",""projectId"":""03d12dc6-79b3-42a5-88c2-9b18a9e5f1ee""}","https://test12345.live/?num_scrambled_semantic=8&num_scrambled_causal=4&num_scrambled_schematic=4&participantId=4DD24DDF64DB4E9FB276B8D9F50480E9&assignmentId=571e6ef4-3023-4421-a528-76e29ef3229c&projectId=03d12dc6-79b3-42a5-88c2-9b18a9e5f1ee","4DD24DDF64DB4E9FB276B8D9F50480E9-2025-05-15-15-35-29","","1752","","images/causal_sequence/the_performance_causal/the_performance_causal_7.png","0","",""
"","","","","","image-button-response","33","162257","0.0-10.0-1.0-2.2","4DD24DDF64DB4E9FB276B8D9F50480E9","4DD24DDF64DB4E9FB276B8D9F50480E9","571e6ef4-3023-4421-a528-76e29ef3229c","03d12dc6-79b3-42a5-88c2-9b18a9e5f1ee","{""num_scrambled_semantic"":""8"",""num_scrambled_causal"":""4"",""num_scrambled_schematic"":""4"",""participantId"":""4DD24DDF64DB4E9FB276B8D9F50480E9"",""assignmentId"":""571e6ef4-3023-4421-a528-76e29ef3229c"",""projectId"":""03d12dc6-79b3-42a5-88c2-9b18a9e5f1ee""}","https://test12345.live/?num_scrambled_semantic=8&num_scrambled_causal=4&num_scrambled_schematic=4&participantId=4DD24DDF64DB4E9FB276B8D9F50480E9&assignmentId=571e6ef4-3023-4421-a528-76e29ef3229c&projectId=03d12dc6-79b3-42a5-88c2-9b18a9e5f1ee","4DD24DDF64DB4E9FB276B8D9F50480E9-2025-05-15-15-35-29","","null","","[]","null","",""
"","","","","","image-button-response","34","166805","0.0-10.0-1.0-0.3","4DD24DDF64DB4E9FB276B8D9F50480E9","4DD24DDF64DB4E9FB276B8D9F50480E9","571e6ef4-3023-4421-a528-76e29ef3229c","03d12dc6-79b3-42a5-88c2-9b18a9e5f1ee","{""num_scrambled_semantic"":""8"",""num_scrambled_causal"":""4"",""num_scrambled_schematic"":""4"",""participantId"":""4DD24DDF64DB4E9FB276B8D9F50480E9"",""assignmentId"":""571e6ef4-3023-4421-a528-76e29ef3229c"",""projectId"":""03d12dc6-79b3-42a5-88c2-9b18a9e5f1ee""}","https://test12345.live/?num_scrambled_semantic=8&num_scrambled_causal=4&num_scrambled_schematic=4&participantId=4DD24DDF64DB4E9FB276B8D9F50480E9&assignmentId=571e6ef4-3023-4421-a528-76e29ef3229c&projectId=03d12dc6-79b3-42a5-88c2-9b18a9e5f1ee","4DD24DDF64DB4E9FB276B8D9F50480E9-2025-05-15-15-35-29","","null","","images/causal_sequence/the_performance_causal/the_performance_causal_9.png","null","",""
"","","","","","image-button-response","35","168256","0.0-10.0-1.0-1.3","4DD24DDF64DB4E9FB276B8D9F50480E9","4DD24DDF64DB4E9FB276B8D9F50480E9","571e6ef4-3023-4421-a528-76e29ef3229c","03d12dc6-79b3-42a5-88c2-9b18a9e5f1ee","{""num_scrambled_semantic"":""8"",""num_scrambled_causal"":""4"",""num_scrambled_schematic"":""4"",""participantId"":""4DD24DDF64DB4E9FB276B8D9F50480E9"",""assignmentId"":""571e6ef4-3023-4421-a528-76e29ef3229c"",""projectId"":""03d12dc6-79b3-42a5-88c2-9b18a9e5f1ee""}","https://test12345.live/?num_scrambled_semantic=8&num_scrambled_causal=4&num_scrambled_schematic=4&participantId=4DD24DDF64DB4E9FB276B8D9F50480E9&assignmentId=571e6ef4-3023-4421-a528-76e29ef3229c&projectId=03d12dc6-79b3-42a5-88c2-9b18a9e5f1ee","4DD24DDF64DB4E9FB276B8D9F50480E9-2025-05-15-15-35-29","","1449","","images/causal_sequence/the_performance_causal/the_performance_causal_9.png","0","",""
"","","","","","image-button-response","36","170254","0.0-10.0-1.0-2.3","4DD24DDF64DB4E9FB276B8D9F50480E9","4DD24DDF64DB4E9FB276B8D9F50480E9","571e6ef4-3023-4421-a528-76e29ef3229c","03d12dc6-79b3-42a5-88c2-9b18a9e5f1ee","{""num_scrambled_semantic"":""8"",""num_scrambled_causal"":""4"",""num_scrambled_schematic"":""4"",""participantId"":""4DD24DDF64DB4E9FB276B8D9F50480E9"",""assignmentId"":""571e6ef4-3023-4421-a528-76e29ef3229c"",""projectId"":""03d12dc6-79b3-42a5-88c2-9b18a9e5f1ee""}","https://test12345.live/?num_scrambled_semantic=8&num_scrambled_causal=4&num_scrambled_schematic=4&participantId=4DD24DDF64DB4E9FB276B8D9F50480E9&assignmentId=571e6ef4-3023-4421-a528-76e29ef3229c&projectId=03d12dc6-79b3-42a5-88c2-9b18a9e5f1ee","4DD24DDF64DB4E9FB276B8D9F50480E9-2025-05-15-15-35-29","","null","","[]","null","",""
"","","","","","image-button-response","37","174795","0.0-10.0-1.0-0.4","4DD24DDF64DB4E9FB276B8D9F50480E9","4DD24DDF64DB4E9FB276B8D9F50480E9","571e6ef4-3023-4421-a528-76e29ef3229c","03d12dc6-79b3-42a5-88c2-9b18a9e5f1ee","{""num_scrambled_semantic"":""8"",""num_scrambled_causal"":""4"",""num_scrambled_schematic"":""4"",""participantId"":""4DD24DDF64DB4E9FB276B8D9F50480E9"",""assignmentId"":""571e6ef4-3023-4421-a528-76e29ef3229c"",""projectId"":""03d12dc6-79b3-42a5-88c2-9b18a9e5f1ee""}","https://test12345.live/?num_scrambled_semantic=8&num_scrambled_causal=4&num_scrambled_schematic=4&participantId=4DD24DDF64DB4E9FB276B8D9F50480E9&assignmentId=571e6ef4-3023-4421-a528-76e29ef3229c&projectId=03d12dc6-79b3-42a5-88c2-9b18a9e5f1ee","4DD24DDF64DB4E9FB276B8D9F50480E9-2025-05-15-15-35-29","","null","","images/causal_sequence/the_performance_causal/the_performance_causal_3.png","null","",""
"","","","","","image-button-response","38","177217","0.0-10.0-1.0-1.4","4DD24DDF64DB4E9FB276B8D9F50480E9","4DD24DDF64DB4E9FB276B8D9F50480E9","571e6ef4-3023-4421-a528-76e29ef3229c","03d12dc6-79b3-42a5-88c2-9b18a9e5f1ee","{""num_scrambled_semantic"":""8"",""num_scrambled_causal"":""4"",""num_scrambled_schematic"":""4"",""participantId"":""4DD24DDF64DB4E9FB276B8D9F50480E9"",""assignmentId"":""571e6ef4-3023-4421-a528-76e29ef3229c"",""projectId"":""03d12dc6-79b3-42a5-88c2-9b18a9e5f1ee""}","https://test12345.live/?num_scrambled_semantic=8&num_scrambled_causal=4&num_scrambled_schematic=4&participantId=4DD24DDF64DB4E9FB276B8D9F50480E9&assignmentId=571e6ef4-3023-4421-a528-76e29ef3229c&projectId=03d12dc6-79b3-42a5-88c2-9b18a9e5f1ee","4DD24DDF64DB4E9FB276B8D9F50480E9-2025-05-15-15-35-29","","2417","","images/causal_sequence/the_performance_causal/the_performance_causal_3.png","0","",""
"","","","","","image-button-response","39","179025","0.0-10.0-1.0-2.4","4DD24DDF64DB4E9FB276B8D9F50480E9","4DD24DDF64DB4E9FB276B8D9F50480E9","571e6ef4-3023-4421-a528-76e29ef3229c","03d12dc6-79b3-42a5-88c2-9b18a9e5f1ee","{""num_scrambled_semantic"":""8"",""num_scrambled_causal"":""4"",""num_scrambled_schematic"":""4"",""participantId"":""4DD24DDF64DB4E9FB276B8D9F50480E9"",""assignmentId"":""571e6ef4-3023-4421-a528-76e29ef3229c"",""projectId"":""03d12dc6-79b3-42a5-88c2-9b18a9e5f1ee""}","https://test12345.live/?num_scrambled_semantic=8&num_scrambled_causal=4&num_scrambled_schematic=4&participantId=4DD24DDF64DB4E9FB276B8D9F50480E9&assignmentId=571e6ef4-3023-4421-a528-76e29ef3229c&projectId=03d12dc6-79b3-42a5-88c2-9b18a9e5f1ee","4DD24DDF64DB4E9FB276B8D9F50480E9-2025-05-15-15-35-29","","null","","[]","null","",""
"","","","","","image-button-response","40","183567","0.0-10.0-1.0-0.5","4DD24DDF64DB4E9FB276B8D9F50480E9","4DD24DDF64DB4E9FB276B8D9F50480E9","571e6ef4-3023-4421-a528-76e29ef3229c","03d12dc6-79b3-42a5-88c2-9b18a9e5f1ee","{""num_scrambled_semantic"":""8"",""num_scrambled_causal"":""4"",""num_scrambled_schematic"":""4"",""participantId"":""4DD24DDF64DB4E9FB276B8D9F50480E9"",""assignmentId"":""571e6ef4-3023-4421-a528-76e29ef3229c"",""projectId"":""03d12dc6-79b3-42a5-88c2-9b18a9e5f1ee""}","https://test12345.live/?num_scrambled_semantic=8&num_scrambled_causal=4&num_scrambled_schematic=4&participantId=4DD24DDF64DB4E9FB276B8D9F50480E9&assignmentId=571e6ef4-3023-4421-a528-76e29ef3229c&projectId=03d12dc6-79b3-42a5-88c2-9b18a9e5f1ee","4DD24DDF64DB4E9FB276B8D9F50480E9-2025-05-15-15-35-29","","null","","images/causal_sequence/the_performance_causal/the_performance_causal_2.png","null","",""
"","","","","","image-button-response","41","184369","0.0-10.0-1.0-1.5","4DD24DDF64DB4E9FB276B8D9F50480E9","4DD24DDF64DB4E9FB276B8D9F50480E9","571e6ef4-3023-4421-a528-76e29ef3229c","03d12dc6-79b3-42a5-88c2-9b18a9e5f1ee","{""num_scrambled_semantic"":""8"",""num_scrambled_causal"":""4"",""num_scrambled_schematic"":""4"",""participantId"":""4DD24DDF64DB4E9FB276B8D9F50480E9"",""assignmentId"":""571e6ef4-3023-4421-a528-76e29ef3229c"",""projectId"":""03d12dc6-79b3-42a5-88c2-9b18a9e5f1ee""}","https://test12345.live/?num_scrambled_semantic=8&num_scrambled_causal=4&num_scrambled_schematic=4&participantId=4DD24DDF64DB4E9FB276B8D9F50480E9&assignmentId=571e6ef4-3023-4421-a528-76e29ef3229c&projectId=03d12dc6-79b3-42a5-88c2-9b18a9e5f1ee","4DD24DDF64DB4E9FB276B8D9F50480E9-2025-05-15-15-35-29","","800","","images/causal_sequence/the_performance_causal/the_performance_causal_2.png","0","",""
"","","","","","image-button-response","42","186383","0.0-10.0-1.0-2.5","4DD24DDF64DB4E9FB276B8D9F50480E9","4DD24DDF64DB4E9FB276B8D9F50480E9","571e6ef4-3023-4421-a528-76e29ef3229c","03d12dc6-79b3-42a5-88c2-9b18a9e5f1ee","{""num_scrambled_semantic"":""8"",""num_scrambled_causal"":""4"",""num_scrambled_schematic"":""4"",""participantId"":""4DD24DDF64DB4E9FB276B8D9F50480E9"",""assignmentId"":""571e6ef4-3023-4421-a528-76e29ef3229c"",""projectId"":""03d12dc6-79b3-42a5-88c2-9b18a9e5f1ee""}","https://test12345.live/?num_scrambled_semantic=8&num_scrambled_causal=4&num_scrambled_schematic=4&participantId=4DD24DDF64DB4E9FB276B8D9F50480E9&assignmentId=571e6ef4-3023-4421-a528-76e29ef3229c&projectId=03d12dc6-79b3-42a5-88c2-9b18a9e5f1ee","4DD24DDF64DB4E9FB276B8D9F50480E9-2025-05-15-15-35-29","","null","","[]","null","",""
"","","","","","image-button-response","43","191424","0.0-10.0-1.0-0.6","4DD24DDF64DB4E9FB276B8D9F50480E9","4DD24DDF64DB4E9FB276B8D9F50480E9","571e6ef4-3023-4421-a528-76e29ef3229c","03d12dc6-79b3-42a5-88c2-9b18a9e5f1ee","{""num_scrambled_semantic"":""8"",""num_scrambled_causal"":""4"",""num_scrambled_schematic"":""4"",""participantId"":""4DD24DDF64DB4E9FB276B8D9F50480E9"",""assignmentId"":""571e6ef4-3023-4421-a528-76e29ef3229c"",""projectId"":""03d12dc6-79b3-42a5-88c2-9b18a9e5f1ee""}","https://test12345.live/?num_scrambled_semantic=8&num_scrambled_causal=4&num_scrambled_schematic=4&participantId=4DD24DDF64DB4E9FB276B8D9F50480E9&assignmentId=571e6ef4-3023-4421-a528-76e29ef3229c&projectId=03d12dc6-79b3-42a5-88c2-9b18a9e5f1ee","4DD24DDF64DB4E9FB276B8D9F50480E9-2025-05-15-15-35-29","","null","","images/causal_sequence/the_performance_causal/the_performance_causal_5.png","null","",""
"","","","","","image-button-response","44","192855","0.0-10.0-1.0-1.6","4DD24DDF64DB4E9FB276B8D9F50480E9","4DD24DDF64DB4E9FB276B8D9F50480E9","571e6ef4-3023-4421-a528-76e29ef3229c","03d12dc6-79b3-42a5-88c2-9b18a9e5f1ee","{""num_scrambled_semantic"":""8"",""num_scrambled_causal"":""4"",""num_scrambled_schematic"":""4"",""participantId"":""4DD24DDF64DB4E9FB276B8D9F50480E9"",""assignmentId"":""571e6ef4-3023-4421-a528-76e29ef3229c"",""projectId"":""03d12dc6-79b3-42a5-88c2-9b18a9e5f1ee""}","https://test12345.live/?num_scrambled_semantic=8&num_scrambled_causal=4&num_scrambled_schematic=4&participantId=4DD24DDF64DB4E9FB276B8D9F50480E9&assignmentId=571e6ef4-3023-4421-a528-76e29ef3229c&projectId=03d12dc6-79b3-42a5-88c2-9b18a9e5f1ee","4DD24DDF64DB4E9FB276B8D9F50480E9-2025-05-15-15-35-29","","1428","","images/causal_sequence/the_performance_causal/the_performance_causal_5.png","0","",""
"","","","","","image-button-response","45","194866","0.0-10.0-1.0-2.6","4DD24DDF64DB4E9FB276B8D9F50480E9","4DD24DDF64DB4E9FB276B8D9F50480E9","571e6ef4-3023-4421-a528-76e29ef3229c","03d12dc6-79b3-42a5-88c2-9b18a9e5f1ee","{""num_scrambled_semantic"":""8"",""num_scrambled_causal"":""4"",""num_scrambled_schematic"":""4"",""participantId"":""4DD24DDF64DB4E9FB276B8D9F50480E9"",""assignmentId"":""571e6ef4-3023-4421-a528-76e29ef3229c"",""projectId"":""03d12dc6-79b3-42a5-88c2-9b18a9e5f1ee""}","https://test12345.live/?num_scrambled_semantic=8&num_scrambled_causal=4&num_scrambled_schematic=4&participantId=4DD24DDF64DB4E9FB276B8D9F50480E9&assignmentId=571e6ef4-3023-4421-a528-76e29ef3229c&projectId=03d12dc6-79b3-42a5-88c2-9b18a9e5f1ee","4DD24DDF64DB4E9FB276B8D9F50480E9-2025-05-15-15-35-29","","null","","[]","null","",""
"","","","","","image-button-response","46","199608","0.0-10.0-1.0-0.7","4DD24DDF64DB4E9FB276B8D9F50480E9","4DD24DDF64DB4E9FB276B8D9F50480E9","571e6ef4-3023-4421-a528-76e29ef3229c","03d12dc6-79b3-42a5-88c2-9b18a9e5f1ee","{""num_scrambled_semantic"":""8"",""num_scrambled_causal"":""4"",""num_scrambled_schematic"":""4"",""participantId"":""4DD24DDF64DB4E9FB276B8D9F50480E9"",""assignmentId"":""571e6ef4-3023-4421-a528-76e29ef3229c"",""projectId"":""03d12dc6-79b3-42a5-88c2-9b18a9e5f1ee""}","https://test12345.live/?num_scrambled_semantic=8&num_scrambled_causal=4&num_scrambled_schematic=4&participantId=4DD24DDF64DB4E9FB276B8D9F50480E9&assignmentId=571e6ef4-3023-4421-a528-76e29ef3229c&projectId=03d12dc6-79b3-42a5-88c2-9b18a9e5f1ee","4DD24DDF64DB4E9FB276B8D9F50480E9-2025-05-15-15-35-29","","null","","images/causal_sequence/the_performance_causal/the_performance_causal_1.png","null","",""
"","","","","","image-button-response","47","200681","0.0-10.0-1.0-1.7","4DD24DDF64DB4E9FB276B8D9F50480E9","4DD24DDF64DB4E9FB276B8D9F50480E9","571e6ef4-3023-4421-a528-76e29ef3229c","03d12dc6-79b3-42a5-88c2-9b18a9e5f1ee","{""num_scrambled_semantic"":""8"",""num_scrambled_causal"":""4"",""num_scrambled_schematic"":""4"",""participantId"":""4DD24DDF64DB4E9FB276B8D9F50480E9"",""assignmentId"":""571e6ef4-3023-4421-a528-76e29ef3229c"",""projectId"":""03d12dc6-79b3-42a5-88c2-9b18a9e5f1ee""}","https://test12345.live/?num_scrambled_semantic=8&num_scrambled_causal=4&num_scrambled_schematic=4&participantId=4DD24DDF64DB4E9FB276B8D9F50480E9&assignmentId=571e6ef4-3023-4421-a528-76e29ef3229c&projectId=03d12dc6-79b3-42a5-88c2-9b18a9e5f1ee","4DD24DDF64DB4E9FB276B8D9F50480E9-2025-05-15-15-35-29","","1068","","images/causal_sequence/the_performance_causal/the_performance_causal_1.png","0","",""
"","","","","","image-button-response","48","202696","0.0-10.0-1.0-2.7","4DD24DDF64DB4E9FB276B8D9F50480E9","4DD24DDF64DB4E9FB276B8D9F50480E9","571e6ef4-3023-4421-a528-76e29ef3229c","03d12dc6-79b3-42a5-88c2-9b18a9e5f1ee","{""num_scrambled_semantic"":""8"",""num_scrambled_causal"":""4"",""num_scrambled_schematic"":""4"",""participantId"":""4DD24DDF64DB4E9FB276B8D9F50480E9"",""assignmentId"":""571e6ef4-3023-4421-a528-76e29ef3229c"",""projectId"":""03d12dc6-79b3-42a5-88c2-9b18a9e5f1ee""}","https://test12345.live/?num_scrambled_semantic=8&num_scrambled_causal=4&num_scrambled_schematic=4&participantId=4DD24DDF64DB4E9FB276B8D9F50480E9&assignmentId=571e6ef4-3023-4421-a528-76e29ef3229c&projectId=03d12dc6-79b3-42a5-88c2-9b18a9e5f1ee","4DD24DDF64DB4E9FB276B8D9F50480E9-2025-05-15-15-35-29","","null","","[]","null","",""
"","","","","","image-button-response","49","207794","0.0-10.0-1.0-0.8","4DD24DDF64DB4E9FB276B8D9F50480E9","4DD24DDF64DB4E9FB276B8D9F50480E9","571e6ef4-3023-4421-a528-76e29ef3229c","03d12dc6-79b3-42a5-88c2-9b18a9e5f1ee","{""num_scrambled_semantic"":""8"",""num_scrambled_causal"":""4"",""num_scrambled_schematic"":""4"",""participantId"":""4DD24DDF64DB4E9FB276B8D9F50480E9"",""assignmentId"":""571e6ef4-3023-4421-a528-76e29ef3229c"",""projectId"":""03d12dc6-79b3-42a5-88c2-9b18a9e5f1ee""}","https://test12345.live/?num_scrambled_semantic=8&num_scrambled_causal=4&num_scrambled_schematic=4&participantId=4DD24DDF64DB4E9FB276B8D9F50480E9&assignmentId=571e6ef4-3023-4421-a528-76e29ef3229c&projectId=03d12dc6-79b3-42a5-88c2-9b18a9e5f1ee","4DD24DDF64DB4E9FB276B8D9F50480E9-2025-05-15-15-35-29","","null","","images/causal_sequence/the_performance_causal/the_performance_causal_ten.png","null","",""
"","","","","","image-button-response","50","209301","0.0-10.0-1.0-1.8","4DD24DDF64DB4E9FB276B8D9F50480E9","4DD24DDF64DB4E9FB276B8D9F50480E9","571e6ef4-3023-4421-a528-76e29ef3229c","03d12dc6-79b3-42a5-88c2-9b18a9e5f1ee","{""num_scrambled_semantic"":""8"",""num_scrambled_causal"":""4"",""num_scrambled_schematic"":""4"",""participantId"":""4DD24DDF64DB4E9FB276B8D9F50480E9"",""assignmentId"":""571e6ef4-3023-4421-a528-76e29ef3229c"",""projectId"":""03d12dc6-79b3-42a5-88c2-9b18a9e5f1ee""}","https://test12345.live/?num_scrambled_semantic=8&num_scrambled_causal=4&num_scrambled_schematic=4&participantId=4DD24DDF64DB4E9FB276B8D9F50480E9&assignmentId=571e6ef4-3023-4421-a528-76e29ef3229c&projectId=03d12dc6-79b3-42a5-88c2-9b18a9e5f1ee","4DD24DDF64DB4E9FB276B8D9F50480E9-2025-05-15-15-35-29","","1503","","images/causal_sequence/the_performance_causal/the_performance_causal_ten.png","0","",""
"","","","","","image-button-response","51","211319","0.0-10.0-1.0-2.8","4DD24DDF64DB4E9FB276B8D9F50480E9","4DD24DDF64DB4E9FB276B8D9F50480E9","571e6ef4-3023-4421-a528-76e29ef3229c","03d12dc6-79b3-42a5-88c2-9b18a9e5f1ee","{""num_scrambled_semantic"":""8"",""num_scrambled_causal"":""4"",""num_scrambled_schematic"":""4"",""participantId"":""4DD24DDF64DB4E9FB276B8D9F50480E9"",""assignmentId"":""571e6ef4-3023-4421-a528-76e29ef3229c"",""projectId"":""03d12dc6-79b3-42a5-88c2-9b18a9e5f1ee""}","https://test12345.live/?num_scrambled_semantic=8&num_scrambled_causal=4&num_scrambled_schematic=4&participantId=4DD24DDF64DB4E9FB276B8D9F50480E9&assignmentId=571e6ef4-3023-4421-a528-76e29ef3229c&projectId=03d12dc6-79b3-42a5-88c2-9b18a9e5f1ee","4DD24DDF64DB4E9FB276B8D9F50480E9-2025-05-15-15-35-29","","null","","[]","null","",""
"","","","","","image-button-response","52","215856","0.0-10.0-1.0-0.9","4DD24DDF64DB4E9FB276B8D9F50480E9","4DD24DDF64DB4E9FB276B8D9F50480E9","571e6ef4-3023-4421-a528-76e29ef3229c","03d12dc6-79b3-42a5-88c2-9b18a9e5f1ee","{""num_scrambled_semantic"":""8"",""num_scrambled_causal"":""4"",""num_scrambled_schematic"":""4"",""participantId"":""4DD24DDF64DB4E9FB276B8D9F50480E9"",""assignmentId"":""571e6ef4-3023-4421-a528-76e29ef3229c"",""projectId"":""03d12dc6-79b3-42a5-88c2-9b18a9e5f1ee""}","https://test12345.live/?num_scrambled_semantic=8&num_scrambled_causal=4&num_scrambled_schematic=4&participantId=4DD24DDF64DB4E9FB276B8D9F50480E9&assignmentId=571e6ef4-3023-4421-a528-76e29ef3229c&projectId=03d12dc6-79b3-42a5-88c2-9b18a9e5f1ee","4DD24DDF64DB4E9FB276B8D9F50480E9-2025-05-15-15-35-29","","null","","images/causal_sequence/the_performance_causal/the_performance_causal_8.png","null","",""
"","","","","","image-button-response","53","217014","0.0-10.0-1.0-1.9","4DD24DDF64DB4E9FB276B8D9F50480E9","4DD24DDF64DB4E9FB276B8D9F50480E9","571e6ef4-3023-4421-a528-76e29ef3229c","03d12dc6-79b3-42a5-88c2-9b18a9e5f1ee","{""num_scrambled_semantic"":""8"",""num_scrambled_causal"":""4"",""num_scrambled_schematic"":""4"",""participantId"":""4DD24DDF64DB4E9FB276B8D9F50480E9"",""assignmentId"":""571e6ef4-3023-4421-a528-76e29ef3229c"",""projectId"":""03d12dc6-79b3-42a5-88c2-9b18a9e5f1ee""}","https://test12345.live/?num_scrambled_semantic=8&num_scrambled_causal=4&num_scrambled_schematic=4&participantId=4DD24DDF64DB4E9FB276B8D9F50480E9&assignmentId=571e6ef4-3023-4421-a528-76e29ef3229c&projectId=03d12dc6-79b3-42a5-88c2-9b18a9e5f1ee","4DD24DDF64DB4E9FB276B8D9F50480E9-2025-05-15-15-35-29","","1154","","images/causal_sequence/the_performance_causal/the_performance_causal_8.png","0","",""
"","","","","","image-button-response","54","218893","0.0-10.0-1.0-2.9","4DD24DDF64DB4E9FB276B8D9F50480E9","4DD24DDF64DB4E9FB276B8D9F50480E9","571e6ef4-3023-4421-a528-76e29ef3229c","03d12dc6-79b3-42a5-88c2-9b18a9e5f1ee","{""num_scrambled_semantic"":""8"",""num_scrambled_causal"":""4"",""num_scrambled_schematic"":""4"",""participantId"":""4DD24DDF64DB4E9FB276B8D9F50480E9"",""assignmentId"":""571e6ef4-3023-4421-a528-76e29ef3229c"",""projectId"":""03d12dc6-79b3-42a5-88c2-9b18a9e5f1ee""}","https://test12345.live/?num_scrambled_semantic=8&num_scrambled_causal=4&num_scrambled_schematic=4&participantId=4DD24DDF64DB4E9FB276B8D9F50480E9&assignmentId=571e6ef4-3023-4421-a528-76e29ef3229c&projectId=03d12dc6-79b3-42a5-88c2-9b18a9e5f1ee","4DD24DDF64DB4E9FB276B8D9F50480E9-2025-05-15-15-35-29","","null","","[]","null","",""
"","","","","","html-audio-response","55","265593","0.0-11.0","4DD24DDF64DB4E9FB276B8D9F50480E9","4DD24DDF64DB4E9FB276B8D9F50480E9","571e6ef4-3023-4421-a528-76e29ef3229c","03d12dc6-79b3-42a5-88c2-9b18a9e5f1ee","{""num_scrambled_semantic"":""8"",""num_scrambled_causal"":""4"",""num_scrambled_schematic"":""4"",""participantId"":""4DD24DDF64DB4E9FB276B8D9F50480E9"",""assignmentId"":""571e6ef4-3023-4421-a528-76e29ef3229c"",""projectId"":""03d12dc6-79b3-42a5-88c2-9b18a9e5f1ee""}","https://test12345.live/?num_scrambled_semantic=8&num_scrambled_causal=4&num_scrambled_schematic=4&participantId=4DD24DDF64DB4E9FB276B8D9F50480E9&assignmentId=571e6ef4-3023-4421-a528-76e29ef3229c&projectId=03d12dc6-79b3-42a5-88c2-9b18a9e5f1ee","4DD24DDF64DB4E9FB276B8D9F50480E9-2025-05-15-15-35-29","","44769","","[""<span style=\""color: red; font-size: 24px\""> NOW RECORDING</span><p>Please say out loud all the images you saw, as many as you can remember. The images can be said in any order.</p>""]","","1","the_performance_causal"
"","","","","","image-button-response","56","272039","0.0-12.0-0.0","4DD24DDF64DB4E9FB276B8D9F50480E9","4DD24DDF64DB4E9FB276B8D9F50480E9","571e6ef4-3023-4421-a528-76e29ef3229c","03d12dc6-79b3-42a5-88c2-9b18a9e5f1ee","{""num_scrambled_semantic"":""8"",""num_scrambled_causal"":""4"",""num_scrambled_schematic"":""4"",""participantId"":""4DD24DDF64DB4E9FB276B8D9F50480E9"",""assignmentId"":""571e6ef4-3023-4421-a528-76e29ef3229c"",""projectId"":""03d12dc6-79b3-42a5-88c2-9b18a9e5f1ee""}","https://test12345.live/?num_scrambled_semantic=8&num_scrambled_causal=4&num_scrambled_schematic=4&participantId=4DD24DDF64DB4E9FB276B8D9F50480E9&assignmentId=571e6ef4-3023-4421-a528-76e29ef3229c&projectId=03d12dc6-79b3-42a5-88c2-9b18a9e5f1ee","4DD24DDF64DB4E9FB276B8D9F50480E9-2025-05-15-15-35-29","","null","","images/schematic_sequence/restaurant_scheme/restaurant_scheme_0.png","null","",""
"","","","","","image-button-response","57","276579","0.0-12.0-1.0-0.0","4DD24DDF64DB4E9FB276B8D9F50480E9","4DD24DDF64DB4E9FB276B8D9F50480E9","571e6ef4-3023-4421-a528-76e29ef3229c","03d12dc6-79b3-42a5-88c2-9b18a9e5f1ee","{""num_scrambled_semantic"":""8"",""num_scrambled_causal"":""4"",""num_scrambled_schematic"":""4"",""participantId"":""4DD24DDF64DB4E9FB276B8D9F50480E9"",""assignmentId"":""571e6ef4-3023-4421-a528-76e29ef3229c"",""projectId"":""03d12dc6-79b3-42a5-88c2-9b18a9e5f1ee""}","https://test12345.live/?num_scrambled_semantic=8&num_scrambled_causal=4&num_scrambled_schematic=4&participantId=4DD24DDF64DB4E9FB276B8D9F50480E9&assignmentId=571e6ef4-3023-4421-a528-76e29ef3229c&projectId=03d12dc6-79b3-42a5-88c2-9b18a9e5f1ee","4DD24DDF64DB4E9FB276B8D9F50480E9-2025-05-15-15-35-29","","null","","images/schematic_sequence/restaurant_scheme/restaurant_scheme_5.png","null","",""
"","","","","","image-button-response","58","278223","0.0-12.0-1.0-1.0","4DD24DDF64DB4E9FB276B8D9F50480E9","4DD24DDF64DB4E9FB276B8D9F50480E9","571e6ef4-3023-4421-a528-76e29ef3229c","03d12dc6-79b3-42a5-88c2-9b18a9e5f1ee","{""num_scrambled_semantic"":""8"",""num_scrambled_causal"":""4"",""num_scrambled_schematic"":""4"",""participantId"":""4DD24DDF64DB4E9FB276B8D9F50480E9"",""assignmentId"":""571e6ef4-3023-4421-a528-76e29ef3229c"",""projectId"":""03d12dc6-79b3-42a5-88c2-9b18a9e5f1ee""}","https://test12345.live/?num_scrambled_semantic=8&num_scrambled_causal=4&num_scrambled_schematic=4&participantId=4DD24DDF64DB4E9FB276B8D9F50480E9&assignmentId=571e6ef4-3023-4421-a528-76e29ef3229c&projectId=03d12dc6-79b3-42a5-88c2-9b18a9e5f1ee","4DD24DDF64DB4E9FB276B8D9F50480E9-2025-05-15-15-35-29","","1642","","images/schematic_sequence/restaurant_scheme/restaurant_scheme_5.png","0","",""
"","","","","","image-button-response","59","280239","0.0-12.0-1.0-2.0","4DD24DDF64DB4E9FB276B8D9F50480E9","4DD24DDF64DB4E9FB276B8D9F50480E9","571e6ef4-3023-4421-a528-76e29ef3229c","03d12dc6-79b3-42a5-88c2-9b18a9e5f1ee","{""num_scrambled_semantic"":""8"",""num_scrambled_causal"":""4"",""num_scrambled_schematic"":""4"",""participantId"":""4DD24DDF64DB4E9FB276B8D9F50480E9"",""assignmentId"":""571e6ef4-3023-4421-a528-76e29ef3229c"",""projectId"":""03d12dc6-79b3-42a5-88c2-9b18a9e5f1ee""}","https://test12345.live/?num_scrambled_semantic=8&num_scrambled_causal=4&num_scrambled_schematic=4&participantId=4DD24DDF64DB4E9FB276B8D9F50480E9&assignmentId=571e6ef4-3023-4421-a528-76e29ef3229c&projectId=03d12dc6-79b3-42a5-88c2-9b18a9e5f1ee","4DD24DDF64DB4E9FB276B8D9F50480E9-2025-05-15-15-35-29","","null","","[]","null","",""
"","","","","","image-button-response","60","285330","0.0-12.0-1.0-0.1","4DD24DDF64DB4E9FB276B8D9F50480E9","4DD24DDF64DB4E9FB276B8D9F50480E9","571e6ef4-3023-4421-a528-76e29ef3229c","03d12dc6-79b3-42a5-88c2-9b18a9e5f1ee","{""num_scrambled_semantic"":""8"",""num_scrambled_causal"":""4"",""num_scrambled_schematic"":""4"",""participantId"":""4DD24DDF64DB4E9FB276B8D9F50480E9"",""assignmentId"":""571e6ef4-3023-4421-a528-76e29ef3229c"",""projectId"":""03d12dc6-79b3-42a5-88c2-9b18a9e5f1ee""}","https://test12345.live/?num_scrambled_semantic=8&num_scrambled_causal=4&num_scrambled_schematic=4&participantId=4DD24DDF64DB4E9FB276B8D9F50480E9&assignmentId=571e6ef4-3023-4421-a528-76e29ef3229c&projectId=03d12dc6-79b3-42a5-88c2-9b18a9e5f1ee","4DD24DDF64DB4E9FB276B8D9F50480E9-2025-05-15-15-35-29","","null","","images/schematic_sequence/restaurant_scheme/restaurant_scheme_1.png","null","",""
"","","","","","image-button-response","61","287041","0.0-12.0-1.0-1.1","4DD24DDF64DB4E9FB276B8D9F50480E9","4DD24DDF64DB4E9FB276B8D9F50480E9","571e6ef4-3023-4421-a528-76e29ef3229c","03d12dc6-79b3-42a5-88c2-9b18a9e5f1ee","{""num_scrambled_semantic"":""8"",""num_scrambled_causal"":""4"",""num_scrambled_schematic"":""4"",""participantId"":""4DD24DDF64DB4E9FB276B8D9F50480E9"",""assignmentId"":""571e6ef4-3023-4421-a528-76e29ef3229c"",""projectId"":""03d12dc6-79b3-42a5-88c2-9b18a9e5f1ee""}","https://test12345.live/?num_scrambled_semantic=8&num_scrambled_causal=4&num_scrambled_schematic=4&participantId=4DD24DDF64DB4E9FB276B8D9F50480E9&assignmentId=571e6ef4-3023-4421-a528-76e29ef3229c&projectId=03d12dc6-79b3-42a5-88c2-9b18a9e5f1ee","4DD24DDF64DB4E9FB276B8D9F50480E9-2025-05-15-15-35-29","","1709","","images/schematic_sequence/restaurant_scheme/restaurant_scheme_1.png","0","",""
"","","","","","image-button-response","62","289051","0.0-12.0-1.0-2.1","4DD24DDF64DB4E9FB276B8D9F50480E9","4DD24DDF64DB4E9FB276B8D9F50480E9","571e6ef4-3023-4421-a528-76e29ef3229c","03d12dc6-79b3-42a5-88c2-9b18a9e5f1ee","{""num_scrambled_semantic"":""8"",""num_scrambled_causal"":""4"",""num_scrambled_schematic"":""4"",""participantId"":""4DD24DDF64DB4E9FB276B8D9F50480E9"",""assignmentId"":""571e6ef4-3023-4421-a528-76e29ef3229c"",""projectId"":""03d12dc6-79b3-42a5-88c2-9b18a9e5f1ee""}","https://test12345.live/?num_scrambled_semantic=8&num_scrambled_causal=4&num_scrambled_schematic=4&participantId=4DD24DDF64DB4E9FB276B8D9F50480E9&assignmentId=571e6ef4-3023-4421-a528-76e29ef3229c&projectId=03d12dc6-79b3-42a5-88c2-9b18a9e5f1ee","4DD24DDF64DB4E9FB276B8D9F50480E9-2025-05-15-15-35-29","","null","","[]","null","",""
"","","","","","image-button-response","63","293648","0.0-12.0-1.0-0.2","4DD24DDF64DB4E9FB276B8D9F50480E9","4DD24DDF64DB4E9FB276B8D9F50480E9","571e6ef4-3023-4421-a528-76e29ef3229c","03d12dc6-79b3-42a5-88c2-9b18a9e5f1ee","{""num_scrambled_semantic"":""8"",""num_scrambled_causal"":""4"",""num_scrambled_schematic"":""4"",""participantId"":""4DD24DDF64DB4E9FB276B8D9F50480E9"",""assignmentId"":""571e6ef4-3023-4421-a528-76e29ef3229c"",""projectId"":""03d12dc6-79b3-42a5-88c2-9b18a9e5f1ee""}","https://test12345.live/?num_scrambled_semantic=8&num_scrambled_causal=4&num_scrambled_schematic=4&participantId=4DD24DDF64DB4E9FB276B8D9F50480E9&assignmentId=571e6ef4-3023-4421-a528-76e29ef3229c&projectId=03d12dc6-79b3-42a5-88c2-9b18a9e5f1ee","4DD24DDF64DB4E9FB276B8D9F50480E9-2025-05-15-15-35-29","","null","","images/schematic_sequence/restaurant_scheme/restaurant_scheme_3.png","null","",""
"","","","","","image-button-response","64","295626","0.0-12.0-1.0-1.2","4DD24DDF64DB4E9FB276B8D9F50480E9","4DD24DDF64DB4E9FB276B8D9F50480E9","571e6ef4-3023-4421-a528-76e29ef3229c","03d12dc6-79b3-42a5-88c2-9b18a9e5f1ee","{""num_scrambled_semantic"":""8"",""num_scrambled_causal"":""4"",""num_scrambled_schematic"":""4"",""participantId"":""4DD24DDF64DB4E9FB276B8D9F50480E9"",""assignmentId"":""571e6ef4-3023-4421-a528-76e29ef3229c"",""projectId"":""03d12dc6-79b3-42a5-88c2-9b18a9e5f1ee""}","https://test12345.live/?num_scrambled_semantic=8&num_scrambled_causal=4&num_scrambled_schematic=4&participantId=4DD24DDF64DB4E9FB276B8D9F50480E9&assignmentId=571e6ef4-3023-4421-a528-76e29ef3229c&projectId=03d12dc6-79b3-42a5-88c2-9b18a9e5f1ee","4DD24DDF64DB4E9FB276B8D9F50480E9-2025-05-15-15-35-29","","1974","","images/schematic_sequence/restaurant_scheme/restaurant_scheme_3.png","1","",""
"","","","","","image-button-response","65","297440","0.0-12.0-1.0-2.2","4DD24DDF64DB4E9FB276B8D9F50480E9","4DD24DDF64DB4E9FB276B8D9F50480E9","571e6ef4-3023-4421-a528-76e29ef3229c","03d12dc6-79b3-42a5-88c2-9b18a9e5f1ee","{""num_scrambled_semantic"":""8"",""num_scrambled_causal"":""4"",""num_scrambled_schematic"":""4"",""participantId"":""4DD24DDF64DB4E9FB276B8D9F50480E9"",""assignmentId"":""571e6ef4-3023-4421-a528-76e29ef3229c"",""projectId"":""03d12dc6-79b3-42a5-88c2-9b18a9e5f1ee""}","https://test12345.live/?num_scrambled_semantic=8&num_scrambled_causal=4&num_scrambled_schematic=4&participantId=4DD24DDF64DB4E9FB276B8D9F50480E9&assignmentId=571e6ef4-3023-4421-a528-76e29ef3229c&projectId=03d12dc6-79b3-42a5-88c2-9b18a9e5f1ee","4DD24DDF64DB4E9FB276B8D9F50480E9-2025-05-15-15-35-29","","null","","[]","null","",""
"","","","","","image-button-response","66","301983","0.0-12.0-1.0-0.3","4DD24DDF64DB4E9FB276B8D9F50480E9","4DD24DDF64DB4E9FB276B8D9F50480E9","571e6ef4-3023-4421-a528-76e29ef3229c","03d12dc6-79b3-42a5-88c2-9b18a9e5f1ee","{""num_scrambled_semantic"":""8"",""num_scrambled_causal"":""4"",""num_scrambled_schematic"":""4"",""participantId"":""4DD24DDF64DB4E9FB276B8D9F50480E9"",""assignmentId"":""571e6ef4-3023-4421-a528-76e29ef3229c"",""projectId"":""03d12dc6-79b3-42a5-88c2-9b18a9e5f1ee""}","https://test12345.live/?num_scrambled_semantic=8&num_scrambled_causal=4&num_scrambled_schematic=4&participantId=4DD24DDF64DB4E9FB276B8D9F50480E9&assignmentId=571e6ef4-3023-4421-a528-76e29ef3229c&projectId=03d12dc6-79b3-42a5-88c2-9b18a9e5f1ee","4DD24DDF64DB4E9FB276B8D9F50480E9-2025-05-15-15-35-29","","null","","images/schematic_sequence/restaurant_scheme/restaurant_scheme_8.png","null","",""
"","","","","","image-button-response","67","305033","0.0-12.0-1.0-1.3","4DD24DDF64DB4E9FB276B8D9F50480E9","4DD24DDF64DB4E9FB276B8D9F50480E9","571e6ef4-3023-4421-a528-76e29ef3229c","03d12dc6-79b3-42a5-88c2-9b18a9e5f1ee","{""num_scrambled_semantic"":""8"",""num_scrambled_causal"":""4"",""num_scrambled_schematic"":""4"",""participantId"":""4DD24DDF64DB4E9FB276B8D9F50480E9"",""assignmentId"":""571e6ef4-3023-4421-a528-76e29ef3229c"",""projectId"":""03d12dc6-79b3-42a5-88c2-9b18a9e5f1ee""}","https://test12345.live/?num_scrambled_semantic=8&num_scrambled_causal=4&num_scrambled_schematic=4&participantId=4DD24DDF64DB4E9FB276B8D9F50480E9&assignmentId=571e6ef4-3023-4421-a528-76e29ef3229c&projectId=03d12dc6-79b3-42a5-88c2-9b18a9e5f1ee","4DD24DDF64DB4E9FB276B8D9F50480E9-2025-05-15-15-35-29","","3050","","images/schematic_sequence/restaurant_scheme/restaurant_scheme_8.png","0","",""
"","","","","","image-button-response","68","307040","0.0-12.0-1.0-2.3","4DD24DDF64DB4E9FB276B8D9F50480E9","4DD24DDF64DB4E9FB276B8D9F50480E9","571e6ef4-3023-4421-a528-76e29ef3229c","03d12dc6-79b3-42a5-88c2-9b18a9e5f1ee","{""num_scrambled_semantic"":""8"",""num_scrambled_causal"":""4"",""num_scrambled_schematic"":""4"",""participantId"":""4DD24DDF64DB4E9FB276B8D9F50480E9"",""assignmentId"":""571e6ef4-3023-4421-a528-76e29ef3229c"",""projectId"":""03d12dc6-79b3-42a5-88c2-9b18a9e5f1ee""}","https://test12345.live/?num_scrambled_semantic=8&num_scrambled_causal=4&num_scrambled_schematic=4&participantId=4DD24DDF64DB4E9FB276B8D9F50480E9&assignmentId=571e6ef4-3023-4421-a528-76e29ef3229c&projectId=03d12dc6-79b3-42a5-88c2-9b18a9e5f1ee","4DD24DDF64DB4E9FB276B8D9F50480E9-2025-05-15-15-35-29","","null","","[]","null","",""
"","","","","","image-button-response","69","311574","0.0-12.0-1.0-0.4","4DD24DDF64DB4E9FB276B8D9F50480E9","4DD24DDF64DB4E9FB276B8D9F50480E9","571e6ef4-3023-4421-a528-76e29ef3229c","03d12dc6-79b3-42a5-88c2-9b18a9e5f1ee","{""num_scrambled_semantic"":""8"",""num_scrambled_causal"":""4"",""num_scrambled_schematic"":""4"",""participantId"":""4DD24DDF64DB4E9FB276B8D9F50480E9"",""assignmentId"":""571e6ef4-3023-4421-a528-76e29ef3229c"",""projectId"":""03d12dc6-79b3-42a5-88c2-9b18a9e5f1ee""}","https://test12345.live/?num_scrambled_semantic=8&num_scrambled_causal=4&num_scrambled_schematic=4&participantId=4DD24DDF64DB4E9FB276B8D9F50480E9&assignmentId=571e6ef4-3023-4421-a528-76e29ef3229c&projectId=03d12dc6-79b3-42a5-88c2-9b18a9e5f1ee","4DD24DDF64DB4E9FB276B8D9F50480E9-2025-05-15-15-35-29","","null","","images/schematic_sequence/restaurant_scheme/restaurant_scheme_9.png","null","",""
"","","","","","image-button-response","70","312397","0.0-12.0-1.0-1.4","4DD24DDF64DB4E9FB276B8D9F50480E9","4DD24DDF64DB4E9FB276B8D9F50480E9","571e6ef4-3023-4421-a528-76e29ef3229c","03d12dc6-79b3-42a5-88c2-9b18a9e5f1ee","{""num_scrambled_semantic"":""8"",""num_scrambled_causal"":""4"",""num_scrambled_schematic"":""4"",""participantId"":""4DD24DDF64DB4E9FB276B8D9F50480E9"",""assignmentId"":""571e6ef4-3023-4421-a528-76e29ef3229c"",""projectId"":""03d12dc6-79b3-42a5-88c2-9b18a9e5f1ee""}","https://test12345.live/?num_scrambled_semantic=8&num_scrambled_causal=4&num_scrambled_schematic=4&participantId=4DD24DDF64DB4E9FB276B8D9F50480E9&assignmentId=571e6ef4-3023-4421-a528-76e29ef3229c&projectId=03d12dc6-79b3-42a5-88c2-9b18a9e5f1ee","4DD24DDF64DB4E9FB276B8D9F50480E9-2025-05-15-15-35-29","","820","","images/schematic_sequence/restaurant_scheme/restaurant_scheme_9.png","0","",""
"","","","","","image-button-response","71","314202","0.0-12.0-1.0-2.4","4DD24DDF64DB4E9FB276B8D9F50480E9","4DD24DDF64DB4E9FB276B8D9F50480E9","571e6ef4-3023-4421-a528-76e29ef3229c","03d12dc6-79b3-42a5-88c2-9b18a9e5f1ee","{""num_scrambled_semantic"":""8"",""num_scrambled_causal"":""4"",""num_scrambled_schematic"":""4"",""participantId"":""4DD24DDF64DB4E9FB276B8D9F50480E9"",""assignmentId"":""571e6ef4-3023-4421-a528-76e29ef3229c"",""projectId"":""03d12dc6-79b3-42a5-88c2-9b18a9e5f1ee""}","https://test12345.live/?num_scrambled_semantic=8&num_scrambled_causal=4&num_scrambled_schematic=4&participantId=4DD24DDF64DB4E9FB276B8D9F50480E9&assignmentId=571e6ef4-3023-4421-a528-76e29ef3229c&projectId=03d12dc6-79b3-42a5-88c2-9b18a9e5f1ee","4DD24DDF64DB4E9FB276B8D9F50480E9-2025-05-15-15-35-29","","null","","[]","null","",""
"","","","","","image-button-response","72","318729","0.0-12.0-1.0-0.5","4DD24DDF64DB4E9FB276B8D9F50480E9","4DD24DDF64DB4E9FB276B8D9F50480E9","571e6ef4-3023-4421-a528-76e29ef3229c","03d12dc6-79b3-42a5-88c2-9b18a9e5f1ee","{""num_scrambled_semantic"":""8"",""num_scrambled_causal"":""4"",""num_scrambled_schematic"":""4"",""participantId"":""4DD24DDF64DB4E9FB276B8D9F50480E9"",""assignmentId"":""571e6ef4-3023-4421-a528-76e29ef3229c"",""projectId"":""03d12dc6-79b3-42a5-88c2-9b18a9e5f1ee""}","https://test12345.live/?num_scrambled_semantic=8&num_scrambled_causal=4&num_scrambled_schematic=4&participantId=4DD24DDF64DB4E9FB276B8D9F50480E9&assignmentId=571e6ef4-3023-4421-a528-76e29ef3229c&projectId=03d12dc6-79b3-42a5-88c2-9b18a9e5f1ee","4DD24DDF64DB4E9FB276B8D9F50480E9-2025-05-15-15-35-29","","null","","images/schematic_sequence/restaurant_scheme/restaurant_scheme_ten.png","null","",""
"","","","","","image-button-response","73","320068","0.0-12.0-1.0-1.5","4DD24DDF64DB4E9FB276B8D9F50480E9","4DD24DDF64DB4E9FB276B8D9F50480E9","571e6ef4-3023-4421-a528-76e29ef3229c","03d12dc6-79b3-42a5-88c2-9b18a9e5f1ee","{""num_scrambled_semantic"":""8"",""num_scrambled_causal"":""4"",""num_scrambled_schematic"":""4"",""participantId"":""4DD24DDF64DB4E9FB276B8D9F50480E9"",""assignmentId"":""571e6ef4-3023-4421-a528-76e29ef3229c"",""projectId"":""03d12dc6-79b3-42a5-88c2-9b18a9e5f1ee""}","https://test12345.live/?num_scrambled_semantic=8&num_scrambled_causal=4&num_scrambled_schematic=4&participantId=4DD24DDF64DB4E9FB276B8D9F50480E9&assignmentId=571e6ef4-3023-4421-a528-76e29ef3229c&projectId=03d12dc6-79b3-42a5-88c2-9b18a9e5f1ee","4DD24DDF64DB4E9FB276B8D9F50480E9-2025-05-15-15-35-29","","1338","","images/schematic_sequence/restaurant_scheme/restaurant_scheme_ten.png","0","",""
"","","","","","image-button-response","74","322103","0.0-12.0-1.0-2.5","4DD24DDF64DB4E9FB276B8D9F50480E9","4DD24DDF64DB4E9FB276B8D9F50480E9","571e6ef4-3023-4421-a528-76e29ef3229c","03d12dc6-79b3-42a5-88c2-9b18a9e5f1ee","{""num_scrambled_semantic"":""8"",""num_scrambled_causal"":""4"",""num_scrambled_schematic"":""4"",""participantId"":""4DD24DDF64DB4E9FB276B8D9F50480E9"",""assignmentId"":""571e6ef4-3023-4421-a528-76e29ef3229c"",""projectId"":""03d12dc6-79b3-42a5-88c2-9b18a9e5f1ee""}","https://test12345.live/?num_scrambled_semantic=8&num_scrambled_causal=4&num_scrambled_schematic=4&participantId=4DD24DDF64DB4E9FB276B8D9F50480E9&assignmentId=571e6ef4-3023-4421-a528-76e29ef3229c&projectId=03d12dc6-79b3-42a5-88c2-9b18a9e5f1ee","4DD24DDF64DB4E9FB276B8D9F50480E9-2025-05-15-15-35-29","","null","","[]","null","",""
"","","","","","image-button-response","75","326773","0.0-12.0-1.0-0.6","4DD24DDF64DB4E9FB276B8D9F50480E9","4DD24DDF64DB4E9FB276B8D9F50480E9","571e6ef4-3023-4421-a528-76e29ef3229c","03d12dc6-79b3-42a5-88c2-9b18a9e5f1ee","{""num_scrambled_semantic"":""8"",""num_scrambled_causal"":""4"",""num_scrambled_schematic"":""4"",""participantId"":""4DD24DDF64DB4E9FB276B8D9F50480E9"",""assignmentId"":""571e6ef4-3023-4421-a528-76e29ef3229c"",""projectId"":""03d12dc6-79b3-42a5-88c2-9b18a9e5f1ee""}","https://test12345.live/?num_scrambled_semantic=8&num_scrambled_causal=4&num_scrambled_schematic=4&participantId=4DD24DDF64DB4E9FB276B8D9F50480E9&assignmentId=571e6ef4-3023-4421-a528-76e29ef3229c&projectId=03d12dc6-79b3-42a5-88c2-9b18a9e5f1ee","4DD24DDF64DB4E9FB276B8D9F50480E9-2025-05-15-15-35-29","","null","","images/schematic_sequence/restaurant_scheme/restaurant_scheme_2.png","null","",""
"","","","","","image-button-response","76","328633","0.0-12.0-1.0-1.6","4DD24DDF64DB4E9FB276B8D9F50480E9","4DD24DDF64DB4E9FB276B8D9F50480E9","571e6ef4-3023-4421-a528-76e29ef3229c","03d12dc6-79b3-42a5-88c2-9b18a9e5f1ee","{""num_scrambled_semantic"":""8"",""num_scrambled_causal"":""4"",""num_scrambled_schematic"":""4"",""participantId"":""4DD24DDF64DB4E9FB276B8D9F50480E9"",""assignmentId"":""571e6ef4-3023-4421-a528-76e29ef3229c"",""projectId"":""03d12dc6-79b3-42a5-88c2-9b18a9e5f1ee""}","https://test12345.live/?num_scrambled_semantic=8&num_scrambled_causal=4&num_scrambled_schematic=4&participantId=4DD24DDF64DB4E9FB276B8D9F50480E9&assignmentId=571e6ef4-3023-4421-a528-76e29ef3229c&projectId=03d12dc6-79b3-42a5-88c2-9b18a9e5f1ee","4DD24DDF64DB4E9FB276B8D9F50480E9-2025-05-15-15-35-29","","1858","","images/schematic_sequence/restaurant_scheme/restaurant_scheme_2.png","1","",""
"","","","","","image-button-response","77","330658","0.0-12.0-1.0-2.6","4DD24DDF64DB4E9FB276B8D9F50480E9","4DD24DDF64DB4E9FB276B8D9F50480E9","571e6ef4-3023-4421-a528-76e29ef3229c","03d12dc6-79b3-42a5-88c2-9b18a9e5f1ee","{""num_scrambled_semantic"":""8"",""num_scrambled_causal"":""4"",""num_scrambled_schematic"":""4"",""participantId"":""4DD24DDF64DB4E9FB276B8D9F50480E9"",""assignmentId"":""571e6ef4-3023-4421-a528-76e29ef3229c"",""projectId"":""03d12dc6-79b3-42a5-88c2-9b18a9e5f1ee""}","https://test12345.live/?num_scrambled_semantic=8&num_scrambled_causal=4&num_scrambled_schematic=4&participantId=4DD24DDF64DB4E9FB276B8D9F50480E9&assignmentId=571e6ef4-3023-4421-a528-76e29ef3229c&projectId=03d12dc6-79b3-42a5-88c2-9b18a9e5f1ee","4DD24DDF64DB4E9FB276B8D9F50480E9-2025-05-15-15-35-29","","null","","[]","null","",""
"","","","","","image-button-response","78","335742","0.0-12.0-1.0-0.7","4DD24DDF64DB4E9FB276B8D9F50480E9","4DD24DDF64DB4E9FB276B8D9F50480E9","571e6ef4-3023-4421-a528-76e29ef3229c","03d12dc6-79b3-42a5-88c2-9b18a9e5f1ee","{""num_scrambled_semantic"":""8"",""num_scrambled_causal"":""4"",""num_scrambled_schematic"":""4"",""participantId"":""4DD24DDF64DB4E9FB276B8D9F50480E9"",""assignmentId"":""571e6ef4-3023-4421-a528-76e29ef3229c"",""projectId"":""03d12dc6-79b3-42a5-88c2-9b18a9e5f1ee""}","https://test12345.live/?num_scrambled_semantic=8&num_scrambled_causal=4&num_scrambled_schematic=4&participantId=4DD24DDF64DB4E9FB276B8D9F50480E9&assignmentId=571e6ef4-3023-4421-a528-76e29ef3229c&projectId=03d12dc6-79b3-42a5-88c2-9b18a9e5f1ee","4DD24DDF64DB4E9FB276B8D9F50480E9-2025-05-15-15-35-29","","null","","images/schematic_sequence/restaurant_scheme/restaurant_scheme_7.png","null","",""
"","","","","","image-button-response","79","337095","0.0-12.0-1.0-1.7","4DD24DDF64DB4E9FB276B8D9F50480E9","4DD24DDF64DB4E9FB276B8D9F50480E9","571e6ef4-3023-4421-a528-76e29ef3229c","03d12dc6-79b3-42a5-88c2-9b18a9e5f1ee","{""num_scrambled_semantic"":""8"",""num_scrambled_causal"":""4"",""num_scrambled_schematic"":""4"",""participantId"":""4DD24DDF64DB4E9FB276B8D9F50480E9"",""assignmentId"":""571e6ef4-3023-4421-a528-76e29ef3229c"",""projectId"":""03d12dc6-79b3-42a5-88c2-9b18a9e5f1ee""}","https://test12345.live/?num_scrambled_semantic=8&num_scrambled_causal=4&num_scrambled_schematic=4&participantId=4DD24DDF64DB4E9FB276B8D9F50480E9&assignmentId=571e6ef4-3023-4421-a528-76e29ef3229c&projectId=03d12dc6-79b3-42a5-88c2-9b18a9e5f1ee","4DD24DDF64DB4E9FB276B8D9F50480E9-2025-05-15-15-35-29","","1352","","images/schematic_sequence/restaurant_scheme/restaurant_scheme_7.png","1","",""
"","","","","","image-button-response","80","338912","0.0-12.0-1.0-2.7","4DD24DDF64DB4E9FB276B8D9F50480E9","4DD24DDF64DB4E9FB276B8D9F50480E9","571e6ef4-3023-4421-a528-76e29ef3229c","03d12dc6-79b3-42a5-88c2-9b18a9e5f1ee","{""num_scrambled_semantic"":""8"",""num_scrambled_causal"":""4"",""num_scrambled_schematic"":""4"",""participantId"":""4DD24DDF64DB4E9FB276B8D9F50480E9"",""assignmentId"":""571e6ef4-3023-4421-a528-76e29ef3229c"",""projectId"":""03d12dc6-79b3-42a5-88c2-9b18a9e5f1ee""}","https://test12345.live/?num_scrambled_semantic=8&num_scrambled_causal=4&num_scrambled_schematic=4&participantId=4DD24DDF64DB4E9FB276B8D9F50480E9&assignmentId=571e6ef4-3023-4421-a528-76e29ef3229c&projectId=03d12dc6-79b3-42a5-88c2-9b18a9e5f1ee","4DD24DDF64DB4E9FB276B8D9F50480E9-2025-05-15-15-35-29","","null","","[]","null","",""
"","","","","","image-button-response","81","343819","0.0-12.0-1.0-0.8","4DD24DDF64DB4E9FB276B8D9F50480E9","4DD24DDF64DB4E9FB276B8D9F50480E9","571e6ef4-3023-4421-a528-76e29ef3229c","03d12dc6-79b3-42a5-88c2-9b18a9e5f1ee","{""num_scrambled_semantic"":""8"",""num_scrambled_causal"":""4"",""num_scrambled_schematic"":""4"",""participantId"":""4DD24DDF64DB4E9FB276B8D9F50480E9"",""assignmentId"":""571e6ef4-3023-4421-a528-76e29ef3229c"",""projectId"":""03d12dc6-79b3-42a5-88c2-9b18a9e5f1ee""}","https://test12345.live/?num_scrambled_semantic=8&num_scrambled_causal=4&num_scrambled_schematic=4&participantId=4DD24DDF64DB4E9FB276B8D9F50480E9&assignmentId=571e6ef4-3023-4421-a528-76e29ef3229c&projectId=03d12dc6-79b3-42a5-88c2-9b18a9e5f1ee","4DD24DDF64DB4E9FB276B8D9F50480E9-2025-05-15-15-35-29","","null","","images/schematic_sequence/restaurant_scheme/restaurant_scheme_4.png","null","",""
"","","","","","image-button-response","82","346345","0.0-12.0-1.0-1.8","4DD24DDF64DB4E9FB276B8D9F50480E9","4DD24DDF64DB4E9FB276B8D9F50480E9","571e6ef4-3023-4421-a528-76e29ef3229c","03d12dc6-79b3-42a5-88c2-9b18a9e5f1ee","{""num_scrambled_semantic"":""8"",""num_scrambled_causal"":""4"",""num_scrambled_schematic"":""4"",""participantId"":""4DD24DDF64DB4E9FB276B8D9F50480E9"",""assignmentId"":""571e6ef4-3023-4421-a528-76e29ef3229c"",""projectId"":""03d12dc6-79b3-42a5-88c2-9b18a9e5f1ee""}","https://test12345.live/?num_scrambled_semantic=8&num_scrambled_causal=4&num_scrambled_schematic=4&participantId=4DD24DDF64DB4E9FB276B8D9F50480E9&assignmentId=571e6ef4-3023-4421-a528-76e29ef3229c&projectId=03d12dc6-79b3-42a5-88c2-9b18a9e5f1ee","4DD24DDF64DB4E9FB276B8D9F50480E9-2025-05-15-15-35-29","","2523","","images/schematic_sequence/restaurant_scheme/restaurant_scheme_4.png","0","",""
"","","","","","image-button-response","83","348175","0.0-12.0-1.0-2.8","4DD24DDF64DB4E9FB276B8D9F50480E9","4DD24DDF64DB4E9FB276B8D9F50480E9","571e6ef4-3023-4421-a528-76e29ef3229c","03d12dc6-79b3-42a5-88c2-9b18a9e5f1ee","{""num_scrambled_semantic"":""8"",""num_scrambled_causal"":""4"",""num_scrambled_schematic"":""4"",""participantId"":""4DD24DDF64DB4E9FB276B8D9F50480E9"",""assignmentId"":""571e6ef4-3023-4421-a528-76e29ef3229c"",""projectId"":""03d12dc6-79b3-42a5-88c2-9b18a9e5f1ee""}","https://test12345.live/?num_scrambled_semantic=8&num_scrambled_causal=4&num_scrambled_schematic=4&participantId=4DD24DDF64DB4E9FB276B8D9F50480E9&assignmentId=571e6ef4-3023-4421-a528-76e29ef3229c&projectId=03d12dc6-79b3-42a5-88c2-9b18a9e5f1ee","4DD24DDF64DB4E9FB276B8D9F50480E9-2025-05-15-15-35-29","","null","","[]","null","",""
"","","","","","image-button-response","84","353230","0.0-12.0-1.0-0.9","4DD24DDF64DB4E9FB276B8D9F50480E9","4DD24DDF64DB4E9FB276B8D9F50480E9","571e6ef4-3023-4421-a528-76e29ef3229c","03d12dc6-79b3-42a5-88c2-9b18a9e5f1ee","{""num_scrambled_semantic"":""8"",""num_scrambled_causal"":""4"",""num_scrambled_schematic"":""4"",""participantId"":""4DD24DDF64DB4E9FB276B8D9F50480E9"",""assignmentId"":""571e6ef4-3023-4421-a528-76e29ef3229c"",""projectId"":""03d12dc6-79b3-42a5-88c2-9b18a9e5f1ee""}","https://test12345.live/?num_scrambled_semantic=8&num_scrambled_causal=4&num_scrambled_schematic=4&participantId=4DD24DDF64DB4E9FB276B8D9F50480E9&assignmentId=571e6ef4-3023-4421-a528-76e29ef3229c&projectId=03d12dc6-79b3-42a5-88c2-9b18a9e5f1ee","4DD24DDF64DB4E9FB276B8D9F50480E9-2025-05-15-15-35-29","","null","","images/schematic_sequence/restaurant_scheme/restaurant_scheme_6.png","null","",""
"","","","","","image-button-response","85","355209","0.0-12.0-1.0-1.9","4DD24DDF64DB4E9FB276B8D9F50480E9","4DD24DDF64DB4E9FB276B8D9F50480E9","571e6ef4-3023-4421-a528-76e29ef3229c","03d12dc6-79b3-42a5-88c2-9b18a9e5f1ee","{""num_scrambled_semantic"":""8"",""num_scrambled_causal"":""4"",""num_scrambled_schematic"":""4"",""participantId"":""4DD24DDF64DB4E9FB276B8D9F50480E9"",""assignmentId"":""571e6ef4-3023-4421-a528-76e29ef3229c"",""projectId"":""03d12dc6-79b3-42a5-88c2-9b18a9e5f1ee""}","https://test12345.live/?num_scrambled_semantic=8&num_scrambled_causal=4&num_scrambled_schematic=4&participantId=4DD24DDF64DB4E9FB276B8D9F50480E9&assignmentId=571e6ef4-3023-4421-a528-76e29ef3229c&projectId=03d12dc6-79b3-42a5-88c2-9b18a9e5f1ee","4DD24DDF64DB4E9FB276B8D9F50480E9-2025-05-15-15-35-29","","1978","","images/schematic_sequence/restaurant_scheme/restaurant_scheme_6.png","1","",""
"","","","","","image-button-response","86","357214","0.0-12.0-1.0-2.9","4DD24DDF64DB4E9FB276B8D9F50480E9","4DD24DDF64DB4E9FB276B8D9F50480E9","571e6ef4-3023-4421-a528-76e29ef3229c","03d12dc6-79b3-42a5-88c2-9b18a9e5f1ee","{""num_scrambled_semantic"":""8"",""num_scrambled_causal"":""4"",""num_scrambled_schematic"":""4"",""participantId"":""4DD24DDF64DB4E9FB276B8D9F50480E9"",""assignmentId"":""571e6ef4-3023-4421-a528-76e29ef3229c"",""projectId"":""03d12dc6-79b3-42a5-88c2-9b18a9e5f1ee""}","https://test12345.live/?num_scrambled_semantic=8&num_scrambled_causal=4&num_scrambled_schematic=4&participantId=4DD24DDF64DB4E9FB276B8D9F50480E9&assignmentId=571e6ef4-3023-4421-a528-76e29ef3229c&projectId=03d12dc6-79b3-42a5-88c2-9b18a9e5f1ee","4DD24DDF64DB4E9FB276B8D9F50480E9-2025-05-15-15-35-29","","null","","[]","null","",""
"","","","","","html-audio-response","87","405609","0.0-13.0","4DD24DDF64DB4E9FB276B8D9F50480E9","4DD24DDF64DB4E9FB276B8D9F50480E9","571e6ef4-3023-4421-a528-76e29ef3229c","03d12dc6-79b3-42a5-88c2-9b18a9e5f1ee","{""num_scrambled_semantic"":""8"",""num_scrambled_causal"":""4"",""num_scrambled_schematic"":""4"",""participantId"":""4DD24DDF64DB4E9FB276B8D9F50480E9"",""assignmentId"":""571e6ef4-3023-4421-a528-76e29ef3229c"",""projectId"":""03d12dc6-79b3-42a5-88c2-9b18a9e5f1ee""}","https://test12345.live/?num_scrambled_semantic=8&num_scrambled_causal=4&num_scrambled_schematic=4&participantId=4DD24DDF64DB4E9FB276B8D9F50480E9&assignmentId=571e6ef4-3023-4421-a528-76e29ef3229c&projectId=03d12dc6-79b3-42a5-88c2-9b18a9e5f1ee","4DD24DDF64DB4E9FB276B8D9F50480E9-2025-05-15-15-35-29","","46592","","[""<span style=\""color: red; font-size: 24px\""> NOW RECORDING</span><p>Please say out loud all the images you saw, as many as you can remember. The images can be said in any order.</p>""]","","1","restaurant_scheme"
"","","","","","image-button-response","88","411874","0.0-14.0-0.0","4DD24DDF64DB4E9FB276B8D9F50480E9","4DD24DDF64DB4E9FB276B8D9F50480E9","571e6ef4-3023-4421-a528-76e29ef3229c","03d12dc6-79b3-42a5-88c2-9b18a9e5f1ee","{""num_scrambled_semantic"":""8"",""num_scrambled_causal"":""4"",""num_scrambled_schematic"":""4"",""participantId"":""4DD24DDF64DB4E9FB276B8D9F50480E9"",""assignmentId"":""571e6ef4-3023-4421-a528-76e29ef3229c"",""projectId"":""03d12dc6-79b3-42a5-88c2-9b18a9e5f1ee""}","https://test12345.live/?num_scrambled_semantic=8&num_scrambled_causal=4&num_scrambled_schematic=4&participantId=4DD24DDF64DB4E9FB276B8D9F50480E9&assignmentId=571e6ef4-3023-4421-a528-76e29ef3229c&projectId=03d12dc6-79b3-42a5-88c2-9b18a9e5f1ee","4DD24DDF64DB4E9FB276B8D9F50480E9-2025-05-15-15-35-29","","null","","images/semantic_sequence/creative_activities_semantic/creative_activities_semantic_0.png","null","",""
"","","","","","image-button-response","89","416920","0.0-14.0-1.0-0.0","4DD24DDF64DB4E9FB276B8D9F50480E9","4DD24DDF64DB4E9FB276B8D9F50480E9","571e6ef4-3023-4421-a528-76e29ef3229c","03d12dc6-79b3-42a5-88c2-9b18a9e5f1ee","{""num_scrambled_semantic"":""8"",""num_scrambled_causal"":""4"",""num_scrambled_schematic"":""4"",""participantId"":""4DD24DDF64DB4E9FB276B8D9F50480E9"",""assignmentId"":""571e6ef4-3023-4421-a528-76e29ef3229c"",""projectId"":""03d12dc6-79b3-42a5-88c2-9b18a9e5f1ee""}","https://test12345.live/?num_scrambled_semantic=8&num_scrambled_causal=4&num_scrambled_schematic=4&participantId=4DD24DDF64DB4E9FB276B8D9F50480E9&assignmentId=571e6ef4-3023-4421-a528-76e29ef3229c&projectId=03d12dc6-79b3-42a5-88c2-9b18a9e5f1ee","4DD24DDF64DB4E9FB276B8D9F50480E9-2025-05-15-15-35-29","","null","","images/semantic_sequence/creative_activities_semantic/creative_activities_semantic_6.png","null","",""
"","","","","","image-button-response","90","418549","0.0-14.0-1.0-1.0","4DD24DDF64DB4E9FB276B8D9F50480E9","4DD24DDF64DB4E9FB276B8D9F50480E9","571e6ef4-3023-4421-a528-76e29ef3229c","03d12dc6-79b3-42a5-88c2-9b18a9e5f1ee","{""num_scrambled_semantic"":""8"",""num_scrambled_causal"":""4"",""num_scrambled_schematic"":""4"",""participantId"":""4DD24DDF64DB4E9FB276B8D9F50480E9"",""assignmentId"":""571e6ef4-3023-4421-a528-76e29ef3229c"",""projectId"":""03d12dc6-79b3-42a5-88c2-9b18a9e5f1ee""}","https://test12345.live/?num_scrambled_semantic=8&num_scrambled_causal=4&num_scrambled_schematic=4&participantId=4DD24DDF64DB4E9FB276B8D9F50480E9&assignmentId=571e6ef4-3023-4421-a528-76e29ef3229c&projectId=03d12dc6-79b3-42a5-88c2-9b18a9e5f1ee","4DD24DDF64DB4E9FB276B8D9F50480E9-2025-05-15-15-35-29","","1627","","images/semantic_sequence/creative_activities_semantic/creative_activities_semantic_6.png","0","",""
"","","","","","image-button-response","91","420553","0.0-14.0-1.0-2.0","4DD24DDF64DB4E9FB276B8D9F50480E9","4DD24DDF64DB4E9FB276B8D9F50480E9","571e6ef4-3023-4421-a528-76e29ef3229c","03d12dc6-79b3-42a5-88c2-9b18a9e5f1ee","{""num_scrambled_semantic"":""8"",""num_scrambled_causal"":""4"",""num_scrambled_schematic"":""4"",""participantId"":""4DD24DDF64DB4E9FB276B8D9F50480E9"",""assignmentId"":""571e6ef4-3023-4421-a528-76e29ef3229c"",""projectId"":""03d12dc6-79b3-42a5-88c2-9b18a9e5f1ee""}","https://test12345.live/?num_scrambled_semantic=8&num_scrambled_causal=4&num_scrambled_schematic=4&participantId=4DD24DDF64DB4E9FB276B8D9F50480E9&assignmentId=571e6ef4-3023-4421-a528-76e29ef3229c&projectId=03d12dc6-79b3-42a5-88c2-9b18a9e5f1ee","4DD24DDF64DB4E9FB276B8D9F50480E9-2025-05-15-15-35-29","","null","","[]","null","",""
"","","","","","image-button-response","92","425091","0.0-14.0-1.0-0.1","4DD24DDF64DB4E9FB276B8D9F50480E9","4DD24DDF64DB4E9FB276B8D9F50480E9","571e6ef4-3023-4421-a528-76e29ef3229c","03d12dc6-79b3-42a5-88c2-9b18a9e5f1ee","{""num_scrambled_semantic"":""8"",""num_scrambled_causal"":""4"",""num_scrambled_schematic"":""4"",""participantId"":""4DD24DDF64DB4E9FB276B8D9F50480E9"",""assignmentId"":""571e6ef4-3023-4421-a528-76e29ef3229c"",""projectId"":""03d12dc6-79b3-42a5-88c2-9b18a9e5f1ee""}","https://test12345.live/?num_scrambled_semantic=8&num_scrambled_causal=4&num_scrambled_schematic=4&participantId=4DD24DDF64DB4E9FB276B8D9F50480E9&assignmentId=571e6ef4-3023-4421-a528-76e29ef3229c&projectId=03d12dc6-79b3-42a5-88c2-9b18a9e5f1ee","4DD24DDF64DB4E9FB276B8D9F50480E9-2025-05-15-15-35-29","","null","","images/semantic_sequence/creative_activities_semantic/creative_activities_semantic_3.png","null","",""
"","","","","","image-button-response","93","428092","0.0-14.0-1.0-1.1","4DD24DDF64DB4E9FB276B8D9F50480E9","4DD24DDF64DB4E9FB276B8D9F50480E9","571e6ef4-3023-4421-a528-76e29ef3229c","03d12dc6-79b3-42a5-88c2-9b18a9e5f1ee","{""num_scrambled_semantic"":""8"",""num_scrambled_causal"":""4"",""num_scrambled_schematic"":""4"",""participantId"":""4DD24DDF64DB4E9FB276B8D9F50480E9"",""assignmentId"":""571e6ef4-3023-4421-a528-76e29ef3229c"",""projectId"":""03d12dc6-79b3-42a5-88c2-9b18a9e5f1ee""}","https://test12345.live/?num_scrambled_semantic=8&num_scrambled_causal=4&num_scrambled_schematic=4&participantId=4DD24DDF64DB4E9FB276B8D9F50480E9&assignmentId=571e6ef4-3023-4421-a528-76e29ef3229c&projectId=03d12dc6-79b3-42a5-88c2-9b18a9e5f1ee","4DD24DDF64DB4E9FB276B8D9F50480E9-2025-05-15-15-35-29","","3000","","images/semantic_sequence/creative_activities_semantic/creative_activities_semantic_3.png","0","",""
"","","","","","image-button-response","94","429906","0.0-14.0-1.0-2.1","4DD24DDF64DB4E9FB276B8D9F50480E9","4DD24DDF64DB4E9FB276B8D9F50480E9","571e6ef4-3023-4421-a528-76e29ef3229c","03d12dc6-79b3-42a5-88c2-9b18a9e5f1ee","{""num_scrambled_semantic"":""8"",""num_scrambled_causal"":""4"",""num_scrambled_schematic"":""4"",""participantId"":""4DD24DDF64DB4E9FB276B8D9F50480E9"",""assignmentId"":""571e6ef4-3023-4421-a528-76e29ef3229c"",""projectId"":""03d12dc6-79b3-42a5-88c2-9b18a9e5f1ee""}","https://test12345.live/?num_scrambled_semantic=8&num_scrambled_causal=4&num_scrambled_schematic=4&participantId=4DD24DDF64DB4E9FB276B8D9F50480E9&assignmentId=571e6ef4-3023-4421-a528-76e29ef3229c&projectId=03d12dc6-79b3-42a5-88c2-9b18a9e5f1ee","4DD24DDF64DB4E9FB276B8D9F50480E9-2025-05-15-15-35-29","","null","","[]","null","",""
"","","","","","image-button-response","95","434565","0.0-14.0-1.0-0.2","4DD24DDF64DB4E9FB276B8D9F50480E9","4DD24DDF64DB4E9FB276B8D9F50480E9","571e6ef4-3023-4421-a528-76e29ef3229c","03d12dc6-79b3-42a5-88c2-9b18a9e5f1ee","{""num_scrambled_semantic"":""8"",""num_scrambled_causal"":""4"",""num_scrambled_schematic"":""4"",""participantId"":""4DD24DDF64DB4E9FB276B8D9F50480E9"",""assignmentId"":""571e6ef4-3023-4421-a528-76e29ef3229c"",""projectId"":""03d12dc6-79b3-42a5-88c2-9b18a9e5f1ee""}","https://test12345.live/?num_scrambled_semantic=8&num_scrambled_causal=4&num_scrambled_schematic=4&participantId=4DD24DDF64DB4E9FB276B8D9F50480E9&assignmentId=571e6ef4-3023-4421-a528-76e29ef3229c&projectId=03d12dc6-79b3-42a5-88c2-9b18a9e5f1ee","4DD24DDF64DB4E9FB276B8D9F50480E9-2025-05-15-15-35-29","","null","","images/semantic_sequence/creative_activities_semantic/creative_activities_semantic_8.png","null","",""
"","","","","","image-button-response","96","435764","0.0-14.0-1.0-1.2","4DD24DDF64DB4E9FB276B8D9F50480E9","4DD24DDF64DB4E9FB276B8D9F50480E9","571e6ef4-3023-4421-a528-76e29ef3229c","03d12dc6-79b3-42a5-88c2-9b18a9e5f1ee","{""num_scrambled_semantic"":""8"",""num_scrambled_causal"":""4"",""num_scrambled_schematic"":""4"",""participantId"":""4DD24DDF64DB4E9FB276B8D9F50480E9"",""assignmentId"":""571e6ef4-3023-4421-a528-76e29ef3229c"",""projectId"":""03d12dc6-79b3-42a5-88c2-9b18a9e5f1ee""}","https://test12345.live/?num_scrambled_semantic=8&num_scrambled_causal=4&num_scrambled_schematic=4&participantId=4DD24DDF64DB4E9FB276B8D9F50480E9&assignmentId=571e6ef4-3023-4421-a528-76e29ef3229c&projectId=03d12dc6-79b3-42a5-88c2-9b18a9e5f1ee","4DD24DDF64DB4E9FB276B8D9F50480E9-2025-05-15-15-35-29","","1198","","images/semantic_sequence/creative_activities_semantic/creative_activities_semantic_8.png","0","",""
"","","","","","image-button-response","97","437576","0.0-14.0-1.0-2.2","4DD24DDF64DB4E9FB276B8D9F50480E9","4DD24DDF64DB4E9FB276B8D9F50480E9","571e6ef4-3023-4421-a528-76e29ef3229c","03d12dc6-79b3-42a5-88c2-9b18a9e5f1ee","{""num_scrambled_semantic"":""8"",""num_scrambled_causal"":""4"",""num_scrambled_schematic"":""4"",""participantId"":""4DD24DDF64DB4E9FB276B8D9F50480E9"",""assignmentId"":""571e6ef4-3023-4421-a528-76e29ef3229c"",""projectId"":""03d12dc6-79b3-42a5-88c2-9b18a9e5f1ee""}","https://test12345.live/?num_scrambled_semantic=8&num_scrambled_causal=4&num_scrambled_schematic=4&participantId=4DD24DDF64DB4E9FB276B8D9F50480E9&assignmentId=571e6ef4-3023-4421-a528-76e29ef3229c&projectId=03d12dc6-79b3-42a5-88c2-9b18a9e5f1ee","4DD24DDF64DB4E9FB276B8D9F50480E9-2025-05-15-15-35-29","","null","","[]","null","",""
"","","","","","image-button-response","98","442644","0.0-14.0-1.0-0.3","4DD24DDF64DB4E9FB276B8D9F50480E9","4DD24DDF64DB4E9FB276B8D9F50480E9","571e6ef4-3023-4421-a528-76e29ef3229c","03d12dc6-79b3-42a5-88c2-9b18a9e5f1ee","{""num_scrambled_semantic"":""8"",""num_scrambled_causal"":""4"",""num_scrambled_schematic"":""4"",""participantId"":""4DD24DDF64DB4E9FB276B8D9F50480E9"",""assignmentId"":""571e6ef4-3023-4421-a528-76e29ef3229c"",""projectId"":""03d12dc6-79b3-42a5-88c2-9b18a9e5f1ee""}","https://test12345.live/?num_scrambled_semantic=8&num_scrambled_causal=4&num_scrambled_schematic=4&participantId=4DD24DDF64DB4E9FB276B8D9F50480E9&assignmentId=571e6ef4-3023-4421-a528-76e29ef3229c&projectId=03d12dc6-79b3-42a5-88c2-9b18a9e5f1ee","4DD24DDF64DB4E9FB276B8D9F50480E9-2025-05-15-15-35-29","","null","","images/semantic_sequence/creative_activities_semantic/creative_activities_semantic_9.png","null","",""
"","","","","","image-button-response","99","444237","0.0-14.0-1.0-1.3","4DD24DDF64DB4E9FB276B8D9F50480E9","4DD24DDF64DB4E9FB276B8D9F50480E9","571e6ef4-3023-4421-a528-76e29ef3229c","03d12dc6-79b3-42a5-88c2-9b18a9e5f1ee","{""num_scrambled_semantic"":""8"",""num_scrambled_causal"":""4"",""num_scrambled_schematic"":""4"",""participantId"":""4DD24DDF64DB4E9FB276B8D9F50480E9"",""assignmentId"":""571e6ef4-3023-4421-a528-76e29ef3229c"",""projectId"":""03d12dc6-79b3-42a5-88c2-9b18a9e5f1ee""}","https://test12345.live/?num_scrambled_semantic=8&num_scrambled_causal=4&num_scrambled_schematic=4&participantId=4DD24DDF64DB4E9FB276B8D9F50480E9&assignmentId=571e6ef4-3023-4421-a528-76e29ef3229c&projectId=03d12dc6-79b3-42a5-88c2-9b18a9e5f1ee","4DD24DDF64DB4E9FB276B8D9F50480E9-2025-05-15-15-35-29","","1592","","images/semantic_sequence/creative_activities_semantic/creative_activities_semantic_9.png","0","",""
"","","","","","image-button-response","100","446259","0.0-14.0-1.0-2.3","4DD24DDF64DB4E9FB276B8D9F50480E9","4DD24DDF64DB4E9FB276B8D9F50480E9","571e6ef4-3023-4421-a528-76e29ef3229c","03d12dc6-79b3-42a5-88c2-9b18a9e5f1ee","{""num_scrambled_semantic"":""8"",""num_scrambled_causal"":""4"",""num_scrambled_schematic"":""4"",""participantId"":""4DD24DDF64DB4E9FB276B8D9F50480E9"",""assignmentId"":""571e6ef4-3023-4421-a528-76e29ef3229c"",""projectId"":""03d12dc6-79b3-42a5-88c2-9b18a9e5f1ee""}","https://test12345.live/?num_scrambled_semantic=8&num_scrambled_causal=4&num_scrambled_schematic=4&participantId=4DD24DDF64DB4E9FB276B8D9F50480E9&assignmentId=571e6ef4-3023-4421-a528-76e29ef3229c&projectId=03d12dc6-79b3-42a5-88c2-9b18a9e5f1ee","4DD24DDF64DB4E9FB276B8D9F50480E9-2025-05-15-15-35-29","","null","","[]","null","",""
"","","","","","image-button-response","101","450798","0.0-14.0-1.0-0.4","4DD24DDF64DB4E9FB276B8D9F50480E9","4DD24DDF64DB4E9FB276B8D9F50480E9","571e6ef4-3023-4421-a528-76e29ef3229c","03d12dc6-79b3-42a5-88c2-9b18a9e5f1ee","{""num_scrambled_semantic"":""8"",""num_scrambled_causal"":""4"",""num_scrambled_schematic"":""4"",""participantId"":""4DD24DDF64DB4E9FB276B8D9F50480E9"",""assignmentId"":""571e6ef4-3023-4421-a528-76e29ef3229c"",""projectId"":""03d12dc6-79b3-42a5-88c2-9b18a9e5f1ee""}","https://test12345.live/?num_scrambled_semantic=8&num_scrambled_causal=4&num_scrambled_schematic=4&participantId=4DD24DDF64DB4E9FB276B8D9F50480E9&assignmentId=571e6ef4-3023-4421-a528-76e29ef3229c&projectId=03d12dc6-79b3-42a5-88c2-9b18a9e5f1ee","4DD24DDF64DB4E9FB276B8D9F50480E9-2025-05-15-15-35-29","","null","","images/semantic_sequence/creative_activities_semantic/creative_activities_semantic_ten.png","null","",""
"","","","","","image-button-response","102","453844","0.0-14.0-1.0-1.4","4DD24DDF64DB4E9FB276B8D9F50480E9","4DD24DDF64DB4E9FB276B8D9F50480E9","571e6ef4-3023-4421-a528-76e29ef3229c","03d12dc6-79b3-42a5-88c2-9b18a9e5f1ee","{""num_scrambled_semantic"":""8"",""num_scrambled_causal"":""4"",""num_scrambled_schematic"":""4"",""participantId"":""4DD24DDF64DB4E9FB276B8D9F50480E9"",""assignmentId"":""571e6ef4-3023-4421-a528-76e29ef3229c"",""projectId"":""03d12dc6-79b3-42a5-88c2-9b18a9e5f1ee""}","https://test12345.live/?num_scrambled_semantic=8&num_scrambled_causal=4&num_scrambled_schematic=4&participantId=4DD24DDF64DB4E9FB276B8D9F50480E9&assignmentId=571e6ef4-3023-4421-a528-76e29ef3229c&projectId=03d12dc6-79b3-42a5-88c2-9b18a9e5f1ee","4DD24DDF64DB4E9FB276B8D9F50480E9-2025-05-15-15-35-29","","3045","","images/semantic_sequence/creative_activities_semantic/creative_activities_semantic_ten.png","0","",""
"","","","","","image-button-response","103","455650","0.0-14.0-1.0-2.4","4DD24DDF64DB4E9FB276B8D9F50480E9","4DD24DDF64DB4E9FB276B8D9F50480E9","571e6ef4-3023-4421-a528-76e29ef3229c","03d12dc6-79b3-42a5-88c2-9b18a9e5f1ee","{""num_scrambled_semantic"":""8"",""num_scrambled_causal"":""4"",""num_scrambled_schematic"":""4"",""participantId"":""4DD24DDF64DB4E9FB276B8D9F50480E9"",""assignmentId"":""571e6ef4-3023-4421-a528-76e29ef3229c"",""projectId"":""03d12dc6-79b3-42a5-88c2-9b18a9e5f1ee""}","https://test12345.live/?num_scrambled_semantic=8&num_scrambled_causal=4&num_scrambled_schematic=4&participantId=4DD24DDF64DB4E9FB276B8D9F50480E9&assignmentId=571e6ef4-3023-4421-a528-76e29ef3229c&projectId=03d12dc6-79b3-42a5-88c2-9b18a9e5f1ee","4DD24DDF64DB4E9FB276B8D9F50480E9-2025-05-15-15-35-29","","null","","[]","null","",""
"","","","","","image-button-response","104","460713","0.0-14.0-1.0-0.5","4DD24DDF64DB4E9FB276B8D9F50480E9","4DD24DDF64DB4E9FB276B8D9F50480E9","571e6ef4-3023-4421-a528-76e29ef3229c","03d12dc6-79b3-42a5-88c2-9b18a9e5f1ee","{""num_scrambled_semantic"":""8"",""num_scrambled_causal"":""4"",""num_scrambled_schematic"":""4"",""participantId"":""4DD24DDF64DB4E9FB276B8D9F50480E9"",""assignmentId"":""571e6ef4-3023-4421-a528-76e29ef3229c"",""projectId"":""03d12dc6-79b3-42a5-88c2-9b18a9e5f1ee""}","https://test12345.live/?num_scrambled_semantic=8&num_scrambled_causal=4&num_scrambled_schematic=4&participantId=4DD24DDF64DB4E9FB276B8D9F50480E9&assignmentId=571e6ef4-3023-4421-a528-76e29ef3229c&projectId=03d12dc6-79b3-42a5-88c2-9b18a9e5f1ee","4DD24DDF64DB4E9FB276B8D9F50480E9-2025-05-15-15-35-29","","null","","images/semantic_sequence/creative_activities_semantic/creative_activities_semantic_2.png","null","",""
"","","","","","image-button-response","105","462771","0.0-14.0-1.0-1.5","4DD24DDF64DB4E9FB276B8D9F50480E9","4DD24DDF64DB4E9FB276B8D9F50480E9","571e6ef4-3023-4421-a528-76e29ef3229c","03d12dc6-79b3-42a5-88c2-9b18a9e5f1ee","{""num_scrambled_semantic"":""8"",""num_scrambled_causal"":""4"",""num_scrambled_schematic"":""4"",""participantId"":""4DD24DDF64DB4E9FB276B8D9F50480E9"",""assignmentId"":""571e6ef4-3023-4421-a528-76e29ef3229c"",""projectId"":""03d12dc6-79b3-42a5-88c2-9b18a9e5f1ee""}","https://test12345.live/?num_scrambled_semantic=8&num_scrambled_causal=4&num_scrambled_schematic=4&participantId=4DD24DDF64DB4E9FB276B8D9F50480E9&assignmentId=571e6ef4-3023-4421-a528-76e29ef3229c&projectId=03d12dc6-79b3-42a5-88c2-9b18a9e5f1ee","4DD24DDF64DB4E9FB276B8D9F50480E9-2025-05-15-15-35-29","","2056","","images/semantic_sequence/creative_activities_semantic/creative_activities_semantic_2.png","0","",""
"","","","","","image-button-response","106","464724","0.0-14.0-1.0-2.5","4DD24DDF64DB4E9FB276B8D9F50480E9","4DD24DDF64DB4E9FB276B8D9F50480E9","571e6ef4-3023-4421-a528-76e29ef3229c","03d12dc6-79b3-42a5-88c2-9b18a9e5f1ee","{""num_scrambled_semantic"":""8"",""num_scrambled_causal"":""4"",""num_scrambled_schematic"":""4"",""participantId"":""4DD24DDF64DB4E9FB276B8D9F50480E9"",""assignmentId"":""571e6ef4-3023-4421-a528-76e29ef3229c"",""projectId"":""03d12dc6-79b3-42a5-88c2-9b18a9e5f1ee""}","https://test12345.live/?num_scrambled_semantic=8&num_scrambled_causal=4&num_scrambled_schematic=4&participantId=4DD24DDF64DB4E9FB276B8D9F50480E9&assignmentId=571e6ef4-3023-4421-a528-76e29ef3229c&projectId=03d12dc6-79b3-42a5-88c2-9b18a9e5f1ee","4DD24DDF64DB4E9FB276B8D9F50480E9-2025-05-15-15-35-29","","null","","[]","null","",""
"","","","","","image-button-response","107","469269","0.0-14.0-1.0-0.6","4DD24DDF64DB4E9FB276B8D9F50480E9","4DD24DDF64DB4E9FB276B8D9F50480E9","571e6ef4-3023-4421-a528-76e29ef3229c","03d12dc6-79b3-42a5-88c2-9b18a9e5f1ee","{""num_scrambled_semantic"":""8"",""num_scrambled_causal"":""4"",""num_scrambled_schematic"":""4"",""participantId"":""4DD24DDF64DB4E9FB276B8D9F50480E9"",""assignmentId"":""571e6ef4-3023-4421-a528-76e29ef3229c"",""projectId"":""03d12dc6-79b3-42a5-88c2-9b18a9e5f1ee""}","https://test12345.live/?num_scrambled_semantic=8&num_scrambled_causal=4&num_scrambled_schematic=4&participantId=4DD24DDF64DB4E9FB276B8D9F50480E9&assignmentId=571e6ef4-3023-4421-a528-76e29ef3229c&projectId=03d12dc6-79b3-42a5-88c2-9b18a9e5f1ee","4DD24DDF64DB4E9FB276B8D9F50480E9-2025-05-15-15-35-29","","null","","images/semantic_sequence/creative_activities_semantic/creative_activities_semantic_7.png","null","",""
"","","","","","image-button-response","108","470219","0.0-14.0-1.0-1.6","4DD24DDF64DB4E9FB276B8D9F50480E9","4DD24DDF64DB4E9FB276B8D9F50480E9","571e6ef4-3023-4421-a528-76e29ef3229c","03d12dc6-79b3-42a5-88c2-9b18a9e5f1ee","{""num_scrambled_semantic"":""8"",""num_scrambled_causal"":""4"",""num_scrambled_schematic"":""4"",""participantId"":""4DD24DDF64DB4E9FB276B8D9F50480E9"",""assignmentId"":""571e6ef4-3023-4421-a528-76e29ef3229c"",""projectId"":""03d12dc6-79b3-42a5-88c2-9b18a9e5f1ee""}","https://test12345.live/?num_scrambled_semantic=8&num_scrambled_causal=4&num_scrambled_schematic=4&participantId=4DD24DDF64DB4E9FB276B8D9F50480E9&assignmentId=571e6ef4-3023-4421-a528-76e29ef3229c&projectId=03d12dc6-79b3-42a5-88c2-9b18a9e5f1ee","4DD24DDF64DB4E9FB276B8D9F50480E9-2025-05-15-15-35-29","","947","","images/semantic_sequence/creative_activities_semantic/creative_activities_semantic_7.png","0","",""
"","","","","","image-button-response","109","472024","0.0-14.0-1.0-2.6","4DD24DDF64DB4E9FB276B8D9F50480E9","4DD24DDF64DB4E9FB276B8D9F50480E9","571e6ef4-3023-4421-a528-76e29ef3229c","03d12dc6-79b3-42a5-88c2-9b18a9e5f1ee","{""num_scrambled_semantic"":""8"",""num_scrambled_causal"":""4"",""num_scrambled_schematic"":""4"",""participantId"":""4DD24DDF64DB4E9FB276B8D9F50480E9"",""assignmentId"":""571e6ef4-3023-4421-a528-76e29ef3229c"",""projectId"":""03d12dc6-79b3-42a5-88c2-9b18a9e5f1ee""}","https://test12345.live/?num_scrambled_semantic=8&num_scrambled_causal=4&num_scrambled_schematic=4&participantId=4DD24DDF64DB4E9FB276B8D9F50480E9&assignmentId=571e6ef4-3023-4421-a528-76e29ef3229c&projectId=03d12dc6-79b3-42a5-88c2-9b18a9e5f1ee","4DD24DDF64DB4E9FB276B8D9F50480E9-2025-05-15-15-35-29","","null","","[]","null","",""
"","","","","","image-button-response","110","476569","0.0-14.0-1.0-0.7","4DD24DDF64DB4E9FB276B8D9F50480E9","4DD24DDF64DB4E9FB276B8D9F50480E9","571e6ef4-3023-4421-a528-76e29ef3229c","03d12dc6-79b3-42a5-88c2-9b18a9e5f1ee","{""num_scrambled_semantic"":""8"",""num_scrambled_causal"":""4"",""num_scrambled_schematic"":""4"",""participantId"":""4DD24DDF64DB4E9FB276B8D9F50480E9"",""assignmentId"":""571e6ef4-3023-4421-a528-76e29ef3229c"",""projectId"":""03d12dc6-79b3-42a5-88c2-9b18a9e5f1ee""}","https://test12345.live/?num_scrambled_semantic=8&num_scrambled_causal=4&num_scrambled_schematic=4&participantId=4DD24DDF64DB4E9FB276B8D9F50480E9&assignmentId=571e6ef4-3023-4421-a528-76e29ef3229c&projectId=03d12dc6-79b3-42a5-88c2-9b18a9e5f1ee","4DD24DDF64DB4E9FB276B8D9F50480E9-2025-05-15-15-35-29","","null","","images/semantic_sequence/creative_activities_semantic/creative_activities_semantic_4.png","null","",""
"","","","","","image-button-response","111","477700","0.0-14.0-1.0-1.7","4DD24DDF64DB4E9FB276B8D9F50480E9","4DD24DDF64DB4E9FB276B8D9F50480E9","571e6ef4-3023-4421-a528-76e29ef3229c","03d12dc6-79b3-42a5-88c2-9b18a9e5f1ee","{""num_scrambled_semantic"":""8"",""num_scrambled_causal"":""4"",""num_scrambled_schematic"":""4"",""participantId"":""4DD24DDF64DB4E9FB276B8D9F50480E9"",""assignmentId"":""571e6ef4-3023-4421-a528-76e29ef3229c"",""projectId"":""03d12dc6-79b3-42a5-88c2-9b18a9e5f1ee""}","https://test12345.live/?num_scrambled_semantic=8&num_scrambled_causal=4&num_scrambled_schematic=4&participantId=4DD24DDF64DB4E9FB276B8D9F50480E9&assignmentId=571e6ef4-3023-4421-a528-76e29ef3229c&projectId=03d12dc6-79b3-42a5-88c2-9b18a9e5f1ee","4DD24DDF64DB4E9FB276B8D9F50480E9-2025-05-15-15-35-29","","1130","","images/semantic_sequence/creative_activities_semantic/creative_activities_semantic_4.png","0","",""
"","","","","","image-button-response","112","479584","0.0-14.0-1.0-2.7","4DD24DDF64DB4E9FB276B8D9F50480E9","4DD24DDF64DB4E9FB276B8D9F50480E9","571e6ef4-3023-4421-a528-76e29ef3229c","03d12dc6-79b3-42a5-88c2-9b18a9e5f1ee","{""num_scrambled_semantic"":""8"",""num_scrambled_causal"":""4"",""num_scrambled_schematic"":""4"",""participantId"":""4DD24DDF64DB4E9FB276B8D9F50480E9"",""assignmentId"":""571e6ef4-3023-4421-a528-76e29ef3229c"",""projectId"":""03d12dc6-79b3-42a5-88c2-9b18a9e5f1ee""}","https://test12345.live/?num_scrambled_semantic=8&num_scrambled_causal=4&num_scrambled_schematic=4&participantId=4DD24DDF64DB4E9FB276B8D9F50480E9&assignmentId=571e6ef4-3023-4421-a528-76e29ef3229c&projectId=03d12dc6-79b3-42a5-88c2-9b18a9e5f1ee","4DD24DDF64DB4E9FB276B8D9F50480E9-2025-05-15-15-35-29","","null","","[]","null","",""
"","","","","","image-button-response","113","484112","0.0-14.0-1.0-0.8","4DD24DDF64DB4E9FB276B8D9F50480E9","4DD24DDF64DB4E9FB276B8D9F50480E9","571e6ef4-3023-4421-a528-76e29ef3229c","03d12dc6-79b3-42a5-88c2-9b18a9e5f1ee","{""num_scrambled_semantic"":""8"",""num_scrambled_causal"":""4"",""num_scrambled_schematic"":""4"",""participantId"":""4DD24DDF64DB4E9FB276B8D9F50480E9"",""assignmentId"":""571e6ef4-3023-4421-a528-76e29ef3229c"",""projectId"":""03d12dc6-79b3-42a5-88c2-9b18a9e5f1ee""}","https://test12345.live/?num_scrambled_semantic=8&num_scrambled_causal=4&num_scrambled_schematic=4&participantId=4DD24DDF64DB4E9FB276B8D9F50480E9&assignmentId=571e6ef4-3023-4421-a528-76e29ef3229c&projectId=03d12dc6-79b3-42a5-88c2-9b18a9e5f1ee","4DD24DDF64DB4E9FB276B8D9F50480E9-2025-05-15-15-35-29","","null","","images/semantic_sequence/creative_activities_semantic/creative_activities_semantic_5.png","null","",""
