"success","timeout","failed_images","failed_audio","failed_video","trial_type","trial_index","time_elapsed","internal_node_id","subject","subject_id","study_id","session_id","urlvar","current_url","audio_id","view_history","rt","device_id","stimulus","response","estimated_stimulus_onset","seq_name"
"true","false","[]","[]","[]","preload","0","5532","0.0-0.0","4F8701E5339B4A7FBEB1C68BC4DB29A2","4F8701E5339B4A7FBEB1C68BC4DB29A2","6001f120-dd83-4d1f-879b-b44698aa2b3c","a9f3d40c-5730-405c-b25e-1034c4c56f3f","{""num_scrambled_semantic"":""8"",""num_scrambled_causal"":""4"",""num_scrambled_schematic"":""4"",""participantId"":""4F8701E5339B4A7FBEB1C68BC4DB29A2"",""assignmentId"":""6001f120-dd83-4d1f-879b-b44698aa2b3c"",""projectId"":""a9f3d40c-5730-405c-b25e-1034c4c56f3f""}","https://test12345.live/?num_scrambled_semantic=8&num_scrambled_causal=4&num_scrambled_schematic=4&participantId=4F8701E5339B4A7FBEB1C68BC4DB29A2&assignmentId=6001f120-dd83-4d1f-879b-b44698aa2b3c&projectId=a9f3d40c-5730-405c-b25e-1034c4c56f3f","4F8701E5339B4A7FBEB1C68BC4DB29A2-2025-08-07-19-00-33","","","","","","",""
"","","","","","instructions","1","24694","0.0-1.0","4F8701E5339B4A7FBEB1C68BC4DB29A2","4F8701E5339B4A7FBEB1C68BC4DB29A2","6001f120-dd83-4d1f-879b-b44698aa2b3c","a9f3d40c-5730-405c-b25e-1034c4c56f3f","{""num_scrambled_semantic"":""8"",""num_scrambled_causal"":""4"",""num_scrambled_schematic"":""4"",""participantId"":""4F8701E5339B4A7FBEB1C68BC4DB29A2"",""assignmentId"":""6001f120-dd83-4d1f-879b-b44698aa2b3c"",""projectId"":""a9f3d40c-5730-405c-b25e-1034c4c56f3f""}","https://test12345.live/?num_scrambled_semantic=8&num_scrambled_causal=4&num_scrambled_schematic=4&participantId=4F8701E5339B4A7FBEB1C68BC4DB29A2&assignmentId=6001f120-dd83-4d1f-879b-b44698aa2b3c&projectId=a9f3d40c-5730-405c-b25e-1034c4c56f3f","4F8701E5339B4A7FBEB1C68BC4DB29A2-2025-08-07-19-00-33","[{""page_index"":0,""viewing_time"":19162}]","19162","","","","",""
"","","","","","instructions","2","29050","0.0-2.0","4F8701E5339B4A7FBEB1C68BC4DB29A2","4F8701E5339B4A7FBEB1C68BC4DB29A2","6001f120-dd83-4d1f-879b-b44698aa2b3c","a9f3d40c-5730-405c-b25e-1034c4c56f3f","{""num_scrambled_semantic"":""8"",""num_scrambled_causal"":""4"",""num_scrambled_schematic"":""4"",""participantId"":""4F8701E5339B4A7FBEB1C68BC4DB29A2"",""assignmentId"":""6001f120-dd83-4d1f-879b-b44698aa2b3c"",""projectId"":""a9f3d40c-5730-405c-b25e-1034c4c56f3f""}","https://test12345.live/?num_scrambled_semantic=8&num_scrambled_causal=4&num_scrambled_schematic=4&participantId=4F8701E5339B4A7FBEB1C68BC4DB29A2&assignmentId=6001f120-dd83-4d1f-879b-b44698aa2b3c&projectId=a9f3d40c-5730-405c-b25e-1034c4c56f3f","4F8701E5339B4A7FBEB1C68BC4DB29A2-2025-08-07-19-00-33","[{""page_index"":0,""viewing_time"":4355}]","4355","","","","",""
"true","","","","","fullscreen","3","31767","0.0-3.0","4F8701E5339B4A7FBEB1C68BC4DB29A2","4F8701E5339B4A7FBEB1C68BC4DB29A2","6001f120-dd83-4d1f-879b-b44698aa2b3c","a9f3d40c-5730-405c-b25e-1034c4c56f3f","{""num_scrambled_semantic"":""8"",""num_scrambled_causal"":""4"",""num_scrambled_schematic"":""4"",""participantId"":""4F8701E5339B4A7FBEB1C68BC4DB29A2"",""assignmentId"":""6001f120-dd83-4d1f-879b-b44698aa2b3c"",""projectId"":""a9f3d40c-5730-405c-b25e-1034c4c56f3f""}","https://test12345.live/?num_scrambled_semantic=8&num_scrambled_causal=4&num_scrambled_schematic=4&participantId=4F8701E5339B4A7FBEB1C68BC4DB29A2&assignmentId=6001f120-dd83-4d1f-879b-b44698aa2b3c&projectId=a9f3d40c-5730-405c-b25e-1034c4c56f3f","4F8701E5339B4A7FBEB1C68BC4DB29A2-2025-08-07-19-00-33","","1714","","","","",""
"","","","","","initialize-microphone","4","47380","0.0-4.0-0.0","4F8701E5339B4A7FBEB1C68BC4DB29A2","4F8701E5339B4A7FBEB1C68BC4DB29A2","6001f120-dd83-4d1f-879b-b44698aa2b3c","a9f3d40c-5730-405c-b25e-1034c4c56f3f","{""num_scrambled_semantic"":""8"",""num_scrambled_causal"":""4"",""num_scrambled_schematic"":""4"",""participantId"":""4F8701E5339B4A7FBEB1C68BC4DB29A2"",""assignmentId"":""6001f120-dd83-4d1f-879b-b44698aa2b3c"",""projectId"":""a9f3d40c-5730-405c-b25e-1034c4c56f3f""}","https://test12345.live/?num_scrambled_semantic=8&num_scrambled_causal=4&num_scrambled_schematic=4&participantId=4F8701E5339B4A7FBEB1C68BC4DB29A2&assignmentId=6001f120-dd83-4d1f-879b-b44698aa2b3c&projectId=a9f3d40c-5730-405c-b25e-1034c4c56f3f","4F8701E5339B4A7FBEB1C68BC4DB29A2-2025-08-07-19-00-33","","","4757211ae24fb1a8bf795e078b2eed31c43e31d9ad4da569c6df245725b12fe8","","","",""
"","","","","","html-audio-response","5","62655","0.0-4.0-1.0","4F8701E5339B4A7FBEB1C68BC4DB29A2","4F8701E5339B4A7FBEB1C68BC4DB29A2","6001f120-dd83-4d1f-879b-b44698aa2b3c","a9f3d40c-5730-405c-b25e-1034c4c56f3f","{""num_scrambled_semantic"":""8"",""num_scrambled_causal"":""4"",""num_scrambled_schematic"":""4"",""participantId"":""4F8701E5339B4A7FBEB1C68BC4DB29A2"",""assignmentId"":""6001f120-dd83-4d1f-879b-b44698aa2b3c"",""projectId"":""a9f3d40c-5730-405c-b25e-1034c4c56f3f""}","https://test12345.live/?num_scrambled_semantic=8&num_scrambled_causal=4&num_scrambled_schematic=4&participantId=4F8701E5339B4A7FBEB1C68BC4DB29A2&assignmentId=6001f120-dd83-4d1f-879b-b44698aa2b3c&projectId=a9f3d40c-5730-405c-b25e-1034c4c56f3f","4F8701E5339B4A7FBEB1C68BC4DB29A2-2025-08-07-19-00-33","","5865","","<span style=""color: red; font-size: 24px""> NOW RECORDING</span>
        <p>Please test Microphone</p>","","5",""
"","","","","","html-button-response","6","64900","0.0-4.0-2.0","4F8701E5339B4A7FBEB1C68BC4DB29A2","4F8701E5339B4A7FBEB1C68BC4DB29A2","6001f120-dd83-4d1f-879b-b44698aa2b3c","a9f3d40c-5730-405c-b25e-1034c4c56f3f","{""num_scrambled_semantic"":""8"",""num_scrambled_causal"":""4"",""num_scrambled_schematic"":""4"",""participantId"":""4F8701E5339B4A7FBEB1C68BC4DB29A2"",""assignmentId"":""6001f120-dd83-4d1f-879b-b44698aa2b3c"",""projectId"":""a9f3d40c-5730-405c-b25e-1034c4c56f3f""}","https://test12345.live/?num_scrambled_semantic=8&num_scrambled_causal=4&num_scrambled_schematic=4&participantId=4F8701E5339B4A7FBEB1C68BC4DB29A2&assignmentId=6001f120-dd83-4d1f-879b-b44698aa2b3c&projectId=a9f3d40c-5730-405c-b25e-1034c4c56f3f","4F8701E5339B4A7FBEB1C68BC4DB29A2-2025-08-07-19-00-33","","2244","","<p style=""font-size:48px; color:red;"">Is Microphone OK?</p>","1","",""
"","","","","","instructions","7","96274","0.0-5.0","4F8701E5339B4A7FBEB1C68BC4DB29A2","4F8701E5339B4A7FBEB1C68BC4DB29A2","6001f120-dd83-4d1f-879b-b44698aa2b3c","a9f3d40c-5730-405c-b25e-1034c4c56f3f","{""num_scrambled_semantic"":""8"",""num_scrambled_causal"":""4"",""num_scrambled_schematic"":""4"",""participantId"":""4F8701E5339B4A7FBEB1C68BC4DB29A2"",""assignmentId"":""6001f120-dd83-4d1f-879b-b44698aa2b3c"",""projectId"":""a9f3d40c-5730-405c-b25e-1034c4c56f3f""}","https://test12345.live/?num_scrambled_semantic=8&num_scrambled_causal=4&num_scrambled_schematic=4&participantId=4F8701E5339B4A7FBEB1C68BC4DB29A2&assignmentId=6001f120-dd83-4d1f-879b-b44698aa2b3c&projectId=a9f3d40c-5730-405c-b25e-1034c4c56f3f","4F8701E5339B4A7FBEB1C68BC4DB29A2-2025-08-07-19-00-33","[{""page_index"":0,""viewing_time"":8247},{""page_index"":1,""viewing_time"":23126}]","31374","","","","",""
"","","","","","image-button-response","8","102276","0.0-6.0-0.0","4F8701E5339B4A7FBEB1C68BC4DB29A2","4F8701E5339B4A7FBEB1C68BC4DB29A2","6001f120-dd83-4d1f-879b-b44698aa2b3c","a9f3d40c-5730-405c-b25e-1034c4c56f3f","{""num_scrambled_semantic"":""8"",""num_scrambled_causal"":""4"",""num_scrambled_schematic"":""4"",""participantId"":""4F8701E5339B4A7FBEB1C68BC4DB29A2"",""assignmentId"":""6001f120-dd83-4d1f-879b-b44698aa2b3c"",""projectId"":""a9f3d40c-5730-405c-b25e-1034c4c56f3f""}","https://test12345.live/?num_scrambled_semantic=8&num_scrambled_causal=4&num_scrambled_schematic=4&participantId=4F8701E5339B4A7FBEB1C68BC4DB29A2&assignmentId=6001f120-dd83-4d1f-879b-b44698aa2b3c&projectId=a9f3d40c-5730-405c-b25e-1034c4c56f3f","4F8701E5339B4A7FBEB1C68BC4DB29A2-2025-08-07-19-00-33","","null","","images/instructions/movie_0.png","null","",""
"","","","","","image-button-response","9","106791","0.0-6.0-1.0-0.0","4F8701E5339B4A7FBEB1C68BC4DB29A2","4F8701E5339B4A7FBEB1C68BC4DB29A2","6001f120-dd83-4d1f-879b-b44698aa2b3c","a9f3d40c-5730-405c-b25e-1034c4c56f3f","{""num_scrambled_semantic"":""8"",""num_scrambled_causal"":""4"",""num_scrambled_schematic"":""4"",""participantId"":""4F8701E5339B4A7FBEB1C68BC4DB29A2"",""assignmentId"":""6001f120-dd83-4d1f-879b-b44698aa2b3c"",""projectId"":""a9f3d40c-5730-405c-b25e-1034c4c56f3f""}","https://test12345.live/?num_scrambled_semantic=8&num_scrambled_causal=4&num_scrambled_schematic=4&participantId=4F8701E5339B4A7FBEB1C68BC4DB29A2&assignmentId=6001f120-dd83-4d1f-879b-b44698aa2b3c&projectId=a9f3d40c-5730-405c-b25e-1034c4c56f3f","4F8701E5339B4A7FBEB1C68BC4DB29A2-2025-08-07-19-00-33","","null","","images/instructions/movie_1.png","null","",""
"","","","","","image-button-response","10","110803","0.0-6.0-1.0-1.0","4F8701E5339B4A7FBEB1C68BC4DB29A2","4F8701E5339B4A7FBEB1C68BC4DB29A2","6001f120-dd83-4d1f-879b-b44698aa2b3c","a9f3d40c-5730-405c-b25e-1034c4c56f3f","{""num_scrambled_semantic"":""8"",""num_scrambled_causal"":""4"",""num_scrambled_schematic"":""4"",""participantId"":""4F8701E5339B4A7FBEB1C68BC4DB29A2"",""assignmentId"":""6001f120-dd83-4d1f-879b-b44698aa2b3c"",""projectId"":""a9f3d40c-5730-405c-b25e-1034c4c56f3f""}","https://test12345.live/?num_scrambled_semantic=8&num_scrambled_causal=4&num_scrambled_schematic=4&participantId=4F8701E5339B4A7FBEB1C68BC4DB29A2&assignmentId=6001f120-dd83-4d1f-879b-b44698aa2b3c&projectId=a9f3d40c-5730-405c-b25e-1034c4c56f3f","4F8701E5339B4A7FBEB1C68BC4DB29A2-2025-08-07-19-00-33","","null","","images/instructions/movie_1.png","null","",""
"","","","","","image-button-response","11","112611","0.0-6.0-1.0-2.0","4F8701E5339B4A7FBEB1C68BC4DB29A2","4F8701E5339B4A7FBEB1C68BC4DB29A2","6001f120-dd83-4d1f-879b-b44698aa2b3c","a9f3d40c-5730-405c-b25e-1034c4c56f3f","{""num_scrambled_semantic"":""8"",""num_scrambled_causal"":""4"",""num_scrambled_schematic"":""4"",""participantId"":""4F8701E5339B4A7FBEB1C68BC4DB29A2"",""assignmentId"":""6001f120-dd83-4d1f-879b-b44698aa2b3c"",""projectId"":""a9f3d40c-5730-405c-b25e-1034c4c56f3f""}","https://test12345.live/?num_scrambled_semantic=8&num_scrambled_causal=4&num_scrambled_schematic=4&participantId=4F8701E5339B4A7FBEB1C68BC4DB29A2&assignmentId=6001f120-dd83-4d1f-879b-b44698aa2b3c&projectId=a9f3d40c-5730-405c-b25e-1034c4c56f3f","4F8701E5339B4A7FBEB1C68BC4DB29A2-2025-08-07-19-00-33","","null","","[]","null","",""
"","","","","","image-button-response","12","117122","0.0-6.0-1.0-0.1","4F8701E5339B4A7FBEB1C68BC4DB29A2","4F8701E5339B4A7FBEB1C68BC4DB29A2","6001f120-dd83-4d1f-879b-b44698aa2b3c","a9f3d40c-5730-405c-b25e-1034c4c56f3f","{""num_scrambled_semantic"":""8"",""num_scrambled_causal"":""4"",""num_scrambled_schematic"":""4"",""participantId"":""4F8701E5339B4A7FBEB1C68BC4DB29A2"",""assignmentId"":""6001f120-dd83-4d1f-879b-b44698aa2b3c"",""projectId"":""a9f3d40c-5730-405c-b25e-1034c4c56f3f""}","https://test12345.live/?num_scrambled_semantic=8&num_scrambled_causal=4&num_scrambled_schematic=4&participantId=4F8701E5339B4A7FBEB1C68BC4DB29A2&assignmentId=6001f120-dd83-4d1f-879b-b44698aa2b3c&projectId=a9f3d40c-5730-405c-b25e-1034c4c56f3f","4F8701E5339B4A7FBEB1C68BC4DB29A2-2025-08-07-19-00-33","","null","","images/instructions/movie_2.png","null","",""
"","","","","","image-button-response","13","119460","0.0-6.0-1.0-1.1","4F8701E5339B4A7FBEB1C68BC4DB29A2","4F8701E5339B4A7FBEB1C68BC4DB29A2","6001f120-dd83-4d1f-879b-b44698aa2b3c","a9f3d40c-5730-405c-b25e-1034c4c56f3f","{""num_scrambled_semantic"":""8"",""num_scrambled_causal"":""4"",""num_scrambled_schematic"":""4"",""participantId"":""4F8701E5339B4A7FBEB1C68BC4DB29A2"",""assignmentId"":""6001f120-dd83-4d1f-879b-b44698aa2b3c"",""projectId"":""a9f3d40c-5730-405c-b25e-1034c4c56f3f""}","https://test12345.live/?num_scrambled_semantic=8&num_scrambled_causal=4&num_scrambled_schematic=4&participantId=4F8701E5339B4A7FBEB1C68BC4DB29A2&assignmentId=6001f120-dd83-4d1f-879b-b44698aa2b3c&projectId=a9f3d40c-5730-405c-b25e-1034c4c56f3f","4F8701E5339B4A7FBEB1C68BC4DB29A2-2025-08-07-19-00-33","","2336","","images/instructions/movie_2.png","1","",""
"","","","","","image-button-response","14","121274","0.0-6.0-1.0-2.1","4F8701E5339B4A7FBEB1C68BC4DB29A2","4F8701E5339B4A7FBEB1C68BC4DB29A2","6001f120-dd83-4d1f-879b-b44698aa2b3c","a9f3d40c-5730-405c-b25e-1034c4c56f3f","{""num_scrambled_semantic"":""8"",""num_scrambled_causal"":""4"",""num_scrambled_schematic"":""4"",""participantId"":""4F8701E5339B4A7FBEB1C68BC4DB29A2"",""assignmentId"":""6001f120-dd83-4d1f-879b-b44698aa2b3c"",""projectId"":""a9f3d40c-5730-405c-b25e-1034c4c56f3f""}","https://test12345.live/?num_scrambled_semantic=8&num_scrambled_causal=4&num_scrambled_schematic=4&participantId=4F8701E5339B4A7FBEB1C68BC4DB29A2&assignmentId=6001f120-dd83-4d1f-879b-b44698aa2b3c&projectId=a9f3d40c-5730-405c-b25e-1034c4c56f3f","4F8701E5339B4A7FBEB1C68BC4DB29A2-2025-08-07-19-00-33","","null","","[]","null","",""
"","","","","","image-button-response","15","125777","0.0-6.0-1.0-0.2","4F8701E5339B4A7FBEB1C68BC4DB29A2","4F8701E5339B4A7FBEB1C68BC4DB29A2","6001f120-dd83-4d1f-879b-b44698aa2b3c","a9f3d40c-5730-405c-b25e-1034c4c56f3f","{""num_scrambled_semantic"":""8"",""num_scrambled_causal"":""4"",""num_scrambled_schematic"":""4"",""participantId"":""4F8701E5339B4A7FBEB1C68BC4DB29A2"",""assignmentId"":""6001f120-dd83-4d1f-879b-b44698aa2b3c"",""projectId"":""a9f3d40c-5730-405c-b25e-1034c4c56f3f""}","https://test12345.live/?num_scrambled_semantic=8&num_scrambled_causal=4&num_scrambled_schematic=4&participantId=4F8701E5339B4A7FBEB1C68BC4DB29A2&assignmentId=6001f120-dd83-4d1f-879b-b44698aa2b3c&projectId=a9f3d40c-5730-405c-b25e-1034c4c56f3f","4F8701E5339B4A7FBEB1C68BC4DB29A2-2025-08-07-19-00-33","","null","","images/instructions/movie_3.png","null","",""
"","","","","","image-button-response","16","126643","0.0-6.0-1.0-1.2","4F8701E5339B4A7FBEB1C68BC4DB29A2","4F8701E5339B4A7FBEB1C68BC4DB29A2","6001f120-dd83-4d1f-879b-b44698aa2b3c","a9f3d40c-5730-405c-b25e-1034c4c56f3f","{""num_scrambled_semantic"":""8"",""num_scrambled_causal"":""4"",""num_scrambled_schematic"":""4"",""participantId"":""4F8701E5339B4A7FBEB1C68BC4DB29A2"",""assignmentId"":""6001f120-dd83-4d1f-879b-b44698aa2b3c"",""projectId"":""a9f3d40c-5730-405c-b25e-1034c4c56f3f""}","https://test12345.live/?num_scrambled_semantic=8&num_scrambled_causal=4&num_scrambled_schematic=4&participantId=4F8701E5339B4A7FBEB1C68BC4DB29A2&assignmentId=6001f120-dd83-4d1f-879b-b44698aa2b3c&projectId=a9f3d40c-5730-405c-b25e-1034c4c56f3f","4F8701E5339B4A7FBEB1C68BC4DB29A2-2025-08-07-19-00-33","","865","","images/instructions/movie_3.png","0","",""
"","","","","","image-button-response","17","128444","0.0-6.0-1.0-2.2","4F8701E5339B4A7FBEB1C68BC4DB29A2","4F8701E5339B4A7FBEB1C68BC4DB29A2","6001f120-dd83-4d1f-879b-b44698aa2b3c","a9f3d40c-5730-405c-b25e-1034c4c56f3f","{""num_scrambled_semantic"":""8"",""num_scrambled_causal"":""4"",""num_scrambled_schematic"":""4"",""participantId"":""4F8701E5339B4A7FBEB1C68BC4DB29A2"",""assignmentId"":""6001f120-dd83-4d1f-879b-b44698aa2b3c"",""projectId"":""a9f3d40c-5730-405c-b25e-1034c4c56f3f""}","https://test12345.live/?num_scrambled_semantic=8&num_scrambled_causal=4&num_scrambled_schematic=4&participantId=4F8701E5339B4A7FBEB1C68BC4DB29A2&assignmentId=6001f120-dd83-4d1f-879b-b44698aa2b3c&projectId=a9f3d40c-5730-405c-b25e-1034c4c56f3f","4F8701E5339B4A7FBEB1C68BC4DB29A2-2025-08-07-19-00-33","","null","","[]","null","",""
"","","","","","image-button-response","18","132953","0.0-6.0-1.0-0.3","4F8701E5339B4A7FBEB1C68BC4DB29A2","4F8701E5339B4A7FBEB1C68BC4DB29A2","6001f120-dd83-4d1f-879b-b44698aa2b3c","a9f3d40c-5730-405c-b25e-1034c4c56f3f","{""num_scrambled_semantic"":""8"",""num_scrambled_causal"":""4"",""num_scrambled_schematic"":""4"",""participantId"":""4F8701E5339B4A7FBEB1C68BC4DB29A2"",""assignmentId"":""6001f120-dd83-4d1f-879b-b44698aa2b3c"",""projectId"":""a9f3d40c-5730-405c-b25e-1034c4c56f3f""}","https://test12345.live/?num_scrambled_semantic=8&num_scrambled_causal=4&num_scrambled_schematic=4&participantId=4F8701E5339B4A7FBEB1C68BC4DB29A2&assignmentId=6001f120-dd83-4d1f-879b-b44698aa2b3c&projectId=a9f3d40c-5730-405c-b25e-1034c4c56f3f","4F8701E5339B4A7FBEB1C68BC4DB29A2-2025-08-07-19-00-33","","null","","images/instructions/movie_4.png","null","",""
"","","","","","image-button-response","19","133944","0.0-6.0-1.0-1.3","4F8701E5339B4A7FBEB1C68BC4DB29A2","4F8701E5339B4A7FBEB1C68BC4DB29A2","6001f120-dd83-4d1f-879b-b44698aa2b3c","a9f3d40c-5730-405c-b25e-1034c4c56f3f","{""num_scrambled_semantic"":""8"",""num_scrambled_causal"":""4"",""num_scrambled_schematic"":""4"",""participantId"":""4F8701E5339B4A7FBEB1C68BC4DB29A2"",""assignmentId"":""6001f120-dd83-4d1f-879b-b44698aa2b3c"",""projectId"":""a9f3d40c-5730-405c-b25e-1034c4c56f3f""}","https://test12345.live/?num_scrambled_semantic=8&num_scrambled_causal=4&num_scrambled_schematic=4&participantId=4F8701E5339B4A7FBEB1C68BC4DB29A2&assignmentId=6001f120-dd83-4d1f-879b-b44698aa2b3c&projectId=a9f3d40c-5730-405c-b25e-1034c4c56f3f","4F8701E5339B4A7FBEB1C68BC4DB29A2-2025-08-07-19-00-33","","989","","images/instructions/movie_4.png","0","",""
"","","","","","image-button-response","20","135745","0.0-6.0-1.0-2.3","4F8701E5339B4A7FBEB1C68BC4DB29A2","4F8701E5339B4A7FBEB1C68BC4DB29A2","6001f120-dd83-4d1f-879b-b44698aa2b3c","a9f3d40c-5730-405c-b25e-1034c4c56f3f","{""num_scrambled_semantic"":""8"",""num_scrambled_causal"":""4"",""num_scrambled_schematic"":""4"",""participantId"":""4F8701E5339B4A7FBEB1C68BC4DB29A2"",""assignmentId"":""6001f120-dd83-4d1f-879b-b44698aa2b3c"",""projectId"":""a9f3d40c-5730-405c-b25e-1034c4c56f3f""}","https://test12345.live/?num_scrambled_semantic=8&num_scrambled_causal=4&num_scrambled_schematic=4&participantId=4F8701E5339B4A7FBEB1C68BC4DB29A2&assignmentId=6001f120-dd83-4d1f-879b-b44698aa2b3c&projectId=a9f3d40c-5730-405c-b25e-1034c4c56f3f","4F8701E5339B4A7FBEB1C68BC4DB29A2-2025-08-07-19-00-33","","null","","[]","null","",""
"","","","","","instructions","21","141937","0.0-7.0","4F8701E5339B4A7FBEB1C68BC4DB29A2","4F8701E5339B4A7FBEB1C68BC4DB29A2","6001f120-dd83-4d1f-879b-b44698aa2b3c","a9f3d40c-5730-405c-b25e-1034c4c56f3f","{""num_scrambled_semantic"":""8"",""num_scrambled_causal"":""4"",""num_scrambled_schematic"":""4"",""participantId"":""4F8701E5339B4A7FBEB1C68BC4DB29A2"",""assignmentId"":""6001f120-dd83-4d1f-879b-b44698aa2b3c"",""projectId"":""a9f3d40c-5730-405c-b25e-1034c4c56f3f""}","https://test12345.live/?num_scrambled_semantic=8&num_scrambled_causal=4&num_scrambled_schematic=4&participantId=4F8701E5339B4A7FBEB1C68BC4DB29A2&assignmentId=6001f120-dd83-4d1f-879b-b44698aa2b3c&projectId=a9f3d40c-5730-405c-b25e-1034c4c56f3f","4F8701E5339B4A7FBEB1C68BC4DB29A2-2025-08-07-19-00-33","[{""page_index"":0,""viewing_time"":4476},{""page_index"":1,""viewing_time"":1716}]","6192","","","","",""
"","","","","","html-audio-response","22","160965","0.0-8.0","4F8701E5339B4A7FBEB1C68BC4DB29A2","4F8701E5339B4A7FBEB1C68BC4DB29A2","6001f120-dd83-4d1f-879b-b44698aa2b3c","a9f3d40c-5730-405c-b25e-1034c4c56f3f","{""num_scrambled_semantic"":""8"",""num_scrambled_causal"":""4"",""num_scrambled_schematic"":""4"",""participantId"":""4F8701E5339B4A7FBEB1C68BC4DB29A2"",""assignmentId"":""6001f120-dd83-4d1f-879b-b44698aa2b3c"",""projectId"":""a9f3d40c-5730-405c-b25e-1034c4c56f3f""}","https://test12345.live/?num_scrambled_semantic=8&num_scrambled_causal=4&num_scrambled_schematic=4&participantId=4F8701E5339B4A7FBEB1C68BC4DB29A2&assignmentId=6001f120-dd83-4d1f-879b-b44698aa2b3c&projectId=a9f3d40c-5730-405c-b25e-1034c4c56f3f","4F8701E5339B4A7FBEB1C68BC4DB29A2-2025-08-07-19-00-33","","17625","","[""<span style=\""color: red; font-size: 24px\""> NOW RECORDING</span><p>Please say out loud all the images you saw, as many as you can remember. The images can be said in any order.</p>""]","","2",""
"","","","","","instructions","23","163184","0.0-9.0","4F8701E5339B4A7FBEB1C68BC4DB29A2","4F8701E5339B4A7FBEB1C68BC4DB29A2","6001f120-dd83-4d1f-879b-b44698aa2b3c","a9f3d40c-5730-405c-b25e-1034c4c56f3f","{""num_scrambled_semantic"":""8"",""num_scrambled_causal"":""4"",""num_scrambled_schematic"":""4"",""participantId"":""4F8701E5339B4A7FBEB1C68BC4DB29A2"",""assignmentId"":""6001f120-dd83-4d1f-879b-b44698aa2b3c"",""projectId"":""a9f3d40c-5730-405c-b25e-1034c4c56f3f""}","https://test12345.live/?num_scrambled_semantic=8&num_scrambled_causal=4&num_scrambled_schematic=4&participantId=4F8701E5339B4A7FBEB1C68BC4DB29A2&assignmentId=6001f120-dd83-4d1f-879b-b44698aa2b3c&projectId=a9f3d40c-5730-405c-b25e-1034c4c56f3f","4F8701E5339B4A7FBEB1C68BC4DB29A2-2025-08-07-19-00-33","[{""page_index"":0,""viewing_time"":2216}]","2216","","","","",""
"","","","","","image-button-response","24","169192","0.0-10.0-0.0","4F8701E5339B4A7FBEB1C68BC4DB29A2","4F8701E5339B4A7FBEB1C68BC4DB29A2","6001f120-dd83-4d1f-879b-b44698aa2b3c","a9f3d40c-5730-405c-b25e-1034c4c56f3f","{""num_scrambled_semantic"":""8"",""num_scrambled_causal"":""4"",""num_scrambled_schematic"":""4"",""participantId"":""4F8701E5339B4A7FBEB1C68BC4DB29A2"",""assignmentId"":""6001f120-dd83-4d1f-879b-b44698aa2b3c"",""projectId"":""a9f3d40c-5730-405c-b25e-1034c4c56f3f""}","https://test12345.live/?num_scrambled_semantic=8&num_scrambled_causal=4&num_scrambled_schematic=4&participantId=4F8701E5339B4A7FBEB1C68BC4DB29A2&assignmentId=6001f120-dd83-4d1f-879b-b44698aa2b3c&projectId=a9f3d40c-5730-405c-b25e-1034c4c56f3f","4F8701E5339B4A7FBEB1C68BC4DB29A2-2025-08-07-19-00-33","","null","","images/semantic_sequence/physical_activity_semantic/physical_activity_semantic_0.png","null","",""
"","","","","","image-button-response","25","173709","0.0-10.0-1.0-0.0","4F8701E5339B4A7FBEB1C68BC4DB29A2","4F8701E5339B4A7FBEB1C68BC4DB29A2","6001f120-dd83-4d1f-879b-b44698aa2b3c","a9f3d40c-5730-405c-b25e-1034c4c56f3f","{""num_scrambled_semantic"":""8"",""num_scrambled_causal"":""4"",""num_scrambled_schematic"":""4"",""participantId"":""4F8701E5339B4A7FBEB1C68BC4DB29A2"",""assignmentId"":""6001f120-dd83-4d1f-879b-b44698aa2b3c"",""projectId"":""a9f3d40c-5730-405c-b25e-1034c4c56f3f""}","https://test12345.live/?num_scrambled_semantic=8&num_scrambled_causal=4&num_scrambled_schematic=4&participantId=4F8701E5339B4A7FBEB1C68BC4DB29A2&assignmentId=6001f120-dd83-4d1f-879b-b44698aa2b3c&projectId=a9f3d40c-5730-405c-b25e-1034c4c56f3f","4F8701E5339B4A7FBEB1C68BC4DB29A2-2025-08-07-19-00-33","","null","","images/semantic_sequence/physical_activity_semantic/physical_activity_semantic_4.png","null","",""
"","","","","","image-button-response","26","175334","0.0-10.0-1.0-1.0","4F8701E5339B4A7FBEB1C68BC4DB29A2","4F8701E5339B4A7FBEB1C68BC4DB29A2","6001f120-dd83-4d1f-879b-b44698aa2b3c","a9f3d40c-5730-405c-b25e-1034c4c56f3f","{""num_scrambled_semantic"":""8"",""num_scrambled_causal"":""4"",""num_scrambled_schematic"":""4"",""participantId"":""4F8701E5339B4A7FBEB1C68BC4DB29A2"",""assignmentId"":""6001f120-dd83-4d1f-879b-b44698aa2b3c"",""projectId"":""a9f3d40c-5730-405c-b25e-1034c4c56f3f""}","https://test12345.live/?num_scrambled_semantic=8&num_scrambled_causal=4&num_scrambled_schematic=4&participantId=4F8701E5339B4A7FBEB1C68BC4DB29A2&assignmentId=6001f120-dd83-4d1f-879b-b44698aa2b3c&projectId=a9f3d40c-5730-405c-b25e-1034c4c56f3f","4F8701E5339B4A7FBEB1C68BC4DB29A2-2025-08-07-19-00-33","","1623","","images/semantic_sequence/physical_activity_semantic/physical_activity_semantic_4.png","0","",""
"","","","","","image-button-response","27","177372","0.0-10.0-1.0-2.0","4F8701E5339B4A7FBEB1C68BC4DB29A2","4F8701E5339B4A7FBEB1C68BC4DB29A2","6001f120-dd83-4d1f-879b-b44698aa2b3c","a9f3d40c-5730-405c-b25e-1034c4c56f3f","{""num_scrambled_semantic"":""8"",""num_scrambled_causal"":""4"",""num_scrambled_schematic"":""4"",""participantId"":""4F8701E5339B4A7FBEB1C68BC4DB29A2"",""assignmentId"":""6001f120-dd83-4d1f-879b-b44698aa2b3c"",""projectId"":""a9f3d40c-5730-405c-b25e-1034c4c56f3f""}","https://test12345.live/?num_scrambled_semantic=8&num_scrambled_causal=4&num_scrambled_schematic=4&participantId=4F8701E5339B4A7FBEB1C68BC4DB29A2&assignmentId=6001f120-dd83-4d1f-879b-b44698aa2b3c&projectId=a9f3d40c-5730-405c-b25e-1034c4c56f3f","4F8701E5339B4A7FBEB1C68BC4DB29A2-2025-08-07-19-00-33","","null","","[]","null","",""
"","","","","","image-button-response","28","181881","0.0-10.0-1.0-0.1","4F8701E5339B4A7FBEB1C68BC4DB29A2","4F8701E5339B4A7FBEB1C68BC4DB29A2","6001f120-dd83-4d1f-879b-b44698aa2b3c","a9f3d40c-5730-405c-b25e-1034c4c56f3f","{""num_scrambled_semantic"":""8"",""num_scrambled_causal"":""4"",""num_scrambled_schematic"":""4"",""participantId"":""4F8701E5339B4A7FBEB1C68BC4DB29A2"",""assignmentId"":""6001f120-dd83-4d1f-879b-b44698aa2b3c"",""projectId"":""a9f3d40c-5730-405c-b25e-1034c4c56f3f""}","https://test12345.live/?num_scrambled_semantic=8&num_scrambled_causal=4&num_scrambled_schematic=4&participantId=4F8701E5339B4A7FBEB1C68BC4DB29A2&assignmentId=6001f120-dd83-4d1f-879b-b44698aa2b3c&projectId=a9f3d40c-5730-405c-b25e-1034c4c56f3f","4F8701E5339B4A7FBEB1C68BC4DB29A2-2025-08-07-19-00-33","","null","","images/semantic_sequence/physical_activity_semantic/physical_activity_semantic_8.png","null","",""
"","","","","","image-button-response","29","183402","0.0-10.0-1.0-1.1","4F8701E5339B4A7FBEB1C68BC4DB29A2","4F8701E5339B4A7FBEB1C68BC4DB29A2","6001f120-dd83-4d1f-879b-b44698aa2b3c","a9f3d40c-5730-405c-b25e-1034c4c56f3f","{""num_scrambled_semantic"":""8"",""num_scrambled_causal"":""4"",""num_scrambled_schematic"":""4"",""participantId"":""4F8701E5339B4A7FBEB1C68BC4DB29A2"",""assignmentId"":""6001f120-dd83-4d1f-879b-b44698aa2b3c"",""projectId"":""a9f3d40c-5730-405c-b25e-1034c4c56f3f""}","https://test12345.live/?num_scrambled_semantic=8&num_scrambled_causal=4&num_scrambled_schematic=4&participantId=4F8701E5339B4A7FBEB1C68BC4DB29A2&assignmentId=6001f120-dd83-4d1f-879b-b44698aa2b3c&projectId=a9f3d40c-5730-405c-b25e-1034c4c56f3f","4F8701E5339B4A7FBEB1C68BC4DB29A2-2025-08-07-19-00-33","","1519","","images/semantic_sequence/physical_activity_semantic/physical_activity_semantic_8.png","0","",""
"","","","","","image-button-response","30","185204","0.0-10.0-1.0-2.1","4F8701E5339B4A7FBEB1C68BC4DB29A2","4F8701E5339B4A7FBEB1C68BC4DB29A2","6001f120-dd83-4d1f-879b-b44698aa2b3c","a9f3d40c-5730-405c-b25e-1034c4c56f3f","{""num_scrambled_semantic"":""8"",""num_scrambled_causal"":""4"",""num_scrambled_schematic"":""4"",""participantId"":""4F8701E5339B4A7FBEB1C68BC4DB29A2"",""assignmentId"":""6001f120-dd83-4d1f-879b-b44698aa2b3c"",""projectId"":""a9f3d40c-5730-405c-b25e-1034c4c56f3f""}","https://test12345.live/?num_scrambled_semantic=8&num_scrambled_causal=4&num_scrambled_schematic=4&participantId=4F8701E5339B4A7FBEB1C68BC4DB29A2&assignmentId=6001f120-dd83-4d1f-879b-b44698aa2b3c&projectId=a9f3d40c-5730-405c-b25e-1034c4c56f3f","4F8701E5339B4A7FBEB1C68BC4DB29A2-2025-08-07-19-00-33","","null","","[]","null","",""
"","","","","","image-button-response","31","189705","0.0-10.0-1.0-0.2","4F8701E5339B4A7FBEB1C68BC4DB29A2","4F8701E5339B4A7FBEB1C68BC4DB29A2","6001f120-dd83-4d1f-879b-b44698aa2b3c","a9f3d40c-5730-405c-b25e-1034c4c56f3f","{""num_scrambled_semantic"":""8"",""num_scrambled_causal"":""4"",""num_scrambled_schematic"":""4"",""participantId"":""4F8701E5339B4A7FBEB1C68BC4DB29A2"",""assignmentId"":""6001f120-dd83-4d1f-879b-b44698aa2b3c"",""projectId"":""a9f3d40c-5730-405c-b25e-1034c4c56f3f""}","https://test12345.live/?num_scrambled_semantic=8&num_scrambled_causal=4&num_scrambled_schematic=4&participantId=4F8701E5339B4A7FBEB1C68BC4DB29A2&assignmentId=6001f120-dd83-4d1f-879b-b44698aa2b3c&projectId=a9f3d40c-5730-405c-b25e-1034c4c56f3f","4F8701E5339B4A7FBEB1C68BC4DB29A2-2025-08-07-19-00-33","","null","","images/semantic_sequence/physical_activity_semantic/physical_activity_semantic_7.png","null","",""
"","","","","","image-button-response","32","190981","0.0-10.0-1.0-1.2","4F8701E5339B4A7FBEB1C68BC4DB29A2","4F8701E5339B4A7FBEB1C68BC4DB29A2","6001f120-dd83-4d1f-879b-b44698aa2b3c","a9f3d40c-5730-405c-b25e-1034c4c56f3f","{""num_scrambled_semantic"":""8"",""num_scrambled_causal"":""4"",""num_scrambled_schematic"":""4"",""participantId"":""4F8701E5339B4A7FBEB1C68BC4DB29A2"",""assignmentId"":""6001f120-dd83-4d1f-879b-b44698aa2b3c"",""projectId"":""a9f3d40c-5730-405c-b25e-1034c4c56f3f""}","https://test12345.live/?num_scrambled_semantic=8&num_scrambled_causal=4&num_scrambled_schematic=4&participantId=4F8701E5339B4A7FBEB1C68BC4DB29A2&assignmentId=6001f120-dd83-4d1f-879b-b44698aa2b3c&projectId=a9f3d40c-5730-405c-b25e-1034c4c56f3f","4F8701E5339B4A7FBEB1C68BC4DB29A2-2025-08-07-19-00-33","","1274","","images/semantic_sequence/physical_activity_semantic/physical_activity_semantic_7.png","0","",""
"","","","","","image-button-response","33","192796","0.0-10.0-1.0-2.2","4F8701E5339B4A7FBEB1C68BC4DB29A2","4F8701E5339B4A7FBEB1C68BC4DB29A2","6001f120-dd83-4d1f-879b-b44698aa2b3c","a9f3d40c-5730-405c-b25e-1034c4c56f3f","{""num_scrambled_semantic"":""8"",""num_scrambled_causal"":""4"",""num_scrambled_schematic"":""4"",""participantId"":""4F8701E5339B4A7FBEB1C68BC4DB29A2"",""assignmentId"":""6001f120-dd83-4d1f-879b-b44698aa2b3c"",""projectId"":""a9f3d40c-5730-405c-b25e-1034c4c56f3f""}","https://test12345.live/?num_scrambled_semantic=8&num_scrambled_causal=4&num_scrambled_schematic=4&participantId=4F8701E5339B4A7FBEB1C68BC4DB29A2&assignmentId=6001f120-dd83-4d1f-879b-b44698aa2b3c&projectId=a9f3d40c-5730-405c-b25e-1034c4c56f3f","4F8701E5339B4A7FBEB1C68BC4DB29A2-2025-08-07-19-00-33","","null","","[]","null","",""
"","","","","","image-button-response","34","197299","0.0-10.0-1.0-0.3","4F8701E5339B4A7FBEB1C68BC4DB29A2","4F8701E5339B4A7FBEB1C68BC4DB29A2","6001f120-dd83-4d1f-879b-b44698aa2b3c","a9f3d40c-5730-405c-b25e-1034c4c56f3f","{""num_scrambled_semantic"":""8"",""num_scrambled_causal"":""4"",""num_scrambled_schematic"":""4"",""participantId"":""4F8701E5339B4A7FBEB1C68BC4DB29A2"",""assignmentId"":""6001f120-dd83-4d1f-879b-b44698aa2b3c"",""projectId"":""a9f3d40c-5730-405c-b25e-1034c4c56f3f""}","https://test12345.live/?num_scrambled_semantic=8&num_scrambled_causal=4&num_scrambled_schematic=4&participantId=4F8701E5339B4A7FBEB1C68BC4DB29A2&assignmentId=6001f120-dd83-4d1f-879b-b44698aa2b3c&projectId=a9f3d40c-5730-405c-b25e-1034c4c56f3f","4F8701E5339B4A7FBEB1C68BC4DB29A2-2025-08-07-19-00-33","","null","","images/semantic_sequence/physical_activity_semantic/physical_activity_semantic_1.png","null","",""
"","","","","","image-button-response","35","197938","0.0-10.0-1.0-1.3","4F8701E5339B4A7FBEB1C68BC4DB29A2","4F8701E5339B4A7FBEB1C68BC4DB29A2","6001f120-dd83-4d1f-879b-b44698aa2b3c","a9f3d40c-5730-405c-b25e-1034c4c56f3f","{""num_scrambled_semantic"":""8"",""num_scrambled_causal"":""4"",""num_scrambled_schematic"":""4"",""participantId"":""4F8701E5339B4A7FBEB1C68BC4DB29A2"",""assignmentId"":""6001f120-dd83-4d1f-879b-b44698aa2b3c"",""projectId"":""a9f3d40c-5730-405c-b25e-1034c4c56f3f""}","https://test12345.live/?num_scrambled_semantic=8&num_scrambled_causal=4&num_scrambled_schematic=4&participantId=4F8701E5339B4A7FBEB1C68BC4DB29A2&assignmentId=6001f120-dd83-4d1f-879b-b44698aa2b3c&projectId=a9f3d40c-5730-405c-b25e-1034c4c56f3f","4F8701E5339B4A7FBEB1C68BC4DB29A2-2025-08-07-19-00-33","","638","","images/semantic_sequence/physical_activity_semantic/physical_activity_semantic_1.png","0","",""
"","","","","","image-button-response","36","199752","0.0-10.0-1.0-2.3","4F8701E5339B4A7FBEB1C68BC4DB29A2","4F8701E5339B4A7FBEB1C68BC4DB29A2","6001f120-dd83-4d1f-879b-b44698aa2b3c","a9f3d40c-5730-405c-b25e-1034c4c56f3f","{""num_scrambled_semantic"":""8"",""num_scrambled_causal"":""4"",""num_scrambled_schematic"":""4"",""participantId"":""4F8701E5339B4A7FBEB1C68BC4DB29A2"",""assignmentId"":""6001f120-dd83-4d1f-879b-b44698aa2b3c"",""projectId"":""a9f3d40c-5730-405c-b25e-1034c4c56f3f""}","https://test12345.live/?num_scrambled_semantic=8&num_scrambled_causal=4&num_scrambled_schematic=4&participantId=4F8701E5339B4A7FBEB1C68BC4DB29A2&assignmentId=6001f120-dd83-4d1f-879b-b44698aa2b3c&projectId=a9f3d40c-5730-405c-b25e-1034c4c56f3f","4F8701E5339B4A7FBEB1C68BC4DB29A2-2025-08-07-19-00-33","","null","","[]","null","",""
"","","","","","image-button-response","37","204364","0.0-10.0-1.0-0.4","4F8701E5339B4A7FBEB1C68BC4DB29A2","4F8701E5339B4A7FBEB1C68BC4DB29A2","6001f120-dd83-4d1f-879b-b44698aa2b3c","a9f3d40c-5730-405c-b25e-1034c4c56f3f","{""num_scrambled_semantic"":""8"",""num_scrambled_causal"":""4"",""num_scrambled_schematic"":""4"",""participantId"":""4F8701E5339B4A7FBEB1C68BC4DB29A2"",""assignmentId"":""6001f120-dd83-4d1f-879b-b44698aa2b3c"",""projectId"":""a9f3d40c-5730-405c-b25e-1034c4c56f3f""}","https://test12345.live/?num_scrambled_semantic=8&num_scrambled_causal=4&num_scrambled_schematic=4&participantId=4F8701E5339B4A7FBEB1C68BC4DB29A2&assignmentId=6001f120-dd83-4d1f-879b-b44698aa2b3c&projectId=a9f3d40c-5730-405c-b25e-1034c4c56f3f","4F8701E5339B4A7FBEB1C68BC4DB29A2-2025-08-07-19-00-33","","null","","images/semantic_sequence/physical_activity_semantic/physical_activity_semantic_6.png","null","",""
"","","","","","image-button-response","38","206100","0.0-10.0-1.0-1.4","4F8701E5339B4A7FBEB1C68BC4DB29A2","4F8701E5339B4A7FBEB1C68BC4DB29A2","6001f120-dd83-4d1f-879b-b44698aa2b3c","a9f3d40c-5730-405c-b25e-1034c4c56f3f","{""num_scrambled_semantic"":""8"",""num_scrambled_causal"":""4"",""num_scrambled_schematic"":""4"",""participantId"":""4F8701E5339B4A7FBEB1C68BC4DB29A2"",""assignmentId"":""6001f120-dd83-4d1f-879b-b44698aa2b3c"",""projectId"":""a9f3d40c-5730-405c-b25e-1034c4c56f3f""}","https://test12345.live/?num_scrambled_semantic=8&num_scrambled_causal=4&num_scrambled_schematic=4&participantId=4F8701E5339B4A7FBEB1C68BC4DB29A2&assignmentId=6001f120-dd83-4d1f-879b-b44698aa2b3c&projectId=a9f3d40c-5730-405c-b25e-1034c4c56f3f","4F8701E5339B4A7FBEB1C68BC4DB29A2-2025-08-07-19-00-33","","1735","","images/semantic_sequence/physical_activity_semantic/physical_activity_semantic_6.png","0","",""
"","","","","","image-button-response","39","207907","0.0-10.0-1.0-2.4","4F8701E5339B4A7FBEB1C68BC4DB29A2","4F8701E5339B4A7FBEB1C68BC4DB29A2","6001f120-dd83-4d1f-879b-b44698aa2b3c","a9f3d40c-5730-405c-b25e-1034c4c56f3f","{""num_scrambled_semantic"":""8"",""num_scrambled_causal"":""4"",""num_scrambled_schematic"":""4"",""participantId"":""4F8701E5339B4A7FBEB1C68BC4DB29A2"",""assignmentId"":""6001f120-dd83-4d1f-879b-b44698aa2b3c"",""projectId"":""a9f3d40c-5730-405c-b25e-1034c4c56f3f""}","https://test12345.live/?num_scrambled_semantic=8&num_scrambled_causal=4&num_scrambled_schematic=4&participantId=4F8701E5339B4A7FBEB1C68BC4DB29A2&assignmentId=6001f120-dd83-4d1f-879b-b44698aa2b3c&projectId=a9f3d40c-5730-405c-b25e-1034c4c56f3f","4F8701E5339B4A7FBEB1C68BC4DB29A2-2025-08-07-19-00-33","","null","","[]","null","",""
"","","","","","image-button-response","40","212408","0.0-10.0-1.0-0.5","4F8701E5339B4A7FBEB1C68BC4DB29A2","4F8701E5339B4A7FBEB1C68BC4DB29A2","6001f120-dd83-4d1f-879b-b44698aa2b3c","a9f3d40c-5730-405c-b25e-1034c4c56f3f","{""num_scrambled_semantic"":""8"",""num_scrambled_causal"":""4"",""num_scrambled_schematic"":""4"",""participantId"":""4F8701E5339B4A7FBEB1C68BC4DB29A2"",""assignmentId"":""6001f120-dd83-4d1f-879b-b44698aa2b3c"",""projectId"":""a9f3d40c-5730-405c-b25e-1034c4c56f3f""}","https://test12345.live/?num_scrambled_semantic=8&num_scrambled_causal=4&num_scrambled_schematic=4&participantId=4F8701E5339B4A7FBEB1C68BC4DB29A2&assignmentId=6001f120-dd83-4d1f-879b-b44698aa2b3c&projectId=a9f3d40c-5730-405c-b25e-1034c4c56f3f","4F8701E5339B4A7FBEB1C68BC4DB29A2-2025-08-07-19-00-33","","null","","images/semantic_sequence/physical_activity_semantic/physical_activity_semantic_5.png","null","",""
"","","","","","image-button-response","41","213878","0.0-10.0-1.0-1.5","4F8701E5339B4A7FBEB1C68BC4DB29A2","4F8701E5339B4A7FBEB1C68BC4DB29A2","6001f120-dd83-4d1f-879b-b44698aa2b3c","a9f3d40c-5730-405c-b25e-1034c4c56f3f","{""num_scrambled_semantic"":""8"",""num_scrambled_causal"":""4"",""num_scrambled_schematic"":""4"",""participantId"":""4F8701E5339B4A7FBEB1C68BC4DB29A2"",""assignmentId"":""6001f120-dd83-4d1f-879b-b44698aa2b3c"",""projectId"":""a9f3d40c-5730-405c-b25e-1034c4c56f3f""}","https://test12345.live/?num_scrambled_semantic=8&num_scrambled_causal=4&num_scrambled_schematic=4&participantId=4F8701E5339B4A7FBEB1C68BC4DB29A2&assignmentId=6001f120-dd83-4d1f-879b-b44698aa2b3c&projectId=a9f3d40c-5730-405c-b25e-1034c4c56f3f","4F8701E5339B4A7FBEB1C68BC4DB29A2-2025-08-07-19-00-33","","1469","","images/semantic_sequence/physical_activity_semantic/physical_activity_semantic_5.png","0","",""
"","","","","","image-button-response","42","215680","0.0-10.0-1.0-2.5","4F8701E5339B4A7FBEB1C68BC4DB29A2","4F8701E5339B4A7FBEB1C68BC4DB29A2","6001f120-dd83-4d1f-879b-b44698aa2b3c","a9f3d40c-5730-405c-b25e-1034c4c56f3f","{""num_scrambled_semantic"":""8"",""num_scrambled_causal"":""4"",""num_scrambled_schematic"":""4"",""participantId"":""4F8701E5339B4A7FBEB1C68BC4DB29A2"",""assignmentId"":""6001f120-dd83-4d1f-879b-b44698aa2b3c"",""projectId"":""a9f3d40c-5730-405c-b25e-1034c4c56f3f""}","https://test12345.live/?num_scrambled_semantic=8&num_scrambled_causal=4&num_scrambled_schematic=4&participantId=4F8701E5339B4A7FBEB1C68BC4DB29A2&assignmentId=6001f120-dd83-4d1f-879b-b44698aa2b3c&projectId=a9f3d40c-5730-405c-b25e-1034c4c56f3f","4F8701E5339B4A7FBEB1C68BC4DB29A2-2025-08-07-19-00-33","","null","","[]","null","",""
"","","","","","image-button-response","43","220192","0.0-10.0-1.0-0.6","4F8701E5339B4A7FBEB1C68BC4DB29A2","4F8701E5339B4A7FBEB1C68BC4DB29A2","6001f120-dd83-4d1f-879b-b44698aa2b3c","a9f3d40c-5730-405c-b25e-1034c4c56f3f","{""num_scrambled_semantic"":""8"",""num_scrambled_causal"":""4"",""num_scrambled_schematic"":""4"",""participantId"":""4F8701E5339B4A7FBEB1C68BC4DB29A2"",""assignmentId"":""6001f120-dd83-4d1f-879b-b44698aa2b3c"",""projectId"":""a9f3d40c-5730-405c-b25e-1034c4c56f3f""}","https://test12345.live/?num_scrambled_semantic=8&num_scrambled_causal=4&num_scrambled_schematic=4&participantId=4F8701E5339B4A7FBEB1C68BC4DB29A2&assignmentId=6001f120-dd83-4d1f-879b-b44698aa2b3c&projectId=a9f3d40c-5730-405c-b25e-1034c4c56f3f","4F8701E5339B4A7FBEB1C68BC4DB29A2-2025-08-07-19-00-33","","null","","images/semantic_sequence/physical_activity_semantic/physical_activity_semantic_2.png","null","",""
"","","","","","image-button-response","44","222328","0.0-10.0-1.0-1.6","4F8701E5339B4A7FBEB1C68BC4DB29A2","4F8701E5339B4A7FBEB1C68BC4DB29A2","6001f120-dd83-4d1f-879b-b44698aa2b3c","a9f3d40c-5730-405c-b25e-1034c4c56f3f","{""num_scrambled_semantic"":""8"",""num_scrambled_causal"":""4"",""num_scrambled_schematic"":""4"",""participantId"":""4F8701E5339B4A7FBEB1C68BC4DB29A2"",""assignmentId"":""6001f120-dd83-4d1f-879b-b44698aa2b3c"",""projectId"":""a9f3d40c-5730-405c-b25e-1034c4c56f3f""}","https://test12345.live/?num_scrambled_semantic=8&num_scrambled_causal=4&num_scrambled_schematic=4&participantId=4F8701E5339B4A7FBEB1C68BC4DB29A2&assignmentId=6001f120-dd83-4d1f-879b-b44698aa2b3c&projectId=a9f3d40c-5730-405c-b25e-1034c4c56f3f","4F8701E5339B4A7FBEB1C68BC4DB29A2-2025-08-07-19-00-33","","2134","","images/semantic_sequence/physical_activity_semantic/physical_activity_semantic_2.png","0","",""
"","","","","","image-button-response","45","224143","0.0-10.0-1.0-2.6","4F8701E5339B4A7FBEB1C68BC4DB29A2","4F8701E5339B4A7FBEB1C68BC4DB29A2","6001f120-dd83-4d1f-879b-b44698aa2b3c","a9f3d40c-5730-405c-b25e-1034c4c56f3f","{""num_scrambled_semantic"":""8"",""num_scrambled_causal"":""4"",""num_scrambled_schematic"":""4"",""participantId"":""4F8701E5339B4A7FBEB1C68BC4DB29A2"",""assignmentId"":""6001f120-dd83-4d1f-879b-b44698aa2b3c"",""projectId"":""a9f3d40c-5730-405c-b25e-1034c4c56f3f""}","https://test12345.live/?num_scrambled_semantic=8&num_scrambled_causal=4&num_scrambled_schematic=4&participantId=4F8701E5339B4A7FBEB1C68BC4DB29A2&assignmentId=6001f120-dd83-4d1f-879b-b44698aa2b3c&projectId=a9f3d40c-5730-405c-b25e-1034c4c56f3f","4F8701E5339B4A7FBEB1C68BC4DB29A2-2025-08-07-19-00-33","","null","","[]","null","",""
"","","","","","image-button-response","46","228659","0.0-10.0-1.0-0.7","4F8701E5339B4A7FBEB1C68BC4DB29A2","4F8701E5339B4A7FBEB1C68BC4DB29A2","6001f120-dd83-4d1f-879b-b44698aa2b3c","a9f3d40c-5730-405c-b25e-1034c4c56f3f","{""num_scrambled_semantic"":""8"",""num_scrambled_causal"":""4"",""num_scrambled_schematic"":""4"",""participantId"":""4F8701E5339B4A7FBEB1C68BC4DB29A2"",""assignmentId"":""6001f120-dd83-4d1f-879b-b44698aa2b3c"",""projectId"":""a9f3d40c-5730-405c-b25e-1034c4c56f3f""}","https://test12345.live/?num_scrambled_semantic=8&num_scrambled_causal=4&num_scrambled_schematic=4&participantId=4F8701E5339B4A7FBEB1C68BC4DB29A2&assignmentId=6001f120-dd83-4d1f-879b-b44698aa2b3c&projectId=a9f3d40c-5730-405c-b25e-1034c4c56f3f","4F8701E5339B4A7FBEB1C68BC4DB29A2-2025-08-07-19-00-33","","null","","images/semantic_sequence/physical_activity_semantic/physical_activity_semantic_ten.png","null","",""
"","","","","","image-button-response","47","229901","0.0-10.0-1.0-1.7","4F8701E5339B4A7FBEB1C68BC4DB29A2","4F8701E5339B4A7FBEB1C68BC4DB29A2","6001f120-dd83-4d1f-879b-b44698aa2b3c","a9f3d40c-5730-405c-b25e-1034c4c56f3f","{""num_scrambled_semantic"":""8"",""num_scrambled_causal"":""4"",""num_scrambled_schematic"":""4"",""participantId"":""4F8701E5339B4A7FBEB1C68BC4DB29A2"",""assignmentId"":""6001f120-dd83-4d1f-879b-b44698aa2b3c"",""projectId"":""a9f3d40c-5730-405c-b25e-1034c4c56f3f""}","https://test12345.live/?num_scrambled_semantic=8&num_scrambled_causal=4&num_scrambled_schematic=4&participantId=4F8701E5339B4A7FBEB1C68BC4DB29A2&assignmentId=6001f120-dd83-4d1f-879b-b44698aa2b3c&projectId=a9f3d40c-5730-405c-b25e-1034c4c56f3f","4F8701E5339B4A7FBEB1C68BC4DB29A2-2025-08-07-19-00-33","","1240","","images/semantic_sequence/physical_activity_semantic/physical_activity_semantic_ten.png","0","",""
"","","","","","image-button-response","48","231703","0.0-10.0-1.0-2.7","4F8701E5339B4A7FBEB1C68BC4DB29A2","4F8701E5339B4A7FBEB1C68BC4DB29A2","6001f120-dd83-4d1f-879b-b44698aa2b3c","a9f3d40c-5730-405c-b25e-1034c4c56f3f","{""num_scrambled_semantic"":""8"",""num_scrambled_causal"":""4"",""num_scrambled_schematic"":""4"",""participantId"":""4F8701E5339B4A7FBEB1C68BC4DB29A2"",""assignmentId"":""6001f120-dd83-4d1f-879b-b44698aa2b3c"",""projectId"":""a9f3d40c-5730-405c-b25e-1034c4c56f3f""}","https://test12345.live/?num_scrambled_semantic=8&num_scrambled_causal=4&num_scrambled_schematic=4&participantId=4F8701E5339B4A7FBEB1C68BC4DB29A2&assignmentId=6001f120-dd83-4d1f-879b-b44698aa2b3c&projectId=a9f3d40c-5730-405c-b25e-1034c4c56f3f","4F8701E5339B4A7FBEB1C68BC4DB29A2-2025-08-07-19-00-33","","null","","[]","null","",""
"","","","","","image-button-response","49","236208","0.0-10.0-1.0-0.8","4F8701E5339B4A7FBEB1C68BC4DB29A2","4F8701E5339B4A7FBEB1C68BC4DB29A2","6001f120-dd83-4d1f-879b-b44698aa2b3c","a9f3d40c-5730-405c-b25e-1034c4c56f3f","{""num_scrambled_semantic"":""8"",""num_scrambled_causal"":""4"",""num_scrambled_schematic"":""4"",""participantId"":""4F8701E5339B4A7FBEB1C68BC4DB29A2"",""assignmentId"":""6001f120-dd83-4d1f-879b-b44698aa2b3c"",""projectId"":""a9f3d40c-5730-405c-b25e-1034c4c56f3f""}","https://test12345.live/?num_scrambled_semantic=8&num_scrambled_causal=4&num_scrambled_schematic=4&participantId=4F8701E5339B4A7FBEB1C68BC4DB29A2&assignmentId=6001f120-dd83-4d1f-879b-b44698aa2b3c&projectId=a9f3d40c-5730-405c-b25e-1034c4c56f3f","4F8701E5339B4A7FBEB1C68BC4DB29A2-2025-08-07-19-00-33","","null","","images/semantic_sequence/physical_activity_semantic/physical_activity_semantic_3.png","null","",""
"","","","","","image-button-response","50","236818","0.0-10.0-1.0-1.8","4F8701E5339B4A7FBEB1C68BC4DB29A2","4F8701E5339B4A7FBEB1C68BC4DB29A2","6001f120-dd83-4d1f-879b-b44698aa2b3c","a9f3d40c-5730-405c-b25e-1034c4c56f3f","{""num_scrambled_semantic"":""8"",""num_scrambled_causal"":""4"",""num_scrambled_schematic"":""4"",""participantId"":""4F8701E5339B4A7FBEB1C68BC4DB29A2"",""assignmentId"":""6001f120-dd83-4d1f-879b-b44698aa2b3c"",""projectId"":""a9f3d40c-5730-405c-b25e-1034c4c56f3f""}","https://test12345.live/?num_scrambled_semantic=8&num_scrambled_causal=4&num_scrambled_schematic=4&participantId=4F8701E5339B4A7FBEB1C68BC4DB29A2&assignmentId=6001f120-dd83-4d1f-879b-b44698aa2b3c&projectId=a9f3d40c-5730-405c-b25e-1034c4c56f3f","4F8701E5339B4A7FBEB1C68BC4DB29A2-2025-08-07-19-00-33","","609","","images/semantic_sequence/physical_activity_semantic/physical_activity_semantic_3.png","0","",""
"","","","","","image-button-response","51","238631","0.0-10.0-1.0-2.8","4F8701E5339B4A7FBEB1C68BC4DB29A2","4F8701E5339B4A7FBEB1C68BC4DB29A2","6001f120-dd83-4d1f-879b-b44698aa2b3c","a9f3d40c-5730-405c-b25e-1034c4c56f3f","{""num_scrambled_semantic"":""8"",""num_scrambled_causal"":""4"",""num_scrambled_schematic"":""4"",""participantId"":""4F8701E5339B4A7FBEB1C68BC4DB29A2"",""assignmentId"":""6001f120-dd83-4d1f-879b-b44698aa2b3c"",""projectId"":""a9f3d40c-5730-405c-b25e-1034c4c56f3f""}","https://test12345.live/?num_scrambled_semantic=8&num_scrambled_causal=4&num_scrambled_schematic=4&participantId=4F8701E5339B4A7FBEB1C68BC4DB29A2&assignmentId=6001f120-dd83-4d1f-879b-b44698aa2b3c&projectId=a9f3d40c-5730-405c-b25e-1034c4c56f3f","4F8701E5339B4A7FBEB1C68BC4DB29A2-2025-08-07-19-00-33","","null","","[]","null","",""
"","","","","","image-button-response","52","243133","0.0-10.0-1.0-0.9","4F8701E5339B4A7FBEB1C68BC4DB29A2","4F8701E5339B4A7FBEB1C68BC4DB29A2","6001f120-dd83-4d1f-879b-b44698aa2b3c","a9f3d40c-5730-405c-b25e-1034c4c56f3f","{""num_scrambled_semantic"":""8"",""num_scrambled_causal"":""4"",""num_scrambled_schematic"":""4"",""participantId"":""4F8701E5339B4A7FBEB1C68BC4DB29A2"",""assignmentId"":""6001f120-dd83-4d1f-879b-b44698aa2b3c"",""projectId"":""a9f3d40c-5730-405c-b25e-1034c4c56f3f""}","https://test12345.live/?num_scrambled_semantic=8&num_scrambled_causal=4&num_scrambled_schematic=4&participantId=4F8701E5339B4A7FBEB1C68BC4DB29A2&assignmentId=6001f120-dd83-4d1f-879b-b44698aa2b3c&projectId=a9f3d40c-5730-405c-b25e-1034c4c56f3f","4F8701E5339B4A7FBEB1C68BC4DB29A2-2025-08-07-19-00-33","","null","","images/semantic_sequence/physical_activity_semantic/physical_activity_semantic_9.png","null","",""
"","","","","","image-button-response","53","243740","0.0-10.0-1.0-1.9","4F8701E5339B4A7FBEB1C68BC4DB29A2","4F8701E5339B4A7FBEB1C68BC4DB29A2","6001f120-dd83-4d1f-879b-b44698aa2b3c","a9f3d40c-5730-405c-b25e-1034c4c56f3f","{""num_scrambled_semantic"":""8"",""num_scrambled_causal"":""4"",""num_scrambled_schematic"":""4"",""participantId"":""4F8701E5339B4A7FBEB1C68BC4DB29A2"",""assignmentId"":""6001f120-dd83-4d1f-879b-b44698aa2b3c"",""projectId"":""a9f3d40c-5730-405c-b25e-1034c4c56f3f""}","https://test12345.live/?num_scrambled_semantic=8&num_scrambled_causal=4&num_scrambled_schematic=4&participantId=4F8701E5339B4A7FBEB1C68BC4DB29A2&assignmentId=6001f120-dd83-4d1f-879b-b44698aa2b3c&projectId=a9f3d40c-5730-405c-b25e-1034c4c56f3f","4F8701E5339B4A7FBEB1C68BC4DB29A2-2025-08-07-19-00-33","","606","","images/semantic_sequence/physical_activity_semantic/physical_activity_semantic_9.png","0","",""
"","","","","","image-button-response","54","245545","0.0-10.0-1.0-2.9","4F8701E5339B4A7FBEB1C68BC4DB29A2","4F8701E5339B4A7FBEB1C68BC4DB29A2","6001f120-dd83-4d1f-879b-b44698aa2b3c","a9f3d40c-5730-405c-b25e-1034c4c56f3f","{""num_scrambled_semantic"":""8"",""num_scrambled_causal"":""4"",""num_scrambled_schematic"":""4"",""participantId"":""4F8701E5339B4A7FBEB1C68BC4DB29A2"",""assignmentId"":""6001f120-dd83-4d1f-879b-b44698aa2b3c"",""projectId"":""a9f3d40c-5730-405c-b25e-1034c4c56f3f""}","https://test12345.live/?num_scrambled_semantic=8&num_scrambled_causal=4&num_scrambled_schematic=4&participantId=4F8701E5339B4A7FBEB1C68BC4DB29A2&assignmentId=6001f120-dd83-4d1f-879b-b44698aa2b3c&projectId=a9f3d40c-5730-405c-b25e-1034c4c56f3f","4F8701E5339B4A7FBEB1C68BC4DB29A2-2025-08-07-19-00-33","","null","","[]","null","",""
"","","","","","html-audio-response","55","267575","0.0-11.0","4F8701E5339B4A7FBEB1C68BC4DB29A2","4F8701E5339B4A7FBEB1C68BC4DB29A2","6001f120-dd83-4d1f-879b-b44698aa2b3c","a9f3d40c-5730-405c-b25e-1034c4c56f3f","{""num_scrambled_semantic"":""8"",""num_scrambled_causal"":""4"",""num_scrambled_schematic"":""4"",""participantId"":""4F8701E5339B4A7FBEB1C68BC4DB29A2"",""assignmentId"":""6001f120-dd83-4d1f-879b-b44698aa2b3c"",""projectId"":""a9f3d40c-5730-405c-b25e-1034c4c56f3f""}","https://test12345.live/?num_scrambled_semantic=8&num_scrambled_causal=4&num_scrambled_schematic=4&participantId=4F8701E5339B4A7FBEB1C68BC4DB29A2&assignmentId=6001f120-dd83-4d1f-879b-b44698aa2b3c&projectId=a9f3d40c-5730-405c-b25e-1034c4c56f3f","4F8701E5339B4A7FBEB1C68BC4DB29A2-2025-08-07-19-00-33","","20869","","[""<span style=\""color: red; font-size: 24px\""> NOW RECORDING</span><p>Please say out loud all the images you saw, as many as you can remember. The images can be said in any order.</p>""]","","2","physical_activity_semantic"
"","","","","","image-button-response","56","273591","0.0-12.0-0.0","4F8701E5339B4A7FBEB1C68BC4DB29A2","4F8701E5339B4A7FBEB1C68BC4DB29A2","6001f120-dd83-4d1f-879b-b44698aa2b3c","a9f3d40c-5730-405c-b25e-1034c4c56f3f","{""num_scrambled_semantic"":""8"",""num_scrambled_causal"":""4"",""num_scrambled_schematic"":""4"",""participantId"":""4F8701E5339B4A7FBEB1C68BC4DB29A2"",""assignmentId"":""6001f120-dd83-4d1f-879b-b44698aa2b3c"",""projectId"":""a9f3d40c-5730-405c-b25e-1034c4c56f3f""}","https://test12345.live/?num_scrambled_semantic=8&num_scrambled_causal=4&num_scrambled_schematic=4&participantId=4F8701E5339B4A7FBEB1C68BC4DB29A2&assignmentId=6001f120-dd83-4d1f-879b-b44698aa2b3c&projectId=a9f3d40c-5730-405c-b25e-1034c4c56f3f","4F8701E5339B4A7FBEB1C68BC4DB29A2-2025-08-07-19-00-33","","null","","images/causal_sequence/dog_causal/dog_causal_0.png","null","",""
"","","","","","image-button-response","57","278096","0.0-12.0-1.0-0.0","4F8701E5339B4A7FBEB1C68BC4DB29A2","4F8701E5339B4A7FBEB1C68BC4DB29A2","6001f120-dd83-4d1f-879b-b44698aa2b3c","a9f3d40c-5730-405c-b25e-1034c4c56f3f","{""num_scrambled_semantic"":""8"",""num_scrambled_causal"":""4"",""num_scrambled_schematic"":""4"",""participantId"":""4F8701E5339B4A7FBEB1C68BC4DB29A2"",""assignmentId"":""6001f120-dd83-4d1f-879b-b44698aa2b3c"",""projectId"":""a9f3d40c-5730-405c-b25e-1034c4c56f3f""}","https://test12345.live/?num_scrambled_semantic=8&num_scrambled_causal=4&num_scrambled_schematic=4&participantId=4F8701E5339B4A7FBEB1C68BC4DB29A2&assignmentId=6001f120-dd83-4d1f-879b-b44698aa2b3c&projectId=a9f3d40c-5730-405c-b25e-1034c4c56f3f","4F8701E5339B4A7FBEB1C68BC4DB29A2-2025-08-07-19-00-33","","null","","images/causal_sequence/dog_causal/dog_causal_3.png","null","",""
"","","","","","image-button-response","58","279394","0.0-12.0-1.0-1.0","4F8701E5339B4A7FBEB1C68BC4DB29A2","4F8701E5339B4A7FBEB1C68BC4DB29A2","6001f120-dd83-4d1f-879b-b44698aa2b3c","a9f3d40c-5730-405c-b25e-1034c4c56f3f","{""num_scrambled_semantic"":""8"",""num_scrambled_causal"":""4"",""num_scrambled_schematic"":""4"",""participantId"":""4F8701E5339B4A7FBEB1C68BC4DB29A2"",""assignmentId"":""6001f120-dd83-4d1f-879b-b44698aa2b3c"",""projectId"":""a9f3d40c-5730-405c-b25e-1034c4c56f3f""}","https://test12345.live/?num_scrambled_semantic=8&num_scrambled_causal=4&num_scrambled_schematic=4&participantId=4F8701E5339B4A7FBEB1C68BC4DB29A2&assignmentId=6001f120-dd83-4d1f-879b-b44698aa2b3c&projectId=a9f3d40c-5730-405c-b25e-1034c4c56f3f","4F8701E5339B4A7FBEB1C68BC4DB29A2-2025-08-07-19-00-33","","1297","","images/causal_sequence/dog_causal/dog_causal_3.png","0","",""
"","","","","","image-button-response","59","281202","0.0-12.0-1.0-2.0","4F8701E5339B4A7FBEB1C68BC4DB29A2","4F8701E5339B4A7FBEB1C68BC4DB29A2","6001f120-dd83-4d1f-879b-b44698aa2b3c","a9f3d40c-5730-405c-b25e-1034c4c56f3f","{""num_scrambled_semantic"":""8"",""num_scrambled_causal"":""4"",""num_scrambled_schematic"":""4"",""participantId"":""4F8701E5339B4A7FBEB1C68BC4DB29A2"",""assignmentId"":""6001f120-dd83-4d1f-879b-b44698aa2b3c"",""projectId"":""a9f3d40c-5730-405c-b25e-1034c4c56f3f""}","https://test12345.live/?num_scrambled_semantic=8&num_scrambled_causal=4&num_scrambled_schematic=4&participantId=4F8701E5339B4A7FBEB1C68BC4DB29A2&assignmentId=6001f120-dd83-4d1f-879b-b44698aa2b3c&projectId=a9f3d40c-5730-405c-b25e-1034c4c56f3f","4F8701E5339B4A7FBEB1C68BC4DB29A2-2025-08-07-19-00-33","","null","","[]","null","",""
"","","","","","image-button-response","60","285711","0.0-12.0-1.0-0.1","4F8701E5339B4A7FBEB1C68BC4DB29A2","4F8701E5339B4A7FBEB1C68BC4DB29A2","6001f120-dd83-4d1f-879b-b44698aa2b3c","a9f3d40c-5730-405c-b25e-1034c4c56f3f","{""num_scrambled_semantic"":""8"",""num_scrambled_causal"":""4"",""num_scrambled_schematic"":""4"",""participantId"":""4F8701E5339B4A7FBEB1C68BC4DB29A2"",""assignmentId"":""6001f120-dd83-4d1f-879b-b44698aa2b3c"",""projectId"":""a9f3d40c-5730-405c-b25e-1034c4c56f3f""}","https://test12345.live/?num_scrambled_semantic=8&num_scrambled_causal=4&num_scrambled_schematic=4&participantId=4F8701E5339B4A7FBEB1C68BC4DB29A2&assignmentId=6001f120-dd83-4d1f-879b-b44698aa2b3c&projectId=a9f3d40c-5730-405c-b25e-1034c4c56f3f","4F8701E5339B4A7FBEB1C68BC4DB29A2-2025-08-07-19-00-33","","null","","images/causal_sequence/dog_causal/dog_causal_5.png","null","",""
"","","","","","image-button-response","61","288856","0.0-12.0-1.0-1.1","4F8701E5339B4A7FBEB1C68BC4DB29A2","4F8701E5339B4A7FBEB1C68BC4DB29A2","6001f120-dd83-4d1f-879b-b44698aa2b3c","a9f3d40c-5730-405c-b25e-1034c4c56f3f","{""num_scrambled_semantic"":""8"",""num_scrambled_causal"":""4"",""num_scrambled_schematic"":""4"",""participantId"":""4F8701E5339B4A7FBEB1C68BC4DB29A2"",""assignmentId"":""6001f120-dd83-4d1f-879b-b44698aa2b3c"",""projectId"":""a9f3d40c-5730-405c-b25e-1034c4c56f3f""}","https://test12345.live/?num_scrambled_semantic=8&num_scrambled_causal=4&num_scrambled_schematic=4&participantId=4F8701E5339B4A7FBEB1C68BC4DB29A2&assignmentId=6001f120-dd83-4d1f-879b-b44698aa2b3c&projectId=a9f3d40c-5730-405c-b25e-1034c4c56f3f","4F8701E5339B4A7FBEB1C68BC4DB29A2-2025-08-07-19-00-33","","3143","","images/causal_sequence/dog_causal/dog_causal_5.png","0","",""
"","","","","","image-button-response","62","290667","0.0-12.0-1.0-2.1","4F8701E5339B4A7FBEB1C68BC4DB29A2","4F8701E5339B4A7FBEB1C68BC4DB29A2","6001f120-dd83-4d1f-879b-b44698aa2b3c","a9f3d40c-5730-405c-b25e-1034c4c56f3f","{""num_scrambled_semantic"":""8"",""num_scrambled_causal"":""4"",""num_scrambled_schematic"":""4"",""participantId"":""4F8701E5339B4A7FBEB1C68BC4DB29A2"",""assignmentId"":""6001f120-dd83-4d1f-879b-b44698aa2b3c"",""projectId"":""a9f3d40c-5730-405c-b25e-1034c4c56f3f""}","https://test12345.live/?num_scrambled_semantic=8&num_scrambled_causal=4&num_scrambled_schematic=4&participantId=4F8701E5339B4A7FBEB1C68BC4DB29A2&assignmentId=6001f120-dd83-4d1f-879b-b44698aa2b3c&projectId=a9f3d40c-5730-405c-b25e-1034c4c56f3f","4F8701E5339B4A7FBEB1C68BC4DB29A2-2025-08-07-19-00-33","","null","","[]","null","",""
"","","","","","image-button-response","63","295168","0.0-12.0-1.0-0.2","4F8701E5339B4A7FBEB1C68BC4DB29A2","4F8701E5339B4A7FBEB1C68BC4DB29A2","6001f120-dd83-4d1f-879b-b44698aa2b3c","a9f3d40c-5730-405c-b25e-1034c4c56f3f","{""num_scrambled_semantic"":""8"",""num_scrambled_causal"":""4"",""num_scrambled_schematic"":""4"",""participantId"":""4F8701E5339B4A7FBEB1C68BC4DB29A2"",""assignmentId"":""6001f120-dd83-4d1f-879b-b44698aa2b3c"",""projectId"":""a9f3d40c-5730-405c-b25e-1034c4c56f3f""}","https://test12345.live/?num_scrambled_semantic=8&num_scrambled_causal=4&num_scrambled_schematic=4&participantId=4F8701E5339B4A7FBEB1C68BC4DB29A2&assignmentId=6001f120-dd83-4d1f-879b-b44698aa2b3c&projectId=a9f3d40c-5730-405c-b25e-1034c4c56f3f","4F8701E5339B4A7FBEB1C68BC4DB29A2-2025-08-07-19-00-33","","null","","images/causal_sequence/dog_causal/dog_causal_7.png","null","",""
"","","","","","image-button-response","64","295864","0.0-12.0-1.0-1.2","4F8701E5339B4A7FBEB1C68BC4DB29A2","4F8701E5339B4A7FBEB1C68BC4DB29A2","6001f120-dd83-4d1f-879b-b44698aa2b3c","a9f3d40c-5730-405c-b25e-1034c4c56f3f","{""num_scrambled_semantic"":""8"",""num_scrambled_causal"":""4"",""num_scrambled_schematic"":""4"",""participantId"":""4F8701E5339B4A7FBEB1C68BC4DB29A2"",""assignmentId"":""6001f120-dd83-4d1f-879b-b44698aa2b3c"",""projectId"":""a9f3d40c-5730-405c-b25e-1034c4c56f3f""}","https://test12345.live/?num_scrambled_semantic=8&num_scrambled_causal=4&num_scrambled_schematic=4&participantId=4F8701E5339B4A7FBEB1C68BC4DB29A2&assignmentId=6001f120-dd83-4d1f-879b-b44698aa2b3c&projectId=a9f3d40c-5730-405c-b25e-1034c4c56f3f","4F8701E5339B4A7FBEB1C68BC4DB29A2-2025-08-07-19-00-33","","695","","images/causal_sequence/dog_causal/dog_causal_7.png","0","",""
"","","","","","image-button-response","65","297676","0.0-12.0-1.0-2.2","4F8701E5339B4A7FBEB1C68BC4DB29A2","4F8701E5339B4A7FBEB1C68BC4DB29A2","6001f120-dd83-4d1f-879b-b44698aa2b3c","a9f3d40c-5730-405c-b25e-1034c4c56f3f","{""num_scrambled_semantic"":""8"",""num_scrambled_causal"":""4"",""num_scrambled_schematic"":""4"",""participantId"":""4F8701E5339B4A7FBEB1C68BC4DB29A2"",""assignmentId"":""6001f120-dd83-4d1f-879b-b44698aa2b3c"",""projectId"":""a9f3d40c-5730-405c-b25e-1034c4c56f3f""}","https://test12345.live/?num_scrambled_semantic=8&num_scrambled_causal=4&num_scrambled_schematic=4&participantId=4F8701E5339B4A7FBEB1C68BC4DB29A2&assignmentId=6001f120-dd83-4d1f-879b-b44698aa2b3c&projectId=a9f3d40c-5730-405c-b25e-1034c4c56f3f","4F8701E5339B4A7FBEB1C68BC4DB29A2-2025-08-07-19-00-33","","null","","[]","null","",""
"","","","","","image-button-response","66","302178","0.0-12.0-1.0-0.3","4F8701E5339B4A7FBEB1C68BC4DB29A2","4F8701E5339B4A7FBEB1C68BC4DB29A2","6001f120-dd83-4d1f-879b-b44698aa2b3c","a9f3d40c-5730-405c-b25e-1034c4c56f3f","{""num_scrambled_semantic"":""8"",""num_scrambled_causal"":""4"",""num_scrambled_schematic"":""4"",""participantId"":""4F8701E5339B4A7FBEB1C68BC4DB29A2"",""assignmentId"":""6001f120-dd83-4d1f-879b-b44698aa2b3c"",""projectId"":""a9f3d40c-5730-405c-b25e-1034c4c56f3f""}","https://test12345.live/?num_scrambled_semantic=8&num_scrambled_causal=4&num_scrambled_schematic=4&participantId=4F8701E5339B4A7FBEB1C68BC4DB29A2&assignmentId=6001f120-dd83-4d1f-879b-b44698aa2b3c&projectId=a9f3d40c-5730-405c-b25e-1034c4c56f3f","4F8701E5339B4A7FBEB1C68BC4DB29A2-2025-08-07-19-00-33","","null","","images/causal_sequence/dog_causal/dog_causal_ten.png","null","",""
"","","","","","image-button-response","67","306180","0.0-12.0-1.0-1.3","4F8701E5339B4A7FBEB1C68BC4DB29A2","4F8701E5339B4A7FBEB1C68BC4DB29A2","6001f120-dd83-4d1f-879b-b44698aa2b3c","a9f3d40c-5730-405c-b25e-1034c4c56f3f","{""num_scrambled_semantic"":""8"",""num_scrambled_causal"":""4"",""num_scrambled_schematic"":""4"",""participantId"":""4F8701E5339B4A7FBEB1C68BC4DB29A2"",""assignmentId"":""6001f120-dd83-4d1f-879b-b44698aa2b3c"",""projectId"":""a9f3d40c-5730-405c-b25e-1034c4c56f3f""}","https://test12345.live/?num_scrambled_semantic=8&num_scrambled_causal=4&num_scrambled_schematic=4&participantId=4F8701E5339B4A7FBEB1C68BC4DB29A2&assignmentId=6001f120-dd83-4d1f-879b-b44698aa2b3c&projectId=a9f3d40c-5730-405c-b25e-1034c4c56f3f","4F8701E5339B4A7FBEB1C68BC4DB29A2-2025-08-07-19-00-33","","null","","images/causal_sequence/dog_causal/dog_causal_ten.png","null","",""
"","","","","","image-button-response","68","307996","0.0-12.0-1.0-2.3","4F8701E5339B4A7FBEB1C68BC4DB29A2","4F8701E5339B4A7FBEB1C68BC4DB29A2","6001f120-dd83-4d1f-879b-b44698aa2b3c","a9f3d40c-5730-405c-b25e-1034c4c56f3f","{""num_scrambled_semantic"":""8"",""num_scrambled_causal"":""4"",""num_scrambled_schematic"":""4"",""participantId"":""4F8701E5339B4A7FBEB1C68BC4DB29A2"",""assignmentId"":""6001f120-dd83-4d1f-879b-b44698aa2b3c"",""projectId"":""a9f3d40c-5730-405c-b25e-1034c4c56f3f""}","https://test12345.live/?num_scrambled_semantic=8&num_scrambled_causal=4&num_scrambled_schematic=4&participantId=4F8701E5339B4A7FBEB1C68BC4DB29A2&assignmentId=6001f120-dd83-4d1f-879b-b44698aa2b3c&projectId=a9f3d40c-5730-405c-b25e-1034c4c56f3f","4F8701E5339B4A7FBEB1C68BC4DB29A2-2025-08-07-19-00-33","","null","","[]","null","",""
"","","","","","image-button-response","69","312503","0.0-12.0-1.0-0.4","4F8701E5339B4A7FBEB1C68BC4DB29A2","4F8701E5339B4A7FBEB1C68BC4DB29A2","6001f120-dd83-4d1f-879b-b44698aa2b3c","a9f3d40c-5730-405c-b25e-1034c4c56f3f","{""num_scrambled_semantic"":""8"",""num_scrambled_causal"":""4"",""num_scrambled_schematic"":""4"",""participantId"":""4F8701E5339B4A7FBEB1C68BC4DB29A2"",""assignmentId"":""6001f120-dd83-4d1f-879b-b44698aa2b3c"",""projectId"":""a9f3d40c-5730-405c-b25e-1034c4c56f3f""}","https://test12345.live/?num_scrambled_semantic=8&num_scrambled_causal=4&num_scrambled_schematic=4&participantId=4F8701E5339B4A7FBEB1C68BC4DB29A2&assignmentId=6001f120-dd83-4d1f-879b-b44698aa2b3c&projectId=a9f3d40c-5730-405c-b25e-1034c4c56f3f","4F8701E5339B4A7FBEB1C68BC4DB29A2-2025-08-07-19-00-33","","null","","images/causal_sequence/dog_causal/dog_causal_9.png","null","",""
"","","","","","image-button-response","70","314288","0.0-12.0-1.0-1.4","4F8701E5339B4A7FBEB1C68BC4DB29A2","4F8701E5339B4A7FBEB1C68BC4DB29A2","6001f120-dd83-4d1f-879b-b44698aa2b3c","a9f3d40c-5730-405c-b25e-1034c4c56f3f","{""num_scrambled_semantic"":""8"",""num_scrambled_causal"":""4"",""num_scrambled_schematic"":""4"",""participantId"":""4F8701E5339B4A7FBEB1C68BC4DB29A2"",""assignmentId"":""6001f120-dd83-4d1f-879b-b44698aa2b3c"",""projectId"":""a9f3d40c-5730-405c-b25e-1034c4c56f3f""}","https://test12345.live/?num_scrambled_semantic=8&num_scrambled_causal=4&num_scrambled_schematic=4&participantId=4F8701E5339B4A7FBEB1C68BC4DB29A2&assignmentId=6001f120-dd83-4d1f-879b-b44698aa2b3c&projectId=a9f3d40c-5730-405c-b25e-1034c4c56f3f","4F8701E5339B4A7FBEB1C68BC4DB29A2-2025-08-07-19-00-33","","1784","","images/causal_sequence/dog_causal/dog_causal_9.png","0","",""
"","","","","","image-button-response","71","316095","0.0-12.0-1.0-2.4","4F8701E5339B4A7FBEB1C68BC4DB29A2","4F8701E5339B4A7FBEB1C68BC4DB29A2","6001f120-dd83-4d1f-879b-b44698aa2b3c","a9f3d40c-5730-405c-b25e-1034c4c56f3f","{""num_scrambled_semantic"":""8"",""num_scrambled_causal"":""4"",""num_scrambled_schematic"":""4"",""participantId"":""4F8701E5339B4A7FBEB1C68BC4DB29A2"",""assignmentId"":""6001f120-dd83-4d1f-879b-b44698aa2b3c"",""projectId"":""a9f3d40c-5730-405c-b25e-1034c4c56f3f""}","https://test12345.live/?num_scrambled_semantic=8&num_scrambled_causal=4&num_scrambled_schematic=4&participantId=4F8701E5339B4A7FBEB1C68BC4DB29A2&assignmentId=6001f120-dd83-4d1f-879b-b44698aa2b3c&projectId=a9f3d40c-5730-405c-b25e-1034c4c56f3f","4F8701E5339B4A7FBEB1C68BC4DB29A2-2025-08-07-19-00-33","","null","","[]","null","",""
"","","","","","image-button-response","72","320598","0.0-12.0-1.0-0.5","4F8701E5339B4A7FBEB1C68BC4DB29A2","4F8701E5339B4A7FBEB1C68BC4DB29A2","6001f120-dd83-4d1f-879b-b44698aa2b3c","a9f3d40c-5730-405c-b25e-1034c4c56f3f","{""num_scrambled_semantic"":""8"",""num_scrambled_causal"":""4"",""num_scrambled_schematic"":""4"",""participantId"":""4F8701E5339B4A7FBEB1C68BC4DB29A2"",""assignmentId"":""6001f120-dd83-4d1f-879b-b44698aa2b3c"",""projectId"":""a9f3d40c-5730-405c-b25e-1034c4c56f3f""}","https://test12345.live/?num_scrambled_semantic=8&num_scrambled_causal=4&num_scrambled_schematic=4&participantId=4F8701E5339B4A7FBEB1C68BC4DB29A2&assignmentId=6001f120-dd83-4d1f-879b-b44698aa2b3c&projectId=a9f3d40c-5730-405c-b25e-1034c4c56f3f","4F8701E5339B4A7FBEB1C68BC4DB29A2-2025-08-07-19-00-33","","null","","images/causal_sequence/dog_causal/dog_causal_4.png","null","",""
"","","","","","image-button-response","73","322199","0.0-12.0-1.0-1.5","4F8701E5339B4A7FBEB1C68BC4DB29A2","4F8701E5339B4A7FBEB1C68BC4DB29A2","6001f120-dd83-4d1f-879b-b44698aa2b3c","a9f3d40c-5730-405c-b25e-1034c4c56f3f","{""num_scrambled_semantic"":""8"",""num_scrambled_causal"":""4"",""num_scrambled_schematic"":""4"",""participantId"":""4F8701E5339B4A7FBEB1C68BC4DB29A2"",""assignmentId"":""6001f120-dd83-4d1f-879b-b44698aa2b3c"",""projectId"":""a9f3d40c-5730-405c-b25e-1034c4c56f3f""}","https://test12345.live/?num_scrambled_semantic=8&num_scrambled_causal=4&num_scrambled_schematic=4&participantId=4F8701E5339B4A7FBEB1C68BC4DB29A2&assignmentId=6001f120-dd83-4d1f-879b-b44698aa2b3c&projectId=a9f3d40c-5730-405c-b25e-1034c4c56f3f","4F8701E5339B4A7FBEB1C68BC4DB29A2-2025-08-07-19-00-33","","1599","","images/causal_sequence/dog_causal/dog_causal_4.png","0","",""
"","","","","","image-button-response","74","324002","0.0-12.0-1.0-2.5","4F8701E5339B4A7FBEB1C68BC4DB29A2","4F8701E5339B4A7FBEB1C68BC4DB29A2","6001f120-dd83-4d1f-879b-b44698aa2b3c","a9f3d40c-5730-405c-b25e-1034c4c56f3f","{""num_scrambled_semantic"":""8"",""num_scrambled_causal"":""4"",""num_scrambled_schematic"":""4"",""participantId"":""4F8701E5339B4A7FBEB1C68BC4DB29A2"",""assignmentId"":""6001f120-dd83-4d1f-879b-b44698aa2b3c"",""projectId"":""a9f3d40c-5730-405c-b25e-1034c4c56f3f""}","https://test12345.live/?num_scrambled_semantic=8&num_scrambled_causal=4&num_scrambled_schematic=4&participantId=4F8701E5339B4A7FBEB1C68BC4DB29A2&assignmentId=6001f120-dd83-4d1f-879b-b44698aa2b3c&projectId=a9f3d40c-5730-405c-b25e-1034c4c56f3f","4F8701E5339B4A7FBEB1C68BC4DB29A2-2025-08-07-19-00-33","","null","","[]","null","",""
"","","","","","image-button-response","75","328508","0.0-12.0-1.0-0.6","4F8701E5339B4A7FBEB1C68BC4DB29A2","4F8701E5339B4A7FBEB1C68BC4DB29A2","6001f120-dd83-4d1f-879b-b44698aa2b3c","a9f3d40c-5730-405c-b25e-1034c4c56f3f","{""num_scrambled_semantic"":""8"",""num_scrambled_causal"":""4"",""num_scrambled_schematic"":""4"",""participantId"":""4F8701E5339B4A7FBEB1C68BC4DB29A2"",""assignmentId"":""6001f120-dd83-4d1f-879b-b44698aa2b3c"",""projectId"":""a9f3d40c-5730-405c-b25e-1034c4c56f3f""}","https://test12345.live/?num_scrambled_semantic=8&num_scrambled_causal=4&num_scrambled_schematic=4&participantId=4F8701E5339B4A7FBEB1C68BC4DB29A2&assignmentId=6001f120-dd83-4d1f-879b-b44698aa2b3c&projectId=a9f3d40c-5730-405c-b25e-1034c4c56f3f","4F8701E5339B4A7FBEB1C68BC4DB29A2-2025-08-07-19-00-33","","null","","images/causal_sequence/dog_causal/dog_causal_8.png","null","",""
"","","","","","image-button-response","76","330017","0.0-12.0-1.0-1.6","4F8701E5339B4A7FBEB1C68BC4DB29A2","4F8701E5339B4A7FBEB1C68BC4DB29A2","6001f120-dd83-4d1f-879b-b44698aa2b3c","a9f3d40c-5730-405c-b25e-1034c4c56f3f","{""num_scrambled_semantic"":""8"",""num_scrambled_causal"":""4"",""num_scrambled_schematic"":""4"",""participantId"":""4F8701E5339B4A7FBEB1C68BC4DB29A2"",""assignmentId"":""6001f120-dd83-4d1f-879b-b44698aa2b3c"",""projectId"":""a9f3d40c-5730-405c-b25e-1034c4c56f3f""}","https://test12345.live/?num_scrambled_semantic=8&num_scrambled_causal=4&num_scrambled_schematic=4&participantId=4F8701E5339B4A7FBEB1C68BC4DB29A2&assignmentId=6001f120-dd83-4d1f-879b-b44698aa2b3c&projectId=a9f3d40c-5730-405c-b25e-1034c4c56f3f","4F8701E5339B4A7FBEB1C68BC4DB29A2-2025-08-07-19-00-33","","1508","","images/causal_sequence/dog_causal/dog_causal_8.png","0","",""
"","","","","","image-button-response","77","331833","0.0-12.0-1.0-2.6","4F8701E5339B4A7FBEB1C68BC4DB29A2","4F8701E5339B4A7FBEB1C68BC4DB29A2","6001f120-dd83-4d1f-879b-b44698aa2b3c","a9f3d40c-5730-405c-b25e-1034c4c56f3f","{""num_scrambled_semantic"":""8"",""num_scrambled_causal"":""4"",""num_scrambled_schematic"":""4"",""participantId"":""4F8701E5339B4A7FBEB1C68BC4DB29A2"",""assignmentId"":""6001f120-dd83-4d1f-879b-b44698aa2b3c"",""projectId"":""a9f3d40c-5730-405c-b25e-1034c4c56f3f""}","https://test12345.live/?num_scrambled_semantic=8&num_scrambled_causal=4&num_scrambled_schematic=4&participantId=4F8701E5339B4A7FBEB1C68BC4DB29A2&assignmentId=6001f120-dd83-4d1f-879b-b44698aa2b3c&projectId=a9f3d40c-5730-405c-b25e-1034c4c56f3f","4F8701E5339B4A7FBEB1C68BC4DB29A2-2025-08-07-19-00-33","","null","","[]","null","",""
"","","","","","image-button-response","78","336336","0.0-12.0-1.0-0.7","4F8701E5339B4A7FBEB1C68BC4DB29A2","4F8701E5339B4A7FBEB1C68BC4DB29A2","6001f120-dd83-4d1f-879b-b44698aa2b3c","a9f3d40c-5730-405c-b25e-1034c4c56f3f","{""num_scrambled_semantic"":""8"",""num_scrambled_causal"":""4"",""num_scrambled_schematic"":""4"",""participantId"":""4F8701E5339B4A7FBEB1C68BC4DB29A2"",""assignmentId"":""6001f120-dd83-4d1f-879b-b44698aa2b3c"",""projectId"":""a9f3d40c-5730-405c-b25e-1034c4c56f3f""}","https://test12345.live/?num_scrambled_semantic=8&num_scrambled_causal=4&num_scrambled_schematic=4&participantId=4F8701E5339B4A7FBEB1C68BC4DB29A2&assignmentId=6001f120-dd83-4d1f-879b-b44698aa2b3c&projectId=a9f3d40c-5730-405c-b25e-1034c4c56f3f","4F8701E5339B4A7FBEB1C68BC4DB29A2-2025-08-07-19-00-33","","null","","images/causal_sequence/dog_causal/dog_causal_1.png","null","",""
"","","","","","image-button-response","79","338100","0.0-12.0-1.0-1.7","4F8701E5339B4A7FBEB1C68BC4DB29A2","4F8701E5339B4A7FBEB1C68BC4DB29A2","6001f120-dd83-4d1f-879b-b44698aa2b3c","a9f3d40c-5730-405c-b25e-1034c4c56f3f","{""num_scrambled_semantic"":""8"",""num_scrambled_causal"":""4"",""num_scrambled_schematic"":""4"",""participantId"":""4F8701E5339B4A7FBEB1C68BC4DB29A2"",""assignmentId"":""6001f120-dd83-4d1f-879b-b44698aa2b3c"",""projectId"":""a9f3d40c-5730-405c-b25e-1034c4c56f3f""}","https://test12345.live/?num_scrambled_semantic=8&num_scrambled_causal=4&num_scrambled_schematic=4&participantId=4F8701E5339B4A7FBEB1C68BC4DB29A2&assignmentId=6001f120-dd83-4d1f-879b-b44698aa2b3c&projectId=a9f3d40c-5730-405c-b25e-1034c4c56f3f","4F8701E5339B4A7FBEB1C68BC4DB29A2-2025-08-07-19-00-33","","1763","","images/causal_sequence/dog_causal/dog_causal_1.png","0","",""
"","","","","","image-button-response","80","339905","0.0-12.0-1.0-2.7","4F8701E5339B4A7FBEB1C68BC4DB29A2","4F8701E5339B4A7FBEB1C68BC4DB29A2","6001f120-dd83-4d1f-879b-b44698aa2b3c","a9f3d40c-5730-405c-b25e-1034c4c56f3f","{""num_scrambled_semantic"":""8"",""num_scrambled_causal"":""4"",""num_scrambled_schematic"":""4"",""participantId"":""4F8701E5339B4A7FBEB1C68BC4DB29A2"",""assignmentId"":""6001f120-dd83-4d1f-879b-b44698aa2b3c"",""projectId"":""a9f3d40c-5730-405c-b25e-1034c4c56f3f""}","https://test12345.live/?num_scrambled_semantic=8&num_scrambled_causal=4&num_scrambled_schematic=4&participantId=4F8701E5339B4A7FBEB1C68BC4DB29A2&assignmentId=6001f120-dd83-4d1f-879b-b44698aa2b3c&projectId=a9f3d40c-5730-405c-b25e-1034c4c56f3f","4F8701E5339B4A7FBEB1C68BC4DB29A2-2025-08-07-19-00-33","","null","","[]","null","",""
"","","","","","image-button-response","81","344407","0.0-12.0-1.0-0.8","4F8701E5339B4A7FBEB1C68BC4DB29A2","4F8701E5339B4A7FBEB1C68BC4DB29A2","6001f120-dd83-4d1f-879b-b44698aa2b3c","a9f3d40c-5730-405c-b25e-1034c4c56f3f","{""num_scrambled_semantic"":""8"",""num_scrambled_causal"":""4"",""num_scrambled_schematic"":""4"",""participantId"":""4F8701E5339B4A7FBEB1C68BC4DB29A2"",""assignmentId"":""6001f120-dd83-4d1f-879b-b44698aa2b3c"",""projectId"":""a9f3d40c-5730-405c-b25e-1034c4c56f3f""}","https://test12345.live/?num_scrambled_semantic=8&num_scrambled_causal=4&num_scrambled_schematic=4&participantId=4F8701E5339B4A7FBEB1C68BC4DB29A2&assignmentId=6001f120-dd83-4d1f-879b-b44698aa2b3c&projectId=a9f3d40c-5730-405c-b25e-1034c4c56f3f","4F8701E5339B4A7FBEB1C68BC4DB29A2-2025-08-07-19-00-33","","null","","images/causal_sequence/dog_causal/dog_causal_2.png","null","",""
"","","","","","image-button-response","82","345050","0.0-12.0-1.0-1.8","4F8701E5339B4A7FBEB1C68BC4DB29A2","4F8701E5339B4A7FBEB1C68BC4DB29A2","6001f120-dd83-4d1f-879b-b44698aa2b3c","a9f3d40c-5730-405c-b25e-1034c4c56f3f","{""num_scrambled_semantic"":""8"",""num_scrambled_causal"":""4"",""num_scrambled_schematic"":""4"",""participantId"":""4F8701E5339B4A7FBEB1C68BC4DB29A2"",""assignmentId"":""6001f120-dd83-4d1f-879b-b44698aa2b3c"",""projectId"":""a9f3d40c-5730-405c-b25e-1034c4c56f3f""}","https://test12345.live/?num_scrambled_semantic=8&num_scrambled_causal=4&num_scrambled_schematic=4&participantId=4F8701E5339B4A7FBEB1C68BC4DB29A2&assignmentId=6001f120-dd83-4d1f-879b-b44698aa2b3c&projectId=a9f3d40c-5730-405c-b25e-1034c4c56f3f","4F8701E5339B4A7FBEB1C68BC4DB29A2-2025-08-07-19-00-33","","642","","images/causal_sequence/dog_causal/dog_causal_2.png","0","",""
"","","","","","image-button-response","83","346864","0.0-12.0-1.0-2.8","4F8701E5339B4A7FBEB1C68BC4DB29A2","4F8701E5339B4A7FBEB1C68BC4DB29A2","6001f120-dd83-4d1f-879b-b44698aa2b3c","a9f3d40c-5730-405c-b25e-1034c4c56f3f","{""num_scrambled_semantic"":""8"",""num_scrambled_causal"":""4"",""num_scrambled_schematic"":""4"",""participantId"":""4F8701E5339B4A7FBEB1C68BC4DB29A2"",""assignmentId"":""6001f120-dd83-4d1f-879b-b44698aa2b3c"",""projectId"":""a9f3d40c-5730-405c-b25e-1034c4c56f3f""}","https://test12345.live/?num_scrambled_semantic=8&num_scrambled_causal=4&num_scrambled_schematic=4&participantId=4F8701E5339B4A7FBEB1C68BC4DB29A2&assignmentId=6001f120-dd83-4d1f-879b-b44698aa2b3c&projectId=a9f3d40c-5730-405c-b25e-1034c4c56f3f","4F8701E5339B4A7FBEB1C68BC4DB29A2-2025-08-07-19-00-33","","null","","[]","null","",""
"","","","","","image-button-response","84","351371","0.0-12.0-1.0-0.9","4F8701E5339B4A7FBEB1C68BC4DB29A2","4F8701E5339B4A7FBEB1C68BC4DB29A2","6001f120-dd83-4d1f-879b-b44698aa2b3c","a9f3d40c-5730-405c-b25e-1034c4c56f3f","{""num_scrambled_semantic"":""8"",""num_scrambled_causal"":""4"",""num_scrambled_schematic"":""4"",""participantId"":""4F8701E5339B4A7FBEB1C68BC4DB29A2"",""assignmentId"":""6001f120-dd83-4d1f-879b-b44698aa2b3c"",""projectId"":""a9f3d40c-5730-405c-b25e-1034c4c56f3f""}","https://test12345.live/?num_scrambled_semantic=8&num_scrambled_causal=4&num_scrambled_schematic=4&participantId=4F8701E5339B4A7FBEB1C68BC4DB29A2&assignmentId=6001f120-dd83-4d1f-879b-b44698aa2b3c&projectId=a9f3d40c-5730-405c-b25e-1034c4c56f3f","4F8701E5339B4A7FBEB1C68BC4DB29A2-2025-08-07-19-00-33","","null","","images/causal_sequence/dog_causal/dog_causal_6.png","null","",""
"","","","","","image-button-response","85","351911","0.0-12.0-1.0-1.9","4F8701E5339B4A7FBEB1C68BC4DB29A2","4F8701E5339B4A7FBEB1C68BC4DB29A2","6001f120-dd83-4d1f-879b-b44698aa2b3c","a9f3d40c-5730-405c-b25e-1034c4c56f3f","{""num_scrambled_semantic"":""8"",""num_scrambled_causal"":""4"",""num_scrambled_schematic"":""4"",""participantId"":""4F8701E5339B4A7FBEB1C68BC4DB29A2"",""assignmentId"":""6001f120-dd83-4d1f-879b-b44698aa2b3c"",""projectId"":""a9f3d40c-5730-405c-b25e-1034c4c56f3f""}","https://test12345.live/?num_scrambled_semantic=8&num_scrambled_causal=4&num_scrambled_schematic=4&participantId=4F8701E5339B4A7FBEB1C68BC4DB29A2&assignmentId=6001f120-dd83-4d1f-879b-b44698aa2b3c&projectId=a9f3d40c-5730-405c-b25e-1034c4c56f3f","4F8701E5339B4A7FBEB1C68BC4DB29A2-2025-08-07-19-00-33","","538","","images/causal_sequence/dog_causal/dog_causal_6.png","0","",""
"","","","","","image-button-response","86","353721","0.0-12.0-1.0-2.9","4F8701E5339B4A7FBEB1C68BC4DB29A2","4F8701E5339B4A7FBEB1C68BC4DB29A2","6001f120-dd83-4d1f-879b-b44698aa2b3c","a9f3d40c-5730-405c-b25e-1034c4c56f3f","{""num_scrambled_semantic"":""8"",""num_scrambled_causal"":""4"",""num_scrambled_schematic"":""4"",""participantId"":""4F8701E5339B4A7FBEB1C68BC4DB29A2"",""assignmentId"":""6001f120-dd83-4d1f-879b-b44698aa2b3c"",""projectId"":""a9f3d40c-5730-405c-b25e-1034c4c56f3f""}","https://test12345.live/?num_scrambled_semantic=8&num_scrambled_causal=4&num_scrambled_schematic=4&participantId=4F8701E5339B4A7FBEB1C68BC4DB29A2&assignmentId=6001f120-dd83-4d1f-879b-b44698aa2b3c&projectId=a9f3d40c-5730-405c-b25e-1034c4c56f3f","4F8701E5339B4A7FBEB1C68BC4DB29A2-2025-08-07-19-00-33","","null","","[]","null","",""
"","","","","","html-audio-response","87","378771","0.0-13.0","4F8701E5339B4A7FBEB1C68BC4DB29A2","4F8701E5339B4A7FBEB1C68BC4DB29A2","6001f120-dd83-4d1f-879b-b44698aa2b3c","a9f3d40c-5730-405c-b25e-1034c4c56f3f","{""num_scrambled_semantic"":""8"",""num_scrambled_causal"":""4"",""num_scrambled_schematic"":""4"",""participantId"":""4F8701E5339B4A7FBEB1C68BC4DB29A2"",""assignmentId"":""6001f120-dd83-4d1f-879b-b44698aa2b3c"",""projectId"":""a9f3d40c-5730-405c-b25e-1034c4c56f3f""}","https://test12345.live/?num_scrambled_semantic=8&num_scrambled_causal=4&num_scrambled_schematic=4&participantId=4F8701E5339B4A7FBEB1C68BC4DB29A2&assignmentId=6001f120-dd83-4d1f-879b-b44698aa2b3c&projectId=a9f3d40c-5730-405c-b25e-1034c4c56f3f","4F8701E5339B4A7FBEB1C68BC4DB29A2-2025-08-07-19-00-33","","23764","","[""<span style=\""color: red; font-size: 24px\""> NOW RECORDING</span><p>Please say out loud all the images you saw, as many as you can remember. The images can be said in any order.</p>""]","","2","dog_causal"
"","","","","","image-button-response","88","384790","0.0-14.0-0.0","4F8701E5339B4A7FBEB1C68BC4DB29A2","4F8701E5339B4A7FBEB1C68BC4DB29A2","6001f120-dd83-4d1f-879b-b44698aa2b3c","a9f3d40c-5730-405c-b25e-1034c4c56f3f","{""num_scrambled_semantic"":""8"",""num_scrambled_causal"":""4"",""num_scrambled_schematic"":""4"",""participantId"":""4F8701E5339B4A7FBEB1C68BC4DB29A2"",""assignmentId"":""6001f120-dd83-4d1f-879b-b44698aa2b3c"",""projectId"":""a9f3d40c-5730-405c-b25e-1034c4c56f3f""}","https://test12345.live/?num_scrambled_semantic=8&num_scrambled_causal=4&num_scrambled_schematic=4&participantId=4F8701E5339B4A7FBEB1C68BC4DB29A2&assignmentId=6001f120-dd83-4d1f-879b-b44698aa2b3c&projectId=a9f3d40c-5730-405c-b25e-1034c4c56f3f","4F8701E5339B4A7FBEB1C68BC4DB29A2-2025-08-07-19-00-33","","null","","images/semantic_sequence/housework_semantic/housework_semantic_0.png","null","",""
"","","","","","image-button-response","89","389297","0.0-14.0-1.0-0.0","4F8701E5339B4A7FBEB1C68BC4DB29A2","4F8701E5339B4A7FBEB1C68BC4DB29A2","6001f120-dd83-4d1f-879b-b44698aa2b3c","a9f3d40c-5730-405c-b25e-1034c4c56f3f","{""num_scrambled_semantic"":""8"",""num_scrambled_causal"":""4"",""num_scrambled_schematic"":""4"",""participantId"":""4F8701E5339B4A7FBEB1C68BC4DB29A2"",""assignmentId"":""6001f120-dd83-4d1f-879b-b44698aa2b3c"",""projectId"":""a9f3d40c-5730-405c-b25e-1034c4c56f3f""}","https://test12345.live/?num_scrambled_semantic=8&num_scrambled_causal=4&num_scrambled_schematic=4&participantId=4F8701E5339B4A7FBEB1C68BC4DB29A2&assignmentId=6001f120-dd83-4d1f-879b-b44698aa2b3c&projectId=a9f3d40c-5730-405c-b25e-1034c4c56f3f","4F8701E5339B4A7FBEB1C68BC4DB29A2-2025-08-07-19-00-33","","null","","images/semantic_sequence/housework_semantic/housework_semantic_8.png","null","",""
"","","","","","image-button-response","90","390988","0.0-14.0-1.0-1.0","4F8701E5339B4A7FBEB1C68BC4DB29A2","4F8701E5339B4A7FBEB1C68BC4DB29A2","6001f120-dd83-4d1f-879b-b44698aa2b3c","a9f3d40c-5730-405c-b25e-1034c4c56f3f","{""num_scrambled_semantic"":""8"",""num_scrambled_causal"":""4"",""num_scrambled_schematic"":""4"",""participantId"":""4F8701E5339B4A7FBEB1C68BC4DB29A2"",""assignmentId"":""6001f120-dd83-4d1f-879b-b44698aa2b3c"",""projectId"":""a9f3d40c-5730-405c-b25e-1034c4c56f3f""}","https://test12345.live/?num_scrambled_semantic=8&num_scrambled_causal=4&num_scrambled_schematic=4&participantId=4F8701E5339B4A7FBEB1C68BC4DB29A2&assignmentId=6001f120-dd83-4d1f-879b-b44698aa2b3c&projectId=a9f3d40c-5730-405c-b25e-1034c4c56f3f","4F8701E5339B4A7FBEB1C68BC4DB29A2-2025-08-07-19-00-33","","1690","","images/semantic_sequence/housework_semantic/housework_semantic_8.png","0","",""
"","","","","","image-button-response","91","392789","0.0-14.0-1.0-2.0","4F8701E5339B4A7FBEB1C68BC4DB29A2","4F8701E5339B4A7FBEB1C68BC4DB29A2","6001f120-dd83-4d1f-879b-b44698aa2b3c","a9f3d40c-5730-405c-b25e-1034c4c56f3f","{""num_scrambled_semantic"":""8"",""num_scrambled_causal"":""4"",""num_scrambled_schematic"":""4"",""participantId"":""4F8701E5339B4A7FBEB1C68BC4DB29A2"",""assignmentId"":""6001f120-dd83-4d1f-879b-b44698aa2b3c"",""projectId"":""a9f3d40c-5730-405c-b25e-1034c4c56f3f""}","https://test12345.live/?num_scrambled_semantic=8&num_scrambled_causal=4&num_scrambled_schematic=4&participantId=4F8701E5339B4A7FBEB1C68BC4DB29A2&assignmentId=6001f120-dd83-4d1f-879b-b44698aa2b3c&projectId=a9f3d40c-5730-405c-b25e-1034c4c56f3f","4F8701E5339B4A7FBEB1C68BC4DB29A2-2025-08-07-19-00-33","","null","","[]","null","",""
"","","","","","image-button-response","92","397304","0.0-14.0-1.0-0.1","4F8701E5339B4A7FBEB1C68BC4DB29A2","4F8701E5339B4A7FBEB1C68BC4DB29A2","6001f120-dd83-4d1f-879b-b44698aa2b3c","a9f3d40c-5730-405c-b25e-1034c4c56f3f","{""num_scrambled_semantic"":""8"",""num_scrambled_causal"":""4"",""num_scrambled_schematic"":""4"",""participantId"":""4F8701E5339B4A7FBEB1C68BC4DB29A2"",""assignmentId"":""6001f120-dd83-4d1f-879b-b44698aa2b3c"",""projectId"":""a9f3d40c-5730-405c-b25e-1034c4c56f3f""}","https://test12345.live/?num_scrambled_semantic=8&num_scrambled_causal=4&num_scrambled_schematic=4&participantId=4F8701E5339B4A7FBEB1C68BC4DB29A2&assignmentId=6001f120-dd83-4d1f-879b-b44698aa2b3c&projectId=a9f3d40c-5730-405c-b25e-1034c4c56f3f","4F8701E5339B4A7FBEB1C68BC4DB29A2-2025-08-07-19-00-33","","null","","images/semantic_sequence/housework_semantic/housework_semantic_7.png","null","",""
"","","","","","image-button-response","93","398115","0.0-14.0-1.0-1.1","4F8701E5339B4A7FBEB1C68BC4DB29A2","4F8701E5339B4A7FBEB1C68BC4DB29A2","6001f120-dd83-4d1f-879b-b44698aa2b3c","a9f3d40c-5730-405c-b25e-1034c4c56f3f","{""num_scrambled_semantic"":""8"",""num_scrambled_causal"":""4"",""num_scrambled_schematic"":""4"",""participantId"":""4F8701E5339B4A7FBEB1C68BC4DB29A2"",""assignmentId"":""6001f120-dd83-4d1f-879b-b44698aa2b3c"",""projectId"":""a9f3d40c-5730-405c-b25e-1034c4c56f3f""}","https://test12345.live/?num_scrambled_semantic=8&num_scrambled_causal=4&num_scrambled_schematic=4&participantId=4F8701E5339B4A7FBEB1C68BC4DB29A2&assignmentId=6001f120-dd83-4d1f-879b-b44698aa2b3c&projectId=a9f3d40c-5730-405c-b25e-1034c4c56f3f","4F8701E5339B4A7FBEB1C68BC4DB29A2-2025-08-07-19-00-33","","810","","images/semantic_sequence/housework_semantic/housework_semantic_7.png","0","",""
"","","","","","image-button-response","94","399918","0.0-14.0-1.0-2.1","4F8701E5339B4A7FBEB1C68BC4DB29A2","4F8701E5339B4A7FBEB1C68BC4DB29A2","6001f120-dd83-4d1f-879b-b44698aa2b3c","a9f3d40c-5730-405c-b25e-1034c4c56f3f","{""num_scrambled_semantic"":""8"",""num_scrambled_causal"":""4"",""num_scrambled_schematic"":""4"",""participantId"":""4F8701E5339B4A7FBEB1C68BC4DB29A2"",""assignmentId"":""6001f120-dd83-4d1f-879b-b44698aa2b3c"",""projectId"":""a9f3d40c-5730-405c-b25e-1034c4c56f3f""}","https://test12345.live/?num_scrambled_semantic=8&num_scrambled_causal=4&num_scrambled_schematic=4&participantId=4F8701E5339B4A7FBEB1C68BC4DB29A2&assignmentId=6001f120-dd83-4d1f-879b-b44698aa2b3c&projectId=a9f3d40c-5730-405c-b25e-1034c4c56f3f","4F8701E5339B4A7FBEB1C68BC4DB29A2-2025-08-07-19-00-33","","null","","[]","null","",""
"","","","","","image-button-response","95","404419","0.0-14.0-1.0-0.2","4F8701E5339B4A7FBEB1C68BC4DB29A2","4F8701E5339B4A7FBEB1C68BC4DB29A2","6001f120-dd83-4d1f-879b-b44698aa2b3c","a9f3d40c-5730-405c-b25e-1034c4c56f3f","{""num_scrambled_semantic"":""8"",""num_scrambled_causal"":""4"",""num_scrambled_schematic"":""4"",""participantId"":""4F8701E5339B4A7FBEB1C68BC4DB29A2"",""assignmentId"":""6001f120-dd83-4d1f-879b-b44698aa2b3c"",""projectId"":""a9f3d40c-5730-405c-b25e-1034c4c56f3f""}","https://test12345.live/?num_scrambled_semantic=8&num_scrambled_causal=4&num_scrambled_schematic=4&participantId=4F8701E5339B4A7FBEB1C68BC4DB29A2&assignmentId=6001f120-dd83-4d1f-879b-b44698aa2b3c&projectId=a9f3d40c-5730-405c-b25e-1034c4c56f3f","4F8701E5339B4A7FBEB1C68BC4DB29A2-2025-08-07-19-00-33","","null","","images/semantic_sequence/housework_semantic/housework_semantic_6.png","null","",""
"","","","","","image-button-response","96","408098","0.0-14.0-1.0-1.2","4F8701E5339B4A7FBEB1C68BC4DB29A2","4F8701E5339B4A7FBEB1C68BC4DB29A2","6001f120-dd83-4d1f-879b-b44698aa2b3c","a9f3d40c-5730-405c-b25e-1034c4c56f3f","{""num_scrambled_semantic"":""8"",""num_scrambled_causal"":""4"",""num_scrambled_schematic"":""4"",""participantId"":""4F8701E5339B4A7FBEB1C68BC4DB29A2"",""assignmentId"":""6001f120-dd83-4d1f-879b-b44698aa2b3c"",""projectId"":""a9f3d40c-5730-405c-b25e-1034c4c56f3f""}","https://test12345.live/?num_scrambled_semantic=8&num_scrambled_causal=4&num_scrambled_schematic=4&participantId=4F8701E5339B4A7FBEB1C68BC4DB29A2&assignmentId=6001f120-dd83-4d1f-879b-b44698aa2b3c&projectId=a9f3d40c-5730-405c-b25e-1034c4c56f3f","4F8701E5339B4A7FBEB1C68BC4DB29A2-2025-08-07-19-00-33","","3678","","images/semantic_sequence/housework_semantic/housework_semantic_6.png","0","",""
"","","","","","image-button-response","97","409899","0.0-14.0-1.0-2.2","4F8701E5339B4A7FBEB1C68BC4DB29A2","4F8701E5339B4A7FBEB1C68BC4DB29A2","6001f120-dd83-4d1f-879b-b44698aa2b3c","a9f3d40c-5730-405c-b25e-1034c4c56f3f","{""num_scrambled_semantic"":""8"",""num_scrambled_causal"":""4"",""num_scrambled_schematic"":""4"",""participantId"":""4F8701E5339B4A7FBEB1C68BC4DB29A2"",""assignmentId"":""6001f120-dd83-4d1f-879b-b44698aa2b3c"",""projectId"":""a9f3d40c-5730-405c-b25e-1034c4c56f3f""}","https://test12345.live/?num_scrambled_semantic=8&num_scrambled_causal=4&num_scrambled_schematic=4&participantId=4F8701E5339B4A7FBEB1C68BC4DB29A2&assignmentId=6001f120-dd83-4d1f-879b-b44698aa2b3c&projectId=a9f3d40c-5730-405c-b25e-1034c4c56f3f","4F8701E5339B4A7FBEB1C68BC4DB29A2-2025-08-07-19-00-33","","null","","[]","null","",""
"","","","","","image-button-response","98","414401","0.0-14.0-1.0-0.3","4F8701E5339B4A7FBEB1C68BC4DB29A2","4F8701E5339B4A7FBEB1C68BC4DB29A2","6001f120-dd83-4d1f-879b-b44698aa2b3c","a9f3d40c-5730-405c-b25e-1034c4c56f3f","{""num_scrambled_semantic"":""8"",""num_scrambled_causal"":""4"",""num_scrambled_schematic"":""4"",""participantId"":""4F8701E5339B4A7FBEB1C68BC4DB29A2"",""assignmentId"":""6001f120-dd83-4d1f-879b-b44698aa2b3c"",""projectId"":""a9f3d40c-5730-405c-b25e-1034c4c56f3f""}","https://test12345.live/?num_scrambled_semantic=8&num_scrambled_causal=4&num_scrambled_schematic=4&participantId=4F8701E5339B4A7FBEB1C68BC4DB29A2&assignmentId=6001f120-dd83-4d1f-879b-b44698aa2b3c&projectId=a9f3d40c-5730-405c-b25e-1034c4c56f3f","4F8701E5339B4A7FBEB1C68BC4DB29A2-2025-08-07-19-00-33","","null","","images/semantic_sequence/housework_semantic/housework_semantic_9.png","null","",""
"","","","","","image-button-response","99","415009","0.0-14.0-1.0-1.3","4F8701E5339B4A7FBEB1C68BC4DB29A2","4F8701E5339B4A7FBEB1C68BC4DB29A2","6001f120-dd83-4d1f-879b-b44698aa2b3c","a9f3d40c-5730-405c-b25e-1034c4c56f3f","{""num_scrambled_semantic"":""8"",""num_scrambled_causal"":""4"",""num_scrambled_schematic"":""4"",""participantId"":""4F8701E5339B4A7FBEB1C68BC4DB29A2"",""assignmentId"":""6001f120-dd83-4d1f-879b-b44698aa2b3c"",""projectId"":""a9f3d40c-5730-405c-b25e-1034c4c56f3f""}","https://test12345.live/?num_scrambled_semantic=8&num_scrambled_causal=4&num_scrambled_schematic=4&participantId=4F8701E5339B4A7FBEB1C68BC4DB29A2&assignmentId=6001f120-dd83-4d1f-879b-b44698aa2b3c&projectId=a9f3d40c-5730-405c-b25e-1034c4c56f3f","4F8701E5339B4A7FBEB1C68BC4DB29A2-2025-08-07-19-00-33","","608","","images/semantic_sequence/housework_semantic/housework_semantic_9.png","0","",""
"","","","","","image-button-response","100","416810","0.0-14.0-1.0-2.3","4F8701E5339B4A7FBEB1C68BC4DB29A2","4F8701E5339B4A7FBEB1C68BC4DB29A2","6001f120-dd83-4d1f-879b-b44698aa2b3c","a9f3d40c-5730-405c-b25e-1034c4c56f3f","{""num_scrambled_semantic"":""8"",""num_scrambled_causal"":""4"",""num_scrambled_schematic"":""4"",""participantId"":""4F8701E5339B4A7FBEB1C68BC4DB29A2"",""assignmentId"":""6001f120-dd83-4d1f-879b-b44698aa2b3c"",""projectId"":""a9f3d40c-5730-405c-b25e-1034c4c56f3f""}","https://test12345.live/?num_scrambled_semantic=8&num_scrambled_causal=4&num_scrambled_schematic=4&participantId=4F8701E5339B4A7FBEB1C68BC4DB29A2&assignmentId=6001f120-dd83-4d1f-879b-b44698aa2b3c&projectId=a9f3d40c-5730-405c-b25e-1034c4c56f3f","4F8701E5339B4A7FBEB1C68BC4DB29A2-2025-08-07-19-00-33","","null","","[]","null","",""
"","","","","","image-button-response","101","421319","0.0-14.0-1.0-0.4","4F8701E5339B4A7FBEB1C68BC4DB29A2","4F8701E5339B4A7FBEB1C68BC4DB29A2","6001f120-dd83-4d1f-879b-b44698aa2b3c","a9f3d40c-5730-405c-b25e-1034c4c56f3f","{""num_scrambled_semantic"":""8"",""num_scrambled_causal"":""4"",""num_scrambled_schematic"":""4"",""participantId"":""4F8701E5339B4A7FBEB1C68BC4DB29A2"",""assignmentId"":""6001f120-dd83-4d1f-879b-b44698aa2b3c"",""projectId"":""a9f3d40c-5730-405c-b25e-1034c4c56f3f""}","https://test12345.live/?num_scrambled_semantic=8&num_scrambled_causal=4&num_scrambled_schematic=4&participantId=4F8701E5339B4A7FBEB1C68BC4DB29A2&assignmentId=6001f120-dd83-4d1f-879b-b44698aa2b3c&projectId=a9f3d40c-5730-405c-b25e-1034c4c56f3f","4F8701E5339B4A7FBEB1C68BC4DB29A2-2025-08-07-19-00-33","","null","","images/semantic_sequence/housework_semantic/housework_semantic_2.png","null","",""
"","","","","","image-button-response","102","423322","0.0-14.0-1.0-1.4","4F8701E5339B4A7FBEB1C68BC4DB29A2","4F8701E5339B4A7FBEB1C68BC4DB29A2","6001f120-dd83-4d1f-879b-b44698aa2b3c","a9f3d40c-5730-405c-b25e-1034c4c56f3f","{""num_scrambled_semantic"":""8"",""num_scrambled_causal"":""4"",""num_scrambled_schematic"":""4"",""participantId"":""4F8701E5339B4A7FBEB1C68BC4DB29A2"",""assignmentId"":""6001f120-dd83-4d1f-879b-b44698aa2b3c"",""projectId"":""a9f3d40c-5730-405c-b25e-1034c4c56f3f""}","https://test12345.live/?num_scrambled_semantic=8&num_scrambled_causal=4&num_scrambled_schematic=4&participantId=4F8701E5339B4A7FBEB1C68BC4DB29A2&assignmentId=6001f120-dd83-4d1f-879b-b44698aa2b3c&projectId=a9f3d40c-5730-405c-b25e-1034c4c56f3f","4F8701E5339B4A7FBEB1C68BC4DB29A2-2025-08-07-19-00-33","","2001","","images/semantic_sequence/housework_semantic/housework_semantic_2.png","0","",""
"","","","","","image-button-response","103","425122","0.0-14.0-1.0-2.4","4F8701E5339B4A7FBEB1C68BC4DB29A2","4F8701E5339B4A7FBEB1C68BC4DB29A2","6001f120-dd83-4d1f-879b-b44698aa2b3c","a9f3d40c-5730-405c-b25e-1034c4c56f3f","{""num_scrambled_semantic"":""8"",""num_scrambled_causal"":""4"",""num_scrambled_schematic"":""4"",""participantId"":""4F8701E5339B4A7FBEB1C68BC4DB29A2"",""assignmentId"":""6001f120-dd83-4d1f-879b-b44698aa2b3c"",""projectId"":""a9f3d40c-5730-405c-b25e-1034c4c56f3f""}","https://test12345.live/?num_scrambled_semantic=8&num_scrambled_causal=4&num_scrambled_schematic=4&participantId=4F8701E5339B4A7FBEB1C68BC4DB29A2&assignmentId=6001f120-dd83-4d1f-879b-b44698aa2b3c&projectId=a9f3d40c-5730-405c-b25e-1034c4c56f3f","4F8701E5339B4A7FBEB1C68BC4DB29A2-2025-08-07-19-00-33","","null","","[]","null","",""
"","","","","","image-button-response","104","429632","0.0-14.0-1.0-0.5","4F8701E5339B4A7FBEB1C68BC4DB29A2","4F8701E5339B4A7FBEB1C68BC4DB29A2","6001f120-dd83-4d1f-879b-b44698aa2b3c","a9f3d40c-5730-405c-b25e-1034c4c56f3f","{""num_scrambled_semantic"":""8"",""num_scrambled_causal"":""4"",""num_scrambled_schematic"":""4"",""participantId"":""4F8701E5339B4A7FBEB1C68BC4DB29A2"",""assignmentId"":""6001f120-dd83-4d1f-879b-b44698aa2b3c"",""projectId"":""a9f3d40c-5730-405c-b25e-1034c4c56f3f""}","https://test12345.live/?num_scrambled_semantic=8&num_scrambled_causal=4&num_scrambled_schematic=4&participantId=4F8701E5339B4A7FBEB1C68BC4DB29A2&assignmentId=6001f120-dd83-4d1f-879b-b44698aa2b3c&projectId=a9f3d40c-5730-405c-b25e-1034c4c56f3f","4F8701E5339B4A7FBEB1C68BC4DB29A2-2025-08-07-19-00-33","","null","","images/semantic_sequence/housework_semantic/housework_semantic_1.png","null","",""
"","","","","","image-button-response","105","432257","0.0-14.0-1.0-1.5","4F8701E5339B4A7FBEB1C68BC4DB29A2","4F8701E5339B4A7FBEB1C68BC4DB29A2","6001f120-dd83-4d1f-879b-b44698aa2b3c","a9f3d40c-5730-405c-b25e-1034c4c56f3f","{""num_scrambled_semantic"":""8"",""num_scrambled_causal"":""4"",""num_scrambled_schematic"":""4"",""participantId"":""4F8701E5339B4A7FBEB1C68BC4DB29A2"",""assignmentId"":""6001f120-dd83-4d1f-879b-b44698aa2b3c"",""projectId"":""a9f3d40c-5730-405c-b25e-1034c4c56f3f""}","https://test12345.live/?num_scrambled_semantic=8&num_scrambled_causal=4&num_scrambled_schematic=4&participantId=4F8701E5339B4A7FBEB1C68BC4DB29A2&assignmentId=6001f120-dd83-4d1f-879b-b44698aa2b3c&projectId=a9f3d40c-5730-405c-b25e-1034c4c56f3f","4F8701E5339B4A7FBEB1C68BC4DB29A2-2025-08-07-19-00-33","","2624","","images/semantic_sequence/housework_semantic/housework_semantic_1.png","0","",""
"","","","","","image-button-response","106","434058","0.0-14.0-1.0-2.5","4F8701E5339B4A7FBEB1C68BC4DB29A2","4F8701E5339B4A7FBEB1C68BC4DB29A2","6001f120-dd83-4d1f-879b-b44698aa2b3c","a9f3d40c-5730-405c-b25e-1034c4c56f3f","{""num_scrambled_semantic"":""8"",""num_scrambled_causal"":""4"",""num_scrambled_schematic"":""4"",""participantId"":""4F8701E5339B4A7FBEB1C68BC4DB29A2"",""assignmentId"":""6001f120-dd83-4d1f-879b-b44698aa2b3c"",""projectId"":""a9f3d40c-5730-405c-b25e-1034c4c56f3f""}","https://test12345.live/?num_scrambled_semantic=8&num_scrambled_causal=4&num_scrambled_schematic=4&participantId=4F8701E5339B4A7FBEB1C68BC4DB29A2&assignmentId=6001f120-dd83-4d1f-879b-b44698aa2b3c&projectId=a9f3d40c-5730-405c-b25e-1034c4c56f3f","4F8701E5339B4A7FBEB1C68BC4DB29A2-2025-08-07-19-00-33","","null","","[]","null","",""
"","","","","","image-button-response","107","438564","0.0-14.0-1.0-0.6","4F8701E5339B4A7FBEB1C68BC4DB29A2","4F8701E5339B4A7FBEB1C68BC4DB29A2","6001f120-dd83-4d1f-879b-b44698aa2b3c","a9f3d40c-5730-405c-b25e-1034c4c56f3f","{""num_scrambled_semantic"":""8"",""num_scrambled_causal"":""4"",""num_scrambled_schematic"":""4"",""participantId"":""4F8701E5339B4A7FBEB1C68BC4DB29A2"",""assignmentId"":""6001f120-dd83-4d1f-879b-b44698aa2b3c"",""projectId"":""a9f3d40c-5730-405c-b25e-1034c4c56f3f""}","https://test12345.live/?num_scrambled_semantic=8&num_scrambled_causal=4&num_scrambled_schematic=4&participantId=4F8701E5339B4A7FBEB1C68BC4DB29A2&assignmentId=6001f120-dd83-4d1f-879b-b44698aa2b3c&projectId=a9f3d40c-5730-405c-b25e-1034c4c56f3f","4F8701E5339B4A7FBEB1C68BC4DB29A2-2025-08-07-19-00-33","","null","","images/semantic_sequence/housework_semantic/housework_semantic_5.png","null","",""
"","","","","","image-button-response","108","442567","0.0-14.0-1.0-1.6","4F8701E5339B4A7FBEB1C68BC4DB29A2","4F8701E5339B4A7FBEB1C68BC4DB29A2","6001f120-dd83-4d1f-879b-b44698aa2b3c","a9f3d40c-5730-405c-b25e-1034c4c56f3f","{""num_scrambled_semantic"":""8"",""num_scrambled_causal"":""4"",""num_scrambled_schematic"":""4"",""participantId"":""4F8701E5339B4A7FBEB1C68BC4DB29A2"",""assignmentId"":""6001f120-dd83-4d1f-879b-b44698aa2b3c"",""projectId"":""a9f3d40c-5730-405c-b25e-1034c4c56f3f""}","https://test12345.live/?num_scrambled_semantic=8&num_scrambled_causal=4&num_scrambled_schematic=4&participantId=4F8701E5339B4A7FBEB1C68BC4DB29A2&assignmentId=6001f120-dd83-4d1f-879b-b44698aa2b3c&projectId=a9f3d40c-5730-405c-b25e-1034c4c56f3f","4F8701E5339B4A7FBEB1C68BC4DB29A2-2025-08-07-19-00-33","","null","","images/semantic_sequence/housework_semantic/housework_semantic_5.png","null","",""
"","","","","","image-button-response","109","444372","0.0-14.0-1.0-2.6","4F8701E5339B4A7FBEB1C68BC4DB29A2","4F8701E5339B4A7FBEB1C68BC4DB29A2","6001f120-dd83-4d1f-879b-b44698aa2b3c","a9f3d40c-5730-405c-b25e-1034c4c56f3f","{""num_scrambled_semantic"":""8"",""num_scrambled_causal"":""4"",""num_scrambled_schematic"":""4"",""participantId"":""4F8701E5339B4A7FBEB1C68BC4DB29A2"",""assignmentId"":""6001f120-dd83-4d1f-879b-b44698aa2b3c"",""projectId"":""a9f3d40c-5730-405c-b25e-1034c4c56f3f""}","https://test12345.live/?num_scrambled_semantic=8&num_scrambled_causal=4&num_scrambled_schematic=4&participantId=4F8701E5339B4A7FBEB1C68BC4DB29A2&assignmentId=6001f120-dd83-4d1f-879b-b44698aa2b3c&projectId=a9f3d40c-5730-405c-b25e-1034c4c56f3f","4F8701E5339B4A7FBEB1C68BC4DB29A2-2025-08-07-19-00-33","","null","","[]","null","",""
"","","","","","image-button-response","110","448887","0.0-14.0-1.0-0.7","4F8701E5339B4A7FBEB1C68BC4DB29A2","4F8701E5339B4A7FBEB1C68BC4DB29A2","6001f120-dd83-4d1f-879b-b44698aa2b3c","a9f3d40c-5730-405c-b25e-1034c4c56f3f","{""num_scrambled_semantic"":""8"",""num_scrambled_causal"":""4"",""num_scrambled_schematic"":""4"",""participantId"":""4F8701E5339B4A7FBEB1C68BC4DB29A2"",""assignmentId"":""6001f120-dd83-4d1f-879b-b44698aa2b3c"",""projectId"":""a9f3d40c-5730-405c-b25e-1034c4c56f3f""}","https://test12345.live/?num_scrambled_semantic=8&num_scrambled_causal=4&num_scrambled_schematic=4&participantId=4F8701E5339B4A7FBEB1C68BC4DB29A2&assignmentId=6001f120-dd83-4d1f-879b-b44698aa2b3c&projectId=a9f3d40c-5730-405c-b25e-1034c4c56f3f","4F8701E5339B4A7FBEB1C68BC4DB29A2-2025-08-07-19-00-33","","null","","images/semantic_sequence/housework_semantic/housework_semantic_3.png","null","",""
"","","","","","image-button-response","111","452889","0.0-14.0-1.0-1.7","4F8701E5339B4A7FBEB1C68BC4DB29A2","4F8701E5339B4A7FBEB1C68BC4DB29A2","6001f120-dd83-4d1f-879b-b44698aa2b3c","a9f3d40c-5730-405c-b25e-1034c4c56f3f","{""num_scrambled_semantic"":""8"",""num_scrambled_causal"":""4"",""num_scrambled_schematic"":""4"",""participantId"":""4F8701E5339B4A7FBEB1C68BC4DB29A2"",""assignmentId"":""6001f120-dd83-4d1f-879b-b44698aa2b3c"",""projectId"":""a9f3d40c-5730-405c-b25e-1034c4c56f3f""}","https://test12345.live/?num_scrambled_semantic=8&num_scrambled_causal=4&num_scrambled_schematic=4&participantId=4F8701E5339B4A7FBEB1C68BC4DB29A2&assignmentId=6001f120-dd83-4d1f-879b-b44698aa2b3c&projectId=a9f3d40c-5730-405c-b25e-1034c4c56f3f","4F8701E5339B4A7FBEB1C68BC4DB29A2-2025-08-07-19-00-33","","null","","images/semantic_sequence/housework_semantic/housework_semantic_3.png","null","",""
"","","","","","image-button-response","112","454695","0.0-14.0-1.0-2.7","4F8701E5339B4A7FBEB1C68BC4DB29A2","4F8701E5339B4A7FBEB1C68BC4DB29A2","6001f120-dd83-4d1f-879b-b44698aa2b3c","a9f3d40c-5730-405c-b25e-1034c4c56f3f","{""num_scrambled_semantic"":""8"",""num_scrambled_causal"":""4"",""num_scrambled_schematic"":""4"",""participantId"":""4F8701E5339B4A7FBEB1C68BC4DB29A2"",""assignmentId"":""6001f120-dd83-4d1f-879b-b44698aa2b3c"",""projectId"":""a9f3d40c-5730-405c-b25e-1034c4c56f3f""}","https://test12345.live/?num_scrambled_semantic=8&num_scrambled_causal=4&num_scrambled_schematic=4&participantId=4F8701E5339B4A7FBEB1C68BC4DB29A2&assignmentId=6001f120-dd83-4d1f-879b-b44698aa2b3c&projectId=a9f3d40c-5730-405c-b25e-1034c4c56f3f","4F8701E5339B4A7FBEB1C68BC4DB29A2-2025-08-07-19-00-33","","null","","[]","null","",""
"","","","","","image-button-response","113","459197","0.0-14.0-1.0-0.8","4F8701E5339B4A7FBEB1C68BC4DB29A2","4F8701E5339B4A7FBEB1C68BC4DB29A2","6001f120-dd83-4d1f-879b-b44698aa2b3c","a9f3d40c-5730-405c-b25e-1034c4c56f3f","{""num_scrambled_semantic"":""8"",""num_scrambled_causal"":""4"",""num_scrambled_schematic"":""4"",""participantId"":""4F8701E5339B4A7FBEB1C68BC4DB29A2"",""assignmentId"":""6001f120-dd83-4d1f-879b-b44698aa2b3c"",""projectId"":""a9f3d40c-5730-405c-b25e-1034c4c56f3f""}","https://test12345.live/?num_scrambled_semantic=8&num_scrambled_causal=4&num_scrambled_schematic=4&participantId=4F8701E5339B4A7FBEB1C68BC4DB29A2&assignmentId=6001f120-dd83-4d1f-879b-b44698aa2b3c&projectId=a9f3d40c-5730-405c-b25e-1034c4c56f3f","4F8701E5339B4A7FBEB1C68BC4DB29A2-2025-08-07-19-00-33","","null","","images/semantic_sequence/housework_semantic/housework_semantic_ten.png","null","",""
"","","","","","image-button-response","114","461667","0.0-14.0-1.0-1.8","4F8701E5339B4A7FBEB1C68BC4DB29A2","4F8701E5339B4A7FBEB1C68BC4DB29A2","6001f120-dd83-4d1f-879b-b44698aa2b3c","a9f3d40c-5730-405c-b25e-1034c4c56f3f","{""num_scrambled_semantic"":""8"",""num_scrambled_causal"":""4"",""num_scrambled_schematic"":""4"",""participantId"":""4F8701E5339B4A7FBEB1C68BC4DB29A2"",""assignmentId"":""6001f120-dd83-4d1f-879b-b44698aa2b3c"",""projectId"":""a9f3d40c-5730-405c-b25e-1034c4c56f3f""}","https://test12345.live/?num_scrambled_semantic=8&num_scrambled_causal=4&num_scrambled_schematic=4&participantId=4F8701E5339B4A7FBEB1C68BC4DB29A2&assignmentId=6001f120-dd83-4d1f-879b-b44698aa2b3c&projectId=a9f3d40c-5730-405c-b25e-1034c4c56f3f","4F8701E5339B4A7FBEB1C68BC4DB29A2-2025-08-07-19-00-33","","2470","","images/semantic_sequence/housework_semantic/housework_semantic_ten.png","0","",""
