"success","timeout","failed_images","failed_audio","failed_video","trial_type","trial_index","time_elapsed","internal_node_id","subject","subject_id","study_id","session_id","urlvar","current_url","audio_id","view_history","rt","device_id","stimulus","response","estimated_stimulus_onset","seq_name"
"true","false","[]","[]","[]","preload","0","6207","0.0-0.0","4FB4D02C1BDF440B86B1911D9BFA715F","4FB4D02C1BDF440B86B1911D9BFA715F","c60fe244-bd1e-4983-a6df-6770a1e36203","051c06f1-75cc-4548-856d-4923ddaba0dc","{""num_scrambled_semantic"":""8"",""num_scrambled_causal"":""4"",""num_scrambled_schematic"":""4"",""participantId"":""4FB4D02C1BDF440B86B1911D9BFA715F"",""assignmentId"":""c60fe244-bd1e-4983-a6df-6770a1e36203"",""projectId"":""051c06f1-75cc-4548-856d-4923ddaba0dc""}","https://test12345.live/?num_scrambled_semantic=8&num_scrambled_causal=4&num_scrambled_schematic=4&participantId=4FB4D02C1BDF440B86B1911D9BFA715F&assignmentId=c60fe244-bd1e-4983-a6df-6770a1e36203&projectId=051c06f1-75cc-4548-856d-4923ddaba0dc","4FB4D02C1BDF440B86B1911D9BFA715F-2025-05-15-19-26-30","","","","","","",""
"","","","","","instructions","1","26013","0.0-1.0","4FB4D02C1BDF440B86B1911D9BFA715F","4FB4D02C1BDF440B86B1911D9BFA715F","c60fe244-bd1e-4983-a6df-6770a1e36203","051c06f1-75cc-4548-856d-4923ddaba0dc","{""num_scrambled_semantic"":""8"",""num_scrambled_causal"":""4"",""num_scrambled_schematic"":""4"",""participantId"":""4FB4D02C1BDF440B86B1911D9BFA715F"",""assignmentId"":""c60fe244-bd1e-4983-a6df-6770a1e36203"",""projectId"":""051c06f1-75cc-4548-856d-4923ddaba0dc""}","https://test12345.live/?num_scrambled_semantic=8&num_scrambled_causal=4&num_scrambled_schematic=4&participantId=4FB4D02C1BDF440B86B1911D9BFA715F&assignmentId=c60fe244-bd1e-4983-a6df-6770a1e36203&projectId=051c06f1-75cc-4548-856d-4923ddaba0dc","4FB4D02C1BDF440B86B1911D9BFA715F-2025-05-15-19-26-30","[{""page_index"":0,""viewing_time"":19803}]","19804","","","","",""
"","","","","","instructions","2","29896","0.0-2.0","4FB4D02C1BDF440B86B1911D9BFA715F","4FB4D02C1BDF440B86B1911D9BFA715F","c60fe244-bd1e-4983-a6df-6770a1e36203","051c06f1-75cc-4548-856d-4923ddaba0dc","{""num_scrambled_semantic"":""8"",""num_scrambled_causal"":""4"",""num_scrambled_schematic"":""4"",""participantId"":""4FB4D02C1BDF440B86B1911D9BFA715F"",""assignmentId"":""c60fe244-bd1e-4983-a6df-6770a1e36203"",""projectId"":""051c06f1-75cc-4548-856d-4923ddaba0dc""}","https://test12345.live/?num_scrambled_semantic=8&num_scrambled_causal=4&num_scrambled_schematic=4&participantId=4FB4D02C1BDF440B86B1911D9BFA715F&assignmentId=c60fe244-bd1e-4983-a6df-6770a1e36203&projectId=051c06f1-75cc-4548-856d-4923ddaba0dc","4FB4D02C1BDF440B86B1911D9BFA715F-2025-05-15-19-26-30","[{""page_index"":0,""viewing_time"":3860}]","3861","","","","",""
"true","","","","","fullscreen","3","32836","0.0-3.0","4FB4D02C1BDF440B86B1911D9BFA715F","4FB4D02C1BDF440B86B1911D9BFA715F","c60fe244-bd1e-4983-a6df-6770a1e36203","051c06f1-75cc-4548-856d-4923ddaba0dc","{""num_scrambled_semantic"":""8"",""num_scrambled_causal"":""4"",""num_scrambled_schematic"":""4"",""participantId"":""4FB4D02C1BDF440B86B1911D9BFA715F"",""assignmentId"":""c60fe244-bd1e-4983-a6df-6770a1e36203"",""projectId"":""051c06f1-75cc-4548-856d-4923ddaba0dc""}","https://test12345.live/?num_scrambled_semantic=8&num_scrambled_causal=4&num_scrambled_schematic=4&participantId=4FB4D02C1BDF440B86B1911D9BFA715F&assignmentId=c60fe244-bd1e-4983-a6df-6770a1e36203&projectId=051c06f1-75cc-4548-856d-4923ddaba0dc","4FB4D02C1BDF440B86B1911D9BFA715F-2025-05-15-19-26-30","","1902","","","","",""
"","","","","","initialize-microphone","4","40311","0.0-4.0-0.0","4FB4D02C1BDF440B86B1911D9BFA715F","4FB4D02C1BDF440B86B1911D9BFA715F","c60fe244-bd1e-4983-a6df-6770a1e36203","051c06f1-75cc-4548-856d-4923ddaba0dc","{""num_scrambled_semantic"":""8"",""num_scrambled_causal"":""4"",""num_scrambled_schematic"":""4"",""participantId"":""4FB4D02C1BDF440B86B1911D9BFA715F"",""assignmentId"":""c60fe244-bd1e-4983-a6df-6770a1e36203"",""projectId"":""051c06f1-75cc-4548-856d-4923ddaba0dc""}","https://test12345.live/?num_scrambled_semantic=8&num_scrambled_causal=4&num_scrambled_schematic=4&participantId=4FB4D02C1BDF440B86B1911D9BFA715F&assignmentId=c60fe244-bd1e-4983-a6df-6770a1e36203&projectId=051c06f1-75cc-4548-856d-4923ddaba0dc","4FB4D02C1BDF440B86B1911D9BFA715F-2025-05-15-19-26-30","","","d3279c7be92a358d2dcd2f3ce9ad943baedb188fb6c8158eb18b3349130865ca","","","",""
"","","","","","html-audio-response","5","61047","0.0-4.0-1.0","4FB4D02C1BDF440B86B1911D9BFA715F","4FB4D02C1BDF440B86B1911D9BFA715F","c60fe244-bd1e-4983-a6df-6770a1e36203","051c06f1-75cc-4548-856d-4923ddaba0dc","{""num_scrambled_semantic"":""8"",""num_scrambled_causal"":""4"",""num_scrambled_schematic"":""4"",""participantId"":""4FB4D02C1BDF440B86B1911D9BFA715F"",""assignmentId"":""c60fe244-bd1e-4983-a6df-6770a1e36203"",""projectId"":""051c06f1-75cc-4548-856d-4923ddaba0dc""}","https://test12345.live/?num_scrambled_semantic=8&num_scrambled_causal=4&num_scrambled_schematic=4&participantId=4FB4D02C1BDF440B86B1911D9BFA715F&assignmentId=c60fe244-bd1e-4983-a6df-6770a1e36203&projectId=051c06f1-75cc-4548-856d-4923ddaba0dc","4FB4D02C1BDF440B86B1911D9BFA715F-2025-05-15-19-26-30","","5277","","<span style=""color: red; font-size: 24px""> NOW RECORDING</span>
        <p>Please test Microphone</p>","","15",""
"","","","","","html-button-response","6","62502","0.0-4.0-2.0","4FB4D02C1BDF440B86B1911D9BFA715F","4FB4D02C1BDF440B86B1911D9BFA715F","c60fe244-bd1e-4983-a6df-6770a1e36203","051c06f1-75cc-4548-856d-4923ddaba0dc","{""num_scrambled_semantic"":""8"",""num_scrambled_causal"":""4"",""num_scrambled_schematic"":""4"",""participantId"":""4FB4D02C1BDF440B86B1911D9BFA715F"",""assignmentId"":""c60fe244-bd1e-4983-a6df-6770a1e36203"",""projectId"":""051c06f1-75cc-4548-856d-4923ddaba0dc""}","https://test12345.live/?num_scrambled_semantic=8&num_scrambled_causal=4&num_scrambled_schematic=4&participantId=4FB4D02C1BDF440B86B1911D9BFA715F&assignmentId=c60fe244-bd1e-4983-a6df-6770a1e36203&projectId=051c06f1-75cc-4548-856d-4923ddaba0dc","4FB4D02C1BDF440B86B1911D9BFA715F-2025-05-15-19-26-30","","1453","","<p style=""font-size:48px; color:red;"">Is Microphone OK?</p>","1","",""
"","","","","","instructions","7","77807","0.0-5.0","4FB4D02C1BDF440B86B1911D9BFA715F","4FB4D02C1BDF440B86B1911D9BFA715F","c60fe244-bd1e-4983-a6df-6770a1e36203","051c06f1-75cc-4548-856d-4923ddaba0dc","{""num_scrambled_semantic"":""8"",""num_scrambled_causal"":""4"",""num_scrambled_schematic"":""4"",""participantId"":""4FB4D02C1BDF440B86B1911D9BFA715F"",""assignmentId"":""c60fe244-bd1e-4983-a6df-6770a1e36203"",""projectId"":""051c06f1-75cc-4548-856d-4923ddaba0dc""}","https://test12345.live/?num_scrambled_semantic=8&num_scrambled_causal=4&num_scrambled_schematic=4&participantId=4FB4D02C1BDF440B86B1911D9BFA715F&assignmentId=c60fe244-bd1e-4983-a6df-6770a1e36203&projectId=051c06f1-75cc-4548-856d-4923ddaba0dc","4FB4D02C1BDF440B86B1911D9BFA715F-2025-05-15-19-26-30","[{""page_index"":0,""viewing_time"":2945},{""page_index"":1,""viewing_time"":12358}]","15304","","","","",""
"","","","","","image-button-response","8","83825","0.0-6.0-0.0","4FB4D02C1BDF440B86B1911D9BFA715F","4FB4D02C1BDF440B86B1911D9BFA715F","c60fe244-bd1e-4983-a6df-6770a1e36203","051c06f1-75cc-4548-856d-4923ddaba0dc","{""num_scrambled_semantic"":""8"",""num_scrambled_causal"":""4"",""num_scrambled_schematic"":""4"",""participantId"":""4FB4D02C1BDF440B86B1911D9BFA715F"",""assignmentId"":""c60fe244-bd1e-4983-a6df-6770a1e36203"",""projectId"":""051c06f1-75cc-4548-856d-4923ddaba0dc""}","https://test12345.live/?num_scrambled_semantic=8&num_scrambled_causal=4&num_scrambled_schematic=4&participantId=4FB4D02C1BDF440B86B1911D9BFA715F&assignmentId=c60fe244-bd1e-4983-a6df-6770a1e36203&projectId=051c06f1-75cc-4548-856d-4923ddaba0dc","4FB4D02C1BDF440B86B1911D9BFA715F-2025-05-15-19-26-30","","null","","images/instructions/movie_0.png","null","",""
"","","","","","image-button-response","9","88340","0.0-6.0-1.0-0.0","4FB4D02C1BDF440B86B1911D9BFA715F","4FB4D02C1BDF440B86B1911D9BFA715F","c60fe244-bd1e-4983-a6df-6770a1e36203","051c06f1-75cc-4548-856d-4923ddaba0dc","{""num_scrambled_semantic"":""8"",""num_scrambled_causal"":""4"",""num_scrambled_schematic"":""4"",""participantId"":""4FB4D02C1BDF440B86B1911D9BFA715F"",""assignmentId"":""c60fe244-bd1e-4983-a6df-6770a1e36203"",""projectId"":""051c06f1-75cc-4548-856d-4923ddaba0dc""}","https://test12345.live/?num_scrambled_semantic=8&num_scrambled_causal=4&num_scrambled_schematic=4&participantId=4FB4D02C1BDF440B86B1911D9BFA715F&assignmentId=c60fe244-bd1e-4983-a6df-6770a1e36203&projectId=051c06f1-75cc-4548-856d-4923ddaba0dc","4FB4D02C1BDF440B86B1911D9BFA715F-2025-05-15-19-26-30","","null","","images/instructions/movie_1.png","null","",""
"","","","","","image-button-response","10","91068","0.0-6.0-1.0-1.0","4FB4D02C1BDF440B86B1911D9BFA715F","4FB4D02C1BDF440B86B1911D9BFA715F","c60fe244-bd1e-4983-a6df-6770a1e36203","051c06f1-75cc-4548-856d-4923ddaba0dc","{""num_scrambled_semantic"":""8"",""num_scrambled_causal"":""4"",""num_scrambled_schematic"":""4"",""participantId"":""4FB4D02C1BDF440B86B1911D9BFA715F"",""assignmentId"":""c60fe244-bd1e-4983-a6df-6770a1e36203"",""projectId"":""051c06f1-75cc-4548-856d-4923ddaba0dc""}","https://test12345.live/?num_scrambled_semantic=8&num_scrambled_causal=4&num_scrambled_schematic=4&participantId=4FB4D02C1BDF440B86B1911D9BFA715F&assignmentId=c60fe244-bd1e-4983-a6df-6770a1e36203&projectId=051c06f1-75cc-4548-856d-4923ddaba0dc","4FB4D02C1BDF440B86B1911D9BFA715F-2025-05-15-19-26-30","","2726","","images/instructions/movie_1.png","0","",""
"","","","","","image-button-response","11","92885","0.0-6.0-1.0-2.0","4FB4D02C1BDF440B86B1911D9BFA715F","4FB4D02C1BDF440B86B1911D9BFA715F","c60fe244-bd1e-4983-a6df-6770a1e36203","051c06f1-75cc-4548-856d-4923ddaba0dc","{""num_scrambled_semantic"":""8"",""num_scrambled_causal"":""4"",""num_scrambled_schematic"":""4"",""participantId"":""4FB4D02C1BDF440B86B1911D9BFA715F"",""assignmentId"":""c60fe244-bd1e-4983-a6df-6770a1e36203"",""projectId"":""051c06f1-75cc-4548-856d-4923ddaba0dc""}","https://test12345.live/?num_scrambled_semantic=8&num_scrambled_causal=4&num_scrambled_schematic=4&participantId=4FB4D02C1BDF440B86B1911D9BFA715F&assignmentId=c60fe244-bd1e-4983-a6df-6770a1e36203&projectId=051c06f1-75cc-4548-856d-4923ddaba0dc","4FB4D02C1BDF440B86B1911D9BFA715F-2025-05-15-19-26-30","","null","","[]","null","",""
"","","","","","image-button-response","12","97401","0.0-6.0-1.0-0.1","4FB4D02C1BDF440B86B1911D9BFA715F","4FB4D02C1BDF440B86B1911D9BFA715F","c60fe244-bd1e-4983-a6df-6770a1e36203","051c06f1-75cc-4548-856d-4923ddaba0dc","{""num_scrambled_semantic"":""8"",""num_scrambled_causal"":""4"",""num_scrambled_schematic"":""4"",""participantId"":""4FB4D02C1BDF440B86B1911D9BFA715F"",""assignmentId"":""c60fe244-bd1e-4983-a6df-6770a1e36203"",""projectId"":""051c06f1-75cc-4548-856d-4923ddaba0dc""}","https://test12345.live/?num_scrambled_semantic=8&num_scrambled_causal=4&num_scrambled_schematic=4&participantId=4FB4D02C1BDF440B86B1911D9BFA715F&assignmentId=c60fe244-bd1e-4983-a6df-6770a1e36203&projectId=051c06f1-75cc-4548-856d-4923ddaba0dc","4FB4D02C1BDF440B86B1911D9BFA715F-2025-05-15-19-26-30","","null","","images/instructions/movie_2.png","null","",""
"","","","","","image-button-response","13","99889","0.0-6.0-1.0-1.1","4FB4D02C1BDF440B86B1911D9BFA715F","4FB4D02C1BDF440B86B1911D9BFA715F","c60fe244-bd1e-4983-a6df-6770a1e36203","051c06f1-75cc-4548-856d-4923ddaba0dc","{""num_scrambled_semantic"":""8"",""num_scrambled_causal"":""4"",""num_scrambled_schematic"":""4"",""participantId"":""4FB4D02C1BDF440B86B1911D9BFA715F"",""assignmentId"":""c60fe244-bd1e-4983-a6df-6770a1e36203"",""projectId"":""051c06f1-75cc-4548-856d-4923ddaba0dc""}","https://test12345.live/?num_scrambled_semantic=8&num_scrambled_causal=4&num_scrambled_schematic=4&participantId=4FB4D02C1BDF440B86B1911D9BFA715F&assignmentId=c60fe244-bd1e-4983-a6df-6770a1e36203&projectId=051c06f1-75cc-4548-856d-4923ddaba0dc","4FB4D02C1BDF440B86B1911D9BFA715F-2025-05-15-19-26-30","","2486","","images/instructions/movie_2.png","0","",""
"","","","","","image-button-response","14","101700","0.0-6.0-1.0-2.1","4FB4D02C1BDF440B86B1911D9BFA715F","4FB4D02C1BDF440B86B1911D9BFA715F","c60fe244-bd1e-4983-a6df-6770a1e36203","051c06f1-75cc-4548-856d-4923ddaba0dc","{""num_scrambled_semantic"":""8"",""num_scrambled_causal"":""4"",""num_scrambled_schematic"":""4"",""participantId"":""4FB4D02C1BDF440B86B1911D9BFA715F"",""assignmentId"":""c60fe244-bd1e-4983-a6df-6770a1e36203"",""projectId"":""051c06f1-75cc-4548-856d-4923ddaba0dc""}","https://test12345.live/?num_scrambled_semantic=8&num_scrambled_causal=4&num_scrambled_schematic=4&participantId=4FB4D02C1BDF440B86B1911D9BFA715F&assignmentId=c60fe244-bd1e-4983-a6df-6770a1e36203&projectId=051c06f1-75cc-4548-856d-4923ddaba0dc","4FB4D02C1BDF440B86B1911D9BFA715F-2025-05-15-19-26-30","","null","","[]","null","",""
"","","","","","image-button-response","15","106210","0.0-6.0-1.0-0.2","4FB4D02C1BDF440B86B1911D9BFA715F","4FB4D02C1BDF440B86B1911D9BFA715F","c60fe244-bd1e-4983-a6df-6770a1e36203","051c06f1-75cc-4548-856d-4923ddaba0dc","{""num_scrambled_semantic"":""8"",""num_scrambled_causal"":""4"",""num_scrambled_schematic"":""4"",""participantId"":""4FB4D02C1BDF440B86B1911D9BFA715F"",""assignmentId"":""c60fe244-bd1e-4983-a6df-6770a1e36203"",""projectId"":""051c06f1-75cc-4548-856d-4923ddaba0dc""}","https://test12345.live/?num_scrambled_semantic=8&num_scrambled_causal=4&num_scrambled_schematic=4&participantId=4FB4D02C1BDF440B86B1911D9BFA715F&assignmentId=c60fe244-bd1e-4983-a6df-6770a1e36203&projectId=051c06f1-75cc-4548-856d-4923ddaba0dc","4FB4D02C1BDF440B86B1911D9BFA715F-2025-05-15-19-26-30","","null","","images/instructions/movie_3.png","null","",""
"","","","","","image-button-response","16","107220","0.0-6.0-1.0-1.2","4FB4D02C1BDF440B86B1911D9BFA715F","4FB4D02C1BDF440B86B1911D9BFA715F","c60fe244-bd1e-4983-a6df-6770a1e36203","051c06f1-75cc-4548-856d-4923ddaba0dc","{""num_scrambled_semantic"":""8"",""num_scrambled_causal"":""4"",""num_scrambled_schematic"":""4"",""participantId"":""4FB4D02C1BDF440B86B1911D9BFA715F"",""assignmentId"":""c60fe244-bd1e-4983-a6df-6770a1e36203"",""projectId"":""051c06f1-75cc-4548-856d-4923ddaba0dc""}","https://test12345.live/?num_scrambled_semantic=8&num_scrambled_causal=4&num_scrambled_schematic=4&participantId=4FB4D02C1BDF440B86B1911D9BFA715F&assignmentId=c60fe244-bd1e-4983-a6df-6770a1e36203&projectId=051c06f1-75cc-4548-856d-4923ddaba0dc","4FB4D02C1BDF440B86B1911D9BFA715F-2025-05-15-19-26-30","","1009","","images/instructions/movie_3.png","0","",""
"","","","","","image-button-response","17","109035","0.0-6.0-1.0-2.2","4FB4D02C1BDF440B86B1911D9BFA715F","4FB4D02C1BDF440B86B1911D9BFA715F","c60fe244-bd1e-4983-a6df-6770a1e36203","051c06f1-75cc-4548-856d-4923ddaba0dc","{""num_scrambled_semantic"":""8"",""num_scrambled_causal"":""4"",""num_scrambled_schematic"":""4"",""participantId"":""4FB4D02C1BDF440B86B1911D9BFA715F"",""assignmentId"":""c60fe244-bd1e-4983-a6df-6770a1e36203"",""projectId"":""051c06f1-75cc-4548-856d-4923ddaba0dc""}","https://test12345.live/?num_scrambled_semantic=8&num_scrambled_causal=4&num_scrambled_schematic=4&participantId=4FB4D02C1BDF440B86B1911D9BFA715F&assignmentId=c60fe244-bd1e-4983-a6df-6770a1e36203&projectId=051c06f1-75cc-4548-856d-4923ddaba0dc","4FB4D02C1BDF440B86B1911D9BFA715F-2025-05-15-19-26-30","","null","","[]","null","",""
"","","","","","image-button-response","18","113553","0.0-6.0-1.0-0.3","4FB4D02C1BDF440B86B1911D9BFA715F","4FB4D02C1BDF440B86B1911D9BFA715F","c60fe244-bd1e-4983-a6df-6770a1e36203","051c06f1-75cc-4548-856d-4923ddaba0dc","{""num_scrambled_semantic"":""8"",""num_scrambled_causal"":""4"",""num_scrambled_schematic"":""4"",""participantId"":""4FB4D02C1BDF440B86B1911D9BFA715F"",""assignmentId"":""c60fe244-bd1e-4983-a6df-6770a1e36203"",""projectId"":""051c06f1-75cc-4548-856d-4923ddaba0dc""}","https://test12345.live/?num_scrambled_semantic=8&num_scrambled_causal=4&num_scrambled_schematic=4&participantId=4FB4D02C1BDF440B86B1911D9BFA715F&assignmentId=c60fe244-bd1e-4983-a6df-6770a1e36203&projectId=051c06f1-75cc-4548-856d-4923ddaba0dc","4FB4D02C1BDF440B86B1911D9BFA715F-2025-05-15-19-26-30","","null","","images/instructions/movie_4.png","null","",""
"","","","","","image-button-response","19","114538","0.0-6.0-1.0-1.3","4FB4D02C1BDF440B86B1911D9BFA715F","4FB4D02C1BDF440B86B1911D9BFA715F","c60fe244-bd1e-4983-a6df-6770a1e36203","051c06f1-75cc-4548-856d-4923ddaba0dc","{""num_scrambled_semantic"":""8"",""num_scrambled_causal"":""4"",""num_scrambled_schematic"":""4"",""participantId"":""4FB4D02C1BDF440B86B1911D9BFA715F"",""assignmentId"":""c60fe244-bd1e-4983-a6df-6770a1e36203"",""projectId"":""051c06f1-75cc-4548-856d-4923ddaba0dc""}","https://test12345.live/?num_scrambled_semantic=8&num_scrambled_causal=4&num_scrambled_schematic=4&participantId=4FB4D02C1BDF440B86B1911D9BFA715F&assignmentId=c60fe244-bd1e-4983-a6df-6770a1e36203&projectId=051c06f1-75cc-4548-856d-4923ddaba0dc","4FB4D02C1BDF440B86B1911D9BFA715F-2025-05-15-19-26-30","","984","","images/instructions/movie_4.png","0","",""
"","","","","","image-button-response","20","116351","0.0-6.0-1.0-2.3","4FB4D02C1BDF440B86B1911D9BFA715F","4FB4D02C1BDF440B86B1911D9BFA715F","c60fe244-bd1e-4983-a6df-6770a1e36203","051c06f1-75cc-4548-856d-4923ddaba0dc","{""num_scrambled_semantic"":""8"",""num_scrambled_causal"":""4"",""num_scrambled_schematic"":""4"",""participantId"":""4FB4D02C1BDF440B86B1911D9BFA715F"",""assignmentId"":""c60fe244-bd1e-4983-a6df-6770a1e36203"",""projectId"":""051c06f1-75cc-4548-856d-4923ddaba0dc""}","https://test12345.live/?num_scrambled_semantic=8&num_scrambled_causal=4&num_scrambled_schematic=4&participantId=4FB4D02C1BDF440B86B1911D9BFA715F&assignmentId=c60fe244-bd1e-4983-a6df-6770a1e36203&projectId=051c06f1-75cc-4548-856d-4923ddaba0dc","4FB4D02C1BDF440B86B1911D9BFA715F-2025-05-15-19-26-30","","null","","[]","null","",""
"","","","","","instructions","21","122133","0.0-7.0","4FB4D02C1BDF440B86B1911D9BFA715F","4FB4D02C1BDF440B86B1911D9BFA715F","c60fe244-bd1e-4983-a6df-6770a1e36203","051c06f1-75cc-4548-856d-4923ddaba0dc","{""num_scrambled_semantic"":""8"",""num_scrambled_causal"":""4"",""num_scrambled_schematic"":""4"",""participantId"":""4FB4D02C1BDF440B86B1911D9BFA715F"",""assignmentId"":""c60fe244-bd1e-4983-a6df-6770a1e36203"",""projectId"":""051c06f1-75cc-4548-856d-4923ddaba0dc""}","https://test12345.live/?num_scrambled_semantic=8&num_scrambled_causal=4&num_scrambled_schematic=4&participantId=4FB4D02C1BDF440B86B1911D9BFA715F&assignmentId=c60fe244-bd1e-4983-a6df-6770a1e36203&projectId=051c06f1-75cc-4548-856d-4923ddaba0dc","4FB4D02C1BDF440B86B1911D9BFA715F-2025-05-15-19-26-30","[{""page_index"":0,""viewing_time"":4689},{""page_index"":1,""viewing_time"":1092}]","5781","","","","",""
"","","","","","html-audio-response","22","189190","0.0-8.0","4FB4D02C1BDF440B86B1911D9BFA715F","4FB4D02C1BDF440B86B1911D9BFA715F","c60fe244-bd1e-4983-a6df-6770a1e36203","051c06f1-75cc-4548-856d-4923ddaba0dc","{""num_scrambled_semantic"":""8"",""num_scrambled_causal"":""4"",""num_scrambled_schematic"":""4"",""participantId"":""4FB4D02C1BDF440B86B1911D9BFA715F"",""assignmentId"":""c60fe244-bd1e-4983-a6df-6770a1e36203"",""projectId"":""051c06f1-75cc-4548-856d-4923ddaba0dc""}","https://test12345.live/?num_scrambled_semantic=8&num_scrambled_causal=4&num_scrambled_schematic=4&participantId=4FB4D02C1BDF440B86B1911D9BFA715F&assignmentId=c60fe244-bd1e-4983-a6df-6770a1e36203&projectId=051c06f1-75cc-4548-856d-4923ddaba0dc","4FB4D02C1BDF440B86B1911D9BFA715F-2025-05-15-19-26-30","","37530","","[""<span style=\""color: red; font-size: 24px\""> NOW RECORDING</span><p>Please say out loud all the images you saw, as many as you can remember. The images can be said in any order.</p>""]","","10",""
"","","","","","instructions","23","190881","0.0-9.0","4FB4D02C1BDF440B86B1911D9BFA715F","4FB4D02C1BDF440B86B1911D9BFA715F","c60fe244-bd1e-4983-a6df-6770a1e36203","051c06f1-75cc-4548-856d-4923ddaba0dc","{""num_scrambled_semantic"":""8"",""num_scrambled_causal"":""4"",""num_scrambled_schematic"":""4"",""participantId"":""4FB4D02C1BDF440B86B1911D9BFA715F"",""assignmentId"":""c60fe244-bd1e-4983-a6df-6770a1e36203"",""projectId"":""051c06f1-75cc-4548-856d-4923ddaba0dc""}","https://test12345.live/?num_scrambled_semantic=8&num_scrambled_causal=4&num_scrambled_schematic=4&participantId=4FB4D02C1BDF440B86B1911D9BFA715F&assignmentId=c60fe244-bd1e-4983-a6df-6770a1e36203&projectId=051c06f1-75cc-4548-856d-4923ddaba0dc","4FB4D02C1BDF440B86B1911D9BFA715F-2025-05-15-19-26-30","[{""page_index"":0,""viewing_time"":1681}]","1681","","","","",""
"","","","","","image-button-response","24","196887","0.0-10.0-0.0","4FB4D02C1BDF440B86B1911D9BFA715F","4FB4D02C1BDF440B86B1911D9BFA715F","c60fe244-bd1e-4983-a6df-6770a1e36203","051c06f1-75cc-4548-856d-4923ddaba0dc","{""num_scrambled_semantic"":""8"",""num_scrambled_causal"":""4"",""num_scrambled_schematic"":""4"",""participantId"":""4FB4D02C1BDF440B86B1911D9BFA715F"",""assignmentId"":""c60fe244-bd1e-4983-a6df-6770a1e36203"",""projectId"":""051c06f1-75cc-4548-856d-4923ddaba0dc""}","https://test12345.live/?num_scrambled_semantic=8&num_scrambled_causal=4&num_scrambled_schematic=4&participantId=4FB4D02C1BDF440B86B1911D9BFA715F&assignmentId=c60fe244-bd1e-4983-a6df-6770a1e36203&projectId=051c06f1-75cc-4548-856d-4923ddaba0dc","4FB4D02C1BDF440B86B1911D9BFA715F-2025-05-15-19-26-30","","null","","images/schematic_sequence/dinner_party_scheme/dinner_party_scheme_0.png","null","",""
"","","","","","image-button-response","25","201398","0.0-10.0-1.0-0.0","4FB4D02C1BDF440B86B1911D9BFA715F","4FB4D02C1BDF440B86B1911D9BFA715F","c60fe244-bd1e-4983-a6df-6770a1e36203","051c06f1-75cc-4548-856d-4923ddaba0dc","{""num_scrambled_semantic"":""8"",""num_scrambled_causal"":""4"",""num_scrambled_schematic"":""4"",""participantId"":""4FB4D02C1BDF440B86B1911D9BFA715F"",""assignmentId"":""c60fe244-bd1e-4983-a6df-6770a1e36203"",""projectId"":""051c06f1-75cc-4548-856d-4923ddaba0dc""}","https://test12345.live/?num_scrambled_semantic=8&num_scrambled_causal=4&num_scrambled_schematic=4&participantId=4FB4D02C1BDF440B86B1911D9BFA715F&assignmentId=c60fe244-bd1e-4983-a6df-6770a1e36203&projectId=051c06f1-75cc-4548-856d-4923ddaba0dc","4FB4D02C1BDF440B86B1911D9BFA715F-2025-05-15-19-26-30","","null","","images/schematic_sequence/dinner_party_scheme/dinner_party_scheme_3.png","null","",""
"","","","","","image-button-response","26","203093","0.0-10.0-1.0-1.0","4FB4D02C1BDF440B86B1911D9BFA715F","4FB4D02C1BDF440B86B1911D9BFA715F","c60fe244-bd1e-4983-a6df-6770a1e36203","051c06f1-75cc-4548-856d-4923ddaba0dc","{""num_scrambled_semantic"":""8"",""num_scrambled_causal"":""4"",""num_scrambled_schematic"":""4"",""participantId"":""4FB4D02C1BDF440B86B1911D9BFA715F"",""assignmentId"":""c60fe244-bd1e-4983-a6df-6770a1e36203"",""projectId"":""051c06f1-75cc-4548-856d-4923ddaba0dc""}","https://test12345.live/?num_scrambled_semantic=8&num_scrambled_causal=4&num_scrambled_schematic=4&participantId=4FB4D02C1BDF440B86B1911D9BFA715F&assignmentId=c60fe244-bd1e-4983-a6df-6770a1e36203&projectId=051c06f1-75cc-4548-856d-4923ddaba0dc","4FB4D02C1BDF440B86B1911D9BFA715F-2025-05-15-19-26-30","","1693","","images/schematic_sequence/dinner_party_scheme/dinner_party_scheme_3.png","0","",""
"","","","","","image-button-response","27","204898","0.0-10.0-1.0-2.0","4FB4D02C1BDF440B86B1911D9BFA715F","4FB4D02C1BDF440B86B1911D9BFA715F","c60fe244-bd1e-4983-a6df-6770a1e36203","051c06f1-75cc-4548-856d-4923ddaba0dc","{""num_scrambled_semantic"":""8"",""num_scrambled_causal"":""4"",""num_scrambled_schematic"":""4"",""participantId"":""4FB4D02C1BDF440B86B1911D9BFA715F"",""assignmentId"":""c60fe244-bd1e-4983-a6df-6770a1e36203"",""projectId"":""051c06f1-75cc-4548-856d-4923ddaba0dc""}","https://test12345.live/?num_scrambled_semantic=8&num_scrambled_causal=4&num_scrambled_schematic=4&participantId=4FB4D02C1BDF440B86B1911D9BFA715F&assignmentId=c60fe244-bd1e-4983-a6df-6770a1e36203&projectId=051c06f1-75cc-4548-856d-4923ddaba0dc","4FB4D02C1BDF440B86B1911D9BFA715F-2025-05-15-19-26-30","","null","","[]","null","",""
"","","","","","image-button-response","28","209406","0.0-10.0-1.0-0.1","4FB4D02C1BDF440B86B1911D9BFA715F","4FB4D02C1BDF440B86B1911D9BFA715F","c60fe244-bd1e-4983-a6df-6770a1e36203","051c06f1-75cc-4548-856d-4923ddaba0dc","{""num_scrambled_semantic"":""8"",""num_scrambled_causal"":""4"",""num_scrambled_schematic"":""4"",""participantId"":""4FB4D02C1BDF440B86B1911D9BFA715F"",""assignmentId"":""c60fe244-bd1e-4983-a6df-6770a1e36203"",""projectId"":""051c06f1-75cc-4548-856d-4923ddaba0dc""}","https://test12345.live/?num_scrambled_semantic=8&num_scrambled_causal=4&num_scrambled_schematic=4&participantId=4FB4D02C1BDF440B86B1911D9BFA715F&assignmentId=c60fe244-bd1e-4983-a6df-6770a1e36203&projectId=051c06f1-75cc-4548-856d-4923ddaba0dc","4FB4D02C1BDF440B86B1911D9BFA715F-2025-05-15-19-26-30","","null","","images/schematic_sequence/dinner_party_scheme/dinner_party_scheme_7.png","null","",""
"","","","","","image-button-response","29","210018","0.0-10.0-1.0-1.1","4FB4D02C1BDF440B86B1911D9BFA715F","4FB4D02C1BDF440B86B1911D9BFA715F","c60fe244-bd1e-4983-a6df-6770a1e36203","051c06f1-75cc-4548-856d-4923ddaba0dc","{""num_scrambled_semantic"":""8"",""num_scrambled_causal"":""4"",""num_scrambled_schematic"":""4"",""participantId"":""4FB4D02C1BDF440B86B1911D9BFA715F"",""assignmentId"":""c60fe244-bd1e-4983-a6df-6770a1e36203"",""projectId"":""051c06f1-75cc-4548-856d-4923ddaba0dc""}","https://test12345.live/?num_scrambled_semantic=8&num_scrambled_causal=4&num_scrambled_schematic=4&participantId=4FB4D02C1BDF440B86B1911D9BFA715F&assignmentId=c60fe244-bd1e-4983-a6df-6770a1e36203&projectId=051c06f1-75cc-4548-856d-4923ddaba0dc","4FB4D02C1BDF440B86B1911D9BFA715F-2025-05-15-19-26-30","","610","","images/schematic_sequence/dinner_party_scheme/dinner_party_scheme_7.png","0","",""
"","","","","","image-button-response","30","211821","0.0-10.0-1.0-2.1","4FB4D02C1BDF440B86B1911D9BFA715F","4FB4D02C1BDF440B86B1911D9BFA715F","c60fe244-bd1e-4983-a6df-6770a1e36203","051c06f1-75cc-4548-856d-4923ddaba0dc","{""num_scrambled_semantic"":""8"",""num_scrambled_causal"":""4"",""num_scrambled_schematic"":""4"",""participantId"":""4FB4D02C1BDF440B86B1911D9BFA715F"",""assignmentId"":""c60fe244-bd1e-4983-a6df-6770a1e36203"",""projectId"":""051c06f1-75cc-4548-856d-4923ddaba0dc""}","https://test12345.live/?num_scrambled_semantic=8&num_scrambled_causal=4&num_scrambled_schematic=4&participantId=4FB4D02C1BDF440B86B1911D9BFA715F&assignmentId=c60fe244-bd1e-4983-a6df-6770a1e36203&projectId=051c06f1-75cc-4548-856d-4923ddaba0dc","4FB4D02C1BDF440B86B1911D9BFA715F-2025-05-15-19-26-30","","null","","[]","null","",""
"","","","","","image-button-response","31","216327","0.0-10.0-1.0-0.2","4FB4D02C1BDF440B86B1911D9BFA715F","4FB4D02C1BDF440B86B1911D9BFA715F","c60fe244-bd1e-4983-a6df-6770a1e36203","051c06f1-75cc-4548-856d-4923ddaba0dc","{""num_scrambled_semantic"":""8"",""num_scrambled_causal"":""4"",""num_scrambled_schematic"":""4"",""participantId"":""4FB4D02C1BDF440B86B1911D9BFA715F"",""assignmentId"":""c60fe244-bd1e-4983-a6df-6770a1e36203"",""projectId"":""051c06f1-75cc-4548-856d-4923ddaba0dc""}","https://test12345.live/?num_scrambled_semantic=8&num_scrambled_causal=4&num_scrambled_schematic=4&participantId=4FB4D02C1BDF440B86B1911D9BFA715F&assignmentId=c60fe244-bd1e-4983-a6df-6770a1e36203&projectId=051c06f1-75cc-4548-856d-4923ddaba0dc","4FB4D02C1BDF440B86B1911D9BFA715F-2025-05-15-19-26-30","","null","","images/schematic_sequence/dinner_party_scheme/dinner_party_scheme_4.png","null","",""
"","","","","","image-button-response","32","216862","0.0-10.0-1.0-1.2","4FB4D02C1BDF440B86B1911D9BFA715F","4FB4D02C1BDF440B86B1911D9BFA715F","c60fe244-bd1e-4983-a6df-6770a1e36203","051c06f1-75cc-4548-856d-4923ddaba0dc","{""num_scrambled_semantic"":""8"",""num_scrambled_causal"":""4"",""num_scrambled_schematic"":""4"",""participantId"":""4FB4D02C1BDF440B86B1911D9BFA715F"",""assignmentId"":""c60fe244-bd1e-4983-a6df-6770a1e36203"",""projectId"":""051c06f1-75cc-4548-856d-4923ddaba0dc""}","https://test12345.live/?num_scrambled_semantic=8&num_scrambled_causal=4&num_scrambled_schematic=4&participantId=4FB4D02C1BDF440B86B1911D9BFA715F&assignmentId=c60fe244-bd1e-4983-a6df-6770a1e36203&projectId=051c06f1-75cc-4548-856d-4923ddaba0dc","4FB4D02C1BDF440B86B1911D9BFA715F-2025-05-15-19-26-30","","533","","images/schematic_sequence/dinner_party_scheme/dinner_party_scheme_4.png","0","",""
"","","","","","image-button-response","33","218668","0.0-10.0-1.0-2.2","4FB4D02C1BDF440B86B1911D9BFA715F","4FB4D02C1BDF440B86B1911D9BFA715F","c60fe244-bd1e-4983-a6df-6770a1e36203","051c06f1-75cc-4548-856d-4923ddaba0dc","{""num_scrambled_semantic"":""8"",""num_scrambled_causal"":""4"",""num_scrambled_schematic"":""4"",""participantId"":""4FB4D02C1BDF440B86B1911D9BFA715F"",""assignmentId"":""c60fe244-bd1e-4983-a6df-6770a1e36203"",""projectId"":""051c06f1-75cc-4548-856d-4923ddaba0dc""}","https://test12345.live/?num_scrambled_semantic=8&num_scrambled_causal=4&num_scrambled_schematic=4&participantId=4FB4D02C1BDF440B86B1911D9BFA715F&assignmentId=c60fe244-bd1e-4983-a6df-6770a1e36203&projectId=051c06f1-75cc-4548-856d-4923ddaba0dc","4FB4D02C1BDF440B86B1911D9BFA715F-2025-05-15-19-26-30","","null","","[]","null","",""
"","","","","","image-button-response","34","223172","0.0-10.0-1.0-0.3","4FB4D02C1BDF440B86B1911D9BFA715F","4FB4D02C1BDF440B86B1911D9BFA715F","c60fe244-bd1e-4983-a6df-6770a1e36203","051c06f1-75cc-4548-856d-4923ddaba0dc","{""num_scrambled_semantic"":""8"",""num_scrambled_causal"":""4"",""num_scrambled_schematic"":""4"",""participantId"":""4FB4D02C1BDF440B86B1911D9BFA715F"",""assignmentId"":""c60fe244-bd1e-4983-a6df-6770a1e36203"",""projectId"":""051c06f1-75cc-4548-856d-4923ddaba0dc""}","https://test12345.live/?num_scrambled_semantic=8&num_scrambled_causal=4&num_scrambled_schematic=4&participantId=4FB4D02C1BDF440B86B1911D9BFA715F&assignmentId=c60fe244-bd1e-4983-a6df-6770a1e36203&projectId=051c06f1-75cc-4548-856d-4923ddaba0dc","4FB4D02C1BDF440B86B1911D9BFA715F-2025-05-15-19-26-30","","null","","images/schematic_sequence/dinner_party_scheme/dinner_party_scheme_8.png","null","",""
"","","","","","image-button-response","35","223663","0.0-10.0-1.0-1.3","4FB4D02C1BDF440B86B1911D9BFA715F","4FB4D02C1BDF440B86B1911D9BFA715F","c60fe244-bd1e-4983-a6df-6770a1e36203","051c06f1-75cc-4548-856d-4923ddaba0dc","{""num_scrambled_semantic"":""8"",""num_scrambled_causal"":""4"",""num_scrambled_schematic"":""4"",""participantId"":""4FB4D02C1BDF440B86B1911D9BFA715F"",""assignmentId"":""c60fe244-bd1e-4983-a6df-6770a1e36203"",""projectId"":""051c06f1-75cc-4548-856d-4923ddaba0dc""}","https://test12345.live/?num_scrambled_semantic=8&num_scrambled_causal=4&num_scrambled_schematic=4&participantId=4FB4D02C1BDF440B86B1911D9BFA715F&assignmentId=c60fe244-bd1e-4983-a6df-6770a1e36203&projectId=051c06f1-75cc-4548-856d-4923ddaba0dc","4FB4D02C1BDF440B86B1911D9BFA715F-2025-05-15-19-26-30","","489","","images/schematic_sequence/dinner_party_scheme/dinner_party_scheme_8.png","0","",""
"","","","","","image-button-response","36","225468","0.0-10.0-1.0-2.3","4FB4D02C1BDF440B86B1911D9BFA715F","4FB4D02C1BDF440B86B1911D9BFA715F","c60fe244-bd1e-4983-a6df-6770a1e36203","051c06f1-75cc-4548-856d-4923ddaba0dc","{""num_scrambled_semantic"":""8"",""num_scrambled_causal"":""4"",""num_scrambled_schematic"":""4"",""participantId"":""4FB4D02C1BDF440B86B1911D9BFA715F"",""assignmentId"":""c60fe244-bd1e-4983-a6df-6770a1e36203"",""projectId"":""051c06f1-75cc-4548-856d-4923ddaba0dc""}","https://test12345.live/?num_scrambled_semantic=8&num_scrambled_causal=4&num_scrambled_schematic=4&participantId=4FB4D02C1BDF440B86B1911D9BFA715F&assignmentId=c60fe244-bd1e-4983-a6df-6770a1e36203&projectId=051c06f1-75cc-4548-856d-4923ddaba0dc","4FB4D02C1BDF440B86B1911D9BFA715F-2025-05-15-19-26-30","","null","","[]","null","",""
"","","","","","image-button-response","37","229979","0.0-10.0-1.0-0.4","4FB4D02C1BDF440B86B1911D9BFA715F","4FB4D02C1BDF440B86B1911D9BFA715F","c60fe244-bd1e-4983-a6df-6770a1e36203","051c06f1-75cc-4548-856d-4923ddaba0dc","{""num_scrambled_semantic"":""8"",""num_scrambled_causal"":""4"",""num_scrambled_schematic"":""4"",""participantId"":""4FB4D02C1BDF440B86B1911D9BFA715F"",""assignmentId"":""c60fe244-bd1e-4983-a6df-6770a1e36203"",""projectId"":""051c06f1-75cc-4548-856d-4923ddaba0dc""}","https://test12345.live/?num_scrambled_semantic=8&num_scrambled_causal=4&num_scrambled_schematic=4&participantId=4FB4D02C1BDF440B86B1911D9BFA715F&assignmentId=c60fe244-bd1e-4983-a6df-6770a1e36203&projectId=051c06f1-75cc-4548-856d-4923ddaba0dc","4FB4D02C1BDF440B86B1911D9BFA715F-2025-05-15-19-26-30","","null","","images/schematic_sequence/dinner_party_scheme/dinner_party_scheme_6.png","null","",""
"","","","","","image-button-response","38","231411","0.0-10.0-1.0-1.4","4FB4D02C1BDF440B86B1911D9BFA715F","4FB4D02C1BDF440B86B1911D9BFA715F","c60fe244-bd1e-4983-a6df-6770a1e36203","051c06f1-75cc-4548-856d-4923ddaba0dc","{""num_scrambled_semantic"":""8"",""num_scrambled_causal"":""4"",""num_scrambled_schematic"":""4"",""participantId"":""4FB4D02C1BDF440B86B1911D9BFA715F"",""assignmentId"":""c60fe244-bd1e-4983-a6df-6770a1e36203"",""projectId"":""051c06f1-75cc-4548-856d-4923ddaba0dc""}","https://test12345.live/?num_scrambled_semantic=8&num_scrambled_causal=4&num_scrambled_schematic=4&participantId=4FB4D02C1BDF440B86B1911D9BFA715F&assignmentId=c60fe244-bd1e-4983-a6df-6770a1e36203&projectId=051c06f1-75cc-4548-856d-4923ddaba0dc","4FB4D02C1BDF440B86B1911D9BFA715F-2025-05-15-19-26-30","","1430","","images/schematic_sequence/dinner_party_scheme/dinner_party_scheme_6.png","0","",""
"","","","","","image-button-response","39","233220","0.0-10.0-1.0-2.4","4FB4D02C1BDF440B86B1911D9BFA715F","4FB4D02C1BDF440B86B1911D9BFA715F","c60fe244-bd1e-4983-a6df-6770a1e36203","051c06f1-75cc-4548-856d-4923ddaba0dc","{""num_scrambled_semantic"":""8"",""num_scrambled_causal"":""4"",""num_scrambled_schematic"":""4"",""participantId"":""4FB4D02C1BDF440B86B1911D9BFA715F"",""assignmentId"":""c60fe244-bd1e-4983-a6df-6770a1e36203"",""projectId"":""051c06f1-75cc-4548-856d-4923ddaba0dc""}","https://test12345.live/?num_scrambled_semantic=8&num_scrambled_causal=4&num_scrambled_schematic=4&participantId=4FB4D02C1BDF440B86B1911D9BFA715F&assignmentId=c60fe244-bd1e-4983-a6df-6770a1e36203&projectId=051c06f1-75cc-4548-856d-4923ddaba0dc","4FB4D02C1BDF440B86B1911D9BFA715F-2025-05-15-19-26-30","","null","","[]","null","",""
"","","","","","image-button-response","40","237727","0.0-10.0-1.0-0.5","4FB4D02C1BDF440B86B1911D9BFA715F","4FB4D02C1BDF440B86B1911D9BFA715F","c60fe244-bd1e-4983-a6df-6770a1e36203","051c06f1-75cc-4548-856d-4923ddaba0dc","{""num_scrambled_semantic"":""8"",""num_scrambled_causal"":""4"",""num_scrambled_schematic"":""4"",""participantId"":""4FB4D02C1BDF440B86B1911D9BFA715F"",""assignmentId"":""c60fe244-bd1e-4983-a6df-6770a1e36203"",""projectId"":""051c06f1-75cc-4548-856d-4923ddaba0dc""}","https://test12345.live/?num_scrambled_semantic=8&num_scrambled_causal=4&num_scrambled_schematic=4&participantId=4FB4D02C1BDF440B86B1911D9BFA715F&assignmentId=c60fe244-bd1e-4983-a6df-6770a1e36203&projectId=051c06f1-75cc-4548-856d-4923ddaba0dc","4FB4D02C1BDF440B86B1911D9BFA715F-2025-05-15-19-26-30","","null","","images/schematic_sequence/dinner_party_scheme/dinner_party_scheme_1.png","null","",""
"","","","","","image-button-response","41","238602","0.0-10.0-1.0-1.5","4FB4D02C1BDF440B86B1911D9BFA715F","4FB4D02C1BDF440B86B1911D9BFA715F","c60fe244-bd1e-4983-a6df-6770a1e36203","051c06f1-75cc-4548-856d-4923ddaba0dc","{""num_scrambled_semantic"":""8"",""num_scrambled_causal"":""4"",""num_scrambled_schematic"":""4"",""participantId"":""4FB4D02C1BDF440B86B1911D9BFA715F"",""assignmentId"":""c60fe244-bd1e-4983-a6df-6770a1e36203"",""projectId"":""051c06f1-75cc-4548-856d-4923ddaba0dc""}","https://test12345.live/?num_scrambled_semantic=8&num_scrambled_causal=4&num_scrambled_schematic=4&participantId=4FB4D02C1BDF440B86B1911D9BFA715F&assignmentId=c60fe244-bd1e-4983-a6df-6770a1e36203&projectId=051c06f1-75cc-4548-856d-4923ddaba0dc","4FB4D02C1BDF440B86B1911D9BFA715F-2025-05-15-19-26-30","","873","","images/schematic_sequence/dinner_party_scheme/dinner_party_scheme_1.png","0","",""
"","","","","","image-button-response","42","240405","0.0-10.0-1.0-2.5","4FB4D02C1BDF440B86B1911D9BFA715F","4FB4D02C1BDF440B86B1911D9BFA715F","c60fe244-bd1e-4983-a6df-6770a1e36203","051c06f1-75cc-4548-856d-4923ddaba0dc","{""num_scrambled_semantic"":""8"",""num_scrambled_causal"":""4"",""num_scrambled_schematic"":""4"",""participantId"":""4FB4D02C1BDF440B86B1911D9BFA715F"",""assignmentId"":""c60fe244-bd1e-4983-a6df-6770a1e36203"",""projectId"":""051c06f1-75cc-4548-856d-4923ddaba0dc""}","https://test12345.live/?num_scrambled_semantic=8&num_scrambled_causal=4&num_scrambled_schematic=4&participantId=4FB4D02C1BDF440B86B1911D9BFA715F&assignmentId=c60fe244-bd1e-4983-a6df-6770a1e36203&projectId=051c06f1-75cc-4548-856d-4923ddaba0dc","4FB4D02C1BDF440B86B1911D9BFA715F-2025-05-15-19-26-30","","null","","[]","null","",""
"","","","","","image-button-response","43","244907","0.0-10.0-1.0-0.6","4FB4D02C1BDF440B86B1911D9BFA715F","4FB4D02C1BDF440B86B1911D9BFA715F","c60fe244-bd1e-4983-a6df-6770a1e36203","051c06f1-75cc-4548-856d-4923ddaba0dc","{""num_scrambled_semantic"":""8"",""num_scrambled_causal"":""4"",""num_scrambled_schematic"":""4"",""participantId"":""4FB4D02C1BDF440B86B1911D9BFA715F"",""assignmentId"":""c60fe244-bd1e-4983-a6df-6770a1e36203"",""projectId"":""051c06f1-75cc-4548-856d-4923ddaba0dc""}","https://test12345.live/?num_scrambled_semantic=8&num_scrambled_causal=4&num_scrambled_schematic=4&participantId=4FB4D02C1BDF440B86B1911D9BFA715F&assignmentId=c60fe244-bd1e-4983-a6df-6770a1e36203&projectId=051c06f1-75cc-4548-856d-4923ddaba0dc","4FB4D02C1BDF440B86B1911D9BFA715F-2025-05-15-19-26-30","","null","","images/schematic_sequence/dinner_party_scheme/dinner_party_scheme_2.png","null","",""
"","","","","","image-button-response","44","245567","0.0-10.0-1.0-1.6","4FB4D02C1BDF440B86B1911D9BFA715F","4FB4D02C1BDF440B86B1911D9BFA715F","c60fe244-bd1e-4983-a6df-6770a1e36203","051c06f1-75cc-4548-856d-4923ddaba0dc","{""num_scrambled_semantic"":""8"",""num_scrambled_causal"":""4"",""num_scrambled_schematic"":""4"",""participantId"":""4FB4D02C1BDF440B86B1911D9BFA715F"",""assignmentId"":""c60fe244-bd1e-4983-a6df-6770a1e36203"",""projectId"":""051c06f1-75cc-4548-856d-4923ddaba0dc""}","https://test12345.live/?num_scrambled_semantic=8&num_scrambled_causal=4&num_scrambled_schematic=4&participantId=4FB4D02C1BDF440B86B1911D9BFA715F&assignmentId=c60fe244-bd1e-4983-a6df-6770a1e36203&projectId=051c06f1-75cc-4548-856d-4923ddaba0dc","4FB4D02C1BDF440B86B1911D9BFA715F-2025-05-15-19-26-30","","658","","images/schematic_sequence/dinner_party_scheme/dinner_party_scheme_2.png","0","",""
"","","","","","image-button-response","45","247378","0.0-10.0-1.0-2.6","4FB4D02C1BDF440B86B1911D9BFA715F","4FB4D02C1BDF440B86B1911D9BFA715F","c60fe244-bd1e-4983-a6df-6770a1e36203","051c06f1-75cc-4548-856d-4923ddaba0dc","{""num_scrambled_semantic"":""8"",""num_scrambled_causal"":""4"",""num_scrambled_schematic"":""4"",""participantId"":""4FB4D02C1BDF440B86B1911D9BFA715F"",""assignmentId"":""c60fe244-bd1e-4983-a6df-6770a1e36203"",""projectId"":""051c06f1-75cc-4548-856d-4923ddaba0dc""}","https://test12345.live/?num_scrambled_semantic=8&num_scrambled_causal=4&num_scrambled_schematic=4&participantId=4FB4D02C1BDF440B86B1911D9BFA715F&assignmentId=c60fe244-bd1e-4983-a6df-6770a1e36203&projectId=051c06f1-75cc-4548-856d-4923ddaba0dc","4FB4D02C1BDF440B86B1911D9BFA715F-2025-05-15-19-26-30","","null","","[]","null","",""
"","","","","","image-button-response","46","251891","0.0-10.0-1.0-0.7","4FB4D02C1BDF440B86B1911D9BFA715F","4FB4D02C1BDF440B86B1911D9BFA715F","c60fe244-bd1e-4983-a6df-6770a1e36203","051c06f1-75cc-4548-856d-4923ddaba0dc","{""num_scrambled_semantic"":""8"",""num_scrambled_causal"":""4"",""num_scrambled_schematic"":""4"",""participantId"":""4FB4D02C1BDF440B86B1911D9BFA715F"",""assignmentId"":""c60fe244-bd1e-4983-a6df-6770a1e36203"",""projectId"":""051c06f1-75cc-4548-856d-4923ddaba0dc""}","https://test12345.live/?num_scrambled_semantic=8&num_scrambled_causal=4&num_scrambled_schematic=4&participantId=4FB4D02C1BDF440B86B1911D9BFA715F&assignmentId=c60fe244-bd1e-4983-a6df-6770a1e36203&projectId=051c06f1-75cc-4548-856d-4923ddaba0dc","4FB4D02C1BDF440B86B1911D9BFA715F-2025-05-15-19-26-30","","null","","images/schematic_sequence/dinner_party_scheme/dinner_party_scheme_9.png","null","",""
"","","","","","image-button-response","47","253518","0.0-10.0-1.0-1.7","4FB4D02C1BDF440B86B1911D9BFA715F","4FB4D02C1BDF440B86B1911D9BFA715F","c60fe244-bd1e-4983-a6df-6770a1e36203","051c06f1-75cc-4548-856d-4923ddaba0dc","{""num_scrambled_semantic"":""8"",""num_scrambled_causal"":""4"",""num_scrambled_schematic"":""4"",""participantId"":""4FB4D02C1BDF440B86B1911D9BFA715F"",""assignmentId"":""c60fe244-bd1e-4983-a6df-6770a1e36203"",""projectId"":""051c06f1-75cc-4548-856d-4923ddaba0dc""}","https://test12345.live/?num_scrambled_semantic=8&num_scrambled_causal=4&num_scrambled_schematic=4&participantId=4FB4D02C1BDF440B86B1911D9BFA715F&assignmentId=c60fe244-bd1e-4983-a6df-6770a1e36203&projectId=051c06f1-75cc-4548-856d-4923ddaba0dc","4FB4D02C1BDF440B86B1911D9BFA715F-2025-05-15-19-26-30","","1626","","images/schematic_sequence/dinner_party_scheme/dinner_party_scheme_9.png","0","",""
"","","","","","image-button-response","48","255333","0.0-10.0-1.0-2.7","4FB4D02C1BDF440B86B1911D9BFA715F","4FB4D02C1BDF440B86B1911D9BFA715F","c60fe244-bd1e-4983-a6df-6770a1e36203","051c06f1-75cc-4548-856d-4923ddaba0dc","{""num_scrambled_semantic"":""8"",""num_scrambled_causal"":""4"",""num_scrambled_schematic"":""4"",""participantId"":""4FB4D02C1BDF440B86B1911D9BFA715F"",""assignmentId"":""c60fe244-bd1e-4983-a6df-6770a1e36203"",""projectId"":""051c06f1-75cc-4548-856d-4923ddaba0dc""}","https://test12345.live/?num_scrambled_semantic=8&num_scrambled_causal=4&num_scrambled_schematic=4&participantId=4FB4D02C1BDF440B86B1911D9BFA715F&assignmentId=c60fe244-bd1e-4983-a6df-6770a1e36203&projectId=051c06f1-75cc-4548-856d-4923ddaba0dc","4FB4D02C1BDF440B86B1911D9BFA715F-2025-05-15-19-26-30","","null","","[]","null","",""
"","","","","","image-button-response","49","259838","0.0-10.0-1.0-0.8","4FB4D02C1BDF440B86B1911D9BFA715F","4FB4D02C1BDF440B86B1911D9BFA715F","c60fe244-bd1e-4983-a6df-6770a1e36203","051c06f1-75cc-4548-856d-4923ddaba0dc","{""num_scrambled_semantic"":""8"",""num_scrambled_causal"":""4"",""num_scrambled_schematic"":""4"",""participantId"":""4FB4D02C1BDF440B86B1911D9BFA715F"",""assignmentId"":""c60fe244-bd1e-4983-a6df-6770a1e36203"",""projectId"":""051c06f1-75cc-4548-856d-4923ddaba0dc""}","https://test12345.live/?num_scrambled_semantic=8&num_scrambled_causal=4&num_scrambled_schematic=4&participantId=4FB4D02C1BDF440B86B1911D9BFA715F&assignmentId=c60fe244-bd1e-4983-a6df-6770a1e36203&projectId=051c06f1-75cc-4548-856d-4923ddaba0dc","4FB4D02C1BDF440B86B1911D9BFA715F-2025-05-15-19-26-30","","null","","images/schematic_sequence/dinner_party_scheme/dinner_party_scheme_ten.png","null","",""
"","","","","","image-button-response","50","260706","0.0-10.0-1.0-1.8","4FB4D02C1BDF440B86B1911D9BFA715F","4FB4D02C1BDF440B86B1911D9BFA715F","c60fe244-bd1e-4983-a6df-6770a1e36203","051c06f1-75cc-4548-856d-4923ddaba0dc","{""num_scrambled_semantic"":""8"",""num_scrambled_causal"":""4"",""num_scrambled_schematic"":""4"",""participantId"":""4FB4D02C1BDF440B86B1911D9BFA715F"",""assignmentId"":""c60fe244-bd1e-4983-a6df-6770a1e36203"",""projectId"":""051c06f1-75cc-4548-856d-4923ddaba0dc""}","https://test12345.live/?num_scrambled_semantic=8&num_scrambled_causal=4&num_scrambled_schematic=4&participantId=4FB4D02C1BDF440B86B1911D9BFA715F&assignmentId=c60fe244-bd1e-4983-a6df-6770a1e36203&projectId=051c06f1-75cc-4548-856d-4923ddaba0dc","4FB4D02C1BDF440B86B1911D9BFA715F-2025-05-15-19-26-30","","866","","images/schematic_sequence/dinner_party_scheme/dinner_party_scheme_ten.png","0","",""
"","","","","","image-button-response","51","262513","0.0-10.0-1.0-2.8","4FB4D02C1BDF440B86B1911D9BFA715F","4FB4D02C1BDF440B86B1911D9BFA715F","c60fe244-bd1e-4983-a6df-6770a1e36203","051c06f1-75cc-4548-856d-4923ddaba0dc","{""num_scrambled_semantic"":""8"",""num_scrambled_causal"":""4"",""num_scrambled_schematic"":""4"",""participantId"":""4FB4D02C1BDF440B86B1911D9BFA715F"",""assignmentId"":""c60fe244-bd1e-4983-a6df-6770a1e36203"",""projectId"":""051c06f1-75cc-4548-856d-4923ddaba0dc""}","https://test12345.live/?num_scrambled_semantic=8&num_scrambled_causal=4&num_scrambled_schematic=4&participantId=4FB4D02C1BDF440B86B1911D9BFA715F&assignmentId=c60fe244-bd1e-4983-a6df-6770a1e36203&projectId=051c06f1-75cc-4548-856d-4923ddaba0dc","4FB4D02C1BDF440B86B1911D9BFA715F-2025-05-15-19-26-30","","null","","[]","null","",""
"","","","","","image-button-response","52","267020","0.0-10.0-1.0-0.9","4FB4D02C1BDF440B86B1911D9BFA715F","4FB4D02C1BDF440B86B1911D9BFA715F","c60fe244-bd1e-4983-a6df-6770a1e36203","051c06f1-75cc-4548-856d-4923ddaba0dc","{""num_scrambled_semantic"":""8"",""num_scrambled_causal"":""4"",""num_scrambled_schematic"":""4"",""participantId"":""4FB4D02C1BDF440B86B1911D9BFA715F"",""assignmentId"":""c60fe244-bd1e-4983-a6df-6770a1e36203"",""projectId"":""051c06f1-75cc-4548-856d-4923ddaba0dc""}","https://test12345.live/?num_scrambled_semantic=8&num_scrambled_causal=4&num_scrambled_schematic=4&participantId=4FB4D02C1BDF440B86B1911D9BFA715F&assignmentId=c60fe244-bd1e-4983-a6df-6770a1e36203&projectId=051c06f1-75cc-4548-856d-4923ddaba0dc","4FB4D02C1BDF440B86B1911D9BFA715F-2025-05-15-19-26-30","","null","","images/schematic_sequence/dinner_party_scheme/dinner_party_scheme_5.png","null","",""
"","","","","","image-button-response","53","267839","0.0-10.0-1.0-1.9","4FB4D02C1BDF440B86B1911D9BFA715F","4FB4D02C1BDF440B86B1911D9BFA715F","c60fe244-bd1e-4983-a6df-6770a1e36203","051c06f1-75cc-4548-856d-4923ddaba0dc","{""num_scrambled_semantic"":""8"",""num_scrambled_causal"":""4"",""num_scrambled_schematic"":""4"",""participantId"":""4FB4D02C1BDF440B86B1911D9BFA715F"",""assignmentId"":""c60fe244-bd1e-4983-a6df-6770a1e36203"",""projectId"":""051c06f1-75cc-4548-856d-4923ddaba0dc""}","https://test12345.live/?num_scrambled_semantic=8&num_scrambled_causal=4&num_scrambled_schematic=4&participantId=4FB4D02C1BDF440B86B1911D9BFA715F&assignmentId=c60fe244-bd1e-4983-a6df-6770a1e36203&projectId=051c06f1-75cc-4548-856d-4923ddaba0dc","4FB4D02C1BDF440B86B1911D9BFA715F-2025-05-15-19-26-30","","816","","images/schematic_sequence/dinner_party_scheme/dinner_party_scheme_5.png","0","",""
"","","","","","image-button-response","54","269644","0.0-10.0-1.0-2.9","4FB4D02C1BDF440B86B1911D9BFA715F","4FB4D02C1BDF440B86B1911D9BFA715F","c60fe244-bd1e-4983-a6df-6770a1e36203","051c06f1-75cc-4548-856d-4923ddaba0dc","{""num_scrambled_semantic"":""8"",""num_scrambled_causal"":""4"",""num_scrambled_schematic"":""4"",""participantId"":""4FB4D02C1BDF440B86B1911D9BFA715F"",""assignmentId"":""c60fe244-bd1e-4983-a6df-6770a1e36203"",""projectId"":""051c06f1-75cc-4548-856d-4923ddaba0dc""}","https://test12345.live/?num_scrambled_semantic=8&num_scrambled_causal=4&num_scrambled_schematic=4&participantId=4FB4D02C1BDF440B86B1911D9BFA715F&assignmentId=c60fe244-bd1e-4983-a6df-6770a1e36203&projectId=051c06f1-75cc-4548-856d-4923ddaba0dc","4FB4D02C1BDF440B86B1911D9BFA715F-2025-05-15-19-26-30","","null","","[]","null","",""
"","","","","","html-audio-response","55","326127","0.0-11.0","4FB4D02C1BDF440B86B1911D9BFA715F","4FB4D02C1BDF440B86B1911D9BFA715F","c60fe244-bd1e-4983-a6df-6770a1e36203","051c06f1-75cc-4548-856d-4923ddaba0dc","{""num_scrambled_semantic"":""8"",""num_scrambled_causal"":""4"",""num_scrambled_schematic"":""4"",""participantId"":""4FB4D02C1BDF440B86B1911D9BFA715F"",""assignmentId"":""c60fe244-bd1e-4983-a6df-6770a1e36203"",""projectId"":""051c06f1-75cc-4548-856d-4923ddaba0dc""}","https://test12345.live/?num_scrambled_semantic=8&num_scrambled_causal=4&num_scrambled_schematic=4&participantId=4FB4D02C1BDF440B86B1911D9BFA715F&assignmentId=c60fe244-bd1e-4983-a6df-6770a1e36203&projectId=051c06f1-75cc-4548-856d-4923ddaba0dc","4FB4D02C1BDF440B86B1911D9BFA715F-2025-05-15-19-26-30","","1624","","[""<span style=\""color: red; font-size: 24px\""> NOW RECORDING</span><p>Please say out loud all the images you saw, as many as you can remember. The images can be said in any order.</p>""]","","2","dinner_party_scheme"
"","","","","","image-button-response","56","332153","0.0-12.0-0.0","4FB4D02C1BDF440B86B1911D9BFA715F","4FB4D02C1BDF440B86B1911D9BFA715F","c60fe244-bd1e-4983-a6df-6770a1e36203","051c06f1-75cc-4548-856d-4923ddaba0dc","{""num_scrambled_semantic"":""8"",""num_scrambled_causal"":""4"",""num_scrambled_schematic"":""4"",""participantId"":""4FB4D02C1BDF440B86B1911D9BFA715F"",""assignmentId"":""c60fe244-bd1e-4983-a6df-6770a1e36203"",""projectId"":""051c06f1-75cc-4548-856d-4923ddaba0dc""}","https://test12345.live/?num_scrambled_semantic=8&num_scrambled_causal=4&num_scrambled_schematic=4&participantId=4FB4D02C1BDF440B86B1911D9BFA715F&assignmentId=c60fe244-bd1e-4983-a6df-6770a1e36203&projectId=051c06f1-75cc-4548-856d-4923ddaba0dc","4FB4D02C1BDF440B86B1911D9BFA715F-2025-05-15-19-26-30","","null","","images/causal_sequence/coin_causal/coin_causal_0.png","null","",""
"","","","","","image-button-response","57","336665","0.0-12.0-1.0-0.0","4FB4D02C1BDF440B86B1911D9BFA715F","4FB4D02C1BDF440B86B1911D9BFA715F","c60fe244-bd1e-4983-a6df-6770a1e36203","051c06f1-75cc-4548-856d-4923ddaba0dc","{""num_scrambled_semantic"":""8"",""num_scrambled_causal"":""4"",""num_scrambled_schematic"":""4"",""participantId"":""4FB4D02C1BDF440B86B1911D9BFA715F"",""assignmentId"":""c60fe244-bd1e-4983-a6df-6770a1e36203"",""projectId"":""051c06f1-75cc-4548-856d-4923ddaba0dc""}","https://test12345.live/?num_scrambled_semantic=8&num_scrambled_causal=4&num_scrambled_schematic=4&participantId=4FB4D02C1BDF440B86B1911D9BFA715F&assignmentId=c60fe244-bd1e-4983-a6df-6770a1e36203&projectId=051c06f1-75cc-4548-856d-4923ddaba0dc","4FB4D02C1BDF440B86B1911D9BFA715F-2025-05-15-19-26-30","","null","","images/causal_sequence/coin_causal/coin_causal_1.png","null","",""
"","","","","","image-button-response","58","338449","0.0-12.0-1.0-1.0","4FB4D02C1BDF440B86B1911D9BFA715F","4FB4D02C1BDF440B86B1911D9BFA715F","c60fe244-bd1e-4983-a6df-6770a1e36203","051c06f1-75cc-4548-856d-4923ddaba0dc","{""num_scrambled_semantic"":""8"",""num_scrambled_causal"":""4"",""num_scrambled_schematic"":""4"",""participantId"":""4FB4D02C1BDF440B86B1911D9BFA715F"",""assignmentId"":""c60fe244-bd1e-4983-a6df-6770a1e36203"",""projectId"":""051c06f1-75cc-4548-856d-4923ddaba0dc""}","https://test12345.live/?num_scrambled_semantic=8&num_scrambled_causal=4&num_scrambled_schematic=4&participantId=4FB4D02C1BDF440B86B1911D9BFA715F&assignmentId=c60fe244-bd1e-4983-a6df-6770a1e36203&projectId=051c06f1-75cc-4548-856d-4923ddaba0dc","4FB4D02C1BDF440B86B1911D9BFA715F-2025-05-15-19-26-30","","1782","","images/causal_sequence/coin_causal/coin_causal_1.png","0","",""
"","","","","","image-button-response","59","340253","0.0-12.0-1.0-2.0","4FB4D02C1BDF440B86B1911D9BFA715F","4FB4D02C1BDF440B86B1911D9BFA715F","c60fe244-bd1e-4983-a6df-6770a1e36203","051c06f1-75cc-4548-856d-4923ddaba0dc","{""num_scrambled_semantic"":""8"",""num_scrambled_causal"":""4"",""num_scrambled_schematic"":""4"",""participantId"":""4FB4D02C1BDF440B86B1911D9BFA715F"",""assignmentId"":""c60fe244-bd1e-4983-a6df-6770a1e36203"",""projectId"":""051c06f1-75cc-4548-856d-4923ddaba0dc""}","https://test12345.live/?num_scrambled_semantic=8&num_scrambled_causal=4&num_scrambled_schematic=4&participantId=4FB4D02C1BDF440B86B1911D9BFA715F&assignmentId=c60fe244-bd1e-4983-a6df-6770a1e36203&projectId=051c06f1-75cc-4548-856d-4923ddaba0dc","4FB4D02C1BDF440B86B1911D9BFA715F-2025-05-15-19-26-30","","null","","[]","null","",""
"","","","","","image-button-response","60","344765","0.0-12.0-1.0-0.1","4FB4D02C1BDF440B86B1911D9BFA715F","4FB4D02C1BDF440B86B1911D9BFA715F","c60fe244-bd1e-4983-a6df-6770a1e36203","051c06f1-75cc-4548-856d-4923ddaba0dc","{""num_scrambled_semantic"":""8"",""num_scrambled_causal"":""4"",""num_scrambled_schematic"":""4"",""participantId"":""4FB4D02C1BDF440B86B1911D9BFA715F"",""assignmentId"":""c60fe244-bd1e-4983-a6df-6770a1e36203"",""projectId"":""051c06f1-75cc-4548-856d-4923ddaba0dc""}","https://test12345.live/?num_scrambled_semantic=8&num_scrambled_causal=4&num_scrambled_schematic=4&participantId=4FB4D02C1BDF440B86B1911D9BFA715F&assignmentId=c60fe244-bd1e-4983-a6df-6770a1e36203&projectId=051c06f1-75cc-4548-856d-4923ddaba0dc","4FB4D02C1BDF440B86B1911D9BFA715F-2025-05-15-19-26-30","","null","","images/causal_sequence/coin_causal/coin_causal_2.png","null","",""
"","","","","","image-button-response","61","345829","0.0-12.0-1.0-1.1","4FB4D02C1BDF440B86B1911D9BFA715F","4FB4D02C1BDF440B86B1911D9BFA715F","c60fe244-bd1e-4983-a6df-6770a1e36203","051c06f1-75cc-4548-856d-4923ddaba0dc","{""num_scrambled_semantic"":""8"",""num_scrambled_causal"":""4"",""num_scrambled_schematic"":""4"",""participantId"":""4FB4D02C1BDF440B86B1911D9BFA715F"",""assignmentId"":""c60fe244-bd1e-4983-a6df-6770a1e36203"",""projectId"":""051c06f1-75cc-4548-856d-4923ddaba0dc""}","https://test12345.live/?num_scrambled_semantic=8&num_scrambled_causal=4&num_scrambled_schematic=4&participantId=4FB4D02C1BDF440B86B1911D9BFA715F&assignmentId=c60fe244-bd1e-4983-a6df-6770a1e36203&projectId=051c06f1-75cc-4548-856d-4923ddaba0dc","4FB4D02C1BDF440B86B1911D9BFA715F-2025-05-15-19-26-30","","1062","","images/causal_sequence/coin_causal/coin_causal_2.png","0","",""
"","","","","","image-button-response","62","347633","0.0-12.0-1.0-2.1","4FB4D02C1BDF440B86B1911D9BFA715F","4FB4D02C1BDF440B86B1911D9BFA715F","c60fe244-bd1e-4983-a6df-6770a1e36203","051c06f1-75cc-4548-856d-4923ddaba0dc","{""num_scrambled_semantic"":""8"",""num_scrambled_causal"":""4"",""num_scrambled_schematic"":""4"",""participantId"":""4FB4D02C1BDF440B86B1911D9BFA715F"",""assignmentId"":""c60fe244-bd1e-4983-a6df-6770a1e36203"",""projectId"":""051c06f1-75cc-4548-856d-4923ddaba0dc""}","https://test12345.live/?num_scrambled_semantic=8&num_scrambled_causal=4&num_scrambled_schematic=4&participantId=4FB4D02C1BDF440B86B1911D9BFA715F&assignmentId=c60fe244-bd1e-4983-a6df-6770a1e36203&projectId=051c06f1-75cc-4548-856d-4923ddaba0dc","4FB4D02C1BDF440B86B1911D9BFA715F-2025-05-15-19-26-30","","null","","[]","null","",""
"","","","","","image-button-response","63","352136","0.0-12.0-1.0-0.2","4FB4D02C1BDF440B86B1911D9BFA715F","4FB4D02C1BDF440B86B1911D9BFA715F","c60fe244-bd1e-4983-a6df-6770a1e36203","051c06f1-75cc-4548-856d-4923ddaba0dc","{""num_scrambled_semantic"":""8"",""num_scrambled_causal"":""4"",""num_scrambled_schematic"":""4"",""participantId"":""4FB4D02C1BDF440B86B1911D9BFA715F"",""assignmentId"":""c60fe244-bd1e-4983-a6df-6770a1e36203"",""projectId"":""051c06f1-75cc-4548-856d-4923ddaba0dc""}","https://test12345.live/?num_scrambled_semantic=8&num_scrambled_causal=4&num_scrambled_schematic=4&participantId=4FB4D02C1BDF440B86B1911D9BFA715F&assignmentId=c60fe244-bd1e-4983-a6df-6770a1e36203&projectId=051c06f1-75cc-4548-856d-4923ddaba0dc","4FB4D02C1BDF440B86B1911D9BFA715F-2025-05-15-19-26-30","","null","","images/causal_sequence/coin_causal/coin_causal_3.png","null","",""
"","","","","","image-button-response","64","352826","0.0-12.0-1.0-1.2","4FB4D02C1BDF440B86B1911D9BFA715F","4FB4D02C1BDF440B86B1911D9BFA715F","c60fe244-bd1e-4983-a6df-6770a1e36203","051c06f1-75cc-4548-856d-4923ddaba0dc","{""num_scrambled_semantic"":""8"",""num_scrambled_causal"":""4"",""num_scrambled_schematic"":""4"",""participantId"":""4FB4D02C1BDF440B86B1911D9BFA715F"",""assignmentId"":""c60fe244-bd1e-4983-a6df-6770a1e36203"",""projectId"":""051c06f1-75cc-4548-856d-4923ddaba0dc""}","https://test12345.live/?num_scrambled_semantic=8&num_scrambled_causal=4&num_scrambled_schematic=4&participantId=4FB4D02C1BDF440B86B1911D9BFA715F&assignmentId=c60fe244-bd1e-4983-a6df-6770a1e36203&projectId=051c06f1-75cc-4548-856d-4923ddaba0dc","4FB4D02C1BDF440B86B1911D9BFA715F-2025-05-15-19-26-30","","687","","images/causal_sequence/coin_causal/coin_causal_3.png","0","",""
"","","","","","image-button-response","65","354641","0.0-12.0-1.0-2.2","4FB4D02C1BDF440B86B1911D9BFA715F","4FB4D02C1BDF440B86B1911D9BFA715F","c60fe244-bd1e-4983-a6df-6770a1e36203","051c06f1-75cc-4548-856d-4923ddaba0dc","{""num_scrambled_semantic"":""8"",""num_scrambled_causal"":""4"",""num_scrambled_schematic"":""4"",""participantId"":""4FB4D02C1BDF440B86B1911D9BFA715F"",""assignmentId"":""c60fe244-bd1e-4983-a6df-6770a1e36203"",""projectId"":""051c06f1-75cc-4548-856d-4923ddaba0dc""}","https://test12345.live/?num_scrambled_semantic=8&num_scrambled_causal=4&num_scrambled_schematic=4&participantId=4FB4D02C1BDF440B86B1911D9BFA715F&assignmentId=c60fe244-bd1e-4983-a6df-6770a1e36203&projectId=051c06f1-75cc-4548-856d-4923ddaba0dc","4FB4D02C1BDF440B86B1911D9BFA715F-2025-05-15-19-26-30","","null","","[]","null","",""
"","","","","","image-button-response","66","359154","0.0-12.0-1.0-0.3","4FB4D02C1BDF440B86B1911D9BFA715F","4FB4D02C1BDF440B86B1911D9BFA715F","c60fe244-bd1e-4983-a6df-6770a1e36203","051c06f1-75cc-4548-856d-4923ddaba0dc","{""num_scrambled_semantic"":""8"",""num_scrambled_causal"":""4"",""num_scrambled_schematic"":""4"",""participantId"":""4FB4D02C1BDF440B86B1911D9BFA715F"",""assignmentId"":""c60fe244-bd1e-4983-a6df-6770a1e36203"",""projectId"":""051c06f1-75cc-4548-856d-4923ddaba0dc""}","https://test12345.live/?num_scrambled_semantic=8&num_scrambled_causal=4&num_scrambled_schematic=4&participantId=4FB4D02C1BDF440B86B1911D9BFA715F&assignmentId=c60fe244-bd1e-4983-a6df-6770a1e36203&projectId=051c06f1-75cc-4548-856d-4923ddaba0dc","4FB4D02C1BDF440B86B1911D9BFA715F-2025-05-15-19-26-30","","null","","images/causal_sequence/coin_causal/coin_causal_4.png","null","",""
"","","","","","image-button-response","67","359630","0.0-12.0-1.0-1.3","4FB4D02C1BDF440B86B1911D9BFA715F","4FB4D02C1BDF440B86B1911D9BFA715F","c60fe244-bd1e-4983-a6df-6770a1e36203","051c06f1-75cc-4548-856d-4923ddaba0dc","{""num_scrambled_semantic"":""8"",""num_scrambled_causal"":""4"",""num_scrambled_schematic"":""4"",""participantId"":""4FB4D02C1BDF440B86B1911D9BFA715F"",""assignmentId"":""c60fe244-bd1e-4983-a6df-6770a1e36203"",""projectId"":""051c06f1-75cc-4548-856d-4923ddaba0dc""}","https://test12345.live/?num_scrambled_semantic=8&num_scrambled_causal=4&num_scrambled_schematic=4&participantId=4FB4D02C1BDF440B86B1911D9BFA715F&assignmentId=c60fe244-bd1e-4983-a6df-6770a1e36203&projectId=051c06f1-75cc-4548-856d-4923ddaba0dc","4FB4D02C1BDF440B86B1911D9BFA715F-2025-05-15-19-26-30","","474","","images/causal_sequence/coin_causal/coin_causal_4.png","0","",""
"","","","","","image-button-response","68","361443","0.0-12.0-1.0-2.3","4FB4D02C1BDF440B86B1911D9BFA715F","4FB4D02C1BDF440B86B1911D9BFA715F","c60fe244-bd1e-4983-a6df-6770a1e36203","051c06f1-75cc-4548-856d-4923ddaba0dc","{""num_scrambled_semantic"":""8"",""num_scrambled_causal"":""4"",""num_scrambled_schematic"":""4"",""participantId"":""4FB4D02C1BDF440B86B1911D9BFA715F"",""assignmentId"":""c60fe244-bd1e-4983-a6df-6770a1e36203"",""projectId"":""051c06f1-75cc-4548-856d-4923ddaba0dc""}","https://test12345.live/?num_scrambled_semantic=8&num_scrambled_causal=4&num_scrambled_schematic=4&participantId=4FB4D02C1BDF440B86B1911D9BFA715F&assignmentId=c60fe244-bd1e-4983-a6df-6770a1e36203&projectId=051c06f1-75cc-4548-856d-4923ddaba0dc","4FB4D02C1BDF440B86B1911D9BFA715F-2025-05-15-19-26-30","","null","","[]","null","",""
"","","","","","image-button-response","69","365954","0.0-12.0-1.0-0.4","4FB4D02C1BDF440B86B1911D9BFA715F","4FB4D02C1BDF440B86B1911D9BFA715F","c60fe244-bd1e-4983-a6df-6770a1e36203","051c06f1-75cc-4548-856d-4923ddaba0dc","{""num_scrambled_semantic"":""8"",""num_scrambled_causal"":""4"",""num_scrambled_schematic"":""4"",""participantId"":""4FB4D02C1BDF440B86B1911D9BFA715F"",""assignmentId"":""c60fe244-bd1e-4983-a6df-6770a1e36203"",""projectId"":""051c06f1-75cc-4548-856d-4923ddaba0dc""}","https://test12345.live/?num_scrambled_semantic=8&num_scrambled_causal=4&num_scrambled_schematic=4&participantId=4FB4D02C1BDF440B86B1911D9BFA715F&assignmentId=c60fe244-bd1e-4983-a6df-6770a1e36203&projectId=051c06f1-75cc-4548-856d-4923ddaba0dc","4FB4D02C1BDF440B86B1911D9BFA715F-2025-05-15-19-26-30","","null","","images/causal_sequence/coin_causal/coin_causal_5.png","null","",""
"","","","","","image-button-response","70","366409","0.0-12.0-1.0-1.4","4FB4D02C1BDF440B86B1911D9BFA715F","4FB4D02C1BDF440B86B1911D9BFA715F","c60fe244-bd1e-4983-a6df-6770a1e36203","051c06f1-75cc-4548-856d-4923ddaba0dc","{""num_scrambled_semantic"":""8"",""num_scrambled_causal"":""4"",""num_scrambled_schematic"":""4"",""participantId"":""4FB4D02C1BDF440B86B1911D9BFA715F"",""assignmentId"":""c60fe244-bd1e-4983-a6df-6770a1e36203"",""projectId"":""051c06f1-75cc-4548-856d-4923ddaba0dc""}","https://test12345.live/?num_scrambled_semantic=8&num_scrambled_causal=4&num_scrambled_schematic=4&participantId=4FB4D02C1BDF440B86B1911D9BFA715F&assignmentId=c60fe244-bd1e-4983-a6df-6770a1e36203&projectId=051c06f1-75cc-4548-856d-4923ddaba0dc","4FB4D02C1BDF440B86B1911D9BFA715F-2025-05-15-19-26-30","","451","","images/causal_sequence/coin_causal/coin_causal_5.png","0","",""
"","","","","","image-button-response","71","368221","0.0-12.0-1.0-2.4","4FB4D02C1BDF440B86B1911D9BFA715F","4FB4D02C1BDF440B86B1911D9BFA715F","c60fe244-bd1e-4983-a6df-6770a1e36203","051c06f1-75cc-4548-856d-4923ddaba0dc","{""num_scrambled_semantic"":""8"",""num_scrambled_causal"":""4"",""num_scrambled_schematic"":""4"",""participantId"":""4FB4D02C1BDF440B86B1911D9BFA715F"",""assignmentId"":""c60fe244-bd1e-4983-a6df-6770a1e36203"",""projectId"":""051c06f1-75cc-4548-856d-4923ddaba0dc""}","https://test12345.live/?num_scrambled_semantic=8&num_scrambled_causal=4&num_scrambled_schematic=4&participantId=4FB4D02C1BDF440B86B1911D9BFA715F&assignmentId=c60fe244-bd1e-4983-a6df-6770a1e36203&projectId=051c06f1-75cc-4548-856d-4923ddaba0dc","4FB4D02C1BDF440B86B1911D9BFA715F-2025-05-15-19-26-30","","null","","[]","null","",""
"","","","","","image-button-response","72","372723","0.0-12.0-1.0-0.5","4FB4D02C1BDF440B86B1911D9BFA715F","4FB4D02C1BDF440B86B1911D9BFA715F","c60fe244-bd1e-4983-a6df-6770a1e36203","051c06f1-75cc-4548-856d-4923ddaba0dc","{""num_scrambled_semantic"":""8"",""num_scrambled_causal"":""4"",""num_scrambled_schematic"":""4"",""participantId"":""4FB4D02C1BDF440B86B1911D9BFA715F"",""assignmentId"":""c60fe244-bd1e-4983-a6df-6770a1e36203"",""projectId"":""051c06f1-75cc-4548-856d-4923ddaba0dc""}","https://test12345.live/?num_scrambled_semantic=8&num_scrambled_causal=4&num_scrambled_schematic=4&participantId=4FB4D02C1BDF440B86B1911D9BFA715F&assignmentId=c60fe244-bd1e-4983-a6df-6770a1e36203&projectId=051c06f1-75cc-4548-856d-4923ddaba0dc","4FB4D02C1BDF440B86B1911D9BFA715F-2025-05-15-19-26-30","","null","","images/causal_sequence/coin_causal/coin_causal_6.png","null","",""
"","","","","","image-button-response","73","373284","0.0-12.0-1.0-1.5","4FB4D02C1BDF440B86B1911D9BFA715F","4FB4D02C1BDF440B86B1911D9BFA715F","c60fe244-bd1e-4983-a6df-6770a1e36203","051c06f1-75cc-4548-856d-4923ddaba0dc","{""num_scrambled_semantic"":""8"",""num_scrambled_causal"":""4"",""num_scrambled_schematic"":""4"",""participantId"":""4FB4D02C1BDF440B86B1911D9BFA715F"",""assignmentId"":""c60fe244-bd1e-4983-a6df-6770a1e36203"",""projectId"":""051c06f1-75cc-4548-856d-4923ddaba0dc""}","https://test12345.live/?num_scrambled_semantic=8&num_scrambled_causal=4&num_scrambled_schematic=4&participantId=4FB4D02C1BDF440B86B1911D9BFA715F&assignmentId=c60fe244-bd1e-4983-a6df-6770a1e36203&projectId=051c06f1-75cc-4548-856d-4923ddaba0dc","4FB4D02C1BDF440B86B1911D9BFA715F-2025-05-15-19-26-30","","559","","images/causal_sequence/coin_causal/coin_causal_6.png","0","",""
"","","","","","image-button-response","74","375093","0.0-12.0-1.0-2.5","4FB4D02C1BDF440B86B1911D9BFA715F","4FB4D02C1BDF440B86B1911D9BFA715F","c60fe244-bd1e-4983-a6df-6770a1e36203","051c06f1-75cc-4548-856d-4923ddaba0dc","{""num_scrambled_semantic"":""8"",""num_scrambled_causal"":""4"",""num_scrambled_schematic"":""4"",""participantId"":""4FB4D02C1BDF440B86B1911D9BFA715F"",""assignmentId"":""c60fe244-bd1e-4983-a6df-6770a1e36203"",""projectId"":""051c06f1-75cc-4548-856d-4923ddaba0dc""}","https://test12345.live/?num_scrambled_semantic=8&num_scrambled_causal=4&num_scrambled_schematic=4&participantId=4FB4D02C1BDF440B86B1911D9BFA715F&assignmentId=c60fe244-bd1e-4983-a6df-6770a1e36203&projectId=051c06f1-75cc-4548-856d-4923ddaba0dc","4FB4D02C1BDF440B86B1911D9BFA715F-2025-05-15-19-26-30","","null","","[]","null","",""
"","","","","","image-button-response","75","379598","0.0-12.0-1.0-0.6","4FB4D02C1BDF440B86B1911D9BFA715F","4FB4D02C1BDF440B86B1911D9BFA715F","c60fe244-bd1e-4983-a6df-6770a1e36203","051c06f1-75cc-4548-856d-4923ddaba0dc","{""num_scrambled_semantic"":""8"",""num_scrambled_causal"":""4"",""num_scrambled_schematic"":""4"",""participantId"":""4FB4D02C1BDF440B86B1911D9BFA715F"",""assignmentId"":""c60fe244-bd1e-4983-a6df-6770a1e36203"",""projectId"":""051c06f1-75cc-4548-856d-4923ddaba0dc""}","https://test12345.live/?num_scrambled_semantic=8&num_scrambled_causal=4&num_scrambled_schematic=4&participantId=4FB4D02C1BDF440B86B1911D9BFA715F&assignmentId=c60fe244-bd1e-4983-a6df-6770a1e36203&projectId=051c06f1-75cc-4548-856d-4923ddaba0dc","4FB4D02C1BDF440B86B1911D9BFA715F-2025-05-15-19-26-30","","null","","images/causal_sequence/coin_causal/coin_causal_7.png","null","",""
"","","","","","image-button-response","76","380240","0.0-12.0-1.0-1.6","4FB4D02C1BDF440B86B1911D9BFA715F","4FB4D02C1BDF440B86B1911D9BFA715F","c60fe244-bd1e-4983-a6df-6770a1e36203","051c06f1-75cc-4548-856d-4923ddaba0dc","{""num_scrambled_semantic"":""8"",""num_scrambled_causal"":""4"",""num_scrambled_schematic"":""4"",""participantId"":""4FB4D02C1BDF440B86B1911D9BFA715F"",""assignmentId"":""c60fe244-bd1e-4983-a6df-6770a1e36203"",""projectId"":""051c06f1-75cc-4548-856d-4923ddaba0dc""}","https://test12345.live/?num_scrambled_semantic=8&num_scrambled_causal=4&num_scrambled_schematic=4&participantId=4FB4D02C1BDF440B86B1911D9BFA715F&assignmentId=c60fe244-bd1e-4983-a6df-6770a1e36203&projectId=051c06f1-75cc-4548-856d-4923ddaba0dc","4FB4D02C1BDF440B86B1911D9BFA715F-2025-05-15-19-26-30","","640","","images/causal_sequence/coin_causal/coin_causal_7.png","0","",""
"","","","","","image-button-response","77","382046","0.0-12.0-1.0-2.6","4FB4D02C1BDF440B86B1911D9BFA715F","4FB4D02C1BDF440B86B1911D9BFA715F","c60fe244-bd1e-4983-a6df-6770a1e36203","051c06f1-75cc-4548-856d-4923ddaba0dc","{""num_scrambled_semantic"":""8"",""num_scrambled_causal"":""4"",""num_scrambled_schematic"":""4"",""participantId"":""4FB4D02C1BDF440B86B1911D9BFA715F"",""assignmentId"":""c60fe244-bd1e-4983-a6df-6770a1e36203"",""projectId"":""051c06f1-75cc-4548-856d-4923ddaba0dc""}","https://test12345.live/?num_scrambled_semantic=8&num_scrambled_causal=4&num_scrambled_schematic=4&participantId=4FB4D02C1BDF440B86B1911D9BFA715F&assignmentId=c60fe244-bd1e-4983-a6df-6770a1e36203&projectId=051c06f1-75cc-4548-856d-4923ddaba0dc","4FB4D02C1BDF440B86B1911D9BFA715F-2025-05-15-19-26-30","","null","","[]","null","",""
"","","","","","image-button-response","78","386552","0.0-12.0-1.0-0.7","4FB4D02C1BDF440B86B1911D9BFA715F","4FB4D02C1BDF440B86B1911D9BFA715F","c60fe244-bd1e-4983-a6df-6770a1e36203","051c06f1-75cc-4548-856d-4923ddaba0dc","{""num_scrambled_semantic"":""8"",""num_scrambled_causal"":""4"",""num_scrambled_schematic"":""4"",""participantId"":""4FB4D02C1BDF440B86B1911D9BFA715F"",""assignmentId"":""c60fe244-bd1e-4983-a6df-6770a1e36203"",""projectId"":""051c06f1-75cc-4548-856d-4923ddaba0dc""}","https://test12345.live/?num_scrambled_semantic=8&num_scrambled_causal=4&num_scrambled_schematic=4&participantId=4FB4D02C1BDF440B86B1911D9BFA715F&assignmentId=c60fe244-bd1e-4983-a6df-6770a1e36203&projectId=051c06f1-75cc-4548-856d-4923ddaba0dc","4FB4D02C1BDF440B86B1911D9BFA715F-2025-05-15-19-26-30","","null","","images/causal_sequence/coin_causal/coin_causal_8.png","null","",""
"","","","","","image-button-response","79","387012","0.0-12.0-1.0-1.7","4FB4D02C1BDF440B86B1911D9BFA715F","4FB4D02C1BDF440B86B1911D9BFA715F","c60fe244-bd1e-4983-a6df-6770a1e36203","051c06f1-75cc-4548-856d-4923ddaba0dc","{""num_scrambled_semantic"":""8"",""num_scrambled_causal"":""4"",""num_scrambled_schematic"":""4"",""participantId"":""4FB4D02C1BDF440B86B1911D9BFA715F"",""assignmentId"":""c60fe244-bd1e-4983-a6df-6770a1e36203"",""projectId"":""051c06f1-75cc-4548-856d-4923ddaba0dc""}","https://test12345.live/?num_scrambled_semantic=8&num_scrambled_causal=4&num_scrambled_schematic=4&participantId=4FB4D02C1BDF440B86B1911D9BFA715F&assignmentId=c60fe244-bd1e-4983-a6df-6770a1e36203&projectId=051c06f1-75cc-4548-856d-4923ddaba0dc","4FB4D02C1BDF440B86B1911D9BFA715F-2025-05-15-19-26-30","","458","","images/causal_sequence/coin_causal/coin_causal_8.png","0","",""
"","","","","","image-button-response","80","388818","0.0-12.0-1.0-2.7","4FB4D02C1BDF440B86B1911D9BFA715F","4FB4D02C1BDF440B86B1911D9BFA715F","c60fe244-bd1e-4983-a6df-6770a1e36203","051c06f1-75cc-4548-856d-4923ddaba0dc","{""num_scrambled_semantic"":""8"",""num_scrambled_causal"":""4"",""num_scrambled_schematic"":""4"",""participantId"":""4FB4D02C1BDF440B86B1911D9BFA715F"",""assignmentId"":""c60fe244-bd1e-4983-a6df-6770a1e36203"",""projectId"":""051c06f1-75cc-4548-856d-4923ddaba0dc""}","https://test12345.live/?num_scrambled_semantic=8&num_scrambled_causal=4&num_scrambled_schematic=4&participantId=4FB4D02C1BDF440B86B1911D9BFA715F&assignmentId=c60fe244-bd1e-4983-a6df-6770a1e36203&projectId=051c06f1-75cc-4548-856d-4923ddaba0dc","4FB4D02C1BDF440B86B1911D9BFA715F-2025-05-15-19-26-30","","null","","[]","null","",""
"","","","","","image-button-response","81","393329","0.0-12.0-1.0-0.8","4FB4D02C1BDF440B86B1911D9BFA715F","4FB4D02C1BDF440B86B1911D9BFA715F","c60fe244-bd1e-4983-a6df-6770a1e36203","051c06f1-75cc-4548-856d-4923ddaba0dc","{""num_scrambled_semantic"":""8"",""num_scrambled_causal"":""4"",""num_scrambled_schematic"":""4"",""participantId"":""4FB4D02C1BDF440B86B1911D9BFA715F"",""assignmentId"":""c60fe244-bd1e-4983-a6df-6770a1e36203"",""projectId"":""051c06f1-75cc-4548-856d-4923ddaba0dc""}","https://test12345.live/?num_scrambled_semantic=8&num_scrambled_causal=4&num_scrambled_schematic=4&participantId=4FB4D02C1BDF440B86B1911D9BFA715F&assignmentId=c60fe244-bd1e-4983-a6df-6770a1e36203&projectId=051c06f1-75cc-4548-856d-4923ddaba0dc","4FB4D02C1BDF440B86B1911D9BFA715F-2025-05-15-19-26-30","","null","","images/causal_sequence/coin_causal/coin_causal_9.png","null","",""
"","","","","","image-button-response","82","393797","0.0-12.0-1.0-1.8","4FB4D02C1BDF440B86B1911D9BFA715F","4FB4D02C1BDF440B86B1911D9BFA715F","c60fe244-bd1e-4983-a6df-6770a1e36203","051c06f1-75cc-4548-856d-4923ddaba0dc","{""num_scrambled_semantic"":""8"",""num_scrambled_causal"":""4"",""num_scrambled_schematic"":""4"",""participantId"":""4FB4D02C1BDF440B86B1911D9BFA715F"",""assignmentId"":""c60fe244-bd1e-4983-a6df-6770a1e36203"",""projectId"":""051c06f1-75cc-4548-856d-4923ddaba0dc""}","https://test12345.live/?num_scrambled_semantic=8&num_scrambled_causal=4&num_scrambled_schematic=4&participantId=4FB4D02C1BDF440B86B1911D9BFA715F&assignmentId=c60fe244-bd1e-4983-a6df-6770a1e36203&projectId=051c06f1-75cc-4548-856d-4923ddaba0dc","4FB4D02C1BDF440B86B1911D9BFA715F-2025-05-15-19-26-30","","466","","images/causal_sequence/coin_causal/coin_causal_9.png","0","",""
"","","","","","image-button-response","83","395612","0.0-12.0-1.0-2.8","4FB4D02C1BDF440B86B1911D9BFA715F","4FB4D02C1BDF440B86B1911D9BFA715F","c60fe244-bd1e-4983-a6df-6770a1e36203","051c06f1-75cc-4548-856d-4923ddaba0dc","{""num_scrambled_semantic"":""8"",""num_scrambled_causal"":""4"",""num_scrambled_schematic"":""4"",""participantId"":""4FB4D02C1BDF440B86B1911D9BFA715F"",""assignmentId"":""c60fe244-bd1e-4983-a6df-6770a1e36203"",""projectId"":""051c06f1-75cc-4548-856d-4923ddaba0dc""}","https://test12345.live/?num_scrambled_semantic=8&num_scrambled_causal=4&num_scrambled_schematic=4&participantId=4FB4D02C1BDF440B86B1911D9BFA715F&assignmentId=c60fe244-bd1e-4983-a6df-6770a1e36203&projectId=051c06f1-75cc-4548-856d-4923ddaba0dc","4FB4D02C1BDF440B86B1911D9BFA715F-2025-05-15-19-26-30","","null","","[]","null","",""
"","","","","","image-button-response","84","400125","0.0-12.0-1.0-0.9","4FB4D02C1BDF440B86B1911D9BFA715F","4FB4D02C1BDF440B86B1911D9BFA715F","c60fe244-bd1e-4983-a6df-6770a1e36203","051c06f1-75cc-4548-856d-4923ddaba0dc","{""num_scrambled_semantic"":""8"",""num_scrambled_causal"":""4"",""num_scrambled_schematic"":""4"",""participantId"":""4FB4D02C1BDF440B86B1911D9BFA715F"",""assignmentId"":""c60fe244-bd1e-4983-a6df-6770a1e36203"",""projectId"":""051c06f1-75cc-4548-856d-4923ddaba0dc""}","https://test12345.live/?num_scrambled_semantic=8&num_scrambled_causal=4&num_scrambled_schematic=4&participantId=4FB4D02C1BDF440B86B1911D9BFA715F&assignmentId=c60fe244-bd1e-4983-a6df-6770a1e36203&projectId=051c06f1-75cc-4548-856d-4923ddaba0dc","4FB4D02C1BDF440B86B1911D9BFA715F-2025-05-15-19-26-30","","null","","images/causal_sequence/coin_causal/coin_causal_ten.png","null","",""
"","","","","","image-button-response","85","400549","0.0-12.0-1.0-1.9","4FB4D02C1BDF440B86B1911D9BFA715F","4FB4D02C1BDF440B86B1911D9BFA715F","c60fe244-bd1e-4983-a6df-6770a1e36203","051c06f1-75cc-4548-856d-4923ddaba0dc","{""num_scrambled_semantic"":""8"",""num_scrambled_causal"":""4"",""num_scrambled_schematic"":""4"",""participantId"":""4FB4D02C1BDF440B86B1911D9BFA715F"",""assignmentId"":""c60fe244-bd1e-4983-a6df-6770a1e36203"",""projectId"":""051c06f1-75cc-4548-856d-4923ddaba0dc""}","https://test12345.live/?num_scrambled_semantic=8&num_scrambled_causal=4&num_scrambled_schematic=4&participantId=4FB4D02C1BDF440B86B1911D9BFA715F&assignmentId=c60fe244-bd1e-4983-a6df-6770a1e36203&projectId=051c06f1-75cc-4548-856d-4923ddaba0dc","4FB4D02C1BDF440B86B1911D9BFA715F-2025-05-15-19-26-30","","422","","images/causal_sequence/coin_causal/coin_causal_ten.png","0","",""
"","","","","","image-button-response","86","402352","0.0-12.0-1.0-2.9","4FB4D02C1BDF440B86B1911D9BFA715F","4FB4D02C1BDF440B86B1911D9BFA715F","c60fe244-bd1e-4983-a6df-6770a1e36203","051c06f1-75cc-4548-856d-4923ddaba0dc","{""num_scrambled_semantic"":""8"",""num_scrambled_causal"":""4"",""num_scrambled_schematic"":""4"",""participantId"":""4FB4D02C1BDF440B86B1911D9BFA715F"",""assignmentId"":""c60fe244-bd1e-4983-a6df-6770a1e36203"",""projectId"":""051c06f1-75cc-4548-856d-4923ddaba0dc""}","https://test12345.live/?num_scrambled_semantic=8&num_scrambled_causal=4&num_scrambled_schematic=4&participantId=4FB4D02C1BDF440B86B1911D9BFA715F&assignmentId=c60fe244-bd1e-4983-a6df-6770a1e36203&projectId=051c06f1-75cc-4548-856d-4923ddaba0dc","4FB4D02C1BDF440B86B1911D9BFA715F-2025-05-15-19-26-30","","null","","[]","null","",""
"","","","","","html-audio-response","87","454005","0.0-13.0","4FB4D02C1BDF440B86B1911D9BFA715F","4FB4D02C1BDF440B86B1911D9BFA715F","c60fe244-bd1e-4983-a6df-6770a1e36203","051c06f1-75cc-4548-856d-4923ddaba0dc","{""num_scrambled_semantic"":""8"",""num_scrambled_causal"":""4"",""num_scrambled_schematic"":""4"",""participantId"":""4FB4D02C1BDF440B86B1911D9BFA715F"",""assignmentId"":""c60fe244-bd1e-4983-a6df-6770a1e36203"",""projectId"":""051c06f1-75cc-4548-856d-4923ddaba0dc""}","https://test12345.live/?num_scrambled_semantic=8&num_scrambled_causal=4&num_scrambled_schematic=4&participantId=4FB4D02C1BDF440B86B1911D9BFA715F&assignmentId=c60fe244-bd1e-4983-a6df-6770a1e36203&projectId=051c06f1-75cc-4548-856d-4923ddaba0dc","4FB4D02C1BDF440B86B1911D9BFA715F-2025-05-15-19-26-30","","44592","","[""<span style=\""color: red; font-size: 24px\""> NOW RECORDING</span><p>Please say out loud all the images you saw, as many as you can remember. The images can be said in any order.</p>""]","","6","coin_causal"
"","","","","","image-button-response","88","460021","0.0-14.0-0.0","4FB4D02C1BDF440B86B1911D9BFA715F","4FB4D02C1BDF440B86B1911D9BFA715F","c60fe244-bd1e-4983-a6df-6770a1e36203","051c06f1-75cc-4548-856d-4923ddaba0dc","{""num_scrambled_semantic"":""8"",""num_scrambled_causal"":""4"",""num_scrambled_schematic"":""4"",""participantId"":""4FB4D02C1BDF440B86B1911D9BFA715F"",""assignmentId"":""c60fe244-bd1e-4983-a6df-6770a1e36203"",""projectId"":""051c06f1-75cc-4548-856d-4923ddaba0dc""}","https://test12345.live/?num_scrambled_semantic=8&num_scrambled_causal=4&num_scrambled_schematic=4&participantId=4FB4D02C1BDF440B86B1911D9BFA715F&assignmentId=c60fe244-bd1e-4983-a6df-6770a1e36203&projectId=051c06f1-75cc-4548-856d-4923ddaba0dc","4FB4D02C1BDF440B86B1911D9BFA715F-2025-05-15-19-26-30","","null","","images/schematic_sequence/flight_scheme/flight_scheme_0.png","null","",""
"","","","","","image-button-response","89","464540","0.0-14.0-1.0-0.0","4FB4D02C1BDF440B86B1911D9BFA715F","4FB4D02C1BDF440B86B1911D9BFA715F","c60fe244-bd1e-4983-a6df-6770a1e36203","051c06f1-75cc-4548-856d-4923ddaba0dc","{""num_scrambled_semantic"":""8"",""num_scrambled_causal"":""4"",""num_scrambled_schematic"":""4"",""participantId"":""4FB4D02C1BDF440B86B1911D9BFA715F"",""assignmentId"":""c60fe244-bd1e-4983-a6df-6770a1e36203"",""projectId"":""051c06f1-75cc-4548-856d-4923ddaba0dc""}","https://test12345.live/?num_scrambled_semantic=8&num_scrambled_causal=4&num_scrambled_schematic=4&participantId=4FB4D02C1BDF440B86B1911D9BFA715F&assignmentId=c60fe244-bd1e-4983-a6df-6770a1e36203&projectId=051c06f1-75cc-4548-856d-4923ddaba0dc","4FB4D02C1BDF440B86B1911D9BFA715F-2025-05-15-19-26-30","","null","","images/schematic_sequence/flight_scheme/flight_scheme_1.png","null","",""
"","","","","","image-button-response","90","466723","0.0-14.0-1.0-1.0","4FB4D02C1BDF440B86B1911D9BFA715F","4FB4D02C1BDF440B86B1911D9BFA715F","c60fe244-bd1e-4983-a6df-6770a1e36203","051c06f1-75cc-4548-856d-4923ddaba0dc","{""num_scrambled_semantic"":""8"",""num_scrambled_causal"":""4"",""num_scrambled_schematic"":""4"",""participantId"":""4FB4D02C1BDF440B86B1911D9BFA715F"",""assignmentId"":""c60fe244-bd1e-4983-a6df-6770a1e36203"",""projectId"":""051c06f1-75cc-4548-856d-4923ddaba0dc""}","https://test12345.live/?num_scrambled_semantic=8&num_scrambled_causal=4&num_scrambled_schematic=4&participantId=4FB4D02C1BDF440B86B1911D9BFA715F&assignmentId=c60fe244-bd1e-4983-a6df-6770a1e36203&projectId=051c06f1-75cc-4548-856d-4923ddaba0dc","4FB4D02C1BDF440B86B1911D9BFA715F-2025-05-15-19-26-30","","2182","","images/schematic_sequence/flight_scheme/flight_scheme_1.png","1","",""
"","","","","","image-button-response","91","468536","0.0-14.0-1.0-2.0","4FB4D02C1BDF440B86B1911D9BFA715F","4FB4D02C1BDF440B86B1911D9BFA715F","c60fe244-bd1e-4983-a6df-6770a1e36203","051c06f1-75cc-4548-856d-4923ddaba0dc","{""num_scrambled_semantic"":""8"",""num_scrambled_causal"":""4"",""num_scrambled_schematic"":""4"",""participantId"":""4FB4D02C1BDF440B86B1911D9BFA715F"",""assignmentId"":""c60fe244-bd1e-4983-a6df-6770a1e36203"",""projectId"":""051c06f1-75cc-4548-856d-4923ddaba0dc""}","https://test12345.live/?num_scrambled_semantic=8&num_scrambled_causal=4&num_scrambled_schematic=4&participantId=4FB4D02C1BDF440B86B1911D9BFA715F&assignmentId=c60fe244-bd1e-4983-a6df-6770a1e36203&projectId=051c06f1-75cc-4548-856d-4923ddaba0dc","4FB4D02C1BDF440B86B1911D9BFA715F-2025-05-15-19-26-30","","null","","[]","null","",""
"","","","","","image-button-response","92","473044","0.0-14.0-1.0-0.1","4FB4D02C1BDF440B86B1911D9BFA715F","4FB4D02C1BDF440B86B1911D9BFA715F","c60fe244-bd1e-4983-a6df-6770a1e36203","051c06f1-75cc-4548-856d-4923ddaba0dc","{""num_scrambled_semantic"":""8"",""num_scrambled_causal"":""4"",""num_scrambled_schematic"":""4"",""participantId"":""4FB4D02C1BDF440B86B1911D9BFA715F"",""assignmentId"":""c60fe244-bd1e-4983-a6df-6770a1e36203"",""projectId"":""051c06f1-75cc-4548-856d-4923ddaba0dc""}","https://test12345.live/?num_scrambled_semantic=8&num_scrambled_causal=4&num_scrambled_schematic=4&participantId=4FB4D02C1BDF440B86B1911D9BFA715F&assignmentId=c60fe244-bd1e-4983-a6df-6770a1e36203&projectId=051c06f1-75cc-4548-856d-4923ddaba0dc","4FB4D02C1BDF440B86B1911D9BFA715F-2025-05-15-19-26-30","","null","","images/schematic_sequence/flight_scheme/flight_scheme_2.png","null","",""
"","","","","","image-button-response","93","474065","0.0-14.0-1.0-1.1","4FB4D02C1BDF440B86B1911D9BFA715F","4FB4D02C1BDF440B86B1911D9BFA715F","c60fe244-bd1e-4983-a6df-6770a1e36203","051c06f1-75cc-4548-856d-4923ddaba0dc","{""num_scrambled_semantic"":""8"",""num_scrambled_causal"":""4"",""num_scrambled_schematic"":""4"",""participantId"":""4FB4D02C1BDF440B86B1911D9BFA715F"",""assignmentId"":""c60fe244-bd1e-4983-a6df-6770a1e36203"",""projectId"":""051c06f1-75cc-4548-856d-4923ddaba0dc""}","https://test12345.live/?num_scrambled_semantic=8&num_scrambled_causal=4&num_scrambled_schematic=4&participantId=4FB4D02C1BDF440B86B1911D9BFA715F&assignmentId=c60fe244-bd1e-4983-a6df-6770a1e36203&projectId=051c06f1-75cc-4548-856d-4923ddaba0dc","4FB4D02C1BDF440B86B1911D9BFA715F-2025-05-15-19-26-30","","1019","","images/schematic_sequence/flight_scheme/flight_scheme_2.png","1","",""
"","","","","","image-button-response","94","475880","0.0-14.0-1.0-2.1","4FB4D02C1BDF440B86B1911D9BFA715F","4FB4D02C1BDF440B86B1911D9BFA715F","c60fe244-bd1e-4983-a6df-6770a1e36203","051c06f1-75cc-4548-856d-4923ddaba0dc","{""num_scrambled_semantic"":""8"",""num_scrambled_causal"":""4"",""num_scrambled_schematic"":""4"",""participantId"":""4FB4D02C1BDF440B86B1911D9BFA715F"",""assignmentId"":""c60fe244-bd1e-4983-a6df-6770a1e36203"",""projectId"":""051c06f1-75cc-4548-856d-4923ddaba0dc""}","https://test12345.live/?num_scrambled_semantic=8&num_scrambled_causal=4&num_scrambled_schematic=4&participantId=4FB4D02C1BDF440B86B1911D9BFA715F&assignmentId=c60fe244-bd1e-4983-a6df-6770a1e36203&projectId=051c06f1-75cc-4548-856d-4923ddaba0dc","4FB4D02C1BDF440B86B1911D9BFA715F-2025-05-15-19-26-30","","null","","[]","null","",""
"","","","","","image-button-response","95","480393","0.0-14.0-1.0-0.2","4FB4D02C1BDF440B86B1911D9BFA715F","4FB4D02C1BDF440B86B1911D9BFA715F","c60fe244-bd1e-4983-a6df-6770a1e36203","051c06f1-75cc-4548-856d-4923ddaba0dc","{""num_scrambled_semantic"":""8"",""num_scrambled_causal"":""4"",""num_scrambled_schematic"":""4"",""participantId"":""4FB4D02C1BDF440B86B1911D9BFA715F"",""assignmentId"":""c60fe244-bd1e-4983-a6df-6770a1e36203"",""projectId"":""051c06f1-75cc-4548-856d-4923ddaba0dc""}","https://test12345.live/?num_scrambled_semantic=8&num_scrambled_causal=4&num_scrambled_schematic=4&participantId=4FB4D02C1BDF440B86B1911D9BFA715F&assignmentId=c60fe244-bd1e-4983-a6df-6770a1e36203&projectId=051c06f1-75cc-4548-856d-4923ddaba0dc","4FB4D02C1BDF440B86B1911D9BFA715F-2025-05-15-19-26-30","","null","","images/schematic_sequence/flight_scheme/flight_scheme_3.png","null","",""
"","","","","","image-button-response","96","483283","0.0-14.0-1.0-1.2","4FB4D02C1BDF440B86B1911D9BFA715F","4FB4D02C1BDF440B86B1911D9BFA715F","c60fe244-bd1e-4983-a6df-6770a1e36203","051c06f1-75cc-4548-856d-4923ddaba0dc","{""num_scrambled_semantic"":""8"",""num_scrambled_causal"":""4"",""num_scrambled_schematic"":""4"",""participantId"":""4FB4D02C1BDF440B86B1911D9BFA715F"",""assignmentId"":""c60fe244-bd1e-4983-a6df-6770a1e36203"",""projectId"":""051c06f1-75cc-4548-856d-4923ddaba0dc""}","https://test12345.live/?num_scrambled_semantic=8&num_scrambled_causal=4&num_scrambled_schematic=4&participantId=4FB4D02C1BDF440B86B1911D9BFA715F&assignmentId=c60fe244-bd1e-4983-a6df-6770a1e36203&projectId=051c06f1-75cc-4548-856d-4923ddaba0dc","4FB4D02C1BDF440B86B1911D9BFA715F-2025-05-15-19-26-30","","2888","","images/schematic_sequence/flight_scheme/flight_scheme_3.png","0","",""
"","","","","","image-button-response","97","485094","0.0-14.0-1.0-2.2","4FB4D02C1BDF440B86B1911D9BFA715F","4FB4D02C1BDF440B86B1911D9BFA715F","c60fe244-bd1e-4983-a6df-6770a1e36203","051c06f1-75cc-4548-856d-4923ddaba0dc","{""num_scrambled_semantic"":""8"",""num_scrambled_causal"":""4"",""num_scrambled_schematic"":""4"",""participantId"":""4FB4D02C1BDF440B86B1911D9BFA715F"",""assignmentId"":""c60fe244-bd1e-4983-a6df-6770a1e36203"",""projectId"":""051c06f1-75cc-4548-856d-4923ddaba0dc""}","https://test12345.live/?num_scrambled_semantic=8&num_scrambled_causal=4&num_scrambled_schematic=4&participantId=4FB4D02C1BDF440B86B1911D9BFA715F&assignmentId=c60fe244-bd1e-4983-a6df-6770a1e36203&projectId=051c06f1-75cc-4548-856d-4923ddaba0dc","4FB4D02C1BDF440B86B1911D9BFA715F-2025-05-15-19-26-30","","null","","[]","null","",""
"","","","","","image-button-response","98","489596","0.0-14.0-1.0-0.3","4FB4D02C1BDF440B86B1911D9BFA715F","4FB4D02C1BDF440B86B1911D9BFA715F","c60fe244-bd1e-4983-a6df-6770a1e36203","051c06f1-75cc-4548-856d-4923ddaba0dc","{""num_scrambled_semantic"":""8"",""num_scrambled_causal"":""4"",""num_scrambled_schematic"":""4"",""participantId"":""4FB4D02C1BDF440B86B1911D9BFA715F"",""assignmentId"":""c60fe244-bd1e-4983-a6df-6770a1e36203"",""projectId"":""051c06f1-75cc-4548-856d-4923ddaba0dc""}","https://test12345.live/?num_scrambled_semantic=8&num_scrambled_causal=4&num_scrambled_schematic=4&participantId=4FB4D02C1BDF440B86B1911D9BFA715F&assignmentId=c60fe244-bd1e-4983-a6df-6770a1e36203&projectId=051c06f1-75cc-4548-856d-4923ddaba0dc","4FB4D02C1BDF440B86B1911D9BFA715F-2025-05-15-19-26-30","","null","","images/schematic_sequence/flight_scheme/flight_scheme_4.png","null","",""
"","","","","","image-button-response","99","490883","0.0-14.0-1.0-1.3","4FB4D02C1BDF440B86B1911D9BFA715F","4FB4D02C1BDF440B86B1911D9BFA715F","c60fe244-bd1e-4983-a6df-6770a1e36203","051c06f1-75cc-4548-856d-4923ddaba0dc","{""num_scrambled_semantic"":""8"",""num_scrambled_causal"":""4"",""num_scrambled_schematic"":""4"",""participantId"":""4FB4D02C1BDF440B86B1911D9BFA715F"",""assignmentId"":""c60fe244-bd1e-4983-a6df-6770a1e36203"",""projectId"":""051c06f1-75cc-4548-856d-4923ddaba0dc""}","https://test12345.live/?num_scrambled_semantic=8&num_scrambled_causal=4&num_scrambled_schematic=4&participantId=4FB4D02C1BDF440B86B1911D9BFA715F&assignmentId=c60fe244-bd1e-4983-a6df-6770a1e36203&projectId=051c06f1-75cc-4548-856d-4923ddaba0dc","4FB4D02C1BDF440B86B1911D9BFA715F-2025-05-15-19-26-30","","1285","","images/schematic_sequence/flight_scheme/flight_scheme_4.png","0","",""
"","","","","","image-button-response","100","492697","0.0-14.0-1.0-2.3","4FB4D02C1BDF440B86B1911D9BFA715F","4FB4D02C1BDF440B86B1911D9BFA715F","c60fe244-bd1e-4983-a6df-6770a1e36203","051c06f1-75cc-4548-856d-4923ddaba0dc","{""num_scrambled_semantic"":""8"",""num_scrambled_causal"":""4"",""num_scrambled_schematic"":""4"",""participantId"":""4FB4D02C1BDF440B86B1911D9BFA715F"",""assignmentId"":""c60fe244-bd1e-4983-a6df-6770a1e36203"",""projectId"":""051c06f1-75cc-4548-856d-4923ddaba0dc""}","https://test12345.live/?num_scrambled_semantic=8&num_scrambled_causal=4&num_scrambled_schematic=4&participantId=4FB4D02C1BDF440B86B1911D9BFA715F&assignmentId=c60fe244-bd1e-4983-a6df-6770a1e36203&projectId=051c06f1-75cc-4548-856d-4923ddaba0dc","4FB4D02C1BDF440B86B1911D9BFA715F-2025-05-15-19-26-30","","null","","[]","null","",""
"","","","","","image-button-response","101","497211","0.0-14.0-1.0-0.4","4FB4D02C1BDF440B86B1911D9BFA715F","4FB4D02C1BDF440B86B1911D9BFA715F","c60fe244-bd1e-4983-a6df-6770a1e36203","051c06f1-75cc-4548-856d-4923ddaba0dc","{""num_scrambled_semantic"":""8"",""num_scrambled_causal"":""4"",""num_scrambled_schematic"":""4"",""participantId"":""4FB4D02C1BDF440B86B1911D9BFA715F"",""assignmentId"":""c60fe244-bd1e-4983-a6df-6770a1e36203"",""projectId"":""051c06f1-75cc-4548-856d-4923ddaba0dc""}","https://test12345.live/?num_scrambled_semantic=8&num_scrambled_causal=4&num_scrambled_schematic=4&participantId=4FB4D02C1BDF440B86B1911D9BFA715F&assignmentId=c60fe244-bd1e-4983-a6df-6770a1e36203&projectId=051c06f1-75cc-4548-856d-4923ddaba0dc","4FB4D02C1BDF440B86B1911D9BFA715F-2025-05-15-19-26-30","","null","","images/schematic_sequence/flight_scheme/flight_scheme_5.png","null","",""
"","","","","","image-button-response","102","497909","0.0-14.0-1.0-1.4","4FB4D02C1BDF440B86B1911D9BFA715F","4FB4D02C1BDF440B86B1911D9BFA715F","c60fe244-bd1e-4983-a6df-6770a1e36203","051c06f1-75cc-4548-856d-4923ddaba0dc","{""num_scrambled_semantic"":""8"",""num_scrambled_causal"":""4"",""num_scrambled_schematic"":""4"",""participantId"":""4FB4D02C1BDF440B86B1911D9BFA715F"",""assignmentId"":""c60fe244-bd1e-4983-a6df-6770a1e36203"",""projectId"":""051c06f1-75cc-4548-856d-4923ddaba0dc""}","https://test12345.live/?num_scrambled_semantic=8&num_scrambled_causal=4&num_scrambled_schematic=4&participantId=4FB4D02C1BDF440B86B1911D9BFA715F&assignmentId=c60fe244-bd1e-4983-a6df-6770a1e36203&projectId=051c06f1-75cc-4548-856d-4923ddaba0dc","4FB4D02C1BDF440B86B1911D9BFA715F-2025-05-15-19-26-30","","697","","images/schematic_sequence/flight_scheme/flight_scheme_5.png","0","",""
"","","","","","image-button-response","103","499721","0.0-14.0-1.0-2.4","4FB4D02C1BDF440B86B1911D9BFA715F","4FB4D02C1BDF440B86B1911D9BFA715F","c60fe244-bd1e-4983-a6df-6770a1e36203","051c06f1-75cc-4548-856d-4923ddaba0dc","{""num_scrambled_semantic"":""8"",""num_scrambled_causal"":""4"",""num_scrambled_schematic"":""4"",""participantId"":""4FB4D02C1BDF440B86B1911D9BFA715F"",""assignmentId"":""c60fe244-bd1e-4983-a6df-6770a1e36203"",""projectId"":""051c06f1-75cc-4548-856d-4923ddaba0dc""}","https://test12345.live/?num_scrambled_semantic=8&num_scrambled_causal=4&num_scrambled_schematic=4&participantId=4FB4D02C1BDF440B86B1911D9BFA715F&assignmentId=c60fe244-bd1e-4983-a6df-6770a1e36203&projectId=051c06f1-75cc-4548-856d-4923ddaba0dc","4FB4D02C1BDF440B86B1911D9BFA715F-2025-05-15-19-26-30","","null","","[]","null","",""
"","","","","","image-button-response","104","504234","0.0-14.0-1.0-0.5","4FB4D02C1BDF440B86B1911D9BFA715F","4FB4D02C1BDF440B86B1911D9BFA715F","c60fe244-bd1e-4983-a6df-6770a1e36203","051c06f1-75cc-4548-856d-4923ddaba0dc","{""num_scrambled_semantic"":""8"",""num_scrambled_causal"":""4"",""num_scrambled_schematic"":""4"",""participantId"":""4FB4D02C1BDF440B86B1911D9BFA715F"",""assignmentId"":""c60fe244-bd1e-4983-a6df-6770a1e36203"",""projectId"":""051c06f1-75cc-4548-856d-4923ddaba0dc""}","https://test12345.live/?num_scrambled_semantic=8&num_scrambled_causal=4&num_scrambled_schematic=4&participantId=4FB4D02C1BDF440B86B1911D9BFA715F&assignmentId=c60fe244-bd1e-4983-a6df-6770a1e36203&projectId=051c06f1-75cc-4548-856d-4923ddaba0dc","4FB4D02C1BDF440B86B1911D9BFA715F-2025-05-15-19-26-30","","null","","images/schematic_sequence/flight_scheme/flight_scheme_6.png","null","",""
"","","","","","image-button-response","105","504648","0.0-14.0-1.0-1.5","4FB4D02C1BDF440B86B1911D9BFA715F","4FB4D02C1BDF440B86B1911D9BFA715F","c60fe244-bd1e-4983-a6df-6770a1e36203","051c06f1-75cc-4548-856d-4923ddaba0dc","{""num_scrambled_semantic"":""8"",""num_scrambled_causal"":""4"",""num_scrambled_schematic"":""4"",""participantId"":""4FB4D02C1BDF440B86B1911D9BFA715F"",""assignmentId"":""c60fe244-bd1e-4983-a6df-6770a1e36203"",""projectId"":""051c06f1-75cc-4548-856d-4923ddaba0dc""}","https://test12345.live/?num_scrambled_semantic=8&num_scrambled_causal=4&num_scrambled_schematic=4&participantId=4FB4D02C1BDF440B86B1911D9BFA715F&assignmentId=c60fe244-bd1e-4983-a6df-6770a1e36203&projectId=051c06f1-75cc-4548-856d-4923ddaba0dc","4FB4D02C1BDF440B86B1911D9BFA715F-2025-05-15-19-26-30","","413","","images/schematic_sequence/flight_scheme/flight_scheme_6.png","0","",""
"","","","","","image-button-response","106","506454","0.0-14.0-1.0-2.5","4FB4D02C1BDF440B86B1911D9BFA715F","4FB4D02C1BDF440B86B1911D9BFA715F","c60fe244-bd1e-4983-a6df-6770a1e36203","051c06f1-75cc-4548-856d-4923ddaba0dc","{""num_scrambled_semantic"":""8"",""num_scrambled_causal"":""4"",""num_scrambled_schematic"":""4"",""participantId"":""4FB4D02C1BDF440B86B1911D9BFA715F"",""assignmentId"":""c60fe244-bd1e-4983-a6df-6770a1e36203"",""projectId"":""051c06f1-75cc-4548-856d-4923ddaba0dc""}","https://test12345.live/?num_scrambled_semantic=8&num_scrambled_causal=4&num_scrambled_schematic=4&participantId=4FB4D02C1BDF440B86B1911D9BFA715F&assignmentId=c60fe244-bd1e-4983-a6df-6770a1e36203&projectId=051c06f1-75cc-4548-856d-4923ddaba0dc","4FB4D02C1BDF440B86B1911D9BFA715F-2025-05-15-19-26-30","","null","","[]","null","",""
"","","","","","image-button-response","107","510956","0.0-14.0-1.0-0.6","4FB4D02C1BDF440B86B1911D9BFA715F","4FB4D02C1BDF440B86B1911D9BFA715F","c60fe244-bd1e-4983-a6df-6770a1e36203","051c06f1-75cc-4548-856d-4923ddaba0dc","{""num_scrambled_semantic"":""8"",""num_scrambled_causal"":""4"",""num_scrambled_schematic"":""4"",""participantId"":""4FB4D02C1BDF440B86B1911D9BFA715F"",""assignmentId"":""c60fe244-bd1e-4983-a6df-6770a1e36203"",""projectId"":""051c06f1-75cc-4548-856d-4923ddaba0dc""}","https://test12345.live/?num_scrambled_semantic=8&num_scrambled_causal=4&num_scrambled_schematic=4&participantId=4FB4D02C1BDF440B86B1911D9BFA715F&assignmentId=c60fe244-bd1e-4983-a6df-6770a1e36203&projectId=051c06f1-75cc-4548-856d-4923ddaba0dc","4FB4D02C1BDF440B86B1911D9BFA715F-2025-05-15-19-26-30","","null","","images/schematic_sequence/flight_scheme/flight_scheme_7.png","null","",""
"","","","","","image-button-response","108","511603","0.0-14.0-1.0-1.6","4FB4D02C1BDF440B86B1911D9BFA715F","4FB4D02C1BDF440B86B1911D9BFA715F","c60fe244-bd1e-4983-a6df-6770a1e36203","051c06f1-75cc-4548-856d-4923ddaba0dc","{""num_scrambled_semantic"":""8"",""num_scrambled_causal"":""4"",""num_scrambled_schematic"":""4"",""participantId"":""4FB4D02C1BDF440B86B1911D9BFA715F"",""assignmentId"":""c60fe244-bd1e-4983-a6df-6770a1e36203"",""projectId"":""051c06f1-75cc-4548-856d-4923ddaba0dc""}","https://test12345.live/?num_scrambled_semantic=8&num_scrambled_causal=4&num_scrambled_schematic=4&participantId=4FB4D02C1BDF440B86B1911D9BFA715F&assignmentId=c60fe244-bd1e-4983-a6df-6770a1e36203&projectId=051c06f1-75cc-4548-856d-4923ddaba0dc","4FB4D02C1BDF440B86B1911D9BFA715F-2025-05-15-19-26-30","","645","","images/schematic_sequence/flight_scheme/flight_scheme_7.png","1","",""
"","","","","","image-button-response","109","513418","0.0-14.0-1.0-2.6","4FB4D02C1BDF440B86B1911D9BFA715F","4FB4D02C1BDF440B86B1911D9BFA715F","c60fe244-bd1e-4983-a6df-6770a1e36203","051c06f1-75cc-4548-856d-4923ddaba0dc","{""num_scrambled_semantic"":""8"",""num_scrambled_causal"":""4"",""num_scrambled_schematic"":""4"",""participantId"":""4FB4D02C1BDF440B86B1911D9BFA715F"",""assignmentId"":""c60fe244-bd1e-4983-a6df-6770a1e36203"",""projectId"":""051c06f1-75cc-4548-856d-4923ddaba0dc""}","https://test12345.live/?num_scrambled_semantic=8&num_scrambled_causal=4&num_scrambled_schematic=4&participantId=4FB4D02C1BDF440B86B1911D9BFA715F&assignmentId=c60fe244-bd1e-4983-a6df-6770a1e36203&projectId=051c06f1-75cc-4548-856d-4923ddaba0dc","4FB4D02C1BDF440B86B1911D9BFA715F-2025-05-15-19-26-30","","null","","[]","null","",""
"","","","","","image-button-response","110","517921","0.0-14.0-1.0-0.7","4FB4D02C1BDF440B86B1911D9BFA715F","4FB4D02C1BDF440B86B1911D9BFA715F","c60fe244-bd1e-4983-a6df-6770a1e36203","051c06f1-75cc-4548-856d-4923ddaba0dc","{""num_scrambled_semantic"":""8"",""num_scrambled_causal"":""4"",""num_scrambled_schematic"":""4"",""participantId"":""4FB4D02C1BDF440B86B1911D9BFA715F"",""assignmentId"":""c60fe244-bd1e-4983-a6df-6770a1e36203"",""projectId"":""051c06f1-75cc-4548-856d-4923ddaba0dc""}","https://test12345.live/?num_scrambled_semantic=8&num_scrambled_causal=4&num_scrambled_schematic=4&participantId=4FB4D02C1BDF440B86B1911D9BFA715F&assignmentId=c60fe244-bd1e-4983-a6df-6770a1e36203&projectId=051c06f1-75cc-4548-856d-4923ddaba0dc","4FB4D02C1BDF440B86B1911D9BFA715F-2025-05-15-19-26-30","","null","","images/schematic_sequence/flight_scheme/flight_scheme_8.png","null","",""
"","","","","","image-button-response","111","518566","0.0-14.0-1.0-1.7","4FB4D02C1BDF440B86B1911D9BFA715F","4FB4D02C1BDF440B86B1911D9BFA715F","c60fe244-bd1e-4983-a6df-6770a1e36203","051c06f1-75cc-4548-856d-4923ddaba0dc","{""num_scrambled_semantic"":""8"",""num_scrambled_causal"":""4"",""num_scrambled_schematic"":""4"",""participantId"":""4FB4D02C1BDF440B86B1911D9BFA715F"",""assignmentId"":""c60fe244-bd1e-4983-a6df-6770a1e36203"",""projectId"":""051c06f1-75cc-4548-856d-4923ddaba0dc""}","https://test12345.live/?num_scrambled_semantic=8&num_scrambled_causal=4&num_scrambled_schematic=4&participantId=4FB4D02C1BDF440B86B1911D9BFA715F&assignmentId=c60fe244-bd1e-4983-a6df-6770a1e36203&projectId=051c06f1-75cc-4548-856d-4923ddaba0dc","4FB4D02C1BDF440B86B1911D9BFA715F-2025-05-15-19-26-30","","644","","images/schematic_sequence/flight_scheme/flight_scheme_8.png","1","",""
"","","","","","image-button-response","112","520383","0.0-14.0-1.0-2.7","4FB4D02C1BDF440B86B1911D9BFA715F","4FB4D02C1BDF440B86B1911D9BFA715F","c60fe244-bd1e-4983-a6df-6770a1e36203","051c06f1-75cc-4548-856d-4923ddaba0dc","{""num_scrambled_semantic"":""8"",""num_scrambled_causal"":""4"",""num_scrambled_schematic"":""4"",""participantId"":""4FB4D02C1BDF440B86B1911D9BFA715F"",""assignmentId"":""c60fe244-bd1e-4983-a6df-6770a1e36203"",""projectId"":""051c06f1-75cc-4548-856d-4923ddaba0dc""}","https://test12345.live/?num_scrambled_semantic=8&num_scrambled_causal=4&num_scrambled_schematic=4&participantId=4FB4D02C1BDF440B86B1911D9BFA715F&assignmentId=c60fe244-bd1e-4983-a6df-6770a1e36203&projectId=051c06f1-75cc-4548-856d-4923ddaba0dc","4FB4D02C1BDF440B86B1911D9BFA715F-2025-05-15-19-26-30","","null","","[]","null","",""
"","","","","","image-button-response","113","524892","0.0-14.0-1.0-0.8","4FB4D02C1BDF440B86B1911D9BFA715F","4FB4D02C1BDF440B86B1911D9BFA715F","c60fe244-bd1e-4983-a6df-6770a1e36203","051c06f1-75cc-4548-856d-4923ddaba0dc","{""num_scrambled_semantic"":""8"",""num_scrambled_causal"":""4"",""num_scrambled_schematic"":""4"",""participantId"":""4FB4D02C1BDF440B86B1911D9BFA715F"",""assignmentId"":""c60fe244-bd1e-4983-a6df-6770a1e36203"",""projectId"":""051c06f1-75cc-4548-856d-4923ddaba0dc""}","https://test12345.live/?num_scrambled_semantic=8&num_scrambled_causal=4&num_scrambled_schematic=4&participantId=4FB4D02C1BDF440B86B1911D9BFA715F&assignmentId=c60fe244-bd1e-4983-a6df-6770a1e36203&projectId=051c06f1-75cc-4548-856d-4923ddaba0dc","4FB4D02C1BDF440B86B1911D9BFA715F-2025-05-15-19-26-30","","null","","images/schematic_sequence/flight_scheme/flight_scheme_9.png","null","",""
"","","","","","image-button-response","114","525635","0.0-14.0-1.0-1.8","4FB4D02C1BDF440B86B1911D9BFA715F","4FB4D02C1BDF440B86B1911D9BFA715F","c60fe244-bd1e-4983-a6df-6770a1e36203","051c06f1-75cc-4548-856d-4923ddaba0dc","{""num_scrambled_semantic"":""8"",""num_scrambled_causal"":""4"",""num_scrambled_schematic"":""4"",""participantId"":""4FB4D02C1BDF440B86B1911D9BFA715F"",""assignmentId"":""c60fe244-bd1e-4983-a6df-6770a1e36203"",""projectId"":""051c06f1-75cc-4548-856d-4923ddaba0dc""}","https://test12345.live/?num_scrambled_semantic=8&num_scrambled_causal=4&num_scrambled_schematic=4&participantId=4FB4D02C1BDF440B86B1911D9BFA715F&assignmentId=c60fe244-bd1e-4983-a6df-6770a1e36203&projectId=051c06f1-75cc-4548-856d-4923ddaba0dc","4FB4D02C1BDF440B86B1911D9BFA715F-2025-05-15-19-26-30","","739","","images/schematic_sequence/flight_scheme/flight_scheme_9.png","1","",""
