"success","timeout","failed_images","failed_audio","failed_video","trial_type","trial_index","time_elapsed","internal_node_id","subject","subject_id","study_id","session_id","urlvar","current_url","audio_id","view_history","rt","device_id","stimulus","response","estimated_stimulus_onset","seq_name"
"true","false","[]","[]","[]","preload","0","608305","0.0-0.0","5091CD0D95D34F4AAE522F2E8FE43010","5091CD0D95D34F4AAE522F2E8FE43010","6b002d3f-c08c-41e8-8863-fb9c3c6817b3","a0a8f18c-a66e-4ba7-a170-23efbdc67501","{""participantId"":""5091CD0D95D34F4AAE522F2E8FE43010"",""assignmentId"":""6b002d3f-c08c-41e8-8863-fb9c3c6817b3"",""projectId"":""a0a8f18c-a66e-4ba7-a170-23efbdc67501""}","https://test12345.live/?participantId=5091CD0D95D34F4AAE522F2E8FE43010&assignmentId=6b002d3f-c08c-41e8-8863-fb9c3c6817b3&projectId=a0a8f18c-a66e-4ba7-a170-23efbdc67501","5091CD0D95D34F4AAE522F2E8FE43010-2024-11-24-18-59-30","","","","","","",""
"","","","","","instructions","1","697665","0.0-1.0","5091CD0D95D34F4AAE522F2E8FE43010","5091CD0D95D34F4AAE522F2E8FE43010","6b002d3f-c08c-41e8-8863-fb9c3c6817b3","a0a8f18c-a66e-4ba7-a170-23efbdc67501","{""participantId"":""5091CD0D95D34F4AAE522F2E8FE43010"",""assignmentId"":""6b002d3f-c08c-41e8-8863-fb9c3c6817b3"",""projectId"":""a0a8f18c-a66e-4ba7-a170-23efbdc67501""}","https://test12345.live/?participantId=5091CD0D95D34F4AAE522F2E8FE43010&assignmentId=6b002d3f-c08c-41e8-8863-fb9c3c6817b3&projectId=a0a8f18c-a66e-4ba7-a170-23efbdc67501","5091CD0D95D34F4AAE522F2E8FE43010-2024-11-24-18-59-30","[{""page_index"":0,""viewing_time"":89341}]","89342","","","","",""
"","","","","","instructions","2","713999","0.0-2.0","5091CD0D95D34F4AAE522F2E8FE43010","5091CD0D95D34F4AAE522F2E8FE43010","6b002d3f-c08c-41e8-8863-fb9c3c6817b3","a0a8f18c-a66e-4ba7-a170-23efbdc67501","{""participantId"":""5091CD0D95D34F4AAE522F2E8FE43010"",""assignmentId"":""6b002d3f-c08c-41e8-8863-fb9c3c6817b3"",""projectId"":""a0a8f18c-a66e-4ba7-a170-23efbdc67501""}","https://test12345.live/?participantId=5091CD0D95D34F4AAE522F2E8FE43010&assignmentId=6b002d3f-c08c-41e8-8863-fb9c3c6817b3&projectId=a0a8f18c-a66e-4ba7-a170-23efbdc67501","5091CD0D95D34F4AAE522F2E8FE43010-2024-11-24-18-59-30","[{""page_index"":0,""viewing_time"":16333}]","16333","","","","",""
"true","","","","","fullscreen","3","719239","0.0-3.0","5091CD0D95D34F4AAE522F2E8FE43010","5091CD0D95D34F4AAE522F2E8FE43010","6b002d3f-c08c-41e8-8863-fb9c3c6817b3","a0a8f18c-a66e-4ba7-a170-23efbdc67501","{""participantId"":""5091CD0D95D34F4AAE522F2E8FE43010"",""assignmentId"":""6b002d3f-c08c-41e8-8863-fb9c3c6817b3"",""projectId"":""a0a8f18c-a66e-4ba7-a170-23efbdc67501""}","https://test12345.live/?participantId=5091CD0D95D34F4AAE522F2E8FE43010&assignmentId=6b002d3f-c08c-41e8-8863-fb9c3c6817b3&projectId=a0a8f18c-a66e-4ba7-a170-23efbdc67501","5091CD0D95D34F4AAE522F2E8FE43010-2024-11-24-18-59-30","","4235","","","","",""
"","","","","","initialize-microphone","4","730955","0.0-4.0-0.0","5091CD0D95D34F4AAE522F2E8FE43010","5091CD0D95D34F4AAE522F2E8FE43010","6b002d3f-c08c-41e8-8863-fb9c3c6817b3","a0a8f18c-a66e-4ba7-a170-23efbdc67501","{""participantId"":""5091CD0D95D34F4AAE522F2E8FE43010"",""assignmentId"":""6b002d3f-c08c-41e8-8863-fb9c3c6817b3"",""projectId"":""a0a8f18c-a66e-4ba7-a170-23efbdc67501""}","https://test12345.live/?participantId=5091CD0D95D34F4AAE522F2E8FE43010&assignmentId=6b002d3f-c08c-41e8-8863-fb9c3c6817b3&projectId=a0a8f18c-a66e-4ba7-a170-23efbdc67501","5091CD0D95D34F4AAE522F2E8FE43010-2024-11-24-18-59-30","","","0db6ec8822c64d9f7fc3c1cf7bd9697c1c8d44ba21e2cae033d9d276773769d7","","","",""
"","","","","","html-audio-response","5","752146","0.0-4.0-1.0","5091CD0D95D34F4AAE522F2E8FE43010","5091CD0D95D34F4AAE522F2E8FE43010","6b002d3f-c08c-41e8-8863-fb9c3c6817b3","a0a8f18c-a66e-4ba7-a170-23efbdc67501","{""participantId"":""5091CD0D95D34F4AAE522F2E8FE43010"",""assignmentId"":""6b002d3f-c08c-41e8-8863-fb9c3c6817b3"",""projectId"":""a0a8f18c-a66e-4ba7-a170-23efbdc67501""}","https://test12345.live/?participantId=5091CD0D95D34F4AAE522F2E8FE43010&assignmentId=6b002d3f-c08c-41e8-8863-fb9c3c6817b3&projectId=a0a8f18c-a66e-4ba7-a170-23efbdc67501","5091CD0D95D34F4AAE522F2E8FE43010-2024-11-24-18-59-30","","6035","","<span style=""color: red; font-size: 24px""> NOW RECORDING</span>
        <p>Please test Microphone</p>","","4",""
"","","","","","html-button-response","6","755291","0.0-4.0-2.0","5091CD0D95D34F4AAE522F2E8FE43010","5091CD0D95D34F4AAE522F2E8FE43010","6b002d3f-c08c-41e8-8863-fb9c3c6817b3","a0a8f18c-a66e-4ba7-a170-23efbdc67501","{""participantId"":""5091CD0D95D34F4AAE522F2E8FE43010"",""assignmentId"":""6b002d3f-c08c-41e8-8863-fb9c3c6817b3"",""projectId"":""a0a8f18c-a66e-4ba7-a170-23efbdc67501""}","https://test12345.live/?participantId=5091CD0D95D34F4AAE522F2E8FE43010&assignmentId=6b002d3f-c08c-41e8-8863-fb9c3c6817b3&projectId=a0a8f18c-a66e-4ba7-a170-23efbdc67501","5091CD0D95D34F4AAE522F2E8FE43010-2024-11-24-18-59-30","","3144","","<p style=""font-size:48px; color:red;"">Is Microphone OK?</p>","1","",""
"","","","","","instructions","7","768234","0.0-5.0","5091CD0D95D34F4AAE522F2E8FE43010","5091CD0D95D34F4AAE522F2E8FE43010","6b002d3f-c08c-41e8-8863-fb9c3c6817b3","a0a8f18c-a66e-4ba7-a170-23efbdc67501","{""participantId"":""5091CD0D95D34F4AAE522F2E8FE43010"",""assignmentId"":""6b002d3f-c08c-41e8-8863-fb9c3c6817b3"",""projectId"":""a0a8f18c-a66e-4ba7-a170-23efbdc67501""}","https://test12345.live/?participantId=5091CD0D95D34F4AAE522F2E8FE43010&assignmentId=6b002d3f-c08c-41e8-8863-fb9c3c6817b3&projectId=a0a8f18c-a66e-4ba7-a170-23efbdc67501","5091CD0D95D34F4AAE522F2E8FE43010-2024-11-24-18-59-30","[{""page_index"":0,""viewing_time"":6488},{""page_index"":1,""viewing_time"":6453}]","12941","","","","",""
"","","","","","image-button-response","8","774248","0.0-6.0-0.0","5091CD0D95D34F4AAE522F2E8FE43010","5091CD0D95D34F4AAE522F2E8FE43010","6b002d3f-c08c-41e8-8863-fb9c3c6817b3","a0a8f18c-a66e-4ba7-a170-23efbdc67501","{""participantId"":""5091CD0D95D34F4AAE522F2E8FE43010"",""assignmentId"":""6b002d3f-c08c-41e8-8863-fb9c3c6817b3"",""projectId"":""a0a8f18c-a66e-4ba7-a170-23efbdc67501""}","https://test12345.live/?participantId=5091CD0D95D34F4AAE522F2E8FE43010&assignmentId=6b002d3f-c08c-41e8-8863-fb9c3c6817b3&projectId=a0a8f18c-a66e-4ba7-a170-23efbdc67501","5091CD0D95D34F4AAE522F2E8FE43010-2024-11-24-18-59-30","","null","","images/instructions/movie_0.png","null","",""
"","","","","","image-button-response","9","778757","0.0-6.0-1.0-0.0","5091CD0D95D34F4AAE522F2E8FE43010","5091CD0D95D34F4AAE522F2E8FE43010","6b002d3f-c08c-41e8-8863-fb9c3c6817b3","a0a8f18c-a66e-4ba7-a170-23efbdc67501","{""participantId"":""5091CD0D95D34F4AAE522F2E8FE43010"",""assignmentId"":""6b002d3f-c08c-41e8-8863-fb9c3c6817b3"",""projectId"":""a0a8f18c-a66e-4ba7-a170-23efbdc67501""}","https://test12345.live/?participantId=5091CD0D95D34F4AAE522F2E8FE43010&assignmentId=6b002d3f-c08c-41e8-8863-fb9c3c6817b3&projectId=a0a8f18c-a66e-4ba7-a170-23efbdc67501","5091CD0D95D34F4AAE522F2E8FE43010-2024-11-24-18-59-30","","null","","images/instructions/movie_1.png","null","",""
"","","","","","image-button-response","10","782767","0.0-6.0-1.0-1.0","5091CD0D95D34F4AAE522F2E8FE43010","5091CD0D95D34F4AAE522F2E8FE43010","6b002d3f-c08c-41e8-8863-fb9c3c6817b3","a0a8f18c-a66e-4ba7-a170-23efbdc67501","{""participantId"":""5091CD0D95D34F4AAE522F2E8FE43010"",""assignmentId"":""6b002d3f-c08c-41e8-8863-fb9c3c6817b3"",""projectId"":""a0a8f18c-a66e-4ba7-a170-23efbdc67501""}","https://test12345.live/?participantId=5091CD0D95D34F4AAE522F2E8FE43010&assignmentId=6b002d3f-c08c-41e8-8863-fb9c3c6817b3&projectId=a0a8f18c-a66e-4ba7-a170-23efbdc67501","5091CD0D95D34F4AAE522F2E8FE43010-2024-11-24-18-59-30","","null","","images/instructions/movie_1.png","null","",""
"","","","","","image-button-response","11","784581","0.0-6.0-1.0-2.0","5091CD0D95D34F4AAE522F2E8FE43010","5091CD0D95D34F4AAE522F2E8FE43010","6b002d3f-c08c-41e8-8863-fb9c3c6817b3","a0a8f18c-a66e-4ba7-a170-23efbdc67501","{""participantId"":""5091CD0D95D34F4AAE522F2E8FE43010"",""assignmentId"":""6b002d3f-c08c-41e8-8863-fb9c3c6817b3"",""projectId"":""a0a8f18c-a66e-4ba7-a170-23efbdc67501""}","https://test12345.live/?participantId=5091CD0D95D34F4AAE522F2E8FE43010&assignmentId=6b002d3f-c08c-41e8-8863-fb9c3c6817b3&projectId=a0a8f18c-a66e-4ba7-a170-23efbdc67501","5091CD0D95D34F4AAE522F2E8FE43010-2024-11-24-18-59-30","","null","","[]","null","",""
"","","","","","image-button-response","12","789085","0.0-6.0-1.0-0.1","5091CD0D95D34F4AAE522F2E8FE43010","5091CD0D95D34F4AAE522F2E8FE43010","6b002d3f-c08c-41e8-8863-fb9c3c6817b3","a0a8f18c-a66e-4ba7-a170-23efbdc67501","{""participantId"":""5091CD0D95D34F4AAE522F2E8FE43010"",""assignmentId"":""6b002d3f-c08c-41e8-8863-fb9c3c6817b3"",""projectId"":""a0a8f18c-a66e-4ba7-a170-23efbdc67501""}","https://test12345.live/?participantId=5091CD0D95D34F4AAE522F2E8FE43010&assignmentId=6b002d3f-c08c-41e8-8863-fb9c3c6817b3&projectId=a0a8f18c-a66e-4ba7-a170-23efbdc67501","5091CD0D95D34F4AAE522F2E8FE43010-2024-11-24-18-59-30","","null","","images/instructions/movie_2.png","null","",""
"","","","","","image-button-response","13","793093","0.0-6.0-1.0-1.1","5091CD0D95D34F4AAE522F2E8FE43010","5091CD0D95D34F4AAE522F2E8FE43010","6b002d3f-c08c-41e8-8863-fb9c3c6817b3","a0a8f18c-a66e-4ba7-a170-23efbdc67501","{""participantId"":""5091CD0D95D34F4AAE522F2E8FE43010"",""assignmentId"":""6b002d3f-c08c-41e8-8863-fb9c3c6817b3"",""projectId"":""a0a8f18c-a66e-4ba7-a170-23efbdc67501""}","https://test12345.live/?participantId=5091CD0D95D34F4AAE522F2E8FE43010&assignmentId=6b002d3f-c08c-41e8-8863-fb9c3c6817b3&projectId=a0a8f18c-a66e-4ba7-a170-23efbdc67501","5091CD0D95D34F4AAE522F2E8FE43010-2024-11-24-18-59-30","","null","","images/instructions/movie_2.png","null","",""
"","","","","","image-button-response","14","794900","0.0-6.0-1.0-2.1","5091CD0D95D34F4AAE522F2E8FE43010","5091CD0D95D34F4AAE522F2E8FE43010","6b002d3f-c08c-41e8-8863-fb9c3c6817b3","a0a8f18c-a66e-4ba7-a170-23efbdc67501","{""participantId"":""5091CD0D95D34F4AAE522F2E8FE43010"",""assignmentId"":""6b002d3f-c08c-41e8-8863-fb9c3c6817b3"",""projectId"":""a0a8f18c-a66e-4ba7-a170-23efbdc67501""}","https://test12345.live/?participantId=5091CD0D95D34F4AAE522F2E8FE43010&assignmentId=6b002d3f-c08c-41e8-8863-fb9c3c6817b3&projectId=a0a8f18c-a66e-4ba7-a170-23efbdc67501","5091CD0D95D34F4AAE522F2E8FE43010-2024-11-24-18-59-30","","null","","[]","null","",""
"","","","","","image-button-response","15","799409","0.0-6.0-1.0-0.2","5091CD0D95D34F4AAE522F2E8FE43010","5091CD0D95D34F4AAE522F2E8FE43010","6b002d3f-c08c-41e8-8863-fb9c3c6817b3","a0a8f18c-a66e-4ba7-a170-23efbdc67501","{""participantId"":""5091CD0D95D34F4AAE522F2E8FE43010"",""assignmentId"":""6b002d3f-c08c-41e8-8863-fb9c3c6817b3"",""projectId"":""a0a8f18c-a66e-4ba7-a170-23efbdc67501""}","https://test12345.live/?participantId=5091CD0D95D34F4AAE522F2E8FE43010&assignmentId=6b002d3f-c08c-41e8-8863-fb9c3c6817b3&projectId=a0a8f18c-a66e-4ba7-a170-23efbdc67501","5091CD0D95D34F4AAE522F2E8FE43010-2024-11-24-18-59-30","","null","","images/instructions/movie_3.png","null","",""
"","","","","","image-button-response","16","803423","0.0-6.0-1.0-1.2","5091CD0D95D34F4AAE522F2E8FE43010","5091CD0D95D34F4AAE522F2E8FE43010","6b002d3f-c08c-41e8-8863-fb9c3c6817b3","a0a8f18c-a66e-4ba7-a170-23efbdc67501","{""participantId"":""5091CD0D95D34F4AAE522F2E8FE43010"",""assignmentId"":""6b002d3f-c08c-41e8-8863-fb9c3c6817b3"",""projectId"":""a0a8f18c-a66e-4ba7-a170-23efbdc67501""}","https://test12345.live/?participantId=5091CD0D95D34F4AAE522F2E8FE43010&assignmentId=6b002d3f-c08c-41e8-8863-fb9c3c6817b3&projectId=a0a8f18c-a66e-4ba7-a170-23efbdc67501","5091CD0D95D34F4AAE522F2E8FE43010-2024-11-24-18-59-30","","null","","images/instructions/movie_3.png","null","",""
"","","","","","image-button-response","17","805232","0.0-6.0-1.0-2.2","5091CD0D95D34F4AAE522F2E8FE43010","5091CD0D95D34F4AAE522F2E8FE43010","6b002d3f-c08c-41e8-8863-fb9c3c6817b3","a0a8f18c-a66e-4ba7-a170-23efbdc67501","{""participantId"":""5091CD0D95D34F4AAE522F2E8FE43010"",""assignmentId"":""6b002d3f-c08c-41e8-8863-fb9c3c6817b3"",""projectId"":""a0a8f18c-a66e-4ba7-a170-23efbdc67501""}","https://test12345.live/?participantId=5091CD0D95D34F4AAE522F2E8FE43010&assignmentId=6b002d3f-c08c-41e8-8863-fb9c3c6817b3&projectId=a0a8f18c-a66e-4ba7-a170-23efbdc67501","5091CD0D95D34F4AAE522F2E8FE43010-2024-11-24-18-59-30","","null","","[]","null","",""
"","","","","","image-button-response","18","809746","0.0-6.0-1.0-0.3","5091CD0D95D34F4AAE522F2E8FE43010","5091CD0D95D34F4AAE522F2E8FE43010","6b002d3f-c08c-41e8-8863-fb9c3c6817b3","a0a8f18c-a66e-4ba7-a170-23efbdc67501","{""participantId"":""5091CD0D95D34F4AAE522F2E8FE43010"",""assignmentId"":""6b002d3f-c08c-41e8-8863-fb9c3c6817b3"",""projectId"":""a0a8f18c-a66e-4ba7-a170-23efbdc67501""}","https://test12345.live/?participantId=5091CD0D95D34F4AAE522F2E8FE43010&assignmentId=6b002d3f-c08c-41e8-8863-fb9c3c6817b3&projectId=a0a8f18c-a66e-4ba7-a170-23efbdc67501","5091CD0D95D34F4AAE522F2E8FE43010-2024-11-24-18-59-30","","null","","images/instructions/movie_4.png","null","",""
"","","","","","image-button-response","19","811979","0.0-6.0-1.0-1.3","5091CD0D95D34F4AAE522F2E8FE43010","5091CD0D95D34F4AAE522F2E8FE43010","6b002d3f-c08c-41e8-8863-fb9c3c6817b3","a0a8f18c-a66e-4ba7-a170-23efbdc67501","{""participantId"":""5091CD0D95D34F4AAE522F2E8FE43010"",""assignmentId"":""6b002d3f-c08c-41e8-8863-fb9c3c6817b3"",""projectId"":""a0a8f18c-a66e-4ba7-a170-23efbdc67501""}","https://test12345.live/?participantId=5091CD0D95D34F4AAE522F2E8FE43010&assignmentId=6b002d3f-c08c-41e8-8863-fb9c3c6817b3&projectId=a0a8f18c-a66e-4ba7-a170-23efbdc67501","5091CD0D95D34F4AAE522F2E8FE43010-2024-11-24-18-59-30","","2222","","images/instructions/movie_4.png","0","",""
"","","","","","image-button-response","20","813794","0.0-6.0-1.0-2.3","5091CD0D95D34F4AAE522F2E8FE43010","5091CD0D95D34F4AAE522F2E8FE43010","6b002d3f-c08c-41e8-8863-fb9c3c6817b3","a0a8f18c-a66e-4ba7-a170-23efbdc67501","{""participantId"":""5091CD0D95D34F4AAE522F2E8FE43010"",""assignmentId"":""6b002d3f-c08c-41e8-8863-fb9c3c6817b3"",""projectId"":""a0a8f18c-a66e-4ba7-a170-23efbdc67501""}","https://test12345.live/?participantId=5091CD0D95D34F4AAE522F2E8FE43010&assignmentId=6b002d3f-c08c-41e8-8863-fb9c3c6817b3&projectId=a0a8f18c-a66e-4ba7-a170-23efbdc67501","5091CD0D95D34F4AAE522F2E8FE43010-2024-11-24-18-59-30","","null","","[]","null","",""
"","","","","","instructions","21","822211","0.0-7.0","5091CD0D95D34F4AAE522F2E8FE43010","5091CD0D95D34F4AAE522F2E8FE43010","6b002d3f-c08c-41e8-8863-fb9c3c6817b3","a0a8f18c-a66e-4ba7-a170-23efbdc67501","{""participantId"":""5091CD0D95D34F4AAE522F2E8FE43010"",""assignmentId"":""6b002d3f-c08c-41e8-8863-fb9c3c6817b3"",""projectId"":""a0a8f18c-a66e-4ba7-a170-23efbdc67501""}","https://test12345.live/?participantId=5091CD0D95D34F4AAE522F2E8FE43010&assignmentId=6b002d3f-c08c-41e8-8863-fb9c3c6817b3&projectId=a0a8f18c-a66e-4ba7-a170-23efbdc67501","5091CD0D95D34F4AAE522F2E8FE43010-2024-11-24-18-59-30","[{""page_index"":0,""viewing_time"":6912},{""page_index"":1,""viewing_time"":1505}]","8416","","","","",""
"","","","","","html-audio-response","22","858900","0.0-8.0","5091CD0D95D34F4AAE522F2E8FE43010","5091CD0D95D34F4AAE522F2E8FE43010","6b002d3f-c08c-41e8-8863-fb9c3c6817b3","a0a8f18c-a66e-4ba7-a170-23efbdc67501","{""participantId"":""5091CD0D95D34F4AAE522F2E8FE43010"",""assignmentId"":""6b002d3f-c08c-41e8-8863-fb9c3c6817b3"",""projectId"":""a0a8f18c-a66e-4ba7-a170-23efbdc67501""}","https://test12345.live/?participantId=5091CD0D95D34F4AAE522F2E8FE43010&assignmentId=6b002d3f-c08c-41e8-8863-fb9c3c6817b3&projectId=a0a8f18c-a66e-4ba7-a170-23efbdc67501","5091CD0D95D34F4AAE522F2E8FE43010-2024-11-24-18-59-30","","12485","","[""<span style=\""color: red; font-size: 24px\""> NOW RECORDING</span><p>Please say out loud all the images you saw, as many as you can remember. The images can be said in any order.</p>""]","","1",""
"","","","","","instructions","23","875164","0.0-9.0","5091CD0D95D34F4AAE522F2E8FE43010","5091CD0D95D34F4AAE522F2E8FE43010","6b002d3f-c08c-41e8-8863-fb9c3c6817b3","a0a8f18c-a66e-4ba7-a170-23efbdc67501","{""participantId"":""5091CD0D95D34F4AAE522F2E8FE43010"",""assignmentId"":""6b002d3f-c08c-41e8-8863-fb9c3c6817b3"",""projectId"":""a0a8f18c-a66e-4ba7-a170-23efbdc67501""}","https://test12345.live/?participantId=5091CD0D95D34F4AAE522F2E8FE43010&assignmentId=6b002d3f-c08c-41e8-8863-fb9c3c6817b3&projectId=a0a8f18c-a66e-4ba7-a170-23efbdc67501","5091CD0D95D34F4AAE522F2E8FE43010-2024-11-24-18-59-30","[{""page_index"":0,""viewing_time"":16250}]","16250","","","","",""
"","","","","","image-button-response","24","881178","0.0-10.0-0.0","5091CD0D95D34F4AAE522F2E8FE43010","5091CD0D95D34F4AAE522F2E8FE43010","6b002d3f-c08c-41e8-8863-fb9c3c6817b3","a0a8f18c-a66e-4ba7-a170-23efbdc67501","{""participantId"":""5091CD0D95D34F4AAE522F2E8FE43010"",""assignmentId"":""6b002d3f-c08c-41e8-8863-fb9c3c6817b3"",""projectId"":""a0a8f18c-a66e-4ba7-a170-23efbdc67501""}","https://test12345.live/?participantId=5091CD0D95D34F4AAE522F2E8FE43010&assignmentId=6b002d3f-c08c-41e8-8863-fb9c3c6817b3&projectId=a0a8f18c-a66e-4ba7-a170-23efbdc67501","5091CD0D95D34F4AAE522F2E8FE43010-2024-11-24-18-59-30","","null","","images/causal_sequence/dog_causal/dog_causal_0.png","null","",""
"","","","","","image-button-response","25","885691","0.0-10.0-1.0-0.0","5091CD0D95D34F4AAE522F2E8FE43010","5091CD0D95D34F4AAE522F2E8FE43010","6b002d3f-c08c-41e8-8863-fb9c3c6817b3","a0a8f18c-a66e-4ba7-a170-23efbdc67501","{""participantId"":""5091CD0D95D34F4AAE522F2E8FE43010"",""assignmentId"":""6b002d3f-c08c-41e8-8863-fb9c3c6817b3"",""projectId"":""a0a8f18c-a66e-4ba7-a170-23efbdc67501""}","https://test12345.live/?participantId=5091CD0D95D34F4AAE522F2E8FE43010&assignmentId=6b002d3f-c08c-41e8-8863-fb9c3c6817b3&projectId=a0a8f18c-a66e-4ba7-a170-23efbdc67501","5091CD0D95D34F4AAE522F2E8FE43010-2024-11-24-18-59-30","","null","","images/causal_sequence/dog_causal/dog_causal_5.png","null","",""
"","","","","","image-button-response","26","887945","0.0-10.0-1.0-1.0","5091CD0D95D34F4AAE522F2E8FE43010","5091CD0D95D34F4AAE522F2E8FE43010","6b002d3f-c08c-41e8-8863-fb9c3c6817b3","a0a8f18c-a66e-4ba7-a170-23efbdc67501","{""participantId"":""5091CD0D95D34F4AAE522F2E8FE43010"",""assignmentId"":""6b002d3f-c08c-41e8-8863-fb9c3c6817b3"",""projectId"":""a0a8f18c-a66e-4ba7-a170-23efbdc67501""}","https://test12345.live/?participantId=5091CD0D95D34F4AAE522F2E8FE43010&assignmentId=6b002d3f-c08c-41e8-8863-fb9c3c6817b3&projectId=a0a8f18c-a66e-4ba7-a170-23efbdc67501","5091CD0D95D34F4AAE522F2E8FE43010-2024-11-24-18-59-30","","2253","","images/causal_sequence/dog_causal/dog_causal_5.png","0","",""
"","","","","","image-button-response","27","889761","0.0-10.0-1.0-2.0","5091CD0D95D34F4AAE522F2E8FE43010","5091CD0D95D34F4AAE522F2E8FE43010","6b002d3f-c08c-41e8-8863-fb9c3c6817b3","a0a8f18c-a66e-4ba7-a170-23efbdc67501","{""participantId"":""5091CD0D95D34F4AAE522F2E8FE43010"",""assignmentId"":""6b002d3f-c08c-41e8-8863-fb9c3c6817b3"",""projectId"":""a0a8f18c-a66e-4ba7-a170-23efbdc67501""}","https://test12345.live/?participantId=5091CD0D95D34F4AAE522F2E8FE43010&assignmentId=6b002d3f-c08c-41e8-8863-fb9c3c6817b3&projectId=a0a8f18c-a66e-4ba7-a170-23efbdc67501","5091CD0D95D34F4AAE522F2E8FE43010-2024-11-24-18-59-30","","null","","[]","null","",""
"","","","","","image-button-response","28","894267","0.0-10.0-1.0-0.1","5091CD0D95D34F4AAE522F2E8FE43010","5091CD0D95D34F4AAE522F2E8FE43010","6b002d3f-c08c-41e8-8863-fb9c3c6817b3","a0a8f18c-a66e-4ba7-a170-23efbdc67501","{""participantId"":""5091CD0D95D34F4AAE522F2E8FE43010"",""assignmentId"":""6b002d3f-c08c-41e8-8863-fb9c3c6817b3"",""projectId"":""a0a8f18c-a66e-4ba7-a170-23efbdc67501""}","https://test12345.live/?participantId=5091CD0D95D34F4AAE522F2E8FE43010&assignmentId=6b002d3f-c08c-41e8-8863-fb9c3c6817b3&projectId=a0a8f18c-a66e-4ba7-a170-23efbdc67501","5091CD0D95D34F4AAE522F2E8FE43010-2024-11-24-18-59-30","","null","","images/causal_sequence/dog_causal/dog_causal_3.png","null","",""
"","","","","","image-button-response","29","898279","0.0-10.0-1.0-1.1","5091CD0D95D34F4AAE522F2E8FE43010","5091CD0D95D34F4AAE522F2E8FE43010","6b002d3f-c08c-41e8-8863-fb9c3c6817b3","a0a8f18c-a66e-4ba7-a170-23efbdc67501","{""participantId"":""5091CD0D95D34F4AAE522F2E8FE43010"",""assignmentId"":""6b002d3f-c08c-41e8-8863-fb9c3c6817b3"",""projectId"":""a0a8f18c-a66e-4ba7-a170-23efbdc67501""}","https://test12345.live/?participantId=5091CD0D95D34F4AAE522F2E8FE43010&assignmentId=6b002d3f-c08c-41e8-8863-fb9c3c6817b3&projectId=a0a8f18c-a66e-4ba7-a170-23efbdc67501","5091CD0D95D34F4AAE522F2E8FE43010-2024-11-24-18-59-30","","null","","images/causal_sequence/dog_causal/dog_causal_3.png","null","",""
"","","","","","image-button-response","30","900082","0.0-10.0-1.0-2.1","5091CD0D95D34F4AAE522F2E8FE43010","5091CD0D95D34F4AAE522F2E8FE43010","6b002d3f-c08c-41e8-8863-fb9c3c6817b3","a0a8f18c-a66e-4ba7-a170-23efbdc67501","{""participantId"":""5091CD0D95D34F4AAE522F2E8FE43010"",""assignmentId"":""6b002d3f-c08c-41e8-8863-fb9c3c6817b3"",""projectId"":""a0a8f18c-a66e-4ba7-a170-23efbdc67501""}","https://test12345.live/?participantId=5091CD0D95D34F4AAE522F2E8FE43010&assignmentId=6b002d3f-c08c-41e8-8863-fb9c3c6817b3&projectId=a0a8f18c-a66e-4ba7-a170-23efbdc67501","5091CD0D95D34F4AAE522F2E8FE43010-2024-11-24-18-59-30","","null","","[]","null","",""
"","","","","","image-button-response","31","904591","0.0-10.0-1.0-0.2","5091CD0D95D34F4AAE522F2E8FE43010","5091CD0D95D34F4AAE522F2E8FE43010","6b002d3f-c08c-41e8-8863-fb9c3c6817b3","a0a8f18c-a66e-4ba7-a170-23efbdc67501","{""participantId"":""5091CD0D95D34F4AAE522F2E8FE43010"",""assignmentId"":""6b002d3f-c08c-41e8-8863-fb9c3c6817b3"",""projectId"":""a0a8f18c-a66e-4ba7-a170-23efbdc67501""}","https://test12345.live/?participantId=5091CD0D95D34F4AAE522F2E8FE43010&assignmentId=6b002d3f-c08c-41e8-8863-fb9c3c6817b3&projectId=a0a8f18c-a66e-4ba7-a170-23efbdc67501","5091CD0D95D34F4AAE522F2E8FE43010-2024-11-24-18-59-30","","null","","images/causal_sequence/dog_causal/dog_causal_ten.png","null","",""
"","","","","","image-button-response","32","905961","0.0-10.0-1.0-1.2","5091CD0D95D34F4AAE522F2E8FE43010","5091CD0D95D34F4AAE522F2E8FE43010","6b002d3f-c08c-41e8-8863-fb9c3c6817b3","a0a8f18c-a66e-4ba7-a170-23efbdc67501","{""participantId"":""5091CD0D95D34F4AAE522F2E8FE43010"",""assignmentId"":""6b002d3f-c08c-41e8-8863-fb9c3c6817b3"",""projectId"":""a0a8f18c-a66e-4ba7-a170-23efbdc67501""}","https://test12345.live/?participantId=5091CD0D95D34F4AAE522F2E8FE43010&assignmentId=6b002d3f-c08c-41e8-8863-fb9c3c6817b3&projectId=a0a8f18c-a66e-4ba7-a170-23efbdc67501","5091CD0D95D34F4AAE522F2E8FE43010-2024-11-24-18-59-30","","1369","","images/causal_sequence/dog_causal/dog_causal_ten.png","0","",""
"","","","","","image-button-response","33","907762","0.0-10.0-1.0-2.2","5091CD0D95D34F4AAE522F2E8FE43010","5091CD0D95D34F4AAE522F2E8FE43010","6b002d3f-c08c-41e8-8863-fb9c3c6817b3","a0a8f18c-a66e-4ba7-a170-23efbdc67501","{""participantId"":""5091CD0D95D34F4AAE522F2E8FE43010"",""assignmentId"":""6b002d3f-c08c-41e8-8863-fb9c3c6817b3"",""projectId"":""a0a8f18c-a66e-4ba7-a170-23efbdc67501""}","https://test12345.live/?participantId=5091CD0D95D34F4AAE522F2E8FE43010&assignmentId=6b002d3f-c08c-41e8-8863-fb9c3c6817b3&projectId=a0a8f18c-a66e-4ba7-a170-23efbdc67501","5091CD0D95D34F4AAE522F2E8FE43010-2024-11-24-18-59-30","","null","","[]","null","",""
"","","","","","image-button-response","34","912268","0.0-10.0-1.0-0.3","5091CD0D95D34F4AAE522F2E8FE43010","5091CD0D95D34F4AAE522F2E8FE43010","6b002d3f-c08c-41e8-8863-fb9c3c6817b3","a0a8f18c-a66e-4ba7-a170-23efbdc67501","{""participantId"":""5091CD0D95D34F4AAE522F2E8FE43010"",""assignmentId"":""6b002d3f-c08c-41e8-8863-fb9c3c6817b3"",""projectId"":""a0a8f18c-a66e-4ba7-a170-23efbdc67501""}","https://test12345.live/?participantId=5091CD0D95D34F4AAE522F2E8FE43010&assignmentId=6b002d3f-c08c-41e8-8863-fb9c3c6817b3&projectId=a0a8f18c-a66e-4ba7-a170-23efbdc67501","5091CD0D95D34F4AAE522F2E8FE43010-2024-11-24-18-59-30","","null","","images/causal_sequence/dog_causal/dog_causal_8.png","null","",""
"","","","","","image-button-response","35","913975","0.0-10.0-1.0-1.3","5091CD0D95D34F4AAE522F2E8FE43010","5091CD0D95D34F4AAE522F2E8FE43010","6b002d3f-c08c-41e8-8863-fb9c3c6817b3","a0a8f18c-a66e-4ba7-a170-23efbdc67501","{""participantId"":""5091CD0D95D34F4AAE522F2E8FE43010"",""assignmentId"":""6b002d3f-c08c-41e8-8863-fb9c3c6817b3"",""projectId"":""a0a8f18c-a66e-4ba7-a170-23efbdc67501""}","https://test12345.live/?participantId=5091CD0D95D34F4AAE522F2E8FE43010&assignmentId=6b002d3f-c08c-41e8-8863-fb9c3c6817b3&projectId=a0a8f18c-a66e-4ba7-a170-23efbdc67501","5091CD0D95D34F4AAE522F2E8FE43010-2024-11-24-18-59-30","","1705","","images/causal_sequence/dog_causal/dog_causal_8.png","0","",""
"","","","","","image-button-response","36","915787","0.0-10.0-1.0-2.3","5091CD0D95D34F4AAE522F2E8FE43010","5091CD0D95D34F4AAE522F2E8FE43010","6b002d3f-c08c-41e8-8863-fb9c3c6817b3","a0a8f18c-a66e-4ba7-a170-23efbdc67501","{""participantId"":""5091CD0D95D34F4AAE522F2E8FE43010"",""assignmentId"":""6b002d3f-c08c-41e8-8863-fb9c3c6817b3"",""projectId"":""a0a8f18c-a66e-4ba7-a170-23efbdc67501""}","https://test12345.live/?participantId=5091CD0D95D34F4AAE522F2E8FE43010&assignmentId=6b002d3f-c08c-41e8-8863-fb9c3c6817b3&projectId=a0a8f18c-a66e-4ba7-a170-23efbdc67501","5091CD0D95D34F4AAE522F2E8FE43010-2024-11-24-18-59-30","","null","","[]","null","",""
"","","","","","image-button-response","37","920294","0.0-10.0-1.0-0.4","5091CD0D95D34F4AAE522F2E8FE43010","5091CD0D95D34F4AAE522F2E8FE43010","6b002d3f-c08c-41e8-8863-fb9c3c6817b3","a0a8f18c-a66e-4ba7-a170-23efbdc67501","{""participantId"":""5091CD0D95D34F4AAE522F2E8FE43010"",""assignmentId"":""6b002d3f-c08c-41e8-8863-fb9c3c6817b3"",""projectId"":""a0a8f18c-a66e-4ba7-a170-23efbdc67501""}","https://test12345.live/?participantId=5091CD0D95D34F4AAE522F2E8FE43010&assignmentId=6b002d3f-c08c-41e8-8863-fb9c3c6817b3&projectId=a0a8f18c-a66e-4ba7-a170-23efbdc67501","5091CD0D95D34F4AAE522F2E8FE43010-2024-11-24-18-59-30","","null","","images/causal_sequence/dog_causal/dog_causal_4.png","null","",""
"","","","","","image-button-response","38","922304","0.0-10.0-1.0-1.4","5091CD0D95D34F4AAE522F2E8FE43010","5091CD0D95D34F4AAE522F2E8FE43010","6b002d3f-c08c-41e8-8863-fb9c3c6817b3","a0a8f18c-a66e-4ba7-a170-23efbdc67501","{""participantId"":""5091CD0D95D34F4AAE522F2E8FE43010"",""assignmentId"":""6b002d3f-c08c-41e8-8863-fb9c3c6817b3"",""projectId"":""a0a8f18c-a66e-4ba7-a170-23efbdc67501""}","https://test12345.live/?participantId=5091CD0D95D34F4AAE522F2E8FE43010&assignmentId=6b002d3f-c08c-41e8-8863-fb9c3c6817b3&projectId=a0a8f18c-a66e-4ba7-a170-23efbdc67501","5091CD0D95D34F4AAE522F2E8FE43010-2024-11-24-18-59-30","","2009","","images/causal_sequence/dog_causal/dog_causal_4.png","0","",""
"","","","","","image-button-response","39","924109","0.0-10.0-1.0-2.4","5091CD0D95D34F4AAE522F2E8FE43010","5091CD0D95D34F4AAE522F2E8FE43010","6b002d3f-c08c-41e8-8863-fb9c3c6817b3","a0a8f18c-a66e-4ba7-a170-23efbdc67501","{""participantId"":""5091CD0D95D34F4AAE522F2E8FE43010"",""assignmentId"":""6b002d3f-c08c-41e8-8863-fb9c3c6817b3"",""projectId"":""a0a8f18c-a66e-4ba7-a170-23efbdc67501""}","https://test12345.live/?participantId=5091CD0D95D34F4AAE522F2E8FE43010&assignmentId=6b002d3f-c08c-41e8-8863-fb9c3c6817b3&projectId=a0a8f18c-a66e-4ba7-a170-23efbdc67501","5091CD0D95D34F4AAE522F2E8FE43010-2024-11-24-18-59-30","","null","","[]","null","",""
"","","","","","image-button-response","40","928621","0.0-10.0-1.0-0.5","5091CD0D95D34F4AAE522F2E8FE43010","5091CD0D95D34F4AAE522F2E8FE43010","6b002d3f-c08c-41e8-8863-fb9c3c6817b3","a0a8f18c-a66e-4ba7-a170-23efbdc67501","{""participantId"":""5091CD0D95D34F4AAE522F2E8FE43010"",""assignmentId"":""6b002d3f-c08c-41e8-8863-fb9c3c6817b3"",""projectId"":""a0a8f18c-a66e-4ba7-a170-23efbdc67501""}","https://test12345.live/?participantId=5091CD0D95D34F4AAE522F2E8FE43010&assignmentId=6b002d3f-c08c-41e8-8863-fb9c3c6817b3&projectId=a0a8f18c-a66e-4ba7-a170-23efbdc67501","5091CD0D95D34F4AAE522F2E8FE43010-2024-11-24-18-59-30","","null","","images/causal_sequence/dog_causal/dog_causal_2.png","null","",""
"","","","","","image-button-response","41","930340","0.0-10.0-1.0-1.5","5091CD0D95D34F4AAE522F2E8FE43010","5091CD0D95D34F4AAE522F2E8FE43010","6b002d3f-c08c-41e8-8863-fb9c3c6817b3","a0a8f18c-a66e-4ba7-a170-23efbdc67501","{""participantId"":""5091CD0D95D34F4AAE522F2E8FE43010"",""assignmentId"":""6b002d3f-c08c-41e8-8863-fb9c3c6817b3"",""projectId"":""a0a8f18c-a66e-4ba7-a170-23efbdc67501""}","https://test12345.live/?participantId=5091CD0D95D34F4AAE522F2E8FE43010&assignmentId=6b002d3f-c08c-41e8-8863-fb9c3c6817b3&projectId=a0a8f18c-a66e-4ba7-a170-23efbdc67501","5091CD0D95D34F4AAE522F2E8FE43010-2024-11-24-18-59-30","","1718","","images/causal_sequence/dog_causal/dog_causal_2.png","0","",""
"","","","","","image-button-response","42","932143","0.0-10.0-1.0-2.5","5091CD0D95D34F4AAE522F2E8FE43010","5091CD0D95D34F4AAE522F2E8FE43010","6b002d3f-c08c-41e8-8863-fb9c3c6817b3","a0a8f18c-a66e-4ba7-a170-23efbdc67501","{""participantId"":""5091CD0D95D34F4AAE522F2E8FE43010"",""assignmentId"":""6b002d3f-c08c-41e8-8863-fb9c3c6817b3"",""projectId"":""a0a8f18c-a66e-4ba7-a170-23efbdc67501""}","https://test12345.live/?participantId=5091CD0D95D34F4AAE522F2E8FE43010&assignmentId=6b002d3f-c08c-41e8-8863-fb9c3c6817b3&projectId=a0a8f18c-a66e-4ba7-a170-23efbdc67501","5091CD0D95D34F4AAE522F2E8FE43010-2024-11-24-18-59-30","","null","","[]","null","",""
"","","","","","image-button-response","43","936658","0.0-10.0-1.0-0.6","5091CD0D95D34F4AAE522F2E8FE43010","5091CD0D95D34F4AAE522F2E8FE43010","6b002d3f-c08c-41e8-8863-fb9c3c6817b3","a0a8f18c-a66e-4ba7-a170-23efbdc67501","{""participantId"":""5091CD0D95D34F4AAE522F2E8FE43010"",""assignmentId"":""6b002d3f-c08c-41e8-8863-fb9c3c6817b3"",""projectId"":""a0a8f18c-a66e-4ba7-a170-23efbdc67501""}","https://test12345.live/?participantId=5091CD0D95D34F4AAE522F2E8FE43010&assignmentId=6b002d3f-c08c-41e8-8863-fb9c3c6817b3&projectId=a0a8f18c-a66e-4ba7-a170-23efbdc67501","5091CD0D95D34F4AAE522F2E8FE43010-2024-11-24-18-59-30","","null","","images/causal_sequence/dog_causal/dog_causal_9.png","null","",""
"","","","","","image-button-response","44","937866","0.0-10.0-1.0-1.6","5091CD0D95D34F4AAE522F2E8FE43010","5091CD0D95D34F4AAE522F2E8FE43010","6b002d3f-c08c-41e8-8863-fb9c3c6817b3","a0a8f18c-a66e-4ba7-a170-23efbdc67501","{""participantId"":""5091CD0D95D34F4AAE522F2E8FE43010"",""assignmentId"":""6b002d3f-c08c-41e8-8863-fb9c3c6817b3"",""projectId"":""a0a8f18c-a66e-4ba7-a170-23efbdc67501""}","https://test12345.live/?participantId=5091CD0D95D34F4AAE522F2E8FE43010&assignmentId=6b002d3f-c08c-41e8-8863-fb9c3c6817b3&projectId=a0a8f18c-a66e-4ba7-a170-23efbdc67501","5091CD0D95D34F4AAE522F2E8FE43010-2024-11-24-18-59-30","","1208","","images/causal_sequence/dog_causal/dog_causal_9.png","0","",""
"","","","","","image-button-response","45","939668","0.0-10.0-1.0-2.6","5091CD0D95D34F4AAE522F2E8FE43010","5091CD0D95D34F4AAE522F2E8FE43010","6b002d3f-c08c-41e8-8863-fb9c3c6817b3","a0a8f18c-a66e-4ba7-a170-23efbdc67501","{""participantId"":""5091CD0D95D34F4AAE522F2E8FE43010"",""assignmentId"":""6b002d3f-c08c-41e8-8863-fb9c3c6817b3"",""projectId"":""a0a8f18c-a66e-4ba7-a170-23efbdc67501""}","https://test12345.live/?participantId=5091CD0D95D34F4AAE522F2E8FE43010&assignmentId=6b002d3f-c08c-41e8-8863-fb9c3c6817b3&projectId=a0a8f18c-a66e-4ba7-a170-23efbdc67501","5091CD0D95D34F4AAE522F2E8FE43010-2024-11-24-18-59-30","","null","","[]","null","",""
"","","","","","image-button-response","46","944175","0.0-10.0-1.0-0.7","5091CD0D95D34F4AAE522F2E8FE43010","5091CD0D95D34F4AAE522F2E8FE43010","6b002d3f-c08c-41e8-8863-fb9c3c6817b3","a0a8f18c-a66e-4ba7-a170-23efbdc67501","{""participantId"":""5091CD0D95D34F4AAE522F2E8FE43010"",""assignmentId"":""6b002d3f-c08c-41e8-8863-fb9c3c6817b3"",""projectId"":""a0a8f18c-a66e-4ba7-a170-23efbdc67501""}","https://test12345.live/?participantId=5091CD0D95D34F4AAE522F2E8FE43010&assignmentId=6b002d3f-c08c-41e8-8863-fb9c3c6817b3&projectId=a0a8f18c-a66e-4ba7-a170-23efbdc67501","5091CD0D95D34F4AAE522F2E8FE43010-2024-11-24-18-59-30","","null","","images/causal_sequence/dog_causal/dog_causal_1.png","null","",""
"","","","","","image-button-response","47","945301","0.0-10.0-1.0-1.7","5091CD0D95D34F4AAE522F2E8FE43010","5091CD0D95D34F4AAE522F2E8FE43010","6b002d3f-c08c-41e8-8863-fb9c3c6817b3","a0a8f18c-a66e-4ba7-a170-23efbdc67501","{""participantId"":""5091CD0D95D34F4AAE522F2E8FE43010"",""assignmentId"":""6b002d3f-c08c-41e8-8863-fb9c3c6817b3"",""projectId"":""a0a8f18c-a66e-4ba7-a170-23efbdc67501""}","https://test12345.live/?participantId=5091CD0D95D34F4AAE522F2E8FE43010&assignmentId=6b002d3f-c08c-41e8-8863-fb9c3c6817b3&projectId=a0a8f18c-a66e-4ba7-a170-23efbdc67501","5091CD0D95D34F4AAE522F2E8FE43010-2024-11-24-18-59-30","","1125","","images/causal_sequence/dog_causal/dog_causal_1.png","0","",""
"","","","","","image-button-response","48","947103","0.0-10.0-1.0-2.7","5091CD0D95D34F4AAE522F2E8FE43010","5091CD0D95D34F4AAE522F2E8FE43010","6b002d3f-c08c-41e8-8863-fb9c3c6817b3","a0a8f18c-a66e-4ba7-a170-23efbdc67501","{""participantId"":""5091CD0D95D34F4AAE522F2E8FE43010"",""assignmentId"":""6b002d3f-c08c-41e8-8863-fb9c3c6817b3"",""projectId"":""a0a8f18c-a66e-4ba7-a170-23efbdc67501""}","https://test12345.live/?participantId=5091CD0D95D34F4AAE522F2E8FE43010&assignmentId=6b002d3f-c08c-41e8-8863-fb9c3c6817b3&projectId=a0a8f18c-a66e-4ba7-a170-23efbdc67501","5091CD0D95D34F4AAE522F2E8FE43010-2024-11-24-18-59-30","","null","","[]","null","",""
"","","","","","image-button-response","49","951605","0.0-10.0-1.0-0.8","5091CD0D95D34F4AAE522F2E8FE43010","5091CD0D95D34F4AAE522F2E8FE43010","6b002d3f-c08c-41e8-8863-fb9c3c6817b3","a0a8f18c-a66e-4ba7-a170-23efbdc67501","{""participantId"":""5091CD0D95D34F4AAE522F2E8FE43010"",""assignmentId"":""6b002d3f-c08c-41e8-8863-fb9c3c6817b3"",""projectId"":""a0a8f18c-a66e-4ba7-a170-23efbdc67501""}","https://test12345.live/?participantId=5091CD0D95D34F4AAE522F2E8FE43010&assignmentId=6b002d3f-c08c-41e8-8863-fb9c3c6817b3&projectId=a0a8f18c-a66e-4ba7-a170-23efbdc67501","5091CD0D95D34F4AAE522F2E8FE43010-2024-11-24-18-59-30","","null","","images/causal_sequence/dog_causal/dog_causal_6.png","null","",""
"","","","","","image-button-response","50","952513","0.0-10.0-1.0-1.8","5091CD0D95D34F4AAE522F2E8FE43010","5091CD0D95D34F4AAE522F2E8FE43010","6b002d3f-c08c-41e8-8863-fb9c3c6817b3","a0a8f18c-a66e-4ba7-a170-23efbdc67501","{""participantId"":""5091CD0D95D34F4AAE522F2E8FE43010"",""assignmentId"":""6b002d3f-c08c-41e8-8863-fb9c3c6817b3"",""projectId"":""a0a8f18c-a66e-4ba7-a170-23efbdc67501""}","https://test12345.live/?participantId=5091CD0D95D34F4AAE522F2E8FE43010&assignmentId=6b002d3f-c08c-41e8-8863-fb9c3c6817b3&projectId=a0a8f18c-a66e-4ba7-a170-23efbdc67501","5091CD0D95D34F4AAE522F2E8FE43010-2024-11-24-18-59-30","","907","","images/causal_sequence/dog_causal/dog_causal_6.png","0","",""
"","","","","","image-button-response","51","954319","0.0-10.0-1.0-2.8","5091CD0D95D34F4AAE522F2E8FE43010","5091CD0D95D34F4AAE522F2E8FE43010","6b002d3f-c08c-41e8-8863-fb9c3c6817b3","a0a8f18c-a66e-4ba7-a170-23efbdc67501","{""participantId"":""5091CD0D95D34F4AAE522F2E8FE43010"",""assignmentId"":""6b002d3f-c08c-41e8-8863-fb9c3c6817b3"",""projectId"":""a0a8f18c-a66e-4ba7-a170-23efbdc67501""}","https://test12345.live/?participantId=5091CD0D95D34F4AAE522F2E8FE43010&assignmentId=6b002d3f-c08c-41e8-8863-fb9c3c6817b3&projectId=a0a8f18c-a66e-4ba7-a170-23efbdc67501","5091CD0D95D34F4AAE522F2E8FE43010-2024-11-24-18-59-30","","null","","[]","null","",""
"","","","","","image-button-response","52","958831","0.0-10.0-1.0-0.9","5091CD0D95D34F4AAE522F2E8FE43010","5091CD0D95D34F4AAE522F2E8FE43010","6b002d3f-c08c-41e8-8863-fb9c3c6817b3","a0a8f18c-a66e-4ba7-a170-23efbdc67501","{""participantId"":""5091CD0D95D34F4AAE522F2E8FE43010"",""assignmentId"":""6b002d3f-c08c-41e8-8863-fb9c3c6817b3"",""projectId"":""a0a8f18c-a66e-4ba7-a170-23efbdc67501""}","https://test12345.live/?participantId=5091CD0D95D34F4AAE522F2E8FE43010&assignmentId=6b002d3f-c08c-41e8-8863-fb9c3c6817b3&projectId=a0a8f18c-a66e-4ba7-a170-23efbdc67501","5091CD0D95D34F4AAE522F2E8FE43010-2024-11-24-18-59-30","","null","","images/causal_sequence/dog_causal/dog_causal_7.png","null","",""
"","","","","","image-button-response","53","959623","0.0-10.0-1.0-1.9","5091CD0D95D34F4AAE522F2E8FE43010","5091CD0D95D34F4AAE522F2E8FE43010","6b002d3f-c08c-41e8-8863-fb9c3c6817b3","a0a8f18c-a66e-4ba7-a170-23efbdc67501","{""participantId"":""5091CD0D95D34F4AAE522F2E8FE43010"",""assignmentId"":""6b002d3f-c08c-41e8-8863-fb9c3c6817b3"",""projectId"":""a0a8f18c-a66e-4ba7-a170-23efbdc67501""}","https://test12345.live/?participantId=5091CD0D95D34F4AAE522F2E8FE43010&assignmentId=6b002d3f-c08c-41e8-8863-fb9c3c6817b3&projectId=a0a8f18c-a66e-4ba7-a170-23efbdc67501","5091CD0D95D34F4AAE522F2E8FE43010-2024-11-24-18-59-30","","791","","images/causal_sequence/dog_causal/dog_causal_7.png","0","",""
"","","","","","image-button-response","54","961435","0.0-10.0-1.0-2.9","5091CD0D95D34F4AAE522F2E8FE43010","5091CD0D95D34F4AAE522F2E8FE43010","6b002d3f-c08c-41e8-8863-fb9c3c6817b3","a0a8f18c-a66e-4ba7-a170-23efbdc67501","{""participantId"":""5091CD0D95D34F4AAE522F2E8FE43010"",""assignmentId"":""6b002d3f-c08c-41e8-8863-fb9c3c6817b3"",""projectId"":""a0a8f18c-a66e-4ba7-a170-23efbdc67501""}","https://test12345.live/?participantId=5091CD0D95D34F4AAE522F2E8FE43010&assignmentId=6b002d3f-c08c-41e8-8863-fb9c3c6817b3&projectId=a0a8f18c-a66e-4ba7-a170-23efbdc67501","5091CD0D95D34F4AAE522F2E8FE43010-2024-11-24-18-59-30","","null","","[]","null","",""
"","","","","","html-audio-response","55","1024815","0.0-11.0","5091CD0D95D34F4AAE522F2E8FE43010","5091CD0D95D34F4AAE522F2E8FE43010","6b002d3f-c08c-41e8-8863-fb9c3c6817b3","a0a8f18c-a66e-4ba7-a170-23efbdc67501","{""participantId"":""5091CD0D95D34F4AAE522F2E8FE43010"",""assignmentId"":""6b002d3f-c08c-41e8-8863-fb9c3c6817b3"",""projectId"":""a0a8f18c-a66e-4ba7-a170-23efbdc67501""}","https://test12345.live/?participantId=5091CD0D95D34F4AAE522F2E8FE43010&assignmentId=6b002d3f-c08c-41e8-8863-fb9c3c6817b3&projectId=a0a8f18c-a66e-4ba7-a170-23efbdc67501","5091CD0D95D34F4AAE522F2E8FE43010-2024-11-24-18-59-30","","28759","","[""<span style=\""color: red; font-size: 24px\""> NOW RECORDING</span><p>Please say out loud all the images you saw, as many as you can remember. The images can be said in any order.</p>""]","","1","dog_causal"
"","","","","","image-button-response","56","1030823","0.0-12.0-0.0","5091CD0D95D34F4AAE522F2E8FE43010","5091CD0D95D34F4AAE522F2E8FE43010","6b002d3f-c08c-41e8-8863-fb9c3c6817b3","a0a8f18c-a66e-4ba7-a170-23efbdc67501","{""participantId"":""5091CD0D95D34F4AAE522F2E8FE43010"",""assignmentId"":""6b002d3f-c08c-41e8-8863-fb9c3c6817b3"",""projectId"":""a0a8f18c-a66e-4ba7-a170-23efbdc67501""}","https://test12345.live/?participantId=5091CD0D95D34F4AAE522F2E8FE43010&assignmentId=6b002d3f-c08c-41e8-8863-fb9c3c6817b3&projectId=a0a8f18c-a66e-4ba7-a170-23efbdc67501","5091CD0D95D34F4AAE522F2E8FE43010-2024-11-24-18-59-30","","null","","images/causal_sequence/museum_causal/museum_causal_0.png","null","",""
"","","","","","image-button-response","57","1035339","0.0-12.0-1.0-0.0","5091CD0D95D34F4AAE522F2E8FE43010","5091CD0D95D34F4AAE522F2E8FE43010","6b002d3f-c08c-41e8-8863-fb9c3c6817b3","a0a8f18c-a66e-4ba7-a170-23efbdc67501","{""participantId"":""5091CD0D95D34F4AAE522F2E8FE43010"",""assignmentId"":""6b002d3f-c08c-41e8-8863-fb9c3c6817b3"",""projectId"":""a0a8f18c-a66e-4ba7-a170-23efbdc67501""}","https://test12345.live/?participantId=5091CD0D95D34F4AAE522F2E8FE43010&assignmentId=6b002d3f-c08c-41e8-8863-fb9c3c6817b3&projectId=a0a8f18c-a66e-4ba7-a170-23efbdc67501","5091CD0D95D34F4AAE522F2E8FE43010-2024-11-24-18-59-30","","null","","images/causal_sequence/museum_causal/museum_causal_1.png","null","",""
"","","","","","image-button-response","58","1038124","0.0-12.0-1.0-1.0","5091CD0D95D34F4AAE522F2E8FE43010","5091CD0D95D34F4AAE522F2E8FE43010","6b002d3f-c08c-41e8-8863-fb9c3c6817b3","a0a8f18c-a66e-4ba7-a170-23efbdc67501","{""participantId"":""5091CD0D95D34F4AAE522F2E8FE43010"",""assignmentId"":""6b002d3f-c08c-41e8-8863-fb9c3c6817b3"",""projectId"":""a0a8f18c-a66e-4ba7-a170-23efbdc67501""}","https://test12345.live/?participantId=5091CD0D95D34F4AAE522F2E8FE43010&assignmentId=6b002d3f-c08c-41e8-8863-fb9c3c6817b3&projectId=a0a8f18c-a66e-4ba7-a170-23efbdc67501","5091CD0D95D34F4AAE522F2E8FE43010-2024-11-24-18-59-30","","2784","","images/causal_sequence/museum_causal/museum_causal_1.png","0","",""
"","","","","","image-button-response","59","1039932","0.0-12.0-1.0-2.0","5091CD0D95D34F4AAE522F2E8FE43010","5091CD0D95D34F4AAE522F2E8FE43010","6b002d3f-c08c-41e8-8863-fb9c3c6817b3","a0a8f18c-a66e-4ba7-a170-23efbdc67501","{""participantId"":""5091CD0D95D34F4AAE522F2E8FE43010"",""assignmentId"":""6b002d3f-c08c-41e8-8863-fb9c3c6817b3"",""projectId"":""a0a8f18c-a66e-4ba7-a170-23efbdc67501""}","https://test12345.live/?participantId=5091CD0D95D34F4AAE522F2E8FE43010&assignmentId=6b002d3f-c08c-41e8-8863-fb9c3c6817b3&projectId=a0a8f18c-a66e-4ba7-a170-23efbdc67501","5091CD0D95D34F4AAE522F2E8FE43010-2024-11-24-18-59-30","","null","","[]","null","",""
"","","","","","image-button-response","60","1044444","0.0-12.0-1.0-0.1","5091CD0D95D34F4AAE522F2E8FE43010","5091CD0D95D34F4AAE522F2E8FE43010","6b002d3f-c08c-41e8-8863-fb9c3c6817b3","a0a8f18c-a66e-4ba7-a170-23efbdc67501","{""participantId"":""5091CD0D95D34F4AAE522F2E8FE43010"",""assignmentId"":""6b002d3f-c08c-41e8-8863-fb9c3c6817b3"",""projectId"":""a0a8f18c-a66e-4ba7-a170-23efbdc67501""}","https://test12345.live/?participantId=5091CD0D95D34F4AAE522F2E8FE43010&assignmentId=6b002d3f-c08c-41e8-8863-fb9c3c6817b3&projectId=a0a8f18c-a66e-4ba7-a170-23efbdc67501","5091CD0D95D34F4AAE522F2E8FE43010-2024-11-24-18-59-30","","null","","images/causal_sequence/museum_causal/museum_causal_2.png","null","",""
"","","","","","image-button-response","61","1046648","0.0-12.0-1.0-1.1","5091CD0D95D34F4AAE522F2E8FE43010","5091CD0D95D34F4AAE522F2E8FE43010","6b002d3f-c08c-41e8-8863-fb9c3c6817b3","a0a8f18c-a66e-4ba7-a170-23efbdc67501","{""participantId"":""5091CD0D95D34F4AAE522F2E8FE43010"",""assignmentId"":""6b002d3f-c08c-41e8-8863-fb9c3c6817b3"",""projectId"":""a0a8f18c-a66e-4ba7-a170-23efbdc67501""}","https://test12345.live/?participantId=5091CD0D95D34F4AAE522F2E8FE43010&assignmentId=6b002d3f-c08c-41e8-8863-fb9c3c6817b3&projectId=a0a8f18c-a66e-4ba7-a170-23efbdc67501","5091CD0D95D34F4AAE522F2E8FE43010-2024-11-24-18-59-30","","2203","","images/causal_sequence/museum_causal/museum_causal_2.png","1","",""
"","","","","","image-button-response","62","1048457","0.0-12.0-1.0-2.1","5091CD0D95D34F4AAE522F2E8FE43010","5091CD0D95D34F4AAE522F2E8FE43010","6b002d3f-c08c-41e8-8863-fb9c3c6817b3","a0a8f18c-a66e-4ba7-a170-23efbdc67501","{""participantId"":""5091CD0D95D34F4AAE522F2E8FE43010"",""assignmentId"":""6b002d3f-c08c-41e8-8863-fb9c3c6817b3"",""projectId"":""a0a8f18c-a66e-4ba7-a170-23efbdc67501""}","https://test12345.live/?participantId=5091CD0D95D34F4AAE522F2E8FE43010&assignmentId=6b002d3f-c08c-41e8-8863-fb9c3c6817b3&projectId=a0a8f18c-a66e-4ba7-a170-23efbdc67501","5091CD0D95D34F4AAE522F2E8FE43010-2024-11-24-18-59-30","","null","","[]","null","",""
"","","","","","image-button-response","63","1052958","0.0-12.0-1.0-0.2","5091CD0D95D34F4AAE522F2E8FE43010","5091CD0D95D34F4AAE522F2E8FE43010","6b002d3f-c08c-41e8-8863-fb9c3c6817b3","a0a8f18c-a66e-4ba7-a170-23efbdc67501","{""participantId"":""5091CD0D95D34F4AAE522F2E8FE43010"",""assignmentId"":""6b002d3f-c08c-41e8-8863-fb9c3c6817b3"",""projectId"":""a0a8f18c-a66e-4ba7-a170-23efbdc67501""}","https://test12345.live/?participantId=5091CD0D95D34F4AAE522F2E8FE43010&assignmentId=6b002d3f-c08c-41e8-8863-fb9c3c6817b3&projectId=a0a8f18c-a66e-4ba7-a170-23efbdc67501","5091CD0D95D34F4AAE522F2E8FE43010-2024-11-24-18-59-30","","null","","images/causal_sequence/museum_causal/museum_causal_3.png","null","",""
"","","","","","image-button-response","64","1054010","0.0-12.0-1.0-1.2","5091CD0D95D34F4AAE522F2E8FE43010","5091CD0D95D34F4AAE522F2E8FE43010","6b002d3f-c08c-41e8-8863-fb9c3c6817b3","a0a8f18c-a66e-4ba7-a170-23efbdc67501","{""participantId"":""5091CD0D95D34F4AAE522F2E8FE43010"",""assignmentId"":""6b002d3f-c08c-41e8-8863-fb9c3c6817b3"",""projectId"":""a0a8f18c-a66e-4ba7-a170-23efbdc67501""}","https://test12345.live/?participantId=5091CD0D95D34F4AAE522F2E8FE43010&assignmentId=6b002d3f-c08c-41e8-8863-fb9c3c6817b3&projectId=a0a8f18c-a66e-4ba7-a170-23efbdc67501","5091CD0D95D34F4AAE522F2E8FE43010-2024-11-24-18-59-30","","1051","","images/causal_sequence/museum_causal/museum_causal_3.png","0","",""
"","","","","","image-button-response","65","1055822","0.0-12.0-1.0-2.2","5091CD0D95D34F4AAE522F2E8FE43010","5091CD0D95D34F4AAE522F2E8FE43010","6b002d3f-c08c-41e8-8863-fb9c3c6817b3","a0a8f18c-a66e-4ba7-a170-23efbdc67501","{""participantId"":""5091CD0D95D34F4AAE522F2E8FE43010"",""assignmentId"":""6b002d3f-c08c-41e8-8863-fb9c3c6817b3"",""projectId"":""a0a8f18c-a66e-4ba7-a170-23efbdc67501""}","https://test12345.live/?participantId=5091CD0D95D34F4AAE522F2E8FE43010&assignmentId=6b002d3f-c08c-41e8-8863-fb9c3c6817b3&projectId=a0a8f18c-a66e-4ba7-a170-23efbdc67501","5091CD0D95D34F4AAE522F2E8FE43010-2024-11-24-18-59-30","","null","","[]","null","",""
"","","","","","image-button-response","66","1060334","0.0-12.0-1.0-0.3","5091CD0D95D34F4AAE522F2E8FE43010","5091CD0D95D34F4AAE522F2E8FE43010","6b002d3f-c08c-41e8-8863-fb9c3c6817b3","a0a8f18c-a66e-4ba7-a170-23efbdc67501","{""participantId"":""5091CD0D95D34F4AAE522F2E8FE43010"",""assignmentId"":""6b002d3f-c08c-41e8-8863-fb9c3c6817b3"",""projectId"":""a0a8f18c-a66e-4ba7-a170-23efbdc67501""}","https://test12345.live/?participantId=5091CD0D95D34F4AAE522F2E8FE43010&assignmentId=6b002d3f-c08c-41e8-8863-fb9c3c6817b3&projectId=a0a8f18c-a66e-4ba7-a170-23efbdc67501","5091CD0D95D34F4AAE522F2E8FE43010-2024-11-24-18-59-30","","null","","images/causal_sequence/museum_causal/museum_causal_4.png","null","",""
"","","","","","image-button-response","67","1061778","0.0-12.0-1.0-1.3","5091CD0D95D34F4AAE522F2E8FE43010","5091CD0D95D34F4AAE522F2E8FE43010","6b002d3f-c08c-41e8-8863-fb9c3c6817b3","a0a8f18c-a66e-4ba7-a170-23efbdc67501","{""participantId"":""5091CD0D95D34F4AAE522F2E8FE43010"",""assignmentId"":""6b002d3f-c08c-41e8-8863-fb9c3c6817b3"",""projectId"":""a0a8f18c-a66e-4ba7-a170-23efbdc67501""}","https://test12345.live/?participantId=5091CD0D95D34F4AAE522F2E8FE43010&assignmentId=6b002d3f-c08c-41e8-8863-fb9c3c6817b3&projectId=a0a8f18c-a66e-4ba7-a170-23efbdc67501","5091CD0D95D34F4AAE522F2E8FE43010-2024-11-24-18-59-30","","1444","","images/causal_sequence/museum_causal/museum_causal_4.png","0","",""
"","","","","","image-button-response","68","1063593","0.0-12.0-1.0-2.3","5091CD0D95D34F4AAE522F2E8FE43010","5091CD0D95D34F4AAE522F2E8FE43010","6b002d3f-c08c-41e8-8863-fb9c3c6817b3","a0a8f18c-a66e-4ba7-a170-23efbdc67501","{""participantId"":""5091CD0D95D34F4AAE522F2E8FE43010"",""assignmentId"":""6b002d3f-c08c-41e8-8863-fb9c3c6817b3"",""projectId"":""a0a8f18c-a66e-4ba7-a170-23efbdc67501""}","https://test12345.live/?participantId=5091CD0D95D34F4AAE522F2E8FE43010&assignmentId=6b002d3f-c08c-41e8-8863-fb9c3c6817b3&projectId=a0a8f18c-a66e-4ba7-a170-23efbdc67501","5091CD0D95D34F4AAE522F2E8FE43010-2024-11-24-18-59-30","","null","","[]","null","",""
"","","","","","image-button-response","69","1068107","0.0-12.0-1.0-0.4","5091CD0D95D34F4AAE522F2E8FE43010","5091CD0D95D34F4AAE522F2E8FE43010","6b002d3f-c08c-41e8-8863-fb9c3c6817b3","a0a8f18c-a66e-4ba7-a170-23efbdc67501","{""participantId"":""5091CD0D95D34F4AAE522F2E8FE43010"",""assignmentId"":""6b002d3f-c08c-41e8-8863-fb9c3c6817b3"",""projectId"":""a0a8f18c-a66e-4ba7-a170-23efbdc67501""}","https://test12345.live/?participantId=5091CD0D95D34F4AAE522F2E8FE43010&assignmentId=6b002d3f-c08c-41e8-8863-fb9c3c6817b3&projectId=a0a8f18c-a66e-4ba7-a170-23efbdc67501","5091CD0D95D34F4AAE522F2E8FE43010-2024-11-24-18-59-30","","null","","images/causal_sequence/museum_causal/museum_causal_5.png","null","",""
"","","","","","image-button-response","70","1069577","0.0-12.0-1.0-1.4","5091CD0D95D34F4AAE522F2E8FE43010","5091CD0D95D34F4AAE522F2E8FE43010","6b002d3f-c08c-41e8-8863-fb9c3c6817b3","a0a8f18c-a66e-4ba7-a170-23efbdc67501","{""participantId"":""5091CD0D95D34F4AAE522F2E8FE43010"",""assignmentId"":""6b002d3f-c08c-41e8-8863-fb9c3c6817b3"",""projectId"":""a0a8f18c-a66e-4ba7-a170-23efbdc67501""}","https://test12345.live/?participantId=5091CD0D95D34F4AAE522F2E8FE43010&assignmentId=6b002d3f-c08c-41e8-8863-fb9c3c6817b3&projectId=a0a8f18c-a66e-4ba7-a170-23efbdc67501","5091CD0D95D34F4AAE522F2E8FE43010-2024-11-24-18-59-30","","1469","","images/causal_sequence/museum_causal/museum_causal_5.png","0","",""
"","","","","","image-button-response","71","1071382","0.0-12.0-1.0-2.4","5091CD0D95D34F4AAE522F2E8FE43010","5091CD0D95D34F4AAE522F2E8FE43010","6b002d3f-c08c-41e8-8863-fb9c3c6817b3","a0a8f18c-a66e-4ba7-a170-23efbdc67501","{""participantId"":""5091CD0D95D34F4AAE522F2E8FE43010"",""assignmentId"":""6b002d3f-c08c-41e8-8863-fb9c3c6817b3"",""projectId"":""a0a8f18c-a66e-4ba7-a170-23efbdc67501""}","https://test12345.live/?participantId=5091CD0D95D34F4AAE522F2E8FE43010&assignmentId=6b002d3f-c08c-41e8-8863-fb9c3c6817b3&projectId=a0a8f18c-a66e-4ba7-a170-23efbdc67501","5091CD0D95D34F4AAE522F2E8FE43010-2024-11-24-18-59-30","","null","","[]","null","",""
"","","","","","image-button-response","72","1075884","0.0-12.0-1.0-0.5","5091CD0D95D34F4AAE522F2E8FE43010","5091CD0D95D34F4AAE522F2E8FE43010","6b002d3f-c08c-41e8-8863-fb9c3c6817b3","a0a8f18c-a66e-4ba7-a170-23efbdc67501","{""participantId"":""5091CD0D95D34F4AAE522F2E8FE43010"",""assignmentId"":""6b002d3f-c08c-41e8-8863-fb9c3c6817b3"",""projectId"":""a0a8f18c-a66e-4ba7-a170-23efbdc67501""}","https://test12345.live/?participantId=5091CD0D95D34F4AAE522F2E8FE43010&assignmentId=6b002d3f-c08c-41e8-8863-fb9c3c6817b3&projectId=a0a8f18c-a66e-4ba7-a170-23efbdc67501","5091CD0D95D34F4AAE522F2E8FE43010-2024-11-24-18-59-30","","null","","images/causal_sequence/museum_causal/museum_causal_6.png","null","",""
"","","","","","image-button-response","73","1077254","0.0-12.0-1.0-1.5","5091CD0D95D34F4AAE522F2E8FE43010","5091CD0D95D34F4AAE522F2E8FE43010","6b002d3f-c08c-41e8-8863-fb9c3c6817b3","a0a8f18c-a66e-4ba7-a170-23efbdc67501","{""participantId"":""5091CD0D95D34F4AAE522F2E8FE43010"",""assignmentId"":""6b002d3f-c08c-41e8-8863-fb9c3c6817b3"",""projectId"":""a0a8f18c-a66e-4ba7-a170-23efbdc67501""}","https://test12345.live/?participantId=5091CD0D95D34F4AAE522F2E8FE43010&assignmentId=6b002d3f-c08c-41e8-8863-fb9c3c6817b3&projectId=a0a8f18c-a66e-4ba7-a170-23efbdc67501","5091CD0D95D34F4AAE522F2E8FE43010-2024-11-24-18-59-30","","1370","","images/causal_sequence/museum_causal/museum_causal_6.png","0","",""
"","","","","","image-button-response","74","1079066","0.0-12.0-1.0-2.5","5091CD0D95D34F4AAE522F2E8FE43010","5091CD0D95D34F4AAE522F2E8FE43010","6b002d3f-c08c-41e8-8863-fb9c3c6817b3","a0a8f18c-a66e-4ba7-a170-23efbdc67501","{""participantId"":""5091CD0D95D34F4AAE522F2E8FE43010"",""assignmentId"":""6b002d3f-c08c-41e8-8863-fb9c3c6817b3"",""projectId"":""a0a8f18c-a66e-4ba7-a170-23efbdc67501""}","https://test12345.live/?participantId=5091CD0D95D34F4AAE522F2E8FE43010&assignmentId=6b002d3f-c08c-41e8-8863-fb9c3c6817b3&projectId=a0a8f18c-a66e-4ba7-a170-23efbdc67501","5091CD0D95D34F4AAE522F2E8FE43010-2024-11-24-18-59-30","","null","","[]","null","",""
"","","","","","image-button-response","75","1083582","0.0-12.0-1.0-0.6","5091CD0D95D34F4AAE522F2E8FE43010","5091CD0D95D34F4AAE522F2E8FE43010","6b002d3f-c08c-41e8-8863-fb9c3c6817b3","a0a8f18c-a66e-4ba7-a170-23efbdc67501","{""participantId"":""5091CD0D95D34F4AAE522F2E8FE43010"",""assignmentId"":""6b002d3f-c08c-41e8-8863-fb9c3c6817b3"",""projectId"":""a0a8f18c-a66e-4ba7-a170-23efbdc67501""}","https://test12345.live/?participantId=5091CD0D95D34F4AAE522F2E8FE43010&assignmentId=6b002d3f-c08c-41e8-8863-fb9c3c6817b3&projectId=a0a8f18c-a66e-4ba7-a170-23efbdc67501","5091CD0D95D34F4AAE522F2E8FE43010-2024-11-24-18-59-30","","null","","images/causal_sequence/museum_causal/museum_causal_7.png","null","",""
"","","","","","image-button-response","76","1085647","0.0-12.0-1.0-1.6","5091CD0D95D34F4AAE522F2E8FE43010","5091CD0D95D34F4AAE522F2E8FE43010","6b002d3f-c08c-41e8-8863-fb9c3c6817b3","a0a8f18c-a66e-4ba7-a170-23efbdc67501","{""participantId"":""5091CD0D95D34F4AAE522F2E8FE43010"",""assignmentId"":""6b002d3f-c08c-41e8-8863-fb9c3c6817b3"",""projectId"":""a0a8f18c-a66e-4ba7-a170-23efbdc67501""}","https://test12345.live/?participantId=5091CD0D95D34F4AAE522F2E8FE43010&assignmentId=6b002d3f-c08c-41e8-8863-fb9c3c6817b3&projectId=a0a8f18c-a66e-4ba7-a170-23efbdc67501","5091CD0D95D34F4AAE522F2E8FE43010-2024-11-24-18-59-30","","2064","","images/causal_sequence/museum_causal/museum_causal_7.png","1","",""
"","","","","","image-button-response","77","1087455","0.0-12.0-1.0-2.6","5091CD0D95D34F4AAE522F2E8FE43010","5091CD0D95D34F4AAE522F2E8FE43010","6b002d3f-c08c-41e8-8863-fb9c3c6817b3","a0a8f18c-a66e-4ba7-a170-23efbdc67501","{""participantId"":""5091CD0D95D34F4AAE522F2E8FE43010"",""assignmentId"":""6b002d3f-c08c-41e8-8863-fb9c3c6817b3"",""projectId"":""a0a8f18c-a66e-4ba7-a170-23efbdc67501""}","https://test12345.live/?participantId=5091CD0D95D34F4AAE522F2E8FE43010&assignmentId=6b002d3f-c08c-41e8-8863-fb9c3c6817b3&projectId=a0a8f18c-a66e-4ba7-a170-23efbdc67501","5091CD0D95D34F4AAE522F2E8FE43010-2024-11-24-18-59-30","","null","","[]","null","",""
"","","","","","image-button-response","78","1091970","0.0-12.0-1.0-0.7","5091CD0D95D34F4AAE522F2E8FE43010","5091CD0D95D34F4AAE522F2E8FE43010","6b002d3f-c08c-41e8-8863-fb9c3c6817b3","a0a8f18c-a66e-4ba7-a170-23efbdc67501","{""participantId"":""5091CD0D95D34F4AAE522F2E8FE43010"",""assignmentId"":""6b002d3f-c08c-41e8-8863-fb9c3c6817b3"",""projectId"":""a0a8f18c-a66e-4ba7-a170-23efbdc67501""}","https://test12345.live/?participantId=5091CD0D95D34F4AAE522F2E8FE43010&assignmentId=6b002d3f-c08c-41e8-8863-fb9c3c6817b3&projectId=a0a8f18c-a66e-4ba7-a170-23efbdc67501","5091CD0D95D34F4AAE522F2E8FE43010-2024-11-24-18-59-30","","null","","images/causal_sequence/museum_causal/museum_causal_8.png","null","",""
"","","","","","image-button-response","79","1094220","0.0-12.0-1.0-1.7","5091CD0D95D34F4AAE522F2E8FE43010","5091CD0D95D34F4AAE522F2E8FE43010","6b002d3f-c08c-41e8-8863-fb9c3c6817b3","a0a8f18c-a66e-4ba7-a170-23efbdc67501","{""participantId"":""5091CD0D95D34F4AAE522F2E8FE43010"",""assignmentId"":""6b002d3f-c08c-41e8-8863-fb9c3c6817b3"",""projectId"":""a0a8f18c-a66e-4ba7-a170-23efbdc67501""}","https://test12345.live/?participantId=5091CD0D95D34F4AAE522F2E8FE43010&assignmentId=6b002d3f-c08c-41e8-8863-fb9c3c6817b3&projectId=a0a8f18c-a66e-4ba7-a170-23efbdc67501","5091CD0D95D34F4AAE522F2E8FE43010-2024-11-24-18-59-30","","2249","","images/causal_sequence/museum_causal/museum_causal_8.png","0","",""
"","","","","","image-button-response","80","1096036","0.0-12.0-1.0-2.7","5091CD0D95D34F4AAE522F2E8FE43010","5091CD0D95D34F4AAE522F2E8FE43010","6b002d3f-c08c-41e8-8863-fb9c3c6817b3","a0a8f18c-a66e-4ba7-a170-23efbdc67501","{""participantId"":""5091CD0D95D34F4AAE522F2E8FE43010"",""assignmentId"":""6b002d3f-c08c-41e8-8863-fb9c3c6817b3"",""projectId"":""a0a8f18c-a66e-4ba7-a170-23efbdc67501""}","https://test12345.live/?participantId=5091CD0D95D34F4AAE522F2E8FE43010&assignmentId=6b002d3f-c08c-41e8-8863-fb9c3c6817b3&projectId=a0a8f18c-a66e-4ba7-a170-23efbdc67501","5091CD0D95D34F4AAE522F2E8FE43010-2024-11-24-18-59-30","","null","","[]","null","",""
"","","","","","image-button-response","81","1100541","0.0-12.0-1.0-0.8","5091CD0D95D34F4AAE522F2E8FE43010","5091CD0D95D34F4AAE522F2E8FE43010","6b002d3f-c08c-41e8-8863-fb9c3c6817b3","a0a8f18c-a66e-4ba7-a170-23efbdc67501","{""participantId"":""5091CD0D95D34F4AAE522F2E8FE43010"",""assignmentId"":""6b002d3f-c08c-41e8-8863-fb9c3c6817b3"",""projectId"":""a0a8f18c-a66e-4ba7-a170-23efbdc67501""}","https://test12345.live/?participantId=5091CD0D95D34F4AAE522F2E8FE43010&assignmentId=6b002d3f-c08c-41e8-8863-fb9c3c6817b3&projectId=a0a8f18c-a66e-4ba7-a170-23efbdc67501","5091CD0D95D34F4AAE522F2E8FE43010-2024-11-24-18-59-30","","null","","images/causal_sequence/museum_causal/museum_causal_9.png","null","",""
"","","","","","image-button-response","82","1102164","0.0-12.0-1.0-1.8","5091CD0D95D34F4AAE522F2E8FE43010","5091CD0D95D34F4AAE522F2E8FE43010","6b002d3f-c08c-41e8-8863-fb9c3c6817b3","a0a8f18c-a66e-4ba7-a170-23efbdc67501","{""participantId"":""5091CD0D95D34F4AAE522F2E8FE43010"",""assignmentId"":""6b002d3f-c08c-41e8-8863-fb9c3c6817b3"",""projectId"":""a0a8f18c-a66e-4ba7-a170-23efbdc67501""}","https://test12345.live/?participantId=5091CD0D95D34F4AAE522F2E8FE43010&assignmentId=6b002d3f-c08c-41e8-8863-fb9c3c6817b3&projectId=a0a8f18c-a66e-4ba7-a170-23efbdc67501","5091CD0D95D34F4AAE522F2E8FE43010-2024-11-24-18-59-30","","1622","","images/causal_sequence/museum_causal/museum_causal_9.png","1","",""
"","","","","","image-button-response","83","1103966","0.0-12.0-1.0-2.8","5091CD0D95D34F4AAE522F2E8FE43010","5091CD0D95D34F4AAE522F2E8FE43010","6b002d3f-c08c-41e8-8863-fb9c3c6817b3","a0a8f18c-a66e-4ba7-a170-23efbdc67501","{""participantId"":""5091CD0D95D34F4AAE522F2E8FE43010"",""assignmentId"":""6b002d3f-c08c-41e8-8863-fb9c3c6817b3"",""projectId"":""a0a8f18c-a66e-4ba7-a170-23efbdc67501""}","https://test12345.live/?participantId=5091CD0D95D34F4AAE522F2E8FE43010&assignmentId=6b002d3f-c08c-41e8-8863-fb9c3c6817b3&projectId=a0a8f18c-a66e-4ba7-a170-23efbdc67501","5091CD0D95D34F4AAE522F2E8FE43010-2024-11-24-18-59-30","","null","","[]","null","",""
"","","","","","image-button-response","84","1108474","0.0-12.0-1.0-0.9","5091CD0D95D34F4AAE522F2E8FE43010","5091CD0D95D34F4AAE522F2E8FE43010","6b002d3f-c08c-41e8-8863-fb9c3c6817b3","a0a8f18c-a66e-4ba7-a170-23efbdc67501","{""participantId"":""5091CD0D95D34F4AAE522F2E8FE43010"",""assignmentId"":""6b002d3f-c08c-41e8-8863-fb9c3c6817b3"",""projectId"":""a0a8f18c-a66e-4ba7-a170-23efbdc67501""}","https://test12345.live/?participantId=5091CD0D95D34F4AAE522F2E8FE43010&assignmentId=6b002d3f-c08c-41e8-8863-fb9c3c6817b3&projectId=a0a8f18c-a66e-4ba7-a170-23efbdc67501","5091CD0D95D34F4AAE522F2E8FE43010-2024-11-24-18-59-30","","null","","images/causal_sequence/museum_causal/museum_causal_ten.png","null","",""
"","","","","","image-button-response","85","1110108","0.0-12.0-1.0-1.9","5091CD0D95D34F4AAE522F2E8FE43010","5091CD0D95D34F4AAE522F2E8FE43010","6b002d3f-c08c-41e8-8863-fb9c3c6817b3","a0a8f18c-a66e-4ba7-a170-23efbdc67501","{""participantId"":""5091CD0D95D34F4AAE522F2E8FE43010"",""assignmentId"":""6b002d3f-c08c-41e8-8863-fb9c3c6817b3"",""projectId"":""a0a8f18c-a66e-4ba7-a170-23efbdc67501""}","https://test12345.live/?participantId=5091CD0D95D34F4AAE522F2E8FE43010&assignmentId=6b002d3f-c08c-41e8-8863-fb9c3c6817b3&projectId=a0a8f18c-a66e-4ba7-a170-23efbdc67501","5091CD0D95D34F4AAE522F2E8FE43010-2024-11-24-18-59-30","","1632","","images/causal_sequence/museum_causal/museum_causal_ten.png","0","",""
"","","","","","image-button-response","86","1111916","0.0-12.0-1.0-2.9","5091CD0D95D34F4AAE522F2E8FE43010","5091CD0D95D34F4AAE522F2E8FE43010","6b002d3f-c08c-41e8-8863-fb9c3c6817b3","a0a8f18c-a66e-4ba7-a170-23efbdc67501","{""participantId"":""5091CD0D95D34F4AAE522F2E8FE43010"",""assignmentId"":""6b002d3f-c08c-41e8-8863-fb9c3c6817b3"",""projectId"":""a0a8f18c-a66e-4ba7-a170-23efbdc67501""}","https://test12345.live/?participantId=5091CD0D95D34F4AAE522F2E8FE43010&assignmentId=6b002d3f-c08c-41e8-8863-fb9c3c6817b3&projectId=a0a8f18c-a66e-4ba7-a170-23efbdc67501","5091CD0D95D34F4AAE522F2E8FE43010-2024-11-24-18-59-30","","null","","[]","null","",""
"","","","","","html-audio-response","87","1183679","0.0-13.0","5091CD0D95D34F4AAE522F2E8FE43010","5091CD0D95D34F4AAE522F2E8FE43010","6b002d3f-c08c-41e8-8863-fb9c3c6817b3","a0a8f18c-a66e-4ba7-a170-23efbdc67501","{""participantId"":""5091CD0D95D34F4AAE522F2E8FE43010"",""assignmentId"":""6b002d3f-c08c-41e8-8863-fb9c3c6817b3"",""projectId"":""a0a8f18c-a66e-4ba7-a170-23efbdc67501""}","https://test12345.live/?participantId=5091CD0D95D34F4AAE522F2E8FE43010&assignmentId=6b002d3f-c08c-41e8-8863-fb9c3c6817b3&projectId=a0a8f18c-a66e-4ba7-a170-23efbdc67501","5091CD0D95D34F4AAE522F2E8FE43010-2024-11-24-18-59-30","","29178","","[""<span style=\""color: red; font-size: 24px\""> NOW RECORDING</span><p>Please say out loud all the images you saw, as many as you can remember. The images can be said in any order.</p>""]","","2","museum_causal"
"","","","","","image-button-response","88","1189700","0.0-14.0-0.0","5091CD0D95D34F4AAE522F2E8FE43010","5091CD0D95D34F4AAE522F2E8FE43010","6b002d3f-c08c-41e8-8863-fb9c3c6817b3","a0a8f18c-a66e-4ba7-a170-23efbdc67501","{""participantId"":""5091CD0D95D34F4AAE522F2E8FE43010"",""assignmentId"":""6b002d3f-c08c-41e8-8863-fb9c3c6817b3"",""projectId"":""a0a8f18c-a66e-4ba7-a170-23efbdc67501""}","https://test12345.live/?participantId=5091CD0D95D34F4AAE522F2E8FE43010&assignmentId=6b002d3f-c08c-41e8-8863-fb9c3c6817b3&projectId=a0a8f18c-a66e-4ba7-a170-23efbdc67501","5091CD0D95D34F4AAE522F2E8FE43010-2024-11-24-18-59-30","","null","","images/semantic_sequence/physical_activity_semantic/physical_activity_semantic_0.png","null","",""
"","","","","","image-button-response","89","1194208","0.0-14.0-1.0-0.0","5091CD0D95D34F4AAE522F2E8FE43010","5091CD0D95D34F4AAE522F2E8FE43010","6b002d3f-c08c-41e8-8863-fb9c3c6817b3","a0a8f18c-a66e-4ba7-a170-23efbdc67501","{""participantId"":""5091CD0D95D34F4AAE522F2E8FE43010"",""assignmentId"":""6b002d3f-c08c-41e8-8863-fb9c3c6817b3"",""projectId"":""a0a8f18c-a66e-4ba7-a170-23efbdc67501""}","https://test12345.live/?participantId=5091CD0D95D34F4AAE522F2E8FE43010&assignmentId=6b002d3f-c08c-41e8-8863-fb9c3c6817b3&projectId=a0a8f18c-a66e-4ba7-a170-23efbdc67501","5091CD0D95D34F4AAE522F2E8FE43010-2024-11-24-18-59-30","","null","","images/semantic_sequence/physical_activity_semantic/physical_activity_semantic_1.png","null","",""
"","","","","","image-button-response","90","1196446","0.0-14.0-1.0-1.0","5091CD0D95D34F4AAE522F2E8FE43010","5091CD0D95D34F4AAE522F2E8FE43010","6b002d3f-c08c-41e8-8863-fb9c3c6817b3","a0a8f18c-a66e-4ba7-a170-23efbdc67501","{""participantId"":""5091CD0D95D34F4AAE522F2E8FE43010"",""assignmentId"":""6b002d3f-c08c-41e8-8863-fb9c3c6817b3"",""projectId"":""a0a8f18c-a66e-4ba7-a170-23efbdc67501""}","https://test12345.live/?participantId=5091CD0D95D34F4AAE522F2E8FE43010&assignmentId=6b002d3f-c08c-41e8-8863-fb9c3c6817b3&projectId=a0a8f18c-a66e-4ba7-a170-23efbdc67501","5091CD0D95D34F4AAE522F2E8FE43010-2024-11-24-18-59-30","","2236","","images/semantic_sequence/physical_activity_semantic/physical_activity_semantic_1.png","0","",""
"","","","","","image-button-response","91","1198257","0.0-14.0-1.0-2.0","5091CD0D95D34F4AAE522F2E8FE43010","5091CD0D95D34F4AAE522F2E8FE43010","6b002d3f-c08c-41e8-8863-fb9c3c6817b3","a0a8f18c-a66e-4ba7-a170-23efbdc67501","{""participantId"":""5091CD0D95D34F4AAE522F2E8FE43010"",""assignmentId"":""6b002d3f-c08c-41e8-8863-fb9c3c6817b3"",""projectId"":""a0a8f18c-a66e-4ba7-a170-23efbdc67501""}","https://test12345.live/?participantId=5091CD0D95D34F4AAE522F2E8FE43010&assignmentId=6b002d3f-c08c-41e8-8863-fb9c3c6817b3&projectId=a0a8f18c-a66e-4ba7-a170-23efbdc67501","5091CD0D95D34F4AAE522F2E8FE43010-2024-11-24-18-59-30","","null","","[]","null","",""
"","","","","","image-button-response","92","1202768","0.0-14.0-1.0-0.1","5091CD0D95D34F4AAE522F2E8FE43010","5091CD0D95D34F4AAE522F2E8FE43010","6b002d3f-c08c-41e8-8863-fb9c3c6817b3","a0a8f18c-a66e-4ba7-a170-23efbdc67501","{""participantId"":""5091CD0D95D34F4AAE522F2E8FE43010"",""assignmentId"":""6b002d3f-c08c-41e8-8863-fb9c3c6817b3"",""projectId"":""a0a8f18c-a66e-4ba7-a170-23efbdc67501""}","https://test12345.live/?participantId=5091CD0D95D34F4AAE522F2E8FE43010&assignmentId=6b002d3f-c08c-41e8-8863-fb9c3c6817b3&projectId=a0a8f18c-a66e-4ba7-a170-23efbdc67501","5091CD0D95D34F4AAE522F2E8FE43010-2024-11-24-18-59-30","","null","","images/semantic_sequence/physical_activity_semantic/physical_activity_semantic_2.png","null","",""
"","","","","","image-button-response","93","1203976","0.0-14.0-1.0-1.1","5091CD0D95D34F4AAE522F2E8FE43010","5091CD0D95D34F4AAE522F2E8FE43010","6b002d3f-c08c-41e8-8863-fb9c3c6817b3","a0a8f18c-a66e-4ba7-a170-23efbdc67501","{""participantId"":""5091CD0D95D34F4AAE522F2E8FE43010"",""assignmentId"":""6b002d3f-c08c-41e8-8863-fb9c3c6817b3"",""projectId"":""a0a8f18c-a66e-4ba7-a170-23efbdc67501""}","https://test12345.live/?participantId=5091CD0D95D34F4AAE522F2E8FE43010&assignmentId=6b002d3f-c08c-41e8-8863-fb9c3c6817b3&projectId=a0a8f18c-a66e-4ba7-a170-23efbdc67501","5091CD0D95D34F4AAE522F2E8FE43010-2024-11-24-18-59-30","","1207","","images/semantic_sequence/physical_activity_semantic/physical_activity_semantic_2.png","0","",""
"","","","","","image-button-response","94","1205791","0.0-14.0-1.0-2.1","5091CD0D95D34F4AAE522F2E8FE43010","5091CD0D95D34F4AAE522F2E8FE43010","6b002d3f-c08c-41e8-8863-fb9c3c6817b3","a0a8f18c-a66e-4ba7-a170-23efbdc67501","{""participantId"":""5091CD0D95D34F4AAE522F2E8FE43010"",""assignmentId"":""6b002d3f-c08c-41e8-8863-fb9c3c6817b3"",""projectId"":""a0a8f18c-a66e-4ba7-a170-23efbdc67501""}","https://test12345.live/?participantId=5091CD0D95D34F4AAE522F2E8FE43010&assignmentId=6b002d3f-c08c-41e8-8863-fb9c3c6817b3&projectId=a0a8f18c-a66e-4ba7-a170-23efbdc67501","5091CD0D95D34F4AAE522F2E8FE43010-2024-11-24-18-59-30","","null","","[]","null","",""
"","","","","","image-button-response","95","1210294","0.0-14.0-1.0-0.2","5091CD0D95D34F4AAE522F2E8FE43010","5091CD0D95D34F4AAE522F2E8FE43010","6b002d3f-c08c-41e8-8863-fb9c3c6817b3","a0a8f18c-a66e-4ba7-a170-23efbdc67501","{""participantId"":""5091CD0D95D34F4AAE522F2E8FE43010"",""assignmentId"":""6b002d3f-c08c-41e8-8863-fb9c3c6817b3"",""projectId"":""a0a8f18c-a66e-4ba7-a170-23efbdc67501""}","https://test12345.live/?participantId=5091CD0D95D34F4AAE522F2E8FE43010&assignmentId=6b002d3f-c08c-41e8-8863-fb9c3c6817b3&projectId=a0a8f18c-a66e-4ba7-a170-23efbdc67501","5091CD0D95D34F4AAE522F2E8FE43010-2024-11-24-18-59-30","","null","","images/semantic_sequence/physical_activity_semantic/physical_activity_semantic_3.png","null","",""
"","","","","","image-button-response","96","1212690","0.0-14.0-1.0-1.2","5091CD0D95D34F4AAE522F2E8FE43010","5091CD0D95D34F4AAE522F2E8FE43010","6b002d3f-c08c-41e8-8863-fb9c3c6817b3","a0a8f18c-a66e-4ba7-a170-23efbdc67501","{""participantId"":""5091CD0D95D34F4AAE522F2E8FE43010"",""assignmentId"":""6b002d3f-c08c-41e8-8863-fb9c3c6817b3"",""projectId"":""a0a8f18c-a66e-4ba7-a170-23efbdc67501""}","https://test12345.live/?participantId=5091CD0D95D34F4AAE522F2E8FE43010&assignmentId=6b002d3f-c08c-41e8-8863-fb9c3c6817b3&projectId=a0a8f18c-a66e-4ba7-a170-23efbdc67501","5091CD0D95D34F4AAE522F2E8FE43010-2024-11-24-18-59-30","","2395","","images/semantic_sequence/physical_activity_semantic/physical_activity_semantic_3.png","0","",""
"","","","","","image-button-response","97","1214506","0.0-14.0-1.0-2.2","5091CD0D95D34F4AAE522F2E8FE43010","5091CD0D95D34F4AAE522F2E8FE43010","6b002d3f-c08c-41e8-8863-fb9c3c6817b3","a0a8f18c-a66e-4ba7-a170-23efbdc67501","{""participantId"":""5091CD0D95D34F4AAE522F2E8FE43010"",""assignmentId"":""6b002d3f-c08c-41e8-8863-fb9c3c6817b3"",""projectId"":""a0a8f18c-a66e-4ba7-a170-23efbdc67501""}","https://test12345.live/?participantId=5091CD0D95D34F4AAE522F2E8FE43010&assignmentId=6b002d3f-c08c-41e8-8863-fb9c3c6817b3&projectId=a0a8f18c-a66e-4ba7-a170-23efbdc67501","5091CD0D95D34F4AAE522F2E8FE43010-2024-11-24-18-59-30","","null","","[]","null","",""
"","","","","","image-button-response","98","1219014","0.0-14.0-1.0-0.3","5091CD0D95D34F4AAE522F2E8FE43010","5091CD0D95D34F4AAE522F2E8FE43010","6b002d3f-c08c-41e8-8863-fb9c3c6817b3","a0a8f18c-a66e-4ba7-a170-23efbdc67501","{""participantId"":""5091CD0D95D34F4AAE522F2E8FE43010"",""assignmentId"":""6b002d3f-c08c-41e8-8863-fb9c3c6817b3"",""projectId"":""a0a8f18c-a66e-4ba7-a170-23efbdc67501""}","https://test12345.live/?participantId=5091CD0D95D34F4AAE522F2E8FE43010&assignmentId=6b002d3f-c08c-41e8-8863-fb9c3c6817b3&projectId=a0a8f18c-a66e-4ba7-a170-23efbdc67501","5091CD0D95D34F4AAE522F2E8FE43010-2024-11-24-18-59-30","","null","","images/semantic_sequence/physical_activity_semantic/physical_activity_semantic_4.png","null","",""
"","","","","","image-button-response","99","1220059","0.0-14.0-1.0-1.3","5091CD0D95D34F4AAE522F2E8FE43010","5091CD0D95D34F4AAE522F2E8FE43010","6b002d3f-c08c-41e8-8863-fb9c3c6817b3","a0a8f18c-a66e-4ba7-a170-23efbdc67501","{""participantId"":""5091CD0D95D34F4AAE522F2E8FE43010"",""assignmentId"":""6b002d3f-c08c-41e8-8863-fb9c3c6817b3"",""projectId"":""a0a8f18c-a66e-4ba7-a170-23efbdc67501""}","https://test12345.live/?participantId=5091CD0D95D34F4AAE522F2E8FE43010&assignmentId=6b002d3f-c08c-41e8-8863-fb9c3c6817b3&projectId=a0a8f18c-a66e-4ba7-a170-23efbdc67501","5091CD0D95D34F4AAE522F2E8FE43010-2024-11-24-18-59-30","","1044","","images/semantic_sequence/physical_activity_semantic/physical_activity_semantic_4.png","0","",""
"","","","","","image-button-response","100","1221861","0.0-14.0-1.0-2.3","5091CD0D95D34F4AAE522F2E8FE43010","5091CD0D95D34F4AAE522F2E8FE43010","6b002d3f-c08c-41e8-8863-fb9c3c6817b3","a0a8f18c-a66e-4ba7-a170-23efbdc67501","{""participantId"":""5091CD0D95D34F4AAE522F2E8FE43010"",""assignmentId"":""6b002d3f-c08c-41e8-8863-fb9c3c6817b3"",""projectId"":""a0a8f18c-a66e-4ba7-a170-23efbdc67501""}","https://test12345.live/?participantId=5091CD0D95D34F4AAE522F2E8FE43010&assignmentId=6b002d3f-c08c-41e8-8863-fb9c3c6817b3&projectId=a0a8f18c-a66e-4ba7-a170-23efbdc67501","5091CD0D95D34F4AAE522F2E8FE43010-2024-11-24-18-59-30","","null","","[]","null","",""
"","","","","","image-button-response","101","1226365","0.0-14.0-1.0-0.4","5091CD0D95D34F4AAE522F2E8FE43010","5091CD0D95D34F4AAE522F2E8FE43010","6b002d3f-c08c-41e8-8863-fb9c3c6817b3","a0a8f18c-a66e-4ba7-a170-23efbdc67501","{""participantId"":""5091CD0D95D34F4AAE522F2E8FE43010"",""assignmentId"":""6b002d3f-c08c-41e8-8863-fb9c3c6817b3"",""projectId"":""a0a8f18c-a66e-4ba7-a170-23efbdc67501""}","https://test12345.live/?participantId=5091CD0D95D34F4AAE522F2E8FE43010&assignmentId=6b002d3f-c08c-41e8-8863-fb9c3c6817b3&projectId=a0a8f18c-a66e-4ba7-a170-23efbdc67501","5091CD0D95D34F4AAE522F2E8FE43010-2024-11-24-18-59-30","","null","","images/semantic_sequence/physical_activity_semantic/physical_activity_semantic_5.png","null","",""
"","","","","","image-button-response","102","1227639","0.0-14.0-1.0-1.4","5091CD0D95D34F4AAE522F2E8FE43010","5091CD0D95D34F4AAE522F2E8FE43010","6b002d3f-c08c-41e8-8863-fb9c3c6817b3","a0a8f18c-a66e-4ba7-a170-23efbdc67501","{""participantId"":""5091CD0D95D34F4AAE522F2E8FE43010"",""assignmentId"":""6b002d3f-c08c-41e8-8863-fb9c3c6817b3"",""projectId"":""a0a8f18c-a66e-4ba7-a170-23efbdc67501""}","https://test12345.live/?participantId=5091CD0D95D34F4AAE522F2E8FE43010&assignmentId=6b002d3f-c08c-41e8-8863-fb9c3c6817b3&projectId=a0a8f18c-a66e-4ba7-a170-23efbdc67501","5091CD0D95D34F4AAE522F2E8FE43010-2024-11-24-18-59-30","","1273","","images/semantic_sequence/physical_activity_semantic/physical_activity_semantic_5.png","0","",""
"","","","","","image-button-response","103","1229451","0.0-14.0-1.0-2.4","5091CD0D95D34F4AAE522F2E8FE43010","5091CD0D95D34F4AAE522F2E8FE43010","6b002d3f-c08c-41e8-8863-fb9c3c6817b3","a0a8f18c-a66e-4ba7-a170-23efbdc67501","{""participantId"":""5091CD0D95D34F4AAE522F2E8FE43010"",""assignmentId"":""6b002d3f-c08c-41e8-8863-fb9c3c6817b3"",""projectId"":""a0a8f18c-a66e-4ba7-a170-23efbdc67501""}","https://test12345.live/?participantId=5091CD0D95D34F4AAE522F2E8FE43010&assignmentId=6b002d3f-c08c-41e8-8863-fb9c3c6817b3&projectId=a0a8f18c-a66e-4ba7-a170-23efbdc67501","5091CD0D95D34F4AAE522F2E8FE43010-2024-11-24-18-59-30","","null","","[]","null","",""
"","","","","","image-button-response","104","1233953","0.0-14.0-1.0-0.5","5091CD0D95D34F4AAE522F2E8FE43010","5091CD0D95D34F4AAE522F2E8FE43010","6b002d3f-c08c-41e8-8863-fb9c3c6817b3","a0a8f18c-a66e-4ba7-a170-23efbdc67501","{""participantId"":""5091CD0D95D34F4AAE522F2E8FE43010"",""assignmentId"":""6b002d3f-c08c-41e8-8863-fb9c3c6817b3"",""projectId"":""a0a8f18c-a66e-4ba7-a170-23efbdc67501""}","https://test12345.live/?participantId=5091CD0D95D34F4AAE522F2E8FE43010&assignmentId=6b002d3f-c08c-41e8-8863-fb9c3c6817b3&projectId=a0a8f18c-a66e-4ba7-a170-23efbdc67501","5091CD0D95D34F4AAE522F2E8FE43010-2024-11-24-18-59-30","","null","","images/semantic_sequence/physical_activity_semantic/physical_activity_semantic_6.png","null","",""
"","","","","","image-button-response","105","1234929","0.0-14.0-1.0-1.5","5091CD0D95D34F4AAE522F2E8FE43010","5091CD0D95D34F4AAE522F2E8FE43010","6b002d3f-c08c-41e8-8863-fb9c3c6817b3","a0a8f18c-a66e-4ba7-a170-23efbdc67501","{""participantId"":""5091CD0D95D34F4AAE522F2E8FE43010"",""assignmentId"":""6b002d3f-c08c-41e8-8863-fb9c3c6817b3"",""projectId"":""a0a8f18c-a66e-4ba7-a170-23efbdc67501""}","https://test12345.live/?participantId=5091CD0D95D34F4AAE522F2E8FE43010&assignmentId=6b002d3f-c08c-41e8-8863-fb9c3c6817b3&projectId=a0a8f18c-a66e-4ba7-a170-23efbdc67501","5091CD0D95D34F4AAE522F2E8FE43010-2024-11-24-18-59-30","","975","","images/semantic_sequence/physical_activity_semantic/physical_activity_semantic_6.png","0","",""
"","","","","","image-button-response","106","1236743","0.0-14.0-1.0-2.5","5091CD0D95D34F4AAE522F2E8FE43010","5091CD0D95D34F4AAE522F2E8FE43010","6b002d3f-c08c-41e8-8863-fb9c3c6817b3","a0a8f18c-a66e-4ba7-a170-23efbdc67501","{""participantId"":""5091CD0D95D34F4AAE522F2E8FE43010"",""assignmentId"":""6b002d3f-c08c-41e8-8863-fb9c3c6817b3"",""projectId"":""a0a8f18c-a66e-4ba7-a170-23efbdc67501""}","https://test12345.live/?participantId=5091CD0D95D34F4AAE522F2E8FE43010&assignmentId=6b002d3f-c08c-41e8-8863-fb9c3c6817b3&projectId=a0a8f18c-a66e-4ba7-a170-23efbdc67501","5091CD0D95D34F4AAE522F2E8FE43010-2024-11-24-18-59-30","","null","","[]","null","",""
"","","","","","image-button-response","107","1241255","0.0-14.0-1.0-0.6","5091CD0D95D34F4AAE522F2E8FE43010","5091CD0D95D34F4AAE522F2E8FE43010","6b002d3f-c08c-41e8-8863-fb9c3c6817b3","a0a8f18c-a66e-4ba7-a170-23efbdc67501","{""participantId"":""5091CD0D95D34F4AAE522F2E8FE43010"",""assignmentId"":""6b002d3f-c08c-41e8-8863-fb9c3c6817b3"",""projectId"":""a0a8f18c-a66e-4ba7-a170-23efbdc67501""}","https://test12345.live/?participantId=5091CD0D95D34F4AAE522F2E8FE43010&assignmentId=6b002d3f-c08c-41e8-8863-fb9c3c6817b3&projectId=a0a8f18c-a66e-4ba7-a170-23efbdc67501","5091CD0D95D34F4AAE522F2E8FE43010-2024-11-24-18-59-30","","null","","images/semantic_sequence/physical_activity_semantic/physical_activity_semantic_7.png","null","",""
"","","","","","image-button-response","108","1242714","0.0-14.0-1.0-1.6","5091CD0D95D34F4AAE522F2E8FE43010","5091CD0D95D34F4AAE522F2E8FE43010","6b002d3f-c08c-41e8-8863-fb9c3c6817b3","a0a8f18c-a66e-4ba7-a170-23efbdc67501","{""participantId"":""5091CD0D95D34F4AAE522F2E8FE43010"",""assignmentId"":""6b002d3f-c08c-41e8-8863-fb9c3c6817b3"",""projectId"":""a0a8f18c-a66e-4ba7-a170-23efbdc67501""}","https://test12345.live/?participantId=5091CD0D95D34F4AAE522F2E8FE43010&assignmentId=6b002d3f-c08c-41e8-8863-fb9c3c6817b3&projectId=a0a8f18c-a66e-4ba7-a170-23efbdc67501","5091CD0D95D34F4AAE522F2E8FE43010-2024-11-24-18-59-30","","1457","","images/semantic_sequence/physical_activity_semantic/physical_activity_semantic_7.png","0","",""
"","","","","","image-button-response","109","1244523","0.0-14.0-1.0-2.6","5091CD0D95D34F4AAE522F2E8FE43010","5091CD0D95D34F4AAE522F2E8FE43010","6b002d3f-c08c-41e8-8863-fb9c3c6817b3","a0a8f18c-a66e-4ba7-a170-23efbdc67501","{""participantId"":""5091CD0D95D34F4AAE522F2E8FE43010"",""assignmentId"":""6b002d3f-c08c-41e8-8863-fb9c3c6817b3"",""projectId"":""a0a8f18c-a66e-4ba7-a170-23efbdc67501""}","https://test12345.live/?participantId=5091CD0D95D34F4AAE522F2E8FE43010&assignmentId=6b002d3f-c08c-41e8-8863-fb9c3c6817b3&projectId=a0a8f18c-a66e-4ba7-a170-23efbdc67501","5091CD0D95D34F4AAE522F2E8FE43010-2024-11-24-18-59-30","","null","","[]","null","",""
"","","","","","image-button-response","110","1249024","0.0-14.0-1.0-0.7","5091CD0D95D34F4AAE522F2E8FE43010","5091CD0D95D34F4AAE522F2E8FE43010","6b002d3f-c08c-41e8-8863-fb9c3c6817b3","a0a8f18c-a66e-4ba7-a170-23efbdc67501","{""participantId"":""5091CD0D95D34F4AAE522F2E8FE43010"",""assignmentId"":""6b002d3f-c08c-41e8-8863-fb9c3c6817b3"",""projectId"":""a0a8f18c-a66e-4ba7-a170-23efbdc67501""}","https://test12345.live/?participantId=5091CD0D95D34F4AAE522F2E8FE43010&assignmentId=6b002d3f-c08c-41e8-8863-fb9c3c6817b3&projectId=a0a8f18c-a66e-4ba7-a170-23efbdc67501","5091CD0D95D34F4AAE522F2E8FE43010-2024-11-24-18-59-30","","null","","images/semantic_sequence/physical_activity_semantic/physical_activity_semantic_8.png","null","",""
"","","","","","image-button-response","111","1253037","0.0-14.0-1.0-1.7","5091CD0D95D34F4AAE522F2E8FE43010","5091CD0D95D34F4AAE522F2E8FE43010","6b002d3f-c08c-41e8-8863-fb9c3c6817b3","a0a8f18c-a66e-4ba7-a170-23efbdc67501","{""participantId"":""5091CD0D95D34F4AAE522F2E8FE43010"",""assignmentId"":""6b002d3f-c08c-41e8-8863-fb9c3c6817b3"",""projectId"":""a0a8f18c-a66e-4ba7-a170-23efbdc67501""}","https://test12345.live/?participantId=5091CD0D95D34F4AAE522F2E8FE43010&assignmentId=6b002d3f-c08c-41e8-8863-fb9c3c6817b3&projectId=a0a8f18c-a66e-4ba7-a170-23efbdc67501","5091CD0D95D34F4AAE522F2E8FE43010-2024-11-24-18-59-30","","null","","images/semantic_sequence/physical_activity_semantic/physical_activity_semantic_8.png","null","",""
"","","","","","image-button-response","112","1254850","0.0-14.0-1.0-2.7","5091CD0D95D34F4AAE522F2E8FE43010","5091CD0D95D34F4AAE522F2E8FE43010","6b002d3f-c08c-41e8-8863-fb9c3c6817b3","a0a8f18c-a66e-4ba7-a170-23efbdc67501","{""participantId"":""5091CD0D95D34F4AAE522F2E8FE43010"",""assignmentId"":""6b002d3f-c08c-41e8-8863-fb9c3c6817b3"",""projectId"":""a0a8f18c-a66e-4ba7-a170-23efbdc67501""}","https://test12345.live/?participantId=5091CD0D95D34F4AAE522F2E8FE43010&assignmentId=6b002d3f-c08c-41e8-8863-fb9c3c6817b3&projectId=a0a8f18c-a66e-4ba7-a170-23efbdc67501","5091CD0D95D34F4AAE522F2E8FE43010-2024-11-24-18-59-30","","null","","[]","null","",""
"","","","","","image-button-response","113","1259351","0.0-14.0-1.0-0.8","5091CD0D95D34F4AAE522F2E8FE43010","5091CD0D95D34F4AAE522F2E8FE43010","6b002d3f-c08c-41e8-8863-fb9c3c6817b3","a0a8f18c-a66e-4ba7-a170-23efbdc67501","{""participantId"":""5091CD0D95D34F4AAE522F2E8FE43010"",""assignmentId"":""6b002d3f-c08c-41e8-8863-fb9c3c6817b3"",""projectId"":""a0a8f18c-a66e-4ba7-a170-23efbdc67501""}","https://test12345.live/?participantId=5091CD0D95D34F4AAE522F2E8FE43010&assignmentId=6b002d3f-c08c-41e8-8863-fb9c3c6817b3&projectId=a0a8f18c-a66e-4ba7-a170-23efbdc67501","5091CD0D95D34F4AAE522F2E8FE43010-2024-11-24-18-59-30","","null","","images/semantic_sequence/physical_activity_semantic/physical_activity_semantic_9.png","null","",""
"","","","","","image-button-response","114","1260561","0.0-14.0-1.0-1.8","5091CD0D95D34F4AAE522F2E8FE43010","5091CD0D95D34F4AAE522F2E8FE43010","6b002d3f-c08c-41e8-8863-fb9c3c6817b3","a0a8f18c-a66e-4ba7-a170-23efbdc67501","{""participantId"":""5091CD0D95D34F4AAE522F2E8FE43010"",""assignmentId"":""6b002d3f-c08c-41e8-8863-fb9c3c6817b3"",""projectId"":""a0a8f18c-a66e-4ba7-a170-23efbdc67501""}","https://test12345.live/?participantId=5091CD0D95D34F4AAE522F2E8FE43010&assignmentId=6b002d3f-c08c-41e8-8863-fb9c3c6817b3&projectId=a0a8f18c-a66e-4ba7-a170-23efbdc67501","5091CD0D95D34F4AAE522F2E8FE43010-2024-11-24-18-59-30","","1209","","images/semantic_sequence/physical_activity_semantic/physical_activity_semantic_9.png","0","",""
"","","","","","image-button-response","115","1262374","0.0-14.0-1.0-2.8","5091CD0D95D34F4AAE522F2E8FE43010","5091CD0D95D34F4AAE522F2E8FE43010","6b002d3f-c08c-41e8-8863-fb9c3c6817b3","a0a8f18c-a66e-4ba7-a170-23efbdc67501","{""participantId"":""5091CD0D95D34F4AAE522F2E8FE43010"",""assignmentId"":""6b002d3f-c08c-41e8-8863-fb9c3c6817b3"",""projectId"":""a0a8f18c-a66e-4ba7-a170-23efbdc67501""}","https://test12345.live/?participantId=5091CD0D95D34F4AAE522F2E8FE43010&assignmentId=6b002d3f-c08c-41e8-8863-fb9c3c6817b3&projectId=a0a8f18c-a66e-4ba7-a170-23efbdc67501","5091CD0D95D34F4AAE522F2E8FE43010-2024-11-24-18-59-30","","null","","[]","null","",""
"","","","","","image-button-response","116","1266888","0.0-14.0-1.0-0.9","5091CD0D95D34F4AAE522F2E8FE43010","5091CD0D95D34F4AAE522F2E8FE43010","6b002d3f-c08c-41e8-8863-fb9c3c6817b3","a0a8f18c-a66e-4ba7-a170-23efbdc67501","{""participantId"":""5091CD0D95D34F4AAE522F2E8FE43010"",""assignmentId"":""6b002d3f-c08c-41e8-8863-fb9c3c6817b3"",""projectId"":""a0a8f18c-a66e-4ba7-a170-23efbdc67501""}","https://test12345.live/?participantId=5091CD0D95D34F4AAE522F2E8FE43010&assignmentId=6b002d3f-c08c-41e8-8863-fb9c3c6817b3&projectId=a0a8f18c-a66e-4ba7-a170-23efbdc67501","5091CD0D95D34F4AAE522F2E8FE43010-2024-11-24-18-59-30","","null","","images/semantic_sequence/physical_activity_semantic/physical_activity_semantic_ten.png","null","",""
"","","","","","image-button-response","117","1268361","0.0-14.0-1.0-1.9","5091CD0D95D34F4AAE522F2E8FE43010","5091CD0D95D34F4AAE522F2E8FE43010","6b002d3f-c08c-41e8-8863-fb9c3c6817b3","a0a8f18c-a66e-4ba7-a170-23efbdc67501","{""participantId"":""5091CD0D95D34F4AAE522F2E8FE43010"",""assignmentId"":""6b002d3f-c08c-41e8-8863-fb9c3c6817b3"",""projectId"":""a0a8f18c-a66e-4ba7-a170-23efbdc67501""}","https://test12345.live/?participantId=5091CD0D95D34F4AAE522F2E8FE43010&assignmentId=6b002d3f-c08c-41e8-8863-fb9c3c6817b3&projectId=a0a8f18c-a66e-4ba7-a170-23efbdc67501","5091CD0D95D34F4AAE522F2E8FE43010-2024-11-24-18-59-30","","1471","","images/semantic_sequence/physical_activity_semantic/physical_activity_semantic_ten.png","0","",""
"","","","","","image-button-response","118","1270177","0.0-14.0-1.0-2.9","5091CD0D95D34F4AAE522F2E8FE43010","5091CD0D95D34F4AAE522F2E8FE43010","6b002d3f-c08c-41e8-8863-fb9c3c6817b3","a0a8f18c-a66e-4ba7-a170-23efbdc67501","{""participantId"":""5091CD0D95D34F4AAE522F2E8FE43010"",""assignmentId"":""6b002d3f-c08c-41e8-8863-fb9c3c6817b3"",""projectId"":""a0a8f18c-a66e-4ba7-a170-23efbdc67501""}","https://test12345.live/?participantId=5091CD0D95D34F4AAE522F2E8FE43010&assignmentId=6b002d3f-c08c-41e8-8863-fb9c3c6817b3&projectId=a0a8f18c-a66e-4ba7-a170-23efbdc67501","5091CD0D95D34F4AAE522F2E8FE43010-2024-11-24-18-59-30","","null","","[]","null","",""
"","","","","","html-audio-response","119","1323692","0.0-15.0","5091CD0D95D34F4AAE522F2E8FE43010","5091CD0D95D34F4AAE522F2E8FE43010","6b002d3f-c08c-41e8-8863-fb9c3c6817b3","a0a8f18c-a66e-4ba7-a170-23efbdc67501","{""participantId"":""5091CD0D95D34F4AAE522F2E8FE43010"",""assignmentId"":""6b002d3f-c08c-41e8-8863-fb9c3c6817b3"",""projectId"":""a0a8f18c-a66e-4ba7-a170-23efbdc67501""}","https://test12345.live/?participantId=5091CD0D95D34F4AAE522F2E8FE43010&assignmentId=6b002d3f-c08c-41e8-8863-fb9c3c6817b3&projectId=a0a8f18c-a66e-4ba7-a170-23efbdc67501","5091CD0D95D34F4AAE522F2E8FE43010-2024-11-24-18-59-30","","18817","","[""<span style=\""color: red; font-size: 24px\""> NOW RECORDING</span><p>Please say out loud all the images you saw, as many as you can remember. The images can be said in any order.</p>""]","","1","physical_activity_semantic"
"","","","","","image-button-response","120","1329711","0.0-16.0-0.0","5091CD0D95D34F4AAE522F2E8FE43010","5091CD0D95D34F4AAE522F2E8FE43010","6b002d3f-c08c-41e8-8863-fb9c3c6817b3","a0a8f18c-a66e-4ba7-a170-23efbdc67501","{""participantId"":""5091CD0D95D34F4AAE522F2E8FE43010"",""assignmentId"":""6b002d3f-c08c-41e8-8863-fb9c3c6817b3"",""projectId"":""a0a8f18c-a66e-4ba7-a170-23efbdc67501""}","https://test12345.live/?participantId=5091CD0D95D34F4AAE522F2E8FE43010&assignmentId=6b002d3f-c08c-41e8-8863-fb9c3c6817b3&projectId=a0a8f18c-a66e-4ba7-a170-23efbdc67501","5091CD0D95D34F4AAE522F2E8FE43010-2024-11-24-18-59-30","","null","","images/schematic_sequence/flight_scheme/flight_scheme_0.png","null","",""
"","","","","","image-button-response","121","1334225","0.0-16.0-1.0-0.0","5091CD0D95D34F4AAE522F2E8FE43010","5091CD0D95D34F4AAE522F2E8FE43010","6b002d3f-c08c-41e8-8863-fb9c3c6817b3","a0a8f18c-a66e-4ba7-a170-23efbdc67501","{""participantId"":""5091CD0D95D34F4AAE522F2E8FE43010"",""assignmentId"":""6b002d3f-c08c-41e8-8863-fb9c3c6817b3"",""projectId"":""a0a8f18c-a66e-4ba7-a170-23efbdc67501""}","https://test12345.live/?participantId=5091CD0D95D34F4AAE522F2E8FE43010&assignmentId=6b002d3f-c08c-41e8-8863-fb9c3c6817b3&projectId=a0a8f18c-a66e-4ba7-a170-23efbdc67501","5091CD0D95D34F4AAE522F2E8FE43010-2024-11-24-18-59-30","","null","","images/schematic_sequence/flight_scheme/flight_scheme_1.png","null","",""
"","","","","","image-button-response","122","1337564","0.0-16.0-1.0-1.0","5091CD0D95D34F4AAE522F2E8FE43010","5091CD0D95D34F4AAE522F2E8FE43010","6b002d3f-c08c-41e8-8863-fb9c3c6817b3","a0a8f18c-a66e-4ba7-a170-23efbdc67501","{""participantId"":""5091CD0D95D34F4AAE522F2E8FE43010"",""assignmentId"":""6b002d3f-c08c-41e8-8863-fb9c3c6817b3"",""projectId"":""a0a8f18c-a66e-4ba7-a170-23efbdc67501""}","https://test12345.live/?participantId=5091CD0D95D34F4AAE522F2E8FE43010&assignmentId=6b002d3f-c08c-41e8-8863-fb9c3c6817b3&projectId=a0a8f18c-a66e-4ba7-a170-23efbdc67501","5091CD0D95D34F4AAE522F2E8FE43010-2024-11-24-18-59-30","","3338","","images/schematic_sequence/flight_scheme/flight_scheme_1.png","0","",""
"","","","","","image-button-response","123","1339378","0.0-16.0-1.0-2.0","5091CD0D95D34F4AAE522F2E8FE43010","5091CD0D95D34F4AAE522F2E8FE43010","6b002d3f-c08c-41e8-8863-fb9c3c6817b3","a0a8f18c-a66e-4ba7-a170-23efbdc67501","{""participantId"":""5091CD0D95D34F4AAE522F2E8FE43010"",""assignmentId"":""6b002d3f-c08c-41e8-8863-fb9c3c6817b3"",""projectId"":""a0a8f18c-a66e-4ba7-a170-23efbdc67501""}","https://test12345.live/?participantId=5091CD0D95D34F4AAE522F2E8FE43010&assignmentId=6b002d3f-c08c-41e8-8863-fb9c3c6817b3&projectId=a0a8f18c-a66e-4ba7-a170-23efbdc67501","5091CD0D95D34F4AAE522F2E8FE43010-2024-11-24-18-59-30","","null","","[]","null","",""
"","","","","","image-button-response","124","1343880","0.0-16.0-1.0-0.1","5091CD0D95D34F4AAE522F2E8FE43010","5091CD0D95D34F4AAE522F2E8FE43010","6b002d3f-c08c-41e8-8863-fb9c3c6817b3","a0a8f18c-a66e-4ba7-a170-23efbdc67501","{""participantId"":""5091CD0D95D34F4AAE522F2E8FE43010"",""assignmentId"":""6b002d3f-c08c-41e8-8863-fb9c3c6817b3"",""projectId"":""a0a8f18c-a66e-4ba7-a170-23efbdc67501""}","https://test12345.live/?participantId=5091CD0D95D34F4AAE522F2E8FE43010&assignmentId=6b002d3f-c08c-41e8-8863-fb9c3c6817b3&projectId=a0a8f18c-a66e-4ba7-a170-23efbdc67501","5091CD0D95D34F4AAE522F2E8FE43010-2024-11-24-18-59-30","","null","","images/schematic_sequence/flight_scheme/flight_scheme_2.png","null","",""
"","","","","","image-button-response","125","1345253","0.0-16.0-1.0-1.1","5091CD0D95D34F4AAE522F2E8FE43010","5091CD0D95D34F4AAE522F2E8FE43010","6b002d3f-c08c-41e8-8863-fb9c3c6817b3","a0a8f18c-a66e-4ba7-a170-23efbdc67501","{""participantId"":""5091CD0D95D34F4AAE522F2E8FE43010"",""assignmentId"":""6b002d3f-c08c-41e8-8863-fb9c3c6817b3"",""projectId"":""a0a8f18c-a66e-4ba7-a170-23efbdc67501""}","https://test12345.live/?participantId=5091CD0D95D34F4AAE522F2E8FE43010&assignmentId=6b002d3f-c08c-41e8-8863-fb9c3c6817b3&projectId=a0a8f18c-a66e-4ba7-a170-23efbdc67501","5091CD0D95D34F4AAE522F2E8FE43010-2024-11-24-18-59-30","","1372","","images/schematic_sequence/flight_scheme/flight_scheme_2.png","1","",""
"","","","","","image-button-response","126","1347062","0.0-16.0-1.0-2.1","5091CD0D95D34F4AAE522F2E8FE43010","5091CD0D95D34F4AAE522F2E8FE43010","6b002d3f-c08c-41e8-8863-fb9c3c6817b3","a0a8f18c-a66e-4ba7-a170-23efbdc67501","{""participantId"":""5091CD0D95D34F4AAE522F2E8FE43010"",""assignmentId"":""6b002d3f-c08c-41e8-8863-fb9c3c6817b3"",""projectId"":""a0a8f18c-a66e-4ba7-a170-23efbdc67501""}","https://test12345.live/?participantId=5091CD0D95D34F4AAE522F2E8FE43010&assignmentId=6b002d3f-c08c-41e8-8863-fb9c3c6817b3&projectId=a0a8f18c-a66e-4ba7-a170-23efbdc67501","5091CD0D95D34F4AAE522F2E8FE43010-2024-11-24-18-59-30","","null","","[]","null","",""
"","","","","","image-button-response","127","1351571","0.0-16.0-1.0-0.2","5091CD0D95D34F4AAE522F2E8FE43010","5091CD0D95D34F4AAE522F2E8FE43010","6b002d3f-c08c-41e8-8863-fb9c3c6817b3","a0a8f18c-a66e-4ba7-a170-23efbdc67501","{""participantId"":""5091CD0D95D34F4AAE522F2E8FE43010"",""assignmentId"":""6b002d3f-c08c-41e8-8863-fb9c3c6817b3"",""projectId"":""a0a8f18c-a66e-4ba7-a170-23efbdc67501""}","https://test12345.live/?participantId=5091CD0D95D34F4AAE522F2E8FE43010&assignmentId=6b002d3f-c08c-41e8-8863-fb9c3c6817b3&projectId=a0a8f18c-a66e-4ba7-a170-23efbdc67501","5091CD0D95D34F4AAE522F2E8FE43010-2024-11-24-18-59-30","","null","","images/schematic_sequence/flight_scheme/flight_scheme_6.png","null","",""
"","","","","","image-button-response","128","1353509","0.0-16.0-1.0-1.2","5091CD0D95D34F4AAE522F2E8FE43010","5091CD0D95D34F4AAE522F2E8FE43010","6b002d3f-c08c-41e8-8863-fb9c3c6817b3","a0a8f18c-a66e-4ba7-a170-23efbdc67501","{""participantId"":""5091CD0D95D34F4AAE522F2E8FE43010"",""assignmentId"":""6b002d3f-c08c-41e8-8863-fb9c3c6817b3"",""projectId"":""a0a8f18c-a66e-4ba7-a170-23efbdc67501""}","https://test12345.live/?participantId=5091CD0D95D34F4AAE522F2E8FE43010&assignmentId=6b002d3f-c08c-41e8-8863-fb9c3c6817b3&projectId=a0a8f18c-a66e-4ba7-a170-23efbdc67501","5091CD0D95D34F4AAE522F2E8FE43010-2024-11-24-18-59-30","","1937","","images/schematic_sequence/flight_scheme/flight_scheme_6.png","1","",""
"","","","","","image-button-response","129","1355322","0.0-16.0-1.0-2.2","5091CD0D95D34F4AAE522F2E8FE43010","5091CD0D95D34F4AAE522F2E8FE43010","6b002d3f-c08c-41e8-8863-fb9c3c6817b3","a0a8f18c-a66e-4ba7-a170-23efbdc67501","{""participantId"":""5091CD0D95D34F4AAE522F2E8FE43010"",""assignmentId"":""6b002d3f-c08c-41e8-8863-fb9c3c6817b3"",""projectId"":""a0a8f18c-a66e-4ba7-a170-23efbdc67501""}","https://test12345.live/?participantId=5091CD0D95D34F4AAE522F2E8FE43010&assignmentId=6b002d3f-c08c-41e8-8863-fb9c3c6817b3&projectId=a0a8f18c-a66e-4ba7-a170-23efbdc67501","5091CD0D95D34F4AAE522F2E8FE43010-2024-11-24-18-59-30","","null","","[]","null","",""
"","","","","","image-button-response","130","1359833","0.0-16.0-1.0-0.3","5091CD0D95D34F4AAE522F2E8FE43010","5091CD0D95D34F4AAE522F2E8FE43010","6b002d3f-c08c-41e8-8863-fb9c3c6817b3","a0a8f18c-a66e-4ba7-a170-23efbdc67501","{""participantId"":""5091CD0D95D34F4AAE522F2E8FE43010"",""assignmentId"":""6b002d3f-c08c-41e8-8863-fb9c3c6817b3"",""projectId"":""a0a8f18c-a66e-4ba7-a170-23efbdc67501""}","https://test12345.live/?participantId=5091CD0D95D34F4AAE522F2E8FE43010&assignmentId=6b002d3f-c08c-41e8-8863-fb9c3c6817b3&projectId=a0a8f18c-a66e-4ba7-a170-23efbdc67501","5091CD0D95D34F4AAE522F2E8FE43010-2024-11-24-18-59-30","","null","","images/schematic_sequence/flight_scheme/flight_scheme_5.png","null","",""
"","","","","","image-button-response","131","1361603","0.0-16.0-1.0-1.3","5091CD0D95D34F4AAE522F2E8FE43010","5091CD0D95D34F4AAE522F2E8FE43010","6b002d3f-c08c-41e8-8863-fb9c3c6817b3","a0a8f18c-a66e-4ba7-a170-23efbdc67501","{""participantId"":""5091CD0D95D34F4AAE522F2E8FE43010"",""assignmentId"":""6b002d3f-c08c-41e8-8863-fb9c3c6817b3"",""projectId"":""a0a8f18c-a66e-4ba7-a170-23efbdc67501""}","https://test12345.live/?participantId=5091CD0D95D34F4AAE522F2E8FE43010&assignmentId=6b002d3f-c08c-41e8-8863-fb9c3c6817b3&projectId=a0a8f18c-a66e-4ba7-a170-23efbdc67501","5091CD0D95D34F4AAE522F2E8FE43010-2024-11-24-18-59-30","","1769","","images/schematic_sequence/flight_scheme/flight_scheme_5.png","0","",""
"","","","","","image-button-response","132","1363414","0.0-16.0-1.0-2.3","5091CD0D95D34F4AAE522F2E8FE43010","5091CD0D95D34F4AAE522F2E8FE43010","6b002d3f-c08c-41e8-8863-fb9c3c6817b3","a0a8f18c-a66e-4ba7-a170-23efbdc67501","{""participantId"":""5091CD0D95D34F4AAE522F2E8FE43010"",""assignmentId"":""6b002d3f-c08c-41e8-8863-fb9c3c6817b3"",""projectId"":""a0a8f18c-a66e-4ba7-a170-23efbdc67501""}","https://test12345.live/?participantId=5091CD0D95D34F4AAE522F2E8FE43010&assignmentId=6b002d3f-c08c-41e8-8863-fb9c3c6817b3&projectId=a0a8f18c-a66e-4ba7-a170-23efbdc67501","5091CD0D95D34F4AAE522F2E8FE43010-2024-11-24-18-59-30","","null","","[]","null","",""
"","","","","","image-button-response","133","1367915","0.0-16.0-1.0-0.4","5091CD0D95D34F4AAE522F2E8FE43010","5091CD0D95D34F4AAE522F2E8FE43010","6b002d3f-c08c-41e8-8863-fb9c3c6817b3","a0a8f18c-a66e-4ba7-a170-23efbdc67501","{""participantId"":""5091CD0D95D34F4AAE522F2E8FE43010"",""assignmentId"":""6b002d3f-c08c-41e8-8863-fb9c3c6817b3"",""projectId"":""a0a8f18c-a66e-4ba7-a170-23efbdc67501""}","https://test12345.live/?participantId=5091CD0D95D34F4AAE522F2E8FE43010&assignmentId=6b002d3f-c08c-41e8-8863-fb9c3c6817b3&projectId=a0a8f18c-a66e-4ba7-a170-23efbdc67501","5091CD0D95D34F4AAE522F2E8FE43010-2024-11-24-18-59-30","","null","","images/schematic_sequence/flight_scheme/flight_scheme_4.png","null","",""
"","","","","","image-button-response","134","1369462","0.0-16.0-1.0-1.4","5091CD0D95D34F4AAE522F2E8FE43010","5091CD0D95D34F4AAE522F2E8FE43010","6b002d3f-c08c-41e8-8863-fb9c3c6817b3","a0a8f18c-a66e-4ba7-a170-23efbdc67501","{""participantId"":""5091CD0D95D34F4AAE522F2E8FE43010"",""assignmentId"":""6b002d3f-c08c-41e8-8863-fb9c3c6817b3"",""projectId"":""a0a8f18c-a66e-4ba7-a170-23efbdc67501""}","https://test12345.live/?participantId=5091CD0D95D34F4AAE522F2E8FE43010&assignmentId=6b002d3f-c08c-41e8-8863-fb9c3c6817b3&projectId=a0a8f18c-a66e-4ba7-a170-23efbdc67501","5091CD0D95D34F4AAE522F2E8FE43010-2024-11-24-18-59-30","","1547","","images/schematic_sequence/flight_scheme/flight_scheme_4.png","0","",""
"","","","","","image-button-response","135","1371264","0.0-16.0-1.0-2.4","5091CD0D95D34F4AAE522F2E8FE43010","5091CD0D95D34F4AAE522F2E8FE43010","6b002d3f-c08c-41e8-8863-fb9c3c6817b3","a0a8f18c-a66e-4ba7-a170-23efbdc67501","{""participantId"":""5091CD0D95D34F4AAE522F2E8FE43010"",""assignmentId"":""6b002d3f-c08c-41e8-8863-fb9c3c6817b3"",""projectId"":""a0a8f18c-a66e-4ba7-a170-23efbdc67501""}","https://test12345.live/?participantId=5091CD0D95D34F4AAE522F2E8FE43010&assignmentId=6b002d3f-c08c-41e8-8863-fb9c3c6817b3&projectId=a0a8f18c-a66e-4ba7-a170-23efbdc67501","5091CD0D95D34F4AAE522F2E8FE43010-2024-11-24-18-59-30","","null","","[]","null","",""
"","","","","","image-button-response","136","1375765","0.0-16.0-1.0-0.5","5091CD0D95D34F4AAE522F2E8FE43010","5091CD0D95D34F4AAE522F2E8FE43010","6b002d3f-c08c-41e8-8863-fb9c3c6817b3","a0a8f18c-a66e-4ba7-a170-23efbdc67501","{""participantId"":""5091CD0D95D34F4AAE522F2E8FE43010"",""assignmentId"":""6b002d3f-c08c-41e8-8863-fb9c3c6817b3"",""projectId"":""a0a8f18c-a66e-4ba7-a170-23efbdc67501""}","https://test12345.live/?participantId=5091CD0D95D34F4AAE522F2E8FE43010&assignmentId=6b002d3f-c08c-41e8-8863-fb9c3c6817b3&projectId=a0a8f18c-a66e-4ba7-a170-23efbdc67501","5091CD0D95D34F4AAE522F2E8FE43010-2024-11-24-18-59-30","","null","","images/schematic_sequence/flight_scheme/flight_scheme_8.png","null","",""
"","","","","","image-button-response","137","1376904","0.0-16.0-1.0-1.5","5091CD0D95D34F4AAE522F2E8FE43010","5091CD0D95D34F4AAE522F2E8FE43010","6b002d3f-c08c-41e8-8863-fb9c3c6817b3","a0a8f18c-a66e-4ba7-a170-23efbdc67501","{""participantId"":""5091CD0D95D34F4AAE522F2E8FE43010"",""assignmentId"":""6b002d3f-c08c-41e8-8863-fb9c3c6817b3"",""projectId"":""a0a8f18c-a66e-4ba7-a170-23efbdc67501""}","https://test12345.live/?participantId=5091CD0D95D34F4AAE522F2E8FE43010&assignmentId=6b002d3f-c08c-41e8-8863-fb9c3c6817b3&projectId=a0a8f18c-a66e-4ba7-a170-23efbdc67501","5091CD0D95D34F4AAE522F2E8FE43010-2024-11-24-18-59-30","","1138","","images/schematic_sequence/flight_scheme/flight_scheme_8.png","1","",""
"","","","","","image-button-response","138","1378712","0.0-16.0-1.0-2.5","5091CD0D95D34F4AAE522F2E8FE43010","5091CD0D95D34F4AAE522F2E8FE43010","6b002d3f-c08c-41e8-8863-fb9c3c6817b3","a0a8f18c-a66e-4ba7-a170-23efbdc67501","{""participantId"":""5091CD0D95D34F4AAE522F2E8FE43010"",""assignmentId"":""6b002d3f-c08c-41e8-8863-fb9c3c6817b3"",""projectId"":""a0a8f18c-a66e-4ba7-a170-23efbdc67501""}","https://test12345.live/?participantId=5091CD0D95D34F4AAE522F2E8FE43010&assignmentId=6b002d3f-c08c-41e8-8863-fb9c3c6817b3&projectId=a0a8f18c-a66e-4ba7-a170-23efbdc67501","5091CD0D95D34F4AAE522F2E8FE43010-2024-11-24-18-59-30","","null","","[]","null","",""
"","","","","","image-button-response","139","1383223","0.0-16.0-1.0-0.6","5091CD0D95D34F4AAE522F2E8FE43010","5091CD0D95D34F4AAE522F2E8FE43010","6b002d3f-c08c-41e8-8863-fb9c3c6817b3","a0a8f18c-a66e-4ba7-a170-23efbdc67501","{""participantId"":""5091CD0D95D34F4AAE522F2E8FE43010"",""assignmentId"":""6b002d3f-c08c-41e8-8863-fb9c3c6817b3"",""projectId"":""a0a8f18c-a66e-4ba7-a170-23efbdc67501""}","https://test12345.live/?participantId=5091CD0D95D34F4AAE522F2E8FE43010&assignmentId=6b002d3f-c08c-41e8-8863-fb9c3c6817b3&projectId=a0a8f18c-a66e-4ba7-a170-23efbdc67501","5091CD0D95D34F4AAE522F2E8FE43010-2024-11-24-18-59-30","","null","","images/schematic_sequence/flight_scheme/flight_scheme_9.png","null","",""
"","","","","","image-button-response","140","1384968","0.0-16.0-1.0-1.6","5091CD0D95D34F4AAE522F2E8FE43010","5091CD0D95D34F4AAE522F2E8FE43010","6b002d3f-c08c-41e8-8863-fb9c3c6817b3","a0a8f18c-a66e-4ba7-a170-23efbdc67501","{""participantId"":""5091CD0D95D34F4AAE522F2E8FE43010"",""assignmentId"":""6b002d3f-c08c-41e8-8863-fb9c3c6817b3"",""projectId"":""a0a8f18c-a66e-4ba7-a170-23efbdc67501""}","https://test12345.live/?participantId=5091CD0D95D34F4AAE522F2E8FE43010&assignmentId=6b002d3f-c08c-41e8-8863-fb9c3c6817b3&projectId=a0a8f18c-a66e-4ba7-a170-23efbdc67501","5091CD0D95D34F4AAE522F2E8FE43010-2024-11-24-18-59-30","","1745","","images/schematic_sequence/flight_scheme/flight_scheme_9.png","0","",""
"","","","","","image-button-response","141","1386774","0.0-16.0-1.0-2.6","5091CD0D95D34F4AAE522F2E8FE43010","5091CD0D95D34F4AAE522F2E8FE43010","6b002d3f-c08c-41e8-8863-fb9c3c6817b3","a0a8f18c-a66e-4ba7-a170-23efbdc67501","{""participantId"":""5091CD0D95D34F4AAE522F2E8FE43010"",""assignmentId"":""6b002d3f-c08c-41e8-8863-fb9c3c6817b3"",""projectId"":""a0a8f18c-a66e-4ba7-a170-23efbdc67501""}","https://test12345.live/?participantId=5091CD0D95D34F4AAE522F2E8FE43010&assignmentId=6b002d3f-c08c-41e8-8863-fb9c3c6817b3&projectId=a0a8f18c-a66e-4ba7-a170-23efbdc67501","5091CD0D95D34F4AAE522F2E8FE43010-2024-11-24-18-59-30","","null","","[]","null","",""
"","","","","","image-button-response","142","1391276","0.0-16.0-1.0-0.7","5091CD0D95D34F4AAE522F2E8FE43010","5091CD0D95D34F4AAE522F2E8FE43010","6b002d3f-c08c-41e8-8863-fb9c3c6817b3","a0a8f18c-a66e-4ba7-a170-23efbdc67501","{""participantId"":""5091CD0D95D34F4AAE522F2E8FE43010"",""assignmentId"":""6b002d3f-c08c-41e8-8863-fb9c3c6817b3"",""projectId"":""a0a8f18c-a66e-4ba7-a170-23efbdc67501""}","https://test12345.live/?participantId=5091CD0D95D34F4AAE522F2E8FE43010&assignmentId=6b002d3f-c08c-41e8-8863-fb9c3c6817b3&projectId=a0a8f18c-a66e-4ba7-a170-23efbdc67501","5091CD0D95D34F4AAE522F2E8FE43010-2024-11-24-18-59-30","","null","","images/schematic_sequence/flight_scheme/flight_scheme_3.png","null","",""
"","","","","","image-button-response","143","1392649","0.0-16.0-1.0-1.7","5091CD0D95D34F4AAE522F2E8FE43010","5091CD0D95D34F4AAE522F2E8FE43010","6b002d3f-c08c-41e8-8863-fb9c3c6817b3","a0a8f18c-a66e-4ba7-a170-23efbdc67501","{""participantId"":""5091CD0D95D34F4AAE522F2E8FE43010"",""assignmentId"":""6b002d3f-c08c-41e8-8863-fb9c3c6817b3"",""projectId"":""a0a8f18c-a66e-4ba7-a170-23efbdc67501""}","https://test12345.live/?participantId=5091CD0D95D34F4AAE522F2E8FE43010&assignmentId=6b002d3f-c08c-41e8-8863-fb9c3c6817b3&projectId=a0a8f18c-a66e-4ba7-a170-23efbdc67501","5091CD0D95D34F4AAE522F2E8FE43010-2024-11-24-18-59-30","","1372","","images/schematic_sequence/flight_scheme/flight_scheme_3.png","0","",""
