"success","timeout","failed_images","failed_audio","failed_video","trial_type","trial_index","time_elapsed","internal_node_id","subject","subject_id","study_id","session_id","urlvar","current_url","audio_id","view_history","rt","device_id","stimulus","response","estimated_stimulus_onset","seq_name"
"true","false","[]","[]","[]","preload","0","3032","0.0-0.0","51F71C531F4E4EB5A4686654C67B0FEA","51F71C531F4E4EB5A4686654C67B0FEA","57bebaac-6756-4729-a6dc-9e25b823e7be","742ed384-456e-4a46-b422-5d3d313078b8","{""num_scrambled_semantic"":""8"",""num_scrambled_causal"":""4"",""num_scrambled_schematic"":""4"",""participantId"":""51F71C531F4E4EB5A4686654C67B0FEA"",""assignmentId"":""57bebaac-6756-4729-a6dc-9e25b823e7be"",""projectId"":""742ed384-456e-4a46-b422-5d3d313078b8""}","https://test12345.live/?num_scrambled_semantic=8&num_scrambled_causal=4&num_scrambled_schematic=4&participantId=51F71C531F4E4EB5A4686654C67B0FEA&assignmentId=57bebaac-6756-4729-a6dc-9e25b823e7be&projectId=742ed384-456e-4a46-b422-5d3d313078b8","51F71C531F4E4EB5A4686654C67B0FEA-2025-08-07-05-44-18","","","","","","",""
"","","","","","instructions","1","33864","0.0-1.0","51F71C531F4E4EB5A4686654C67B0FEA","51F71C531F4E4EB5A4686654C67B0FEA","57bebaac-6756-4729-a6dc-9e25b823e7be","742ed384-456e-4a46-b422-5d3d313078b8","{""num_scrambled_semantic"":""8"",""num_scrambled_causal"":""4"",""num_scrambled_schematic"":""4"",""participantId"":""51F71C531F4E4EB5A4686654C67B0FEA"",""assignmentId"":""57bebaac-6756-4729-a6dc-9e25b823e7be"",""projectId"":""742ed384-456e-4a46-b422-5d3d313078b8""}","https://test12345.live/?num_scrambled_semantic=8&num_scrambled_causal=4&num_scrambled_schematic=4&participantId=51F71C531F4E4EB5A4686654C67B0FEA&assignmentId=57bebaac-6756-4729-a6dc-9e25b823e7be&projectId=742ed384-456e-4a46-b422-5d3d313078b8","51F71C531F4E4EB5A4686654C67B0FEA-2025-08-07-05-44-18","[{""page_index"":0,""viewing_time"":30832}]","30832","","","","",""
"","","","","","instructions","2","80344","0.0-2.0","51F71C531F4E4EB5A4686654C67B0FEA","51F71C531F4E4EB5A4686654C67B0FEA","57bebaac-6756-4729-a6dc-9e25b823e7be","742ed384-456e-4a46-b422-5d3d313078b8","{""num_scrambled_semantic"":""8"",""num_scrambled_causal"":""4"",""num_scrambled_schematic"":""4"",""participantId"":""51F71C531F4E4EB5A4686654C67B0FEA"",""assignmentId"":""57bebaac-6756-4729-a6dc-9e25b823e7be"",""projectId"":""742ed384-456e-4a46-b422-5d3d313078b8""}","https://test12345.live/?num_scrambled_semantic=8&num_scrambled_causal=4&num_scrambled_schematic=4&participantId=51F71C531F4E4EB5A4686654C67B0FEA&assignmentId=57bebaac-6756-4729-a6dc-9e25b823e7be&projectId=742ed384-456e-4a46-b422-5d3d313078b8","51F71C531F4E4EB5A4686654C67B0FEA-2025-08-07-05-44-18","[{""page_index"":0,""viewing_time"":46479}]","46479","","","","",""
"true","","","","","fullscreen","3","83424","0.0-3.0","51F71C531F4E4EB5A4686654C67B0FEA","51F71C531F4E4EB5A4686654C67B0FEA","57bebaac-6756-4729-a6dc-9e25b823e7be","742ed384-456e-4a46-b422-5d3d313078b8","{""num_scrambled_semantic"":""8"",""num_scrambled_causal"":""4"",""num_scrambled_schematic"":""4"",""participantId"":""51F71C531F4E4EB5A4686654C67B0FEA"",""assignmentId"":""57bebaac-6756-4729-a6dc-9e25b823e7be"",""projectId"":""742ed384-456e-4a46-b422-5d3d313078b8""}","https://test12345.live/?num_scrambled_semantic=8&num_scrambled_causal=4&num_scrambled_schematic=4&participantId=51F71C531F4E4EB5A4686654C67B0FEA&assignmentId=57bebaac-6756-4729-a6dc-9e25b823e7be&projectId=742ed384-456e-4a46-b422-5d3d313078b8","51F71C531F4E4EB5A4686654C67B0FEA-2025-08-07-05-44-18","","2076","","","","",""
"","","","","","initialize-microphone","4","110346","0.0-4.0-0.0","51F71C531F4E4EB5A4686654C67B0FEA","51F71C531F4E4EB5A4686654C67B0FEA","57bebaac-6756-4729-a6dc-9e25b823e7be","742ed384-456e-4a46-b422-5d3d313078b8","{""num_scrambled_semantic"":""8"",""num_scrambled_causal"":""4"",""num_scrambled_schematic"":""4"",""participantId"":""51F71C531F4E4EB5A4686654C67B0FEA"",""assignmentId"":""57bebaac-6756-4729-a6dc-9e25b823e7be"",""projectId"":""742ed384-456e-4a46-b422-5d3d313078b8""}","https://test12345.live/?num_scrambled_semantic=8&num_scrambled_causal=4&num_scrambled_schematic=4&participantId=51F71C531F4E4EB5A4686654C67B0FEA&assignmentId=57bebaac-6756-4729-a6dc-9e25b823e7be&projectId=742ed384-456e-4a46-b422-5d3d313078b8","51F71C531F4E4EB5A4686654C67B0FEA-2025-08-07-05-44-18","","","afd0cbf5db3dbeb56d9b02f66e52d366da75851e69dd2bbab83483c4a5e887ff","","","",""
"","","","","","html-audio-response","5","122646","0.0-4.0-1.0","51F71C531F4E4EB5A4686654C67B0FEA","51F71C531F4E4EB5A4686654C67B0FEA","57bebaac-6756-4729-a6dc-9e25b823e7be","742ed384-456e-4a46-b422-5d3d313078b8","{""num_scrambled_semantic"":""8"",""num_scrambled_causal"":""4"",""num_scrambled_schematic"":""4"",""participantId"":""51F71C531F4E4EB5A4686654C67B0FEA"",""assignmentId"":""57bebaac-6756-4729-a6dc-9e25b823e7be"",""projectId"":""742ed384-456e-4a46-b422-5d3d313078b8""}","https://test12345.live/?num_scrambled_semantic=8&num_scrambled_causal=4&num_scrambled_schematic=4&participantId=51F71C531F4E4EB5A4686654C67B0FEA&assignmentId=57bebaac-6756-4729-a6dc-9e25b823e7be&projectId=742ed384-456e-4a46-b422-5d3d313078b8","51F71C531F4E4EB5A4686654C67B0FEA-2025-08-07-05-44-18","","5393","","<span style=""color: red; font-size: 24px""> NOW RECORDING</span>
        <p>Please test Microphone</p>","","1",""
"","","","","","html-button-response","6","124305","0.0-4.0-2.0","51F71C531F4E4EB5A4686654C67B0FEA","51F71C531F4E4EB5A4686654C67B0FEA","57bebaac-6756-4729-a6dc-9e25b823e7be","742ed384-456e-4a46-b422-5d3d313078b8","{""num_scrambled_semantic"":""8"",""num_scrambled_causal"":""4"",""num_scrambled_schematic"":""4"",""participantId"":""51F71C531F4E4EB5A4686654C67B0FEA"",""assignmentId"":""57bebaac-6756-4729-a6dc-9e25b823e7be"",""projectId"":""742ed384-456e-4a46-b422-5d3d313078b8""}","https://test12345.live/?num_scrambled_semantic=8&num_scrambled_causal=4&num_scrambled_schematic=4&participantId=51F71C531F4E4EB5A4686654C67B0FEA&assignmentId=57bebaac-6756-4729-a6dc-9e25b823e7be&projectId=742ed384-456e-4a46-b422-5d3d313078b8","51F71C531F4E4EB5A4686654C67B0FEA-2025-08-07-05-44-18","","1658","","<p style=""font-size:48px; color:red;"">Is Microphone OK?</p>","1","",""
"","","","","","instructions","7","153542","0.0-5.0","51F71C531F4E4EB5A4686654C67B0FEA","51F71C531F4E4EB5A4686654C67B0FEA","57bebaac-6756-4729-a6dc-9e25b823e7be","742ed384-456e-4a46-b422-5d3d313078b8","{""num_scrambled_semantic"":""8"",""num_scrambled_causal"":""4"",""num_scrambled_schematic"":""4"",""participantId"":""51F71C531F4E4EB5A4686654C67B0FEA"",""assignmentId"":""57bebaac-6756-4729-a6dc-9e25b823e7be"",""projectId"":""742ed384-456e-4a46-b422-5d3d313078b8""}","https://test12345.live/?num_scrambled_semantic=8&num_scrambled_causal=4&num_scrambled_schematic=4&participantId=51F71C531F4E4EB5A4686654C67B0FEA&assignmentId=57bebaac-6756-4729-a6dc-9e25b823e7be&projectId=742ed384-456e-4a46-b422-5d3d313078b8","51F71C531F4E4EB5A4686654C67B0FEA-2025-08-07-05-44-18","[{""page_index"":0,""viewing_time"":9270},{""page_index"":1,""viewing_time"":19965}]","29236","","","","",""
"","","","","","image-button-response","8","159551","0.0-6.0-0.0","51F71C531F4E4EB5A4686654C67B0FEA","51F71C531F4E4EB5A4686654C67B0FEA","57bebaac-6756-4729-a6dc-9e25b823e7be","742ed384-456e-4a46-b422-5d3d313078b8","{""num_scrambled_semantic"":""8"",""num_scrambled_causal"":""4"",""num_scrambled_schematic"":""4"",""participantId"":""51F71C531F4E4EB5A4686654C67B0FEA"",""assignmentId"":""57bebaac-6756-4729-a6dc-9e25b823e7be"",""projectId"":""742ed384-456e-4a46-b422-5d3d313078b8""}","https://test12345.live/?num_scrambled_semantic=8&num_scrambled_causal=4&num_scrambled_schematic=4&participantId=51F71C531F4E4EB5A4686654C67B0FEA&assignmentId=57bebaac-6756-4729-a6dc-9e25b823e7be&projectId=742ed384-456e-4a46-b422-5d3d313078b8","51F71C531F4E4EB5A4686654C67B0FEA-2025-08-07-05-44-18","","null","","images/instructions/movie_0.png","null","",""
"","","","","","image-button-response","9","164054","0.0-6.0-1.0-0.0","51F71C531F4E4EB5A4686654C67B0FEA","51F71C531F4E4EB5A4686654C67B0FEA","57bebaac-6756-4729-a6dc-9e25b823e7be","742ed384-456e-4a46-b422-5d3d313078b8","{""num_scrambled_semantic"":""8"",""num_scrambled_causal"":""4"",""num_scrambled_schematic"":""4"",""participantId"":""51F71C531F4E4EB5A4686654C67B0FEA"",""assignmentId"":""57bebaac-6756-4729-a6dc-9e25b823e7be"",""projectId"":""742ed384-456e-4a46-b422-5d3d313078b8""}","https://test12345.live/?num_scrambled_semantic=8&num_scrambled_causal=4&num_scrambled_schematic=4&participantId=51F71C531F4E4EB5A4686654C67B0FEA&assignmentId=57bebaac-6756-4729-a6dc-9e25b823e7be&projectId=742ed384-456e-4a46-b422-5d3d313078b8","51F71C531F4E4EB5A4686654C67B0FEA-2025-08-07-05-44-18","","null","","images/instructions/movie_1.png","null","",""
"","","","","","image-button-response","10","168057","0.0-6.0-1.0-1.0","51F71C531F4E4EB5A4686654C67B0FEA","51F71C531F4E4EB5A4686654C67B0FEA","57bebaac-6756-4729-a6dc-9e25b823e7be","742ed384-456e-4a46-b422-5d3d313078b8","{""num_scrambled_semantic"":""8"",""num_scrambled_causal"":""4"",""num_scrambled_schematic"":""4"",""participantId"":""51F71C531F4E4EB5A4686654C67B0FEA"",""assignmentId"":""57bebaac-6756-4729-a6dc-9e25b823e7be"",""projectId"":""742ed384-456e-4a46-b422-5d3d313078b8""}","https://test12345.live/?num_scrambled_semantic=8&num_scrambled_causal=4&num_scrambled_schematic=4&participantId=51F71C531F4E4EB5A4686654C67B0FEA&assignmentId=57bebaac-6756-4729-a6dc-9e25b823e7be&projectId=742ed384-456e-4a46-b422-5d3d313078b8","51F71C531F4E4EB5A4686654C67B0FEA-2025-08-07-05-44-18","","null","","images/instructions/movie_1.png","null","",""
"","","","","","image-button-response","11","169859","0.0-6.0-1.0-2.0","51F71C531F4E4EB5A4686654C67B0FEA","51F71C531F4E4EB5A4686654C67B0FEA","57bebaac-6756-4729-a6dc-9e25b823e7be","742ed384-456e-4a46-b422-5d3d313078b8","{""num_scrambled_semantic"":""8"",""num_scrambled_causal"":""4"",""num_scrambled_schematic"":""4"",""participantId"":""51F71C531F4E4EB5A4686654C67B0FEA"",""assignmentId"":""57bebaac-6756-4729-a6dc-9e25b823e7be"",""projectId"":""742ed384-456e-4a46-b422-5d3d313078b8""}","https://test12345.live/?num_scrambled_semantic=8&num_scrambled_causal=4&num_scrambled_schematic=4&participantId=51F71C531F4E4EB5A4686654C67B0FEA&assignmentId=57bebaac-6756-4729-a6dc-9e25b823e7be&projectId=742ed384-456e-4a46-b422-5d3d313078b8","51F71C531F4E4EB5A4686654C67B0FEA-2025-08-07-05-44-18","","null","","[]","null","",""
"","","","","","image-button-response","12","174367","0.0-6.0-1.0-0.1","51F71C531F4E4EB5A4686654C67B0FEA","51F71C531F4E4EB5A4686654C67B0FEA","57bebaac-6756-4729-a6dc-9e25b823e7be","742ed384-456e-4a46-b422-5d3d313078b8","{""num_scrambled_semantic"":""8"",""num_scrambled_causal"":""4"",""num_scrambled_schematic"":""4"",""participantId"":""51F71C531F4E4EB5A4686654C67B0FEA"",""assignmentId"":""57bebaac-6756-4729-a6dc-9e25b823e7be"",""projectId"":""742ed384-456e-4a46-b422-5d3d313078b8""}","https://test12345.live/?num_scrambled_semantic=8&num_scrambled_causal=4&num_scrambled_schematic=4&participantId=51F71C531F4E4EB5A4686654C67B0FEA&assignmentId=57bebaac-6756-4729-a6dc-9e25b823e7be&projectId=742ed384-456e-4a46-b422-5d3d313078b8","51F71C531F4E4EB5A4686654C67B0FEA-2025-08-07-05-44-18","","null","","images/instructions/movie_2.png","null","",""
"","","","","","image-button-response","13","177012","0.0-6.0-1.0-1.1","51F71C531F4E4EB5A4686654C67B0FEA","51F71C531F4E4EB5A4686654C67B0FEA","57bebaac-6756-4729-a6dc-9e25b823e7be","742ed384-456e-4a46-b422-5d3d313078b8","{""num_scrambled_semantic"":""8"",""num_scrambled_causal"":""4"",""num_scrambled_schematic"":""4"",""participantId"":""51F71C531F4E4EB5A4686654C67B0FEA"",""assignmentId"":""57bebaac-6756-4729-a6dc-9e25b823e7be"",""projectId"":""742ed384-456e-4a46-b422-5d3d313078b8""}","https://test12345.live/?num_scrambled_semantic=8&num_scrambled_causal=4&num_scrambled_schematic=4&participantId=51F71C531F4E4EB5A4686654C67B0FEA&assignmentId=57bebaac-6756-4729-a6dc-9e25b823e7be&projectId=742ed384-456e-4a46-b422-5d3d313078b8","51F71C531F4E4EB5A4686654C67B0FEA-2025-08-07-05-44-18","","2643","","images/instructions/movie_2.png","0","",""
"","","","","","image-button-response","14","178819","0.0-6.0-1.0-2.1","51F71C531F4E4EB5A4686654C67B0FEA","51F71C531F4E4EB5A4686654C67B0FEA","57bebaac-6756-4729-a6dc-9e25b823e7be","742ed384-456e-4a46-b422-5d3d313078b8","{""num_scrambled_semantic"":""8"",""num_scrambled_causal"":""4"",""num_scrambled_schematic"":""4"",""participantId"":""51F71C531F4E4EB5A4686654C67B0FEA"",""assignmentId"":""57bebaac-6756-4729-a6dc-9e25b823e7be"",""projectId"":""742ed384-456e-4a46-b422-5d3d313078b8""}","https://test12345.live/?num_scrambled_semantic=8&num_scrambled_causal=4&num_scrambled_schematic=4&participantId=51F71C531F4E4EB5A4686654C67B0FEA&assignmentId=57bebaac-6756-4729-a6dc-9e25b823e7be&projectId=742ed384-456e-4a46-b422-5d3d313078b8","51F71C531F4E4EB5A4686654C67B0FEA-2025-08-07-05-44-18","","null","","[]","null","",""
"","","","","","image-button-response","15","183322","0.0-6.0-1.0-0.2","51F71C531F4E4EB5A4686654C67B0FEA","51F71C531F4E4EB5A4686654C67B0FEA","57bebaac-6756-4729-a6dc-9e25b823e7be","742ed384-456e-4a46-b422-5d3d313078b8","{""num_scrambled_semantic"":""8"",""num_scrambled_causal"":""4"",""num_scrambled_schematic"":""4"",""participantId"":""51F71C531F4E4EB5A4686654C67B0FEA"",""assignmentId"":""57bebaac-6756-4729-a6dc-9e25b823e7be"",""projectId"":""742ed384-456e-4a46-b422-5d3d313078b8""}","https://test12345.live/?num_scrambled_semantic=8&num_scrambled_causal=4&num_scrambled_schematic=4&participantId=51F71C531F4E4EB5A4686654C67B0FEA&assignmentId=57bebaac-6756-4729-a6dc-9e25b823e7be&projectId=742ed384-456e-4a46-b422-5d3d313078b8","51F71C531F4E4EB5A4686654C67B0FEA-2025-08-07-05-44-18","","null","","images/instructions/movie_3.png","null","",""
"","","","","","image-button-response","16","184836","0.0-6.0-1.0-1.2","51F71C531F4E4EB5A4686654C67B0FEA","51F71C531F4E4EB5A4686654C67B0FEA","57bebaac-6756-4729-a6dc-9e25b823e7be","742ed384-456e-4a46-b422-5d3d313078b8","{""num_scrambled_semantic"":""8"",""num_scrambled_causal"":""4"",""num_scrambled_schematic"":""4"",""participantId"":""51F71C531F4E4EB5A4686654C67B0FEA"",""assignmentId"":""57bebaac-6756-4729-a6dc-9e25b823e7be"",""projectId"":""742ed384-456e-4a46-b422-5d3d313078b8""}","https://test12345.live/?num_scrambled_semantic=8&num_scrambled_causal=4&num_scrambled_schematic=4&participantId=51F71C531F4E4EB5A4686654C67B0FEA&assignmentId=57bebaac-6756-4729-a6dc-9e25b823e7be&projectId=742ed384-456e-4a46-b422-5d3d313078b8","51F71C531F4E4EB5A4686654C67B0FEA-2025-08-07-05-44-18","","1512","","images/instructions/movie_3.png","0","",""
"","","","","","image-button-response","17","186639","0.0-6.0-1.0-2.2","51F71C531F4E4EB5A4686654C67B0FEA","51F71C531F4E4EB5A4686654C67B0FEA","57bebaac-6756-4729-a6dc-9e25b823e7be","742ed384-456e-4a46-b422-5d3d313078b8","{""num_scrambled_semantic"":""8"",""num_scrambled_causal"":""4"",""num_scrambled_schematic"":""4"",""participantId"":""51F71C531F4E4EB5A4686654C67B0FEA"",""assignmentId"":""57bebaac-6756-4729-a6dc-9e25b823e7be"",""projectId"":""742ed384-456e-4a46-b422-5d3d313078b8""}","https://test12345.live/?num_scrambled_semantic=8&num_scrambled_causal=4&num_scrambled_schematic=4&participantId=51F71C531F4E4EB5A4686654C67B0FEA&assignmentId=57bebaac-6756-4729-a6dc-9e25b823e7be&projectId=742ed384-456e-4a46-b422-5d3d313078b8","51F71C531F4E4EB5A4686654C67B0FEA-2025-08-07-05-44-18","","null","","[]","null","",""
"","","","","","image-button-response","18","191142","0.0-6.0-1.0-0.3","51F71C531F4E4EB5A4686654C67B0FEA","51F71C531F4E4EB5A4686654C67B0FEA","57bebaac-6756-4729-a6dc-9e25b823e7be","742ed384-456e-4a46-b422-5d3d313078b8","{""num_scrambled_semantic"":""8"",""num_scrambled_causal"":""4"",""num_scrambled_schematic"":""4"",""participantId"":""51F71C531F4E4EB5A4686654C67B0FEA"",""assignmentId"":""57bebaac-6756-4729-a6dc-9e25b823e7be"",""projectId"":""742ed384-456e-4a46-b422-5d3d313078b8""}","https://test12345.live/?num_scrambled_semantic=8&num_scrambled_causal=4&num_scrambled_schematic=4&participantId=51F71C531F4E4EB5A4686654C67B0FEA&assignmentId=57bebaac-6756-4729-a6dc-9e25b823e7be&projectId=742ed384-456e-4a46-b422-5d3d313078b8","51F71C531F4E4EB5A4686654C67B0FEA-2025-08-07-05-44-18","","null","","images/instructions/movie_4.png","null","",""
"","","","","","image-button-response","19","192155","0.0-6.0-1.0-1.3","51F71C531F4E4EB5A4686654C67B0FEA","51F71C531F4E4EB5A4686654C67B0FEA","57bebaac-6756-4729-a6dc-9e25b823e7be","742ed384-456e-4a46-b422-5d3d313078b8","{""num_scrambled_semantic"":""8"",""num_scrambled_causal"":""4"",""num_scrambled_schematic"":""4"",""participantId"":""51F71C531F4E4EB5A4686654C67B0FEA"",""assignmentId"":""57bebaac-6756-4729-a6dc-9e25b823e7be"",""projectId"":""742ed384-456e-4a46-b422-5d3d313078b8""}","https://test12345.live/?num_scrambled_semantic=8&num_scrambled_causal=4&num_scrambled_schematic=4&participantId=51F71C531F4E4EB5A4686654C67B0FEA&assignmentId=57bebaac-6756-4729-a6dc-9e25b823e7be&projectId=742ed384-456e-4a46-b422-5d3d313078b8","51F71C531F4E4EB5A4686654C67B0FEA-2025-08-07-05-44-18","","1012","","images/instructions/movie_4.png","0","",""
"","","","","","image-button-response","20","193962","0.0-6.0-1.0-2.3","51F71C531F4E4EB5A4686654C67B0FEA","51F71C531F4E4EB5A4686654C67B0FEA","57bebaac-6756-4729-a6dc-9e25b823e7be","742ed384-456e-4a46-b422-5d3d313078b8","{""num_scrambled_semantic"":""8"",""num_scrambled_causal"":""4"",""num_scrambled_schematic"":""4"",""participantId"":""51F71C531F4E4EB5A4686654C67B0FEA"",""assignmentId"":""57bebaac-6756-4729-a6dc-9e25b823e7be"",""projectId"":""742ed384-456e-4a46-b422-5d3d313078b8""}","https://test12345.live/?num_scrambled_semantic=8&num_scrambled_causal=4&num_scrambled_schematic=4&participantId=51F71C531F4E4EB5A4686654C67B0FEA&assignmentId=57bebaac-6756-4729-a6dc-9e25b823e7be&projectId=742ed384-456e-4a46-b422-5d3d313078b8","51F71C531F4E4EB5A4686654C67B0FEA-2025-08-07-05-44-18","","null","","[]","null","",""
"","","","","","instructions","21","212153","0.0-7.0","51F71C531F4E4EB5A4686654C67B0FEA","51F71C531F4E4EB5A4686654C67B0FEA","57bebaac-6756-4729-a6dc-9e25b823e7be","742ed384-456e-4a46-b422-5d3d313078b8","{""num_scrambled_semantic"":""8"",""num_scrambled_causal"":""4"",""num_scrambled_schematic"":""4"",""participantId"":""51F71C531F4E4EB5A4686654C67B0FEA"",""assignmentId"":""57bebaac-6756-4729-a6dc-9e25b823e7be"",""projectId"":""742ed384-456e-4a46-b422-5d3d313078b8""}","https://test12345.live/?num_scrambled_semantic=8&num_scrambled_causal=4&num_scrambled_schematic=4&participantId=51F71C531F4E4EB5A4686654C67B0FEA&assignmentId=57bebaac-6756-4729-a6dc-9e25b823e7be&projectId=742ed384-456e-4a46-b422-5d3d313078b8","51F71C531F4E4EB5A4686654C67B0FEA-2025-08-07-05-44-18","[{""page_index"":0,""viewing_time"":17246},{""page_index"":1,""viewing_time"":944}]","18190","","","","",""
"","","","","","html-audio-response","22","233529","0.0-8.0","51F71C531F4E4EB5A4686654C67B0FEA","51F71C531F4E4EB5A4686654C67B0FEA","57bebaac-6756-4729-a6dc-9e25b823e7be","742ed384-456e-4a46-b422-5d3d313078b8","{""num_scrambled_semantic"":""8"",""num_scrambled_causal"":""4"",""num_scrambled_schematic"":""4"",""participantId"":""51F71C531F4E4EB5A4686654C67B0FEA"",""assignmentId"":""57bebaac-6756-4729-a6dc-9e25b823e7be"",""projectId"":""742ed384-456e-4a46-b422-5d3d313078b8""}","https://test12345.live/?num_scrambled_semantic=8&num_scrambled_causal=4&num_scrambled_schematic=4&participantId=51F71C531F4E4EB5A4686654C67B0FEA&assignmentId=57bebaac-6756-4729-a6dc-9e25b823e7be&projectId=742ed384-456e-4a46-b422-5d3d313078b8","51F71C531F4E4EB5A4686654C67B0FEA-2025-08-07-05-44-18","","18860","","[""<span style=\""color: red; font-size: 24px\""> NOW RECORDING</span><p>Please say out loud all the images you saw in the exact order you saw them. Try to recall as many images as you can, but remember: getting the order right is more important than the number of images you recall.</p>""]","","2",""
"","","","","","instructions","23","236306","0.0-9.0","51F71C531F4E4EB5A4686654C67B0FEA","51F71C531F4E4EB5A4686654C67B0FEA","57bebaac-6756-4729-a6dc-9e25b823e7be","742ed384-456e-4a46-b422-5d3d313078b8","{""num_scrambled_semantic"":""8"",""num_scrambled_causal"":""4"",""num_scrambled_schematic"":""4"",""participantId"":""51F71C531F4E4EB5A4686654C67B0FEA"",""assignmentId"":""57bebaac-6756-4729-a6dc-9e25b823e7be"",""projectId"":""742ed384-456e-4a46-b422-5d3d313078b8""}","https://test12345.live/?num_scrambled_semantic=8&num_scrambled_causal=4&num_scrambled_schematic=4&participantId=51F71C531F4E4EB5A4686654C67B0FEA&assignmentId=57bebaac-6756-4729-a6dc-9e25b823e7be&projectId=742ed384-456e-4a46-b422-5d3d313078b8","51F71C531F4E4EB5A4686654C67B0FEA-2025-08-07-05-44-18","[{""page_index"":0,""viewing_time"":2772}]","2772","","","","",""
"","","","","","image-button-response","24","242313","0.0-10.0-0.0","51F71C531F4E4EB5A4686654C67B0FEA","51F71C531F4E4EB5A4686654C67B0FEA","57bebaac-6756-4729-a6dc-9e25b823e7be","742ed384-456e-4a46-b422-5d3d313078b8","{""num_scrambled_semantic"":""8"",""num_scrambled_causal"":""4"",""num_scrambled_schematic"":""4"",""participantId"":""51F71C531F4E4EB5A4686654C67B0FEA"",""assignmentId"":""57bebaac-6756-4729-a6dc-9e25b823e7be"",""projectId"":""742ed384-456e-4a46-b422-5d3d313078b8""}","https://test12345.live/?num_scrambled_semantic=8&num_scrambled_causal=4&num_scrambled_schematic=4&participantId=51F71C531F4E4EB5A4686654C67B0FEA&assignmentId=57bebaac-6756-4729-a6dc-9e25b823e7be&projectId=742ed384-456e-4a46-b422-5d3d313078b8","51F71C531F4E4EB5A4686654C67B0FEA-2025-08-07-05-44-18","","null","","images/causal_sequence/saving_a_cat_causal/saving_a_cat_causal_0.png","null","",""
"","","","","","image-button-response","25","246820","0.0-10.0-1.0-0.0","51F71C531F4E4EB5A4686654C67B0FEA","51F71C531F4E4EB5A4686654C67B0FEA","57bebaac-6756-4729-a6dc-9e25b823e7be","742ed384-456e-4a46-b422-5d3d313078b8","{""num_scrambled_semantic"":""8"",""num_scrambled_causal"":""4"",""num_scrambled_schematic"":""4"",""participantId"":""51F71C531F4E4EB5A4686654C67B0FEA"",""assignmentId"":""57bebaac-6756-4729-a6dc-9e25b823e7be"",""projectId"":""742ed384-456e-4a46-b422-5d3d313078b8""}","https://test12345.live/?num_scrambled_semantic=8&num_scrambled_causal=4&num_scrambled_schematic=4&participantId=51F71C531F4E4EB5A4686654C67B0FEA&assignmentId=57bebaac-6756-4729-a6dc-9e25b823e7be&projectId=742ed384-456e-4a46-b422-5d3d313078b8","51F71C531F4E4EB5A4686654C67B0FEA-2025-08-07-05-44-18","","null","","images/causal_sequence/saving_a_cat_causal/saving_a_cat_causal_7.png","null","",""
"","","","","","image-button-response","26","248831","0.0-10.0-1.0-1.0","51F71C531F4E4EB5A4686654C67B0FEA","51F71C531F4E4EB5A4686654C67B0FEA","57bebaac-6756-4729-a6dc-9e25b823e7be","742ed384-456e-4a46-b422-5d3d313078b8","{""num_scrambled_semantic"":""8"",""num_scrambled_causal"":""4"",""num_scrambled_schematic"":""4"",""participantId"":""51F71C531F4E4EB5A4686654C67B0FEA"",""assignmentId"":""57bebaac-6756-4729-a6dc-9e25b823e7be"",""projectId"":""742ed384-456e-4a46-b422-5d3d313078b8""}","https://test12345.live/?num_scrambled_semantic=8&num_scrambled_causal=4&num_scrambled_schematic=4&participantId=51F71C531F4E4EB5A4686654C67B0FEA&assignmentId=57bebaac-6756-4729-a6dc-9e25b823e7be&projectId=742ed384-456e-4a46-b422-5d3d313078b8","51F71C531F4E4EB5A4686654C67B0FEA-2025-08-07-05-44-18","","2009","","images/causal_sequence/saving_a_cat_causal/saving_a_cat_causal_7.png","0","",""
"","","","","","image-button-response","27","250633","0.0-10.0-1.0-2.0","51F71C531F4E4EB5A4686654C67B0FEA","51F71C531F4E4EB5A4686654C67B0FEA","57bebaac-6756-4729-a6dc-9e25b823e7be","742ed384-456e-4a46-b422-5d3d313078b8","{""num_scrambled_semantic"":""8"",""num_scrambled_causal"":""4"",""num_scrambled_schematic"":""4"",""participantId"":""51F71C531F4E4EB5A4686654C67B0FEA"",""assignmentId"":""57bebaac-6756-4729-a6dc-9e25b823e7be"",""projectId"":""742ed384-456e-4a46-b422-5d3d313078b8""}","https://test12345.live/?num_scrambled_semantic=8&num_scrambled_causal=4&num_scrambled_schematic=4&participantId=51F71C531F4E4EB5A4686654C67B0FEA&assignmentId=57bebaac-6756-4729-a6dc-9e25b823e7be&projectId=742ed384-456e-4a46-b422-5d3d313078b8","51F71C531F4E4EB5A4686654C67B0FEA-2025-08-07-05-44-18","","null","","[]","null","",""
"","","","","","image-button-response","28","255135","0.0-10.0-1.0-0.1","51F71C531F4E4EB5A4686654C67B0FEA","51F71C531F4E4EB5A4686654C67B0FEA","57bebaac-6756-4729-a6dc-9e25b823e7be","742ed384-456e-4a46-b422-5d3d313078b8","{""num_scrambled_semantic"":""8"",""num_scrambled_causal"":""4"",""num_scrambled_schematic"":""4"",""participantId"":""51F71C531F4E4EB5A4686654C67B0FEA"",""assignmentId"":""57bebaac-6756-4729-a6dc-9e25b823e7be"",""projectId"":""742ed384-456e-4a46-b422-5d3d313078b8""}","https://test12345.live/?num_scrambled_semantic=8&num_scrambled_causal=4&num_scrambled_schematic=4&participantId=51F71C531F4E4EB5A4686654C67B0FEA&assignmentId=57bebaac-6756-4729-a6dc-9e25b823e7be&projectId=742ed384-456e-4a46-b422-5d3d313078b8","51F71C531F4E4EB5A4686654C67B0FEA-2025-08-07-05-44-18","","null","","images/causal_sequence/saving_a_cat_causal/saving_a_cat_causal_1.png","null","",""
"","","","","","image-button-response","29","257209","0.0-10.0-1.0-1.1","51F71C531F4E4EB5A4686654C67B0FEA","51F71C531F4E4EB5A4686654C67B0FEA","57bebaac-6756-4729-a6dc-9e25b823e7be","742ed384-456e-4a46-b422-5d3d313078b8","{""num_scrambled_semantic"":""8"",""num_scrambled_causal"":""4"",""num_scrambled_schematic"":""4"",""participantId"":""51F71C531F4E4EB5A4686654C67B0FEA"",""assignmentId"":""57bebaac-6756-4729-a6dc-9e25b823e7be"",""projectId"":""742ed384-456e-4a46-b422-5d3d313078b8""}","https://test12345.live/?num_scrambled_semantic=8&num_scrambled_causal=4&num_scrambled_schematic=4&participantId=51F71C531F4E4EB5A4686654C67B0FEA&assignmentId=57bebaac-6756-4729-a6dc-9e25b823e7be&projectId=742ed384-456e-4a46-b422-5d3d313078b8","51F71C531F4E4EB5A4686654C67B0FEA-2025-08-07-05-44-18","","2072","","images/causal_sequence/saving_a_cat_causal/saving_a_cat_causal_1.png","0","",""
"","","","","","image-button-response","30","259015","0.0-10.0-1.0-2.1","51F71C531F4E4EB5A4686654C67B0FEA","51F71C531F4E4EB5A4686654C67B0FEA","57bebaac-6756-4729-a6dc-9e25b823e7be","742ed384-456e-4a46-b422-5d3d313078b8","{""num_scrambled_semantic"":""8"",""num_scrambled_causal"":""4"",""num_scrambled_schematic"":""4"",""participantId"":""51F71C531F4E4EB5A4686654C67B0FEA"",""assignmentId"":""57bebaac-6756-4729-a6dc-9e25b823e7be"",""projectId"":""742ed384-456e-4a46-b422-5d3d313078b8""}","https://test12345.live/?num_scrambled_semantic=8&num_scrambled_causal=4&num_scrambled_schematic=4&participantId=51F71C531F4E4EB5A4686654C67B0FEA&assignmentId=57bebaac-6756-4729-a6dc-9e25b823e7be&projectId=742ed384-456e-4a46-b422-5d3d313078b8","51F71C531F4E4EB5A4686654C67B0FEA-2025-08-07-05-44-18","","null","","[]","null","",""
"","","","","","image-button-response","31","263522","0.0-10.0-1.0-0.2","51F71C531F4E4EB5A4686654C67B0FEA","51F71C531F4E4EB5A4686654C67B0FEA","57bebaac-6756-4729-a6dc-9e25b823e7be","742ed384-456e-4a46-b422-5d3d313078b8","{""num_scrambled_semantic"":""8"",""num_scrambled_causal"":""4"",""num_scrambled_schematic"":""4"",""participantId"":""51F71C531F4E4EB5A4686654C67B0FEA"",""assignmentId"":""57bebaac-6756-4729-a6dc-9e25b823e7be"",""projectId"":""742ed384-456e-4a46-b422-5d3d313078b8""}","https://test12345.live/?num_scrambled_semantic=8&num_scrambled_causal=4&num_scrambled_schematic=4&participantId=51F71C531F4E4EB5A4686654C67B0FEA&assignmentId=57bebaac-6756-4729-a6dc-9e25b823e7be&projectId=742ed384-456e-4a46-b422-5d3d313078b8","51F71C531F4E4EB5A4686654C67B0FEA-2025-08-07-05-44-18","","null","","images/causal_sequence/saving_a_cat_causal/saving_a_cat_causal_6.png","null","",""
"","","","","","image-button-response","32","265018","0.0-10.0-1.0-1.2","51F71C531F4E4EB5A4686654C67B0FEA","51F71C531F4E4EB5A4686654C67B0FEA","57bebaac-6756-4729-a6dc-9e25b823e7be","742ed384-456e-4a46-b422-5d3d313078b8","{""num_scrambled_semantic"":""8"",""num_scrambled_causal"":""4"",""num_scrambled_schematic"":""4"",""participantId"":""51F71C531F4E4EB5A4686654C67B0FEA"",""assignmentId"":""57bebaac-6756-4729-a6dc-9e25b823e7be"",""projectId"":""742ed384-456e-4a46-b422-5d3d313078b8""}","https://test12345.live/?num_scrambled_semantic=8&num_scrambled_causal=4&num_scrambled_schematic=4&participantId=51F71C531F4E4EB5A4686654C67B0FEA&assignmentId=57bebaac-6756-4729-a6dc-9e25b823e7be&projectId=742ed384-456e-4a46-b422-5d3d313078b8","51F71C531F4E4EB5A4686654C67B0FEA-2025-08-07-05-44-18","","1494","","images/causal_sequence/saving_a_cat_causal/saving_a_cat_causal_6.png","0","",""
"","","","","","image-button-response","33","266824","0.0-10.0-1.0-2.2","51F71C531F4E4EB5A4686654C67B0FEA","51F71C531F4E4EB5A4686654C67B0FEA","57bebaac-6756-4729-a6dc-9e25b823e7be","742ed384-456e-4a46-b422-5d3d313078b8","{""num_scrambled_semantic"":""8"",""num_scrambled_causal"":""4"",""num_scrambled_schematic"":""4"",""participantId"":""51F71C531F4E4EB5A4686654C67B0FEA"",""assignmentId"":""57bebaac-6756-4729-a6dc-9e25b823e7be"",""projectId"":""742ed384-456e-4a46-b422-5d3d313078b8""}","https://test12345.live/?num_scrambled_semantic=8&num_scrambled_causal=4&num_scrambled_schematic=4&participantId=51F71C531F4E4EB5A4686654C67B0FEA&assignmentId=57bebaac-6756-4729-a6dc-9e25b823e7be&projectId=742ed384-456e-4a46-b422-5d3d313078b8","51F71C531F4E4EB5A4686654C67B0FEA-2025-08-07-05-44-18","","null","","[]","null","",""
"","","","","","image-button-response","34","271328","0.0-10.0-1.0-0.3","51F71C531F4E4EB5A4686654C67B0FEA","51F71C531F4E4EB5A4686654C67B0FEA","57bebaac-6756-4729-a6dc-9e25b823e7be","742ed384-456e-4a46-b422-5d3d313078b8","{""num_scrambled_semantic"":""8"",""num_scrambled_causal"":""4"",""num_scrambled_schematic"":""4"",""participantId"":""51F71C531F4E4EB5A4686654C67B0FEA"",""assignmentId"":""57bebaac-6756-4729-a6dc-9e25b823e7be"",""projectId"":""742ed384-456e-4a46-b422-5d3d313078b8""}","https://test12345.live/?num_scrambled_semantic=8&num_scrambled_causal=4&num_scrambled_schematic=4&participantId=51F71C531F4E4EB5A4686654C67B0FEA&assignmentId=57bebaac-6756-4729-a6dc-9e25b823e7be&projectId=742ed384-456e-4a46-b422-5d3d313078b8","51F71C531F4E4EB5A4686654C67B0FEA-2025-08-07-05-44-18","","null","","images/causal_sequence/saving_a_cat_causal/saving_a_cat_causal_ten.png","null","",""
"","","","","","image-button-response","35","272150","0.0-10.0-1.0-1.3","51F71C531F4E4EB5A4686654C67B0FEA","51F71C531F4E4EB5A4686654C67B0FEA","57bebaac-6756-4729-a6dc-9e25b823e7be","742ed384-456e-4a46-b422-5d3d313078b8","{""num_scrambled_semantic"":""8"",""num_scrambled_causal"":""4"",""num_scrambled_schematic"":""4"",""participantId"":""51F71C531F4E4EB5A4686654C67B0FEA"",""assignmentId"":""57bebaac-6756-4729-a6dc-9e25b823e7be"",""projectId"":""742ed384-456e-4a46-b422-5d3d313078b8""}","https://test12345.live/?num_scrambled_semantic=8&num_scrambled_causal=4&num_scrambled_schematic=4&participantId=51F71C531F4E4EB5A4686654C67B0FEA&assignmentId=57bebaac-6756-4729-a6dc-9e25b823e7be&projectId=742ed384-456e-4a46-b422-5d3d313078b8","51F71C531F4E4EB5A4686654C67B0FEA-2025-08-07-05-44-18","","820","","images/causal_sequence/saving_a_cat_causal/saving_a_cat_causal_ten.png","0","",""
"","","","","","image-button-response","36","273954","0.0-10.0-1.0-2.3","51F71C531F4E4EB5A4686654C67B0FEA","51F71C531F4E4EB5A4686654C67B0FEA","57bebaac-6756-4729-a6dc-9e25b823e7be","742ed384-456e-4a46-b422-5d3d313078b8","{""num_scrambled_semantic"":""8"",""num_scrambled_causal"":""4"",""num_scrambled_schematic"":""4"",""participantId"":""51F71C531F4E4EB5A4686654C67B0FEA"",""assignmentId"":""57bebaac-6756-4729-a6dc-9e25b823e7be"",""projectId"":""742ed384-456e-4a46-b422-5d3d313078b8""}","https://test12345.live/?num_scrambled_semantic=8&num_scrambled_causal=4&num_scrambled_schematic=4&participantId=51F71C531F4E4EB5A4686654C67B0FEA&assignmentId=57bebaac-6756-4729-a6dc-9e25b823e7be&projectId=742ed384-456e-4a46-b422-5d3d313078b8","51F71C531F4E4EB5A4686654C67B0FEA-2025-08-07-05-44-18","","null","","[]","null","",""
"","","","","","image-button-response","37","278458","0.0-10.0-1.0-0.4","51F71C531F4E4EB5A4686654C67B0FEA","51F71C531F4E4EB5A4686654C67B0FEA","57bebaac-6756-4729-a6dc-9e25b823e7be","742ed384-456e-4a46-b422-5d3d313078b8","{""num_scrambled_semantic"":""8"",""num_scrambled_causal"":""4"",""num_scrambled_schematic"":""4"",""participantId"":""51F71C531F4E4EB5A4686654C67B0FEA"",""assignmentId"":""57bebaac-6756-4729-a6dc-9e25b823e7be"",""projectId"":""742ed384-456e-4a46-b422-5d3d313078b8""}","https://test12345.live/?num_scrambled_semantic=8&num_scrambled_causal=4&num_scrambled_schematic=4&participantId=51F71C531F4E4EB5A4686654C67B0FEA&assignmentId=57bebaac-6756-4729-a6dc-9e25b823e7be&projectId=742ed384-456e-4a46-b422-5d3d313078b8","51F71C531F4E4EB5A4686654C67B0FEA-2025-08-07-05-44-18","","null","","images/causal_sequence/saving_a_cat_causal/saving_a_cat_causal_9.png","null","",""
"","","","","","image-button-response","38","279736","0.0-10.0-1.0-1.4","51F71C531F4E4EB5A4686654C67B0FEA","51F71C531F4E4EB5A4686654C67B0FEA","57bebaac-6756-4729-a6dc-9e25b823e7be","742ed384-456e-4a46-b422-5d3d313078b8","{""num_scrambled_semantic"":""8"",""num_scrambled_causal"":""4"",""num_scrambled_schematic"":""4"",""participantId"":""51F71C531F4E4EB5A4686654C67B0FEA"",""assignmentId"":""57bebaac-6756-4729-a6dc-9e25b823e7be"",""projectId"":""742ed384-456e-4a46-b422-5d3d313078b8""}","https://test12345.live/?num_scrambled_semantic=8&num_scrambled_causal=4&num_scrambled_schematic=4&participantId=51F71C531F4E4EB5A4686654C67B0FEA&assignmentId=57bebaac-6756-4729-a6dc-9e25b823e7be&projectId=742ed384-456e-4a46-b422-5d3d313078b8","51F71C531F4E4EB5A4686654C67B0FEA-2025-08-07-05-44-18","","1276","","images/causal_sequence/saving_a_cat_causal/saving_a_cat_causal_9.png","0","",""
"","","","","","image-button-response","39","281539","0.0-10.0-1.0-2.4","51F71C531F4E4EB5A4686654C67B0FEA","51F71C531F4E4EB5A4686654C67B0FEA","57bebaac-6756-4729-a6dc-9e25b823e7be","742ed384-456e-4a46-b422-5d3d313078b8","{""num_scrambled_semantic"":""8"",""num_scrambled_causal"":""4"",""num_scrambled_schematic"":""4"",""participantId"":""51F71C531F4E4EB5A4686654C67B0FEA"",""assignmentId"":""57bebaac-6756-4729-a6dc-9e25b823e7be"",""projectId"":""742ed384-456e-4a46-b422-5d3d313078b8""}","https://test12345.live/?num_scrambled_semantic=8&num_scrambled_causal=4&num_scrambled_schematic=4&participantId=51F71C531F4E4EB5A4686654C67B0FEA&assignmentId=57bebaac-6756-4729-a6dc-9e25b823e7be&projectId=742ed384-456e-4a46-b422-5d3d313078b8","51F71C531F4E4EB5A4686654C67B0FEA-2025-08-07-05-44-18","","null","","[]","null","",""
"","","","","","image-button-response","40","286046","0.0-10.0-1.0-0.5","51F71C531F4E4EB5A4686654C67B0FEA","51F71C531F4E4EB5A4686654C67B0FEA","57bebaac-6756-4729-a6dc-9e25b823e7be","742ed384-456e-4a46-b422-5d3d313078b8","{""num_scrambled_semantic"":""8"",""num_scrambled_causal"":""4"",""num_scrambled_schematic"":""4"",""participantId"":""51F71C531F4E4EB5A4686654C67B0FEA"",""assignmentId"":""57bebaac-6756-4729-a6dc-9e25b823e7be"",""projectId"":""742ed384-456e-4a46-b422-5d3d313078b8""}","https://test12345.live/?num_scrambled_semantic=8&num_scrambled_causal=4&num_scrambled_schematic=4&participantId=51F71C531F4E4EB5A4686654C67B0FEA&assignmentId=57bebaac-6756-4729-a6dc-9e25b823e7be&projectId=742ed384-456e-4a46-b422-5d3d313078b8","51F71C531F4E4EB5A4686654C67B0FEA-2025-08-07-05-44-18","","null","","images/causal_sequence/saving_a_cat_causal/saving_a_cat_causal_8.png","null","",""
"","","","","","image-button-response","41","287633","0.0-10.0-1.0-1.5","51F71C531F4E4EB5A4686654C67B0FEA","51F71C531F4E4EB5A4686654C67B0FEA","57bebaac-6756-4729-a6dc-9e25b823e7be","742ed384-456e-4a46-b422-5d3d313078b8","{""num_scrambled_semantic"":""8"",""num_scrambled_causal"":""4"",""num_scrambled_schematic"":""4"",""participantId"":""51F71C531F4E4EB5A4686654C67B0FEA"",""assignmentId"":""57bebaac-6756-4729-a6dc-9e25b823e7be"",""projectId"":""742ed384-456e-4a46-b422-5d3d313078b8""}","https://test12345.live/?num_scrambled_semantic=8&num_scrambled_causal=4&num_scrambled_schematic=4&participantId=51F71C531F4E4EB5A4686654C67B0FEA&assignmentId=57bebaac-6756-4729-a6dc-9e25b823e7be&projectId=742ed384-456e-4a46-b422-5d3d313078b8","51F71C531F4E4EB5A4686654C67B0FEA-2025-08-07-05-44-18","","1585","","images/causal_sequence/saving_a_cat_causal/saving_a_cat_causal_8.png","0","",""
"","","","","","image-button-response","42","289439","0.0-10.0-1.0-2.5","51F71C531F4E4EB5A4686654C67B0FEA","51F71C531F4E4EB5A4686654C67B0FEA","57bebaac-6756-4729-a6dc-9e25b823e7be","742ed384-456e-4a46-b422-5d3d313078b8","{""num_scrambled_semantic"":""8"",""num_scrambled_causal"":""4"",""num_scrambled_schematic"":""4"",""participantId"":""51F71C531F4E4EB5A4686654C67B0FEA"",""assignmentId"":""57bebaac-6756-4729-a6dc-9e25b823e7be"",""projectId"":""742ed384-456e-4a46-b422-5d3d313078b8""}","https://test12345.live/?num_scrambled_semantic=8&num_scrambled_causal=4&num_scrambled_schematic=4&participantId=51F71C531F4E4EB5A4686654C67B0FEA&assignmentId=57bebaac-6756-4729-a6dc-9e25b823e7be&projectId=742ed384-456e-4a46-b422-5d3d313078b8","51F71C531F4E4EB5A4686654C67B0FEA-2025-08-07-05-44-18","","null","","[]","null","",""
"","","","","","image-button-response","43","293942","0.0-10.0-1.0-0.6","51F71C531F4E4EB5A4686654C67B0FEA","51F71C531F4E4EB5A4686654C67B0FEA","57bebaac-6756-4729-a6dc-9e25b823e7be","742ed384-456e-4a46-b422-5d3d313078b8","{""num_scrambled_semantic"":""8"",""num_scrambled_causal"":""4"",""num_scrambled_schematic"":""4"",""participantId"":""51F71C531F4E4EB5A4686654C67B0FEA"",""assignmentId"":""57bebaac-6756-4729-a6dc-9e25b823e7be"",""projectId"":""742ed384-456e-4a46-b422-5d3d313078b8""}","https://test12345.live/?num_scrambled_semantic=8&num_scrambled_causal=4&num_scrambled_schematic=4&participantId=51F71C531F4E4EB5A4686654C67B0FEA&assignmentId=57bebaac-6756-4729-a6dc-9e25b823e7be&projectId=742ed384-456e-4a46-b422-5d3d313078b8","51F71C531F4E4EB5A4686654C67B0FEA-2025-08-07-05-44-18","","null","","images/causal_sequence/saving_a_cat_causal/saving_a_cat_causal_2.png","null","",""
"","","","","","image-button-response","44","294119","0.0-10.0-1.0-1.6","51F71C531F4E4EB5A4686654C67B0FEA","51F71C531F4E4EB5A4686654C67B0FEA","57bebaac-6756-4729-a6dc-9e25b823e7be","742ed384-456e-4a46-b422-5d3d313078b8","{""num_scrambled_semantic"":""8"",""num_scrambled_causal"":""4"",""num_scrambled_schematic"":""4"",""participantId"":""51F71C531F4E4EB5A4686654C67B0FEA"",""assignmentId"":""57bebaac-6756-4729-a6dc-9e25b823e7be"",""projectId"":""742ed384-456e-4a46-b422-5d3d313078b8""}","https://test12345.live/?num_scrambled_semantic=8&num_scrambled_causal=4&num_scrambled_schematic=4&participantId=51F71C531F4E4EB5A4686654C67B0FEA&assignmentId=57bebaac-6756-4729-a6dc-9e25b823e7be&projectId=742ed384-456e-4a46-b422-5d3d313078b8","51F71C531F4E4EB5A4686654C67B0FEA-2025-08-07-05-44-18","","175","","images/causal_sequence/saving_a_cat_causal/saving_a_cat_causal_2.png","0","",""
"","","","","","image-button-response","45","295922","0.0-10.0-1.0-2.6","51F71C531F4E4EB5A4686654C67B0FEA","51F71C531F4E4EB5A4686654C67B0FEA","57bebaac-6756-4729-a6dc-9e25b823e7be","742ed384-456e-4a46-b422-5d3d313078b8","{""num_scrambled_semantic"":""8"",""num_scrambled_causal"":""4"",""num_scrambled_schematic"":""4"",""participantId"":""51F71C531F4E4EB5A4686654C67B0FEA"",""assignmentId"":""57bebaac-6756-4729-a6dc-9e25b823e7be"",""projectId"":""742ed384-456e-4a46-b422-5d3d313078b8""}","https://test12345.live/?num_scrambled_semantic=8&num_scrambled_causal=4&num_scrambled_schematic=4&participantId=51F71C531F4E4EB5A4686654C67B0FEA&assignmentId=57bebaac-6756-4729-a6dc-9e25b823e7be&projectId=742ed384-456e-4a46-b422-5d3d313078b8","51F71C531F4E4EB5A4686654C67B0FEA-2025-08-07-05-44-18","","null","","[]","null","",""
"","","","","","image-button-response","46","300428","0.0-10.0-1.0-0.7","51F71C531F4E4EB5A4686654C67B0FEA","51F71C531F4E4EB5A4686654C67B0FEA","57bebaac-6756-4729-a6dc-9e25b823e7be","742ed384-456e-4a46-b422-5d3d313078b8","{""num_scrambled_semantic"":""8"",""num_scrambled_causal"":""4"",""num_scrambled_schematic"":""4"",""participantId"":""51F71C531F4E4EB5A4686654C67B0FEA"",""assignmentId"":""57bebaac-6756-4729-a6dc-9e25b823e7be"",""projectId"":""742ed384-456e-4a46-b422-5d3d313078b8""}","https://test12345.live/?num_scrambled_semantic=8&num_scrambled_causal=4&num_scrambled_schematic=4&participantId=51F71C531F4E4EB5A4686654C67B0FEA&assignmentId=57bebaac-6756-4729-a6dc-9e25b823e7be&projectId=742ed384-456e-4a46-b422-5d3d313078b8","51F71C531F4E4EB5A4686654C67B0FEA-2025-08-07-05-44-18","","null","","images/causal_sequence/saving_a_cat_causal/saving_a_cat_causal_3.png","null","",""
"","","","","","image-button-response","47","301801","0.0-10.0-1.0-1.7","51F71C531F4E4EB5A4686654C67B0FEA","51F71C531F4E4EB5A4686654C67B0FEA","57bebaac-6756-4729-a6dc-9e25b823e7be","742ed384-456e-4a46-b422-5d3d313078b8","{""num_scrambled_semantic"":""8"",""num_scrambled_causal"":""4"",""num_scrambled_schematic"":""4"",""participantId"":""51F71C531F4E4EB5A4686654C67B0FEA"",""assignmentId"":""57bebaac-6756-4729-a6dc-9e25b823e7be"",""projectId"":""742ed384-456e-4a46-b422-5d3d313078b8""}","https://test12345.live/?num_scrambled_semantic=8&num_scrambled_causal=4&num_scrambled_schematic=4&participantId=51F71C531F4E4EB5A4686654C67B0FEA&assignmentId=57bebaac-6756-4729-a6dc-9e25b823e7be&projectId=742ed384-456e-4a46-b422-5d3d313078b8","51F71C531F4E4EB5A4686654C67B0FEA-2025-08-07-05-44-18","","1371","","images/causal_sequence/saving_a_cat_causal/saving_a_cat_causal_3.png","1","",""
"","","","","","image-button-response","48","303607","0.0-10.0-1.0-2.7","51F71C531F4E4EB5A4686654C67B0FEA","51F71C531F4E4EB5A4686654C67B0FEA","57bebaac-6756-4729-a6dc-9e25b823e7be","742ed384-456e-4a46-b422-5d3d313078b8","{""num_scrambled_semantic"":""8"",""num_scrambled_causal"":""4"",""num_scrambled_schematic"":""4"",""participantId"":""51F71C531F4E4EB5A4686654C67B0FEA"",""assignmentId"":""57bebaac-6756-4729-a6dc-9e25b823e7be"",""projectId"":""742ed384-456e-4a46-b422-5d3d313078b8""}","https://test12345.live/?num_scrambled_semantic=8&num_scrambled_causal=4&num_scrambled_schematic=4&participantId=51F71C531F4E4EB5A4686654C67B0FEA&assignmentId=57bebaac-6756-4729-a6dc-9e25b823e7be&projectId=742ed384-456e-4a46-b422-5d3d313078b8","51F71C531F4E4EB5A4686654C67B0FEA-2025-08-07-05-44-18","","null","","[]","null","",""
"","","","","","image-button-response","49","308114","0.0-10.0-1.0-0.8","51F71C531F4E4EB5A4686654C67B0FEA","51F71C531F4E4EB5A4686654C67B0FEA","57bebaac-6756-4729-a6dc-9e25b823e7be","742ed384-456e-4a46-b422-5d3d313078b8","{""num_scrambled_semantic"":""8"",""num_scrambled_causal"":""4"",""num_scrambled_schematic"":""4"",""participantId"":""51F71C531F4E4EB5A4686654C67B0FEA"",""assignmentId"":""57bebaac-6756-4729-a6dc-9e25b823e7be"",""projectId"":""742ed384-456e-4a46-b422-5d3d313078b8""}","https://test12345.live/?num_scrambled_semantic=8&num_scrambled_causal=4&num_scrambled_schematic=4&participantId=51F71C531F4E4EB5A4686654C67B0FEA&assignmentId=57bebaac-6756-4729-a6dc-9e25b823e7be&projectId=742ed384-456e-4a46-b422-5d3d313078b8","51F71C531F4E4EB5A4686654C67B0FEA-2025-08-07-05-44-18","","null","","images/causal_sequence/saving_a_cat_causal/saving_a_cat_causal_4.png","null","",""
"","","","","","image-button-response","50","308956","0.0-10.0-1.0-1.8","51F71C531F4E4EB5A4686654C67B0FEA","51F71C531F4E4EB5A4686654C67B0FEA","57bebaac-6756-4729-a6dc-9e25b823e7be","742ed384-456e-4a46-b422-5d3d313078b8","{""num_scrambled_semantic"":""8"",""num_scrambled_causal"":""4"",""num_scrambled_schematic"":""4"",""participantId"":""51F71C531F4E4EB5A4686654C67B0FEA"",""assignmentId"":""57bebaac-6756-4729-a6dc-9e25b823e7be"",""projectId"":""742ed384-456e-4a46-b422-5d3d313078b8""}","https://test12345.live/?num_scrambled_semantic=8&num_scrambled_causal=4&num_scrambled_schematic=4&participantId=51F71C531F4E4EB5A4686654C67B0FEA&assignmentId=57bebaac-6756-4729-a6dc-9e25b823e7be&projectId=742ed384-456e-4a46-b422-5d3d313078b8","51F71C531F4E4EB5A4686654C67B0FEA-2025-08-07-05-44-18","","841","","images/causal_sequence/saving_a_cat_causal/saving_a_cat_causal_4.png","0","",""
"","","","","","image-button-response","51","310760","0.0-10.0-1.0-2.8","51F71C531F4E4EB5A4686654C67B0FEA","51F71C531F4E4EB5A4686654C67B0FEA","57bebaac-6756-4729-a6dc-9e25b823e7be","742ed384-456e-4a46-b422-5d3d313078b8","{""num_scrambled_semantic"":""8"",""num_scrambled_causal"":""4"",""num_scrambled_schematic"":""4"",""participantId"":""51F71C531F4E4EB5A4686654C67B0FEA"",""assignmentId"":""57bebaac-6756-4729-a6dc-9e25b823e7be"",""projectId"":""742ed384-456e-4a46-b422-5d3d313078b8""}","https://test12345.live/?num_scrambled_semantic=8&num_scrambled_causal=4&num_scrambled_schematic=4&participantId=51F71C531F4E4EB5A4686654C67B0FEA&assignmentId=57bebaac-6756-4729-a6dc-9e25b823e7be&projectId=742ed384-456e-4a46-b422-5d3d313078b8","51F71C531F4E4EB5A4686654C67B0FEA-2025-08-07-05-44-18","","null","","[]","null","",""
"","","","","","image-button-response","52","315263","0.0-10.0-1.0-0.9","51F71C531F4E4EB5A4686654C67B0FEA","51F71C531F4E4EB5A4686654C67B0FEA","57bebaac-6756-4729-a6dc-9e25b823e7be","742ed384-456e-4a46-b422-5d3d313078b8","{""num_scrambled_semantic"":""8"",""num_scrambled_causal"":""4"",""num_scrambled_schematic"":""4"",""participantId"":""51F71C531F4E4EB5A4686654C67B0FEA"",""assignmentId"":""57bebaac-6756-4729-a6dc-9e25b823e7be"",""projectId"":""742ed384-456e-4a46-b422-5d3d313078b8""}","https://test12345.live/?num_scrambled_semantic=8&num_scrambled_causal=4&num_scrambled_schematic=4&participantId=51F71C531F4E4EB5A4686654C67B0FEA&assignmentId=57bebaac-6756-4729-a6dc-9e25b823e7be&projectId=742ed384-456e-4a46-b422-5d3d313078b8","51F71C531F4E4EB5A4686654C67B0FEA-2025-08-07-05-44-18","","null","","images/causal_sequence/saving_a_cat_causal/saving_a_cat_causal_5.png","null","",""
"","","","","","image-button-response","53","316952","0.0-10.0-1.0-1.9","51F71C531F4E4EB5A4686654C67B0FEA","51F71C531F4E4EB5A4686654C67B0FEA","57bebaac-6756-4729-a6dc-9e25b823e7be","742ed384-456e-4a46-b422-5d3d313078b8","{""num_scrambled_semantic"":""8"",""num_scrambled_causal"":""4"",""num_scrambled_schematic"":""4"",""participantId"":""51F71C531F4E4EB5A4686654C67B0FEA"",""assignmentId"":""57bebaac-6756-4729-a6dc-9e25b823e7be"",""projectId"":""742ed384-456e-4a46-b422-5d3d313078b8""}","https://test12345.live/?num_scrambled_semantic=8&num_scrambled_causal=4&num_scrambled_schematic=4&participantId=51F71C531F4E4EB5A4686654C67B0FEA&assignmentId=57bebaac-6756-4729-a6dc-9e25b823e7be&projectId=742ed384-456e-4a46-b422-5d3d313078b8","51F71C531F4E4EB5A4686654C67B0FEA-2025-08-07-05-44-18","","1688","","images/causal_sequence/saving_a_cat_causal/saving_a_cat_causal_5.png","0","",""
"","","","","","image-button-response","54","318754","0.0-10.0-1.0-2.9","51F71C531F4E4EB5A4686654C67B0FEA","51F71C531F4E4EB5A4686654C67B0FEA","57bebaac-6756-4729-a6dc-9e25b823e7be","742ed384-456e-4a46-b422-5d3d313078b8","{""num_scrambled_semantic"":""8"",""num_scrambled_causal"":""4"",""num_scrambled_schematic"":""4"",""participantId"":""51F71C531F4E4EB5A4686654C67B0FEA"",""assignmentId"":""57bebaac-6756-4729-a6dc-9e25b823e7be"",""projectId"":""742ed384-456e-4a46-b422-5d3d313078b8""}","https://test12345.live/?num_scrambled_semantic=8&num_scrambled_causal=4&num_scrambled_schematic=4&participantId=51F71C531F4E4EB5A4686654C67B0FEA&assignmentId=57bebaac-6756-4729-a6dc-9e25b823e7be&projectId=742ed384-456e-4a46-b422-5d3d313078b8","51F71C531F4E4EB5A4686654C67B0FEA-2025-08-07-05-44-18","","null","","[]","null","",""
"","","","","","html-audio-response","55","354126","0.0-11.0","51F71C531F4E4EB5A4686654C67B0FEA","51F71C531F4E4EB5A4686654C67B0FEA","57bebaac-6756-4729-a6dc-9e25b823e7be","742ed384-456e-4a46-b422-5d3d313078b8","{""num_scrambled_semantic"":""8"",""num_scrambled_causal"":""4"",""num_scrambled_schematic"":""4"",""participantId"":""51F71C531F4E4EB5A4686654C67B0FEA"",""assignmentId"":""57bebaac-6756-4729-a6dc-9e25b823e7be"",""projectId"":""742ed384-456e-4a46-b422-5d3d313078b8""}","https://test12345.live/?num_scrambled_semantic=8&num_scrambled_causal=4&num_scrambled_schematic=4&participantId=51F71C531F4E4EB5A4686654C67B0FEA&assignmentId=57bebaac-6756-4729-a6dc-9e25b823e7be&projectId=742ed384-456e-4a46-b422-5d3d313078b8","51F71C531F4E4EB5A4686654C67B0FEA-2025-08-07-05-44-18","","33780","","[""<span style=\""color: red; font-size: 24px\""> NOW RECORDING</span><p>Please say out loud all the images you saw, in the exact order you saw them. Try to recall as many images as you can, but remember: getting the order right is more important than the number of images you recall.</p>""]","","1","saving_a_cat_causal"
"","","","","","image-button-response","56","360134","0.0-12.0-0.0","51F71C531F4E4EB5A4686654C67B0FEA","51F71C531F4E4EB5A4686654C67B0FEA","57bebaac-6756-4729-a6dc-9e25b823e7be","742ed384-456e-4a46-b422-5d3d313078b8","{""num_scrambled_semantic"":""8"",""num_scrambled_causal"":""4"",""num_scrambled_schematic"":""4"",""participantId"":""51F71C531F4E4EB5A4686654C67B0FEA"",""assignmentId"":""57bebaac-6756-4729-a6dc-9e25b823e7be"",""projectId"":""742ed384-456e-4a46-b422-5d3d313078b8""}","https://test12345.live/?num_scrambled_semantic=8&num_scrambled_causal=4&num_scrambled_schematic=4&participantId=51F71C531F4E4EB5A4686654C67B0FEA&assignmentId=57bebaac-6756-4729-a6dc-9e25b823e7be&projectId=742ed384-456e-4a46-b422-5d3d313078b8","51F71C531F4E4EB5A4686654C67B0FEA-2025-08-07-05-44-18","","null","","images/semantic_sequence/housework_semantic/housework_semantic_0.png","null","",""
"","","","","","image-button-response","57","364642","0.0-12.0-1.0-0.0","51F71C531F4E4EB5A4686654C67B0FEA","51F71C531F4E4EB5A4686654C67B0FEA","57bebaac-6756-4729-a6dc-9e25b823e7be","742ed384-456e-4a46-b422-5d3d313078b8","{""num_scrambled_semantic"":""8"",""num_scrambled_causal"":""4"",""num_scrambled_schematic"":""4"",""participantId"":""51F71C531F4E4EB5A4686654C67B0FEA"",""assignmentId"":""57bebaac-6756-4729-a6dc-9e25b823e7be"",""projectId"":""742ed384-456e-4a46-b422-5d3d313078b8""}","https://test12345.live/?num_scrambled_semantic=8&num_scrambled_causal=4&num_scrambled_schematic=4&participantId=51F71C531F4E4EB5A4686654C67B0FEA&assignmentId=57bebaac-6756-4729-a6dc-9e25b823e7be&projectId=742ed384-456e-4a46-b422-5d3d313078b8","51F71C531F4E4EB5A4686654C67B0FEA-2025-08-07-05-44-18","","null","","images/semantic_sequence/housework_semantic/housework_semantic_ten.png","null","",""
"","","","","","image-button-response","58","367290","0.0-12.0-1.0-1.0","51F71C531F4E4EB5A4686654C67B0FEA","51F71C531F4E4EB5A4686654C67B0FEA","57bebaac-6756-4729-a6dc-9e25b823e7be","742ed384-456e-4a46-b422-5d3d313078b8","{""num_scrambled_semantic"":""8"",""num_scrambled_causal"":""4"",""num_scrambled_schematic"":""4"",""participantId"":""51F71C531F4E4EB5A4686654C67B0FEA"",""assignmentId"":""57bebaac-6756-4729-a6dc-9e25b823e7be"",""projectId"":""742ed384-456e-4a46-b422-5d3d313078b8""}","https://test12345.live/?num_scrambled_semantic=8&num_scrambled_causal=4&num_scrambled_schematic=4&participantId=51F71C531F4E4EB5A4686654C67B0FEA&assignmentId=57bebaac-6756-4729-a6dc-9e25b823e7be&projectId=742ed384-456e-4a46-b422-5d3d313078b8","51F71C531F4E4EB5A4686654C67B0FEA-2025-08-07-05-44-18","","2646","","images/semantic_sequence/housework_semantic/housework_semantic_ten.png","0","",""
"","","","","","image-button-response","59","369094","0.0-12.0-1.0-2.0","51F71C531F4E4EB5A4686654C67B0FEA","51F71C531F4E4EB5A4686654C67B0FEA","57bebaac-6756-4729-a6dc-9e25b823e7be","742ed384-456e-4a46-b422-5d3d313078b8","{""num_scrambled_semantic"":""8"",""num_scrambled_causal"":""4"",""num_scrambled_schematic"":""4"",""participantId"":""51F71C531F4E4EB5A4686654C67B0FEA"",""assignmentId"":""57bebaac-6756-4729-a6dc-9e25b823e7be"",""projectId"":""742ed384-456e-4a46-b422-5d3d313078b8""}","https://test12345.live/?num_scrambled_semantic=8&num_scrambled_causal=4&num_scrambled_schematic=4&participantId=51F71C531F4E4EB5A4686654C67B0FEA&assignmentId=57bebaac-6756-4729-a6dc-9e25b823e7be&projectId=742ed384-456e-4a46-b422-5d3d313078b8","51F71C531F4E4EB5A4686654C67B0FEA-2025-08-07-05-44-18","","null","","[]","null","",""
"","","","","","image-button-response","60","373599","0.0-12.0-1.0-0.1","51F71C531F4E4EB5A4686654C67B0FEA","51F71C531F4E4EB5A4686654C67B0FEA","57bebaac-6756-4729-a6dc-9e25b823e7be","742ed384-456e-4a46-b422-5d3d313078b8","{""num_scrambled_semantic"":""8"",""num_scrambled_causal"":""4"",""num_scrambled_schematic"":""4"",""participantId"":""51F71C531F4E4EB5A4686654C67B0FEA"",""assignmentId"":""57bebaac-6756-4729-a6dc-9e25b823e7be"",""projectId"":""742ed384-456e-4a46-b422-5d3d313078b8""}","https://test12345.live/?num_scrambled_semantic=8&num_scrambled_causal=4&num_scrambled_schematic=4&participantId=51F71C531F4E4EB5A4686654C67B0FEA&assignmentId=57bebaac-6756-4729-a6dc-9e25b823e7be&projectId=742ed384-456e-4a46-b422-5d3d313078b8","51F71C531F4E4EB5A4686654C67B0FEA-2025-08-07-05-44-18","","null","","images/semantic_sequence/housework_semantic/housework_semantic_8.png","null","",""
"","","","","","image-button-response","61","375922","0.0-12.0-1.0-1.1","51F71C531F4E4EB5A4686654C67B0FEA","51F71C531F4E4EB5A4686654C67B0FEA","57bebaac-6756-4729-a6dc-9e25b823e7be","742ed384-456e-4a46-b422-5d3d313078b8","{""num_scrambled_semantic"":""8"",""num_scrambled_causal"":""4"",""num_scrambled_schematic"":""4"",""participantId"":""51F71C531F4E4EB5A4686654C67B0FEA"",""assignmentId"":""57bebaac-6756-4729-a6dc-9e25b823e7be"",""projectId"":""742ed384-456e-4a46-b422-5d3d313078b8""}","https://test12345.live/?num_scrambled_semantic=8&num_scrambled_causal=4&num_scrambled_schematic=4&participantId=51F71C531F4E4EB5A4686654C67B0FEA&assignmentId=57bebaac-6756-4729-a6dc-9e25b823e7be&projectId=742ed384-456e-4a46-b422-5d3d313078b8","51F71C531F4E4EB5A4686654C67B0FEA-2025-08-07-05-44-18","","2321","","images/semantic_sequence/housework_semantic/housework_semantic_8.png","0","",""
"","","","","","image-button-response","62","377729","0.0-12.0-1.0-2.1","51F71C531F4E4EB5A4686654C67B0FEA","51F71C531F4E4EB5A4686654C67B0FEA","57bebaac-6756-4729-a6dc-9e25b823e7be","742ed384-456e-4a46-b422-5d3d313078b8","{""num_scrambled_semantic"":""8"",""num_scrambled_causal"":""4"",""num_scrambled_schematic"":""4"",""participantId"":""51F71C531F4E4EB5A4686654C67B0FEA"",""assignmentId"":""57bebaac-6756-4729-a6dc-9e25b823e7be"",""projectId"":""742ed384-456e-4a46-b422-5d3d313078b8""}","https://test12345.live/?num_scrambled_semantic=8&num_scrambled_causal=4&num_scrambled_schematic=4&participantId=51F71C531F4E4EB5A4686654C67B0FEA&assignmentId=57bebaac-6756-4729-a6dc-9e25b823e7be&projectId=742ed384-456e-4a46-b422-5d3d313078b8","51F71C531F4E4EB5A4686654C67B0FEA-2025-08-07-05-44-18","","null","","[]","null","",""
"","","","","","image-button-response","63","382234","0.0-12.0-1.0-0.2","51F71C531F4E4EB5A4686654C67B0FEA","51F71C531F4E4EB5A4686654C67B0FEA","57bebaac-6756-4729-a6dc-9e25b823e7be","742ed384-456e-4a46-b422-5d3d313078b8","{""num_scrambled_semantic"":""8"",""num_scrambled_causal"":""4"",""num_scrambled_schematic"":""4"",""participantId"":""51F71C531F4E4EB5A4686654C67B0FEA"",""assignmentId"":""57bebaac-6756-4729-a6dc-9e25b823e7be"",""projectId"":""742ed384-456e-4a46-b422-5d3d313078b8""}","https://test12345.live/?num_scrambled_semantic=8&num_scrambled_causal=4&num_scrambled_schematic=4&participantId=51F71C531F4E4EB5A4686654C67B0FEA&assignmentId=57bebaac-6756-4729-a6dc-9e25b823e7be&projectId=742ed384-456e-4a46-b422-5d3d313078b8","51F71C531F4E4EB5A4686654C67B0FEA-2025-08-07-05-44-18","","null","","images/semantic_sequence/housework_semantic/housework_semantic_6.png","null","",""
"","","","","","image-button-response","64","383213","0.0-12.0-1.0-1.2","51F71C531F4E4EB5A4686654C67B0FEA","51F71C531F4E4EB5A4686654C67B0FEA","57bebaac-6756-4729-a6dc-9e25b823e7be","742ed384-456e-4a46-b422-5d3d313078b8","{""num_scrambled_semantic"":""8"",""num_scrambled_causal"":""4"",""num_scrambled_schematic"":""4"",""participantId"":""51F71C531F4E4EB5A4686654C67B0FEA"",""assignmentId"":""57bebaac-6756-4729-a6dc-9e25b823e7be"",""projectId"":""742ed384-456e-4a46-b422-5d3d313078b8""}","https://test12345.live/?num_scrambled_semantic=8&num_scrambled_causal=4&num_scrambled_schematic=4&participantId=51F71C531F4E4EB5A4686654C67B0FEA&assignmentId=57bebaac-6756-4729-a6dc-9e25b823e7be&projectId=742ed384-456e-4a46-b422-5d3d313078b8","51F71C531F4E4EB5A4686654C67B0FEA-2025-08-07-05-44-18","","977","","images/semantic_sequence/housework_semantic/housework_semantic_6.png","0","",""
"","","","","","image-button-response","65","385018","0.0-12.0-1.0-2.2","51F71C531F4E4EB5A4686654C67B0FEA","51F71C531F4E4EB5A4686654C67B0FEA","57bebaac-6756-4729-a6dc-9e25b823e7be","742ed384-456e-4a46-b422-5d3d313078b8","{""num_scrambled_semantic"":""8"",""num_scrambled_causal"":""4"",""num_scrambled_schematic"":""4"",""participantId"":""51F71C531F4E4EB5A4686654C67B0FEA"",""assignmentId"":""57bebaac-6756-4729-a6dc-9e25b823e7be"",""projectId"":""742ed384-456e-4a46-b422-5d3d313078b8""}","https://test12345.live/?num_scrambled_semantic=8&num_scrambled_causal=4&num_scrambled_schematic=4&participantId=51F71C531F4E4EB5A4686654C67B0FEA&assignmentId=57bebaac-6756-4729-a6dc-9e25b823e7be&projectId=742ed384-456e-4a46-b422-5d3d313078b8","51F71C531F4E4EB5A4686654C67B0FEA-2025-08-07-05-44-18","","null","","[]","null","",""
"","","","","","image-button-response","66","389520","0.0-12.0-1.0-0.3","51F71C531F4E4EB5A4686654C67B0FEA","51F71C531F4E4EB5A4686654C67B0FEA","57bebaac-6756-4729-a6dc-9e25b823e7be","742ed384-456e-4a46-b422-5d3d313078b8","{""num_scrambled_semantic"":""8"",""num_scrambled_causal"":""4"",""num_scrambled_schematic"":""4"",""participantId"":""51F71C531F4E4EB5A4686654C67B0FEA"",""assignmentId"":""57bebaac-6756-4729-a6dc-9e25b823e7be"",""projectId"":""742ed384-456e-4a46-b422-5d3d313078b8""}","https://test12345.live/?num_scrambled_semantic=8&num_scrambled_causal=4&num_scrambled_schematic=4&participantId=51F71C531F4E4EB5A4686654C67B0FEA&assignmentId=57bebaac-6756-4729-a6dc-9e25b823e7be&projectId=742ed384-456e-4a46-b422-5d3d313078b8","51F71C531F4E4EB5A4686654C67B0FEA-2025-08-07-05-44-18","","null","","images/semantic_sequence/housework_semantic/housework_semantic_5.png","null","",""
"","","","","","image-button-response","67","391591","0.0-12.0-1.0-1.3","51F71C531F4E4EB5A4686654C67B0FEA","51F71C531F4E4EB5A4686654C67B0FEA","57bebaac-6756-4729-a6dc-9e25b823e7be","742ed384-456e-4a46-b422-5d3d313078b8","{""num_scrambled_semantic"":""8"",""num_scrambled_causal"":""4"",""num_scrambled_schematic"":""4"",""participantId"":""51F71C531F4E4EB5A4686654C67B0FEA"",""assignmentId"":""57bebaac-6756-4729-a6dc-9e25b823e7be"",""projectId"":""742ed384-456e-4a46-b422-5d3d313078b8""}","https://test12345.live/?num_scrambled_semantic=8&num_scrambled_causal=4&num_scrambled_schematic=4&participantId=51F71C531F4E4EB5A4686654C67B0FEA&assignmentId=57bebaac-6756-4729-a6dc-9e25b823e7be&projectId=742ed384-456e-4a46-b422-5d3d313078b8","51F71C531F4E4EB5A4686654C67B0FEA-2025-08-07-05-44-18","","2070","","images/semantic_sequence/housework_semantic/housework_semantic_5.png","0","",""
"","","","","","image-button-response","68","393397","0.0-12.0-1.0-2.3","51F71C531F4E4EB5A4686654C67B0FEA","51F71C531F4E4EB5A4686654C67B0FEA","57bebaac-6756-4729-a6dc-9e25b823e7be","742ed384-456e-4a46-b422-5d3d313078b8","{""num_scrambled_semantic"":""8"",""num_scrambled_causal"":""4"",""num_scrambled_schematic"":""4"",""participantId"":""51F71C531F4E4EB5A4686654C67B0FEA"",""assignmentId"":""57bebaac-6756-4729-a6dc-9e25b823e7be"",""projectId"":""742ed384-456e-4a46-b422-5d3d313078b8""}","https://test12345.live/?num_scrambled_semantic=8&num_scrambled_causal=4&num_scrambled_schematic=4&participantId=51F71C531F4E4EB5A4686654C67B0FEA&assignmentId=57bebaac-6756-4729-a6dc-9e25b823e7be&projectId=742ed384-456e-4a46-b422-5d3d313078b8","51F71C531F4E4EB5A4686654C67B0FEA-2025-08-07-05-44-18","","null","","[]","null","",""
"","","","","","image-button-response","69","397900","0.0-12.0-1.0-0.4","51F71C531F4E4EB5A4686654C67B0FEA","51F71C531F4E4EB5A4686654C67B0FEA","57bebaac-6756-4729-a6dc-9e25b823e7be","742ed384-456e-4a46-b422-5d3d313078b8","{""num_scrambled_semantic"":""8"",""num_scrambled_causal"":""4"",""num_scrambled_schematic"":""4"",""participantId"":""51F71C531F4E4EB5A4686654C67B0FEA"",""assignmentId"":""57bebaac-6756-4729-a6dc-9e25b823e7be"",""projectId"":""742ed384-456e-4a46-b422-5d3d313078b8""}","https://test12345.live/?num_scrambled_semantic=8&num_scrambled_causal=4&num_scrambled_schematic=4&participantId=51F71C531F4E4EB5A4686654C67B0FEA&assignmentId=57bebaac-6756-4729-a6dc-9e25b823e7be&projectId=742ed384-456e-4a46-b422-5d3d313078b8","51F71C531F4E4EB5A4686654C67B0FEA-2025-08-07-05-44-18","","null","","images/semantic_sequence/housework_semantic/housework_semantic_4.png","null","",""
"","","","","","image-button-response","70","398657","0.0-12.0-1.0-1.4","51F71C531F4E4EB5A4686654C67B0FEA","51F71C531F4E4EB5A4686654C67B0FEA","57bebaac-6756-4729-a6dc-9e25b823e7be","742ed384-456e-4a46-b422-5d3d313078b8","{""num_scrambled_semantic"":""8"",""num_scrambled_causal"":""4"",""num_scrambled_schematic"":""4"",""participantId"":""51F71C531F4E4EB5A4686654C67B0FEA"",""assignmentId"":""57bebaac-6756-4729-a6dc-9e25b823e7be"",""projectId"":""742ed384-456e-4a46-b422-5d3d313078b8""}","https://test12345.live/?num_scrambled_semantic=8&num_scrambled_causal=4&num_scrambled_schematic=4&participantId=51F71C531F4E4EB5A4686654C67B0FEA&assignmentId=57bebaac-6756-4729-a6dc-9e25b823e7be&projectId=742ed384-456e-4a46-b422-5d3d313078b8","51F71C531F4E4EB5A4686654C67B0FEA-2025-08-07-05-44-18","","756","","images/semantic_sequence/housework_semantic/housework_semantic_4.png","0","",""
"","","","","","image-button-response","71","400459","0.0-12.0-1.0-2.4","51F71C531F4E4EB5A4686654C67B0FEA","51F71C531F4E4EB5A4686654C67B0FEA","57bebaac-6756-4729-a6dc-9e25b823e7be","742ed384-456e-4a46-b422-5d3d313078b8","{""num_scrambled_semantic"":""8"",""num_scrambled_causal"":""4"",""num_scrambled_schematic"":""4"",""participantId"":""51F71C531F4E4EB5A4686654C67B0FEA"",""assignmentId"":""57bebaac-6756-4729-a6dc-9e25b823e7be"",""projectId"":""742ed384-456e-4a46-b422-5d3d313078b8""}","https://test12345.live/?num_scrambled_semantic=8&num_scrambled_causal=4&num_scrambled_schematic=4&participantId=51F71C531F4E4EB5A4686654C67B0FEA&assignmentId=57bebaac-6756-4729-a6dc-9e25b823e7be&projectId=742ed384-456e-4a46-b422-5d3d313078b8","51F71C531F4E4EB5A4686654C67B0FEA-2025-08-07-05-44-18","","null","","[]","null","",""
"","","","","","image-button-response","72","404963","0.0-12.0-1.0-0.5","51F71C531F4E4EB5A4686654C67B0FEA","51F71C531F4E4EB5A4686654C67B0FEA","57bebaac-6756-4729-a6dc-9e25b823e7be","742ed384-456e-4a46-b422-5d3d313078b8","{""num_scrambled_semantic"":""8"",""num_scrambled_causal"":""4"",""num_scrambled_schematic"":""4"",""participantId"":""51F71C531F4E4EB5A4686654C67B0FEA"",""assignmentId"":""57bebaac-6756-4729-a6dc-9e25b823e7be"",""projectId"":""742ed384-456e-4a46-b422-5d3d313078b8""}","https://test12345.live/?num_scrambled_semantic=8&num_scrambled_causal=4&num_scrambled_schematic=4&participantId=51F71C531F4E4EB5A4686654C67B0FEA&assignmentId=57bebaac-6756-4729-a6dc-9e25b823e7be&projectId=742ed384-456e-4a46-b422-5d3d313078b8","51F71C531F4E4EB5A4686654C67B0FEA-2025-08-07-05-44-18","","null","","images/semantic_sequence/housework_semantic/housework_semantic_9.png","null","",""
"","","","","","image-button-response","73","406105","0.0-12.0-1.0-1.5","51F71C531F4E4EB5A4686654C67B0FEA","51F71C531F4E4EB5A4686654C67B0FEA","57bebaac-6756-4729-a6dc-9e25b823e7be","742ed384-456e-4a46-b422-5d3d313078b8","{""num_scrambled_semantic"":""8"",""num_scrambled_causal"":""4"",""num_scrambled_schematic"":""4"",""participantId"":""51F71C531F4E4EB5A4686654C67B0FEA"",""assignmentId"":""57bebaac-6756-4729-a6dc-9e25b823e7be"",""projectId"":""742ed384-456e-4a46-b422-5d3d313078b8""}","https://test12345.live/?num_scrambled_semantic=8&num_scrambled_causal=4&num_scrambled_schematic=4&participantId=51F71C531F4E4EB5A4686654C67B0FEA&assignmentId=57bebaac-6756-4729-a6dc-9e25b823e7be&projectId=742ed384-456e-4a46-b422-5d3d313078b8","51F71C531F4E4EB5A4686654C67B0FEA-2025-08-07-05-44-18","","1140","","images/semantic_sequence/housework_semantic/housework_semantic_9.png","0","",""
"","","","","","image-button-response","74","407910","0.0-12.0-1.0-2.5","51F71C531F4E4EB5A4686654C67B0FEA","51F71C531F4E4EB5A4686654C67B0FEA","57bebaac-6756-4729-a6dc-9e25b823e7be","742ed384-456e-4a46-b422-5d3d313078b8","{""num_scrambled_semantic"":""8"",""num_scrambled_causal"":""4"",""num_scrambled_schematic"":""4"",""participantId"":""51F71C531F4E4EB5A4686654C67B0FEA"",""assignmentId"":""57bebaac-6756-4729-a6dc-9e25b823e7be"",""projectId"":""742ed384-456e-4a46-b422-5d3d313078b8""}","https://test12345.live/?num_scrambled_semantic=8&num_scrambled_causal=4&num_scrambled_schematic=4&participantId=51F71C531F4E4EB5A4686654C67B0FEA&assignmentId=57bebaac-6756-4729-a6dc-9e25b823e7be&projectId=742ed384-456e-4a46-b422-5d3d313078b8","51F71C531F4E4EB5A4686654C67B0FEA-2025-08-07-05-44-18","","null","","[]","null","",""
"","","","","","image-button-response","75","412412","0.0-12.0-1.0-0.6","51F71C531F4E4EB5A4686654C67B0FEA","51F71C531F4E4EB5A4686654C67B0FEA","57bebaac-6756-4729-a6dc-9e25b823e7be","742ed384-456e-4a46-b422-5d3d313078b8","{""num_scrambled_semantic"":""8"",""num_scrambled_causal"":""4"",""num_scrambled_schematic"":""4"",""participantId"":""51F71C531F4E4EB5A4686654C67B0FEA"",""assignmentId"":""57bebaac-6756-4729-a6dc-9e25b823e7be"",""projectId"":""742ed384-456e-4a46-b422-5d3d313078b8""}","https://test12345.live/?num_scrambled_semantic=8&num_scrambled_causal=4&num_scrambled_schematic=4&participantId=51F71C531F4E4EB5A4686654C67B0FEA&assignmentId=57bebaac-6756-4729-a6dc-9e25b823e7be&projectId=742ed384-456e-4a46-b422-5d3d313078b8","51F71C531F4E4EB5A4686654C67B0FEA-2025-08-07-05-44-18","","null","","images/semantic_sequence/housework_semantic/housework_semantic_3.png","null","",""
"","","","","","image-button-response","76","414363","0.0-12.0-1.0-1.6","51F71C531F4E4EB5A4686654C67B0FEA","51F71C531F4E4EB5A4686654C67B0FEA","57bebaac-6756-4729-a6dc-9e25b823e7be","742ed384-456e-4a46-b422-5d3d313078b8","{""num_scrambled_semantic"":""8"",""num_scrambled_causal"":""4"",""num_scrambled_schematic"":""4"",""participantId"":""51F71C531F4E4EB5A4686654C67B0FEA"",""assignmentId"":""57bebaac-6756-4729-a6dc-9e25b823e7be"",""projectId"":""742ed384-456e-4a46-b422-5d3d313078b8""}","https://test12345.live/?num_scrambled_semantic=8&num_scrambled_causal=4&num_scrambled_schematic=4&participantId=51F71C531F4E4EB5A4686654C67B0FEA&assignmentId=57bebaac-6756-4729-a6dc-9e25b823e7be&projectId=742ed384-456e-4a46-b422-5d3d313078b8","51F71C531F4E4EB5A4686654C67B0FEA-2025-08-07-05-44-18","","1949","","images/semantic_sequence/housework_semantic/housework_semantic_3.png","0","",""
"","","","","","image-button-response","77","416169","0.0-12.0-1.0-2.6","51F71C531F4E4EB5A4686654C67B0FEA","51F71C531F4E4EB5A4686654C67B0FEA","57bebaac-6756-4729-a6dc-9e25b823e7be","742ed384-456e-4a46-b422-5d3d313078b8","{""num_scrambled_semantic"":""8"",""num_scrambled_causal"":""4"",""num_scrambled_schematic"":""4"",""participantId"":""51F71C531F4E4EB5A4686654C67B0FEA"",""assignmentId"":""57bebaac-6756-4729-a6dc-9e25b823e7be"",""projectId"":""742ed384-456e-4a46-b422-5d3d313078b8""}","https://test12345.live/?num_scrambled_semantic=8&num_scrambled_causal=4&num_scrambled_schematic=4&participantId=51F71C531F4E4EB5A4686654C67B0FEA&assignmentId=57bebaac-6756-4729-a6dc-9e25b823e7be&projectId=742ed384-456e-4a46-b422-5d3d313078b8","51F71C531F4E4EB5A4686654C67B0FEA-2025-08-07-05-44-18","","null","","[]","null","",""
"","","","","","image-button-response","78","420671","0.0-12.0-1.0-0.7","51F71C531F4E4EB5A4686654C67B0FEA","51F71C531F4E4EB5A4686654C67B0FEA","57bebaac-6756-4729-a6dc-9e25b823e7be","742ed384-456e-4a46-b422-5d3d313078b8","{""num_scrambled_semantic"":""8"",""num_scrambled_causal"":""4"",""num_scrambled_schematic"":""4"",""participantId"":""51F71C531F4E4EB5A4686654C67B0FEA"",""assignmentId"":""57bebaac-6756-4729-a6dc-9e25b823e7be"",""projectId"":""742ed384-456e-4a46-b422-5d3d313078b8""}","https://test12345.live/?num_scrambled_semantic=8&num_scrambled_causal=4&num_scrambled_schematic=4&participantId=51F71C531F4E4EB5A4686654C67B0FEA&assignmentId=57bebaac-6756-4729-a6dc-9e25b823e7be&projectId=742ed384-456e-4a46-b422-5d3d313078b8","51F71C531F4E4EB5A4686654C67B0FEA-2025-08-07-05-44-18","","null","","images/semantic_sequence/housework_semantic/housework_semantic_7.png","null","",""
"","","","","","image-button-response","79","421481","0.0-12.0-1.0-1.7","51F71C531F4E4EB5A4686654C67B0FEA","51F71C531F4E4EB5A4686654C67B0FEA","57bebaac-6756-4729-a6dc-9e25b823e7be","742ed384-456e-4a46-b422-5d3d313078b8","{""num_scrambled_semantic"":""8"",""num_scrambled_causal"":""4"",""num_scrambled_schematic"":""4"",""participantId"":""51F71C531F4E4EB5A4686654C67B0FEA"",""assignmentId"":""57bebaac-6756-4729-a6dc-9e25b823e7be"",""projectId"":""742ed384-456e-4a46-b422-5d3d313078b8""}","https://test12345.live/?num_scrambled_semantic=8&num_scrambled_causal=4&num_scrambled_schematic=4&participantId=51F71C531F4E4EB5A4686654C67B0FEA&assignmentId=57bebaac-6756-4729-a6dc-9e25b823e7be&projectId=742ed384-456e-4a46-b422-5d3d313078b8","51F71C531F4E4EB5A4686654C67B0FEA-2025-08-07-05-44-18","","809","","images/semantic_sequence/housework_semantic/housework_semantic_7.png","0","",""
"","","","","","image-button-response","80","423285","0.0-12.0-1.0-2.7","51F71C531F4E4EB5A4686654C67B0FEA","51F71C531F4E4EB5A4686654C67B0FEA","57bebaac-6756-4729-a6dc-9e25b823e7be","742ed384-456e-4a46-b422-5d3d313078b8","{""num_scrambled_semantic"":""8"",""num_scrambled_causal"":""4"",""num_scrambled_schematic"":""4"",""participantId"":""51F71C531F4E4EB5A4686654C67B0FEA"",""assignmentId"":""57bebaac-6756-4729-a6dc-9e25b823e7be"",""projectId"":""742ed384-456e-4a46-b422-5d3d313078b8""}","https://test12345.live/?num_scrambled_semantic=8&num_scrambled_causal=4&num_scrambled_schematic=4&participantId=51F71C531F4E4EB5A4686654C67B0FEA&assignmentId=57bebaac-6756-4729-a6dc-9e25b823e7be&projectId=742ed384-456e-4a46-b422-5d3d313078b8","51F71C531F4E4EB5A4686654C67B0FEA-2025-08-07-05-44-18","","null","","[]","null","",""
"","","","","","image-button-response","81","427792","0.0-12.0-1.0-0.8","51F71C531F4E4EB5A4686654C67B0FEA","51F71C531F4E4EB5A4686654C67B0FEA","57bebaac-6756-4729-a6dc-9e25b823e7be","742ed384-456e-4a46-b422-5d3d313078b8","{""num_scrambled_semantic"":""8"",""num_scrambled_causal"":""4"",""num_scrambled_schematic"":""4"",""participantId"":""51F71C531F4E4EB5A4686654C67B0FEA"",""assignmentId"":""57bebaac-6756-4729-a6dc-9e25b823e7be"",""projectId"":""742ed384-456e-4a46-b422-5d3d313078b8""}","https://test12345.live/?num_scrambled_semantic=8&num_scrambled_causal=4&num_scrambled_schematic=4&participantId=51F71C531F4E4EB5A4686654C67B0FEA&assignmentId=57bebaac-6756-4729-a6dc-9e25b823e7be&projectId=742ed384-456e-4a46-b422-5d3d313078b8","51F71C531F4E4EB5A4686654C67B0FEA-2025-08-07-05-44-18","","null","","images/semantic_sequence/housework_semantic/housework_semantic_2.png","null","",""
"","","","","","image-button-response","82","428577","0.0-12.0-1.0-1.8","51F71C531F4E4EB5A4686654C67B0FEA","51F71C531F4E4EB5A4686654C67B0FEA","57bebaac-6756-4729-a6dc-9e25b823e7be","742ed384-456e-4a46-b422-5d3d313078b8","{""num_scrambled_semantic"":""8"",""num_scrambled_causal"":""4"",""num_scrambled_schematic"":""4"",""participantId"":""51F71C531F4E4EB5A4686654C67B0FEA"",""assignmentId"":""57bebaac-6756-4729-a6dc-9e25b823e7be"",""projectId"":""742ed384-456e-4a46-b422-5d3d313078b8""}","https://test12345.live/?num_scrambled_semantic=8&num_scrambled_causal=4&num_scrambled_schematic=4&participantId=51F71C531F4E4EB5A4686654C67B0FEA&assignmentId=57bebaac-6756-4729-a6dc-9e25b823e7be&projectId=742ed384-456e-4a46-b422-5d3d313078b8","51F71C531F4E4EB5A4686654C67B0FEA-2025-08-07-05-44-18","","783","","images/semantic_sequence/housework_semantic/housework_semantic_2.png","0","",""
"","","","","","image-button-response","83","430383","0.0-12.0-1.0-2.8","51F71C531F4E4EB5A4686654C67B0FEA","51F71C531F4E4EB5A4686654C67B0FEA","57bebaac-6756-4729-a6dc-9e25b823e7be","742ed384-456e-4a46-b422-5d3d313078b8","{""num_scrambled_semantic"":""8"",""num_scrambled_causal"":""4"",""num_scrambled_schematic"":""4"",""participantId"":""51F71C531F4E4EB5A4686654C67B0FEA"",""assignmentId"":""57bebaac-6756-4729-a6dc-9e25b823e7be"",""projectId"":""742ed384-456e-4a46-b422-5d3d313078b8""}","https://test12345.live/?num_scrambled_semantic=8&num_scrambled_causal=4&num_scrambled_schematic=4&participantId=51F71C531F4E4EB5A4686654C67B0FEA&assignmentId=57bebaac-6756-4729-a6dc-9e25b823e7be&projectId=742ed384-456e-4a46-b422-5d3d313078b8","51F71C531F4E4EB5A4686654C67B0FEA-2025-08-07-05-44-18","","null","","[]","null","",""
"","","","","","image-button-response","84","434885","0.0-12.0-1.0-0.9","51F71C531F4E4EB5A4686654C67B0FEA","51F71C531F4E4EB5A4686654C67B0FEA","57bebaac-6756-4729-a6dc-9e25b823e7be","742ed384-456e-4a46-b422-5d3d313078b8","{""num_scrambled_semantic"":""8"",""num_scrambled_causal"":""4"",""num_scrambled_schematic"":""4"",""participantId"":""51F71C531F4E4EB5A4686654C67B0FEA"",""assignmentId"":""57bebaac-6756-4729-a6dc-9e25b823e7be"",""projectId"":""742ed384-456e-4a46-b422-5d3d313078b8""}","https://test12345.live/?num_scrambled_semantic=8&num_scrambled_causal=4&num_scrambled_schematic=4&participantId=51F71C531F4E4EB5A4686654C67B0FEA&assignmentId=57bebaac-6756-4729-a6dc-9e25b823e7be&projectId=742ed384-456e-4a46-b422-5d3d313078b8","51F71C531F4E4EB5A4686654C67B0FEA-2025-08-07-05-44-18","","null","","images/semantic_sequence/housework_semantic/housework_semantic_1.png","null","",""
"","","","","","image-button-response","85","435808","0.0-12.0-1.0-1.9","51F71C531F4E4EB5A4686654C67B0FEA","51F71C531F4E4EB5A4686654C67B0FEA","57bebaac-6756-4729-a6dc-9e25b823e7be","742ed384-456e-4a46-b422-5d3d313078b8","{""num_scrambled_semantic"":""8"",""num_scrambled_causal"":""4"",""num_scrambled_schematic"":""4"",""participantId"":""51F71C531F4E4EB5A4686654C67B0FEA"",""assignmentId"":""57bebaac-6756-4729-a6dc-9e25b823e7be"",""projectId"":""742ed384-456e-4a46-b422-5d3d313078b8""}","https://test12345.live/?num_scrambled_semantic=8&num_scrambled_causal=4&num_scrambled_schematic=4&participantId=51F71C531F4E4EB5A4686654C67B0FEA&assignmentId=57bebaac-6756-4729-a6dc-9e25b823e7be&projectId=742ed384-456e-4a46-b422-5d3d313078b8","51F71C531F4E4EB5A4686654C67B0FEA-2025-08-07-05-44-18","","921","","images/semantic_sequence/housework_semantic/housework_semantic_1.png","0","",""
"","","","","","image-button-response","86","437614","0.0-12.0-1.0-2.9","51F71C531F4E4EB5A4686654C67B0FEA","51F71C531F4E4EB5A4686654C67B0FEA","57bebaac-6756-4729-a6dc-9e25b823e7be","742ed384-456e-4a46-b422-5d3d313078b8","{""num_scrambled_semantic"":""8"",""num_scrambled_causal"":""4"",""num_scrambled_schematic"":""4"",""participantId"":""51F71C531F4E4EB5A4686654C67B0FEA"",""assignmentId"":""57bebaac-6756-4729-a6dc-9e25b823e7be"",""projectId"":""742ed384-456e-4a46-b422-5d3d313078b8""}","https://test12345.live/?num_scrambled_semantic=8&num_scrambled_causal=4&num_scrambled_schematic=4&participantId=51F71C531F4E4EB5A4686654C67B0FEA&assignmentId=57bebaac-6756-4729-a6dc-9e25b823e7be&projectId=742ed384-456e-4a46-b422-5d3d313078b8","51F71C531F4E4EB5A4686654C67B0FEA-2025-08-07-05-44-18","","null","","[]","null","",""
"","","","","","html-audio-response","87","460899","0.0-13.0","51F71C531F4E4EB5A4686654C67B0FEA","51F71C531F4E4EB5A4686654C67B0FEA","57bebaac-6756-4729-a6dc-9e25b823e7be","742ed384-456e-4a46-b422-5d3d313078b8","{""num_scrambled_semantic"":""8"",""num_scrambled_causal"":""4"",""num_scrambled_schematic"":""4"",""participantId"":""51F71C531F4E4EB5A4686654C67B0FEA"",""assignmentId"":""57bebaac-6756-4729-a6dc-9e25b823e7be"",""projectId"":""742ed384-456e-4a46-b422-5d3d313078b8""}","https://test12345.live/?num_scrambled_semantic=8&num_scrambled_causal=4&num_scrambled_schematic=4&participantId=51F71C531F4E4EB5A4686654C67B0FEA&assignmentId=57bebaac-6756-4729-a6dc-9e25b823e7be&projectId=742ed384-456e-4a46-b422-5d3d313078b8","51F71C531F4E4EB5A4686654C67B0FEA-2025-08-07-05-44-18","","22141","","[""<span style=\""color: red; font-size: 24px\""> NOW RECORDING</span><p>Please say out loud all the images you saw, in the exact order you saw them. Try to recall as many images as you can, but remember: getting the order right is more important than the number of images you recall.</p>""]","","2","housework_semantic"
"","","","","","image-button-response","88","466906","0.0-14.0-0.0","51F71C531F4E4EB5A4686654C67B0FEA","51F71C531F4E4EB5A4686654C67B0FEA","57bebaac-6756-4729-a6dc-9e25b823e7be","742ed384-456e-4a46-b422-5d3d313078b8","{""num_scrambled_semantic"":""8"",""num_scrambled_causal"":""4"",""num_scrambled_schematic"":""4"",""participantId"":""51F71C531F4E4EB5A4686654C67B0FEA"",""assignmentId"":""57bebaac-6756-4729-a6dc-9e25b823e7be"",""projectId"":""742ed384-456e-4a46-b422-5d3d313078b8""}","https://test12345.live/?num_scrambled_semantic=8&num_scrambled_causal=4&num_scrambled_schematic=4&participantId=51F71C531F4E4EB5A4686654C67B0FEA&assignmentId=57bebaac-6756-4729-a6dc-9e25b823e7be&projectId=742ed384-456e-4a46-b422-5d3d313078b8","51F71C531F4E4EB5A4686654C67B0FEA-2025-08-07-05-44-18","","null","","images/semantic_sequence/physical_activity_semantic/physical_activity_semantic_0.png","null","",""
"","","","","","image-button-response","89","471412","0.0-14.0-1.0-0.0","51F71C531F4E4EB5A4686654C67B0FEA","51F71C531F4E4EB5A4686654C67B0FEA","57bebaac-6756-4729-a6dc-9e25b823e7be","742ed384-456e-4a46-b422-5d3d313078b8","{""num_scrambled_semantic"":""8"",""num_scrambled_causal"":""4"",""num_scrambled_schematic"":""4"",""participantId"":""51F71C531F4E4EB5A4686654C67B0FEA"",""assignmentId"":""57bebaac-6756-4729-a6dc-9e25b823e7be"",""projectId"":""742ed384-456e-4a46-b422-5d3d313078b8""}","https://test12345.live/?num_scrambled_semantic=8&num_scrambled_causal=4&num_scrambled_schematic=4&participantId=51F71C531F4E4EB5A4686654C67B0FEA&assignmentId=57bebaac-6756-4729-a6dc-9e25b823e7be&projectId=742ed384-456e-4a46-b422-5d3d313078b8","51F71C531F4E4EB5A4686654C67B0FEA-2025-08-07-05-44-18","","null","","images/semantic_sequence/physical_activity_semantic/physical_activity_semantic_4.png","null","",""
"","","","","","image-button-response","90","472876","0.0-14.0-1.0-1.0","51F71C531F4E4EB5A4686654C67B0FEA","51F71C531F4E4EB5A4686654C67B0FEA","57bebaac-6756-4729-a6dc-9e25b823e7be","742ed384-456e-4a46-b422-5d3d313078b8","{""num_scrambled_semantic"":""8"",""num_scrambled_causal"":""4"",""num_scrambled_schematic"":""4"",""participantId"":""51F71C531F4E4EB5A4686654C67B0FEA"",""assignmentId"":""57bebaac-6756-4729-a6dc-9e25b823e7be"",""projectId"":""742ed384-456e-4a46-b422-5d3d313078b8""}","https://test12345.live/?num_scrambled_semantic=8&num_scrambled_causal=4&num_scrambled_schematic=4&participantId=51F71C531F4E4EB5A4686654C67B0FEA&assignmentId=57bebaac-6756-4729-a6dc-9e25b823e7be&projectId=742ed384-456e-4a46-b422-5d3d313078b8","51F71C531F4E4EB5A4686654C67B0FEA-2025-08-07-05-44-18","","1462","","images/semantic_sequence/physical_activity_semantic/physical_activity_semantic_4.png","0","",""
"","","","","","image-button-response","91","474678","0.0-14.0-1.0-2.0","51F71C531F4E4EB5A4686654C67B0FEA","51F71C531F4E4EB5A4686654C67B0FEA","57bebaac-6756-4729-a6dc-9e25b823e7be","742ed384-456e-4a46-b422-5d3d313078b8","{""num_scrambled_semantic"":""8"",""num_scrambled_causal"":""4"",""num_scrambled_schematic"":""4"",""participantId"":""51F71C531F4E4EB5A4686654C67B0FEA"",""assignmentId"":""57bebaac-6756-4729-a6dc-9e25b823e7be"",""projectId"":""742ed384-456e-4a46-b422-5d3d313078b8""}","https://test12345.live/?num_scrambled_semantic=8&num_scrambled_causal=4&num_scrambled_schematic=4&participantId=51F71C531F4E4EB5A4686654C67B0FEA&assignmentId=57bebaac-6756-4729-a6dc-9e25b823e7be&projectId=742ed384-456e-4a46-b422-5d3d313078b8","51F71C531F4E4EB5A4686654C67B0FEA-2025-08-07-05-44-18","","null","","[]","null","",""
"","","","","","image-button-response","92","479183","0.0-14.0-1.0-0.1","51F71C531F4E4EB5A4686654C67B0FEA","51F71C531F4E4EB5A4686654C67B0FEA","57bebaac-6756-4729-a6dc-9e25b823e7be","742ed384-456e-4a46-b422-5d3d313078b8","{""num_scrambled_semantic"":""8"",""num_scrambled_causal"":""4"",""num_scrambled_schematic"":""4"",""participantId"":""51F71C531F4E4EB5A4686654C67B0FEA"",""assignmentId"":""57bebaac-6756-4729-a6dc-9e25b823e7be"",""projectId"":""742ed384-456e-4a46-b422-5d3d313078b8""}","https://test12345.live/?num_scrambled_semantic=8&num_scrambled_causal=4&num_scrambled_schematic=4&participantId=51F71C531F4E4EB5A4686654C67B0FEA&assignmentId=57bebaac-6756-4729-a6dc-9e25b823e7be&projectId=742ed384-456e-4a46-b422-5d3d313078b8","51F71C531F4E4EB5A4686654C67B0FEA-2025-08-07-05-44-18","","null","","images/semantic_sequence/physical_activity_semantic/physical_activity_semantic_1.png","null","",""
"","","","","","image-button-response","93","480460","0.0-14.0-1.0-1.1","51F71C531F4E4EB5A4686654C67B0FEA","51F71C531F4E4EB5A4686654C67B0FEA","57bebaac-6756-4729-a6dc-9e25b823e7be","742ed384-456e-4a46-b422-5d3d313078b8","{""num_scrambled_semantic"":""8"",""num_scrambled_causal"":""4"",""num_scrambled_schematic"":""4"",""participantId"":""51F71C531F4E4EB5A4686654C67B0FEA"",""assignmentId"":""57bebaac-6756-4729-a6dc-9e25b823e7be"",""projectId"":""742ed384-456e-4a46-b422-5d3d313078b8""}","https://test12345.live/?num_scrambled_semantic=8&num_scrambled_causal=4&num_scrambled_schematic=4&participantId=51F71C531F4E4EB5A4686654C67B0FEA&assignmentId=57bebaac-6756-4729-a6dc-9e25b823e7be&projectId=742ed384-456e-4a46-b422-5d3d313078b8","51F71C531F4E4EB5A4686654C67B0FEA-2025-08-07-05-44-18","","1276","","images/semantic_sequence/physical_activity_semantic/physical_activity_semantic_1.png","0","",""
"","","","","","image-button-response","94","482265","0.0-14.0-1.0-2.1","51F71C531F4E4EB5A4686654C67B0FEA","51F71C531F4E4EB5A4686654C67B0FEA","57bebaac-6756-4729-a6dc-9e25b823e7be","742ed384-456e-4a46-b422-5d3d313078b8","{""num_scrambled_semantic"":""8"",""num_scrambled_causal"":""4"",""num_scrambled_schematic"":""4"",""participantId"":""51F71C531F4E4EB5A4686654C67B0FEA"",""assignmentId"":""57bebaac-6756-4729-a6dc-9e25b823e7be"",""projectId"":""742ed384-456e-4a46-b422-5d3d313078b8""}","https://test12345.live/?num_scrambled_semantic=8&num_scrambled_causal=4&num_scrambled_schematic=4&participantId=51F71C531F4E4EB5A4686654C67B0FEA&assignmentId=57bebaac-6756-4729-a6dc-9e25b823e7be&projectId=742ed384-456e-4a46-b422-5d3d313078b8","51F71C531F4E4EB5A4686654C67B0FEA-2025-08-07-05-44-18","","null","","[]","null","",""
"","","","","","image-button-response","95","486773","0.0-14.0-1.0-0.2","51F71C531F4E4EB5A4686654C67B0FEA","51F71C531F4E4EB5A4686654C67B0FEA","57bebaac-6756-4729-a6dc-9e25b823e7be","742ed384-456e-4a46-b422-5d3d313078b8","{""num_scrambled_semantic"":""8"",""num_scrambled_causal"":""4"",""num_scrambled_schematic"":""4"",""participantId"":""51F71C531F4E4EB5A4686654C67B0FEA"",""assignmentId"":""57bebaac-6756-4729-a6dc-9e25b823e7be"",""projectId"":""742ed384-456e-4a46-b422-5d3d313078b8""}","https://test12345.live/?num_scrambled_semantic=8&num_scrambled_causal=4&num_scrambled_schematic=4&participantId=51F71C531F4E4EB5A4686654C67B0FEA&assignmentId=57bebaac-6756-4729-a6dc-9e25b823e7be&projectId=742ed384-456e-4a46-b422-5d3d313078b8","51F71C531F4E4EB5A4686654C67B0FEA-2025-08-07-05-44-18","","null","","images/semantic_sequence/physical_activity_semantic/physical_activity_semantic_8.png","null","",""
"","","","","","image-button-response","96","487519","0.0-14.0-1.0-1.2","51F71C531F4E4EB5A4686654C67B0FEA","51F71C531F4E4EB5A4686654C67B0FEA","57bebaac-6756-4729-a6dc-9e25b823e7be","742ed384-456e-4a46-b422-5d3d313078b8","{""num_scrambled_semantic"":""8"",""num_scrambled_causal"":""4"",""num_scrambled_schematic"":""4"",""participantId"":""51F71C531F4E4EB5A4686654C67B0FEA"",""assignmentId"":""57bebaac-6756-4729-a6dc-9e25b823e7be"",""projectId"":""742ed384-456e-4a46-b422-5d3d313078b8""}","https://test12345.live/?num_scrambled_semantic=8&num_scrambled_causal=4&num_scrambled_schematic=4&participantId=51F71C531F4E4EB5A4686654C67B0FEA&assignmentId=57bebaac-6756-4729-a6dc-9e25b823e7be&projectId=742ed384-456e-4a46-b422-5d3d313078b8","51F71C531F4E4EB5A4686654C67B0FEA-2025-08-07-05-44-18","","744","","images/semantic_sequence/physical_activity_semantic/physical_activity_semantic_8.png","0","",""
"","","","","","image-button-response","97","489325","0.0-14.0-1.0-2.2","51F71C531F4E4EB5A4686654C67B0FEA","51F71C531F4E4EB5A4686654C67B0FEA","57bebaac-6756-4729-a6dc-9e25b823e7be","742ed384-456e-4a46-b422-5d3d313078b8","{""num_scrambled_semantic"":""8"",""num_scrambled_causal"":""4"",""num_scrambled_schematic"":""4"",""participantId"":""51F71C531F4E4EB5A4686654C67B0FEA"",""assignmentId"":""57bebaac-6756-4729-a6dc-9e25b823e7be"",""projectId"":""742ed384-456e-4a46-b422-5d3d313078b8""}","https://test12345.live/?num_scrambled_semantic=8&num_scrambled_causal=4&num_scrambled_schematic=4&participantId=51F71C531F4E4EB5A4686654C67B0FEA&assignmentId=57bebaac-6756-4729-a6dc-9e25b823e7be&projectId=742ed384-456e-4a46-b422-5d3d313078b8","51F71C531F4E4EB5A4686654C67B0FEA-2025-08-07-05-44-18","","null","","[]","null","",""
"","","","","","image-button-response","98","493832","0.0-14.0-1.0-0.3","51F71C531F4E4EB5A4686654C67B0FEA","51F71C531F4E4EB5A4686654C67B0FEA","57bebaac-6756-4729-a6dc-9e25b823e7be","742ed384-456e-4a46-b422-5d3d313078b8","{""num_scrambled_semantic"":""8"",""num_scrambled_causal"":""4"",""num_scrambled_schematic"":""4"",""participantId"":""51F71C531F4E4EB5A4686654C67B0FEA"",""assignmentId"":""57bebaac-6756-4729-a6dc-9e25b823e7be"",""projectId"":""742ed384-456e-4a46-b422-5d3d313078b8""}","https://test12345.live/?num_scrambled_semantic=8&num_scrambled_causal=4&num_scrambled_schematic=4&participantId=51F71C531F4E4EB5A4686654C67B0FEA&assignmentId=57bebaac-6756-4729-a6dc-9e25b823e7be&projectId=742ed384-456e-4a46-b422-5d3d313078b8","51F71C531F4E4EB5A4686654C67B0FEA-2025-08-07-05-44-18","","null","","images/semantic_sequence/physical_activity_semantic/physical_activity_semantic_7.png","null","",""
"","","","","","image-button-response","99","497794","0.0-14.0-1.0-1.3","51F71C531F4E4EB5A4686654C67B0FEA","51F71C531F4E4EB5A4686654C67B0FEA","57bebaac-6756-4729-a6dc-9e25b823e7be","742ed384-456e-4a46-b422-5d3d313078b8","{""num_scrambled_semantic"":""8"",""num_scrambled_causal"":""4"",""num_scrambled_schematic"":""4"",""participantId"":""51F71C531F4E4EB5A4686654C67B0FEA"",""assignmentId"":""57bebaac-6756-4729-a6dc-9e25b823e7be"",""projectId"":""742ed384-456e-4a46-b422-5d3d313078b8""}","https://test12345.live/?num_scrambled_semantic=8&num_scrambled_causal=4&num_scrambled_schematic=4&participantId=51F71C531F4E4EB5A4686654C67B0FEA&assignmentId=57bebaac-6756-4729-a6dc-9e25b823e7be&projectId=742ed384-456e-4a46-b422-5d3d313078b8","51F71C531F4E4EB5A4686654C67B0FEA-2025-08-07-05-44-18","","3960","","images/semantic_sequence/physical_activity_semantic/physical_activity_semantic_7.png","0","",""
"","","","","","image-button-response","100","499601","0.0-14.0-1.0-2.3","51F71C531F4E4EB5A4686654C67B0FEA","51F71C531F4E4EB5A4686654C67B0FEA","57bebaac-6756-4729-a6dc-9e25b823e7be","742ed384-456e-4a46-b422-5d3d313078b8","{""num_scrambled_semantic"":""8"",""num_scrambled_causal"":""4"",""num_scrambled_schematic"":""4"",""participantId"":""51F71C531F4E4EB5A4686654C67B0FEA"",""assignmentId"":""57bebaac-6756-4729-a6dc-9e25b823e7be"",""projectId"":""742ed384-456e-4a46-b422-5d3d313078b8""}","https://test12345.live/?num_scrambled_semantic=8&num_scrambled_causal=4&num_scrambled_schematic=4&participantId=51F71C531F4E4EB5A4686654C67B0FEA&assignmentId=57bebaac-6756-4729-a6dc-9e25b823e7be&projectId=742ed384-456e-4a46-b422-5d3d313078b8","51F71C531F4E4EB5A4686654C67B0FEA-2025-08-07-05-44-18","","null","","[]","null","",""
"","","","","","image-button-response","101","504102","0.0-14.0-1.0-0.4","51F71C531F4E4EB5A4686654C67B0FEA","51F71C531F4E4EB5A4686654C67B0FEA","57bebaac-6756-4729-a6dc-9e25b823e7be","742ed384-456e-4a46-b422-5d3d313078b8","{""num_scrambled_semantic"":""8"",""num_scrambled_causal"":""4"",""num_scrambled_schematic"":""4"",""participantId"":""51F71C531F4E4EB5A4686654C67B0FEA"",""assignmentId"":""57bebaac-6756-4729-a6dc-9e25b823e7be"",""projectId"":""742ed384-456e-4a46-b422-5d3d313078b8""}","https://test12345.live/?num_scrambled_semantic=8&num_scrambled_causal=4&num_scrambled_schematic=4&participantId=51F71C531F4E4EB5A4686654C67B0FEA&assignmentId=57bebaac-6756-4729-a6dc-9e25b823e7be&projectId=742ed384-456e-4a46-b422-5d3d313078b8","51F71C531F4E4EB5A4686654C67B0FEA-2025-08-07-05-44-18","","null","","images/semantic_sequence/physical_activity_semantic/physical_activity_semantic_6.png","null","",""
"","","","","","image-button-response","102","505011","0.0-14.0-1.0-1.4","51F71C531F4E4EB5A4686654C67B0FEA","51F71C531F4E4EB5A4686654C67B0FEA","57bebaac-6756-4729-a6dc-9e25b823e7be","742ed384-456e-4a46-b422-5d3d313078b8","{""num_scrambled_semantic"":""8"",""num_scrambled_causal"":""4"",""num_scrambled_schematic"":""4"",""participantId"":""51F71C531F4E4EB5A4686654C67B0FEA"",""assignmentId"":""57bebaac-6756-4729-a6dc-9e25b823e7be"",""projectId"":""742ed384-456e-4a46-b422-5d3d313078b8""}","https://test12345.live/?num_scrambled_semantic=8&num_scrambled_causal=4&num_scrambled_schematic=4&participantId=51F71C531F4E4EB5A4686654C67B0FEA&assignmentId=57bebaac-6756-4729-a6dc-9e25b823e7be&projectId=742ed384-456e-4a46-b422-5d3d313078b8","51F71C531F4E4EB5A4686654C67B0FEA-2025-08-07-05-44-18","","907","","images/semantic_sequence/physical_activity_semantic/physical_activity_semantic_6.png","0","",""
"","","","","","image-button-response","103","506815","0.0-14.0-1.0-2.4","51F71C531F4E4EB5A4686654C67B0FEA","51F71C531F4E4EB5A4686654C67B0FEA","57bebaac-6756-4729-a6dc-9e25b823e7be","742ed384-456e-4a46-b422-5d3d313078b8","{""num_scrambled_semantic"":""8"",""num_scrambled_causal"":""4"",""num_scrambled_schematic"":""4"",""participantId"":""51F71C531F4E4EB5A4686654C67B0FEA"",""assignmentId"":""57bebaac-6756-4729-a6dc-9e25b823e7be"",""projectId"":""742ed384-456e-4a46-b422-5d3d313078b8""}","https://test12345.live/?num_scrambled_semantic=8&num_scrambled_causal=4&num_scrambled_schematic=4&participantId=51F71C531F4E4EB5A4686654C67B0FEA&assignmentId=57bebaac-6756-4729-a6dc-9e25b823e7be&projectId=742ed384-456e-4a46-b422-5d3d313078b8","51F71C531F4E4EB5A4686654C67B0FEA-2025-08-07-05-44-18","","null","","[]","null","",""
"","","","","","image-button-response","104","511322","0.0-14.0-1.0-0.5","51F71C531F4E4EB5A4686654C67B0FEA","51F71C531F4E4EB5A4686654C67B0FEA","57bebaac-6756-4729-a6dc-9e25b823e7be","742ed384-456e-4a46-b422-5d3d313078b8","{""num_scrambled_semantic"":""8"",""num_scrambled_causal"":""4"",""num_scrambled_schematic"":""4"",""participantId"":""51F71C531F4E4EB5A4686654C67B0FEA"",""assignmentId"":""57bebaac-6756-4729-a6dc-9e25b823e7be"",""projectId"":""742ed384-456e-4a46-b422-5d3d313078b8""}","https://test12345.live/?num_scrambled_semantic=8&num_scrambled_causal=4&num_scrambled_schematic=4&participantId=51F71C531F4E4EB5A4686654C67B0FEA&assignmentId=57bebaac-6756-4729-a6dc-9e25b823e7be&projectId=742ed384-456e-4a46-b422-5d3d313078b8","51F71C531F4E4EB5A4686654C67B0FEA-2025-08-07-05-44-18","","null","","images/semantic_sequence/physical_activity_semantic/physical_activity_semantic_9.png","null","",""
"","","","","","image-button-response","105","512203","0.0-14.0-1.0-1.5","51F71C531F4E4EB5A4686654C67B0FEA","51F71C531F4E4EB5A4686654C67B0FEA","57bebaac-6756-4729-a6dc-9e25b823e7be","742ed384-456e-4a46-b422-5d3d313078b8","{""num_scrambled_semantic"":""8"",""num_scrambled_causal"":""4"",""num_scrambled_schematic"":""4"",""participantId"":""51F71C531F4E4EB5A4686654C67B0FEA"",""assignmentId"":""57bebaac-6756-4729-a6dc-9e25b823e7be"",""projectId"":""742ed384-456e-4a46-b422-5d3d313078b8""}","https://test12345.live/?num_scrambled_semantic=8&num_scrambled_causal=4&num_scrambled_schematic=4&participantId=51F71C531F4E4EB5A4686654C67B0FEA&assignmentId=57bebaac-6756-4729-a6dc-9e25b823e7be&projectId=742ed384-456e-4a46-b422-5d3d313078b8","51F71C531F4E4EB5A4686654C67B0FEA-2025-08-07-05-44-18","","879","","images/semantic_sequence/physical_activity_semantic/physical_activity_semantic_9.png","0","",""
"","","","","","image-button-response","106","514008","0.0-14.0-1.0-2.5","51F71C531F4E4EB5A4686654C67B0FEA","51F71C531F4E4EB5A4686654C67B0FEA","57bebaac-6756-4729-a6dc-9e25b823e7be","742ed384-456e-4a46-b422-5d3d313078b8","{""num_scrambled_semantic"":""8"",""num_scrambled_causal"":""4"",""num_scrambled_schematic"":""4"",""participantId"":""51F71C531F4E4EB5A4686654C67B0FEA"",""assignmentId"":""57bebaac-6756-4729-a6dc-9e25b823e7be"",""projectId"":""742ed384-456e-4a46-b422-5d3d313078b8""}","https://test12345.live/?num_scrambled_semantic=8&num_scrambled_causal=4&num_scrambled_schematic=4&participantId=51F71C531F4E4EB5A4686654C67B0FEA&assignmentId=57bebaac-6756-4729-a6dc-9e25b823e7be&projectId=742ed384-456e-4a46-b422-5d3d313078b8","51F71C531F4E4EB5A4686654C67B0FEA-2025-08-07-05-44-18","","null","","[]","null","",""
"","","","","","image-button-response","107","518512","0.0-14.0-1.0-0.6","51F71C531F4E4EB5A4686654C67B0FEA","51F71C531F4E4EB5A4686654C67B0FEA","57bebaac-6756-4729-a6dc-9e25b823e7be","742ed384-456e-4a46-b422-5d3d313078b8","{""num_scrambled_semantic"":""8"",""num_scrambled_causal"":""4"",""num_scrambled_schematic"":""4"",""participantId"":""51F71C531F4E4EB5A4686654C67B0FEA"",""assignmentId"":""57bebaac-6756-4729-a6dc-9e25b823e7be"",""projectId"":""742ed384-456e-4a46-b422-5d3d313078b8""}","https://test12345.live/?num_scrambled_semantic=8&num_scrambled_causal=4&num_scrambled_schematic=4&participantId=51F71C531F4E4EB5A4686654C67B0FEA&assignmentId=57bebaac-6756-4729-a6dc-9e25b823e7be&projectId=742ed384-456e-4a46-b422-5d3d313078b8","51F71C531F4E4EB5A4686654C67B0FEA-2025-08-07-05-44-18","","null","","images/semantic_sequence/physical_activity_semantic/physical_activity_semantic_3.png","null","",""
"","","","","","image-button-response","108","519230","0.0-14.0-1.0-1.6","51F71C531F4E4EB5A4686654C67B0FEA","51F71C531F4E4EB5A4686654C67B0FEA","57bebaac-6756-4729-a6dc-9e25b823e7be","742ed384-456e-4a46-b422-5d3d313078b8","{""num_scrambled_semantic"":""8"",""num_scrambled_causal"":""4"",""num_scrambled_schematic"":""4"",""participantId"":""51F71C531F4E4EB5A4686654C67B0FEA"",""assignmentId"":""57bebaac-6756-4729-a6dc-9e25b823e7be"",""projectId"":""742ed384-456e-4a46-b422-5d3d313078b8""}","https://test12345.live/?num_scrambled_semantic=8&num_scrambled_causal=4&num_scrambled_schematic=4&participantId=51F71C531F4E4EB5A4686654C67B0FEA&assignmentId=57bebaac-6756-4729-a6dc-9e25b823e7be&projectId=742ed384-456e-4a46-b422-5d3d313078b8","51F71C531F4E4EB5A4686654C67B0FEA-2025-08-07-05-44-18","","717","","images/semantic_sequence/physical_activity_semantic/physical_activity_semantic_3.png","0","",""
"","","","","","image-button-response","109","521035","0.0-14.0-1.0-2.6","51F71C531F4E4EB5A4686654C67B0FEA","51F71C531F4E4EB5A4686654C67B0FEA","57bebaac-6756-4729-a6dc-9e25b823e7be","742ed384-456e-4a46-b422-5d3d313078b8","{""num_scrambled_semantic"":""8"",""num_scrambled_causal"":""4"",""num_scrambled_schematic"":""4"",""participantId"":""51F71C531F4E4EB5A4686654C67B0FEA"",""assignmentId"":""57bebaac-6756-4729-a6dc-9e25b823e7be"",""projectId"":""742ed384-456e-4a46-b422-5d3d313078b8""}","https://test12345.live/?num_scrambled_semantic=8&num_scrambled_causal=4&num_scrambled_schematic=4&participantId=51F71C531F4E4EB5A4686654C67B0FEA&assignmentId=57bebaac-6756-4729-a6dc-9e25b823e7be&projectId=742ed384-456e-4a46-b422-5d3d313078b8","51F71C531F4E4EB5A4686654C67B0FEA-2025-08-07-05-44-18","","null","","[]","null","",""
"","","","","","image-button-response","110","525539","0.0-14.0-1.0-0.7","51F71C531F4E4EB5A4686654C67B0FEA","51F71C531F4E4EB5A4686654C67B0FEA","57bebaac-6756-4729-a6dc-9e25b823e7be","742ed384-456e-4a46-b422-5d3d313078b8","{""num_scrambled_semantic"":""8"",""num_scrambled_causal"":""4"",""num_scrambled_schematic"":""4"",""participantId"":""51F71C531F4E4EB5A4686654C67B0FEA"",""assignmentId"":""57bebaac-6756-4729-a6dc-9e25b823e7be"",""projectId"":""742ed384-456e-4a46-b422-5d3d313078b8""}","https://test12345.live/?num_scrambled_semantic=8&num_scrambled_causal=4&num_scrambled_schematic=4&participantId=51F71C531F4E4EB5A4686654C67B0FEA&assignmentId=57bebaac-6756-4729-a6dc-9e25b823e7be&projectId=742ed384-456e-4a46-b422-5d3d313078b8","51F71C531F4E4EB5A4686654C67B0FEA-2025-08-07-05-44-18","","null","","images/semantic_sequence/physical_activity_semantic/physical_activity_semantic_2.png","null","",""
"","","","","","image-button-response","111","527038","0.0-14.0-1.0-1.7","51F71C531F4E4EB5A4686654C67B0FEA","51F71C531F4E4EB5A4686654C67B0FEA","57bebaac-6756-4729-a6dc-9e25b823e7be","742ed384-456e-4a46-b422-5d3d313078b8","{""num_scrambled_semantic"":""8"",""num_scrambled_causal"":""4"",""num_scrambled_schematic"":""4"",""participantId"":""51F71C531F4E4EB5A4686654C67B0FEA"",""assignmentId"":""57bebaac-6756-4729-a6dc-9e25b823e7be"",""projectId"":""742ed384-456e-4a46-b422-5d3d313078b8""}","https://test12345.live/?num_scrambled_semantic=8&num_scrambled_causal=4&num_scrambled_schematic=4&participantId=51F71C531F4E4EB5A4686654C67B0FEA&assignmentId=57bebaac-6756-4729-a6dc-9e25b823e7be&projectId=742ed384-456e-4a46-b422-5d3d313078b8","51F71C531F4E4EB5A4686654C67B0FEA-2025-08-07-05-44-18","","1498","","images/semantic_sequence/physical_activity_semantic/physical_activity_semantic_2.png","0","",""
"","","","","","image-button-response","112","528843","0.0-14.0-1.0-2.7","51F71C531F4E4EB5A4686654C67B0FEA","51F71C531F4E4EB5A4686654C67B0FEA","57bebaac-6756-4729-a6dc-9e25b823e7be","742ed384-456e-4a46-b422-5d3d313078b8","{""num_scrambled_semantic"":""8"",""num_scrambled_causal"":""4"",""num_scrambled_schematic"":""4"",""participantId"":""51F71C531F4E4EB5A4686654C67B0FEA"",""assignmentId"":""57bebaac-6756-4729-a6dc-9e25b823e7be"",""projectId"":""742ed384-456e-4a46-b422-5d3d313078b8""}","https://test12345.live/?num_scrambled_semantic=8&num_scrambled_causal=4&num_scrambled_schematic=4&participantId=51F71C531F4E4EB5A4686654C67B0FEA&assignmentId=57bebaac-6756-4729-a6dc-9e25b823e7be&projectId=742ed384-456e-4a46-b422-5d3d313078b8","51F71C531F4E4EB5A4686654C67B0FEA-2025-08-07-05-44-18","","null","","[]","null","",""
"","","","","","image-button-response","113","533345","0.0-14.0-1.0-0.8","51F71C531F4E4EB5A4686654C67B0FEA","51F71C531F4E4EB5A4686654C67B0FEA","57bebaac-6756-4729-a6dc-9e25b823e7be","742ed384-456e-4a46-b422-5d3d313078b8","{""num_scrambled_semantic"":""8"",""num_scrambled_causal"":""4"",""num_scrambled_schematic"":""4"",""participantId"":""51F71C531F4E4EB5A4686654C67B0FEA"",""assignmentId"":""57bebaac-6756-4729-a6dc-9e25b823e7be"",""projectId"":""742ed384-456e-4a46-b422-5d3d313078b8""}","https://test12345.live/?num_scrambled_semantic=8&num_scrambled_causal=4&num_scrambled_schematic=4&participantId=51F71C531F4E4EB5A4686654C67B0FEA&assignmentId=57bebaac-6756-4729-a6dc-9e25b823e7be&projectId=742ed384-456e-4a46-b422-5d3d313078b8","51F71C531F4E4EB5A4686654C67B0FEA-2025-08-07-05-44-18","","null","","images/semantic_sequence/physical_activity_semantic/physical_activity_semantic_5.png","null","",""
